acc_sum,block,block_c,change,condition,correct,correct_response,datetime,endtime,face,project,response,response_time,row_sel,session_number,start_end,starttime,subject_id,task,task_vers,trial
0,prac,1,,1-Back,,,Fri Apr 04 2025 12:06:13 GMT-0500 (Central Daylight Time),,012_o_f_d_a.png,O,space,16877,1,1,,,7070,VNB,C,0
1,prac,1,0.0,1-Back,1,m,Fri Apr 04 2025 12:06:13 GMT-0500 (Central Daylight Time),186104.0,022_y_f_n_a.png,O,m,1363,2,1,2255.8000000044703,183848.19999999553,7070,VNB,C,1
2,prac,1,0.0,1-Back,1,m,Fri Apr 04 2025 12:06:13 GMT-0500 (Central Daylight Time),188486.59999999404,014_m_m_h_a.png,O,m,1503,3,1,2373.0999999940395,186113.5,7070,VNB,C,2
3,prac,1,0.0,1-Back,1,m,Fri Apr 04 2025 12:06:13 GMT-0500 (Central Daylight Time),190702.0,025_y_m_d_a.png,O,m,1340,4,1,2206.2000000029802,188495.79999999702,7070,VNB,C,3
4,prac,1,0.0,1-Back,1,m,Fri Apr 04 2025 12:06:13 GMT-0500 (Central Daylight Time),192769.0,012_o_f_n_a.png,O,m,1186,5,1,2057.8000000044703,190711.19999999553,7070,VNB,C,4
4,prac,1,1.0,1-Back,0,z,Fri Apr 04 2025 12:06:13 GMT-0500 (Central Daylight Time),194519.19999999553,025_y_m_n_a.png,O,m,893,6,1,1741.8999999985099,192777.29999999702,7070,VNB,C,5
5,prac,1,0.0,1-Back,1,m,Fri Apr 04 2025 12:06:13 GMT-0500 (Central Daylight Time),196985.19999999553,015_o_m_h_a.png,O,m,1579,7,1,2456.89999999851,194528.29999999702,7070,VNB,C,6
6,prac,1,0.0,1-Back,1,m,Fri Apr 04 2025 12:06:13 GMT-0500 (Central Daylight Time),198884.19999999553,019_m_f_d_a.png,O,m,1013,8,1,1890.0,196994.19999999553,7070,VNB,C,7
6,prac,1,1.0,1-Back,0,z,Fri Apr 04 2025 12:06:13 GMT-0500 (Central Daylight Time),201198.29999999702,022_y_f_d_a.png,O,m,1414,9,1,2304.0,198894.29999999702,7070,VNB,C,8
7,prac,1,0.0,1-Back,1,m,Fri Apr 04 2025 12:06:13 GMT-0500 (Central Daylight Time),203499.29999999702,014_m_m_n_a.png,O,m,1426,10,1,2290.60000000149,201208.69999999553,7070,VNB,C,9
8,prac,1,0.0,1-Back,1,m,Fri Apr 04 2025 12:06:13 GMT-0500 (Central Daylight Time),205614.59999999404,012_o_f_h_a.png,O,m,1232,11,1,2106.6999999955297,203507.8999999985,7070,VNB,C,10
9,prac,1,0.0,1-Back,1,m,Fri Apr 04 2025 12:06:13 GMT-0500 (Central Daylight Time),207513.29999999702,025_y_m_d_a.png,O,m,1033,12,1,1889.0,205624.29999999702,7070,VNB,C,11
0,prac,2,0.0,1-Back,,,Fri Apr 04 2025 12:06:13 GMT-0500 (Central Daylight Time),207513.29999999702,012_o_f_d_a.png,O,a,5542,1,1,1889.0,205624.29999999702,7070,VNB,C,0
1,prac,2,0.0,1-Back,1,m,Fri Apr 04 2025 12:06:13 GMT-0500 (Central Daylight Time),218176.29999999702,022_y_f_n_a.png,O,m,1186,2,1,2070.2999999970198,216106.0,7070,VNB,C,1
1,prac,2,0.0,1-Back,0,m,Fri Apr 04 2025 12:06:13 GMT-0500 (Central Daylight Time),220775.19999999553,014_m_m_h_a.png,O,z,1718,3,1,2589.1999999955297,218186.0,7070,VNB,C,2
1,prac,2,0.0,1-Back,0,m,Fri Apr 04 2025 12:06:13 GMT-0500 (Central Daylight Time),223559.3999999985,025_y_m_d_a.png,O,None,2004,4,1,2773.39999999851,220786.0,7070,VNB,C,3
2,prac,2,0.0,1-Back,1,m,Fri Apr 04 2025 12:06:13 GMT-0500 (Central Daylight Time),226157.09999999404,012_o_f_n_a.png,O,m,1714,5,1,2587.5999999940395,223569.5,7070,VNB,C,4
2,prac,2,1.0,1-Back,0,z,Fri Apr 04 2025 12:06:13 GMT-0500 (Central Daylight Time),228441.0,025_y_m_n_a.png,O,m,1406,6,1,2275.3000000044703,226165.69999999553,7070,VNB,C,5
3,prac,2,0.0,1-Back,1,m,Fri Apr 04 2025 12:06:13 GMT-0500 (Central Daylight Time),230922.19999999553,015_o_m_h_a.png,O,m,1587,7,1,2472.89999999851,228449.29999999702,7070,VNB,C,6
4,prac,2,0.0,1-Back,1,m,Fri Apr 04 2025 12:06:13 GMT-0500 (Central Daylight Time),232871.8999999985,019_m_f_d_a.png,O,m,1063,8,1,1939.0,230932.8999999985,7070,VNB,C,7
5,prac,2,1.0,1-Back,1,z,Fri Apr 04 2025 12:06:13 GMT-0500 (Central Daylight Time),235070.3999999985,022_y_f_d_a.png,O,z,1299,9,1,2190.7000000029802,232879.69999999553,7070,VNB,C,8
6,prac,2,0.0,1-Back,1,m,Fri Apr 04 2025 12:06:13 GMT-0500 (Central Daylight Time),237420.0,014_m_m_n_a.png,O,m,1471,10,1,2340.60000000149,235079.3999999985,7070,VNB,C,9
7,prac,2,0.0,1-Back,1,m,Fri Apr 04 2025 12:06:13 GMT-0500 (Central Daylight Time),239421.69999999553,012_o_f_h_a.png,O,m,1132,11,1,1991.8999999985099,237429.79999999702,7070,VNB,C,10
8,prac,2,0.0,1-Back,1,m,Fri Apr 04 2025 12:06:13 GMT-0500 (Central Daylight Time),241369.79999999702,025_y_m_d_a.png,O,m,1094,12,1,1939.2999999970198,239430.5,7070,VNB,C,11
0,test,1,0.0,1-Back,,,Fri Apr 04 2025 12:06:13 GMT-0500 (Central Daylight Time),241369.79999999702,022_y_f_d_a.png,O,space,12964,1,1,1939.2999999970198,239430.5,7070,VNB,C,0
1,test,1,0.0,1-Back,1,m,Fri Apr 04 2025 12:06:13 GMT-0500 (Central Daylight Time),265245.5,019_m_f_n_a.png,O,m,915,2,1,1923.8000000044703,263321.69999999553,7070,VNB,C,1
2,test,1,0.0,1-Back,1,m,Fri Apr 04 2025 12:06:13 GMT-0500 (Central Daylight Time),267361.69999999553,015_o_m_h_a.png,O,m,1085,3,1,2106.89999999851,265254.799999997,7070,VNB,C,2
3,test,1,1.0,1-Back,1,z,Fri Apr 04 2025 12:06:13 GMT-0500 (Central Daylight Time),269611.59999999404,014_m_m_h_a.png,O,z,1233,4,1,2246.0999999940395,267365.5,7070,VNB,C,3
4,test,1,0.0,1-Back,1,m,Fri Apr 04 2025 12:06:13 GMT-0500 (Central Daylight Time),271324.0,012_o_f_n_a.png,O,m,692,5,1,1704.7000000029802,269619.299999997,7070,VNB,C,4
5,test,1,0.0,1-Back,1,m,Fri Apr 04 2025 12:06:13 GMT-0500 (Central Daylight Time),273242.299999997,025_y_m_d_a.png,O,m,885,6,1,1915.2999999970198,271327.0,7070,VNB,C,5
6,test,1,1.0,1-Back,1,z,Fri Apr 04 2025 12:06:13 GMT-0500 (Central Daylight Time),275392.299999997,019_m_f_d_a.png,O,z,1128,7,1,2140.2000000029802,273252.09999999404,7070,VNB,C,6
7,test,1,0.0,1-Back,1,m,Fri Apr 04 2025 12:06:13 GMT-0500 (Central Daylight Time),277492.0,022_y_f_h_a.png,O,m,1084,8,1,2092.5,275399.5,7070,VNB,C,7
8,test,1,0.0,1-Back,1,m,Fri Apr 04 2025 12:06:13 GMT-0500 (Central Daylight Time),279590.5,015_o_m_n_a.png,O,m,1077,9,1,2092.3000000044703,277498.19999999553,7070,VNB,C,8
9,test,1,0.0,1-Back,1,m,Fri Apr 04 2025 12:06:13 GMT-0500 (Central Daylight Time),281508.799999997,025_y_m_h_a.png,O,m,900,10,1,1911.1000000014901,279597.69999999553,7070,VNB,C,9
10,test,1,0.0,1-Back,1,m,Fri Apr 04 2025 12:06:13 GMT-0500 (Central Daylight Time),283788.69999999553,015_o_m_d_a.png,O,m,1254,11,1,2273.5,281515.19999999553,7070,VNB,C,10
10,test,1,1.0,1-Back,0,z,Fri Apr 04 2025 12:06:13 GMT-0500 (Central Daylight Time),285890.59999999404,012_o_f_d_a.png,O,m,1084,12,1,2094.6999999955297,283795.8999999985,7070,VNB,C,11
10,test,1,0.0,1-Back,0,m,Fri Apr 04 2025 12:06:13 GMT-0500 (Central Daylight Time),288304.8999999985,014_m_m_n_a.png,O,z,1393,13,1,2408.10000000149,285896.799999997,7070,VNB,C,12
11,test,1,1.0,1-Back,1,z,Fri Apr 04 2025 12:06:13 GMT-0500 (Central Daylight Time),291019.19999999553,022_y_f_n_a.png,O,z,1696,14,1,2706.60000000149,288312.59999999404,7070,VNB,C,13
12,test,1,0.0,1-Back,1,m,Fri Apr 04 2025 12:06:13 GMT-0500 (Central Daylight Time),293052.299999997,019_m_f_h_a.png,O,m,1012,15,1,2027.8999999985099,291024.3999999985,7070,VNB,C,14
13,test,1,0.0,1-Back,1,m,Fri Apr 04 2025 12:06:13 GMT-0500 (Central Daylight Time),295518.69999999553,014_m_m_d_a.png,O,m,1445,16,1,2459.1999999955297,293059.5,7070,VNB,C,15
14,test,1,0.0,1-Back,1,m,Fri Apr 04 2025 12:06:13 GMT-0500 (Central Daylight Time),297533.69999999553,025_y_m_n_a.png,O,m,985,17,1,2003.7999999970198,295529.8999999985,7070,VNB,C,16
15,test,1,0.0,1-Back,1,m,Fri Apr 04 2025 12:06:13 GMT-0500 (Central Daylight Time),299318.5,012_o_f_h_a.png,O,m,753,18,1,1777.3000000044703,297541.19999999553,7070,VNB,C,17
0,test,2,0.0,1-Back,,,Fri Apr 04 2025 12:06:13 GMT-0500 (Central Daylight Time),299318.5,025_y_m_n_a.png,O,space,1796,1,1,1777.3000000044703,297541.19999999553,7070,VNB,C,0
1,test,2,0.0,1-Back,1,m,Fri Apr 04 2025 12:06:13 GMT-0500 (Central Daylight Time),305067.19999999553,022_y_f_h_a.png,O,m,886,2,1,1908.7999999970198,303158.3999999985,7070,VNB,C,1
2,test,2,1.0,1-Back,1,m,Fri Apr 04 2025 12:06:13 GMT-0500 (Central Daylight Time),307014.799999997,015_o_m_n_a.png,O,m,921,3,1,1938.5,305076.299999997,7070,VNB,C,2
3,test,2,0.0,1-Back,1,m,Fri Apr 04 2025 12:06:13 GMT-0500 (Central Daylight Time),308814.799999997,019_m_f_d_a.png,O,m,778,4,1,1792.2999999970198,307022.5,7070,VNB,C,3
4,test,2,0.0,1-Back,1,z,Fri Apr 04 2025 12:06:13 GMT-0500 (Central Daylight Time),311083.59999999404,014_m_m_d_a.png,O,z,1252,5,1,2261.39999999851,308822.19999999553,7070,VNB,C,4
5,test,2,0.0,1-Back,1,m,Fri Apr 04 2025 12:06:13 GMT-0500 (Central Daylight Time),312797.5,025_y_m_h_a.png,O,m,688,6,1,1706.3000000044703,311091.19999999553,7070,VNB,C,5
5,test,2,1.0,1-Back,0,z,Fri Apr 04 2025 12:06:13 GMT-0500 (Central Daylight Time),314412.8999999985,012_o_f_h_a.png,O,m,589,7,1,1609.1000000014901,312803.799999997,7070,VNB,C,6
6,test,2,0.0,1-Back,1,m,Fri Apr 04 2025 12:06:13 GMT-0500 (Central Daylight Time),316429.299999997,019_m_f_n_a.png,O,m,990,8,1,2007.5,314421.799999997,7070,VNB,C,7
7,test,2,0.0,1-Back,1,m,Fri Apr 04 2025 12:06:13 GMT-0500 (Central Daylight Time),318645.69999999553,022_y_f_d_a.png,O,m,1199,9,1,2207.0,316438.69999999553,7070,VNB,C,8
8,test,2,0.0,1-Back,1,m,Fri Apr 04 2025 12:06:13 GMT-0500 (Central Daylight Time),320693.799999997,014_m_m_n_a.png,O,m,1030,10,1,2042.2999999970198,318651.5,7070,VNB,C,9
9,test,2,1.0,1-Back,1,m,Fri Apr 04 2025 12:06:13 GMT-0500 (Central Daylight Time),323175.3999999985,019_m_f_h_a.png,O,m,1459,11,1,2473.0,320702.3999999985,7070,VNB,C,10
10,test,2,0.0,1-Back,1,z,Fri Apr 04 2025 12:06:13 GMT-0500 (Central Daylight Time),324992.59999999404,015_o_m_h_a.png,O,z,793,12,1,1809.2999999970198,323183.299999997,7070,VNB,C,11
11,test,2,0.0,1-Back,1,m,Fri Apr 04 2025 12:06:13 GMT-0500 (Central Daylight Time),326810.59999999404,025_y_m_d_a.png,O,m,784,13,1,1808.7999999970198,325001.799999997,7070,VNB,C,12
12,test,2,0.0,1-Back,1,m,Fri Apr 04 2025 12:06:13 GMT-0500 (Central Daylight Time),329158.09999999404,012_o_f_n_a.png,O,m,1320,14,1,2340.89999999851,326817.19999999553,7070,VNB,C,13
13,test,2,0.0,1-Back,1,z,Fri Apr 04 2025 12:06:13 GMT-0500 (Central Daylight Time),331192.299999997,022_y_f_n_a.png,O,z,1016,15,1,2025.7999999970198,329166.5,7070,VNB,C,14
14,test,2,1.0,1-Back,1,m,Fri Apr 04 2025 12:06:13 GMT-0500 (Central Daylight Time),333090.0,014_m_m_h_a.png,O,m,876,16,1,1891.6000000014901,331198.3999999985,7070,VNB,C,15
15,test,2,0.0,1-Back,1,m,Fri Apr 04 2025 12:06:13 GMT-0500 (Central Daylight Time),335422.299999997,012_o_f_d_a.png,O,m,1304,17,1,2323.2000000029802,333099.09999999404,7070,VNB,C,16
16,test,2,1.0,1-Back,1,z,Fri Apr 04 2025 12:06:13 GMT-0500 (Central Daylight Time),338004.5,015_o_m_d_a.png,O,z,1554,18,1,2573.5,335431.0,7070,VNB,C,17
0,test,3,1.0,1-Back,,,Fri Apr 04 2025 12:06:13 GMT-0500 (Central Daylight Time),338004.5,012_o_f_h_a.png,O,space,1206,1,1,2573.5,335431.0,7070,VNB,C,0
1,test,3,0.0,1-Back,1,m,Fri Apr 04 2025 12:06:13 GMT-0500 (Central Daylight Time),343686.799999997,019_m_f_d_a.png,O,m,1328,2,1,2338.89999999851,341347.8999999985,7070,VNB,C,1
2,test,3,1.0,1-Back,1,m,Fri Apr 04 2025 12:06:13 GMT-0500 (Central Daylight Time),345752.799999997,014_m_m_n_a.png,O,m,1033,3,1,2057.10000000149,343695.69999999553,7070,VNB,C,2
3,test,3,0.0,1-Back,1,z,Fri Apr 04 2025 12:06:13 GMT-0500 (Central Daylight Time),347868.799999997,012_o_f_n_a.png,O,z,1087,4,1,2109.0,345759.799999997,7070,VNB,C,3
4,test,3,1.0,1-Back,1,m,Fri Apr 04 2025 12:06:13 GMT-0500 (Central Daylight Time),350451.299999997,015_o_m_d_a.png,O,m,1557,5,1,2575.2000000029802,347876.09999999404,7070,VNB,C,4
5,test,3,0.0,1-Back,1,m,Fri Apr 04 2025 12:06:13 GMT-0500 (Central Daylight Time),352501.09999999404,022_y_f_h_a.png,O,m,1029,6,1,2041.0,350460.09999999404,7070,VNB,C,5
6,test,3,0.0,1-Back,1,z,Fri Apr 04 2025 12:06:13 GMT-0500 (Central Daylight Time),354550.299999997,025_y_m_h_a.png,O,z,1033,7,1,2039.3999999985099,352510.8999999985,7070,VNB,C,6
7,test,3,0.0,1-Back,1,m,Fri Apr 04 2025 12:06:13 GMT-0500 (Central Daylight Time),356233.3999999985,019_m_f_n_a.png,O,m,660,8,1,1676.2000000029802,354557.19999999553,7070,VNB,C,7
8,test,3,0.0,1-Back,1,m,Fri Apr 04 2025 12:06:13 GMT-0500 (Central Daylight Time),358299.799999997,022_y_f_d_a.png,O,m,1050,9,1,2058.89999999851,356240.8999999985,7070,VNB,C,8
9,test,3,1.0,1-Back,1,m,Fri Apr 04 2025 12:06:13 GMT-0500 (Central Daylight Time),360299.5,015_o_m_n_a.png,O,m,967,10,1,1993.7000000029802,358305.799999997,7070,VNB,C,9
10,test,3,0.0,1-Back,1,m,Fri Apr 04 2025 12:06:13 GMT-0500 (Central Daylight Time),362613.5,014_m_m_h_a.png,O,m,1288,11,1,2305.3000000044703,360308.19999999553,7070,VNB,C,10
11,test,3,0.0,1-Back,1,z,Fri Apr 04 2025 12:06:13 GMT-0500 (Central Daylight Time),364546.3999999985,019_m_f_h_a.png,O,z,906,12,1,1925.6000000014901,362620.799999997,7070,VNB,C,11
12,test,3,1.0,1-Back,1,m,Fri Apr 04 2025 12:06:13 GMT-0500 (Central Daylight Time),366747.3999999985,012_o_f_d_a.png,O,m,1183,13,1,2194.7000000029802,364552.69999999553,7070,VNB,C,12
13,test,3,0.0,1-Back,1,z,Fri Apr 04 2025 12:06:13 GMT-0500 (Central Daylight Time),369279.5,014_m_m_d_a.png,O,z,1513,14,1,2524.7000000029802,366754.799999997,7070,VNB,C,13
14,test,3,0.0,1-Back,1,m,Fri Apr 04 2025 12:06:13 GMT-0500 (Central Daylight Time),371162.299999997,025_y_m_n_a.png,O,m,858,15,1,1873.6000000014901,369288.69999999553,7070,VNB,C,14
15,test,3,1.0,1-Back,1,m,Fri Apr 04 2025 12:06:13 GMT-0500 (Central Daylight Time),373176.0,015_o_m_h_a.png,O,m,992,16,1,2006.1000000014901,371169.8999999985,7070,VNB,C,15
16,test,3,0.0,1-Back,1,m,Fri Apr 04 2025 12:06:13 GMT-0500 (Central Daylight Time),375245.0,025_y_m_d_a.png,O,m,1050,17,1,2060.3000000044703,373184.69999999553,7070,VNB,C,16
17,test,3,1.0,1-Back,1,m,Fri Apr 04 2025 12:06:13 GMT-0500 (Central Daylight Time),377359.0,022_y_f_n_a.png,O,m,1094,18,1,2107.2000000029802,375251.799999997,7070,VNB,C,17
0,test,4,1.0,1-Back,,,Fri Apr 04 2025 12:06:13 GMT-0500 (Central Daylight Time),377359.0,014_m_m_d_a.png,O,space,1459,1,1,2107.2000000029802,375251.799999997,7070,VNB,C,0
1,test,4,0.0,1-Back,1,z,Fri Apr 04 2025 12:06:13 GMT-0500 (Central Daylight Time),383057.299999997,015_o_m_d_a.png,O,z,1191,2,1,2207.2999999970198,380850.0,7070,VNB,C,1
2,test,4,0.0,1-Back,1,m,Fri Apr 04 2025 12:06:13 GMT-0500 (Central Daylight Time),384974.09999999404,025_y_m_h_a.png,O,m,900,3,1,1908.2999999970198,383065.799999997,7070,VNB,C,2
3,test,4,0.0,1-Back,1,m,Fri Apr 04 2025 12:06:13 GMT-0500 (Central Daylight Time),387123.5,019_m_f_n_a.png,O,m,1131,4,1,2142.60000000149,384980.8999999985,7070,VNB,C,3
4,test,4,1.0,1-Back,1,m,Fri Apr 04 2025 12:06:13 GMT-0500 (Central Daylight Time),388839.0,012_o_f_h_a.png,O,m,685,5,1,1707.7000000029802,387131.299999997,7070,VNB,C,4
5,test,4,0.0,1-Back,1,m,Fri Apr 04 2025 12:06:13 GMT-0500 (Central Daylight Time),390905.69999999553,014_m_m_n_a.png,O,m,1032,6,1,2057.10000000149,388848.59999999404,7070,VNB,C,5
5,test,4,0.0,1-Back,0,m,Fri Apr 04 2025 12:06:13 GMT-0500 (Central Daylight Time),393388.69999999553,025_y_m_d_a.png,O,z,1466,7,1,2475.6999999955297,390913.0,7070,VNB,C,6
6,test,4,1.0,1-Back,1,z,Fri Apr 04 2025 12:06:13 GMT-0500 (Central Daylight Time),395087.09999999404,022_y_f_d_a.png,O,z,670,8,1,1693.7999999970198,393393.299999997,7070,VNB,C,7
7,test,4,0.0,1-Back,1,m,Fri Apr 04 2025 12:06:13 GMT-0500 (Central Daylight Time),396852.19999999553,019_m_f_h_a.png,O,m,747,9,1,1758.1000000014901,395094.09999999404,7070,VNB,C,8
7,test,4,0.0,1-Back,0,z,Fri Apr 04 2025 12:06:13 GMT-0500 (Central Daylight Time),398604.5,015_o_m_h_a.png,O,m,718,10,1,1746.7000000029802,396857.799999997,7070,VNB,C,9
8,test,4,1.0,1-Back,1,m,Fri Apr 04 2025 12:06:13 GMT-0500 (Central Daylight Time),401018.69999999553,012_o_f_n_a.png,O,m,1390,11,1,2410.39999999851,398608.299999997,7070,VNB,C,10
9,test,4,0.0,1-Back,1,m,Fri Apr 04 2025 12:06:13 GMT-0500 (Central Daylight Time),403068.19999999553,019_m_f_d_a.png,O,m,1032,12,1,2041.8999999985099,401026.299999997,7070,VNB,C,11
10,test,4,0.0,1-Back,1,m,Fri Apr 04 2025 12:06:13 GMT-0500 (Central Daylight Time),405317.19999999553,022_y_f_n_a.png,O,m,1219,13,1,2242.89999999851,403074.299999997,7070,VNB,C,12
11,test,4,0.0,1-Back,1,m,Fri Apr 04 2025 12:06:13 GMT-0500 (Central Daylight Time),407466.0,012_o_f_d_a.png,O,m,1125,14,1,2141.7000000029802,405324.299999997,7070,VNB,C,13
12,test,4,0.0,1-Back,1,m,Fri Apr 04 2025 12:06:13 GMT-0500 (Central Daylight Time),409433.799999997,022_y_f_h_a.png,O,m,935,15,1,1962.0,407471.799999997,7070,VNB,C,14
13,test,4,1.0,1-Back,1,z,Fri Apr 04 2025 12:06:13 GMT-0500 (Central Daylight Time),411249.19999999553,014_m_m_h_a.png,O,z,783,16,1,1809.6000000014901,409439.59999999404,7070,VNB,C,15
14,test,4,0.0,1-Back,1,m,Fri Apr 04 2025 12:06:13 GMT-0500 (Central Daylight Time),412999.69999999553,015_o_m_n_a.png,O,m,716,17,1,1744.1000000014901,411255.59999999404,7070,VNB,C,16
15,test,4,1.0,1-Back,1,z,Fri Apr 04 2025 12:06:13 GMT-0500 (Central Daylight Time),415013.5,025_y_m_n_a.png,O,z,985,18,1,2006.4000000059605,413007.09999999404,7070,VNB,C,17
0,test,5,1.0,1-Back,,,Fri Apr 04 2025 12:06:13 GMT-0500 (Central Daylight Time),415013.5,015_o_m_n_a.png,O,space,1875,1,1,2006.4000000059605,413007.09999999404,7070,VNB,C,0
1,test,5,1.0,1-Back,1,m,Fri Apr 04 2025 12:06:13 GMT-0500 (Central Daylight Time),420728.5,012_o_f_h_a.png,O,m,791,2,1,1808.9000000059605,418919.59999999404,7070,VNB,C,1
2,test,5,0.0,1-Back,1,m,Fri Apr 04 2025 12:06:13 GMT-0500 (Central Daylight Time),423478.0,025_y_m_d_a.png,O,m,1733,3,1,2744.2000000029802,420733.799999997,7070,VNB,C,2
3,test,5,0.0,1-Back,1,z,Fri Apr 04 2025 12:06:13 GMT-0500 (Central Daylight Time),425644.0,015_o_m_d_a.png,O,z,1138,4,1,2158.3000000044703,423485.69999999553,7070,VNB,C,3
4,test,5,0.0,1-Back,1,m,Fri Apr 04 2025 12:06:13 GMT-0500 (Central Daylight Time),428193.8999999985,019_m_f_h_a.png,O,m,1517,5,1,2543.8000000044703,425650.09999999404,7070,VNB,C,4
5,test,5,0.0,1-Back,1,m,Fri Apr 04 2025 12:06:13 GMT-0500 (Central Daylight Time),430158.299999997,022_y_f_n_a.png,O,m,944,6,1,1955.7999999970198,428202.5,7070,VNB,C,5
6,test,5,1.0,1-Back,1,z,Fri Apr 04 2025 12:06:13 GMT-0500 (Central Daylight Time),431909.19999999553,012_o_f_n_a.png,O,z,729,7,1,1744.6999999955297,430164.5,7070,VNB,C,6
7,test,5,0.0,1-Back,1,m,Fri Apr 04 2025 12:06:13 GMT-0500 (Central Daylight Time),433824.19999999553,019_m_f_d_a.png,O,m,893,8,1,1905.7999999970198,431918.3999999985,7070,VNB,C,7
8,test,5,0.0,1-Back,1,m,Fri Apr 04 2025 12:06:13 GMT-0500 (Central Daylight Time),436023.69999999553,025_y_m_h_a.png,O,m,1167,9,1,2191.89999999851,433831.799999997,7070,VNB,C,8
9,test,5,0.0,1-Back,1,m,Fri Apr 04 2025 12:06:13 GMT-0500 (Central Daylight Time),437909.09999999404,022_y_f_d_a.png,O,m,869,10,1,1877.6999999955297,436031.3999999985,7070,VNB,C,9
10,test,5,0.0,1-Back,1,m,Fri Apr 04 2025 12:06:13 GMT-0500 (Central Daylight Time),439673.3999999985,014_m_m_n_a.png,O,m,734,11,1,1757.0,437916.3999999985,7070,VNB,C,10
11,test,5,1.0,1-Back,1,z,Fri Apr 04 2025 12:06:13 GMT-0500 (Central Daylight Time),441855.59999999404,019_m_f_n_a.png,O,z,1152,12,1,2177.7999999970198,439677.799999997,7070,VNB,C,11
12,test,5,0.0,1-Back,1,m,Fri Apr 04 2025 12:06:13 GMT-0500 (Central Daylight Time),443538.09999999404,015_o_m_h_a.png,O,m,649,13,1,1675.5999999940395,441862.5,7070,VNB,C,12
13,test,5,0.0,1-Back,1,z,Fri Apr 04 2025 12:06:13 GMT-0500 (Central Daylight Time),445553.299999997,014_m_m_h_a.png,O,z,991,14,1,2007.3999999985099,443545.8999999985,7070,VNB,C,13
14,test,5,1.0,1-Back,1,m,Fri Apr 04 2025 12:06:13 GMT-0500 (Central Daylight Time),447670.09999999404,012_o_f_d_a.png,O,m,1097,15,1,2109.6999999955297,445560.3999999985,7070,VNB,C,14
15,test,5,0.0,1-Back,1,m,Fri Apr 04 2025 12:06:13 GMT-0500 (Central Daylight Time),450219.59999999404,025_y_m_n_a.png,O,m,1523,16,1,2542.0999999940395,447677.5,7070,VNB,C,15
16,test,5,0.0,1-Back,1,m,Fri Apr 04 2025 12:06:13 GMT-0500 (Central Daylight Time),452269.69999999553,022_y_f_h_a.png,O,m,1031,17,1,2042.1000000014901,450227.59999999404,7070,VNB,C,16
17,test,5,0.0,1-Back,1,m,Fri Apr 04 2025 12:06:13 GMT-0500 (Central Daylight Time),454367.3999999985,014_m_m_d_a.png,O,m,1076,18,1,2091.8000000044703,452275.59999999404,7070,VNB,C,17
0,prac,1,0.0,2-Back,,,Fri Apr 04 2025 12:06:13 GMT-0500 (Central Daylight Time),454367.3999999985,019_m_f_n_a.png,O,space,11528,1,1,2091.8000000044703,452275.59999999404,7070,VNB,C,0
0,prac,1,0.0,2-Back,,,Fri Apr 04 2025 12:06:13 GMT-0500 (Central Daylight Time),454367.3999999985,012_o_f_h_a.png,O,space,11528,2,1,2091.8000000044703,452275.59999999404,7070,VNB,C,0
1,prac,1,0.0,2-Back,1,m,Fri Apr 04 2025 12:06:13 GMT-0500 (Central Daylight Time),583578.6999999955,015_o_m_d_a.png,O,m,1773,3,1,2658.7999999970198,580919.8999999985,7070,VNB,C,1
2,prac,1,1.0,2-Back,1,z,Fri Apr 04 2025 12:06:13 GMT-0500 (Central Daylight Time),586361.8999999985,014_m_m_h_a.png,O,z,1902,4,1,2774.89999999851,583587.0,7070,VNB,C,2
2,prac,1,0.0,2-Back,0,m,Fri Apr 04 2025 12:06:13 GMT-0500 (Central Daylight Time),589244.099999994,022_y_f_n_a.png,O,None,2012,5,1,2874.5999999940395,586369.5,7070,VNB,C,3
2,prac,1,1.0,2-Back,0,z,Fri Apr 04 2025 12:06:13 GMT-0500 (Central Daylight Time),591775.8999999985,015_o_m_h_a.png,O,m,1765,6,1,2522.60000000149,589253.299999997,7070,VNB,C,4
3,prac,1,1.0,2-Back,1,z,Fri Apr 04 2025 12:06:13 GMT-0500 (Central Daylight Time),593973.599999994,025_y_m_n_a.png,O,z,1334,7,1,2188.6999999955297,591784.8999999985,7070,VNB,C,5
4,prac,1,0.0,2-Back,1,m,Fri Apr 04 2025 12:06:13 GMT-0500 (Central Daylight Time),596407.1999999955,019_m_f_d_a.png,O,m,1523,8,1,2425.1999999955297,593982.0,7070,VNB,C,6
5,prac,1,0.0,2-Back,1,m,Fri Apr 04 2025 12:06:13 GMT-0500 (Central Daylight Time),598740.1999999955,012_o_f_d_a.png,O,m,1447,9,1,2321.60000000149,596418.599999994,7070,VNB,C,7
6,prac,1,0.0,2-Back,1,m,Fri Apr 04 2025 12:06:13 GMT-0500 (Central Daylight Time),601356.1999999955,014_m_m_h_a.png,O,m,1844,10,1,2605.7999999970198,598750.3999999985,7070,VNB,C,8
7,prac,1,1.0,2-Back,1,z,Fri Apr 04 2025 12:06:13 GMT-0500 (Central Daylight Time),603704.5,022_y_f_d_a.png,O,z,1457,11,1,2339.4000000059605,601365.099999994,7070,VNB,C,9
7,prac,1,0.0,2-Back,0,m,Fri Apr 04 2025 12:06:13 GMT-0500 (Central Daylight Time),606420.8999999985,015_o_m_n_a.png,O,z,1846,12,1,2709.3000000044703,603711.599999994,7070,VNB,C,10
0,test,1,0.0,2-Back,,,Fri Apr 04 2025 12:06:13 GMT-0500 (Central Daylight Time),606420.8999999985,025_y_m_h_a.png,O,space,13790,1,1,2709.3000000044703,603711.599999994,7070,VNB,C,0
0,test,1,0.0,2-Back,,,Fri Apr 04 2025 12:06:13 GMT-0500 (Central Daylight Time),606420.8999999985,012_o_f_n_a.png,O,space,13790,2,1,2709.3000000044703,603711.599999994,7070,VNB,C,0
1,test,1,0.0,2-Back,1,z,Fri Apr 04 2025 12:06:13 GMT-0500 (Central Daylight Time),646792.1999999955,015_o_m_h_a.png,O,z,1804,3,1,2824.89999999851,643967.299999997,7070,VNB,C,1
2,test,1,0.0,2-Back,1,m,Fri Apr 04 2025 12:06:13 GMT-0500 (Central Daylight Time),649038.1999999955,019_m_f_d_a.png,O,m,1217,4,1,2240.10000000149,646798.099999994,7070,VNB,C,2
2,test,1,1.0,2-Back,0,m,Fri Apr 04 2025 12:06:13 GMT-0500 (Central Daylight Time),651722.299999997,025_y_m_n_a.png,O,z,1656,5,1,2677.7999999970198,649044.5,7070,VNB,C,3
3,test,1,0.0,2-Back,1,z,Fri Apr 04 2025 12:06:13 GMT-0500 (Central Daylight Time),653923.3999999985,022_y_f_d_a.png,O,z,1166,6,1,2193.0,651730.3999999985,7070,VNB,C,4
4,test,1,0.0,2-Back,1,m,Fri Apr 04 2025 12:06:13 GMT-0500 (Central Daylight Time),655921.5,014_m_m_h_a.png,O,m,974,7,1,1990.9000000059605,653930.599999994,7070,VNB,C,5
5,test,1,1.0,2-Back,1,m,Fri Apr 04 2025 12:06:13 GMT-0500 (Central Daylight Time),658171.0,022_y_f_n_a.png,O,m,1225,8,1,2243.2000000029802,655927.799999997,7070,VNB,C,6
6,test,1,0.0,2-Back,1,z,Fri Apr 04 2025 12:06:13 GMT-0500 (Central Daylight Time),660219.6999999955,012_o_f_h_a.png,O,z,1021,9,1,2041.2999999970198,658178.3999999985,7070,VNB,C,7
7,test,1,0.0,2-Back,1,m,Fri Apr 04 2025 12:06:13 GMT-0500 (Central Daylight Time),662469.6999999955,015_o_m_d_a.png,O,m,1221,10,1,2242.60000000149,660227.099999994,7070,VNB,C,8
8,test,1,1.0,2-Back,1,m,Fri Apr 04 2025 12:06:13 GMT-0500 (Central Daylight Time),664953.0,014_m_m_d_a.png,O,m,1453,11,1,2475.60000000149,662477.3999999985,7070,VNB,C,9
9,test,1,0.0,2-Back,1,m,Fri Apr 04 2025 12:06:13 GMT-0500 (Central Daylight Time),667183.6999999955,019_m_f_n_a.png,O,m,1210,12,1,2223.0,664960.6999999955,7070,VNB,C,10
10,test,1,0.0,2-Back,1,m,Fri Apr 04 2025 12:06:13 GMT-0500 (Central Daylight Time),669218.8999999985,022_y_f_h_a.png,O,m,1001,13,1,2027.0,667191.8999999985,7070,VNB,C,11
11,test,1,0.0,2-Back,1,z,Fri Apr 04 2025 12:06:13 GMT-0500 (Central Daylight Time),671166.0,014_m_m_n_a.png,O,z,916,14,1,1939.7000000029802,669226.299999997,7070,VNB,C,12
12,test,1,0.0,2-Back,1,m,Fri Apr 04 2025 12:06:13 GMT-0500 (Central Daylight Time),673048.8999999985,025_y_m_d_a.png,O,m,850,15,1,1874.1000000014901,671174.799999997,7070,VNB,C,13
13,test,1,1.0,2-Back,1,m,Fri Apr 04 2025 12:06:13 GMT-0500 (Central Daylight Time),675365.6999999955,019_m_f_h_a.png,O,m,1298,16,1,2309.0,673056.6999999955,7070,VNB,C,14
13,test,1,0.0,2-Back,0,z,Fri Apr 04 2025 12:06:13 GMT-0500 (Central Daylight Time),677965.299999997,012_o_f_d_a.png,O,m,1583,17,1,2590.7000000029802,675374.599999994,7070,VNB,C,15
14,test,1,0.0,2-Back,1,m,Fri Apr 04 2025 12:06:13 GMT-0500 (Central Daylight Time),680163.099999994,015_o_m_n_a.png,O,m,1173,18,1,2189.0999999940395,677974.0,7070,VNB,C,16
0,test,2,0.0,2-Back,,,Fri Apr 04 2025 12:06:13 GMT-0500 (Central Daylight Time),680163.099999994,014_m_m_h_a.png,O,space,1535,1,1,2189.0999999940395,677974.0,7070,VNB,C,0
0,test,2,0.0,2-Back,,,Fri Apr 04 2025 12:06:13 GMT-0500 (Central Daylight Time),680163.099999994,022_y_f_n_a.png,O,space,1535,2,1,2189.0999999940395,677974.0,7070,VNB,C,0
1,test,2,1.0,2-Back,1,z,Fri Apr 04 2025 12:06:13 GMT-0500 (Central Daylight Time),689044.1999999955,012_o_f_h_a.png,O,z,1097,3,1,2108.5,686935.6999999955,7070,VNB,C,1
2,test,2,0.0,2-Back,1,m,Fri Apr 04 2025 12:06:13 GMT-0500 (Central Daylight Time),691396.099999994,015_o_m_d_a.png,O,m,1333,4,1,2343.6999999955297,689052.3999999985,7070,VNB,C,2
3,test,2,0.0,2-Back,1,m,Fri Apr 04 2025 12:06:13 GMT-0500 (Central Daylight Time),693759.6999999955,019_m_f_d_a.png,O,m,1337,5,1,2358.0,691401.6999999955,7070,VNB,C,3
4,test,2,0.0,2-Back,1,m,Fri Apr 04 2025 12:06:13 GMT-0500 (Central Daylight Time),695825.8999999985,025_y_m_h_a.png,O,m,1042,6,1,2059.89999999851,693766.0,7070,VNB,C,4
5,test,2,0.0,2-Back,1,m,Fri Apr 04 2025 12:06:13 GMT-0500 (Central Daylight Time),697773.6999999955,012_o_f_n_a.png,O,m,928,7,1,1940.5,695833.1999999955,7070,VNB,C,5
6,test,2,1.0,2-Back,1,z,Fri Apr 04 2025 12:06:13 GMT-0500 (Central Daylight Time),699990.799999997,015_o_m_h_a.png,O,z,1195,8,1,2209.89999999851,697780.8999999985,7070,VNB,C,6
7,test,2,0.0,2-Back,1,m,Fri Apr 04 2025 12:06:13 GMT-0500 (Central Daylight Time),701873.799999997,022_y_f_d_a.png,O,m,852,9,1,1875.2000000029802,699998.599999994,7070,VNB,C,7
8,test,2,0.0,2-Back,1,m,Fri Apr 04 2025 12:06:13 GMT-0500 (Central Daylight Time),704506.599999994,025_y_m_d_a.png,O,m,1608,10,1,2624.6999999955297,701881.8999999985,7070,VNB,C,8
9,test,2,0.0,2-Back,1,m,Fri Apr 04 2025 12:06:13 GMT-0500 (Central Daylight Time),706804.099999994,014_m_m_n_a.png,O,m,1272,11,1,2289.5999999940395,704514.5,7070,VNB,C,9
10,test,2,0.0,2-Back,1,m,Fri Apr 04 2025 12:06:13 GMT-0500 (Central Daylight Time),708954.5,019_m_f_h_a.png,O,m,1126,12,1,2142.0,706812.5,7070,VNB,C,10
11,test,2,1.0,2-Back,1,z,Fri Apr 04 2025 12:06:13 GMT-0500 (Central Daylight Time),710937.099999994,015_o_m_n_a.png,O,z,949,13,1,1975.0,708962.099999994,7070,VNB,C,11
12,test,2,0.0,2-Back,1,m,Fri Apr 04 2025 12:06:13 GMT-0500 (Central Daylight Time),712919.299999997,012_o_f_d_a.png,O,m,960,14,1,1974.5,710944.799999997,7070,VNB,C,12
13,test,2,0.0,2-Back,1,m,Fri Apr 04 2025 12:06:13 GMT-0500 (Central Daylight Time),715568.299999997,022_y_f_h_a.png,O,m,1627,15,1,2641.39999999851,712926.8999999985,7070,VNB,C,13
13,test,2,0.0,2-Back,0,z,Fri Apr 04 2025 12:06:13 GMT-0500 (Central Daylight Time),717669.1999999955,014_m_m_d_a.png,O,m,1084,16,1,2093.39999999851,715575.799999997,7070,VNB,C,14
14,test,2,0.0,2-Back,1,m,Fri Apr 04 2025 12:06:13 GMT-0500 (Central Daylight Time),720199.5,025_y_m_n_a.png,O,m,1501,17,1,2526.60000000149,717672.8999999985,7070,VNB,C,15
14,test,2,1.0,2-Back,0,m,Fri Apr 04 2025 12:06:13 GMT-0500 (Central Daylight Time),722666.099999994,019_m_f_n_a.png,O,z,1442,18,1,2458.39999999851,720207.6999999955,7070,VNB,C,16
0,test,3,1.0,2-Back,,,Fri Apr 04 2025 12:06:13 GMT-0500 (Central Daylight Time),722666.099999994,015_o_m_n_a.png,O,space,1584,1,1,2458.39999999851,720207.6999999955,7070,VNB,C,0
0,test,3,1.0,2-Back,,,Fri Apr 04 2025 12:06:13 GMT-0500 (Central Daylight Time),722666.099999994,012_o_f_d_a.png,O,space,1584,2,1,2458.39999999851,720207.6999999955,7070,VNB,C,0
1,test,3,0.0,2-Back,1,m,Fri Apr 04 2025 12:06:13 GMT-0500 (Central Daylight Time),731564.799999997,022_y_f_h_a.png,O,m,1214,3,1,2241.89999999851,729322.8999999985,7070,VNB,C,1
1,test,3,0.0,2-Back,0,z,Fri Apr 04 2025 12:06:13 GMT-0500 (Central Daylight Time),733812.6999999955,019_m_f_d_a.png,O,m,1230,4,1,2239.39999999851,731573.299999997,7070,VNB,C,2
1,test,3,1.0,2-Back,0,m,Fri Apr 04 2025 12:06:13 GMT-0500 (Central Daylight Time),736445.299999997,025_y_m_n_a.png,O,z,1615,5,1,2625.0,733820.299999997,7070,VNB,C,3
2,test,3,0.0,2-Back,1,m,Fri Apr 04 2025 12:06:13 GMT-0500 (Central Daylight Time),738480.099999994,015_o_m_h_a.png,O,m,1010,6,1,2024.0999999940395,736456.0,7070,VNB,C,4
2,test,3,0.0,2-Back,0,z,Fri Apr 04 2025 12:06:13 GMT-0500 (Central Daylight Time),741077.5,022_y_f_n_a.png,O,m,1572,7,1,2594.2000000029802,738483.299999997,7070,VNB,C,5
3,test,3,1.0,2-Back,1,m,Fri Apr 04 2025 12:06:13 GMT-0500 (Central Daylight Time),743143.299999997,014_m_m_d_a.png,O,m,1036,8,1,2056.39999999851,741086.8999999985,7070,VNB,C,6
3,test,3,0.0,2-Back,0,m,Fri Apr 04 2025 12:06:13 GMT-0500 (Central Daylight Time),745358.3999999985,025_y_m_d_a.png,O,z,1186,9,1,2207.3000000044703,743151.099999994,7070,VNB,C,7
4,test,3,0.0,2-Back,1,m,Fri Apr 04 2025 12:06:13 GMT-0500 (Central Daylight Time),747875.599999994,012_o_f_h_a.png,O,m,1491,10,1,2508.7999999970198,745366.799999997,7070,VNB,C,8
5,test,3,1.0,2-Back,1,m,Fri Apr 04 2025 12:06:13 GMT-0500 (Central Daylight Time),750440.6999999955,019_m_f_n_a.png,O,m,1541,11,1,2557.6999999955297,747883.0,7070,VNB,C,9
6,test,3,1.0,2-Back,1,z,Fri Apr 04 2025 12:06:13 GMT-0500 (Central Daylight Time),752491.3999999985,014_m_m_h_a.png,O,z,1019,12,1,2045.2000000029802,750446.1999999955,7070,VNB,C,10
6,test,3,0.0,2-Back,0,m,Fri Apr 04 2025 12:06:13 GMT-0500 (Central Daylight Time),754990.1999999955,022_y_f_d_a.png,O,z,1482,13,1,2490.7999999970198,752499.3999999985,7070,VNB,C,11
7,test,3,0.0,2-Back,1,m,Fri Apr 04 2025 12:06:13 GMT-0500 (Central Daylight Time),756990.299999997,012_o_f_n_a.png,O,m,981,14,1,1996.1000000014901,754994.1999999955,7070,VNB,C,12
7,test,3,0.0,2-Back,0,z,Fri Apr 04 2025 12:06:13 GMT-0500 (Central Daylight Time),759237.799999997,015_o_m_d_a.png,O,m,1232,15,1,2238.5,756999.299999997,7070,VNB,C,13
8,test,3,1.0,2-Back,1,m,Fri Apr 04 2025 12:06:13 GMT-0500 (Central Daylight Time),761437.5,019_m_f_h_a.png,O,m,1171,16,1,2193.2000000029802,759244.299999997,7070,VNB,C,14
8,test,3,0.0,2-Back,0,m,Fri Apr 04 2025 12:06:13 GMT-0500 (Central Daylight Time),763555.1999999955,014_m_m_n_a.png,O,z,1099,17,1,2110.39999999851,761444.799999997,7070,VNB,C,15
9,test,3,0.0,2-Back,1,z,Fri Apr 04 2025 12:06:13 GMT-0500 (Central Daylight Time),765786.299999997,025_y_m_h_a.png,O,z,1200,18,1,2223.60000000149,763562.6999999955,7070,VNB,C,16
0,test,4,0.0,2-Back,,,Fri Apr 04 2025 12:06:13 GMT-0500 (Central Daylight Time),765786.299999997,019_m_f_n_a.png,O,space,1408,1,1,2223.60000000149,763562.6999999955,7070,VNB,C,0
0,test,4,0.0,2-Back,,,Fri Apr 04 2025 12:06:13 GMT-0500 (Central Daylight Time),765786.299999997,015_o_m_n_a.png,O,space,1408,2,1,2223.60000000149,763562.6999999955,7070,VNB,C,0
1,test,4,1.0,2-Back,1,m,Fri Apr 04 2025 12:06:13 GMT-0500 (Central Daylight Time),774418.599999994,025_y_m_h_a.png,O,m,933,3,1,1943.1999999955297,772475.3999999985,7070,VNB,C,1
2,test,4,1.0,2-Back,1,m,Fri Apr 04 2025 12:06:13 GMT-0500 (Central Daylight Time),776449.3999999985,012_o_f_d_a.png,O,m,1009,4,1,2022.2000000029802,774427.1999999955,7070,VNB,C,2
3,test,4,0.0,2-Back,1,z,Fri Apr 04 2025 12:06:13 GMT-0500 (Central Daylight Time),778582.799999997,015_o_m_h_a.png,O,z,1114,5,1,2127.60000000149,776455.1999999955,7070,VNB,C,3
4,test,4,0.0,2-Back,1,m,Fri Apr 04 2025 12:06:13 GMT-0500 (Central Daylight Time),780814.0,014_m_m_n_a.png,O,m,1203,6,1,2224.3000000044703,778589.6999999955,7070,VNB,C,4
5,test,4,0.0,2-Back,1,m,Fri Apr 04 2025 12:06:13 GMT-0500 (Central Daylight Time),783213.799999997,019_m_f_d_a.png,O,m,1370,7,1,2391.60000000149,780822.1999999955,7070,VNB,C,5
6,test,4,0.0,2-Back,1,z,Fri Apr 04 2025 12:06:13 GMT-0500 (Central Daylight Time),785129.6999999955,022_y_f_n_a.png,O,z,884,8,1,1909.2999999970198,783220.3999999985,7070,VNB,C,6
7,test,4,1.0,2-Back,1,m,Fri Apr 04 2025 12:06:13 GMT-0500 (Central Daylight Time),787129.0,012_o_f_h_a.png,O,m,966,9,1,1992.3000000044703,785136.6999999955,7070,VNB,C,7
8,test,4,0.0,2-Back,1,m,Fri Apr 04 2025 12:06:13 GMT-0500 (Central Daylight Time),789313.799999997,014_m_m_h_a.png,O,m,1160,10,1,2176.7000000029802,787137.099999994,7070,VNB,C,8
9,test,4,0.0,2-Back,1,m,Fri Apr 04 2025 12:06:13 GMT-0500 (Central Daylight Time),792110.5,022_y_f_d_a.png,O,m,1770,11,1,2788.4000000059605,789322.099999994,7070,VNB,C,9
10,test,4,0.0,2-Back,1,m,Fri Apr 04 2025 12:06:13 GMT-0500 (Central Daylight Time),794342.8999999985,025_y_m_n_a.png,O,m,1212,12,1,2225.7000000029802,792117.1999999955,7070,VNB,C,10
11,test,4,0.0,2-Back,1,z,Fri Apr 04 2025 12:06:13 GMT-0500 (Central Daylight Time),796479.5,015_o_m_d_a.png,O,z,1114,13,1,2129.8000000044703,794349.6999999955,7070,VNB,C,11
12,test,4,1.0,2-Back,1,m,Fri Apr 04 2025 12:06:13 GMT-0500 (Central Daylight Time),798542.799999997,019_m_f_h_a.png,O,m,1031,14,1,2054.7000000029802,796488.099999994,7070,VNB,C,12
13,test,4,1.0,2-Back,1,m,Fri Apr 04 2025 12:06:13 GMT-0500 (Central Daylight Time),800841.5,022_y_f_h_a.png,O,m,1267,15,1,2290.10000000149,798551.3999999985,7070,VNB,C,13
14,test,4,0.0,2-Back,1,m,Fri Apr 04 2025 12:06:13 GMT-0500 (Central Daylight Time),803157.8999999985,012_o_f_n_a.png,O,m,1288,16,1,2310.39999999851,800847.5,7070,VNB,C,14
15,test,4,0.0,2-Back,1,m,Fri Apr 04 2025 12:06:13 GMT-0500 (Central Daylight Time),805424.099999994,025_y_m_d_a.png,O,m,1236,17,1,2257.0,803167.099999994,7070,VNB,C,15
15,test,4,1.0,2-Back,0,m,Fri Apr 04 2025 12:06:13 GMT-0500 (Central Daylight Time),808022.3999999985,014_m_m_d_a.png,O,z,1578,18,1,2592.8000000044703,805429.599999994,7070,VNB,C,16
0,test,5,1.0,2-Back,,,Fri Apr 04 2025 12:06:13 GMT-0500 (Central Daylight Time),808022.3999999985,022_y_f_d_a.png,O,space,3116,1,1,2592.8000000044703,805429.599999994,7070,VNB,C,0
0,test,5,1.0,2-Back,,,Fri Apr 04 2025 12:06:13 GMT-0500 (Central Daylight Time),808022.3999999985,012_o_f_h_a.png,O,space,3116,2,1,2592.8000000044703,805429.599999994,7070,VNB,C,0
0,test,5,1.0,2-Back,0,z,Fri Apr 04 2025 12:06:13 GMT-0500 (Central Daylight Time),819054.3999999985,015_o_m_d_a.png,O,m,1632,3,1,2648.10000000149,816406.299999997,7070,VNB,C,1
1,test,5,1.0,2-Back,1,m,Fri Apr 04 2025 12:06:13 GMT-0500 (Central Daylight Time),821302.799999997,019_m_f_n_a.png,O,m,1230,4,1,2242.60000000149,819060.1999999955,7070,VNB,C,2
2,test,5,0.0,2-Back,1,m,Fri Apr 04 2025 12:06:13 GMT-0500 (Central Daylight Time),823616.299999997,014_m_m_h_a.png,O,m,1283,5,1,2306.60000000149,821309.6999999955,7070,VNB,C,3
3,test,5,0.0,2-Back,1,z,Fri Apr 04 2025 12:06:13 GMT-0500 (Central Daylight Time),825450.8999999985,022_y_f_n_a.png,O,z,808,6,1,1829.2000000029802,823621.6999999955,7070,VNB,C,4
4,test,5,0.0,2-Back,1,m,Fri Apr 04 2025 12:06:13 GMT-0500 (Central Daylight Time),827682.8999999985,012_o_f_d_a.png,O,m,1206,7,1,2226.2000000029802,825456.6999999955,7070,VNB,C,5
5,test,5,0.0,2-Back,1,m,Fri Apr 04 2025 12:06:13 GMT-0500 (Central Daylight Time),830181.599999994,015_o_m_h_a.png,O,m,1480,8,1,2493.7999999970198,827687.799999997,7070,VNB,C,6
5,test,5,1.0,2-Back,0,z,Fri Apr 04 2025 12:06:13 GMT-0500 (Central Daylight Time),833215.299999997,019_m_f_d_a.png,O,None,2015,9,1,3026.60000000149,830188.6999999955,7070,VNB,C,7
5,test,5,0.0,2-Back,0,m,Fri Apr 04 2025 12:06:13 GMT-0500 (Central Daylight Time),836248.599999994,025_y_m_n_a.png,O,None,2017,10,1,3026.7999999970198,833221.799999997,7070,VNB,C,8
6,test,5,0.0,2-Back,1,m,Fri Apr 04 2025 12:06:13 GMT-0500 (Central Daylight Time),838730.3999999985,014_m_m_n_a.png,O,m,1450,11,1,2476.2000000029802,836254.1999999955,7070,VNB,C,9
7,test,5,0.0,2-Back,1,m,Fri Apr 04 2025 12:06:13 GMT-0500 (Central Daylight Time),841195.0,022_y_f_h_a.png,O,m,1434,12,1,2458.0,838737.0,7070,VNB,C,10
8,test,5,0.0,2-Back,1,m,Fri Apr 04 2025 12:06:13 GMT-0500 (Central Daylight Time),843459.6999999955,025_y_m_d_a.png,O,m,1236,13,1,2258.10000000149,841201.599999994,7070,VNB,C,11
9,test,5,1.0,2-Back,1,z,Fri Apr 04 2025 12:06:13 GMT-0500 (Central Daylight Time),845260.799999997,019_m_f_h_a.png,O,z,784,14,1,1794.6000000014901,843466.1999999955,7070,VNB,C,12
9,test,5,0.0,2-Back,0,m,Fri Apr 04 2025 12:06:13 GMT-0500 (Central Daylight Time),847527.5,015_o_m_n_a.png,O,z,1236,15,1,2259.2000000029802,845268.299999997,7070,VNB,C,13
10,test,5,0.0,2-Back,1,m,Fri Apr 04 2025 12:06:13 GMT-0500 (Central Daylight Time),849943.299999997,014_m_m_d_a.png,O,m,1386,16,1,2408.7999999970198,847534.5,7070,VNB,C,14
10,test,5,0.0,2-Back,0,z,Fri Apr 04 2025 12:06:13 GMT-0500 (Central Daylight Time),852358.799999997,012_o_f_n_a.png,O,m,1383,17,1,2408.2999999970198,849950.5,7070,VNB,C,15
11,test,5,1.0,2-Back,1,m,Fri Apr 04 2025 12:06:13 GMT-0500 (Central Daylight Time),854491.1999999955,025_y_m_h_a.png,O,m,1107,18,1,2124.0,852367.1999999955,7070,VNB,C,16
