acc_sum,block,block_c,block_cond,con_img,correct,correct_response,datetime,endtime,face,jitter,line,project,response,response_time,row_sel,session_number,start_end,starttime,subject_id,task,task_vers,trial
0,prac,1,A,haborder.png,0,z,Fri Apr 04 2025 16:19:16 GMT-0500 (Central Daylight Time),56082.60000002384,CFD-BF-051-043-A.jpg,1000,solid,O,None,1514,4,1,3332.199999988079,52750.40000003576,7112,ATS,B,1
1,prac,1,A,haborder.png,1,z,Fri Apr 04 2025 16:19:16 GMT-0500 (Central Daylight Time),59731.700000047684,CFD-WM-009-009-A.jpg,1900,solid,O,z,922,8,1,6981.300000011921,52750.40000003576,7112,ATS,B,2
2,prac,1,A,haborder.png,1,m,Fri Apr 04 2025 16:19:16 GMT-0500 (Central Daylight Time),62929.5,CFD-WM-012-007-HC.jpg,1700,solid,O,m,680,9,1,10179.099999964237,52750.40000003576,7112,ATS,B,3
3,prac,1,A,haborder.png,1,z,Fri Apr 04 2025 16:19:16 GMT-0500 (Central Daylight Time),66246.10000002384,CFD-BM-037-041-A.jpg,1600,solid,O,z,911,2,1,13495.699999988079,52750.40000003576,7112,ATS,B,4
4,prac,1,A,haborder.png,1,m,Fri Apr 04 2025 16:19:16 GMT-0500 (Central Daylight Time),69745.0,CFD-WF-011-006-HC.jpg,1500,solid,O,m,1175,11,1,16994.599999964237,52750.40000003576,7112,ATS,B,5
5,prac,1,A,haborder.png,1,z,Fri Apr 04 2025 16:19:16 GMT-0500 (Central Daylight Time),72527.20000004768,CFD-WF-013-015-A.jpg,1000,solid,O,z,960,12,1,19776.80000001192,52750.40000003576,7112,ATS,B,6
6,prac,1,A,haborder.png,1,z,Fri Apr 04 2025 16:19:16 GMT-0500 (Central Daylight Time),75259.90000003576,CFD-BF-050-012-A.jpg,1200,solid,O,z,714,6,1,22509.5,52750.40000003576,7112,ATS,B,7
7,prac,1,A,haborder.png,1,z,Fri Apr 04 2025 16:19:16 GMT-0500 (Central Daylight Time),78475.20000004768,CFD-WF-026-008-A.jpg,1600,solid,O,z,797,10,1,25724.80000001192,52750.40000003576,7112,ATS,B,8
8,prac,1,A,haborder.png,1,m,Fri Apr 04 2025 16:19:16 GMT-0500 (Central Daylight Time),81674.80000001192,CFD-BM-020-024-HC.jpg,1500,solid,O,m,874,3,1,28924.399999976158,52750.40000003576,7112,ATS,B,9
9,prac,1,A,haborder.png,1,m,Fri Apr 04 2025 16:19:16 GMT-0500 (Central Daylight Time),85272.5,CFD-BF-035-007-HC.jpg,2000,solid,O,m,767,5,1,32522.099999964237,52750.40000003576,7112,ATS,B,10
10,prac,1,A,haborder.png,1,m,Fri Apr 04 2025 16:19:16 GMT-0500 (Central Daylight Time),88888.70000004768,CFD-BM-015-017-HC.jpg,1700,solid,O,m,1109,1,1,36138.30000001192,52750.40000003576,7112,ATS,B,11
11,prac,1,A,haborder.png,1,m,Fri Apr 04 2025 16:19:16 GMT-0500 (Central Daylight Time),91787.90000003576,CFD-WM-011-006-HC.jpg,1400,solid,O,m,679,7,1,39037.5,52750.40000003576,7112,ATS,B,12
1,prac,1,B,mfborder.png,1,m,Fri Apr 04 2025 16:19:16 GMT-0500 (Central Daylight Time),119611.90000003576,CFD-WM-009-009-A.jpg,1700,dash,O,m,872,9,1,3399.100000023842,116212.80000001192,7112,ATS,B,1
2,prac,1,B,mfborder.png,1,m,Fri Apr 04 2025 16:19:16 GMT-0500 (Central Daylight Time),122961.10000002384,CFD-BM-041-048-A.jpg,1600,dash,O,m,917,2,1,6748.300000011921,116212.80000001192,7112,ATS,B,2
3,prac,1,B,mfborder.png,1,m,Fri Apr 04 2025 16:19:16 GMT-0500 (Central Daylight Time),126176.30000001192,CFD-BM-020-024-HC.jpg,1700,dash,O,m,692,1,1,9963.5,116212.80000001192,7112,ATS,B,3
4,prac,1,B,mfborder.png,1,z,Fri Apr 04 2025 16:19:16 GMT-0500 (Central Daylight Time),128575.5,CFD-BF-051-043-A.jpg,1000,dash,O,z,568,4,1,12362.699999988079,116212.80000001192,7112,ATS,B,4
5,prac,1,B,mfborder.png,1,z,Fri Apr 04 2025 16:19:16 GMT-0500 (Central Daylight Time),132274.40000003576,CFD-WF-027-007-HC.jpg,1900,dash,O,z,964,8,1,16061.600000023842,116212.80000001192,7112,ATS,B,5
6,prac,1,B,mfborder.png,1,z,Fri Apr 04 2025 16:19:16 GMT-0500 (Central Daylight Time),134723.60000002384,CFD-WF-011-006-HC.jpg,1000,dash,O,z,630,12,1,18510.80000001192,116212.80000001192,7112,ATS,B,6
7,prac,1,B,mfborder.png,1,m,Fri Apr 04 2025 16:19:16 GMT-0500 (Central Daylight Time),138972.40000003576,CFD-BM-037-041-A.jpg,2000,dash,O,m,1438,5,1,22759.600000023842,116212.80000001192,7112,ATS,B,7
7,prac,1,B,mfborder.png,0,z,Fri Apr 04 2025 16:19:16 GMT-0500 (Central Daylight Time),142804.10000002384,CFD-WF-026-008-A.jpg,1500,dash,O,None,1513,11,1,26591.30000001192,116212.80000001192,7112,ATS,B,8
7,prac,1,B,mfborder.png,0,m,Fri Apr 04 2025 16:19:16 GMT-0500 (Central Daylight Time),146736.20000004768,CFD-WM-012-007-HC.jpg,1600,dash,O,None,1514,10,1,30523.400000035763,116212.80000001192,7112,ATS,B,9
7,prac,1,B,mfborder.png,0,z,Fri Apr 04 2025 16:19:16 GMT-0500 (Central Daylight Time),149718.40000003576,CFD-BF-035-007-HC.jpg,1400,dash,O,m,753,7,1,33505.60000002384,116212.80000001192,7112,ATS,B,10
8,prac,1,B,mfborder.png,1,z,Fri Apr 04 2025 16:19:16 GMT-0500 (Central Daylight Time),153200.70000004768,CFD-BF-027-013-HC.jpg,1500,dash,O,z,1158,3,1,36987.90000003576,116212.80000001192,7112,ATS,B,11
9,prac,1,B,mfborder.png,1,m,Fri Apr 04 2025 16:19:16 GMT-0500 (Central Daylight Time),155950.10000002384,CFD-WM-037-060-A.jpg,1200,dash,O,m,727,6,1,39737.30000001192,116212.80000001192,7112,ATS,B,12
1,test,1,A,haborder.png,1,m,Fri Apr 04 2025 16:19:16 GMT-0500 (Central Daylight Time),176876.40000003576,CFD-WM-012-007-HC.jpg,1700,solid,O,m,715,9,1,2465.900000035763,174410.5,7112,ATS,B,1
2,test,1,A,haborder.png,1,m,Fri Apr 04 2025 16:19:16 GMT-0500 (Central Daylight Time),179342.10000002384,CFD-BM-015-017-HC.jpg,1700,solid,O,m,703,1,1,4931.600000023842,174410.5,7112,ATS,B,2
3,test,1,A,haborder.png,1,m,Fri Apr 04 2025 16:19:16 GMT-0500 (Central Daylight Time),182024.90000003576,CFD-BF-035-007-HC.jpg,2000,solid,O,m,635,5,1,7614.400000035763,174410.5,7112,ATS,B,3
4,test,1,A,haborder.png,1,z,Fri Apr 04 2025 16:19:16 GMT-0500 (Central Daylight Time),184440.0,CFD-BF-050-012-A.jpg,1200,solid,O,z,1159,6,1,10029.5,174410.5,7112,ATS,B,4
5,test,1,A,haborder.png,1,z,Fri Apr 04 2025 16:19:16 GMT-0500 (Central Daylight Time),187439.40000003576,CFD-BM-037-041-A.jpg,1600,solid,O,z,1378,2,1,13028.900000035763,174410.5,7112,ATS,B,5
6,test,1,A,haborder.png,1,m,Fri Apr 04 2025 16:19:16 GMT-0500 (Central Daylight Time),189938.40000003576,CFD-WM-012-007-HC.jpg,1700,solid,O,m,758,9,1,15527.900000035763,174410.5,7112,ATS,B,6
7,test,1,A,haborder.png,1,z,Fri Apr 04 2025 16:19:16 GMT-0500 (Central Daylight Time),192854.30000001192,CFD-BM-037-041-A.jpg,1600,solid,O,z,1254,2,1,18443.80000001192,174410.5,7112,ATS,B,7
8,test,1,A,haborder.png,1,z,Fri Apr 04 2025 16:19:16 GMT-0500 (Central Daylight Time),194803.70000004768,CFD-WF-013-015-A.jpg,1000,solid,O,z,923,12,1,20393.200000047684,174410.5,7112,ATS,B,8
9,test,1,A,haborder.png,1,m,Fri Apr 04 2025 16:19:16 GMT-0500 (Central Daylight Time),197253.70000004768,CFD-BM-020-024-HC.jpg,1500,solid,O,m,914,3,1,22843.200000047684,174410.5,7112,ATS,B,9
10,test,1,A,haborder.png,1,z,Fri Apr 04 2025 16:19:16 GMT-0500 (Central Daylight Time),199752.0,CFD-WF-026-008-A.jpg,1600,solid,O,z,844,10,1,25341.5,174410.5,7112,ATS,B,10
11,test,1,A,haborder.png,1,m,Fri Apr 04 2025 16:19:16 GMT-0500 (Central Daylight Time),202068.30000001192,CFD-WM-011-006-HC.jpg,1400,solid,O,m,865,7,1,27657.80000001192,174410.5,7112,ATS,B,11
12,test,1,A,haborder.png,1,m,Fri Apr 04 2025 16:19:16 GMT-0500 (Central Daylight Time),204633.70000004768,CFD-WF-011-006-HC.jpg,1500,solid,O,m,1017,11,1,30223.200000047684,174410.5,7112,ATS,B,12
13,test,1,A,haborder.png,1,z,Fri Apr 04 2025 16:19:16 GMT-0500 (Central Daylight Time),206783.10000002384,CFD-WF-013-015-A.jpg,1000,solid,O,z,1086,12,1,32372.600000023842,174410.5,7112,ATS,B,13
14,test,1,A,haborder.png,1,z,Fri Apr 04 2025 16:19:16 GMT-0500 (Central Daylight Time),208732.5,CFD-BF-051-043-A.jpg,1000,solid,O,z,898,4,1,34322.0,174410.5,7112,ATS,B,14
15,test,1,A,haborder.png,1,m,Fri Apr 04 2025 16:19:16 GMT-0500 (Central Daylight Time),211698.10000002384,CFD-BF-035-007-HC.jpg,2000,solid,O,m,917,5,1,37287.60000002384,174410.5,7112,ATS,B,15
16,test,1,A,haborder.png,1,m,Fri Apr 04 2025 16:19:16 GMT-0500 (Central Daylight Time),214930.60000002384,CFD-BM-015-017-HC.jpg,1700,solid,O,m,1483,1,1,40520.10000002384,174410.5,7112,ATS,B,16
17,test,1,A,haborder.png,1,z,Fri Apr 04 2025 16:19:16 GMT-0500 (Central Daylight Time),216696.5,CFD-BF-051-043-A.jpg,1000,solid,O,z,727,4,1,42286.0,174410.5,7112,ATS,B,17
17,test,1,A,haborder.png,0,m,Fri Apr 04 2025 16:19:16 GMT-0500 (Central Daylight Time),219646.0,CFD-WM-011-006-HC.jpg,1400,solid,O,None,1515,7,1,45235.5,174410.5,7112,ATS,B,18
18,test,1,A,haborder.png,1,z,Fri Apr 04 2025 16:19:16 GMT-0500 (Central Daylight Time),222461.30000001192,CFD-WM-009-009-A.jpg,1900,solid,O,z,873,8,1,48050.80000001192,174410.5,7112,ATS,B,19
19,test,1,A,haborder.png,1,z,Fri Apr 04 2025 16:19:16 GMT-0500 (Central Daylight Time),224511.10000002384,CFD-BF-050-012-A.jpg,1200,solid,O,z,787,6,1,50100.60000002384,174410.5,7112,ATS,B,20
20,test,1,A,haborder.png,1,m,Fri Apr 04 2025 16:19:16 GMT-0500 (Central Daylight Time),226809.90000003576,CFD-WF-011-006-HC.jpg,1500,solid,O,m,761,11,1,52399.40000003576,174410.5,7112,ATS,B,21
21,test,1,A,haborder.png,1,z,Fri Apr 04 2025 16:19:16 GMT-0500 (Central Daylight Time),229192.5,CFD-WF-026-008-A.jpg,1600,solid,O,z,736,10,1,54782.0,174410.5,7112,ATS,B,22
22,test,1,A,haborder.png,1,z,Fri Apr 04 2025 16:19:16 GMT-0500 (Central Daylight Time),232624.90000003576,CFD-WM-009-009-A.jpg,1900,solid,O,z,1493,8,1,58214.40000003576,174410.5,7112,ATS,B,23
23,test,1,A,haborder.png,1,m,Fri Apr 04 2025 16:19:16 GMT-0500 (Central Daylight Time),234924.30000001192,CFD-BM-020-024-HC.jpg,1500,solid,O,m,765,3,1,60513.80000001192,174410.5,7112,ATS,B,24
1,test,1,B,mfborder.png,1,z,Fri Apr 04 2025 16:19:16 GMT-0500 (Central Daylight Time),249852.60000002384,CFD-WF-026-008-A.jpg,1500,dash,O,z,887,11,1,2449.300000011921,247403.30000001192,7112,ATS,B,1
2,test,1,B,mfborder.png,1,z,Fri Apr 04 2025 16:19:16 GMT-0500 (Central Daylight Time),251535.30000001192,CFD-WF-011-006-HC.jpg,1000,dash,O,z,637,12,1,4132.0,247403.30000001192,7112,ATS,B,2
3,test,1,B,mfborder.png,1,m,Fri Apr 04 2025 16:19:16 GMT-0500 (Central Daylight Time),253817.70000004768,CFD-WM-009-009-A.jpg,1700,dash,O,m,542,9,1,6414.400000035763,247403.30000001192,7112,ATS,B,3
4,test,1,B,mfborder.png,1,z,Fri Apr 04 2025 16:19:16 GMT-0500 (Central Daylight Time),256349.90000003576,CFD-WF-026-008-A.jpg,1500,dash,O,z,979,11,1,8946.600000023842,247403.30000001192,7112,ATS,B,4
5,test,1,B,mfborder.png,1,z,Fri Apr 04 2025 16:19:16 GMT-0500 (Central Daylight Time),258299.5,CFD-WF-011-006-HC.jpg,1000,dash,O,z,907,12,1,10896.199999988079,247403.30000001192,7112,ATS,B,5
5,test,1,B,mfborder.png,0,m,Fri Apr 04 2025 16:19:16 GMT-0500 (Central Daylight Time),261865.30000001192,CFD-BM-037-041-A.jpg,2000,dash,O,None,1514,5,1,14462.0,247403.30000001192,7112,ATS,B,6
5,test,1,B,mfborder.png,0,m,Fri Apr 04 2025 16:19:16 GMT-0500 (Central Daylight Time),263897.7000000477,CFD-WM-037-060-A.jpg,1200,dash,O,z,786,6,1,16494.400000035763,247403.30000001192,7112,ATS,B,7
6,test,1,B,mfborder.png,1,m,Fri Apr 04 2025 16:19:16 GMT-0500 (Central Daylight Time),266480.0,CFD-BM-020-024-HC.jpg,1700,dash,O,m,827,1,1,19076.69999998808,247403.30000001192,7112,ATS,B,8
7,test,1,B,mfborder.png,1,z,Fri Apr 04 2025 16:19:16 GMT-0500 (Central Daylight Time),268762.60000002384,CFD-BF-027-013-HC.jpg,1500,dash,O,z,749,3,1,21359.30000001192,247403.30000001192,7112,ATS,B,9
8,test,1,B,mfborder.png,1,z,Fri Apr 04 2025 16:19:16 GMT-0500 (Central Daylight Time),272011.60000002384,CFD-WF-027-007-HC.jpg,1900,dash,O,z,1306,8,1,24608.30000001192,247403.30000001192,7112,ATS,B,10
9,test,1,B,mfborder.png,1,m,Fri Apr 04 2025 16:19:16 GMT-0500 (Central Daylight Time),274427.5,CFD-WM-012-007-HC.jpg,1600,dash,O,m,773,10,1,27024.19999998808,247403.30000001192,7112,ATS,B,11
10,test,1,B,mfborder.png,1,z,Fri Apr 04 2025 16:19:16 GMT-0500 (Central Daylight Time),276693.5,CFD-BF-035-007-HC.jpg,1400,dash,O,z,822,7,1,29290.19999998808,247403.30000001192,7112,ATS,B,12
11,test,1,B,mfborder.png,1,m,Fri Apr 04 2025 16:19:16 GMT-0500 (Central Daylight Time),279509.7000000477,CFD-BM-037-041-A.jpg,2000,dash,O,m,765,5,1,32106.400000035763,247403.30000001192,7112,ATS,B,13
12,test,1,B,mfborder.png,1,m,Fri Apr 04 2025 16:19:16 GMT-0500 (Central Daylight Time),281774.2000000477,CFD-WM-037-060-A.jpg,1200,dash,O,m,1027,6,1,34370.90000003576,247403.30000001192,7112,ATS,B,14
13,test,1,B,mfborder.png,1,z,Fri Apr 04 2025 16:19:16 GMT-0500 (Central Daylight Time),284607.5,CFD-WF-027-007-HC.jpg,1900,dash,O,z,911,8,1,37204.19999998808,247403.30000001192,7112,ATS,B,15
14,test,1,B,mfborder.png,1,m,Fri Apr 04 2025 16:19:16 GMT-0500 (Central Daylight Time),287023.40000003576,CFD-BM-020-024-HC.jpg,1700,dash,O,m,670,1,1,39620.10000002384,247403.30000001192,7112,ATS,B,16
15,test,1,B,mfborder.png,1,z,Fri Apr 04 2025 16:19:16 GMT-0500 (Central Daylight Time),288773.10000002384,CFD-BF-051-043-A.jpg,1000,dash,O,z,691,4,1,41369.80000001192,247403.30000001192,7112,ATS,B,17
16,test,1,B,mfborder.png,1,m,Fri Apr 04 2025 16:19:16 GMT-0500 (Central Daylight Time),291722.0,CFD-WM-009-009-A.jpg,1700,dash,O,m,1192,9,1,44318.69999998808,247403.30000001192,7112,ATS,B,18
17,test,1,B,mfborder.png,1,m,Fri Apr 04 2025 16:19:16 GMT-0500 (Central Daylight Time),294654.3000000119,CFD-WM-012-007-HC.jpg,1600,dash,O,m,1287,10,1,47251.0,247403.30000001192,7112,ATS,B,19
18,test,1,B,mfborder.png,1,z,Fri Apr 04 2025 16:19:16 GMT-0500 (Central Daylight Time),296870.2000000477,CFD-BF-027-013-HC.jpg,1500,dash,O,z,670,3,1,49466.90000003576,247403.30000001192,7112,ATS,B,20
19,test,1,B,mfborder.png,1,m,Fri Apr 04 2025 16:19:16 GMT-0500 (Central Daylight Time),299269.60000002384,CFD-BM-041-048-A.jpg,1600,dash,O,m,738,2,1,51866.30000001192,247403.30000001192,7112,ATS,B,21
20,test,1,B,mfborder.png,1,z,Fri Apr 04 2025 16:19:16 GMT-0500 (Central Daylight Time),301635.60000002384,CFD-BF-051-043-A.jpg,1000,dash,O,z,1316,4,1,54232.30000001192,247403.30000001192,7112,ATS,B,22
21,test,1,B,mfborder.png,1,m,Fri Apr 04 2025 16:19:16 GMT-0500 (Central Daylight Time),303883.90000003576,CFD-BM-041-048-A.jpg,1600,dash,O,m,613,2,1,56480.60000002384,247403.30000001192,7112,ATS,B,23
21,test,1,B,mfborder.png,0,z,Fri Apr 04 2025 16:19:16 GMT-0500 (Central Daylight Time),306817.10000002384,CFD-BF-035-007-HC.jpg,1400,dash,O,None,1515,7,1,59413.80000001192,247403.30000001192,7112,ATS,B,24
0,7,1,C,haborder.png,0,z,Fri Apr 04 2025 16:19:16 GMT-0500 (Central Daylight Time),340705.90000003576,CFD-BF-051-043-A.jpg,1900,dash,O,None,1514,prac,1,4215.199999988079,336490.7000000477,7112,ATS,B,1
0,1,1,C,mfborder.png,0,z,Fri Apr 04 2025 16:19:16 GMT-0500 (Central Daylight Time),343955.2000000477,CFD-WF-011-006-HC.jpg,1600,dash,O,m,831,prac,1,7464.5,336490.7000000477,7112,ATS,B,2
1,11,1,C,haborder.png,1,m,Fri Apr 04 2025 16:19:16 GMT-0500 (Central Daylight Time),346537.60000002384,CFD-WM-011-006-HC.jpg,1000,dash,O,m,758,prac,1,10046.899999976158,336490.7000000477,7112,ATS,B,3
1,4,1,C,mfborder.png,0,m,Fri Apr 04 2025 16:19:16 GMT-0500 (Central Daylight Time),350652.60000002384,CFD-BM-015-017-HC.jpg,2000,solid,O,z,1296,prac,1,14161.899999976158,336490.7000000477,7112,ATS,B,4
1,9,1,C,haborder.png,0,z,Fri Apr 04 2025 16:19:16 GMT-0500 (Central Daylight Time),353718.2000000477,CFD-WF-026-008-A.jpg,1600,dash,O,m,653,prac,1,17227.5,336490.7000000477,7112,ATS,B,5
1,2,1,C,mfborder.png,0,z,Fri Apr 04 2025 16:19:16 GMT-0500 (Central Daylight Time),357333.8000000119,CFD-WF-013-015-A.jpg,1500,solid,O,m,1286,prac,1,20843.099999964237,336490.7000000477,7112,ATS,B,6
2,3,1,C,mfborder.png,1,z,Fri Apr 04 2025 16:19:16 GMT-0500 (Central Daylight Time),359933.0,CFD-BF-035-007-HC.jpg,1000,dash,O,z,788,prac,1,23442.299999952316,336490.7000000477,7112,ATS,B,7
3,12,1,C,haborder.png,1,m,Fri Apr 04 2025 16:19:16 GMT-0500 (Central Daylight Time),362815.40000003576,CFD-WM-011-006-HC.jpg,1400,solid,O,m,670,prac,1,26324.69999998808,336490.7000000477,7112,ATS,B,8
3,6,1,C,mfborder.png,0,m,Fri Apr 04 2025 16:19:16 GMT-0500 (Central Daylight Time),366380.7000000477,CFD-WM-009-009-A.jpg,1700,solid,O,z,1062,prac,1,29890.0,336490.7000000477,7112,ATS,B,9
4,5,1,C,mfborder.png,1,m,Fri Apr 04 2025 16:19:16 GMT-0500 (Central Daylight Time),369879.7000000477,CFD-BM-037-041-A.jpg,1200,dash,O,m,1476,prac,1,33389.0,336490.7000000477,7112,ATS,B,10
5,10,1,C,haborder.png,1,m,Fri Apr 04 2025 16:19:16 GMT-0500 (Central Daylight Time),373195.40000003576,CFD-BM-020-024-HC.jpg,1500,solid,O,m,989,prac,1,36704.69999998808,336490.7000000477,7112,ATS,B,11
5,8,1,C,haborder.png,0,z,Fri Apr 04 2025 16:19:16 GMT-0500 (Central Daylight Time),376361.0,CFD-BF-050-012-A.jpg,1700,solid,O,m,642,prac,1,39870.299999952316,336490.7000000477,7112,ATS,B,12
1,11,2,C,haborder.png,1,m,Fri Apr 04 2025 16:19:16 GMT-0500 (Central Daylight Time),391123.10000002384,CFD-WM-011-006-HC.jpg,1000,dash,O,m,1157,prac,1,54632.39999997616,336490.7000000477,7112,ATS,B,1
2,12,2,C,haborder.png,1,m,Fri Apr 04 2025 16:19:16 GMT-0500 (Central Daylight Time),394754.90000003576,CFD-WM-011-006-HC.jpg,1400,solid,O,m,1414,prac,1,58264.19999998808,336490.7000000477,7112,ATS,B,2
3,7,2,C,haborder.png,1,z,Fri Apr 04 2025 16:19:16 GMT-0500 (Central Daylight Time),398853.5,CFD-BF-051-043-A.jpg,1900,dash,O,z,1387,prac,1,62362.799999952316,336490.7000000477,7112,ATS,B,3
3,6,2,C,mfborder.png,0,m,Fri Apr 04 2025 16:19:16 GMT-0500 (Central Daylight Time),402885.60000002384,CFD-WM-009-009-A.jpg,1700,solid,O,None,1514,prac,1,66394.89999997616,336490.7000000477,7112,ATS,B,4
4,3,2,C,mfborder.png,1,z,Fri Apr 04 2025 16:19:16 GMT-0500 (Central Daylight Time),406151.10000002384,CFD-BF-035-007-HC.jpg,1000,dash,O,z,1443,prac,1,69660.39999997616,336490.7000000477,7112,ATS,B,5
5,5,2,C,mfborder.png,1,m,Fri Apr 04 2025 16:19:16 GMT-0500 (Central Daylight Time),409200.2000000477,CFD-BM-037-041-A.jpg,1200,dash,O,m,1018,prac,1,72709.5,336490.7000000477,7112,ATS,B,6
6,8,2,C,haborder.png,1,z,Fri Apr 04 2025 16:19:16 GMT-0500 (Central Daylight Time),413065.60000002384,CFD-BF-050-012-A.jpg,1700,solid,O,z,1358,prac,1,76574.89999997616,336490.7000000477,7112,ATS,B,7
7,9,2,C,haborder.png,1,z,Fri Apr 04 2025 16:19:16 GMT-0500 (Central Daylight Time),416264.8000000119,CFD-WF-026-008-A.jpg,1600,dash,O,z,793,prac,1,79774.09999996424,336490.7000000477,7112,ATS,B,8
7,1,2,C,mfborder.png,0,z,Fri Apr 04 2025 16:19:16 GMT-0500 (Central Daylight Time),420046.5,CFD-WF-011-006-HC.jpg,1600,dash,O,m,1371,prac,1,83555.79999995232,336490.7000000477,7112,ATS,B,9
8,2,2,C,mfborder.png,1,z,Fri Apr 04 2025 16:19:16 GMT-0500 (Central Daylight Time),423179.2000000477,CFD-WF-013-015-A.jpg,1500,solid,O,z,815,prac,1,86688.5,336490.7000000477,7112,ATS,B,10
9,10,2,C,haborder.png,1,m,Fri Apr 04 2025 16:19:16 GMT-0500 (Central Daylight Time),426327.90000003576,CFD-BM-020-024-HC.jpg,1500,solid,O,m,843,prac,1,89837.19999998808,336490.7000000477,7112,ATS,B,11
10,4,2,C,mfborder.png,1,m,Fri Apr 04 2025 16:19:16 GMT-0500 (Central Daylight Time),430559.7000000477,CFD-BM-015-017-HC.jpg,2000,solid,O,m,1418,prac,1,94069.0,336490.7000000477,7112,ATS,B,12
1,test,1,C,haborder.png,1,m,Fri Apr 04 2025 16:19:16 GMT-0500 (Central Daylight Time),456068.3000000119,CFD-WF-011-006-HC.jpg,1000,solid,O,m,1140,12,1,2182.399999976158,453885.90000003576,7112,ATS,B,1
1,test,1,C,mfborder.png,0,m,Fri Apr 04 2025 16:19:16 GMT-0500 (Central Daylight Time),458817.60000002384,CFD-BM-020-024-HC.jpg,1200,dash,O,None,1515,6,1,4931.699999988079,453885.90000003576,7112,ATS,B,2
2,test,1,C,haborder.png,1,m,Fri Apr 04 2025 16:19:16 GMT-0500 (Central Daylight Time),460816.0,CFD-WF-011-006-HC.jpg,1000,solid,O,m,944,12,1,6930.099999964237,453885.90000003576,7112,ATS,B,3
2,test,1,C,mfborder.png,0,z,Fri Apr 04 2025 16:19:16 GMT-0500 (Central Daylight Time),464047.90000003576,CFD-BF-027-013-HC.jpg,1700,dash,O,None,1516,1,1,10162.0,453885.90000003576,7112,ATS,B,4
3,test,1,C,mfborder.png,1,z,Fri Apr 04 2025 16:19:16 GMT-0500 (Central Daylight Time),466714.40000003576,CFD-WF-026-008-A.jpg,1500,dash,O,z,1136,3,1,12828.5,453885.90000003576,7112,ATS,B,5
3,test,1,C,mfborder.png,0,m,Fri Apr 04 2025 16:19:16 GMT-0500 (Central Daylight Time),469262.90000003576,CFD-WM-012-007-HC.jpg,1000,dash,O,None,1514,4,1,15377.0,453885.90000003576,7112,ATS,B,6
4,test,1,C,mfborder.png,1,m,Fri Apr 04 2025 16:19:16 GMT-0500 (Central Daylight Time),471279.60000002384,CFD-BM-020-024-HC.jpg,1200,dash,O,m,795,6,1,17393.69999998808,453885.90000003576,7112,ATS,B,7
4,test,1,C,haborder.png,0,z,Fri Apr 04 2025 16:19:16 GMT-0500 (Central Daylight Time),474412.10000002384,CFD-BM-041-048-A.jpg,1700,solid,O,m,1382,9,1,20526.19999998808,453885.90000003576,7112,ATS,B,8
5,test,1,C,haborder.png,1,m,Fri Apr 04 2025 16:19:16 GMT-0500 (Central Daylight Time),476994.40000003576,CFD-BF-035-007-HC.jpg,1600,solid,O,m,934,10,1,23108.5,453885.90000003576,7112,ATS,B,9
6,test,1,C,haborder.png,1,m,Fri Apr 04 2025 16:19:16 GMT-0500 (Central Daylight Time),479326.90000003576,CFD-WF-027-007-HC.jpg,1500,solid,O,m,787,11,1,25441.0,453885.90000003576,7112,ATS,B,10
6,test,1,C,mfborder.png,0,z,Fri Apr 04 2025 16:19:16 GMT-0500 (Central Daylight Time),482076.2000000477,CFD-BF-027-013-HC.jpg,1700,dash,O,m,983,1,1,28190.30000001192,453885.90000003576,7112,ATS,B,11
6,test,1,C,haborder.png,0,z,Fri Apr 04 2025 16:19:16 GMT-0500 (Central Daylight Time),484658.60000002384,CFD-BM-041-048-A.jpg,1700,solid,O,m,842,9,1,30772.69999998808,453885.90000003576,7112,ATS,B,12
7,test,1,C,haborder.png,1,m,Fri Apr 04 2025 16:19:16 GMT-0500 (Central Daylight Time),487325.2000000477,CFD-WF-027-007-HC.jpg,1500,solid,O,m,1133,11,1,33439.30000001192,453885.90000003576,7112,ATS,B,13
7,test,1,C,mfborder.png,0,m,Fri Apr 04 2025 16:19:16 GMT-0500 (Central Daylight Time),490390.0,CFD-WM-037-060-A.jpg,2000,dash,O,z,1022,5,1,36504.09999996424,453885.90000003576,7112,ATS,B,14
7,test,1,C,haborder.png,0,z,Fri Apr 04 2025 16:19:16 GMT-0500 (Central Daylight Time),493355.60000002384,CFD-BM-037-041-A.jpg,1900,solid,O,m,999,8,1,39469.69999998808,453885.90000003576,7112,ATS,B,15
8,test,1,C,haborder.png,1,z,Fri Apr 04 2025 16:19:16 GMT-0500 (Central Daylight Time),495521.5,CFD-WM-009-009-A.jpg,1400,solid,O,z,726,7,1,41635.59999996424,453885.90000003576,7112,ATS,B,16
9,test,1,C,haborder.png,1,m,Fri Apr 04 2025 16:19:16 GMT-0500 (Central Daylight Time),497788.3000000119,CFD-BF-035-007-HC.jpg,1600,solid,O,m,626,10,1,43902.39999997616,453885.90000003576,7112,ATS,B,17
9,test,1,C,haborder.png,0,z,Fri Apr 04 2025 16:19:16 GMT-0500 (Central Daylight Time),500503.3000000119,CFD-BM-037-041-A.jpg,1900,solid,O,m,770,8,1,46617.39999997616,453885.90000003576,7112,ATS,B,18
9,test,1,C,mfborder.png,0,m,Fri Apr 04 2025 16:19:16 GMT-0500 (Central Daylight Time),503319.10000002384,CFD-WM-037-060-A.jpg,2000,dash,O,z,754,5,1,49433.19999998808,453885.90000003576,7112,ATS,B,19
10,test,1,C,mfborder.png,1,z,Fri Apr 04 2025 16:19:16 GMT-0500 (Central Daylight Time),505851.5,CFD-BF-051-043-A.jpg,1600,dash,O,z,891,2,1,51965.59999996424,453885.90000003576,7112,ATS,B,20
11,test,1,C,mfborder.png,1,z,Fri Apr 04 2025 16:19:16 GMT-0500 (Central Daylight Time),508684.3000000119,CFD-BF-051-043-A.jpg,1600,dash,O,z,1180,2,1,54798.39999997616,453885.90000003576,7112,ATS,B,21
11,test,1,C,haborder.png,0,z,Fri Apr 04 2025 16:19:16 GMT-0500 (Central Daylight Time),511633.5,CFD-WM-009-009-A.jpg,1400,solid,O,None,1515,7,1,57747.59999996424,453885.90000003576,7112,ATS,B,22
12,test,1,C,mfborder.png,1,m,Fri Apr 04 2025 16:19:16 GMT-0500 (Central Daylight Time),513715.7000000477,CFD-WM-012-007-HC.jpg,1000,dash,O,m,1011,4,1,59829.80000001192,453885.90000003576,7112,ATS,B,23
13,test,1,C,mfborder.png,1,z,Fri Apr 04 2025 16:19:16 GMT-0500 (Central Daylight Time),516014.8000000119,CFD-WF-026-008-A.jpg,1500,dash,O,z,755,3,1,62128.89999997616,453885.90000003576,7112,ATS,B,24
1,test,2,C,haborder.png,1,m,Fri Apr 04 2025 16:19:16 GMT-0500 (Central Daylight Time),529360.8000000119,CFD-BM-020-024-HC.jpg,1600,solid,O,m,1051,10,1,2715.199999988079,526645.6000000238,7112,ATS,B,1
1,test,2,C,haborder.png,0,z,Fri Apr 04 2025 16:19:16 GMT-0500 (Central Daylight Time),531526.4000000358,CFD-BF-051-043-A.jpg,1400,solid,O,m,721,7,1,4880.800000011921,526645.6000000238,7112,ATS,B,2
1,test,2,C,mfborder.png,0,z,Fri Apr 04 2025 16:19:16 GMT-0500 (Central Daylight Time),534559.0,CFD-BF-035-007-HC.jpg,1500,dash,O,None,1515,3,1,7913.399999976158,526645.6000000238,7112,ATS,B,3
2,test,2,C,mfborder.png,1,z,Fri Apr 04 2025 16:19:16 GMT-0500 (Central Daylight Time),536725.4000000358,CFD-BF-035-007-HC.jpg,1500,dash,O,z,632,3,1,10079.800000011921,526645.6000000238,7112,ATS,B,4
2,test,2,C,haborder.png,0,z,Fri Apr 04 2025 16:19:16 GMT-0500 (Central Daylight Time),539290.6000000238,CFD-BF-050-012-A.jpg,1900,solid,O,m,617,8,1,12645.0,526645.6000000238,7112,ATS,B,5
3,test,2,C,haborder.png,1,m,Fri Apr 04 2025 16:19:16 GMT-0500 (Central Daylight Time),541506.6000000238,CFD-WM-011-006-HC.jpg,1000,solid,O,m,1167,12,1,14861.0,526645.6000000238,7112,ATS,B,6
4,test,2,C,haborder.png,1,m,Fri Apr 04 2025 16:19:16 GMT-0500 (Central Daylight Time),543256.0,CFD-WM-011-006-HC.jpg,1000,solid,O,m,702,12,1,16610.399999976158,526645.6000000238,7112,ATS,B,7
5,test,2,C,haborder.png,1,m,Fri Apr 04 2025 16:19:16 GMT-0500 (Central Daylight Time),545638.5,CFD-WM-011-006-HC.jpg,1500,solid,O,m,830,11,1,18992.899999976158,526645.6000000238,7112,ATS,B,8
5,test,2,C,mfborder.png,0,m,Fri Apr 04 2025 16:19:16 GMT-0500 (Central Daylight Time),548487.5,CFD-BM-037-041-A.jpg,2000,dash,O,z,812,5,1,21841.899999976158,526645.6000000238,7112,ATS,B,9
5,test,2,C,haborder.png,0,z,Fri Apr 04 2025 16:19:16 GMT-0500 (Central Daylight Time),551269.7000000477,CFD-BF-051-043-A.jpg,1400,solid,O,m,1346,7,1,24624.100000023842,526645.6000000238,7112,ATS,B,10
6,test,2,C,mfborder.png,1,m,Fri Apr 04 2025 16:19:16 GMT-0500 (Central Daylight Time),552938.1000000238,CFD-BM-015-017-HC.jpg,1000,dash,O,m,603,4,1,26292.5,526645.6000000238,7112,ATS,B,11
6,test,2,C,mfborder.png,0,z,Fri Apr 04 2025 16:19:16 GMT-0500 (Central Daylight Time),555268.9000000358,CFD-WF-013-015-A.jpg,1600,dash,O,m,682,2,1,28623.30000001192,526645.6000000238,7112,ATS,B,12
7,test,2,C,mfborder.png,1,z,Fri Apr 04 2025 16:19:16 GMT-0500 (Central Daylight Time),557618.2000000477,CFD-WF-013-015-A.jpg,1600,dash,O,z,709,2,1,30972.600000023842,526645.6000000238,7112,ATS,B,13
8,test,2,C,mfborder.png,1,m,Fri Apr 04 2025 16:19:16 GMT-0500 (Central Daylight Time),559983.9000000358,CFD-BM-015-017-HC.jpg,1000,dash,O,m,1329,4,1,33338.30000001192,526645.6000000238,7112,ATS,B,14
9,test,2,C,mfborder.png,1,m,Fri Apr 04 2025 16:19:16 GMT-0500 (Central Daylight Time),562016.8000000119,CFD-WM-009-009-A.jpg,1200,dash,O,m,785,6,1,35371.19999998808,526645.6000000238,7112,ATS,B,15
9,test,2,C,haborder.png,0,z,Fri Apr 04 2025 16:19:16 GMT-0500 (Central Daylight Time),564598.9000000358,CFD-WF-026-008-A.jpg,1700,solid,O,m,819,9,1,37953.30000001192,526645.6000000238,7112,ATS,B,16
10,test,2,C,mfborder.png,1,z,Fri Apr 04 2025 16:19:16 GMT-0500 (Central Daylight Time),567048.2000000477,CFD-WF-011-006-HC.jpg,1700,dash,O,z,711,1,1,40402.60000002384,526645.6000000238,7112,ATS,B,17
11,test,2,C,haborder.png,1,m,Fri Apr 04 2025 16:19:16 GMT-0500 (Central Daylight Time),569580.6000000238,CFD-BM-020-024-HC.jpg,1600,solid,O,m,882,10,1,42935.0,526645.6000000238,7112,ATS,B,18
12,test,2,C,haborder.png,1,z,Fri Apr 04 2025 16:19:16 GMT-0500 (Central Daylight Time),572413.3000000119,CFD-BF-050-012-A.jpg,1900,solid,O,z,882,8,1,45767.69999998808,526645.6000000238,7112,ATS,B,19
13,test,2,C,haborder.png,1,z,Fri Apr 04 2025 16:19:16 GMT-0500 (Central Daylight Time),574928.9000000358,CFD-WF-026-008-A.jpg,1700,solid,O,z,752,9,1,48283.30000001192,526645.6000000238,7112,ATS,B,20
14,test,2,C,mfborder.png,1,m,Fri Apr 04 2025 16:19:16 GMT-0500 (Central Daylight Time),577211.6000000238,CFD-WM-009-009-A.jpg,1200,dash,O,m,1040,6,1,50566.0,526645.6000000238,7112,ATS,B,21
15,test,2,C,haborder.png,1,m,Fri Apr 04 2025 16:19:16 GMT-0500 (Central Daylight Time),580027.3000000119,CFD-WM-011-006-HC.jpg,1500,solid,O,m,1274,11,1,53381.69999998808,526645.6000000238,7112,ATS,B,22
16,test,2,C,mfborder.png,1,z,Fri Apr 04 2025 16:19:16 GMT-0500 (Central Daylight Time),582743.2000000477,CFD-WF-011-006-HC.jpg,1700,dash,O,z,955,1,1,56097.60000002384,526645.6000000238,7112,ATS,B,23
16,test,2,C,mfborder.png,0,m,Fri Apr 04 2025 16:19:16 GMT-0500 (Central Daylight Time),586292.1000000238,CFD-BM-037-041-A.jpg,2000,dash,O,None,1517,5,1,59646.5,526645.6000000238,7112,ATS,B,24
0,test,3,C,mfborder.png,0,z,Fri Apr 04 2025 16:19:16 GMT-0500 (Central Daylight Time),591340.7000000477,CFD-BF-027-013-HC.jpg,1700,dash,O,None,1509,1,1,3266.0,588074.7000000477,7112,ATS,B,1
0,test,3,C,haborder.png,0,z,Fri Apr 04 2025 16:19:16 GMT-0500 (Central Daylight Time),593806.2000000477,CFD-BM-041-048-A.jpg,1700,solid,O,m,722,9,1,5731.5,588074.7000000477,7112,ATS,B,2
0,test,3,C,haborder.png,0,m,Fri Apr 04 2025 16:19:16 GMT-0500 (Central Daylight Time),596705.1000000238,CFD-WF-027-007-HC.jpg,1500,solid,O,z,1351,11,1,8630.399999976158,588074.7000000477,7112,ATS,B,3
1,test,3,C,haborder.png,1,z,Fri Apr 04 2025 16:19:16 GMT-0500 (Central Daylight Time),599487.1000000238,CFD-BM-041-048-A.jpg,1700,solid,O,z,1044,9,1,11412.399999976158,588074.7000000477,7112,ATS,B,4
1,test,3,C,haborder.png,0,z,Fri Apr 04 2025 16:19:16 GMT-0500 (Central Daylight Time),602036.8000000119,CFD-WM-009-009-A.jpg,1400,solid,O,m,1116,7,1,13962.099999964237,588074.7000000477,7112,ATS,B,5
2,test,3,C,haborder.png,1,m,Fri Apr 04 2025 16:19:16 GMT-0500 (Central Daylight Time),604219.4000000358,CFD-WF-011-006-HC.jpg,1000,solid,O,m,1134,12,1,16144.699999988079,588074.7000000477,7112,ATS,B,6
3,test,3,C,mfborder.png,1,z,Fri Apr 04 2025 16:19:16 GMT-0500 (Central Daylight Time),606885.5,CFD-BF-051-043-A.jpg,1600,dash,O,z,1031,2,1,18810.799999952316,588074.7000000477,7112,ATS,B,7
3,test,3,C,mfborder.png,0,m,Fri Apr 04 2025 16:19:16 GMT-0500 (Central Daylight Time),609484.6000000238,CFD-BM-020-024-HC.jpg,1200,dash,O,z,1348,6,1,21409.899999976158,588074.7000000477,7112,ATS,B,8
4,test,3,C,haborder.png,1,m,Fri Apr 04 2025 16:19:16 GMT-0500 (Central Daylight Time),612517.2000000477,CFD-BF-035-007-HC.jpg,1600,solid,O,m,1397,10,1,24442.5,588074.7000000477,7112,ATS,B,9
4,test,3,C,haborder.png,0,z,Fri Apr 04 2025 16:19:16 GMT-0500 (Central Daylight Time),615082.6000000238,CFD-BM-037-041-A.jpg,1900,solid,O,m,626,8,1,27007.899999976158,588074.7000000477,7112,ATS,B,10
5,test,3,C,mfborder.png,1,z,Fri Apr 04 2025 16:19:16 GMT-0500 (Central Daylight Time),617398.4000000358,CFD-WF-026-008-A.jpg,1500,dash,O,z,754,3,1,29323.69999998808,588074.7000000477,7112,ATS,B,11
6,test,3,C,mfborder.png,1,m,Fri Apr 04 2025 16:19:16 GMT-0500 (Central Daylight Time),619181.2000000477,CFD-WM-012-007-HC.jpg,1000,dash,O,m,723,4,1,31106.5,588074.7000000477,7112,ATS,B,12
7,test,3,C,haborder.png,1,m,Fri Apr 04 2025 16:19:16 GMT-0500 (Central Daylight Time),620963.8000000119,CFD-WF-011-006-HC.jpg,1000,solid,O,m,740,12,1,32889.09999996424,588074.7000000477,7112,ATS,B,13
7,test,3,C,haborder.png,0,m,Fri Apr 04 2025 16:19:16 GMT-0500 (Central Daylight Time),623296.3000000119,CFD-BF-035-007-HC.jpg,1600,solid,O,z,686,10,1,35221.59999996424,588074.7000000477,7112,ATS,B,14
7,test,3,C,haborder.png,0,z,Fri Apr 04 2025 16:19:16 GMT-0500 (Central Daylight Time),625728.4000000358,CFD-BM-037-041-A.jpg,1900,solid,O,m,493,8,1,37653.69999998808,588074.7000000477,7112,ATS,B,15
7,test,3,C,haborder.png,0,m,Fri Apr 04 2025 16:19:16 GMT-0500 (Central Daylight Time),627995.1000000238,CFD-WF-027-007-HC.jpg,1500,solid,O,z,717,11,1,39920.39999997616,588074.7000000477,7112,ATS,B,16
7,test,3,C,mfborder.png,0,z,Fri Apr 04 2025 16:19:16 GMT-0500 (Central Daylight Time),630210.9000000358,CFD-WF-026-008-A.jpg,1500,dash,O,m,667,3,1,42136.19999998808,588074.7000000477,7112,ATS,B,17
7,test,3,C,mfborder.png,0,m,Fri Apr 04 2025 16:19:16 GMT-0500 (Central Daylight Time),632910.0,CFD-WM-037-060-A.jpg,2000,dash,O,z,655,5,1,44835.299999952316,588074.7000000477,7112,ATS,B,18
8,test,3,C,mfborder.png,1,m,Fri Apr 04 2025 16:19:16 GMT-0500 (Central Daylight Time),635528.8000000119,CFD-WM-037-060-A.jpg,2000,dash,O,m,556,5,1,47454.09999996424,588074.7000000477,7112,ATS,B,19
9,test,3,C,mfborder.png,1,z,Fri Apr 04 2025 16:19:16 GMT-0500 (Central Daylight Time),638424.8000000119,CFD-BF-051-043-A.jpg,1600,dash,O,z,1253,2,1,50350.09999996424,588074.7000000477,7112,ATS,B,20
10,test,3,C,mfborder.png,1,m,Fri Apr 04 2025 16:19:16 GMT-0500 (Central Daylight Time),640257.5,CFD-WM-012-007-HC.jpg,1000,dash,O,m,793,4,1,52182.799999952316,588074.7000000477,7112,ATS,B,21
10,test,3,C,mfborder.png,0,z,Fri Apr 04 2025 16:19:16 GMT-0500 (Central Daylight Time),643505.7000000477,CFD-BF-027-013-HC.jpg,1700,dash,O,None,1514,1,1,55431.0,588074.7000000477,7112,ATS,B,22
10,test,3,C,haborder.png,0,z,Fri Apr 04 2025 16:19:16 GMT-0500 (Central Daylight Time),646339.1000000238,CFD-WM-009-009-A.jpg,1400,solid,O,m,1402,7,1,58264.39999997616,588074.7000000477,7112,ATS,B,23
10,test,3,C,mfborder.png,0,m,Fri Apr 04 2025 16:19:16 GMT-0500 (Central Daylight Time),648354.8000000119,CFD-BM-020-024-HC.jpg,1200,dash,O,z,750,6,1,60280.09999996424,588074.7000000477,7112,ATS,B,24
1,test,4,C,mfborder.png,1,m,Fri Apr 04 2025 16:19:16 GMT-0500 (Central Daylight Time),653153.5,CFD-BM-037-041-A.jpg,2000,dash,O,m,1435,5,1,3482.199999988079,649671.3000000119,7112,ATS,B,1
2,test,4,C,haborder.png,1,m,Fri Apr 04 2025 16:19:16 GMT-0500 (Central Daylight Time),655719.3000000119,CFD-WM-011-006-HC.jpg,1500,solid,O,m,992,11,1,6048.0,649671.3000000119,7112,ATS,B,2
3,test,4,C,haborder.png,1,z,Fri Apr 04 2025 16:19:16 GMT-0500 (Central Daylight Time),658451.5,CFD-BF-050-012-A.jpg,1900,solid,O,z,791,8,1,8780.199999988079,649671.3000000119,7112,ATS,B,3
4,test,4,C,haborder.png,1,z,Fri Apr 04 2025 16:19:16 GMT-0500 (Central Daylight Time),660984.1000000238,CFD-BF-051-043-A.jpg,1400,solid,O,z,1095,7,1,11312.800000011921,649671.3000000119,7112,ATS,B,4
4,test,4,C,mfborder.png,0,z,Fri Apr 04 2025 16:19:16 GMT-0500 (Central Daylight Time),664249.8000000119,CFD-WF-011-006-HC.jpg,1700,dash,O,None,1514,1,1,14578.5,649671.3000000119,7112,ATS,B,5
4,test,4,C,mfborder.png,0,z,Fri Apr 04 2025 16:19:16 GMT-0500 (Central Daylight Time),667498.7000000477,CFD-WF-011-006-HC.jpg,1700,dash,O,None,1515,1,1,17827.400000035763,649671.3000000119,7112,ATS,B,6
4,test,4,C,haborder.png,0,z,Fri Apr 04 2025 16:19:16 GMT-0500 (Central Daylight Time),670064.2000000477,CFD-WF-026-008-A.jpg,1700,solid,O,m,827,9,1,20392.900000035763,649671.3000000119,7112,ATS,B,7
4,test,4,C,mfborder.png,0,m,Fri Apr 04 2025 16:19:16 GMT-0500 (Central Daylight Time),672630.6000000238,CFD-BM-015-017-HC.jpg,1000,dash,O,None,1514,4,1,22959.30000001192,649671.3000000119,7112,ATS,B,8
5,test,4,C,mfborder.png,1,m,Fri Apr 04 2025 16:19:16 GMT-0500 (Central Daylight Time),674613.7000000477,CFD-WM-009-009-A.jpg,1200,dash,O,m,748,6,1,24942.400000035763,649671.3000000119,7112,ATS,B,9
6,test,4,C,mfborder.png,1,m,Fri Apr 04 2025 16:19:16 GMT-0500 (Central Daylight Time),676778.9000000358,CFD-WM-009-009-A.jpg,1200,dash,O,m,908,6,1,27107.600000023842,649671.3000000119,7112,ATS,B,10
7,test,4,C,haborder.png,1,m,Fri Apr 04 2025 16:19:16 GMT-0500 (Central Daylight Time),679277.8000000119,CFD-WM-011-006-HC.jpg,1000,solid,O,m,1463,12,1,29606.5,649671.3000000119,7112,ATS,B,11
7,test,4,C,haborder.png,0,z,Fri Apr 04 2025 16:19:16 GMT-0500 (Central Daylight Time),681760.9000000358,CFD-WF-026-008-A.jpg,1700,solid,O,m,735,9,1,32089.600000023842,649671.3000000119,7112,ATS,B,12
8,test,4,C,mfborder.png,1,z,Fri Apr 04 2025 16:19:16 GMT-0500 (Central Daylight Time),684043.0,CFD-BF-035-007-HC.jpg,1500,dash,O,z,742,3,1,34371.69999998808,649671.3000000119,7112,ATS,B,13
8,test,4,C,mfborder.png,0,z,Fri Apr 04 2025 16:19:16 GMT-0500 (Central Daylight Time),686358.9000000358,CFD-WF-013-015-A.jpg,1600,dash,O,m,671,2,1,36687.60000002384,649671.3000000119,7112,ATS,B,14
8,test,4,C,mfborder.png,0,z,Fri Apr 04 2025 16:19:16 GMT-0500 (Central Daylight Time),688924.8000000119,CFD-BF-035-007-HC.jpg,1500,dash,O,m,1023,3,1,39253.5,649671.3000000119,7112,ATS,B,15
9,test,4,C,mfborder.png,1,m,Fri Apr 04 2025 16:19:16 GMT-0500 (Central Daylight Time),692341.4000000358,CFD-BM-037-041-A.jpg,2000,dash,O,m,1381,5,1,42670.10000002384,649671.3000000119,7112,ATS,B,16
10,test,4,C,mfborder.png,1,z,Fri Apr 04 2025 16:19:16 GMT-0500 (Central Daylight Time),694823.1000000238,CFD-WF-013-015-A.jpg,1600,dash,O,z,837,2,1,45151.80000001192,649671.3000000119,7112,ATS,B,17
10,test,4,C,haborder.png,0,z,Fri Apr 04 2025 16:19:16 GMT-0500 (Central Daylight Time),697788.6000000238,CFD-BF-050-012-A.jpg,1900,solid,O,m,1016,8,1,48117.30000001192,649671.3000000119,7112,ATS,B,18
11,test,4,C,haborder.png,1,m,Fri Apr 04 2025 16:19:16 GMT-0500 (Central Daylight Time),700287.8000000119,CFD-BM-020-024-HC.jpg,1600,solid,O,m,853,10,1,50616.5,649671.3000000119,7112,ATS,B,19
12,test,4,C,haborder.png,1,m,Fri Apr 04 2025 16:19:16 GMT-0500 (Central Daylight Time),702670.5,CFD-BM-020-024-HC.jpg,1600,solid,O,m,738,10,1,52999.19999998808,649671.3000000119,7112,ATS,B,20
12,test,4,C,mfborder.png,0,m,Fri Apr 04 2025 16:19:16 GMT-0500 (Central Daylight Time),705218.8000000119,CFD-BM-015-017-HC.jpg,1000,dash,O,None,1514,4,1,55547.5,649671.3000000119,7112,ATS,B,21
13,test,4,C,haborder.png,1,z,Fri Apr 04 2025 16:19:16 GMT-0500 (Central Daylight Time),708135.4000000358,CFD-BF-051-043-A.jpg,1400,solid,O,z,1487,7,1,58464.10000002384,649671.3000000119,7112,ATS,B,22
14,test,4,C,haborder.png,1,m,Fri Apr 04 2025 16:19:16 GMT-0500 (Central Daylight Time),710184.6000000238,CFD-WM-011-006-HC.jpg,1000,solid,O,m,1003,12,1,60513.30000001192,649671.3000000119,7112,ATS,B,23
15,test,4,C,haborder.png,1,m,Fri Apr 04 2025 16:19:16 GMT-0500 (Central Daylight Time),712350.6000000238,CFD-WM-011-006-HC.jpg,1500,solid,O,m,622,11,1,62679.30000001192,649671.3000000119,7112,ATS,B,24
