Q,Q1,Q2,Q3,Q4,acc_sum,block,block_c,correct,correct_response,datetime,endtime,project,response,response_time,row_sel,session_number,squiggle1,squiggle1x,squiggle1y,squiggle2,squiggle2x,squiggle2y,squiggle3,squiggle3x,squiggle3y,squiggle4,squiggle4x,squiggle4y,start_end,starttime,subject_id,target_congruent,task,task_vers,testsquiggle,testsquigglex,testsquiggley,time_practice_delay,time_practice_fixation,time_practice_stimuli,time_practice_study,time_test_delay,time_test_fixation,time_test_stimuli,time_test_study,trial
1,1,0,0,0,1,prac,1,1,z,Fri Feb 28 2025 16:21:32 GMT-0600 (Central Standard Time),173538.70000001788,O,z,1175,1,1,16.bmp,-120,-120,17.bmp,120,-120,18.bmp,-120,120,19.bmp,120,120,9998.40000000596,163540.30000001192,7072,yes,SM,B,16.bmp,-120,-120,167496,161464,169511,163482,,,,,1
3,0,0,1,0,2,prac,1,1,m,Fri Feb 28 2025 16:21:32 GMT-0600 (Central Standard Time),183785.30000001192,O,m,1408,2,1,20.bmp,-120,-120,21.bmp,120,-120,22.bmp,-120,120,23.bmp,120,120,10228.5,173556.80000001192,7072,no,SM,B,23.bmp,-120,120,177509,171481,179527,173495,,,,,2
4,0,0,0,1,2,prac,1,0,m,Fri Feb 28 2025 16:21:32 GMT-0600 (Central Standard Time),194481.20000001788,O,z,1849,3,1,24.bmp,-120,-120,25.bmp,120,-120,26.bmp,-120,120,27.bmp,120,120,10680.09999999404,183801.10000002384,7072,no,SM,B,24.bmp,120,120,187756,181725,189774,183742,,,,,3
2,0,1,0,0,3,prac,1,1,z,Fri Feb 28 2025 16:21:32 GMT-0600 (Central Standard Time),205044.80000001192,O,z,1722,4,1,28.bmp,-120,-120,29.bmp,120,-120,30.bmp,-120,120,31.bmp,120,120,10540.300000011921,194504.5,7072,yes,SM,B,29.bmp,120,-120,198453,192428,200470,194438,,,,,4
3,0,0,1,0,3,prac,1,0,z,Fri Feb 28 2025 16:21:32 GMT-0600 (Central Standard Time),215891.10000002384,O,None,2014,5,1,32.bmp,-120,-120,33.bmp,120,-120,34.bmp,-120,120,35.bmp,120,120,10830.300000011921,205060.80000001192,7072,yes,SM,B,34.bmp,-120,120,209016,202985,211033,205002,,,,,5
1,1,0,0,0,3,prac,1,0,m,Fri Feb 28 2025 16:21:32 GMT-0600 (Central Standard Time),226321.0,O,z,1608,6,1,36.bmp,-120,-120,37.bmp,120,-120,38.bmp,-120,120,39.bmp,120,120,10415.299999982119,215905.70000001788,7072,no,SM,B,39.bmp,-120,-120,219846,213829,221863,215831,,,,,6
2,0,1,0,0,3,prac,1,0,m,Fri Feb 28 2025 16:21:32 GMT-0600 (Central Standard Time),236251.20000001788,O,z,1083,7,1,40.bmp,-120,-120,41.bmp,120,-120,42.bmp,-120,120,43.bmp,120,120,9915.5,226335.70000001788,7072,no,SM,B,40.bmp,120,-120,230292,224260,232309,226278,,,,,7
4,0,0,0,1,4,prac,1,1,z,Fri Feb 28 2025 16:21:32 GMT-0600 (Central Standard Time),246114.80000001192,O,z,1032,8,1,44.bmp,-120,-120,45.bmp,120,-120,46.bmp,-120,120,47.bmp,120,120,9849.800000011921,236265.0,7072,yes,SM,B,47.bmp,120,120,240206,234189,242223,236192,,,,,8
1,1,0,0,0,1,prac,2,1,z,Fri Feb 28 2025 16:21:32 GMT-0600 (Central Standard Time),261026.60000002384,O,z,1749,1,1,16.bmp,-120,-120,17.bmp,120,-120,18.bmp,-120,120,19.bmp,120,120,10566.200000017881,250460.40000000596,7072,yes,SM,B,16.bmp,-120,-120,254401,248384,256418,250387,,,,,1
3,0,0,1,0,2,prac,2,1,m,Fri Feb 28 2025 16:21:32 GMT-0600 (Central Standard Time),271039.8000000119,O,m,1169,2,1,20.bmp,-120,-120,21.bmp,120,-120,22.bmp,-120,120,23.bmp,120,120,9997.59999999404,261042.20000001788,7072,no,SM,B,23.bmp,-120,120,264997,258966,267015,260983,,,,,2
4,0,0,0,1,2,prac,2,0,m,Fri Feb 28 2025 16:21:32 GMT-0600 (Central Standard Time),281269.60000002384,O,z,1388,3,1,24.bmp,-120,-120,25.bmp,120,-120,26.bmp,-120,120,27.bmp,120,120,10215.600000023842,271054.0,7072,no,SM,B,24.bmp,120,120,275011,268978,277028,270996,,,,,3
2,0,1,0,0,3,prac,2,1,z,Fri Feb 28 2025 16:21:32 GMT-0600 (Central Standard Time),291949.40000000596,O,z,1845,4,1,28.bmp,-120,-120,29.bmp,120,-120,30.bmp,-120,120,31.bmp,120,120,10665.09999999404,281284.3000000119,7072,yes,SM,B,29.bmp,120,-120,285241,279208,287259,281226,,,,,4
3,0,0,1,0,4,prac,2,1,z,Fri Feb 28 2025 16:21:32 GMT-0600 (Central Standard Time),301729.60000002384,O,z,958,5,1,32.bmp,-120,-120,33.bmp,120,-120,34.bmp,-120,120,35.bmp,120,120,9766.90000000596,291962.7000000179,7072,yes,SM,B,34.bmp,-120,120,295904,289887,297921,291890,,,,,5
1,1,0,0,0,5,prac,2,1,m,Fri Feb 28 2025 16:21:32 GMT-0600 (Central Standard Time),312242.8000000119,O,m,1688,6,1,36.bmp,-120,-120,37.bmp,120,-120,38.bmp,-120,120,39.bmp,120,120,10499.800000011921,301743.0,7072,no,SM,B,39.bmp,-120,-120,305685,299667,307704,301670,,,,,6
2,0,1,0,0,6,prac,2,1,m,Fri Feb 28 2025 16:21:32 GMT-0600 (Central Standard Time),322539.3000000119,O,m,1481,7,1,40.bmp,-120,-120,41.bmp,120,-120,42.bmp,-120,120,43.bmp,120,120,10282.5,312256.8000000119,7072,no,SM,B,40.bmp,120,-120,316197,310181,318215,312183,,,,,7
4,0,0,0,1,7,prac,2,1,z,Fri Feb 28 2025 16:21:32 GMT-0600 (Central Standard Time),332619.5,O,z,1264,8,1,44.bmp,-120,-120,45.bmp,120,-120,46.bmp,-120,120,47.bmp,120,120,10066.59999999404,322552.90000000596,7072,yes,SM,B,47.bmp,120,120,326494,320477,328511,322480,,,,,8
4,0,0,0,1,0,test,1,0,m,Fri Feb 28 2025 16:21:32 GMT-0600 (Central Standard Time),356345.3000000119,O,None,2014,1,1,48.bmp,-120,-120,49.bmp,120,-120,50.bmp,-120,120,43.bmp,120,120,10051.699999988079,346293.60000002384,7072,yes,SM,B,50.bmp,120,120,326494,320477,328511,322480,350236.0,344217.0,352254.0,346222.0,1
2,0,1,0,0,0,test,1,0,m,Fri Feb 28 2025 16:21:32 GMT-0600 (Central Standard Time),366408.3000000119,O,None,2014,2,1,1.bmp,-120,-120,2.bmp,120,-120,3.bmp,-120,120,4.bmp,120,120,10049.59999999404,356358.7000000179,7072,yes,SM,B,3.bmp,120,-120,326494,320477,328511,322480,360300.0,354282.0,362317.0,356285.0,2
1,1,0,0,0,0,test,1,0,z,Fri Feb 28 2025 16:21:32 GMT-0600 (Central Standard Time),376038.3000000119,O,m,1562,3,1,5.bmp,-120,-120,6.bmp,120,-120,7.bmp,-120,120,8.bmp,120,120,9615.199999988079,366423.10000002384,7072,yes,SM,B,5.bmp,-120,-120,326494,320477,328511,322480,370380.0,364347.0,372397.0,366364.0,3
3,0,0,1,0,1,test,1,1,m,Fri Feb 28 2025 16:21:32 GMT-0600 (Central Standard Time),385702.0,O,m,1604,4,1,9.bmp,-120,-120,10.bmp,120,-120,11.bmp,-120,120,12.bmp,120,120,9649.899999976158,376052.10000002384,7072,yes,SM,B,9.bmp,-120,120,326494,320477,328511,322480,379993.0,373976.0,382012.0,375979.0,4
2,0,1,0,0,2,test,1,1,z,Fri Feb 28 2025 16:21:32 GMT-0600 (Central Standard Time),395265.5,O,z,1510,5,1,13.bmp,-120,-120,14.bmp,120,-120,15.bmp,-120,120,16.bmp,120,120,9551.0,385714.5,7072,yes,SM,B,14.bmp,120,-120,326494,320477,328511,322480,389657.0,383638.0,391674.0,385642.0,5
3,0,0,1,0,3,test,1,1,z,Fri Feb 28 2025 16:21:32 GMT-0600 (Central Standard Time),404845.8000000119,O,z,1530,6,1,17.bmp,-120,-120,18.bmp,120,-120,19.bmp,-120,120,20.bmp,120,120,9567.199999988079,395278.60000002384,7072,yes,SM,B,19.bmp,-120,120,326494,320477,328511,322480,399220.0,393202.0,401237.0,395206.0,6
4,0,0,0,1,4,test,1,1,z,Fri Feb 28 2025 16:21:32 GMT-0600 (Central Standard Time),414475.90000000596,O,z,1565,7,1,21.bmp,-120,-120,22.bmp,120,-120,23.bmp,-120,120,24.bmp,120,120,9616.09999999404,404859.8000000119,7072,yes,SM,B,24.bmp,120,120,326494,320477,328511,322480,408801.0,402783.0,410818.0,404786.0,7
2,0,1,0,0,4,test,1,0,m,Fri Feb 28 2025 16:21:32 GMT-0600 (Central Standard Time),424539.10000002384,O,None,2014,8,1,25.bmp,-120,-120,26.bmp,120,-120,27.bmp,-120,120,28.bmp,120,120,10049.90000000596,414489.2000000179,7072,yes,SM,B,25.bmp,120,-120,326494,320477,328511,322480,418431.0,412413.0,420448.0,414416.0,8
3,0,0,1,0,5,test,1,1,m,Fri Feb 28 2025 16:21:32 GMT-0600 (Central Standard Time),433819.60000002384,O,m,1215,9,1,29.bmp,-120,-120,30.bmp,120,-120,31.bmp,-120,120,32.bmp,120,120,9267.600000023842,424552.0,7072,yes,SM,B,30.bmp,-120,120,326494,320477,328511,322480,428494.0,422476.0,430512.0,424480.0,9
4,0,0,0,1,6,test,1,1,z,Fri Feb 28 2025 16:21:32 GMT-0600 (Central Standard Time),443099.90000000596,O,z,1208,10,1,37.bmp,-120,-120,38.bmp,120,-120,39.bmp,-120,120,40.bmp,120,120,9265.90000000596,433834.0,7072,yes,SM,B,40.bmp,120,120,326494,320477,328511,322480,437791.0,431758.0,439808.0,433776.0,10
3,0,0,1,0,6,test,1,0,z,Fri Feb 28 2025 16:21:32 GMT-0600 (Central Standard Time),452829.90000000596,O,m,1672,11,1,33.bmp,-120,-120,34.bmp,120,-120,35.bmp,-120,120,36.bmp,120,120,9716.799999982119,443113.10000002384,7072,yes,SM,B,35.bmp,-120,120,326494,320477,328511,322480,447054.0,441037.0,449072.0,443040.0,11
2,0,1,0,0,6,test,1,0,m,Fri Feb 28 2025 16:21:32 GMT-0600 (Central Standard Time),462676.7000000179,O,z,1790,12,1,41.bmp,-120,-120,42.bmp,120,-120,43.bmp,-120,120,44.bmp,120,120,9834.09999999404,452842.60000002384,7072,yes,SM,B,41.bmp,120,-120,326494,320477,328511,322480,456785.0,450766.0,458802.0,452770.0,12
3,0,0,1,0,6,test,1,0,m,Fri Feb 28 2025 16:21:32 GMT-0600 (Central Standard Time),472023.60000002384,O,z,1295,13,1,45.bmp,-120,-120,46.bmp,120,-120,47.bmp,-120,120,48.bmp,120,120,9334.100000023842,462689.5,7072,yes,SM,B,46.bmp,-120,120,326494,320477,328511,322480,466631.0,460613.0,468649.0,462617.0,13
1,1,0,0,0,6,test,1,0,z,Fri Feb 28 2025 16:21:32 GMT-0600 (Central Standard Time),481437.3000000119,O,m,1356,14,1,49.bmp,-120,-120,50.bmp,120,-120,4.bmp,-120,120,1.bmp,120,120,9400.90000000596,472036.40000000596,7072,yes,SM,B,49.bmp,-120,-120,326494,320477,328511,322480,475978.0,469960.0,477996.0,471964.0,14
4,0,0,0,1,6,test,1,0,m,Fri Feb 28 2025 16:21:32 GMT-0600 (Central Standard Time),490767.5,O,z,1272,15,1,10.bmp,-120,-120,11.bmp,120,-120,12.bmp,-120,120,13.bmp,120,120,9320.299999982119,481447.2000000179,7072,yes,SM,B,11.bmp,120,120,326494,320477,328511,322480,485392.0,479371.0,487408.0,481376.0,15
1,1,0,0,0,7,test,1,1,m,Fri Feb 28 2025 16:21:32 GMT-0600 (Central Standard Time),500314.3000000119,O,m,1493,16,1,2.bmp,-120,-120,3.bmp,120,-120,4.bmp,-120,120,5.bmp,120,120,9534.300000011921,490780.0,7072,yes,SM,B,5.bmp,-120,-120,326494,320477,328511,322480,494722.0,488704.0,496739.0,490708.0,16
3,0,0,1,0,8,test,1,1,m,Fri Feb 28 2025 16:21:32 GMT-0600 (Central Standard Time),509594.60000002384,O,m,1218,17,1,22.bmp,-120,-120,23.bmp,120,-120,24.bmp,-120,120,25.bmp,120,120,9268.0,500326.60000002384,7072,yes,SM,B,22.bmp,-120,120,326494,320477,328511,322480,504269.0,498250.0,506286.0,500255.0,17
1,1,0,0,0,9,test,1,1,z,Fri Feb 28 2025 16:21:32 GMT-0600 (Central Standard Time),518658.40000000596,O,z,1009,18,1,6.bmp,-120,-120,7.bmp,120,-120,8.bmp,-120,120,9.bmp,120,120,9049.699999988079,509608.7000000179,7072,yes,SM,B,6.bmp,-120,-120,326494,320477,328511,322480,513550.0,507532.0,515567.0,509535.0,18
2,0,1,0,0,10,test,1,1,z,Fri Feb 28 2025 16:21:32 GMT-0600 (Central Standard Time),528021.900000006,O,z,1289,19,1,26.bmp,-120,-120,27.bmp,120,-120,28.bmp,-120,120,29.bmp,120,120,9335.90000000596,518686.0,7072,yes,SM,B,27.bmp,120,-120,326494,320477,328511,322480,522630.0,516610.0,524647.0,518616.0,19
3,0,0,1,0,11,test,1,1,z,Fri Feb 28 2025 16:21:32 GMT-0600 (Central Standard Time),537069.1000000238,O,z,982,20,1,30.bmp,-120,-120,31.bmp,120,-120,32.bmp,-120,120,33.bmp,120,120,9033.90000000596,528035.2000000179,7072,yes,SM,B,32.bmp,-120,120,326494,320477,328511,322480,531976.0,525959.0,533994.0,527963.0,20
1,1,0,0,0,11,test,1,0,m,Fri Feb 28 2025 16:21:32 GMT-0600 (Central Standard Time),547132.7000000179,O,None,2015,21,1,14.bmp,-120,-120,15.bmp,120,-120,16.bmp,-120,120,17.bmp,120,120,10051.09999999404,537081.6000000238,7072,yes,SM,B,16.bmp,-120,-120,326494,320477,328511,322480,541024.0,535005.0,543041.0,537009.0,21
4,0,0,0,1,12,test,1,1,z,Fri Feb 28 2025 16:21:32 GMT-0600 (Central Standard Time),556296.1000000238,O,z,1112,22,1,18.bmp,-120,-120,19.bmp,120,-120,20.bmp,-120,120,21.bmp,120,120,9149.40000000596,547146.7000000179,7072,yes,SM,B,21.bmp,120,120,326494,320477,328511,322480,551087.0,545070.0,553104.0,547073.0,22
1,1,0,0,0,13,test,1,1,m,Fri Feb 28 2025 16:21:32 GMT-0600 (Central Standard Time),565526.3000000119,O,m,1180,23,1,34.bmp,-120,-120,35.bmp,120,-120,36.bmp,-120,120,37.bmp,120,120,9217.699999988079,556308.6000000238,7072,yes,SM,B,37.bmp,-120,-120,326494,320477,328511,322480,560251.0,554232.0,562268.0,556236.0,23
2,0,1,0,0,13,test,1,0,z,Fri Feb 28 2025 16:21:32 GMT-0600 (Central Standard Time),575473.2000000179,O,m,1893,24,1,42.bmp,-120,-120,43.bmp,120,-120,44.bmp,-120,120,45.bmp,120,120,9933.59999999404,565539.6000000238,7072,yes,SM,B,43.bmp,120,-120,326494,320477,328511,322480,569481.0,563463.0,571499.0,565467.0,24
4,0,0,0,1,13,test,1,0,m,Fri Feb 28 2025 16:21:32 GMT-0600 (Central Standard Time),584837.0,O,z,1307,25,1,46.bmp,-120,-120,47.bmp,120,-120,48.bmp,-120,120,49.bmp,120,120,9351.399999976158,575485.6000000238,7072,yes,SM,B,48.bmp,120,120,326494,320477,328511,322480,579428.0,573409.0,581445.0,575413.0,25
1,1,0,0,0,14,test,1,1,z,Fri Feb 28 2025 16:21:32 GMT-0600 (Central Standard Time),594550.0,O,z,1647,26,1,38.bmp,-120,-120,39.bmp,120,-120,40.bmp,-120,120,41.bmp,120,120,9698.0,584852.0,7072,yes,SM,B,38.bmp,-120,-120,326494,320477,328511,322480,588808.0,582776.0,590825.0,584794.0,26
4,0,0,0,1,15,test,1,1,z,Fri Feb 28 2025 16:21:32 GMT-0600 (Central Standard Time),603447.3000000119,O,z,838,27,1,50.bmp,-120,-120,11.bmp,120,-120,1.bmp,-120,120,2.bmp,120,120,8885.199999988079,594562.1000000238,7072,yes,SM,B,2.bmp,120,120,326494,320477,328511,322480,598505.0,592486.0,600522.0,594490.0,27
3,0,0,1,0,16,test,1,1,m,Fri Feb 28 2025 16:21:32 GMT-0600 (Central Standard Time),612527.6000000238,O,m,1029,28,1,3.bmp,-120,-120,4.bmp,120,-120,5.bmp,-120,120,6.bmp,120,120,9068.0,603459.6000000238,7072,yes,SM,B,3.bmp,-120,120,326494,320477,328511,322480,607402.0,601383.0,609419.0,603388.0,28
2,0,1,0,0,16,test,1,0,z,Fri Feb 28 2025 16:21:32 GMT-0600 (Central Standard Time),622591.1000000238,O,None,2014,29,1,7.bmp,-120,-120,8.bmp,120,-120,9.bmp,-120,120,10.bmp,120,120,10049.600000023842,612541.5,7072,yes,SM,B,8.bmp,120,-120,326494,320477,328511,322480,616482.0,610465.0,618500.0,612468.0,29
3,0,0,1,0,17,test,1,1,z,Fri Feb 28 2025 16:21:32 GMT-0600 (Central Standard Time),631738.0,O,z,1093,30,1,11.bmp,-120,-120,12.bmp,120,-120,13.bmp,-120,120,14.bmp,120,120,9132.5,622605.5,7072,yes,SM,B,13.bmp,-120,120,326494,320477,328511,322480,626546.0,620529.0,628563.0,622531.0,30
1,1,0,0,0,18,test,1,1,z,Fri Feb 28 2025 16:21:32 GMT-0600 (Central Standard Time),641751.5,O,z,1954,31,1,15.bmp,-120,-120,16.bmp,120,-120,17.bmp,-120,120,18.bmp,120,120,10000.799999982119,631750.7000000179,7072,yes,SM,B,15.bmp,-120,-120,326494,320477,328511,322480,635693.0,629674.0,637710.0,631678.0,31
2,0,1,0,0,18,test,1,0,m,Fri Feb 28 2025 16:21:32 GMT-0600 (Central Standard Time),651382.7000000179,O,z,1582,32,1,19.bmp,-120,-120,20.bmp,120,-120,21.bmp,-120,120,22.bmp,120,120,9616.90000000596,641765.8000000119,7072,yes,SM,B,19.bmp,120,-120,326494,320477,328511,322480,645706.0,639689.0,647723.0,641692.0,32
4,0,0,0,1,19,test,1,1,z,Fri Feb 28 2025 16:21:32 GMT-0600 (Central Standard Time),660446.2000000179,O,z,1015,33,1,31.bmp,-120,-120,32.bmp,120,-120,33.bmp,-120,120,34.bmp,120,120,9049.700000017881,651396.5,7072,yes,SM,B,34.bmp,120,120,326494,320477,328511,322480,655336.0,649320.0,657353.0,651322.0,33
2,0,1,0,0,19,test,1,0,z,Fri Feb 28 2025 16:21:32 GMT-0600 (Central Standard Time),669975.6000000238,O,m,1471,34,1,23.bmp,-120,-120,24.bmp,120,-120,25.bmp,-120,120,26.bmp,120,120,9517.0,660458.6000000238,7072,yes,SM,B,24.bmp,120,-120,326494,320477,328511,322480,664400.0,658382.0,666417.0,660384.0,34
4,0,0,0,1,20,test,1,1,m,Fri Feb 28 2025 16:21:32 GMT-0600 (Central Standard Time),679289.1000000238,O,m,1252,35,1,27.bmp,-120,-120,28.bmp,120,-120,29.bmp,-120,120,30.bmp,120,120,9300.90000000596,669988.2000000179,7072,yes,SM,B,29.bmp,120,120,326494,320477,328511,322480,673930.0,667912.0,675948.0,669916.0,35
3,0,0,1,0,20,test,1,0,m,Fri Feb 28 2025 16:21:32 GMT-0600 (Central Standard Time),688919.2000000179,O,z,1571,36,1,35.bmp,-120,-120,36.bmp,120,-120,37.bmp,-120,120,38.bmp,120,120,9615.90000000596,679303.3000000119,7072,yes,SM,B,35.bmp,-120,120,326494,320477,328511,322480,683244.0,677227.0,685261.0,679229.0,36
1,1,0,0,0,20,test,1,0,m,Fri Feb 28 2025 16:21:32 GMT-0600 (Central Standard Time),698099.7000000179,O,z,1125,37,1,39.bmp,-120,-120,40.bmp,120,-120,41.bmp,-120,120,42.bmp,120,120,9168.700000017881,688931.0,7072,yes,SM,B,40.bmp,-120,-120,326494,320477,328511,322480,692874.0,686855.0,694891.0,688860.0,37
2,0,1,0,0,21,test,1,1,m,Fri Feb 28 2025 16:21:32 GMT-0600 (Central Standard Time),707213.3000000119,O,m,1057,38,1,43.bmp,-120,-120,44.bmp,120,-120,45.bmp,-120,120,46.bmp,120,120,9101.09999999404,698112.2000000179,7072,yes,SM,B,45.bmp,120,-120,326494,320477,328511,322480,702053.0,696036.0,704071.0,698040.0,38
4,0,0,0,1,21,test,1,0,z,Fri Feb 28 2025 16:21:32 GMT-0600 (Central Standard Time),716276.900000006,O,m,982,39,1,47.bmp,-120,-120,48.bmp,120,-120,49.bmp,-120,120,50.bmp,120,120,9048.40000000596,707228.5,7072,yes,SM,B,50.bmp,120,120,326494,320477,328511,322480,711185.0,705152.0,713202.0,707170.0,39
3,0,0,1,0,22,test,1,1,m,Fri Feb 28 2025 16:21:32 GMT-0600 (Central Standard Time),725307.400000006,O,m,975,40,1,4.bmp,-120,-120,5.bmp,120,-120,6.bmp,-120,120,7.bmp,120,120,9018.299999982119,716289.1000000238,7072,yes,SM,B,5.bmp,-120,120,326494,320477,328511,322480,720232.0,714213.0,722249.0,716218.0,40
1,1,0,0,0,23,test,1,1,z,Fri Feb 28 2025 16:21:32 GMT-0600 (Central Standard Time),734470.7000000179,O,z,1113,41,1,8.bmp,-120,-120,9.bmp,120,-120,10.bmp,-120,120,11.bmp,120,120,9151.40000000596,725319.3000000119,7072,yes,SM,B,8.bmp,-120,-120,326494,320477,328511,322480,729262.0,723243.0,731279.0,725248.0,41
4,0,0,0,1,24,test,1,1,z,Fri Feb 28 2025 16:21:32 GMT-0600 (Central Standard Time),743502.0,O,z,981,42,1,12.bmp,-120,-120,13.bmp,120,-120,14.bmp,-120,120,15.bmp,120,120,9018.399999976158,734483.6000000238,7072,yes,SM,B,15.bmp,120,120,326494,320477,328511,322480,738426.0,732407.0,740443.0,734411.0,42
1,1,0,0,0,25,test,1,1,z,Fri Feb 28 2025 16:21:32 GMT-0600 (Central Standard Time),753114.7000000179,O,z,1542,43,1,16.bmp,-120,-120,17.bmp,120,-120,18.bmp,-120,120,19.bmp,120,120,9598.700000017881,743516.0,7072,yes,SM,B,16.bmp,-120,-120,326494,320477,328511,322480,747473.0,741440.0,749490.0,743458.0,43
4,0,0,0,1,26,test,1,1,m,Fri Feb 28 2025 16:21:32 GMT-0600 (Central Standard Time),762861.900000006,O,m,1689,44,1,4.bmp,-120,-120,1.bmp,120,-120,2.bmp,-120,120,3.bmp,120,120,9734.09999999404,753127.8000000119,7072,yes,SM,B,4.bmp,120,120,326494,320477,328511,322480,757070.0,751051.0,759087.0,753055.0,44
1,1,0,0,0,26,test,1,0,m,Fri Feb 28 2025 16:21:32 GMT-0600 (Central Standard Time),772557.7000000179,O,z,1636,45,1,28.bmp,-120,-120,29.bmp,120,-120,30.bmp,-120,120,31.bmp,120,120,9683.800000011921,762873.900000006,7072,yes,SM,B,31.bmp,-120,-120,326494,320477,328511,322480,766817.0,760798.0,768834.0,762802.0,45
1,1,0,0,0,27,test,1,1,m,Fri Feb 28 2025 16:21:32 GMT-0600 (Central Standard Time),782138.8000000119,O,m,1525,46,1,20.bmp,-120,-120,21.bmp,120,-120,22.bmp,-120,120,23.bmp,120,120,9577.199999988079,772561.6000000238,7072,yes,SM,B,21.bmp,-120,-120,326494,320477,328511,322480,776513.0,770485.0,778531.0,772499.0,46
3,0,0,1,0,28,test,1,1,z,Fri Feb 28 2025 16:21:32 GMT-0600 (Central Standard Time),791802.3000000119,O,z,1602,47,1,24.bmp,-120,-120,25.bmp,120,-120,26.bmp,-120,120,27.bmp,120,120,9651.699999988079,782150.6000000238,7072,yes,SM,B,26.bmp,-120,120,326494,320477,328511,322480,786093.0,780074.0,788111.0,782079.0,47
3,0,0,1,0,29,test,1,1,z,Fri Feb 28 2025 16:21:32 GMT-0600 (Central Standard Time),801566.1000000238,O,z,1714,48,1,40.bmp,-120,-120,41.bmp,120,-120,42.bmp,-120,120,43.bmp,120,120,9750.5,791815.6000000238,7072,yes,SM,B,42.bmp,-120,120,326494,320477,328511,322480,795757.0,789739.0,797774.0,791743.0,48
2,0,1,0,0,30,test,1,1,z,Fri Feb 28 2025 16:21:32 GMT-0600 (Central Standard Time),810746.1000000238,O,z,1133,49,1,36.bmp,-120,-120,37.bmp,120,-120,38.bmp,-120,120,39.bmp,120,120,9166.600000023842,801579.5,7072,yes,SM,B,37.bmp,120,-120,326494,320477,328511,322480,805521.0,799504.0,807524.0,801506.0,49
3,0,0,1,0,30,test,1,0,m,Fri Feb 28 2025 16:21:32 GMT-0600 (Central Standard Time),820476.3000000119,O,z,1674,50,1,32.bmp,-120,-120,33.bmp,120,-120,34.bmp,-120,120,35.bmp,120,120,9718.09999999404,810758.2000000179,7072,yes,SM,B,32.bmp,-120,120,326494,320477,328511,322480,814701.0,808682.0,816718.0,810687.0,50
2,0,1,0,0,31,test,1,1,z,Fri Feb 28 2025 16:21:32 GMT-0600 (Central Standard Time),829756.6000000238,O,z,1225,51,1,44.bmp,-120,-120,45.bmp,120,-120,46.bmp,-120,120,47.bmp,120,120,9268.40000000596,820488.2000000179,7072,yes,SM,B,45.bmp,120,-120,326494,320477,328511,322480,824431.0,818412.0,826448.0,820417.0,51
4,0,0,0,1,32,test,1,1,m,Fri Feb 28 2025 16:21:32 GMT-0600 (Central Standard Time),839036.7000000179,O,m,1224,52,1,48.bmp,-120,-120,49.bmp,120,-120,50.bmp,-120,120,31.bmp,120,120,9267.59999999404,829769.1000000238,7072,yes,SM,B,48.bmp,120,120,326494,320477,328511,322480,833711.0,827693.0,835728.0,829697.0,52
3,0,0,1,0,32,test,1,0,z,Fri Feb 28 2025 16:21:32 GMT-0600 (Central Standard Time),848800.400000006,O,m,1703,53,1,1.bmp,-120,-120,2.bmp,120,-120,3.bmp,-120,120,4.bmp,120,120,9752.09999999404,839048.3000000119,7072,yes,SM,B,3.bmp,-120,120,326494,320477,328511,322480,842992.0,836972.0,845009.0,838977.0,53
1,1,0,0,0,33,test,1,1,m,Fri Feb 28 2025 16:21:32 GMT-0600 (Central Standard Time),858163.900000006,O,m,1300,54,1,5.bmp,-120,-120,6.bmp,120,-120,7.bmp,-120,120,8.bmp,120,120,9351.5,848812.400000006,7072,yes,SM,B,7.bmp,-120,-120,326494,320477,328511,322480,852755.0,846736.0,854772.0,848741.0,54
4,0,0,0,1,34,test,1,1,z,Fri Feb 28 2025 16:21:32 GMT-0600 (Central Standard Time),867394.2000000179,O,z,1177,55,1,9.bmp,-120,-120,10.bmp,120,-120,11.bmp,-120,120,12.bmp,120,120,9218.200000017881,858176.0,7072,yes,SM,B,12.bmp,120,120,326494,320477,328511,322480,862119.0,856100.0,864136.0,858104.0,55
2,0,1,0,0,35,test,1,1,m,Fri Feb 28 2025 16:21:32 GMT-0600 (Central Standard Time),876408.1000000238,O,m,954,56,1,13.bmp,-120,-120,14.bmp,120,-120,15.bmp,-120,120,16.bmp,120,120,9001.200000017881,867406.900000006,7072,yes,SM,B,13.bmp,120,-120,326494,320477,328511,322480,871349.0,865331.0,873366.0,867334.0,56
4,0,0,0,1,35,test,1,0,m,Fri Feb 28 2025 16:21:32 GMT-0600 (Central Standard Time),886470.8000000119,O,None,2014,57,1,17.bmp,-120,-120,18.bmp,120,-120,19.bmp,-120,120,20.bmp,120,120,10051.0,876419.8000000119,7072,yes,SM,B,18.bmp,120,120,326494,320477,328511,322480,880363.0,874344.0,882380.0,876348.0,57
3,0,0,1,0,36,test,1,1,z,Fri Feb 28 2025 16:21:32 GMT-0600 (Central Standard Time),895718.6000000238,O,z,1198,58,1,21.bmp,-120,-120,22.bmp,120,-120,23.bmp,-120,120,24.bmp,120,120,9240.800000011921,886477.8000000119,7072,yes,SM,B,23.bmp,-120,120,326494,320477,328511,322480,890426.0,884401.0,892443.0,886412.0,58
2,0,1,0,0,37,test,1,1,m,Fri Feb 28 2025 16:21:32 GMT-0600 (Central Standard Time),905181.8000000119,O,m,1401,59,1,25.bmp,-120,-120,26.bmp,120,-120,27.bmp,-120,120,28.bmp,120,120,9449.800000011921,895732.0,7072,yes,SM,B,28.bmp,120,-120,326494,320477,328511,322480,899673.0,893656.0,901688.0,895658.0,59
1,1,0,0,0,38,test,1,1,z,Fri Feb 28 2025 16:21:32 GMT-0600 (Central Standard Time),914795.3000000119,O,z,1559,60,1,29.bmp,-120,-120,30.bmp,120,-120,31.bmp,-120,120,32.bmp,120,120,9601.90000000596,905193.400000006,7072,yes,SM,B,29.bmp,-120,-120,326494,320477,328511,322480,909137.0,903117.0,911154.0,905122.0,60
2,0,1,0,0,38,test,1,0,z,Fri Feb 28 2025 16:21:32 GMT-0600 (Central Standard Time),923892.400000006,O,m,1042,61,1,33.bmp,-120,-120,34.bmp,120,-120,35.bmp,-120,120,36.bmp,120,120,9085.0,914807.400000006,7072,yes,SM,B,34.bmp,120,-120,326494,320477,328511,322480,918750.0,912731.0,920767.0,914736.0,61
4,0,0,0,1,39,test,1,1,z,Fri Feb 28 2025 16:21:32 GMT-0600 (Central Standard Time),933139.2000000179,O,z,1184,62,1,41.bmp,-120,-120,42.bmp,120,-120,43.bmp,-120,120,44.bmp,120,120,9232.90000000596,923906.3000000119,7072,yes,SM,B,44.bmp,120,120,326494,320477,328511,322480,927847.0,921830.0,929864.0,923833.0,62
1,1,0,0,0,40,test,1,1,m,Fri Feb 28 2025 16:21:32 GMT-0600 (Central Standard Time),942736.1000000238,O,m,1537,63,1,45.bmp,-120,-120,46.bmp,120,-120,47.bmp,-120,120,48.bmp,120,120,9584.700000017881,933151.400000006,7072,yes,SM,B,45.bmp,-120,120,326494,320477,328511,322480,937094.0,931075.0,939111.0,933079.0,63
2,0,1,0,0,41,test,1,1,z,Fri Feb 28 2025 16:21:32 GMT-0600 (Central Standard Time),951733.400000006,O,z,941,64,1,49.bmp,-120,-120,50.bmp,120,-120,12.bmp,-120,120,1.bmp,120,120,8985.40000000596,942748.0,7072,yes,SM,B,50.bmp,120,-120,326494,320477,328511,322480,946692.0,940672.0,948708.0,942676.0,64
4,0,0,0,1,41,test,1,0,m,Fri Feb 28 2025 16:21:32 GMT-0600 (Central Standard Time),961213.5,O,z,1414,65,1,2.bmp,-120,-120,3.bmp,120,-120,4.bmp,-120,120,5.bmp,120,120,9467.5,951746.0,7072,yes,SM,B,4.bmp,120,120,326494,320477,328511,322480,955688.0,949670.0,957705.0,951674.0,65
3,0,0,1,0,42,test,1,1,m,Fri Feb 28 2025 16:21:32 GMT-0600 (Central Standard Time),970443.8000000119,O,m,1176,66,1,6.bmp,-120,-120,7.bmp,120,-120,8.bmp,-120,120,9.bmp,120,120,9217.09999999404,961226.7000000179,7072,yes,SM,B,9.bmp,-120,120,326494,320477,328511,322480,965168.0,959150.0,967185.0,961154.0,66
2,0,1,0,0,42,test,1,0,m,Fri Feb 28 2025 16:21:32 GMT-0600 (Central Standard Time),979974.0,O,z,1456,67,1,37.bmp,-120,-120,38.bmp,120,-120,39.bmp,-120,120,40.bmp,120,120,9514.799999982119,970459.2000000179,7072,yes,SM,B,39.bmp,120,-120,326494,320477,328511,322480,974415.0,968383.0,976432.0,970401.0,67
3,0,0,1,0,43,test,1,1,z,Fri Feb 28 2025 16:21:32 GMT-0600 (Central Standard Time),989254.8000000119,O,z,1230,68,1,10.bmp,-120,-120,11.bmp,120,-120,12.bmp,-120,120,13.bmp,120,120,9267.5,979987.3000000119,7072,yes,SM,B,12.bmp,-120,120,326494,320477,328511,322480,983929.0,977911.0,985947.0,979914.0,68
1,1,0,0,0,43,test,1,0,m,Fri Feb 28 2025 16:21:32 GMT-0600 (Central Standard Time),999317.8000000119,O,None,2015,69,1,14.bmp,-120,-120,15.bmp,120,-120,16.bmp,-120,120,17.bmp,120,120,10050.800000011921,989267.0,7072,yes,SM,B,15.bmp,-120,-120,326494,320477,328511,322480,993209.0,987191.0,995226.0,989195.0,69
2,0,1,0,0,43,test,1,0,m,Fri Feb 28 2025 16:21:32 GMT-0600 (Central Standard Time),1008997.8000000119,O,z,1615,70,1,18.bmp,-120,-120,19.bmp,120,-120,20.bmp,-120,120,21.bmp,120,120,9667.800000011921,999330.0,7072,yes,SM,B,20.bmp,120,-120,326494,320477,328511,322480,1003272.0,997254.0,1005290.0,999258.0,70
4,0,0,0,1,43,test,1,0,z,Fri Feb 28 2025 16:21:32 GMT-0600 (Central Standard Time),1019011.1000000238,O,m,1959,71,1,22.bmp,-120,-120,23.bmp,120,-120,24.bmp,-120,120,25.bmp,120,120,10001.40000000596,1009009.7000000179,7072,yes,SM,B,25.bmp,120,120,326494,320477,328511,322480,1012952.0,1006933.0,1014970.0,1008938.0,71
1,1,0,0,0,44,test,1,1,z,Fri Feb 28 2025 16:21:32 GMT-0600 (Central Standard Time),1028142.3000000119,O,z,1082,72,1,26.bmp,-120,-120,27.bmp,120,-120,28.bmp,-120,120,29.bmp,120,120,9119.199999988079,1019023.1000000238,7072,yes,SM,B,26.bmp,-120,-120,326494,320477,328511,322480,1022966.0,1016947.0,1024983.0,1018951.0,72
2,0,1,0,0,45,test,1,1,z,Fri Feb 28 2025 16:21:32 GMT-0600 (Central Standard Time),1037405.3000000119,O,z,1200,73,1,30.bmp,-120,-120,31.bmp,120,-120,32.bmp,-120,120,33.bmp,120,120,9251.5,1028153.8000000119,7072,yes,SM,B,31.bmp,120,-120,326494,320477,328511,322480,1032096.0,1026077.0,1034113.0,1028082.0,73
4,0,0,0,1,45,test,1,0,m,Fri Feb 28 2025 16:21:32 GMT-0600 (Central Standard Time),1047468.900000006,O,None,2015,74,1,34.bmp,-120,-120,35.bmp,120,-120,36.bmp,-120,120,37.bmp,120,120,10051.0,1037417.900000006,7072,yes,SM,B,36.bmp,120,120,326494,320477,328511,322480,1041360.0,1035342.0,1043377.0,1037345.0,74
2,0,1,0,0,46,test,1,1,m,Fri Feb 28 2025 16:21:32 GMT-0600 (Central Standard Time),1057148.2000000179,O,m,1624,75,1,38.bmp,-120,-120,39.bmp,120,-120,40.bmp,-120,120,41.bmp,120,120,9667.200000017881,1047481.0,7072,yes,SM,B,41.bmp,120,-120,326494,320477,328511,322480,1051423.0,1045405.0,1053440.0,1047409.0,75
1,1,0,0,0,47,test,1,1,z,Fri Feb 28 2025 16:21:32 GMT-0600 (Central Standard Time),1066528.900000006,O,z,1328,76,1,42.bmp,-120,-120,43.bmp,120,-120,44.bmp,-120,120,45.bmp,120,120,9374.09999999404,1057154.800000012,7072,yes,SM,B,42.bmp,-120,-120,326494,320477,328511,322480,1061104.0,1055078.0,1063121.0,1057089.0,76
3,0,0,1,0,48,test,1,1,z,Fri Feb 28 2025 16:21:32 GMT-0600 (Central Standard Time),1075875.800000012,O,z,1294,77,1,50.bmp,-120,-120,11.bmp,120,-120,1.bmp,-120,120,2.bmp,120,120,9335.300000011921,1066540.5,7072,yes,SM,B,1.bmp,-120,120,326494,320477,328511,322480,1070484.0,1064464.0,1072499.0,1066469.0,77
1,1,0,0,0,48,test,1,0,m,Fri Feb 28 2025 16:21:32 GMT-0600 (Central Standard Time),1085939.300000012,O,None,2016,78,1,46.bmp,-120,-120,47.bmp,120,-120,48.bmp,-120,120,49.bmp,120,120,10051.40000000596,1075887.900000006,7072,yes,SM,B,47.bmp,-120,-120,326494,320477,328511,322480,1079831.0,1073811.0,1081846.0,1075816.0,78
4,0,0,0,1,49,test,1,1,m,Fri Feb 28 2025 16:21:32 GMT-0600 (Central Standard Time),1095235.5,O,m,1243,79,1,7.bmp,-120,-120,8.bmp,120,-120,9.bmp,-120,120,10.bmp,120,120,9284.899999976158,1085950.6000000238,7072,yes,SM,B,7.bmp,120,120,326494,320477,328511,322480,1089894.0,1083874.0,1091909.0,1085880.0,79
3,0,0,1,0,50,test,1,1,m,Fri Feb 28 2025 16:21:32 GMT-0600 (Central Standard Time),1104366.7000000179,O,m,1081,80,1,3.bmp,-120,-120,4.bmp,120,-120,5.bmp,-120,120,6.bmp,120,120,9127.90000000596,1095238.800000012,7072,yes,SM,B,6.bmp,-120,120,326494,320477,328511,322480,1099191.0,1093162.0,1101208.0,1095177.0,80
