acc_sum,block,block_c,change,condition,correct,correct_response,datetime,endtime,face,project,response,response_time,row_sel,session_number,start_end,starttime,subject_id,task,task_vers,trial
0,prac,1,,1-Back,,,Thu Apr 10 2025 10:50:43 GMT-0500 (Central Daylight Time),,012_o_f_d_a.png,O,space,14519,1,1,,,7090,VNB,C,0
1,prac,1,0.0,1-Back,1,m,Thu Apr 10 2025 10:50:43 GMT-0500 (Central Daylight Time),160760.69999992847,022_y_f_n_a.png,O,m,1157,2,1,2087.7999999523163,158672.89999997616,7090,VNB,C,1
2,prac,1,0.0,1-Back,1,m,Thu Apr 10 2025 10:50:43 GMT-0500 (Central Daylight Time),163392.5,014_m_m_h_a.png,O,m,1667,3,1,2592.2000000476837,160800.29999995232,7090,VNB,C,2
2,prac,1,0.0,1-Back,0,m,Thu Apr 10 2025 10:50:43 GMT-0500 (Central Daylight Time),165108.39999997616,025_y_m_d_a.png,O,z,768,4,1,1672.0,163436.39999997616,7090,VNB,C,3
2,prac,1,0.0,1-Back,0,m,Thu Apr 10 2025 10:50:43 GMT-0500 (Central Daylight Time),168090.39999997616,012_o_f_n_a.png,O,None,2003,5,1,2942.600000023842,165147.79999995232,7090,VNB,C,4
2,prac,1,1.0,1-Back,0,z,Thu Apr 10 2025 10:50:43 GMT-0500 (Central Daylight Time),170090.0,025_y_m_n_a.png,O,m,1054,6,1,1967.6000000238419,168122.39999997616,7090,VNB,C,5
3,prac,1,0.0,1-Back,1,m,Thu Apr 10 2025 10:50:43 GMT-0500 (Central Daylight Time),172839.29999995232,015_o_m_h_a.png,O,m,1765,7,1,2708.0,170131.29999995232,7090,VNB,C,6
3,prac,1,0.0,1-Back,0,m,Thu Apr 10 2025 10:50:43 GMT-0500 (Central Daylight Time),174955.09999990463,019_m_f_d_a.png,O,z,1145,8,1,2084.6999999284744,172870.39999997616,7090,VNB,C,7
3,prac,1,1.0,1-Back,0,z,Thu Apr 10 2025 10:50:43 GMT-0500 (Central Daylight Time),177837.59999990463,022_y_f_d_a.png,O,m,1907,9,1,2846.899999976158,174990.69999992847,7090,VNB,C,8
4,prac,1,0.0,1-Back,1,m,Thu Apr 10 2025 10:50:43 GMT-0500 (Central Daylight Time),180603.19999992847,014_m_m_n_a.png,O,m,1808,10,1,2723.899999976158,177879.29999995232,7090,VNB,C,9
4,prac,1,0.0,1-Back,0,m,Thu Apr 10 2025 10:50:43 GMT-0500 (Central Daylight Time),182702.5,012_o_f_h_a.png,O,z,1123,11,1,2069.4000000953674,180633.09999990463,7090,VNB,C,10
5,prac,1,0.0,1-Back,1,m,Thu Apr 10 2025 10:50:43 GMT-0500 (Central Daylight Time),185468.39999997616,025_y_m_d_a.png,O,m,1829,12,1,2732.399999976158,182736.0,7090,VNB,C,11
0,prac,2,0.0,1-Back,,,Thu Apr 10 2025 10:50:43 GMT-0500 (Central Daylight Time),185468.39999997616,012_o_f_d_a.png,O,a,4959,1,1,2732.399999976158,182736.0,7090,VNB,C,0
1,prac,2,0.0,1-Back,1,m,Thu Apr 10 2025 10:50:43 GMT-0500 (Central Daylight Time),195764.79999995232,022_y_f_n_a.png,O,m,1304,2,1,2229.2000000476837,193535.59999990463,7090,VNB,C,1
1,prac,2,0.0,1-Back,0,m,Thu Apr 10 2025 10:50:43 GMT-0500 (Central Daylight Time),198713.89999997616,014_m_m_h_a.png,O,None,2007,3,1,2906.5,195807.39999997616,7090,VNB,C,2
2,prac,2,0.0,1-Back,1,m,Thu Apr 10 2025 10:50:43 GMT-0500 (Central Daylight Time),201246.59999990463,025_y_m_d_a.png,O,m,1599,4,1,2497.5,198749.09999990463,7090,VNB,C,3
2,prac,2,0.0,1-Back,0,m,Thu Apr 10 2025 10:50:43 GMT-0500 (Central Daylight Time),203512.29999995232,012_o_f_n_a.png,O,z,1308,5,1,2235.600000023842,201276.69999992847,7090,VNB,C,4
2,prac,2,1.0,1-Back,0,z,Thu Apr 10 2025 10:50:43 GMT-0500 (Central Daylight Time),206461.39999997616,025_y_m_n_a.png,O,None,2015,6,1,2907.899999976158,203553.5,7090,VNB,C,5
2,prac,2,0.0,1-Back,0,m,Thu Apr 10 2025 10:50:43 GMT-0500 (Central Daylight Time),209443.69999992847,015_o_m_h_a.png,O,None,2007,7,1,2952.2999999523163,206491.39999997616,7090,VNB,C,6
2,prac,2,0.0,1-Back,0,m,Thu Apr 10 2025 10:50:43 GMT-0500 (Central Daylight Time),211642.19999992847,019_m_f_d_a.png,O,z,1198,8,1,2155.100000023842,209487.09999990463,7090,VNB,C,7
2,prac,2,1.0,1-Back,0,z,Thu Apr 10 2025 10:50:43 GMT-0500 (Central Daylight Time),214591.09999990463,022_y_f_d_a.png,O,None,2016,9,1,2937.399999976158,211653.69999992847,7090,VNB,C,8
3,prac,2,0.0,1-Back,1,m,Thu Apr 10 2025 10:50:43 GMT-0500 (Central Daylight Time),217174.0,014_m_m_n_a.png,O,m,1661,10,1,2571.2000000476837,214602.79999995232,7090,VNB,C,9
3,prac,2,0.0,1-Back,0,m,Thu Apr 10 2025 10:50:43 GMT-0500 (Central Daylight Time),219157.09999990463,012_o_f_h_a.png,O,z,1038,11,1,1975.1999999284744,217181.89999997616,7090,VNB,C,10
4,prac,2,0.0,1-Back,1,m,Thu Apr 10 2025 10:50:43 GMT-0500 (Central Daylight Time),221206.69999992847,025_y_m_d_a.png,O,m,1120,12,1,2019.2999999523163,219187.39999997616,7090,VNB,C,11
0,prac,3,0.0,1-Back,,,Thu Apr 10 2025 10:50:43 GMT-0500 (Central Daylight Time),221206.69999992847,012_o_f_d_a.png,O,a,1697,1,1,2019.2999999523163,219187.39999997616,7090,VNB,C,0
0,prac,3,0.0,1-Back,0,m,Thu Apr 10 2025 10:50:43 GMT-0500 (Central Daylight Time),228587.5,022_y_f_n_a.png,O,z,1633,2,1,2563.9000000953674,226023.59999990463,7090,VNB,C,1
1,prac,3,0.0,1-Back,1,m,Thu Apr 10 2025 10:50:43 GMT-0500 (Central Daylight Time),231186.69999992847,014_m_m_h_a.png,O,m,1650,3,1,2558.6999999284744,228628.0,7090,VNB,C,2
1,prac,3,0.0,1-Back,0,m,Thu Apr 10 2025 10:50:43 GMT-0500 (Central Daylight Time),234052.19999992847,025_y_m_d_a.png,O,z,1938,4,1,2832.2999999523163,231219.89999997616,7090,VNB,C,3
1,prac,3,0.0,1-Back,0,m,Thu Apr 10 2025 10:50:43 GMT-0500 (Central Daylight Time),236568.19999992847,012_o_f_n_a.png,O,z,1549,5,1,2479.5,234088.69999992847,7090,VNB,C,4
2,prac,3,1.0,1-Back,1,z,Thu Apr 10 2025 10:50:43 GMT-0500 (Central Daylight Time),238667.59999990463,025_y_m_n_a.png,O,z,1164,6,1,2059.1999999284744,236608.39999997616,7090,VNB,C,5
3,prac,3,0.0,1-Back,1,m,Thu Apr 10 2025 10:50:43 GMT-0500 (Central Daylight Time),240650.0,015_o_m_h_a.png,O,m,1015,7,1,1942.0,238708.0,7090,VNB,C,6
3,prac,3,0.0,1-Back,0,m,Thu Apr 10 2025 10:50:43 GMT-0500 (Central Daylight Time),242499.59999990463,019_m_f_d_a.png,O,z,884,8,1,1810.8999999761581,240688.69999992847,7090,VNB,C,7
3,prac,3,1.0,1-Back,0,z,Thu Apr 10 2025 10:50:43 GMT-0500 (Central Daylight Time),245198.5,022_y_f_d_a.png,O,m,1736,9,1,2665.100000023842,242533.39999997616,7090,VNB,C,8
3,prac,3,0.0,1-Back,0,m,Thu Apr 10 2025 10:50:43 GMT-0500 (Central Daylight Time),248131.0,014_m_m_n_a.png,O,None,2010,10,1,2904.7000000476837,245226.29999995232,7090,VNB,C,9
4,prac,3,0.0,1-Back,1,m,Thu Apr 10 2025 10:50:43 GMT-0500 (Central Daylight Time),250813.59999990463,012_o_f_h_a.png,O,m,1732,11,1,2650.899999976158,248162.69999992847,7090,VNB,C,10
5,prac,3,0.0,1-Back,1,m,Thu Apr 10 2025 10:50:43 GMT-0500 (Central Daylight Time),253029.59999990463,025_y_m_d_a.png,O,m,1267,12,1,2175.0999999046326,250854.5,7090,VNB,C,11
0,test,1,0.0,1-Back,,,Thu Apr 10 2025 10:50:43 GMT-0500 (Central Daylight Time),253029.59999990463,022_y_f_d_a.png,O,space,13598,1,1,2175.0999999046326,250854.5,7090,VNB,C,0
0,test,1,0.0,1-Back,0,m,Thu Apr 10 2025 10:50:43 GMT-0500 (Central Daylight Time),286968.1999999285,019_m_f_n_a.png,O,z,852,2,1,1876.1999999284744,285092.0,7090,VNB,C,1
1,test,1,0.0,1-Back,1,m,Thu Apr 10 2025 10:50:43 GMT-0500 (Central Daylight Time),289884.1999999285,015_o_m_h_a.png,O,m,1865,3,1,2893.5,286990.6999999285,7090,VNB,C,2
2,test,1,1.0,1-Back,1,z,Thu Apr 10 2025 10:50:43 GMT-0500 (Central Daylight Time),292299.7999999523,014_m_m_h_a.png,O,z,1365,4,1,2385.399999976158,289914.39999997616,7090,VNB,C,3
3,test,1,0.0,1-Back,1,m,Thu Apr 10 2025 10:50:43 GMT-0500 (Central Daylight Time),294632.2999999523,012_o_f_n_a.png,O,m,1278,5,1,2300.100000023842,292332.1999999285,7090,VNB,C,4
3,test,1,0.0,1-Back,0,m,Thu Apr 10 2025 10:50:43 GMT-0500 (Central Daylight Time),297464.89999997616,025_y_m_d_a.png,O,z,1793,6,1,2804.8000000715256,294660.09999990463,7090,VNB,C,5
4,test,1,1.0,1-Back,1,z,Thu Apr 10 2025 10:50:43 GMT-0500 (Central Daylight Time),300080.59999990463,019_m_f_d_a.png,O,z,1560,7,1,2582.5,297498.09999990463,7090,VNB,C,6
5,test,1,0.0,1-Back,1,m,Thu Apr 10 2025 10:50:43 GMT-0500 (Central Daylight Time),302279.6999999285,022_y_f_h_a.png,O,m,1161,8,1,2169.7999999523163,300109.89999997616,7090,VNB,C,7
6,test,1,0.0,1-Back,1,m,Thu Apr 10 2025 10:50:43 GMT-0500 (Central Daylight Time),304812.2999999523,015_o_m_n_a.png,O,m,1473,9,1,2501.5,302310.7999999523,7090,VNB,C,8
7,test,1,0.0,1-Back,1,m,Thu Apr 10 2025 10:50:43 GMT-0500 (Central Daylight Time),307511.39999997616,025_y_m_h_a.png,O,m,1661,10,1,2673.100000023842,304838.2999999523,7090,VNB,C,9
8,test,1,0.0,1-Back,1,m,Thu Apr 10 2025 10:50:43 GMT-0500 (Central Daylight Time),309694.09999990463,015_o_m_d_a.png,O,m,1138,11,1,2159.2999999523163,307534.7999999523,7090,VNB,C,10
9,test,1,1.0,1-Back,1,z,Thu Apr 10 2025 10:50:43 GMT-0500 (Central Daylight Time),312176.59999990463,012_o_f_d_a.png,O,z,1443,12,1,2455.0,309721.59999990463,7090,VNB,C,11
9,test,1,0.0,1-Back,0,m,Thu Apr 10 2025 10:50:43 GMT-0500 (Central Daylight Time),314625.5,014_m_m_n_a.png,O,z,1409,13,1,2419.0,312206.5,7090,VNB,C,12
10,test,1,1.0,1-Back,1,z,Thu Apr 10 2025 10:50:43 GMT-0500 (Central Daylight Time),316891.59999990463,022_y_f_n_a.png,O,z,1224,14,1,2244.6999999284744,314646.89999997616,7090,VNB,C,13
11,test,1,0.0,1-Back,1,m,Thu Apr 10 2025 10:50:43 GMT-0500 (Central Daylight Time),319074.2999999523,019_m_f_h_a.png,O,m,1117,15,1,2147.100000023842,316927.1999999285,7090,VNB,C,14
12,test,1,0.0,1-Back,1,m,Thu Apr 10 2025 10:50:43 GMT-0500 (Central Daylight Time),321940.09999990463,014_m_m_d_a.png,O,m,1798,16,1,2834.1999999284744,319105.89999997616,7090,VNB,C,15
12,test,1,0.0,1-Back,0,m,Thu Apr 10 2025 10:50:43 GMT-0500 (Central Daylight Time),325005.89999997616,025_y_m_n_a.png,O,None,2014,17,1,3033.899999976158,321972.0,7090,VNB,C,16
13,test,1,0.0,1-Back,1,m,Thu Apr 10 2025 10:50:43 GMT-0500 (Central Daylight Time),327521.5,012_o_f_h_a.png,O,m,1468,18,1,2485.2000000476837,325036.2999999523,7090,VNB,C,17
0,test,2,0.0,1-Back,,,Thu Apr 10 2025 10:50:43 GMT-0500 (Central Daylight Time),327521.5,025_y_m_n_a.png,O,space,3760,1,1,2485.2000000476837,325036.2999999523,7090,VNB,C,0
1,test,2,0.0,1-Back,1,m,Thu Apr 10 2025 10:50:43 GMT-0500 (Central Daylight Time),335601.89999997616,022_y_f_h_a.png,O,m,1107,2,1,2132.899999976158,333469.0,7090,VNB,C,1
2,test,2,1.0,1-Back,1,m,Thu Apr 10 2025 10:50:43 GMT-0500 (Central Daylight Time),338051.5,015_o_m_n_a.png,O,m,1399,3,1,2431.100000023842,335620.39999997616,7090,VNB,C,2
3,test,2,0.0,1-Back,1,m,Thu Apr 10 2025 10:50:43 GMT-0500 (Central Daylight Time),340450.7999999523,019_m_f_d_a.png,O,m,1333,4,1,2366.2000000476837,338084.59999990463,7090,VNB,C,3
4,test,2,0.0,1-Back,1,z,Thu Apr 10 2025 10:50:43 GMT-0500 (Central Daylight Time),342866.39999997616,014_m_m_d_a.png,O,z,1352,5,1,2384.8000000715256,340481.59999990463,7090,VNB,C,4
5,test,2,0.0,1-Back,1,m,Thu Apr 10 2025 10:50:43 GMT-0500 (Central Daylight Time),345299.2999999523,025_y_m_h_a.png,O,m,1399,6,1,2418.100000023842,342881.1999999285,7090,VNB,C,5
6,test,2,1.0,1-Back,1,z,Thu Apr 10 2025 10:50:43 GMT-0500 (Central Daylight Time),347431.7999999523,012_o_f_h_a.png,O,z,1086,7,1,2102.600000023842,345329.1999999285,7090,VNB,C,6
7,test,2,0.0,1-Back,1,m,Thu Apr 10 2025 10:50:43 GMT-0500 (Central Daylight Time),349797.39999997616,019_m_f_n_a.png,O,m,1330,8,1,2337.600000023842,347459.7999999523,7090,VNB,C,7
8,test,2,0.0,1-Back,1,m,Thu Apr 10 2025 10:50:43 GMT-0500 (Central Daylight Time),352380.09999990463,022_y_f_d_a.png,O,m,1540,9,1,2558.7999999523163,349821.2999999523,7090,VNB,C,8
9,test,2,0.0,1-Back,1,m,Thu Apr 10 2025 10:50:43 GMT-0500 (Central Daylight Time),354845.89999997616,014_m_m_n_a.png,O,m,1429,10,1,2437.2000000476837,352408.6999999285,7090,VNB,C,9
10,test,2,1.0,1-Back,1,m,Thu Apr 10 2025 10:50:43 GMT-0500 (Central Daylight Time),357295.09999990463,019_m_f_h_a.png,O,m,1403,11,1,2427.5,354867.59999990463,7090,VNB,C,10
11,test,2,0.0,1-Back,1,z,Thu Apr 10 2025 10:50:43 GMT-0500 (Central Daylight Time),359544.1999999285,015_o_m_h_a.png,O,z,1211,12,1,2219.0,357325.1999999285,7090,VNB,C,11
12,test,2,0.0,1-Back,1,m,Thu Apr 10 2025 10:50:43 GMT-0500 (Central Daylight Time),361860.39999997616,025_y_m_d_a.png,O,m,1256,13,1,2286.399999976158,359574.0,7090,VNB,C,12
13,test,2,0.0,1-Back,1,m,Thu Apr 10 2025 10:50:43 GMT-0500 (Central Daylight Time),364376.1999999285,012_o_f_n_a.png,O,m,1468,14,1,2489.100000023842,361887.09999990463,7090,VNB,C,13
14,test,2,0.0,1-Back,1,z,Thu Apr 10 2025 10:50:43 GMT-0500 (Central Daylight Time),366559.0,022_y_f_n_a.png,O,z,1137,15,1,2152.9000000953674,364406.09999990463,7090,VNB,C,14
14,test,2,1.0,1-Back,0,m,Thu Apr 10 2025 10:50:43 GMT-0500 (Central Daylight Time),369274.2999999523,014_m_m_h_a.png,O,z,1676,16,1,2687.100000023842,366587.1999999285,7090,VNB,C,15
15,test,2,0.0,1-Back,1,m,Thu Apr 10 2025 10:50:43 GMT-0500 (Central Daylight Time),371857.09999990463,012_o_f_d_a.png,O,m,1543,17,1,2559.2999999523163,369297.7999999523,7090,VNB,C,16
16,test,2,1.0,1-Back,1,z,Thu Apr 10 2025 10:50:43 GMT-0500 (Central Daylight Time),374189.2999999523,015_o_m_d_a.png,O,z,1297,18,1,2303.399999976158,371885.89999997616,7090,VNB,C,17
0,test,3,1.0,1-Back,,,Thu Apr 10 2025 10:50:43 GMT-0500 (Central Daylight Time),374189.2999999523,012_o_f_h_a.png,O,space,1781,1,1,2303.399999976158,371885.89999997616,7090,VNB,C,0
1,test,3,0.0,1-Back,1,m,Thu Apr 10 2025 10:50:43 GMT-0500 (Central Daylight Time),380154.0,019_m_f_d_a.png,O,m,942,2,1,1954.8000000715256,378199.1999999285,7090,VNB,C,1
2,test,3,1.0,1-Back,1,m,Thu Apr 10 2025 10:50:43 GMT-0500 (Central Daylight Time),382636.59999990463,014_m_m_n_a.png,O,m,1431,3,1,2450.5,380186.09999990463,7090,VNB,C,2
3,test,3,0.0,1-Back,1,z,Thu Apr 10 2025 10:50:43 GMT-0500 (Central Daylight Time),384703.0,012_o_f_n_a.png,O,z,1029,4,1,2043.6000000238419,382659.39999997616,7090,VNB,C,3
4,test,3,1.0,1-Back,1,m,Thu Apr 10 2025 10:50:43 GMT-0500 (Central Daylight Time),387385.0,015_o_m_d_a.png,O,m,1626,5,1,2651.3000000715256,384733.6999999285,7090,VNB,C,4
5,test,3,0.0,1-Back,1,m,Thu Apr 10 2025 10:50:43 GMT-0500 (Central Daylight Time),389634.39999997616,022_y_f_h_a.png,O,m,1200,6,1,2220.5,387413.89999997616,7090,VNB,C,5
6,test,3,0.0,1-Back,1,z,Thu Apr 10 2025 10:50:43 GMT-0500 (Central Daylight Time),391850.5,025_y_m_h_a.png,O,z,1150,7,1,2187.5,389663.0,7090,VNB,C,6
7,test,3,0.0,1-Back,1,m,Thu Apr 10 2025 10:50:43 GMT-0500 (Central Daylight Time),393966.39999997616,019_m_f_n_a.png,O,m,1074,8,1,2086.7000000476837,391879.6999999285,7090,VNB,C,7
8,test,3,0.0,1-Back,1,m,Thu Apr 10 2025 10:50:43 GMT-0500 (Central Daylight Time),396365.59999990463,022_y_f_d_a.png,O,m,1348,9,1,2372.899999976158,393992.6999999285,7090,VNB,C,8
9,test,3,1.0,1-Back,1,m,Thu Apr 10 2025 10:50:43 GMT-0500 (Central Daylight Time),398749.1999999285,015_o_m_n_a.png,O,m,1349,10,1,2364.0,396385.1999999285,7090,VNB,C,9
10,test,3,0.0,1-Back,1,m,Thu Apr 10 2025 10:50:43 GMT-0500 (Central Daylight Time),401663.7999999523,014_m_m_h_a.png,O,m,1877,11,1,2893.600000023842,398770.1999999285,7090,VNB,C,10
11,test,3,0.0,1-Back,1,z,Thu Apr 10 2025 10:50:43 GMT-0500 (Central Daylight Time),403729.6999999285,019_m_f_h_a.png,O,z,1018,12,1,2039.3999999761581,401690.2999999523,7090,VNB,C,11
12,test,3,1.0,1-Back,1,m,Thu Apr 10 2025 10:50:43 GMT-0500 (Central Daylight Time),405962.6999999285,012_o_f_d_a.png,O,m,1184,13,1,2213.7999999523163,403748.89999997616,7090,VNB,C,12
13,test,3,0.0,1-Back,1,z,Thu Apr 10 2025 10:50:43 GMT-0500 (Central Daylight Time),408428.2999999523,014_m_m_d_a.png,O,z,1415,14,1,2442.0,405986.2999999523,7090,VNB,C,13
14,test,3,0.0,1-Back,1,m,Thu Apr 10 2025 10:50:43 GMT-0500 (Central Daylight Time),410727.6999999285,025_y_m_n_a.png,O,m,1261,15,1,2274.6999999284744,408453.0,7090,VNB,C,14
15,test,3,1.0,1-Back,1,m,Thu Apr 10 2025 10:50:43 GMT-0500 (Central Daylight Time),413243.39999997616,015_o_m_h_a.png,O,m,1476,16,1,2486.0,410757.39999997616,7090,VNB,C,15
16,test,3,0.0,1-Back,1,m,Thu Apr 10 2025 10:50:43 GMT-0500 (Central Daylight Time),415476.7999999523,025_y_m_d_a.png,O,m,1198,17,1,2205.100000023842,413271.6999999285,7090,VNB,C,16
17,test,3,1.0,1-Back,1,m,Thu Apr 10 2025 10:50:43 GMT-0500 (Central Daylight Time),417808.59999990463,022_y_f_n_a.png,O,m,1293,18,1,2309.899999976158,415498.6999999285,7090,VNB,C,17
0,test,4,1.0,1-Back,,,Thu Apr 10 2025 10:50:43 GMT-0500 (Central Daylight Time),417808.59999990463,014_m_m_d_a.png,O,space,1514,1,1,2309.899999976158,415498.6999999285,7090,VNB,C,0
1,test,4,0.0,1-Back,1,z,Thu Apr 10 2025 10:50:43 GMT-0500 (Central Daylight Time),423540.39999997616,015_o_m_d_a.png,O,z,982,2,1,2011.1000000238419,421529.2999999523,7090,VNB,C,1
2,test,4,0.0,1-Back,1,m,Thu Apr 10 2025 10:50:43 GMT-0500 (Central Daylight Time),425522.7999999523,025_y_m_h_a.png,O,m,933,3,1,1957.2999999523163,423565.5,7090,VNB,C,2
3,test,4,0.0,1-Back,1,m,Thu Apr 10 2025 10:50:43 GMT-0500 (Central Daylight Time),427805.1999999285,019_m_f_n_a.png,O,m,1239,4,1,2254.5,425550.6999999285,7090,VNB,C,3
4,test,4,1.0,1-Back,1,m,Thu Apr 10 2025 10:50:43 GMT-0500 (Central Daylight Time),430205.39999997616,012_o_f_h_a.png,O,m,1365,5,1,2375.7000000476837,427829.6999999285,7090,VNB,C,4
5,test,4,0.0,1-Back,1,m,Thu Apr 10 2025 10:50:43 GMT-0500 (Central Daylight Time),432437.1999999285,014_m_m_n_a.png,O,m,1189,6,1,2209.399999976158,430227.7999999523,7090,VNB,C,5
5,test,4,0.0,1-Back,0,m,Thu Apr 10 2025 10:50:43 GMT-0500 (Central Daylight Time),435036.1999999285,025_y_m_d_a.png,O,z,1548,7,1,2570.5,432465.6999999285,7090,VNB,C,6
6,test,4,1.0,1-Back,1,z,Thu Apr 10 2025 10:50:43 GMT-0500 (Central Daylight Time),437435.59999990463,022_y_f_d_a.png,O,z,1349,8,1,2373.0999999046326,435062.5,7090,VNB,C,7
7,test,4,0.0,1-Back,1,m,Thu Apr 10 2025 10:50:43 GMT-0500 (Central Daylight Time),439634.7999999523,019_m_f_h_a.png,O,m,1150,9,1,2172.7000000476837,437462.09999990463,7090,VNB,C,8
8,test,4,0.0,1-Back,1,z,Thu Apr 10 2025 10:50:43 GMT-0500 (Central Daylight Time),442200.6999999285,015_o_m_h_a.png,O,z,1518,10,1,2535.100000023842,439665.59999990463,7090,VNB,C,9
9,test,4,1.0,1-Back,1,m,Thu Apr 10 2025 10:50:43 GMT-0500 (Central Daylight Time),444316.59999990463,012_o_f_n_a.png,O,m,1073,11,1,2088.5999999046326,442228.0,7090,VNB,C,10
10,test,4,0.0,1-Back,1,m,Thu Apr 10 2025 10:50:43 GMT-0500 (Central Daylight Time),446715.5,019_m_f_d_a.png,O,m,1357,12,1,2374.2000000476837,444341.2999999523,7090,VNB,C,11
11,test,4,0.0,1-Back,1,m,Thu Apr 10 2025 10:50:43 GMT-0500 (Central Daylight Time),449031.6999999285,022_y_f_n_a.png,O,m,1278,13,1,2292.7999999523163,446738.89999997616,7090,VNB,C,12
11,test,4,0.0,1-Back,0,m,Thu Apr 10 2025 10:50:43 GMT-0500 (Central Daylight Time),452097.6999999285,012_o_f_d_a.png,O,None,2014,14,1,3036.0,449061.6999999285,7090,VNB,C,13
12,test,4,0.0,1-Back,1,m,Thu Apr 10 2025 10:50:43 GMT-0500 (Central Daylight Time),454329.7999999523,022_y_f_h_a.png,O,m,1193,15,1,2203.7000000476837,452126.09999990463,7090,VNB,C,14
13,test,4,1.0,1-Back,1,z,Thu Apr 10 2025 10:50:43 GMT-0500 (Central Daylight Time),456496.0,014_m_m_h_a.png,O,z,1120,16,1,2142.600000023842,454353.39999997616,7090,VNB,C,15
14,test,4,0.0,1-Back,1,m,Thu Apr 10 2025 10:50:43 GMT-0500 (Central Daylight Time),458644.89999997616,015_o_m_n_a.png,O,m,1113,17,1,2119.3000000715256,456525.59999990463,7090,VNB,C,16
15,test,4,1.0,1-Back,1,z,Thu Apr 10 2025 10:50:43 GMT-0500 (Central Daylight Time),460777.1999999285,025_y_m_n_a.png,O,z,1068,18,1,2096.7999999523163,458680.39999997616,7090,VNB,C,17
0,test,5,1.0,1-Back,,,Thu Apr 10 2025 10:50:43 GMT-0500 (Central Daylight Time),460777.1999999285,015_o_m_n_a.png,O,space,1522,1,1,2096.7999999523163,458680.39999997616,7090,VNB,C,0
1,test,5,1.0,1-Back,1,m,Thu Apr 10 2025 10:50:43 GMT-0500 (Central Daylight Time),466559.2999999523,012_o_f_h_a.png,O,m,1191,2,1,2205.2000000476837,464354.09999990463,7090,VNB,C,1
2,test,5,0.0,1-Back,1,m,Thu Apr 10 2025 10:50:43 GMT-0500 (Central Daylight Time),469075.1999999285,025_y_m_d_a.png,O,m,1465,3,1,2487.6999999284744,466587.5,7090,VNB,C,2
3,test,5,0.0,1-Back,1,z,Thu Apr 10 2025 10:50:43 GMT-0500 (Central Daylight Time),471124.6999999285,015_o_m_d_a.png,O,z,1015,4,1,2019.5,469105.1999999285,7090,VNB,C,3
4,test,5,0.0,1-Back,1,m,Thu Apr 10 2025 10:50:43 GMT-0500 (Central Daylight Time),473406.59999990463,019_m_f_h_a.png,O,m,1236,5,1,2255.2999999523163,471151.2999999523,7090,VNB,C,4
5,test,5,0.0,1-Back,1,m,Thu Apr 10 2025 10:50:43 GMT-0500 (Central Daylight Time),475972.89999997616,022_y_f_n_a.png,O,m,1517,6,1,2549.5,473423.39999997616,7090,VNB,C,5
6,test,5,1.0,1-Back,1,z,Thu Apr 10 2025 10:50:43 GMT-0500 (Central Daylight Time),478138.5,012_o_f_n_a.png,O,z,1107,7,1,2126.3000000715256,476012.1999999285,7090,VNB,C,6
7,test,5,0.0,1-Back,1,m,Thu Apr 10 2025 10:50:43 GMT-0500 (Central Daylight Time),480255.09999990463,019_m_f_d_a.png,O,m,1079,8,1,2099.0,478156.09999990463,7090,VNB,C,7
8,test,5,0.0,1-Back,1,m,Thu Apr 10 2025 10:50:43 GMT-0500 (Central Daylight Time),482537.39999997616,025_y_m_h_a.png,O,m,1226,9,1,2240.8000000715256,480296.59999990463,7090,VNB,C,8
8,test,5,0.0,1-Back,0,m,Thu Apr 10 2025 10:50:43 GMT-0500 (Central Daylight Time),485602.89999997616,022_y_f_d_a.png,O,None,2014,10,1,3028.600000023842,482574.2999999523,7090,VNB,C,9
9,test,5,0.0,1-Back,1,m,Thu Apr 10 2025 10:50:43 GMT-0500 (Central Daylight Time),487968.89999997616,014_m_m_n_a.png,O,m,1318,11,1,2348.399999976158,485620.5,7090,VNB,C,10
10,test,5,1.0,1-Back,1,z,Thu Apr 10 2025 10:50:43 GMT-0500 (Central Daylight Time),490034.7999999523,019_m_f_n_a.png,O,z,1017,12,1,2035.7000000476837,487999.09999990463,7090,VNB,C,11
11,test,5,0.0,1-Back,1,m,Thu Apr 10 2025 10:50:43 GMT-0500 (Central Daylight Time),492317.39999997616,015_o_m_h_a.png,O,m,1239,13,1,2251.899999976158,490065.5,7090,VNB,C,12
12,test,5,0.0,1-Back,1,z,Thu Apr 10 2025 10:50:43 GMT-0500 (Central Daylight Time),494950.09999990463,014_m_m_h_a.png,O,z,1588,14,1,2607.2999999523163,492342.7999999523,7090,VNB,C,13
13,test,5,1.0,1-Back,1,m,Thu Apr 10 2025 10:50:43 GMT-0500 (Central Daylight Time),497249.2999999523,012_o_f_d_a.png,O,m,1251,15,1,2274.2999999523163,494975.0,7090,VNB,C,14
14,test,5,0.0,1-Back,1,m,Thu Apr 10 2025 10:50:43 GMT-0500 (Central Daylight Time),499548.6999999285,025_y_m_n_a.png,O,m,1248,16,1,2272.100000023842,497276.59999990463,7090,VNB,C,15
15,test,5,0.0,1-Back,1,m,Thu Apr 10 2025 10:50:43 GMT-0500 (Central Daylight Time),501714.2999999523,022_y_f_h_a.png,O,m,1125,17,1,2137.0,499577.2999999523,7090,VNB,C,16
16,test,5,0.0,1-Back,1,m,Thu Apr 10 2025 10:50:43 GMT-0500 (Central Daylight Time),504030.2999999523,014_m_m_d_a.png,O,m,1255,18,1,2283.399999976158,501746.89999997616,7090,VNB,C,17
0,prac,1,0.0,2-Back,,,Thu Apr 10 2025 10:50:43 GMT-0500 (Central Daylight Time),504030.2999999523,019_m_f_n_a.png,O,space,13009,1,1,2283.399999976158,501746.89999997616,7090,VNB,C,0
0,prac,1,0.0,2-Back,,,Thu Apr 10 2025 10:50:43 GMT-0500 (Central Daylight Time),504030.2999999523,012_o_f_h_a.png,O,space,13009,2,1,2283.399999976158,501746.89999997616,7090,VNB,C,0
1,prac,1,0.0,2-Back,1,m,Thu Apr 10 2025 10:50:43 GMT-0500 (Central Daylight Time),618229.3999999762,015_o_m_d_a.png,O,m,1549,3,1,2495.5,615733.8999999762,7090,VNB,C,1
1,prac,1,1.0,2-Back,0,z,Thu Apr 10 2025 10:50:43 GMT-0500 (Central Daylight Time),620758.5,014_m_m_h_a.png,O,m,1550,4,1,2489.600000023842,618268.8999999762,7090,VNB,C,2
1,prac,1,0.0,2-Back,0,m,Thu Apr 10 2025 10:50:43 GMT-0500 (Central Daylight Time),623124.8999999762,022_y_f_n_a.png,O,z,1388,5,1,2342.8000000715256,620782.0999999046,7090,VNB,C,3
2,prac,1,1.0,2-Back,1,z,Thu Apr 10 2025 10:50:43 GMT-0500 (Central Daylight Time),626023.6999999285,015_o_m_h_a.png,O,z,1917,6,1,2872.600000023842,623151.0999999046,7090,VNB,C,4
3,prac,1,1.0,2-Back,1,z,Thu Apr 10 2025 10:50:43 GMT-0500 (Central Daylight Time),628472.7999999523,025_y_m_n_a.png,O,z,1505,7,1,2414.0,626058.7999999523,7090,VNB,C,5
4,prac,1,0.0,2-Back,1,m,Thu Apr 10 2025 10:50:43 GMT-0500 (Central Daylight Time),630722.2999999523,019_m_f_d_a.png,O,m,1267,8,1,2224.7000000476837,628497.5999999046,7090,VNB,C,6
4,prac,1,0.0,2-Back,0,m,Thu Apr 10 2025 10:50:43 GMT-0500 (Central Daylight Time),633721.2999999523,012_o_f_d_a.png,O,None,2011,9,1,2957.0,630764.2999999523,7090,VNB,C,7
5,prac,1,0.0,2-Back,1,m,Thu Apr 10 2025 10:50:43 GMT-0500 (Central Daylight Time),636453.6999999285,014_m_m_h_a.png,O,m,1776,10,1,2689.399999976158,633764.2999999523,7090,VNB,C,8
6,prac,1,1.0,2-Back,1,z,Thu Apr 10 2025 10:50:43 GMT-0500 (Central Daylight Time),638719.5,022_y_f_d_a.png,O,z,1282,11,1,2223.2000000476837,636496.2999999523,7090,VNB,C,9
7,prac,1,0.0,2-Back,1,m,Thu Apr 10 2025 10:50:43 GMT-0500 (Central Daylight Time),640985.5999999046,015_o_m_n_a.png,O,m,1280,12,1,2237.1999999284744,638748.3999999762,7090,VNB,C,10
0,test,1,0.0,2-Back,,,Thu Apr 10 2025 10:50:43 GMT-0500 (Central Daylight Time),640985.5999999046,025_y_m_h_a.png,O,space,10203,1,1,2237.1999999284744,638748.3999999762,7090,VNB,C,0
0,test,1,0.0,2-Back,,,Thu Apr 10 2025 10:50:43 GMT-0500 (Central Daylight Time),640985.5999999046,012_o_f_n_a.png,O,space,10203,2,1,2237.1999999284744,638748.3999999762,7090,VNB,C,0
1,test,1,0.0,2-Back,1,z,Thu Apr 10 2025 10:50:43 GMT-0500 (Central Daylight Time),666160.5999999046,015_o_m_h_a.png,O,z,1210,3,1,2233.0999999046326,663927.5,7090,VNB,C,1
2,test,1,0.0,2-Back,1,m,Thu Apr 10 2025 10:50:43 GMT-0500 (Central Daylight Time),668476.5999999046,019_m_f_d_a.png,O,m,1265,4,1,2292.399999976158,666184.1999999285,7090,VNB,C,2
2,test,1,1.0,2-Back,0,m,Thu Apr 10 2025 10:50:43 GMT-0500 (Central Daylight Time),670891.5999999046,025_y_m_n_a.png,O,z,1348,5,1,2373.899999976158,668517.6999999285,7090,VNB,C,3
3,test,1,0.0,2-Back,1,z,Thu Apr 10 2025 10:50:43 GMT-0500 (Central Daylight Time),673524.6999999285,022_y_f_d_a.png,O,z,1599,6,1,2620.7999999523163,670903.8999999762,7090,VNB,C,4
4,test,1,0.0,2-Back,1,m,Thu Apr 10 2025 10:50:43 GMT-0500 (Central Daylight Time),675923.6999999285,014_m_m_h_a.png,O,m,1340,7,1,2359.7999999523163,673563.8999999762,7090,VNB,C,5
5,test,1,1.0,2-Back,1,m,Thu Apr 10 2025 10:50:43 GMT-0500 (Central Daylight Time),678706.5,022_y_f_n_a.png,O,m,1717,8,1,2742.600000023842,675963.8999999762,7090,VNB,C,6
6,test,1,0.0,2-Back,1,z,Thu Apr 10 2025 10:50:43 GMT-0500 (Central Daylight Time),680972.0999999046,012_o_f_h_a.png,O,z,1198,9,1,2226.6999999284744,678745.3999999762,7090,VNB,C,7
7,test,1,0.0,2-Back,1,m,Thu Apr 10 2025 10:50:43 GMT-0500 (Central Daylight Time),683437.8999999762,015_o_m_d_a.png,O,m,1429,10,1,2439.600000023842,680998.2999999523,7090,VNB,C,8
7,test,1,1.0,2-Back,0,m,Thu Apr 10 2025 10:50:43 GMT-0500 (Central Daylight Time),686154.0,014_m_m_d_a.png,O,z,1675,11,1,2691.5,683462.5,7090,VNB,C,9
7,test,1,0.0,2-Back,0,m,Thu Apr 10 2025 10:50:43 GMT-0500 (Central Daylight Time),689219.7999999523,019_m_f_n_a.png,O,None,2014,12,1,3032.600000023842,686187.1999999285,7090,VNB,C,10
8,test,1,0.0,2-Back,1,m,Thu Apr 10 2025 10:50:43 GMT-0500 (Central Daylight Time),692252.0,022_y_f_h_a.png,O,m,1983,13,1,3002.0,689250.0,7090,VNB,C,11
9,test,1,0.0,2-Back,1,z,Thu Apr 10 2025 10:50:43 GMT-0500 (Central Daylight Time),694685.0999999046,014_m_m_n_a.png,O,z,1397,14,1,2405.6999999284744,692279.3999999762,7090,VNB,C,12
10,test,1,0.0,2-Back,1,m,Thu Apr 10 2025 10:50:43 GMT-0500 (Central Daylight Time),697017.0,025_y_m_d_a.png,O,m,1293,15,1,2304.9000000953674,694712.0999999046,7090,VNB,C,13
10,test,1,1.0,2-Back,0,m,Thu Apr 10 2025 10:50:43 GMT-0500 (Central Daylight Time),699749.3999999762,019_m_f_h_a.png,O,z,1689,16,1,2701.600000023842,697047.7999999523,7090,VNB,C,14
10,test,1,0.0,2-Back,0,z,Thu Apr 10 2025 10:50:43 GMT-0500 (Central Daylight Time),702798.6999999285,012_o_f_d_a.png,O,None,2014,17,1,3018.6999999284744,699780.0,7090,VNB,C,15
10,test,1,0.0,2-Back,0,m,Thu Apr 10 2025 10:50:43 GMT-0500 (Central Daylight Time),705397.5,015_o_m_n_a.png,O,z,1547,18,1,2567.5,702830.0,7090,VNB,C,16
0,test,2,0.0,2-Back,,,Thu Apr 10 2025 10:50:43 GMT-0500 (Central Daylight Time),705397.5,014_m_m_h_a.png,O,space,5337,1,1,2567.5,702830.0,7090,VNB,C,0
0,test,2,0.0,2-Back,,,Thu Apr 10 2025 10:50:43 GMT-0500 (Central Daylight Time),705397.5,022_y_f_n_a.png,O,space,5337,2,1,2567.5,702830.0,7090,VNB,C,0
0,test,2,1.0,2-Back,0,z,Thu Apr 10 2025 10:50:43 GMT-0500 (Central Daylight Time),718526.5999999046,012_o_f_h_a.png,O,m,1373,3,1,2397.0999999046326,716129.5,7090,VNB,C,1
1,test,2,0.0,2-Back,1,m,Thu Apr 10 2025 10:50:43 GMT-0500 (Central Daylight Time),720941.5999999046,015_o_m_d_a.png,O,m,1361,4,1,2382.899999976158,718558.6999999285,7090,VNB,C,2
1,test,2,0.0,2-Back,0,m,Thu Apr 10 2025 10:50:43 GMT-0500 (Central Daylight Time),723857.7999999523,019_m_f_d_a.png,O,z,1891,5,1,2905.2999999523163,720952.5,7090,VNB,C,3
2,test,2,0.0,2-Back,1,m,Thu Apr 10 2025 10:50:43 GMT-0500 (Central Daylight Time),726339.8999999762,025_y_m_h_a.png,O,m,1440,6,1,2464.399999976158,723875.5,7090,VNB,C,4
3,test,2,0.0,2-Back,1,m,Thu Apr 10 2025 10:50:43 GMT-0500 (Central Daylight Time),728873.1999999285,012_o_f_n_a.png,O,m,1512,7,1,2528.100000023842,726345.0999999046,7090,VNB,C,5
4,test,2,1.0,2-Back,1,z,Thu Apr 10 2025 10:50:43 GMT-0500 (Central Daylight Time),731006.0,015_o_m_h_a.png,O,z,1076,8,1,2097.3000000715256,728908.6999999285,7090,VNB,C,6
4,test,2,0.0,2-Back,0,m,Thu Apr 10 2025 10:50:43 GMT-0500 (Central Daylight Time),733721.0999999046,022_y_f_d_a.png,O,z,1652,9,1,2680.5,731040.5999999046,7090,VNB,C,7
4,test,2,0.0,2-Back,0,m,Thu Apr 10 2025 10:50:43 GMT-0500 (Central Daylight Time),736754.2999999523,025_y_m_d_a.png,O,None,2014,10,1,3024.2999999523163,733730.0,7090,VNB,C,8
4,test,2,0.0,2-Back,0,m,Thu Apr 10 2025 10:50:43 GMT-0500 (Central Daylight Time),739202.2999999523,014_m_m_n_a.png,O,z,1398,11,1,2418.100000023842,736784.1999999285,7090,VNB,C,9
5,test,2,0.0,2-Back,1,m,Thu Apr 10 2025 10:50:43 GMT-0500 (Central Daylight Time),741768.2999999523,019_m_f_h_a.png,O,m,1536,12,1,2559.7999999523163,739208.5,7090,VNB,C,10
6,test,2,1.0,2-Back,1,z,Thu Apr 10 2025 10:50:43 GMT-0500 (Central Daylight Time),743951.5,015_o_m_n_a.png,O,z,1152,13,1,2177.600000023842,741773.8999999762,7090,VNB,C,11
7,test,2,0.0,2-Back,1,m,Thu Apr 10 2025 10:50:43 GMT-0500 (Central Daylight Time),746367.3999999762,012_o_f_d_a.png,O,m,1370,14,1,2395.100000023842,743972.2999999523,7090,VNB,C,12
7,test,2,0.0,2-Back,0,m,Thu Apr 10 2025 10:50:43 GMT-0500 (Central Daylight Time),749433.2999999523,022_y_f_h_a.png,O,None,2015,15,1,3027.2999999523163,746406.0,7090,VNB,C,13
7,test,2,0.0,2-Back,0,z,Thu Apr 10 2025 10:50:43 GMT-0500 (Central Daylight Time),752482.2999999523,014_m_m_d_a.png,O,None,2014,16,1,3018.100000023842,749464.1999999285,7090,VNB,C,14
8,test,2,0.0,2-Back,1,m,Thu Apr 10 2025 10:50:43 GMT-0500 (Central Daylight Time),755215.1999999285,025_y_m_n_a.png,O,m,1679,17,1,2695.600000023842,752519.5999999046,7090,VNB,C,15
9,test,2,1.0,2-Back,1,m,Thu Apr 10 2025 10:50:43 GMT-0500 (Central Daylight Time),758213.2999999523,019_m_f_n_a.png,O,m,1946,18,1,2963.0,755250.2999999523,7090,VNB,C,16
0,test,3,1.0,2-Back,,,Thu Apr 10 2025 10:50:43 GMT-0500 (Central Daylight Time),758213.2999999523,015_o_m_n_a.png,O,space,3473,1,1,2963.0,755250.2999999523,7090,VNB,C,0
0,test,3,1.0,2-Back,,,Thu Apr 10 2025 10:50:43 GMT-0500 (Central Daylight Time),758213.2999999523,012_o_f_d_a.png,O,space,3473,2,1,2963.0,755250.2999999523,7090,VNB,C,0
1,test,3,0.0,2-Back,1,m,Thu Apr 10 2025 10:50:43 GMT-0500 (Central Daylight Time),769210.0999999046,022_y_f_h_a.png,O,m,1127,3,1,2140.0,767070.0999999046,7090,VNB,C,1
2,test,3,0.0,2-Back,1,z,Thu Apr 10 2025 10:50:43 GMT-0500 (Central Daylight Time),771625.0999999046,019_m_f_d_a.png,O,z,1374,4,1,2389.1999999284744,769235.8999999762,7090,VNB,C,2
3,test,3,1.0,2-Back,1,m,Thu Apr 10 2025 10:50:43 GMT-0500 (Central Daylight Time),774275.0999999046,025_y_m_n_a.png,O,m,1628,5,1,2642.5,771632.5999999046,7090,VNB,C,3
3,test,3,0.0,2-Back,0,m,Thu Apr 10 2025 10:50:43 GMT-0500 (Central Daylight Time),777123.8999999762,015_o_m_h_a.png,O,z,1790,6,1,2820.7000000476837,774303.1999999285,7090,VNB,C,4
4,test,3,0.0,2-Back,1,z,Thu Apr 10 2025 10:50:43 GMT-0500 (Central Daylight Time),779473.5,022_y_f_n_a.png,O,z,1301,7,1,2319.100000023842,777154.3999999762,7090,VNB,C,5
5,test,3,1.0,2-Back,1,m,Thu Apr 10 2025 10:50:43 GMT-0500 (Central Daylight Time),781872.5,014_m_m_d_a.png,O,m,1344,8,1,2367.4000000953674,779505.0999999046,7090,VNB,C,6
5,test,3,0.0,2-Back,0,m,Thu Apr 10 2025 10:50:43 GMT-0500 (Central Daylight Time),784338.3999999762,025_y_m_d_a.png,O,z,1409,9,1,2436.2000000476837,781902.1999999285,7090,VNB,C,7
6,test,3,0.0,2-Back,1,m,Thu Apr 10 2025 10:50:43 GMT-0500 (Central Daylight Time),786987.5,012_o_f_h_a.png,O,m,1583,10,1,2617.9000000953674,784369.5999999046,7090,VNB,C,8
7,test,3,1.0,2-Back,1,m,Thu Apr 10 2025 10:50:43 GMT-0500 (Central Daylight Time),789753.1999999285,019_m_f_n_a.png,O,m,1710,11,1,2734.100000023842,787019.0999999046,7090,VNB,C,9
7,test,3,1.0,2-Back,0,z,Thu Apr 10 2025 10:50:43 GMT-0500 (Central Daylight Time),792651.5,014_m_m_h_a.png,O,m,1847,12,1,2871.600000023842,789779.8999999762,7090,VNB,C,10
7,test,3,0.0,2-Back,0,m,Thu Apr 10 2025 10:50:43 GMT-0500 (Central Daylight Time),794868.1999999285,022_y_f_d_a.png,O,z,1191,13,1,2212.399999976158,792655.7999999523,7090,VNB,C,11
7,test,3,0.0,2-Back,0,m,Thu Apr 10 2025 10:50:43 GMT-0500 (Central Daylight Time),797599.8999999762,012_o_f_n_a.png,O,z,1667,14,1,2701.3000000715256,794898.5999999046,7090,VNB,C,12
7,test,3,0.0,2-Back,0,z,Thu Apr 10 2025 10:50:43 GMT-0500 (Central Daylight Time),800633.5,015_o_m_d_a.png,O,None,2015,15,1,3029.4000000953674,797604.0999999046,7090,VNB,C,13
8,test,3,1.0,2-Back,1,m,Thu Apr 10 2025 10:50:43 GMT-0500 (Central Daylight Time),803465.5,019_m_f_h_a.png,O,m,1785,16,1,2802.5,800663.0,7090,VNB,C,14
9,test,3,0.0,2-Back,1,m,Thu Apr 10 2025 10:50:43 GMT-0500 (Central Daylight Time),805981.1999999285,014_m_m_n_a.png,O,m,1473,17,1,2490.1999999284744,803491.0,7090,VNB,C,15
10,test,3,0.0,2-Back,1,z,Thu Apr 10 2025 10:50:43 GMT-0500 (Central Daylight Time),808080.5,025_y_m_h_a.png,O,z,1060,18,1,2070.100000023842,806010.3999999762,7090,VNB,C,16
0,test,4,0.0,2-Back,,,Thu Apr 10 2025 10:50:43 GMT-0500 (Central Daylight Time),808080.5,019_m_f_n_a.png,O,space,2718,1,1,2070.100000023842,806010.3999999762,7090,VNB,C,0
0,test,4,0.0,2-Back,,,Thu Apr 10 2025 10:50:43 GMT-0500 (Central Daylight Time),808080.5,015_o_m_n_a.png,O,space,2718,2,1,2070.100000023842,806010.3999999762,7090,VNB,C,0
1,test,4,1.0,2-Back,1,m,Thu Apr 10 2025 10:50:43 GMT-0500 (Central Daylight Time),818494.3999999762,025_y_m_h_a.png,O,m,1230,3,1,2242.7000000476837,816251.6999999285,7090,VNB,C,1
1,test,4,1.0,2-Back,0,m,Thu Apr 10 2025 10:50:43 GMT-0500 (Central Daylight Time),821542.1999999285,012_o_f_d_a.png,O,None,2013,4,1,3021.5,818520.6999999285,7090,VNB,C,2
2,test,4,0.0,2-Back,1,z,Thu Apr 10 2025 10:50:43 GMT-0500 (Central Daylight Time),824109.1999999285,015_o_m_h_a.png,O,z,1545,5,1,2561.0,821548.1999999285,7090,VNB,C,3
2,test,4,0.0,2-Back,0,m,Thu Apr 10 2025 10:50:43 GMT-0500 (Central Daylight Time),826541.5999999046,014_m_m_n_a.png,O,z,1398,6,1,2408.0,824133.5999999046,7090,VNB,C,4
3,test,4,0.0,2-Back,1,m,Thu Apr 10 2025 10:50:43 GMT-0500 (Central Daylight Time),828957.0999999046,019_m_f_d_a.png,O,m,1349,7,1,2384.6999999284744,826572.3999999762,7090,VNB,C,5
3,test,4,0.0,2-Back,0,z,Thu Apr 10 2025 10:50:43 GMT-0500 (Central Daylight Time),832006.0999999046,022_y_f_n_a.png,O,None,2014,8,1,3024.6999999284744,828981.3999999762,7090,VNB,C,6
3,test,4,1.0,2-Back,0,m,Thu Apr 10 2025 10:50:43 GMT-0500 (Central Daylight Time),834638.3999999762,012_o_f_h_a.png,O,z,1589,9,1,2603.3000000715256,832035.0999999046,7090,VNB,C,7
4,test,4,0.0,2-Back,1,m,Thu Apr 10 2025 10:50:43 GMT-0500 (Central Daylight Time),837404.0999999046,014_m_m_h_a.png,O,m,1716,10,1,2739.0999999046326,834665.0,7090,VNB,C,8
5,test,4,0.0,2-Back,1,m,Thu Apr 10 2025 10:50:43 GMT-0500 (Central Daylight Time),840186.5,022_y_f_d_a.png,O,m,1726,11,1,2746.5,837440.0,7090,VNB,C,9
6,test,4,0.0,2-Back,1,m,Thu Apr 10 2025 10:50:43 GMT-0500 (Central Daylight Time),842985.5999999046,025_y_m_n_a.png,O,m,1752,12,1,2772.899999976158,840212.6999999285,7090,VNB,C,10
6,test,4,0.0,2-Back,0,z,Thu Apr 10 2025 10:50:43 GMT-0500 (Central Daylight Time),845634.7999999523,015_o_m_d_a.png,O,m,1600,13,1,2618.2000000476837,843016.5999999046,7090,VNB,C,11
6,test,4,1.0,2-Back,0,m,Thu Apr 10 2025 10:50:43 GMT-0500 (Central Daylight Time),848084.1999999285,019_m_f_h_a.png,O,z,1383,14,1,2415.899999976158,845668.2999999523,7090,VNB,C,12
7,test,4,1.0,2-Back,1,m,Thu Apr 10 2025 10:50:43 GMT-0500 (Central Daylight Time),850400.0999999046,022_y_f_h_a.png,O,m,1262,15,1,2272.7999999523163,848127.2999999523,7090,VNB,C,13
8,test,4,0.0,2-Back,1,m,Thu Apr 10 2025 10:50:43 GMT-0500 (Central Daylight Time),852815.8999999762,012_o_f_n_a.png,O,m,1362,16,1,2377.5,850438.3999999762,7090,VNB,C,14
9,test,4,0.0,2-Back,1,m,Thu Apr 10 2025 10:50:43 GMT-0500 (Central Daylight Time),855465.0999999046,025_y_m_d_a.png,O,m,1602,17,1,2622.899999976158,852842.1999999285,7090,VNB,C,15
10,test,4,1.0,2-Back,1,m,Thu Apr 10 2025 10:50:43 GMT-0500 (Central Daylight Time),858147.5,014_m_m_d_a.png,O,m,1616,18,1,2641.0,855506.5,7090,VNB,C,16
0,test,5,1.0,2-Back,,,Thu Apr 10 2025 10:50:43 GMT-0500 (Central Daylight Time),858147.5,022_y_f_d_a.png,O,space,1494,1,1,2641.0,855506.5,7090,VNB,C,0
0,test,5,1.0,2-Back,,,Thu Apr 10 2025 10:50:43 GMT-0500 (Central Daylight Time),858147.5,012_o_f_h_a.png,O,space,1494,2,1,2641.0,855506.5,7090,VNB,C,0
0,test,5,1.0,2-Back,0,z,Thu Apr 10 2025 10:50:43 GMT-0500 (Central Daylight Time),867511.0999999046,015_o_m_d_a.png,O,m,1446,3,1,2456.399999976158,865054.6999999285,7090,VNB,C,1
0,test,5,1.0,2-Back,0,m,Thu Apr 10 2025 10:50:43 GMT-0500 (Central Daylight Time),870560.1999999285,019_m_f_n_a.png,O,None,2013,4,1,3020.2999999523163,867539.8999999762,7090,VNB,C,2
0,test,5,0.0,2-Back,0,m,Thu Apr 10 2025 10:50:43 GMT-0500 (Central Daylight Time),873626.0999999046,014_m_m_h_a.png,O,None,2014,5,1,3025.399999976158,870600.6999999285,7090,VNB,C,3
1,test,5,0.0,2-Back,1,z,Thu Apr 10 2025 10:50:43 GMT-0500 (Central Daylight Time),875841.5,022_y_f_n_a.png,O,z,1159,6,1,2178.0,873663.5,7090,VNB,C,4
2,test,5,0.0,2-Back,1,m,Thu Apr 10 2025 10:50:43 GMT-0500 (Central Daylight Time),878540.5999999046,012_o_f_d_a.png,O,m,1632,7,1,2665.1999999284744,875875.3999999762,7090,VNB,C,5
2,test,5,0.0,2-Back,0,m,Thu Apr 10 2025 10:50:43 GMT-0500 (Central Daylight Time),881589.7999999523,015_o_m_h_a.png,O,None,2015,8,1,3028.399999976158,878561.3999999762,7090,VNB,C,6
2,test,5,1.0,2-Back,0,z,Thu Apr 10 2025 10:50:43 GMT-0500 (Central Daylight Time),884505.3999999762,019_m_f_d_a.png,O,m,1876,9,1,2890.100000023842,881615.2999999523,7090,VNB,C,7
3,test,5,0.0,2-Back,1,m,Thu Apr 10 2025 10:50:43 GMT-0500 (Central Daylight Time),886938.0999999046,025_y_m_n_a.png,O,m,1393,10,1,2404.5,884533.5999999046,7090,VNB,C,8
3,test,5,0.0,2-Back,0,m,Thu Apr 10 2025 10:50:43 GMT-0500 (Central Daylight Time),889370.5999999046,014_m_m_n_a.png,O,z,1376,11,1,2398.6999999284744,886971.8999999762,7090,VNB,C,9
4,test,5,0.0,2-Back,1,m,Thu Apr 10 2025 10:50:43 GMT-0500 (Central Daylight Time),892236.1999999285,022_y_f_h_a.png,O,m,1807,12,1,2828.6999999284744,889407.5,7090,VNB,C,10
4,test,5,0.0,2-Back,0,m,Thu Apr 10 2025 10:50:43 GMT-0500 (Central Daylight Time),894769.0,025_y_m_d_a.png,O,z,1495,13,1,2504.4000000953674,892264.5999999046,7090,VNB,C,11
5,test,5,1.0,2-Back,1,z,Thu Apr 10 2025 10:50:43 GMT-0500 (Central Daylight Time),897168.0,019_m_f_h_a.png,O,z,1352,14,1,2372.600000023842,894795.3999999762,7090,VNB,C,12
5,test,5,0.0,2-Back,0,m,Thu Apr 10 2025 10:50:43 GMT-0500 (Central Daylight Time),899917.0999999046,015_o_m_n_a.png,O,z,1682,15,1,2715.2999999523163,897201.7999999523,7090,VNB,C,13
6,test,5,0.0,2-Back,1,m,Thu Apr 10 2025 10:50:43 GMT-0500 (Central Daylight Time),902316.3999999762,014_m_m_d_a.png,O,m,1357,16,1,2368.899999976158,899947.5,7090,VNB,C,14
6,test,5,0.0,2-Back,0,z,Thu Apr 10 2025 10:50:43 GMT-0500 (Central Daylight Time),904948.7999999523,012_o_f_n_a.png,O,m,1590,17,1,2605.7000000476837,902343.0999999046,7090,VNB,C,15
7,test,5,1.0,2-Back,1,m,Thu Apr 10 2025 10:50:43 GMT-0500 (Central Daylight Time),907348.0,025_y_m_h_a.png,O,m,1332,18,1,2363.100000023842,904984.8999999762,7090,VNB,C,16
