acc_sum,block,block_c,change,condition,correct,correct_response,datetime,endtime,face,project,response,response_time,row_sel,session_number,start_end,starttime,subject_id,task,task_vers,trial
0,prac,1,,1-Back,,,Tue Apr 22 2025 17:43:19 GMT-0500 (Central Daylight Time),,093_m_f_n_a.png,I,space,4557,1,2,,,8019,NNB,C,0
1,prac,1,0.0,1-Back,1,m,Tue Apr 22 2025 17:43:19 GMT-0500 (Central Daylight Time),110871.90000000596,098_y_f_n_a.png,I,m,1990,2,2,2835.7000000178814,108036.19999998808,8019,NNB,C,1
2,prac,1,1.0,1-Back,1,z,Tue Apr 22 2025 17:43:19 GMT-0500 (Central Daylight Time),112837.90000000596,098_y_f_n_a.png,I,z,1179,3,2,1954.4000000059605,110883.5,8019,NNB,C,2
3,prac,1,0.0,1-Back,1,m,Tue Apr 22 2025 17:43:19 GMT-0500 (Central Daylight Time),114803.90000000596,059_o_m_n_a.png,I,m,1075,4,2,1954.4000000059605,112849.5,8019,NNB,C,3
4,prac,1,0.0,1-Back,1,m,Tue Apr 22 2025 17:43:19 GMT-0500 (Central Daylight Time),116469.90000000596,092_m_m_n_a.png,I,m,782,5,2,1653.7000000178814,114816.19999998808,8019,NNB,C,4
5,prac,1,1.0,1-Back,1,z,Tue Apr 22 2025 17:43:19 GMT-0500 (Central Daylight Time),117936.30000001192,092_m_m_n_a.png,I,z,685,6,2,1454.7000000178814,116481.59999999404,8019,NNB,C,5
6,prac,1,0.0,1-Back,1,m,Tue Apr 22 2025 17:43:19 GMT-0500 (Central Daylight Time),119702.40000000596,130_o_f_n_a.png,I,m,863,7,2,1754.4000000059605,117948.0,8019,NNB,C,6
7,prac,1,0.0,1-Back,1,m,Tue Apr 22 2025 17:43:19 GMT-0500 (Central Daylight Time),121768.59999999404,082_m_m_n_a.png,I,m,1180,8,2,2053.699999988079,119714.90000000596,8019,NNB,C,7
8,prac,1,0.0,1-Back,1,m,Tue Apr 22 2025 17:43:19 GMT-0500 (Central Daylight Time),123218.0,093_m_f_n_a.png,I,m,666,9,2,1437.4000000059605,121780.59999999404,8019,NNB,C,8
9,prac,1,1.0,1-Back,1,z,Tue Apr 22 2025 17:43:19 GMT-0500 (Central Daylight Time),124784.09999999404,093_m_f_n_a.png,I,z,785,10,2,1554.0999999940395,123230.0,8019,NNB,C,9
10,prac,1,0.0,1-Back,1,m,Tue Apr 22 2025 17:43:19 GMT-0500 (Central Daylight Time),127116.69999998808,059_o_m_n_a.png,I,m,1547,11,2,2321.399999976158,124795.30000001192,8019,NNB,C,10
11,prac,1,0.0,1-Back,1,m,Tue Apr 22 2025 17:43:19 GMT-0500 (Central Daylight Time),129016.09999999404,028_y_f_n_a.png,I,m,1024,12,2,1888.7999999821186,127127.30000001192,8019,NNB,C,11
0,test,1,0.0,1-Back,,,Tue Apr 22 2025 17:43:19 GMT-0500 (Central Daylight Time),129016.09999999404,098_y_f_n_a.png,I,space,6918,1,2,1888.7999999821186,127127.30000001192,8019,NNB,C,0
1,test,1,0.0,1-Back,1,m,Tue Apr 22 2025 17:43:19 GMT-0500 (Central Daylight Time),147610.40000000596,006_m_f_n_a.png,I,m,1696,2,2,2704.4000000059605,144906.0,8019,NNB,C,1
2,test,1,0.0,1-Back,1,m,Tue Apr 22 2025 17:43:19 GMT-0500 (Central Daylight Time),150209.40000000596,028_y_f_n_a.png,I,m,1580,3,2,2588.0,147621.40000000596,8019,NNB,C,2
3,test,1,1.0,1-Back,1,z,Tue Apr 22 2025 17:43:19 GMT-0500 (Central Daylight Time),151908.90000000596,028_y_f_n_a.png,I,z,668,4,2,1688.9000000059605,150220.0,8019,NNB,C,3
4,test,1,0.0,1-Back,1,m,Tue Apr 22 2025 17:43:19 GMT-0500 (Central Daylight Time),154258.19999998808,006_m_f_n_a.png,I,m,1321,5,2,2340.0999999940395,151918.09999999404,8019,NNB,C,4
5,test,1,0.0,1-Back,1,m,Tue Apr 22 2025 17:43:19 GMT-0500 (Central Daylight Time),156191.09999999404,059_o_m_n_a.png,I,m,899,6,2,1922.2999999821186,154268.80000001192,8019,NNB,C,5
6,test,1,1.0,1-Back,1,z,Tue Apr 22 2025 17:43:19 GMT-0500 (Central Daylight Time),157973.80000001192,059_o_m_n_a.png,I,z,723,7,2,1773.4000000059605,156200.40000000596,8019,NNB,C,6
7,test,1,0.0,1-Back,1,m,Tue Apr 22 2025 17:43:19 GMT-0500 (Central Daylight Time),159806.5,092_m_m_n_a.png,I,m,809,8,2,1823.4000000059605,157983.09999999404,8019,NNB,C,7
8,test,1,0.0,1-Back,1,m,Tue Apr 22 2025 17:43:19 GMT-0500 (Central Daylight Time),161539.30000001192,130_o_f_n_a.png,I,m,711,9,2,1722.0,159817.30000001192,8019,NNB,C,8
9,test,1,0.0,1-Back,1,m,Tue Apr 22 2025 17:43:19 GMT-0500 (Central Daylight Time),163555.19999998808,092_m_m_n_a.png,I,m,995,10,2,2005.5,161549.69999998808,8019,NNB,C,9
10,test,1,0.0,1-Back,1,m,Tue Apr 22 2025 17:43:19 GMT-0500 (Central Daylight Time),165371.40000000596,057_y_m_n_a.png,I,m,787,11,2,1805.4000000059605,163566.0,8019,NNB,C,10
11,test,1,1.0,1-Back,1,z,Tue Apr 22 2025 17:43:19 GMT-0500 (Central Daylight Time),167187.59999999404,057_y_m_n_a.png,I,z,787,12,2,1802.699999988079,165384.90000000596,8019,NNB,C,11
12,test,1,0.0,1-Back,1,m,Tue Apr 22 2025 17:43:19 GMT-0500 (Central Daylight Time),169053.59999999404,030_o_f_n_a.png,I,m,835,13,2,1856.5,167197.09999999404,8019,NNB,C,12
13,test,1,1.0,1-Back,1,z,Tue Apr 22 2025 17:43:19 GMT-0500 (Central Daylight Time),170869.69999998808,030_o_f_n_a.png,I,z,785,14,2,1805.5,169064.19999998808,8019,NNB,C,13
14,test,1,0.0,1-Back,1,m,Tue Apr 22 2025 17:43:19 GMT-0500 (Central Daylight Time),172552.59999999404,031_y_m_n_a.png,I,m,656,15,2,1673.2999999821186,170879.30000001192,8019,NNB,C,14
15,test,1,0.0,1-Back,1,m,Tue Apr 22 2025 17:43:19 GMT-0500 (Central Daylight Time),174252.19999998808,093_m_f_n_a.png,I,m,669,16,2,1689.199999988079,172563.0,8019,NNB,C,15
16,test,1,0.0,1-Back,1,m,Tue Apr 22 2025 17:43:19 GMT-0500 (Central Daylight Time),176018.19999998808,146_o_m_n_a.png,I,m,746,17,2,1754.5999999940395,174263.59999999404,8019,NNB,C,16
17,test,1,0.0,1-Back,1,m,Tue Apr 22 2025 17:43:19 GMT-0500 (Central Daylight Time),177767.5,093_m_f_n_a.png,I,m,716,18,2,1738.9000000059605,176028.59999999404,8019,NNB,C,17
0,test,2,0.0,1-Back,,,Tue Apr 22 2025 17:43:19 GMT-0500 (Central Daylight Time),177767.5,092_m_m_n_a.png,I,space,1375,1,2,1738.9000000059605,176028.59999999404,8019,NNB,C,0
1,test,2,0.0,1-Back,1,m,Tue Apr 22 2025 17:43:19 GMT-0500 (Central Daylight Time),182899.19999998808,006_m_f_n_a.png,I,m,712,2,2,1720.5,181178.69999998808,8019,NNB,C,1
2,test,2,1.0,1-Back,1,z,Tue Apr 22 2025 17:43:19 GMT-0500 (Central Daylight Time),184766.5,006_m_f_n_a.png,I,z,843,3,2,1853.9000000059605,182912.59999999404,8019,NNB,C,2
3,test,2,0.0,1-Back,1,m,Tue Apr 22 2025 17:43:19 GMT-0500 (Central Daylight Time),186681.0,092_m_m_n_a.png,I,m,896,4,2,1905.300000011921,184775.69999998808,8019,NNB,C,3
4,test,2,0.0,1-Back,1,m,Tue Apr 22 2025 17:43:19 GMT-0500 (Central Daylight Time),188463.90000000596,057_y_m_n_a.png,I,m,765,5,2,1772.0,186691.90000000596,8019,NNB,C,4
5,test,2,0.0,1-Back,1,m,Tue Apr 22 2025 17:43:19 GMT-0500 (Central Daylight Time),190313.59999999404,098_y_f_n_a.png,I,m,830,6,2,1838.2999999821186,188475.30000001192,8019,NNB,C,5
6,test,2,1.0,1-Back,1,z,Tue Apr 22 2025 17:43:19 GMT-0500 (Central Daylight Time),191979.69999998808,098_y_f_n_a.png,I,z,645,7,2,1654.699999988079,190325.0,8019,NNB,C,6
7,test,2,0.0,1-Back,1,m,Tue Apr 22 2025 17:43:19 GMT-0500 (Central Daylight Time),193679.09999999404,057_y_m_n_a.png,I,m,683,8,2,1688.7999999821186,191990.30000001192,8019,NNB,C,7
8,test,2,0.0,1-Back,1,m,Tue Apr 22 2025 17:43:19 GMT-0500 (Central Daylight Time),195645.0,030_o_f_n_a.png,I,m,942,9,2,1956.5999999940395,193688.40000000596,8019,NNB,C,8
9,test,2,0.0,1-Back,1,m,Tue Apr 22 2025 17:43:19 GMT-0500 (Central Daylight Time),197278.19999998808,082_m_m_n_a.png,I,m,609,10,2,1620.3999999761581,195657.80000001192,8019,NNB,C,9
10,test,2,1.0,1-Back,1,z,Tue Apr 22 2025 17:43:19 GMT-0500 (Central Daylight Time),199077.5,082_m_m_n_a.png,I,z,768,11,2,1788.199999988079,197289.30000001192,8019,NNB,C,10
11,test,2,0.0,1-Back,1,m,Tue Apr 22 2025 17:43:19 GMT-0500 (Central Daylight Time),201010.40000000596,030_o_f_n_a.png,I,m,913,12,2,1922.0,199088.40000000596,8019,NNB,C,11
12,test,2,0.0,1-Back,1,m,Tue Apr 22 2025 17:43:19 GMT-0500 (Central Daylight Time),202909.69999998808,130_o_f_n_a.png,I,m,876,13,2,1889.5,201020.19999998808,8019,NNB,C,12
13,test,2,0.0,1-Back,1,m,Tue Apr 22 2025 17:43:19 GMT-0500 (Central Daylight Time),204492.59999999404,059_o_m_n_a.png,I,m,560,14,2,1571.7999999821186,202920.80000001192,8019,NNB,C,13
14,test,2,0.0,1-Back,1,m,Tue Apr 22 2025 17:43:19 GMT-0500 (Central Daylight Time),206175.40000000596,146_o_m_n_a.png,I,m,650,15,2,1672.5,204502.90000000596,8019,NNB,C,14
15,test,2,1.0,1-Back,1,z,Tue Apr 22 2025 17:43:19 GMT-0500 (Central Daylight Time),207958.09999999404,146_o_m_n_a.png,I,z,759,16,2,1770.5999999940395,206187.5,8019,NNB,C,15
16,test,2,0.0,1-Back,1,m,Tue Apr 22 2025 17:43:19 GMT-0500 (Central Daylight Time),209757.59999999404,031_y_m_n_a.png,I,m,768,17,2,1789.2999999821186,207968.30000001192,8019,NNB,C,16
17,test,2,1.0,1-Back,1,z,Tue Apr 22 2025 17:43:19 GMT-0500 (Central Daylight Time),211457.0,031_y_m_n_a.png,I,z,680,18,2,1689.300000011921,209767.69999998808,8019,NNB,C,17
0,test,3,1.0,1-Back,,,Tue Apr 22 2025 17:43:19 GMT-0500 (Central Daylight Time),211457.0,028_y_f_n_a.png,I,space,1245,1,2,1689.300000011921,209767.69999998808,8019,NNB,C,0
1,test,3,0.0,1-Back,1,m,Tue Apr 22 2025 17:43:19 GMT-0500 (Central Daylight Time),216388.80000001192,146_o_m_n_a.png,I,m,544,1,2,1556.0,214832.80000001192,8019,NNB,C,1
2,test,3,1.0,1-Back,1,z,Tue Apr 22 2025 17:43:19 GMT-0500 (Central Daylight Time),218121.5,146_o_m_n_a.png,I,z,713,1,2,1723.5,216398.0,8019,NNB,C,2
3,test,3,0.0,1-Back,1,m,Tue Apr 22 2025 17:43:19 GMT-0500 (Central Daylight Time),219987.69999998808,093_m_f_n_a.png,I,m,845,1,2,1856.5999999940395,218131.09999999404,8019,NNB,C,3
4,test,3,1.0,1-Back,1,z,Tue Apr 22 2025 17:43:19 GMT-0500 (Central Daylight Time),221737.09999999404,093_m_f_n_a.png,I,z,722,1,2,1738.5999999940395,219998.5,8019,NNB,C,4
5,test,3,0.0,1-Back,1,m,Tue Apr 22 2025 17:43:19 GMT-0500 (Central Daylight Time),223719.90000000596,030_o_f_n_a.png,I,m,957,1,2,1973.2000000178814,221746.69999998808,8019,NNB,C,5
6,test,3,0.0,1-Back,1,m,Tue Apr 22 2025 17:43:19 GMT-0500 (Central Daylight Time),225485.80000001192,057_y_m_n_a.png,I,m,743,1,2,1754.7000000178814,223731.09999999404,8019,NNB,C,6
7,test,3,0.0,1-Back,1,m,Tue Apr 22 2025 17:43:19 GMT-0500 (Central Daylight Time),227401.59999999404,030_o_f_n_a.png,I,m,896,1,2,1904.7999999821186,225496.80000001192,8019,NNB,C,7
8,test,3,0.0,1-Back,1,m,Tue Apr 22 2025 17:43:19 GMT-0500 (Central Daylight Time),229051.80000001192,031_y_m_n_a.png,I,m,620,1,2,1638.4000000059605,227413.40000000596,8019,NNB,C,8
9,test,3,1.0,1-Back,1,z,Tue Apr 22 2025 17:43:19 GMT-0500 (Central Daylight Time),230684.30000001192,031_y_m_n_a.png,I,z,611,1,2,1622.9000000059605,229061.40000000596,8019,NNB,C,9
10,test,3,0.0,1-Back,1,m,Tue Apr 22 2025 17:43:19 GMT-0500 (Central Daylight Time),232417.19999998808,006_m_f_n_a.png,I,m,714,1,2,1721.3999999761581,230695.80000001192,8019,NNB,C,10
10,test,3,0.0,1-Back,0,m,Tue Apr 22 2025 17:43:19 GMT-0500 (Central Daylight Time),234083.09999999404,098_y_f_n_a.png,I,z,645,1,2,1652.7999999821186,232430.30000001192,8019,NNB,C,11
11,test,3,1.0,1-Back,1,z,Tue Apr 22 2025 17:43:19 GMT-0500 (Central Daylight Time),235782.69999998808,098_y_f_n_a.png,I,z,675,1,2,1688.8999999761581,234093.80000001192,8019,NNB,C,12
12,test,3,0.0,1-Back,1,m,Tue Apr 22 2025 17:43:19 GMT-0500 (Central Daylight Time),237648.90000000596,006_m_f_n_a.png,I,m,848,1,2,1856.9000000059605,235792.0,8019,NNB,C,13
13,test,3,0.0,1-Back,1,m,Tue Apr 22 2025 17:43:19 GMT-0500 (Central Daylight Time),239231.59999999404,092_m_m_n_a.png,I,m,558,1,2,1572.7999999821186,237658.80000001192,8019,NNB,C,14
14,test,3,1.0,1-Back,1,z,Tue Apr 22 2025 17:43:19 GMT-0500 (Central Daylight Time),240964.40000000596,092_m_m_n_a.png,I,z,711,1,2,1721.800000011921,239242.59999999404,8019,NNB,C,15
15,test,3,0.0,1-Back,1,m,Tue Apr 22 2025 17:43:19 GMT-0500 (Central Daylight Time),242797.09999999404,130_o_f_n_a.png,I,m,802,1,2,1823.0999999940395,240974.0,8019,NNB,C,16
16,test,3,1.0,1-Back,1,z,Tue Apr 22 2025 17:43:19 GMT-0500 (Central Daylight Time),244396.59999999404,130_o_f_n_a.png,I,z,577,1,2,1587.5999999940395,242809.0,8019,NNB,C,17
0,test,4,1.0,1-Back,,,Tue Apr 22 2025 17:43:19 GMT-0500 (Central Daylight Time),244396.59999999404,093_m_f_n_a.png,I,space,1362,1,2,1587.5999999940395,242809.0,8019,NNB,C,0
1,test,4,0.0,1-Back,1,m,Tue Apr 22 2025 17:43:19 GMT-0500 (Central Daylight Time),250028.19999998808,146_o_m_n_a.png,I,m,1144,2,2,2151.0999999940395,247877.09999999404,8019,NNB,C,1
2,test,4,0.0,1-Back,1,m,Tue Apr 22 2025 17:43:19 GMT-0500 (Central Daylight Time),252027.59999999404,093_m_f_n_a.png,I,m,970,3,2,1988.699999988079,250038.90000000596,8019,NNB,C,2
3,test,4,0.0,1-Back,1,m,Tue Apr 22 2025 17:43:19 GMT-0500 (Central Daylight Time),253627.19999998808,030_o_f_n_a.png,I,m,579,4,2,1587.2999999821186,252039.90000000596,8019,NNB,C,3
4,test,4,1.0,1-Back,1,z,Tue Apr 22 2025 17:43:19 GMT-0500 (Central Daylight Time),255126.69999998808,030_o_f_n_a.png,I,z,475,5,2,1487.8999999761581,253638.80000001192,8019,NNB,C,4
5,test,4,0.0,1-Back,1,m,Tue Apr 22 2025 17:43:19 GMT-0500 (Central Daylight Time),256826.19999998808,098_y_f_n_a.png,I,m,672,6,2,1690.199999988079,255136.0,8019,NNB,C,5
6,test,4,0.0,1-Back,1,m,Tue Apr 22 2025 17:43:19 GMT-0500 (Central Daylight Time),258458.90000000596,057_y_m_n_a.png,I,m,612,7,2,1622.0999999940395,256836.80000001192,8019,NNB,C,6
7,test,4,1.0,1-Back,1,z,Tue Apr 22 2025 17:43:19 GMT-0500 (Central Daylight Time),260058.40000000596,057_y_m_n_a.png,I,z,579,8,2,1588.2000000178814,258470.19999998808,8019,NNB,C,7
8,test,4,0.0,1-Back,1,m,Tue Apr 22 2025 17:43:19 GMT-0500 (Central Daylight Time),261857.90000000596,098_y_f_n_a.png,I,m,780,9,2,1788.0,260069.90000000596,8019,NNB,C,8
9,test,4,0.0,1-Back,1,m,Tue Apr 22 2025 17:43:19 GMT-0500 (Central Daylight Time),263474.09999999404,082_m_m_n_a.png,I,m,589,10,2,1606.9000000059605,261867.19999998808,8019,NNB,C,9
10,test,4,1.0,1-Back,1,z,Tue Apr 22 2025 17:43:19 GMT-0500 (Central Daylight Time),265090.40000000596,082_m_m_n_a.png,I,z,596,11,2,1605.0,263485.40000000596,8019,NNB,C,10
11,test,4,0.0,1-Back,1,m,Tue Apr 22 2025 17:43:19 GMT-0500 (Central Daylight Time),266773.0,130_o_f_n_a.png,I,m,652,12,2,1673.5,265099.5,8019,NNB,C,11
12,test,4,0.0,1-Back,1,m,Tue Apr 22 2025 17:43:19 GMT-0500 (Central Daylight Time),268639.40000000596,059_o_m_n_a.png,I,m,832,13,2,1855.300000011921,266784.09999999404,8019,NNB,C,12
13,test,4,0.0,1-Back,1,m,Tue Apr 22 2025 17:43:19 GMT-0500 (Central Daylight Time),270455.1999999881,130_o_f_n_a.png,I,m,799,14,2,1804.0999999940395,268651.09999999404,8019,NNB,C,13
14,test,4,0.0,1-Back,1,m,Tue Apr 22 2025 17:43:19 GMT-0500 (Central Daylight Time),272187.6999999881,028_y_f_n_a.png,I,m,710,15,2,1721.199999988079,270466.5,8019,NNB,C,14
15,test,4,1.0,1-Back,1,z,Tue Apr 22 2025 17:43:19 GMT-0500 (Central Daylight Time),273720.90000000596,028_y_f_n_a.png,I,z,506,16,2,1521.7000000178814,272199.1999999881,8019,NNB,C,15
16,test,4,0.0,1-Back,1,m,Tue Apr 22 2025 17:43:19 GMT-0500 (Central Daylight Time),275587.0,006_m_f_n_a.png,I,m,782,17,2,1856.800000011921,273730.1999999881,8019,NNB,C,16
17,test,4,1.0,1-Back,1,z,Tue Apr 22 2025 17:43:19 GMT-0500 (Central Daylight Time),277236.40000000596,006_m_f_n_a.png,I,z,619,18,2,1638.7000000178814,275597.6999999881,8019,NNB,C,17
0,test,5,1.0,1-Back,,,Tue Apr 22 2025 17:43:19 GMT-0500 (Central Daylight Time),277236.40000000596,059_o_m_n_a.png,I,space,1138,1,2,1638.7000000178814,275597.6999999881,8019,NNB,C,0
1,test,5,1.0,1-Back,1,z,Tue Apr 22 2025 17:43:19 GMT-0500 (Central Daylight Time),282201.59999999404,059_o_m_n_a.png,I,z,772,2,2,1790.5999999940395,280411.0,8019,NNB,C,1
2,test,5,0.0,1-Back,1,m,Tue Apr 22 2025 17:43:19 GMT-0500 (Central Daylight Time),284034.40000000596,098_y_f_n_a.png,I,m,813,3,2,1823.7000000178814,282210.6999999881,8019,NNB,C,2
3,test,5,0.0,1-Back,1,m,Tue Apr 22 2025 17:43:19 GMT-0500 (Central Daylight Time),285667.1999999881,057_y_m_n_a.png,I,m,612,4,2,1620.5,284046.6999999881,8019,NNB,C,3
4,test,5,0.0,1-Back,1,m,Tue Apr 22 2025 17:43:19 GMT-0500 (Central Daylight Time),287633.0,098_y_f_n_a.png,I,m,939,5,2,1954.699999988079,285678.3000000119,8019,NNB,C,4
5,test,5,0.0,1-Back,1,m,Tue Apr 22 2025 17:43:19 GMT-0500 (Central Daylight Time),289266.0,092_m_m_n_a.png,I,m,605,6,2,1624.0999999940395,287641.90000000596,8019,NNB,C,5
6,test,5,1.0,1-Back,1,z,Tue Apr 22 2025 17:43:19 GMT-0500 (Central Daylight Time),290948.8000000119,092_m_m_n_a.png,I,z,652,7,2,1672.1000000238419,289276.6999999881,8019,NNB,C,6
7,test,5,0.0,1-Back,1,m,Tue Apr 22 2025 17:43:19 GMT-0500 (Central Daylight Time),292664.90000000596,028_y_f_n_a.png,I,m,697,8,2,1706.800000011921,290958.09999999404,8019,NNB,C,7
8,test,5,0.0,1-Back,1,m,Tue Apr 22 2025 17:43:19 GMT-0500 (Central Daylight Time),294314.3000000119,031_y_m_n_a.png,I,m,629,9,2,1640.4000000059605,292673.90000000596,8019,NNB,C,8
9,test,5,0.0,1-Back,1,m,Tue Apr 22 2025 17:43:19 GMT-0500 (Central Daylight Time),296180.5,028_y_f_n_a.png,I,m,844,10,2,1853.5,294327.0,8019,NNB,C,9
10,test,5,0.0,1-Back,1,m,Tue Apr 22 2025 17:43:19 GMT-0500 (Central Daylight Time),297813.1999999881,130_o_f_n_a.png,I,m,609,11,2,1623.199999988079,296190.0,8019,NNB,C,10
11,test,5,1.0,1-Back,1,z,Tue Apr 22 2025 17:43:19 GMT-0500 (Central Daylight Time),299446.1999999881,130_o_f_n_a.png,I,z,609,12,2,1619.5999999940395,297826.59999999404,8019,NNB,C,11
12,test,5,0.0,1-Back,1,m,Tue Apr 22 2025 17:43:19 GMT-0500 (Central Daylight Time),301129.0,146_o_m_n_a.png,I,m,664,13,2,1673.699999988079,299455.3000000119,8019,NNB,C,12
13,test,5,0.0,1-Back,1,m,Tue Apr 22 2025 17:43:19 GMT-0500 (Central Daylight Time),302762.0,093_m_f_n_a.png,I,m,613,14,2,1621.4000000059605,301140.59999999404,8019,NNB,C,13
14,test,5,1.0,1-Back,1,z,Tue Apr 22 2025 17:43:19 GMT-0500 (Central Daylight Time),304394.3000000119,093_m_f_n_a.png,I,z,613,15,2,1621.7000000178814,302772.59999999404,8019,NNB,C,14
15,test,5,0.0,1-Back,1,m,Tue Apr 22 2025 17:43:19 GMT-0500 (Central Daylight Time),305943.6999999881,146_o_m_n_a.png,I,m,532,16,2,1538.2999999821186,304405.40000000596,8019,NNB,C,15
16,test,5,0.0,1-Back,1,m,Tue Apr 22 2025 17:43:19 GMT-0500 (Central Daylight Time),307676.5,006_m_f_n_a.png,I,m,702,17,2,1723.0999999940395,305953.40000000596,8019,NNB,C,16
17,test,5,0.0,1-Back,1,m,Tue Apr 22 2025 17:43:19 GMT-0500 (Central Daylight Time),309276.1999999881,082_m_m_n_a.png,I,m,577,18,2,1589.2999999821186,307686.90000000596,8019,NNB,C,17
0,prac,1,0.0,2-Back,,,Tue Apr 22 2025 17:43:19 GMT-0500 (Central Daylight Time),309276.1999999881,031_y_m_n_a.png,I,space,6651,1,2,1589.2999999821186,307686.90000000596,8019,NNB,C,0
0,prac,1,0.0,2-Back,,,Tue Apr 22 2025 17:43:19 GMT-0500 (Central Daylight Time),309276.1999999881,006_m_f_n_a.png,I,space,6651,2,2,1589.2999999821186,307686.90000000596,8019,NNB,C,0
1,prac,1,1.0,2-Back,1,m,Tue Apr 22 2025 17:43:19 GMT-0500 (Central Daylight Time),391900.90000000596,146_o_m_n_a.png,I,m,1515,3,2,2404.0999999940395,389496.8000000119,8019,NNB,C,1
2,prac,1,0.0,2-Back,1,m,Tue Apr 22 2025 17:43:19 GMT-0500 (Central Daylight Time),394166.5,130_o_f_n_a.png,I,m,1362,4,2,2254.0,391912.5,8019,NNB,C,2
3,prac,1,0.0,2-Back,1,z,Tue Apr 22 2025 17:43:19 GMT-0500 (Central Daylight Time),396132.5,146_o_m_n_a.png,I,z,1172,5,2,1954.0999999940395,394178.40000000596,8019,NNB,C,3
4,prac,1,1.0,2-Back,1,z,Tue Apr 22 2025 17:43:19 GMT-0500 (Central Daylight Time),398048.8000000119,130_o_f_n_a.png,I,z,1127,6,2,1904.9000000059605,396143.90000000596,8019,NNB,C,4
5,prac,1,0.0,2-Back,1,m,Tue Apr 22 2025 17:43:19 GMT-0500 (Central Daylight Time),399764.8000000119,082_m_m_n_a.png,I,m,827,7,2,1705.7000000178814,398059.09999999404,8019,NNB,C,5
5,prac,1,0.0,2-Back,0,m,Tue Apr 22 2025 17:43:19 GMT-0500 (Central Daylight Time),401864.0,059_o_m_n_a.png,I,z,1220,8,2,2087.699999988079,399776.3000000119,8019,NNB,C,6
6,prac,1,0.0,2-Back,1,m,Tue Apr 22 2025 17:43:19 GMT-0500 (Central Daylight Time),403730.40000000596,028_y_f_n_a.png,I,m,987,9,2,1854.0999999940395,401876.3000000119,8019,NNB,C,7
6,prac,1,1.0,2-Back,0,z,Tue Apr 22 2025 17:43:19 GMT-0500 (Central Daylight Time),406146.5,059_o_m_n_a.png,I,m,1629,10,2,2400.699999988079,403745.8000000119,8019,NNB,C,8
7,prac,1,0.0,2-Back,1,m,Tue Apr 22 2025 17:43:19 GMT-0500 (Central Daylight Time),408278.90000000596,098_y_f_n_a.png,I,m,1262,11,2,2119.4000000059605,406159.5,8019,NNB,C,9
8,prac,1,0.0,2-Back,1,m,Tue Apr 22 2025 17:43:19 GMT-0500 (Central Daylight Time),410611.40000000596,082_m_m_n_a.png,I,m,1540,12,2,2320.5,408290.90000000596,8019,NNB,C,10
0,test,1,0.0,2-Back,,,Tue Apr 22 2025 17:43:19 GMT-0500 (Central Daylight Time),410611.40000000596,057_y_m_n_a.png,I,space,7718,1,2,2320.5,408290.90000000596,8019,NNB,C,0
0,test,1,0.0,2-Back,,,Tue Apr 22 2025 17:43:19 GMT-0500 (Central Daylight Time),410611.40000000596,057_y_m_n_a.png,I,space,7718,2,2,2320.5,408290.90000000596,8019,NNB,C,0
1,test,1,0.0,2-Back,1,m,Tue Apr 22 2025 17:43:19 GMT-0500 (Central Daylight Time),432471.40000000596,130_o_f_n_a.png,I,m,1374,3,2,2389.800000011921,430081.59999999404,8019,NNB,C,1
2,test,1,0.0,2-Back,1,m,Tue Apr 22 2025 17:43:19 GMT-0500 (Central Daylight Time),434370.59999999404,092_m_m_n_a.png,I,m,879,4,2,1888.9000000059605,432481.6999999881,8019,NNB,C,2
3,test,1,1.0,2-Back,1,z,Tue Apr 22 2025 17:43:19 GMT-0500 (Central Daylight Time),436253.1999999881,130_o_f_n_a.png,I,z,852,5,2,1871.8999999761581,434381.3000000119,8019,NNB,C,3
4,test,1,0.0,2-Back,1,m,Tue Apr 22 2025 17:43:19 GMT-0500 (Central Daylight Time),437886.09999999404,098_y_f_n_a.png,I,m,609,6,2,1622.7999999821186,436263.3000000119,8019,NNB,C,4
4,test,1,0.0,2-Back,0,m,Tue Apr 22 2025 17:43:19 GMT-0500 (Central Daylight Time),439879.90000000596,092_m_m_n_a.png,I,z,961,7,2,1984.0,437895.90000000596,8019,NNB,C,5
5,test,1,1.0,2-Back,1,z,Tue Apr 22 2025 17:43:19 GMT-0500 (Central Daylight Time),441568.1999999881,098_y_f_n_a.png,I,z,665,8,2,1676.0,439892.1999999881,8019,NNB,C,6
6,test,1,0.0,2-Back,1,m,Tue Apr 22 2025 17:43:19 GMT-0500 (Central Daylight Time),443367.5,031_y_m_n_a.png,I,m,782,9,2,1788.199999988079,441579.3000000119,8019,NNB,C,7
7,test,1,0.0,2-Back,1,m,Tue Apr 22 2025 17:43:19 GMT-0500 (Central Daylight Time),445034.0,030_o_f_n_a.png,I,m,639,10,2,1655.800000011921,443378.1999999881,8019,NNB,C,8
8,test,1,1.0,2-Back,1,z,Tue Apr 22 2025 17:43:19 GMT-0500 (Central Daylight Time),446683.3000000119,031_y_m_n_a.png,I,z,628,11,2,1637.1000000238419,445046.1999999881,8019,NNB,C,9
9,test,1,0.0,2-Back,1,m,Tue Apr 22 2025 17:43:19 GMT-0500 (Central Daylight Time),448815.8000000119,006_m_f_n_a.png,I,m,1115,12,2,2123.2000000178814,446692.59999999404,8019,NNB,C,10
10,test,1,0.0,2-Back,1,m,Tue Apr 22 2025 17:43:19 GMT-0500 (Central Daylight Time),451215.5,006_m_f_n_a.png,I,m,1366,13,2,2386.0,448829.5,8019,NNB,C,11
11,test,1,0.0,2-Back,1,m,Tue Apr 22 2025 17:43:19 GMT-0500 (Central Daylight Time),453264.40000000596,146_o_m_n_a.png,I,m,1031,14,2,2039.5999999940395,451224.8000000119,8019,NNB,C,12
12,test,1,0.0,2-Back,1,m,Tue Apr 22 2025 17:43:19 GMT-0500 (Central Daylight Time),455180.8000000119,030_o_f_n_a.png,I,m,894,15,2,1905.7000000178814,453275.09999999404,8019,NNB,C,13
13,test,1,1.0,2-Back,1,z,Tue Apr 22 2025 17:43:19 GMT-0500 (Central Daylight Time),456963.40000000596,146_o_m_n_a.png,I,z,761,16,2,1773.5,455189.90000000596,8019,NNB,C,14
14,test,1,0.0,2-Back,1,m,Tue Apr 22 2025 17:43:19 GMT-0500 (Central Daylight Time),458629.5,093_m_f_n_a.png,I,m,643,17,2,1654.199999988079,456975.3000000119,8019,NNB,C,15
15,test,1,0.0,2-Back,1,m,Tue Apr 22 2025 17:43:19 GMT-0500 (Central Daylight Time),460329.40000000596,082_m_m_n_a.png,I,m,681,18,2,1689.5,458639.90000000596,8019,NNB,C,16
0,test,2,0.0,2-Back,,,Tue Apr 22 2025 17:43:19 GMT-0500 (Central Daylight Time),460329.40000000596,082_m_m_n_a.png,I,space,1365,1,2,1689.5,458639.90000000596,8019,NNB,C,0
0,test,2,0.0,2-Back,,,Tue Apr 22 2025 17:43:19 GMT-0500 (Central Daylight Time),460329.40000000596,028_y_f_n_a.png,I,space,1365,2,2,1689.5,458639.90000000596,8019,NNB,C,0
1,test,2,1.0,2-Back,1,z,Tue Apr 22 2025 17:43:19 GMT-0500 (Central Daylight Time),468560.0,082_m_m_n_a.png,I,z,690,3,2,1707.0999999940395,466852.90000000596,8019,NNB,C,1
2,test,2,0.0,2-Back,1,m,Tue Apr 22 2025 17:43:19 GMT-0500 (Central Daylight Time),470309.1999999881,093_m_f_n_a.png,I,m,726,4,2,1739.5999999940395,468569.59999999404,8019,NNB,C,2
3,test,2,0.0,2-Back,1,m,Tue Apr 22 2025 17:43:19 GMT-0500 (Central Daylight Time),472592.1999999881,028_y_f_n_a.png,I,m,1257,5,2,2273.2999999821186,470318.90000000596,8019,NNB,C,3
4,test,2,0.0,2-Back,1,m,Tue Apr 22 2025 17:43:19 GMT-0500 (Central Daylight Time),475224.5,146_o_m_n_a.png,I,m,1614,6,2,2622.9000000059605,472601.59999999404,8019,NNB,C,4
5,test,2,0.0,2-Back,1,m,Tue Apr 22 2025 17:43:19 GMT-0500 (Central Daylight Time),476940.6999999881,098_y_f_n_a.png,I,m,686,7,2,1706.699999988079,475234.0,8019,NNB,C,5
6,test,2,1.0,2-Back,1,z,Tue Apr 22 2025 17:43:19 GMT-0500 (Central Daylight Time),478706.5,146_o_m_n_a.png,I,z,745,8,2,1754.9000000059605,476951.59999999404,8019,NNB,C,6
7,test,2,0.0,2-Back,1,m,Tue Apr 22 2025 17:43:19 GMT-0500 (Central Daylight Time),480572.90000000596,031_y_m_n_a.png,I,m,836,9,2,1857.0999999940395,478715.8000000119,8019,NNB,C,7
8,test,2,0.0,2-Back,1,m,Tue Apr 22 2025 17:43:19 GMT-0500 (Central Daylight Time),482555.5,031_y_m_n_a.png,I,m,953,10,2,1971.5,480584.0,8019,NNB,C,8
9,test,2,0.0,2-Back,1,m,Tue Apr 22 2025 17:43:19 GMT-0500 (Central Daylight Time),484654.8000000119,006_m_f_n_a.png,I,m,1075,11,2,2089.7000000178814,482565.09999999404,8019,NNB,C,9
10,test,2,0.0,2-Back,1,m,Tue Apr 22 2025 17:43:19 GMT-0500 (Central Daylight Time),486997.90000000596,028_y_f_n_a.png,I,m,1180,12,2,2328.7000000178814,484669.1999999881,8019,NNB,C,10
11,test,2,1.0,2-Back,1,z,Tue Apr 22 2025 17:43:19 GMT-0500 (Central Daylight Time),488870.0,006_m_f_n_a.png,I,z,842,13,2,1859.199999988079,487010.8000000119,8019,NNB,C,11
12,test,2,0.0,2-Back,1,m,Tue Apr 22 2025 17:43:19 GMT-0500 (Central Daylight Time),490736.0,059_o_m_n_a.png,I,m,848,14,2,1856.0,488880.0,8019,NNB,C,12
13,test,2,0.0,2-Back,1,m,Tue Apr 22 2025 17:43:19 GMT-0500 (Central Daylight Time),492785.6999999881,059_o_m_n_a.png,I,m,1020,15,2,2038.699999988079,490747.0,8019,NNB,C,13
14,test,2,0.0,2-Back,1,m,Tue Apr 22 2025 17:43:19 GMT-0500 (Central Daylight Time),494801.8000000119,030_o_f_n_a.png,I,m,988,16,2,2006.7000000178814,492795.09999999404,8019,NNB,C,14
15,test,2,0.0,2-Back,1,m,Tue Apr 22 2025 17:43:19 GMT-0500 (Central Daylight Time),496617.8000000119,092_m_m_n_a.png,I,m,796,17,2,1804.1000000238419,494813.6999999881,8019,NNB,C,15
16,test,2,1.0,2-Back,1,z,Tue Apr 22 2025 17:43:19 GMT-0500 (Central Daylight Time),498567.3000000119,030_o_f_n_a.png,I,z,925,18,2,1938.2000000178814,496629.09999999404,8019,NNB,C,16
0,test,3,1.0,2-Back,,,Tue Apr 22 2025 17:43:19 GMT-0500 (Central Daylight Time),498567.3000000119,057_y_m_n_a.png,I,space,1103,1,2,1938.2000000178814,496629.09999999404,8019,NNB,C,0
0,test,3,1.0,2-Back,,,Tue Apr 22 2025 17:43:19 GMT-0500 (Central Daylight Time),498567.3000000119,057_y_m_n_a.png,I,space,1103,2,2,1938.2000000178814,496629.09999999404,8019,NNB,C,0
1,test,3,0.0,2-Back,1,m,Tue Apr 22 2025 17:43:19 GMT-0500 (Central Daylight Time),506814.59999999404,030_o_f_n_a.png,I,m,958,3,2,1973.5999999940395,504841.0,8019,NNB,C,1
2,test,3,0.0,2-Back,1,m,Tue Apr 22 2025 17:43:19 GMT-0500 (Central Daylight Time),508514.1999999881,082_m_m_n_a.png,I,m,680,4,2,1689.8999999761581,506824.3000000119,8019,NNB,C,2
3,test,3,1.0,2-Back,1,z,Tue Apr 22 2025 17:43:19 GMT-0500 (Central Daylight Time),510130.3000000119,030_o_f_n_a.png,I,z,588,5,2,1604.6000000238419,508525.6999999881,8019,NNB,C,3
4,test,3,0.0,2-Back,1,m,Tue Apr 22 2025 17:43:19 GMT-0500 (Central Daylight Time),511912.90000000596,031_y_m_n_a.png,I,m,764,6,2,1772.300000011921,510140.59999999404,8019,NNB,C,4
4,test,3,0.0,2-Back,0,m,Tue Apr 22 2025 17:43:19 GMT-0500 (Central Daylight Time),514245.6999999881,082_m_m_n_a.png,I,z,1301,7,2,2319.899999976158,511925.8000000119,8019,NNB,C,5
4,test,3,1.0,2-Back,0,z,Tue Apr 22 2025 17:43:19 GMT-0500 (Central Daylight Time),517278.0,031_y_m_n_a.png,I,None,2016,8,2,3022.199999988079,514255.8000000119,8019,NNB,C,6
5,test,3,0.0,2-Back,1,m,Tue Apr 22 2025 17:43:19 GMT-0500 (Central Daylight Time),519160.6999999881,028_y_f_n_a.png,I,m,864,9,2,1873.3999999761581,517287.3000000119,8019,NNB,C,7
6,test,3,0.0,2-Back,1,m,Tue Apr 22 2025 17:43:19 GMT-0500 (Central Daylight Time),521126.59999999404,092_m_m_n_a.png,I,m,942,10,2,1955.0999999940395,519171.5,8019,NNB,C,8
7,test,3,1.0,2-Back,1,z,Tue Apr 22 2025 17:43:19 GMT-0500 (Central Daylight Time),523092.90000000596,028_y_f_n_a.png,I,z,935,11,2,1954.4000000059605,521138.5,8019,NNB,C,9
8,test,3,1.0,2-Back,1,z,Tue Apr 22 2025 17:43:19 GMT-0500 (Central Daylight Time),525175.3000000119,092_m_m_n_a.png,I,z,1066,12,2,2073.0,523102.3000000119,8019,NNB,C,10
9,test,3,0.0,2-Back,1,m,Tue Apr 22 2025 17:43:19 GMT-0500 (Central Daylight Time),527041.5,030_o_f_n_a.png,I,m,847,13,2,1856.9000000059605,525184.599999994,8019,NNB,C,11
10,test,3,0.0,2-Back,1,m,Tue Apr 22 2025 17:43:19 GMT-0500 (Central Daylight Time),528807.5,093_m_f_n_a.png,I,m,749,14,2,1751.800000011921,527055.6999999881,8019,NNB,C,12
11,test,3,0.0,2-Back,1,m,Tue Apr 22 2025 17:43:19 GMT-0500 (Central Daylight Time),530623.599999994,146_o_m_n_a.png,I,m,798,15,2,1805.0999999940395,528818.5,8019,NNB,C,13
12,test,3,1.0,2-Back,1,z,Tue Apr 22 2025 17:43:19 GMT-0500 (Central Daylight Time),532923.099999994,093_m_f_n_a.png,I,z,1278,16,2,2288.5,530634.599999994,8019,NNB,C,14
13,test,3,0.0,2-Back,1,m,Tue Apr 22 2025 17:43:19 GMT-0500 (Central Daylight Time),534955.6999999881,130_o_f_n_a.png,I,m,930,17,2,2022.2999999821186,532933.400000006,8019,NNB,C,15
14,test,3,0.0,2-Back,1,m,Tue Apr 22 2025 17:43:19 GMT-0500 (Central Daylight Time),536805.3000000119,130_o_f_n_a.png,I,m,826,18,2,1838.5,534966.8000000119,8019,NNB,C,16
0,test,4,0.0,2-Back,,,Tue Apr 22 2025 17:43:19 GMT-0500 (Central Daylight Time),536805.3000000119,059_o_m_n_a.png,I,space,1513,1,2,1838.5,534966.8000000119,8019,NNB,C,0
0,test,4,0.0,2-Back,,,Tue Apr 22 2025 17:43:19 GMT-0500 (Central Daylight Time),536805.3000000119,098_y_f_n_a.png,I,space,1513,2,2,1838.5,534966.8000000119,8019,NNB,C,0
1,test,4,1.0,2-Back,1,z,Tue Apr 22 2025 17:43:19 GMT-0500 (Central Daylight Time),546002.3000000119,059_o_m_n_a.png,I,z,1421,3,2,2438.800000011921,543563.5,8019,NNB,C,1
2,test,4,1.0,2-Back,1,z,Tue Apr 22 2025 17:43:19 GMT-0500 (Central Daylight Time),547668.5,098_y_f_n_a.png,I,z,644,4,2,1656.699999988079,546011.8000000119,8019,NNB,C,2
3,test,4,0.0,2-Back,1,m,Tue Apr 22 2025 17:43:19 GMT-0500 (Central Daylight Time),549584.400000006,030_o_f_n_a.png,I,m,890,5,2,1906.300000011921,547678.099999994,8019,NNB,C,3
4,test,4,0.0,2-Back,1,m,Tue Apr 22 2025 17:43:19 GMT-0500 (Central Daylight Time),551834.0,030_o_f_n_a.png,I,m,1230,6,2,2240.0,549594.0,8019,NNB,C,4
5,test,4,0.0,2-Back,1,m,Tue Apr 22 2025 17:43:19 GMT-0500 (Central Daylight Time),553933.099999994,006_m_f_n_a.png,I,m,1068,7,2,2089.5999999940395,551843.5,8019,NNB,C,5
6,test,4,0.0,2-Back,1,m,Tue Apr 22 2025 17:43:19 GMT-0500 (Central Daylight Time),555615.6999999881,031_y_m_n_a.png,I,m,665,8,2,1671.7999999821186,553943.900000006,8019,NNB,C,6
7,test,4,1.0,2-Back,1,z,Tue Apr 22 2025 17:43:19 GMT-0500 (Central Daylight Time),557415.400000006,006_m_f_n_a.png,I,z,782,9,2,1785.300000011921,555630.099999994,8019,NNB,C,7
8,test,4,0.0,2-Back,1,m,Tue Apr 22 2025 17:43:19 GMT-0500 (Central Daylight Time),559298.3000000119,092_m_m_n_a.png,I,m,863,10,2,1872.0,557426.3000000119,8019,NNB,C,8
8,test,4,0.0,2-Back,0,m,Tue Apr 22 2025 17:43:19 GMT-0500 (Central Daylight Time),561297.400000006,031_y_m_n_a.png,I,z,980,11,2,1988.0999999940395,559309.3000000119,8019,NNB,C,9
9,test,4,0.0,2-Back,1,m,Tue Apr 22 2025 17:43:19 GMT-0500 (Central Daylight Time),563380.1999999881,130_o_f_n_a.png,I,m,1052,12,2,2071.5,561308.6999999881,8019,NNB,C,10
10,test,4,0.0,2-Back,1,m,Tue Apr 22 2025 17:43:19 GMT-0500 (Central Daylight Time),565229.5,057_y_m_n_a.png,I,m,826,13,2,1836.800000011921,563392.6999999881,8019,NNB,C,11
11,test,4,1.0,2-Back,1,z,Tue Apr 22 2025 17:43:19 GMT-0500 (Central Daylight Time),567079.0,130_o_f_n_a.png,I,z,824,14,2,1838.199999988079,565240.8000000119,8019,NNB,C,12
12,test,4,1.0,2-Back,1,z,Tue Apr 22 2025 17:43:19 GMT-0500 (Central Daylight Time),569495.0,057_y_m_n_a.png,I,z,1391,15,2,2404.699999988079,567090.3000000119,8019,NNB,C,13
13,test,4,0.0,2-Back,1,m,Tue Apr 22 2025 17:43:19 GMT-0500 (Central Daylight Time),571444.1999999881,082_m_m_n_a.png,I,m,927,16,2,1939.5999999940395,569504.599999994,8019,NNB,C,14
14,test,4,0.0,2-Back,1,m,Tue Apr 22 2025 17:43:19 GMT-0500 (Central Daylight Time),573360.3000000119,093_m_f_n_a.png,I,m,890,17,2,1905.6000000238419,571454.6999999881,8019,NNB,C,15
15,test,4,1.0,2-Back,1,z,Tue Apr 22 2025 17:43:19 GMT-0500 (Central Daylight Time),574810.099999994,082_m_m_n_a.png,I,z,430,18,2,1439.0999999940395,573371.0,8019,NNB,C,16
0,test,5,1.0,2-Back,,,Tue Apr 22 2025 17:43:19 GMT-0500 (Central Daylight Time),574810.099999994,057_y_m_n_a.png,I,space,1108,1,2,1439.0999999940395,573371.0,8019,NNB,C,0
0,test,5,1.0,2-Back,,,Tue Apr 22 2025 17:43:19 GMT-0500 (Central Daylight Time),574810.099999994,093_m_f_n_a.png,I,space,1108,2,2,1439.0999999940395,573371.0,8019,NNB,C,0
1,test,5,1.0,2-Back,1,z,Tue Apr 22 2025 17:43:19 GMT-0500 (Central Daylight Time),582657.599999994,057_y_m_n_a.png,I,z,530,3,2,1542.4000000059605,581115.1999999881,8019,NNB,C,1
2,test,5,1.0,2-Back,1,z,Tue Apr 22 2025 17:43:19 GMT-0500 (Central Daylight Time),584307.0,093_m_f_n_a.png,I,z,621,4,2,1639.5999999940395,582667.400000006,8019,NNB,C,2
3,test,5,0.0,2-Back,1,m,Tue Apr 22 2025 17:43:19 GMT-0500 (Central Daylight Time),586023.3000000119,130_o_f_n_a.png,I,m,683,5,2,1706.9000000059605,584316.400000006,8019,NNB,C,3
4,test,5,0.0,2-Back,1,m,Tue Apr 22 2025 17:43:19 GMT-0500 (Central Daylight Time),588189.5,057_y_m_n_a.png,I,m,1135,6,2,2157.0,586032.5,8019,NNB,C,4
5,test,5,0.0,2-Back,1,m,Tue Apr 22 2025 17:43:19 GMT-0500 (Central Daylight Time),589922.0,028_y_f_n_a.png,I,m,713,7,2,1722.300000011921,588199.6999999881,8019,NNB,C,5
5,test,5,0.0,2-Back,0,m,Tue Apr 22 2025 17:43:19 GMT-0500 (Central Daylight Time),591655.0,130_o_f_n_a.png,I,z,700,8,2,1721.800000011921,589933.1999999881,8019,NNB,C,6
6,test,5,1.0,2-Back,1,z,Tue Apr 22 2025 17:43:19 GMT-0500 (Central Daylight Time),594287.3000000119,028_y_f_n_a.png,I,z,1615,9,2,2622.0,591665.3000000119,8019,NNB,C,7
7,test,5,0.0,2-Back,1,m,Tue Apr 22 2025 17:43:19 GMT-0500 (Central Daylight Time),596270.1999999881,146_o_m_n_a.png,I,m,951,10,2,1970.2999999821186,594299.900000006,8019,NNB,C,8
8,test,5,0.0,2-Back,1,m,Tue Apr 22 2025 17:43:19 GMT-0500 (Central Daylight Time),598236.0,006_m_f_n_a.png,I,m,944,11,2,1955.0,596281.0,8019,NNB,C,9
9,test,5,0.0,2-Back,1,m,Tue Apr 22 2025 17:43:19 GMT-0500 (Central Daylight Time),599952.0,092_m_m_n_a.png,I,m,690,12,2,1704.699999988079,598247.3000000119,8019,NNB,C,10
9,test,5,0.0,2-Back,0,m,Tue Apr 22 2025 17:43:19 GMT-0500 (Central Daylight Time),601551.3000000119,146_o_m_n_a.png,I,z,582,13,2,1588.6000000238419,599962.6999999881,8019,NNB,C,11
10,test,5,1.0,2-Back,1,z,Tue Apr 22 2025 17:43:19 GMT-0500 (Central Daylight Time),603485.599999994,092_m_m_n_a.png,I,z,910,14,2,1923.0,601562.599999994,8019,NNB,C,12
11,test,5,0.0,2-Back,1,m,Tue Apr 22 2025 17:43:19 GMT-0500 (Central Daylight Time),605533.599999994,098_y_f_n_a.png,I,m,1026,15,2,2038.5,603495.099999994,8019,NNB,C,13
12,test,5,0.0,2-Back,1,m,Tue Apr 22 2025 17:43:19 GMT-0500 (Central Daylight Time),607699.6999999881,059_o_m_n_a.png,I,m,1145,16,2,2155.399999976158,605544.3000000119,8019,NNB,C,14
13,test,5,0.0,2-Back,1,m,Tue Apr 22 2025 17:43:19 GMT-0500 (Central Daylight Time),609732.6999999881,006_m_f_n_a.png,I,m,1002,17,2,2022.0,607710.6999999881,8019,NNB,C,15
14,test,5,1.0,2-Back,1,z,Tue Apr 22 2025 17:43:19 GMT-0500 (Central Daylight Time),611716.3000000119,059_o_m_n_a.png,I,z,954,18,2,1974.0,609742.3000000119,8019,NNB,C,16
