acc_sum,block_c,block_dur,condition,correct,correct_response,countdown,datetime,endtime,project,response,response_time,response_time_test1_response,response_time_test2_response,row_sel,same,session_number,start_end,starttime,stim1,stim2,subject_id,task,task_vers,time_test1,time_test2,trial
1,1,0.0,prac,1,m,30000.0,Wed Mar 26 2025 10:48:03 GMT-0500 (Central Daylight Time),47992.200000047684,O,m,2262,,,4,no,1,3778.7999999523163,44213.40000009537,practrial4.png,practrial4b.png,7094,PC,B,,,1
2,1,0.0,prac,1,z,30000.0,Wed Mar 26 2025 10:48:03 GMT-0500 (Central Daylight Time),51656.90000009537,O,z,2139,,,3,yes,1,3656.300000190735,48000.59999990463,practrial3.png,practrial3.png,7094,PC,B,,,2
3,1,0.0,prac,1,z,30000.0,Wed Mar 26 2025 10:48:03 GMT-0500 (Central Daylight Time),54556.90000009537,O,z,1367,,,1,yes,1,2896.300000190735,51660.59999990463,practrial1.png,practrial1.png,7094,PC,B,,,3
3,1,0.0,prac,0,m,30000.0,Wed Mar 26 2025 10:48:03 GMT-0500 (Central Daylight Time),57356.40000009537,O,z,1263,,,6,no,1,2793.4000000953674,54563.0,practrial6.png,practrial6b.png,7094,PC,B,,,4
4,1,0.0,prac,1,m,30000.0,Wed Mar 26 2025 10:48:03 GMT-0500 (Central Daylight Time),60254.09999990463,O,m,1360,,,2,no,1,2892.5,57361.59999990463,practrial2.png,practrial2b.png,7094,PC,B,,,5
5,1,0.0,prac,1,z,30000.0,Wed Mar 26 2025 10:48:03 GMT-0500 (Central Daylight Time),63803.90000009537,O,z,2040,,,5,yes,1,3544.300000190735,60259.59999990463,practrial5.png,practrial5.png,7094,PC,B,,,6
1,1,2.699000120162964,test,1,z,27300.999879837036,Wed Mar 26 2025 10:48:03 GMT-0500 (Central Daylight Time),73499.90000009537,O,z,2685,2685,,1,yes,1,2694.9000000953674,70805.0,test1trial1.png,test1trial1.png,7094,PC,B,68425,,1
2,1,3.75,test,1,m,26250.0,Wed Mar 26 2025 10:48:03 GMT-0500 (Central Daylight Time),74551.20000004768,O,m,1046,1046,,2,no,1,1047.7999999523163,73503.40000009537,test1trial2.png,test1trial2b.png,7094,PC,B,71123,,2
3,1,5.115000009536743,test,1,z,24884.999990463257,Wed Mar 26 2025 10:48:03 GMT-0500 (Central Daylight Time),75915.79999995232,O,z,1351,1351,,3,yes,1,1359.7999999523163,74556.0,test1trial3.png,test1trial3.png,7094,PC,B,72176,,3
4,1,6.264000177383423,test,1,m,23735.999822616577,Wed Mar 26 2025 10:48:03 GMT-0500 (Central Daylight Time),77065.20000004768,O,m,1140,1140,,4,no,1,1146.6000001430511,75918.59999990463,test1trial4.png,test1trial4b.png,7094,PC,B,73539,,4
5,1,8.21500015258789,test,1,z,21784.99984741211,Wed Mar 26 2025 10:48:03 GMT-0500 (Central Daylight Time),79016.0,O,z,1935,1935,,5,yes,1,1947.5,77068.5,test1trial5.png,test1trial5.png,7094,PC,B,74688,,5
6,1,9.663000106811523,test,1,m,20336.999893188477,Wed Mar 26 2025 10:48:03 GMT-0500 (Central Daylight Time),80464.09999990463,O,m,1440,1440,,6,no,1,1444.5,79019.59999990463,test1trial6.png,test1trial6b.png,7094,PC,B,76639,,6
7,1,11.129000186920166,test,1,z,18870.999813079834,Wed Mar 26 2025 10:48:03 GMT-0500 (Central Daylight Time),81929.90000009537,O,z,1455,1455,,7,yes,1,1462.6000001430511,80467.29999995232,test1trial7.png,test1trial7.png,7094,PC,B,78087,,7
8,1,13.361999988555908,test,1,m,16638.00001144409,Wed Mar 26 2025 10:48:03 GMT-0500 (Central Daylight Time),84163.20000004768,O,m,2222,2222,,8,no,1,2230.100000143051,81933.09999990463,test1trial8.png,test1trial8b.png,7094,PC,B,79553,,8
9,1,15.261000156402588,test,1,z,14738.999843597412,Wed Mar 26 2025 10:48:03 GMT-0500 (Central Daylight Time),86062.0,O,z,1884,1884,,9,yes,1,1896.0999999046326,84165.90000009537,test1trial9.png,test1trial9.png,7094,PC,B,81786,,9
10,1,16.66100001335144,test,1,m,13338.99998664856,Wed Mar 26 2025 10:48:03 GMT-0500 (Central Daylight Time),87462.20000004768,O,m,1386,1386,,10,no,1,1397.7000000476837,86064.5,test1trial10.png,test1trial10b.png,7094,PC,B,83684,,10
11,1,18.844000101089478,test,1,z,11155.999898910522,Wed Mar 26 2025 10:48:03 GMT-0500 (Central Daylight Time),89645.0,O,z,2171,2171,,11,yes,1,2180.2000000476837,87464.79999995232,test1trial11.png,test1trial11.png,7094,PC,B,85084,,11
12,1,20.9760000705719,test,1,m,9023.9999294281,Wed Mar 26 2025 10:48:03 GMT-0500 (Central Daylight Time),91777.29999995232,O,m,2114,2114,,12,no,1,2129.5999999046326,89647.70000004768,test1trial12.png,test1trial12b.png,7094,PC,B,87268,,12
13,1,22.277000188827515,test,1,m,7722.999811172485,Wed Mar 26 2025 10:48:03 GMT-0500 (Central Daylight Time),93078.09999990463,O,m,1296,1296,,13,no,1,1296.8999998569489,91781.20000004768,test1trial13.png,test1trial13b.png,7094,PC,B,89401,,13
14,1,23.907999992370605,test,1,m,6092.0000076293945,Wed Mar 26 2025 10:48:03 GMT-0500 (Central Daylight Time),94708.90000009537,O,m,1626,1626,,14,no,1,1627.5,93081.40000009537,test1trial14.png,test1trial14b.png,7094,PC,B,90701,,14
15,1,25.526000022888184,test,1,z,4473.999977111816,Wed Mar 26 2025 10:48:03 GMT-0500 (Central Daylight Time),96326.20000004768,O,z,1601,1601,,15,yes,1,1613.5,94712.70000004768,test1trial15.png,test1trial15.png,7094,PC,B,92332,,15
16,1,26.741000175476074,test,1,m,3258.999824523926,Wed Mar 26 2025 10:48:03 GMT-0500 (Central Daylight Time),97541.59999990463,O,m,1201,1201,,16,no,1,1212.5,96329.09999990463,test1trial16.png,test1trial16b.png,7094,PC,B,93949,,16
17,1,29.491000175476074,test,1,z,508.9998245239258,Wed Mar 26 2025 10:48:03 GMT-0500 (Central Daylight Time),100292.0,O,z,2738,2738,,17,yes,1,2747.4000000953674,97544.59999990463,test1trial17.png,test1trial17.png,7094,PC,B,95164,,17
17,1,30.008000135421753,test,0,m,-8.00013542175293,Wed Mar 26 2025 10:48:03 GMT-0500 (Central Daylight Time),100809.09999990463,O,None,513,513,,18,no,1,514.0999999046326,100295.0,test1trial18.png,test1trial18b.png,7094,PC,B,97915,,18
1,2,2.6480000019073486,test,1,m,27351.99999809265,Wed Mar 26 2025 10:48:03 GMT-0500 (Central Daylight Time),113553.40000009537,O,m,2630,,2630.0,1,no,1,13258.400000095367,100295.0,test2trial1.png,test2trial1b.png,7094,PC,B,,108528.0,1
2,2,5.065000057220459,test,1,m,24934.99994277954,Wed Mar 26 2025 10:48:03 GMT-0500 (Central Daylight Time),115970.90000009537,O,m,2406,,2406.0,2,no,1,15675.900000095367,100295.0,test2trial2.png,test2trial2b.png,7094,PC,B,,111177.0,2
3,2,7.292999982833862,test,1,z,22707.000017166138,Wed Mar 26 2025 10:48:03 GMT-0500 (Central Daylight Time),118201.0,O,z,2222,,2222.0,3,yes,1,17906.0,100295.0,test2trial3.png,test2trial3.png,7094,PC,B,,113593.0,3
4,2,9.426000118255615,test,1,z,20573.999881744385,Wed Mar 26 2025 10:48:03 GMT-0500 (Central Daylight Time),120333.90000009537,O,z,2116,,2116.0,4,yes,1,20038.900000095367,100295.0,test2trial4.png,test2trial4.png,7094,PC,B,,115827.0,4
5,2,11.578999996185303,test,1,z,18421.000003814697,Wed Mar 26 2025 10:48:03 GMT-0500 (Central Daylight Time),122486.09999990463,O,z,2144,,2144.0,5,yes,1,22191.099999904633,100295.0,test2trial5.png,test2trial5.png,7094,PC,B,,117960.0,5
6,2,14.04200005531311,test,1,z,15957.99994468689,Wed Mar 26 2025 10:48:03 GMT-0500 (Central Daylight Time),124949.40000009537,O,z,2448,,2448.0,6,yes,1,24654.400000095367,100295.0,test2trial6.png,test2trial6.png,7094,PC,B,,120110.0,6
7,2,15.975000143051147,test,1,m,14024.999856948853,Wed Mar 26 2025 10:48:03 GMT-0500 (Central Daylight Time),126882.29999995232,O,m,1924,,1924.0,7,no,1,26587.299999952316,100295.0,test2trial7.png,test2trial7b.png,7094,PC,B,,122571.0,7
8,2,17.77500009536743,test,1,m,12224.999904632568,Wed Mar 26 2025 10:48:03 GMT-0500 (Central Daylight Time),128682.09999990463,O,m,1790,,1790.0,8,no,1,28387.099999904633,100295.0,test2trial8.png,test2trial8b.png,7094,PC,B,,124505.0,8
9,2,20.608999967575073,test,1,z,9391.000032424927,Wed Mar 26 2025 10:48:03 GMT-0500 (Central Daylight Time),131516.79999995232,O,z,2821,,2821.0,9,yes,1,31221.799999952316,100295.0,test2trial9.png,test2trial9.png,7094,PC,B,,126305.0,9
10,2,22.10700011253357,test,1,z,7892.999887466431,Wed Mar 26 2025 10:48:03 GMT-0500 (Central Daylight Time),133014.40000009537,O,z,1494,,1494.0,10,yes,1,32719.400000095367,100295.0,test2trial10.png,test2trial10.png,7094,PC,B,,129139.0,10
11,2,24.04200005531311,test,1,m,5957.99994468689,Wed Mar 26 2025 10:48:03 GMT-0500 (Central Daylight Time),134949.90000009537,O,m,1929,,1929.0,11,no,1,34654.90000009537,100295.0,test2trial11.png,test2trial11b.png,7094,PC,B,,130639.0,11
12,2,26.256999969482422,test,1,m,3743.000030517578,Wed Mar 26 2025 10:48:03 GMT-0500 (Central Daylight Time),137164.59999990463,O,m,2210,,2210.0,12,no,1,36869.59999990463,100295.0,test2trial12.png,test2trial12b.png,7094,PC,B,,132573.0,12
13,2,27.755000114440918,test,1,z,2244.999885559082,Wed Mar 26 2025 10:48:03 GMT-0500 (Central Daylight Time),138662.70000004768,O,z,1483,,1483.0,13,yes,1,38367.700000047684,100295.0,test2trial13.png,test2trial13.png,7094,PC,B,,134788.0,13
13,2,30.003999948501587,test,0,m,-3.999948501586914,Wed Mar 26 2025 10:48:03 GMT-0500 (Central Daylight Time),140912.0,O,None,2245,,2245.0,14,no,1,40617.0,100295.0,test2trial14.png,test2trial14b.png,7094,PC,B,,136286.0,14
