acc_sum,block,block_c,change,condition,correct,correct_response,datetime,endtime,face,project,response,response_time,row_sel,session_number,start_end,starttime,subject_id,task,task_vers,trial
0,prac,1,,1-Back,,,Wed Apr 09 2025 16:43:15 GMT-0500 (Central Daylight Time),,097_m_f_n_a.png,O,space,18586,1,1,,,7124,NNB,B,0
0,prac,1,0.0,1-Back,0,m,Wed Apr 09 2025 16:43:15 GMT-0500 (Central Daylight Time),175081.09999999776,152_y_f_n_a.png,O,z,1320,2,1,2190.199999999255,172890.8999999985,7124,NNB,B,1
0,prac,1,1.0,1-Back,0,z,Wed Apr 09 2025 16:43:15 GMT-0500 (Central Daylight Time),177796.8999999985,152_y_f_n_a.png,O,m,1929,3,1,2709.10000000149,175087.79999999702,7124,NNB,B,2
0,prac,1,0.0,1-Back,0,m,Wed Apr 09 2025 16:43:15 GMT-0500 (Central Daylight Time),180679.3999999985,176_o_m_n_a.png,O,None,2006,4,1,2875.39999999851,177804.0,7124,NNB,B,3
1,prac,1,0.0,1-Back,1,m,Wed Apr 09 2025 16:43:15 GMT-0500 (Central Daylight Time),182928.59999999776,126_m_m_n_a.png,O,m,1362,5,1,2242.300000000745,180686.29999999702,7124,NNB,B,4
2,prac,1,1.0,1-Back,1,z,Wed Apr 09 2025 16:43:15 GMT-0500 (Central Daylight Time),184794.79999999702,126_m_m_n_a.png,O,z,1080,6,1,1857.2999999970198,182937.5,7124,NNB,B,5
2,prac,1,0.0,1-Back,0,m,Wed Apr 09 2025 16:43:15 GMT-0500 (Central Daylight Time),187710.3999999985,086_o_f_n_a.png,O,None,2012,7,1,2909.699999999255,184800.69999999925,7124,NNB,B,6
2,prac,1,0.0,1-Back,0,m,Wed Apr 09 2025 16:43:15 GMT-0500 (Central Daylight Time),190576.0,178_m_m_n_a.png,O,z,1979,8,1,2857.400000002235,187718.59999999776,7124,NNB,B,7
2,prac,1,0.0,1-Back,0,m,Wed Apr 09 2025 16:43:15 GMT-0500 (Central Daylight Time),193358.5,097_m_f_n_a.png,O,None,2008,9,1,2775.300000000745,190583.19999999925,7124,NNB,B,8
2,prac,1,1.0,1-Back,0,z,Wed Apr 09 2025 16:43:15 GMT-0500 (Central Daylight Time),194924.79999999702,097_m_f_n_a.png,O,m,788,10,1,1559.3999999985099,193365.3999999985,7124,NNB,B,9
2,prac,1,0.0,1-Back,0,m,Wed Apr 09 2025 16:43:15 GMT-0500 (Central Daylight Time),197457.5,176_o_m_n_a.png,O,z,1752,11,1,2520.2000000029802,194937.29999999702,7124,NNB,B,10
3,prac,1,0.0,1-Back,1,m,Wed Apr 09 2025 16:43:15 GMT-0500 (Central Daylight Time),200056.3999999985,173_y_f_n_a.png,O,m,1716,12,1,2592.0,197464.3999999985,7124,NNB,B,11
0,prac,2,0.0,1-Back,,,Wed Apr 09 2025 16:43:15 GMT-0500 (Central Daylight Time),200056.3999999985,097_m_f_n_a.png,O,a,26206,1,1,2592.0,197464.3999999985,7124,NNB,B,0
1,prac,2,0.0,1-Back,1,m,Wed Apr 09 2025 16:43:15 GMT-0500 (Central Daylight Time),230896.8999999985,152_y_f_n_a.png,O,m,715,2,1,1575.699999999255,229321.19999999925,7124,NNB,B,1
2,prac,2,1.0,1-Back,1,z,Wed Apr 09 2025 16:43:15 GMT-0500 (Central Daylight Time),233313.0,152_y_f_n_a.png,O,z,1632,3,1,2407.800000000745,230905.19999999925,7124,NNB,B,2
3,prac,2,0.0,1-Back,1,m,Wed Apr 09 2025 16:43:15 GMT-0500 (Central Daylight Time),235245.3999999985,176_o_m_n_a.png,O,m,1034,4,1,1925.1000000014901,233320.29999999702,7124,NNB,B,3
4,prac,2,0.0,1-Back,1,m,Wed Apr 09 2025 16:43:15 GMT-0500 (Central Daylight Time),237178.3999999985,126_m_m_n_a.png,O,m,1059,5,1,1927.0,235251.3999999985,7124,NNB,B,4
4,prac,2,1.0,1-Back,0,z,Wed Apr 09 2025 16:43:15 GMT-0500 (Central Daylight Time),239360.8999999985,126_m_m_n_a.png,O,m,1400,6,1,2175.60000000149,237185.29999999702,7124,NNB,B,5
5,prac,2,0.0,1-Back,1,m,Wed Apr 09 2025 16:43:15 GMT-0500 (Central Daylight Time),241643.69999999925,086_o_f_n_a.png,O,m,1375,7,1,2275.800000000745,239367.8999999985,7124,NNB,B,6
6,prac,2,0.0,1-Back,1,m,Wed Apr 09 2025 16:43:15 GMT-0500 (Central Daylight Time),243459.59999999776,178_m_m_n_a.png,O,m,940,8,1,1808.5,241651.09999999776,7124,NNB,B,7
7,prac,2,0.0,1-Back,1,m,Wed Apr 09 2025 16:43:15 GMT-0500 (Central Daylight Time),245109.19999999925,097_m_f_n_a.png,O,m,871,9,1,1642.4000000022352,243466.79999999702,7124,NNB,B,8
8,prac,2,1.0,1-Back,1,z,Wed Apr 09 2025 16:43:15 GMT-0500 (Central Daylight Time),246658.59999999776,097_m_f_n_a.png,O,z,774,10,1,1543.3999999985099,245115.19999999925,7124,NNB,B,9
9,prac,2,0.0,1-Back,1,m,Wed Apr 09 2025 16:43:15 GMT-0500 (Central Daylight Time),248458.09999999776,176_o_m_n_a.png,O,m,1016,11,1,1791.699999999255,246666.3999999985,7124,NNB,B,10
10,prac,2,0.0,1-Back,1,m,Wed Apr 09 2025 16:43:15 GMT-0500 (Central Daylight Time),250224.29999999702,173_y_f_n_a.png,O,m,881,12,1,1758.5999999977648,248465.69999999925,7124,NNB,B,11
0,prac,3,0.0,1-Back,,,Wed Apr 09 2025 16:43:15 GMT-0500 (Central Daylight Time),250224.29999999702,097_m_f_n_a.png,O,a,7743,1,1,1758.5999999977648,248465.69999999925,7124,NNB,B,0
0,prac,3,0.0,1-Back,0,m,Wed Apr 09 2025 16:43:15 GMT-0500 (Central Daylight Time),262786.8999999985,152_y_f_n_a.png,O,z,902,2,1,1775.5,261011.3999999985,7124,NNB,B,1
0,prac,3,1.0,1-Back,0,z,Wed Apr 09 2025 16:43:15 GMT-0500 (Central Daylight Time),264403.19999999925,152_y_f_n_a.png,O,m,841,3,1,1610.800000000745,262792.3999999985,7124,NNB,B,2
1,prac,3,0.0,1-Back,1,m,Wed Apr 09 2025 16:43:15 GMT-0500 (Central Daylight Time),266269.299999997,176_o_m_n_a.png,O,m,1080,4,1,1858.5999999977648,264410.69999999925,7124,NNB,B,3
2,prac,3,0.0,1-Back,1,m,Wed Apr 09 2025 16:43:15 GMT-0500 (Central Daylight Time),268251.8999999985,126_m_m_n_a.png,O,m,1102,5,1,1977.1000000014901,266274.799999997,7124,NNB,B,4
3,prac,3,1.0,1-Back,1,z,Wed Apr 09 2025 16:43:15 GMT-0500 (Central Daylight Time),269818.19999999925,126_m_m_n_a.png,O,z,792,6,1,1560.6000000014901,268257.59999999776,7124,NNB,B,5
4,prac,3,0.0,1-Back,1,m,Wed Apr 09 2025 16:43:15 GMT-0500 (Central Daylight Time),271650.799999997,086_o_f_n_a.png,O,m,929,7,1,1826.8999999985099,269823.8999999985,7124,NNB,B,6
5,prac,3,0.0,1-Back,1,m,Wed Apr 09 2025 16:43:15 GMT-0500 (Central Daylight Time),273767.0,178_m_m_n_a.png,O,m,1230,8,1,2108.800000000745,271658.19999999925,7124,NNB,B,7
5,prac,3,0.0,1-Back,0,m,Wed Apr 09 2025 16:43:15 GMT-0500 (Central Daylight Time),275166.299999997,097_m_f_n_a.png,O,z,613,9,1,1392.7999999970198,273773.5,7124,NNB,B,8
6,prac,3,1.0,1-Back,1,z,Wed Apr 09 2025 16:43:15 GMT-0500 (Central Daylight Time),276849.3999999985,097_m_f_n_a.png,O,z,900,10,1,1675.8999999985099,275173.5,7124,NNB,B,9
7,prac,3,0.0,1-Back,1,m,Wed Apr 09 2025 16:43:15 GMT-0500 (Central Daylight Time),278532.0,176_o_m_n_a.png,O,m,906,11,1,1676.4000000022352,276855.59999999776,7124,NNB,B,10
7,prac,3,0.0,1-Back,0,m,Wed Apr 09 2025 16:43:15 GMT-0500 (Central Daylight Time),280209.69999999925,173_y_f_n_a.png,O,z,722,12,1,1672.1000000014901,278537.59999999776,7124,NNB,B,11
0,prac,4,0.0,1-Back,,,Wed Apr 09 2025 16:43:15 GMT-0500 (Central Daylight Time),280209.69999999925,097_m_f_n_a.png,O,a,1396,1,1,1672.1000000014901,278537.59999999776,7124,NNB,B,0
1,prac,4,0.0,1-Back,1,m,Wed Apr 09 2025 16:43:15 GMT-0500 (Central Daylight Time),286513.3999999985,152_y_f_n_a.png,O,m,990,2,1,1860.699999999255,284652.69999999925,7124,NNB,B,1
2,prac,4,1.0,1-Back,1,z,Wed Apr 09 2025 16:43:15 GMT-0500 (Central Daylight Time),288095.799999997,152_y_f_n_a.png,O,z,795,3,1,1576.199999999255,286519.59999999776,7124,NNB,B,2
3,prac,4,0.0,1-Back,1,m,Wed Apr 09 2025 16:43:15 GMT-0500 (Central Daylight Time),289778.799999997,176_o_m_n_a.png,O,m,901,4,1,1677.3999999985099,288101.3999999985,7124,NNB,B,3
4,prac,4,0.0,1-Back,1,m,Wed Apr 09 2025 16:43:15 GMT-0500 (Central Daylight Time),291828.09999999776,126_m_m_n_a.png,O,m,1174,5,1,2043.699999999255,289784.3999999985,7124,NNB,B,4
5,prac,4,1.0,1-Back,1,z,Wed Apr 09 2025 16:43:15 GMT-0500 (Central Daylight Time),293227.59999999776,126_m_m_n_a.png,O,z,616,6,1,1393.300000000745,291834.299999997,7124,NNB,B,5
6,prac,4,0.0,1-Back,1,m,Wed Apr 09 2025 16:43:15 GMT-0500 (Central Daylight Time),295027.0,086_o_f_n_a.png,O,m,904,7,1,1793.5,293233.5,7124,NNB,B,6
7,prac,4,0.0,1-Back,1,m,Wed Apr 09 2025 16:43:15 GMT-0500 (Central Daylight Time),297193.0,178_m_m_n_a.png,O,m,1274,8,1,2159.400000002235,295033.59999999776,7124,NNB,B,7
8,prac,4,0.0,1-Back,1,m,Wed Apr 09 2025 16:43:15 GMT-0500 (Central Daylight Time),298709.5,097_m_f_n_a.png,O,m,739,9,1,1510.4000000022352,297199.09999999776,7124,NNB,B,8
9,prac,4,1.0,1-Back,1,z,Wed Apr 09 2025 16:43:15 GMT-0500 (Central Daylight Time),300342.19999999925,097_m_f_n_a.png,O,z,846,10,1,1625.4000000022352,298716.799999997,7124,NNB,B,9
10,prac,4,0.0,1-Back,1,m,Wed Apr 09 2025 16:43:15 GMT-0500 (Central Daylight Time),301675.09999999776,176_o_m_n_a.png,O,m,558,11,1,1326.699999999255,300348.3999999985,7124,NNB,B,10
11,prac,4,0.0,1-Back,1,m,Wed Apr 09 2025 16:43:15 GMT-0500 (Central Daylight Time),303974.299999997,173_y_f_n_a.png,O,m,1434,12,1,2294.099999997765,301680.19999999925,7124,NNB,B,11
0,test,1,0.0,1-Back,,,Wed Apr 09 2025 16:43:15 GMT-0500 (Central Daylight Time),303974.299999997,152_y_f_n_a.png,O,space,14923,1,1,2294.099999997765,301680.19999999925,7124,NNB,B,0
0,test,1,0.0,1-Back,0,m,Wed Apr 09 2025 16:43:15 GMT-0500 (Central Daylight Time),326900.5,029_m_f_n_a.png,O,z,631,2,1,1642.6000000014901,325257.8999999985,7124,NNB,B,1
0,test,1,0.0,1-Back,0,m,Wed Apr 09 2025 16:43:15 GMT-0500 (Central Daylight Time),328984.3999999985,173_y_f_n_a.png,O,z,1062,3,1,2080.39999999851,326904.0,7124,NNB,B,2
0,test,1,1.0,1-Back,0,z,Wed Apr 09 2025 16:43:15 GMT-0500 (Central Daylight Time),330899.19999999925,173_y_f_n_a.png,O,m,884,4,1,1911.0,328988.19999999925,7124,NNB,B,3
0,test,1,0.0,1-Back,0,m,Wed Apr 09 2025 16:43:15 GMT-0500 (Central Daylight Time),333381.8999999985,029_m_f_n_a.png,O,z,1463,5,1,2479.39999999851,330902.5,7124,NNB,B,4
0,test,1,0.0,1-Back,0,m,Wed Apr 09 2025 16:43:15 GMT-0500 (Central Daylight Time),335481.09999999776,176_o_m_n_a.png,O,z,1068,6,1,2094.599999997765,333386.5,7124,NNB,B,5
0,test,1,1.0,1-Back,0,z,Wed Apr 09 2025 16:43:15 GMT-0500 (Central Daylight Time),337330.59999999776,176_o_m_n_a.png,O,m,825,7,1,1845.5999999977648,335485.0,7124,NNB,B,6
0,test,1,0.0,1-Back,0,m,Wed Apr 09 2025 16:43:15 GMT-0500 (Central Daylight Time),339230.0,126_m_m_n_a.png,O,z,880,8,1,1896.1000000014901,337333.8999999985,7124,NNB,B,7
0,test,1,0.0,1-Back,0,m,Wed Apr 09 2025 16:43:15 GMT-0500 (Central Daylight Time),341246.09999999776,086_o_f_n_a.png,O,z,988,9,1,2012.800000000745,339233.299999997,7124,NNB,B,8
0,test,1,0.0,1-Back,0,m,Wed Apr 09 2025 16:43:15 GMT-0500 (Central Daylight Time),343728.59999999776,126_m_m_n_a.png,O,z,1460,10,1,2479.39999999851,341249.19999999925,7124,NNB,B,9
0,test,1,0.0,1-Back,0,m,Wed Apr 09 2025 16:43:15 GMT-0500 (Central Daylight Time),345394.8999999985,153_y_m_n_a.png,O,z,642,11,1,1663.1000000014901,343731.799999997,7124,NNB,B,10
0,test,1,1.0,1-Back,0,z,Wed Apr 09 2025 16:43:15 GMT-0500 (Central Daylight Time),347194.3999999985,153_y_m_n_a.png,O,m,768,12,1,1796.199999999255,345398.19999999925,7124,NNB,B,11
0,test,1,0.0,1-Back,0,m,Wed Apr 09 2025 16:43:15 GMT-0500 (Central Daylight Time),349043.59999999776,110_o_f_n_a.png,O,z,824,13,1,1845.699999999255,347197.8999999985,7124,NNB,B,12
0,test,1,1.0,1-Back,0,z,Wed Apr 09 2025 16:43:15 GMT-0500 (Central Daylight Time),350918.69999999925,110_o_f_n_a.png,O,m,718,14,1,1872.1000000014901,349046.59999999776,7124,NNB,B,13
0,test,1,0.0,1-Back,0,m,Wed Apr 09 2025 16:43:15 GMT-0500 (Central Daylight Time),352642.5,013_y_m_n_a.png,O,z,700,15,1,1719.1000000014901,350923.3999999985,7124,NNB,B,14
0,test,1,0.0,1-Back,0,m,Wed Apr 09 2025 16:43:15 GMT-0500 (Central Daylight Time),354825.09999999776,097_m_f_n_a.png,O,z,1152,16,1,2178.599999997765,352646.5,7124,NNB,B,15
0,test,1,0.0,1-Back,0,m,Wed Apr 09 2025 16:43:15 GMT-0500 (Central Daylight Time),356590.8999999985,065_o_m_n_a.png,O,z,736,17,1,1761.300000000745,354829.59999999776,7124,NNB,B,16
1,test,1,0.0,1-Back,1,m,Wed Apr 09 2025 16:43:15 GMT-0500 (Central Daylight Time),358257.0,097_m_f_n_a.png,O,m,634,18,1,1663.1000000014901,356593.8999999985,7124,NNB,B,17
0,test,2,0.0,1-Back,,,Wed Apr 09 2025 16:43:15 GMT-0500 (Central Daylight Time),358257.0,126_m_m_n_a.png,O,space,6921,1,1,1663.1000000014901,356593.8999999985,7124,NNB,B,0
1,test,2,0.0,1-Back,1,m,Wed Apr 09 2025 16:43:15 GMT-0500 (Central Daylight Time),370154.69999999925,029_m_f_n_a.png,O,m,1925,2,1,2946.60000000149,367208.09999999776,7124,NNB,B,1
2,test,2,1.0,1-Back,1,z,Wed Apr 09 2025 16:43:15 GMT-0500 (Central Daylight Time),372303.0,029_m_f_n_a.png,O,z,1121,3,1,2144.400000002235,370158.59999999776,7124,NNB,B,2
2,test,2,0.0,1-Back,0,m,Wed Apr 09 2025 16:43:15 GMT-0500 (Central Daylight Time),375336.3999999985,126_m_m_n_a.png,O,None,2016,4,1,3030.10000000149,372306.299999997,7124,NNB,B,3
3,test,2,0.0,1-Back,1,m,Wed Apr 09 2025 16:43:15 GMT-0500 (Central Daylight Time),377501.299999997,153_y_m_n_a.png,O,m,1139,5,1,2161.699999999255,375339.59999999776,7124,NNB,B,4
4,test,2,0.0,1-Back,1,m,Wed Apr 09 2025 16:43:15 GMT-0500 (Central Daylight Time),380283.8999999985,152_y_f_n_a.png,O,m,1757,6,1,2778.5,377505.3999999985,7124,NNB,B,5
4,test,2,1.0,1-Back,0,z,Wed Apr 09 2025 16:43:15 GMT-0500 (Central Daylight Time),383316.3999999985,152_y_f_n_a.png,O,None,2015,7,1,3028.60000000149,380287.799999997,7124,NNB,B,6
5,test,2,0.0,1-Back,1,m,Wed Apr 09 2025 16:43:15 GMT-0500 (Central Daylight Time),385250.09999999776,153_y_m_n_a.png,O,m,902,8,1,1930.800000000745,383319.299999997,7124,NNB,B,7
5,test,2,0.0,1-Back,0,m,Wed Apr 09 2025 16:43:15 GMT-0500 (Central Daylight Time),388281.3999999985,110_o_f_n_a.png,O,None,2015,9,1,3028.10000000149,385253.299999997,7124,NNB,B,8
6,test,2,0.0,1-Back,1,m,Wed Apr 09 2025 16:43:15 GMT-0500 (Central Daylight Time),391247.0,178_m_m_n_a.png,O,m,1937,10,1,2962.0,388285.0,7124,NNB,B,9
6,test,2,1.0,1-Back,0,z,Wed Apr 09 2025 16:43:15 GMT-0500 (Central Daylight Time),393879.69999999925,178_m_m_n_a.png,O,m,1603,11,1,2629.10000000149,391250.59999999776,7124,NNB,B,10
7,test,2,0.0,1-Back,1,m,Wed Apr 09 2025 16:43:15 GMT-0500 (Central Daylight Time),396178.799999997,110_o_f_n_a.png,O,m,1267,12,1,2294.699999999255,393884.09999999776,7124,NNB,B,11
8,test,2,0.0,1-Back,1,m,Wed Apr 09 2025 16:43:15 GMT-0500 (Central Daylight Time),398055.59999999776,086_o_f_n_a.png,O,m,859,13,1,1872.5999999977648,396183.0,7124,NNB,B,12
9,test,2,0.0,1-Back,1,m,Wed Apr 09 2025 16:43:15 GMT-0500 (Central Daylight Time),400427.5,176_o_m_n_a.png,O,m,1349,14,1,2368.400000002235,398059.09999999776,7124,NNB,B,13
10,test,2,0.0,1-Back,1,m,Wed Apr 09 2025 16:43:15 GMT-0500 (Central Daylight Time),402543.59999999776,065_o_m_n_a.png,O,m,1095,15,1,2112.89999999851,400430.69999999925,7124,NNB,B,14
10,test,2,1.0,1-Back,0,z,Wed Apr 09 2025 16:43:15 GMT-0500 (Central Daylight Time),405575.8999999985,065_o_m_n_a.png,O,None,2016,16,1,3028.800000000745,402547.09999999776,7124,NNB,B,15
11,test,2,0.0,1-Back,1,m,Wed Apr 09 2025 16:43:15 GMT-0500 (Central Daylight Time),407392.09999999776,013_y_m_n_a.png,O,m,794,17,1,1813.199999999255,405578.8999999985,7124,NNB,B,16
11,test,2,1.0,1-Back,0,z,Wed Apr 09 2025 16:43:15 GMT-0500 (Central Daylight Time),410424.5,013_y_m_n_a.png,O,None,2015,18,1,3029.400000002235,407395.09999999776,7124,NNB,B,17
0,test,3,1.0,1-Back,,,Wed Apr 09 2025 16:43:15 GMT-0500 (Central Daylight Time),410424.5,173_y_f_n_a.png,O,space,11172,1,1,3029.400000002235,407395.09999999776,7124,NNB,B,0
0,test,3,0.0,1-Back,0,m,Wed Apr 09 2025 16:43:15 GMT-0500 (Central Daylight Time),426569.19999999925,065_o_m_n_a.png,O,z,1809,1,1,2827.60000000149,423741.59999999776,7124,NNB,B,1
0,test,3,1.0,1-Back,0,z,Wed Apr 09 2025 16:43:15 GMT-0500 (Central Daylight Time),429601.8999999985,065_o_m_n_a.png,O,None,2016,1,1,3029.5,426572.3999999985,7124,NNB,B,2
1,test,3,0.0,1-Back,1,m,Wed Apr 09 2025 16:43:15 GMT-0500 (Central Daylight Time),432151.0,097_m_f_n_a.png,O,m,1528,1,1,2546.2000000029802,429604.799999997,7124,NNB,B,3
1,test,3,1.0,1-Back,0,z,Wed Apr 09 2025 16:43:15 GMT-0500 (Central Daylight Time),435183.3999999985,097_m_f_n_a.png,O,None,2015,1,1,3029.300000000745,432154.09999999776,7124,NNB,B,4
1,test,3,0.0,1-Back,0,m,Wed Apr 09 2025 16:43:15 GMT-0500 (Central Daylight Time),438215.5,110_o_f_n_a.png,O,None,2015,1,1,3028.60000000149,435186.8999999985,7124,NNB,B,5
1,test,3,0.0,1-Back,0,m,Wed Apr 09 2025 16:43:15 GMT-0500 (Central Daylight Time),441114.799999997,153_y_m_n_a.png,O,z,1874,1,1,2896.2999999970198,438218.5,7124,NNB,B,6
1,test,3,0.0,1-Back,0,m,Wed Apr 09 2025 16:43:15 GMT-0500 (Central Daylight Time),444147.19999999925,110_o_f_n_a.png,O,None,2015,1,1,3029.300000000745,441117.8999999985,7124,NNB,B,7
1,test,3,0.0,1-Back,0,m,Wed Apr 09 2025 16:43:15 GMT-0500 (Central Daylight Time),446413.19999999925,013_y_m_n_a.png,O,z,1244,1,1,2262.60000000149,444150.59999999776,7124,NNB,B,8
1,test,3,1.0,1-Back,0,z,Wed Apr 09 2025 16:43:15 GMT-0500 (Central Daylight Time),449012.3999999985,013_y_m_n_a.png,O,m,1581,1,1,2595.300000000745,446417.09999999776,7124,NNB,B,9
1,test,3,0.0,1-Back,0,m,Wed Apr 09 2025 16:43:15 GMT-0500 (Central Daylight Time),452044.8999999985,029_m_f_n_a.png,O,None,2016,1,1,3029.60000000149,449015.299999997,7124,NNB,B,10
2,test,3,0.0,1-Back,1,m,Wed Apr 09 2025 16:43:15 GMT-0500 (Central Daylight Time),454460.59999999776,152_y_f_n_a.png,O,m,1397,1,1,2411.699999999255,452048.8999999985,7124,NNB,B,11
2,test,3,1.0,1-Back,0,z,Wed Apr 09 2025 16:43:15 GMT-0500 (Central Daylight Time),456659.59999999776,152_y_f_n_a.png,O,m,1182,1,1,2195.599999997765,454464.0,7124,NNB,B,12
2,test,3,0.0,1-Back,0,m,Wed Apr 09 2025 16:43:15 GMT-0500 (Central Daylight Time),459692.299999997,029_m_f_n_a.png,O,None,2015,1,1,3029.199999999255,456663.09999999776,7124,NNB,B,13
3,test,3,0.0,1-Back,1,m,Wed Apr 09 2025 16:43:15 GMT-0500 (Central Daylight Time),461575.0,126_m_m_n_a.png,O,m,862,1,1,1879.6000000014901,459695.3999999985,7124,NNB,B,14
4,test,3,1.0,1-Back,1,z,Wed Apr 09 2025 16:43:15 GMT-0500 (Central Daylight Time),463407.799999997,126_m_m_n_a.png,O,z,803,1,1,1829.5,461578.299999997,7124,NNB,B,15
5,test,3,0.0,1-Back,1,m,Wed Apr 09 2025 16:43:15 GMT-0500 (Central Daylight Time),465273.799999997,086_o_f_n_a.png,O,m,842,1,1,1861.699999999255,463412.09999999776,7124,NNB,B,16
6,test,3,1.0,1-Back,1,z,Wed Apr 09 2025 16:43:15 GMT-0500 (Central Daylight Time),468073.0,086_o_f_n_a.png,O,z,1776,1,1,2796.2000000029802,465276.799999997,7124,NNB,B,17
0,test,4,1.0,1-Back,,,Wed Apr 09 2025 16:43:15 GMT-0500 (Central Daylight Time),468073.0,097_m_f_n_a.png,O,space,12273,1,1,2796.2000000029802,465276.799999997,7124,NNB,B,0
0,test,4,0.0,1-Back,0,m,Wed Apr 09 2025 16:43:15 GMT-0500 (Central Daylight Time),485484.19999999925,065_o_m_n_a.png,O,None,2015,2,1,3028.5,482455.69999999925,7124,NNB,B,1
1,test,4,0.0,1-Back,1,m,Wed Apr 09 2025 16:43:15 GMT-0500 (Central Daylight Time),487883.299999997,097_m_f_n_a.png,O,m,1382,3,1,2395.599999997765,485487.69999999925,7124,NNB,B,2
2,test,4,0.0,1-Back,1,m,Wed Apr 09 2025 16:43:15 GMT-0500 (Central Daylight Time),490582.69999999925,110_o_f_n_a.png,O,m,1679,4,1,2695.900000002235,487886.799999997,7124,NNB,B,3
3,test,4,1.0,1-Back,1,z,Wed Apr 09 2025 16:43:15 GMT-0500 (Central Daylight Time),492948.59999999776,110_o_f_n_a.png,O,z,1339,5,1,2362.89999999851,490585.69999999925,7124,NNB,B,4
4,test,4,0.0,1-Back,1,m,Wed Apr 09 2025 16:43:15 GMT-0500 (Central Daylight Time),495064.69999999925,152_y_f_n_a.png,O,m,1086,6,1,2112.60000000149,492952.09999999776,7124,NNB,B,5
5,test,4,0.0,1-Back,1,m,Wed Apr 09 2025 16:43:15 GMT-0500 (Central Daylight Time),497147.299999997,153_y_m_n_a.png,O,m,1066,7,1,2079.5,495067.799999997,7124,NNB,B,6
5,test,4,1.0,1-Back,0,z,Wed Apr 09 2025 16:43:15 GMT-0500 (Central Daylight Time),499096.59999999776,153_y_m_n_a.png,O,m,919,8,1,1946.300000000745,497150.299999997,7124,NNB,B,7
6,test,4,0.0,1-Back,1,m,Wed Apr 09 2025 16:43:15 GMT-0500 (Central Daylight Time),500962.69999999925,152_y_f_n_a.png,O,m,841,9,1,1862.9000000022352,499099.799999997,7124,NNB,B,8
7,test,4,0.0,1-Back,1,m,Wed Apr 09 2025 16:43:15 GMT-0500 (Central Daylight Time),502828.799999997,178_m_m_n_a.png,O,m,839,10,1,1862.699999999255,500966.09999999776,7124,NNB,B,9
8,test,4,1.0,1-Back,1,z,Wed Apr 09 2025 16:43:15 GMT-0500 (Central Daylight Time),504561.59999999776,178_m_m_n_a.png,O,z,701,11,1,1729.300000000745,502832.299999997,7124,NNB,B,10
9,test,4,0.0,1-Back,1,m,Wed Apr 09 2025 16:43:15 GMT-0500 (Central Daylight Time),506527.69999999925,086_o_f_n_a.png,O,m,945,12,1,1962.6000000014901,504565.09999999776,7124,NNB,B,11
10,test,4,0.0,1-Back,1,m,Wed Apr 09 2025 16:43:15 GMT-0500 (Central Daylight Time),508677.19999999925,176_o_m_n_a.png,O,m,1122,13,1,2145.800000000745,506531.3999999985,7124,NNB,B,12
11,test,4,0.0,1-Back,1,m,Wed Apr 09 2025 16:43:15 GMT-0500 (Central Daylight Time),511392.69999999925,086_o_f_n_a.png,O,m,1693,14,1,2711.199999999255,508681.5,7124,NNB,B,13
12,test,4,0.0,1-Back,1,m,Wed Apr 09 2025 16:43:15 GMT-0500 (Central Daylight Time),513309.0,173_y_f_n_a.png,O,m,897,15,1,1913.300000000745,511395.69999999925,7124,NNB,B,14
13,test,4,1.0,1-Back,1,z,Wed Apr 09 2025 16:43:15 GMT-0500 (Central Daylight Time),516241.09999999776,173_y_f_n_a.png,O,z,1901,16,1,2929.0,513312.09999999776,7124,NNB,B,15
14,test,4,0.0,1-Back,1,m,Wed Apr 09 2025 16:43:15 GMT-0500 (Central Daylight Time),518307.299999997,029_m_f_n_a.png,O,m,1049,17,1,2063.0,516244.299999997,7124,NNB,B,16
14,test,4,1.0,1-Back,0,z,Wed Apr 09 2025 16:43:15 GMT-0500 (Central Daylight Time),520223.5,029_m_f_n_a.png,O,m,895,18,1,1913.0,518310.5,7124,NNB,B,17
0,test,5,1.0,1-Back,,,Wed Apr 09 2025 16:43:15 GMT-0500 (Central Daylight Time),520223.5,176_o_m_n_a.png,O,space,7851,1,1,1913.0,518310.5,7124,NNB,B,0
1,test,5,1.0,1-Back,1,z,Wed Apr 09 2025 16:43:15 GMT-0500 (Central Daylight Time),532203.0999999978,176_o_m_n_a.png,O,z,1075,2,1,2095.099999997765,530108.0,7124,NNB,B,1
1,test,5,0.0,1-Back,0,m,Wed Apr 09 2025 16:43:15 GMT-0500 (Central Daylight Time),534902.0,152_y_f_n_a.png,O,z,1671,3,1,2696.0,532206.0,7124,NNB,B,2
2,test,5,0.0,1-Back,1,m,Wed Apr 09 2025 16:43:15 GMT-0500 (Central Daylight Time),537018.1999999993,153_y_m_n_a.png,O,m,1092,4,1,2113.10000000149,534905.0999999978,7124,NNB,B,3
3,test,5,0.0,1-Back,1,m,Wed Apr 09 2025 16:43:15 GMT-0500 (Central Daylight Time),538934.3999999985,152_y_f_n_a.png,O,m,888,5,1,1913.199999999255,537021.1999999993,7124,NNB,B,4
4,test,5,0.0,1-Back,1,m,Wed Apr 09 2025 16:43:15 GMT-0500 (Central Daylight Time),540983.6999999993,126_m_m_n_a.png,O,m,1028,6,1,2046.300000000745,538937.3999999985,7124,NNB,B,5
5,test,5,1.0,1-Back,1,z,Wed Apr 09 2025 16:43:15 GMT-0500 (Central Daylight Time),542649.5999999978,126_m_m_n_a.png,O,z,642,7,1,1662.0,540987.5999999978,7124,NNB,B,6
6,test,5,0.0,1-Back,1,m,Wed Apr 09 2025 16:43:15 GMT-0500 (Central Daylight Time),544332.5999999978,173_y_f_n_a.png,O,m,665,8,1,1679.800000000745,542652.799999997,7124,NNB,B,7
7,test,5,0.0,1-Back,1,m,Wed Apr 09 2025 16:43:15 GMT-0500 (Central Daylight Time),546331.8999999985,013_y_m_n_a.png,O,m,982,9,1,1995.800000000745,544336.0999999978,7124,NNB,B,8
8,test,5,0.0,1-Back,1,m,Wed Apr 09 2025 16:43:15 GMT-0500 (Central Daylight Time),548081.3999999985,173_y_f_n_a.png,O,m,718,10,1,1746.199999999255,546335.1999999993,7124,NNB,B,9
9,test,5,0.0,1-Back,1,m,Wed Apr 09 2025 16:43:15 GMT-0500 (Central Daylight Time),549714.0,086_o_f_n_a.png,O,m,601,11,1,1629.4000000022352,548084.5999999978,7124,NNB,B,10
9,test,5,1.0,1-Back,0,z,Wed Apr 09 2025 16:43:15 GMT-0500 (Central Daylight Time),552163.3999999985,086_o_f_n_a.png,O,m,1424,12,1,2446.10000000149,549717.299999997,7124,NNB,B,11
10,test,5,0.0,1-Back,1,m,Wed Apr 09 2025 16:43:15 GMT-0500 (Central Daylight Time),553896.0,065_o_m_n_a.png,O,m,711,13,1,1729.5,552166.5,7124,NNB,B,12
11,test,5,0.0,1-Back,1,m,Wed Apr 09 2025 16:43:15 GMT-0500 (Central Daylight Time),555479.1999999993,097_m_f_n_a.png,O,m,562,14,1,1580.1000000014901,553899.0999999978,7124,NNB,B,13
12,test,5,1.0,1-Back,1,z,Wed Apr 09 2025 16:43:15 GMT-0500 (Central Daylight Time),556928.5,097_m_f_n_a.png,O,z,419,15,1,1446.2000000029802,555482.299999997,7124,NNB,B,14
13,test,5,0.0,1-Back,1,m,Wed Apr 09 2025 16:43:15 GMT-0500 (Central Daylight Time),558744.6999999993,065_o_m_n_a.png,O,m,793,16,1,1812.5,556932.1999999993,7124,NNB,B,15
14,test,5,0.0,1-Back,1,m,Wed Apr 09 2025 16:43:15 GMT-0500 (Central Daylight Time),560244.0999999978,029_m_f_n_a.png,O,m,473,17,1,1496.199999999255,558747.8999999985,7124,NNB,B,16
15,test,5,0.0,1-Back,1,m,Wed Apr 09 2025 16:43:15 GMT-0500 (Central Daylight Time),562243.6999999993,178_m_m_n_a.png,O,m,966,18,1,1996.1000000014901,560247.5999999978,7124,NNB,B,17
0,prac,1,0.0,2-Back,,,Wed Apr 09 2025 16:43:15 GMT-0500 (Central Daylight Time),562243.6999999993,013_y_m_n_a.png,O,space,24664,1,1,1996.1000000014901,560247.5999999978,7124,NNB,B,0
0,prac,1,0.0,2-Back,,,Wed Apr 09 2025 16:43:15 GMT-0500 (Central Daylight Time),562243.6999999993,029_m_f_n_a.png,O,space,24664,2,1,1996.1000000014901,560247.5999999978,7124,NNB,B,0
0,prac,1,1.0,2-Back,0,m,Wed Apr 09 2025 16:43:15 GMT-0500 (Central Daylight Time),833325.5999999978,065_o_m_n_a.png,O,z,687,3,1,1561.0,831764.5999999978,7124,NNB,B,1
0,prac,1,0.0,2-Back,0,m,Wed Apr 09 2025 16:43:15 GMT-0500 (Central Daylight Time),836224.6999999993,086_o_f_n_a.png,O,None,2013,4,1,2893.5,833331.1999999993,7124,NNB,B,2
0,prac,1,0.0,2-Back,0,z,Wed Apr 09 2025 16:43:15 GMT-0500 (Central Daylight Time),838274.0,065_o_m_n_a.png,O,m,1270,5,1,2044.0,836230.0,7124,NNB,B,3
1,prac,1,1.0,2-Back,1,z,Wed Apr 09 2025 16:43:15 GMT-0500 (Central Daylight Time),840640.0,086_o_f_n_a.png,O,z,1587,6,1,2360.60000000149,838279.3999999985,7124,NNB,B,4
1,prac,1,0.0,2-Back,0,m,Wed Apr 09 2025 16:43:15 GMT-0500 (Central Daylight Time),843122.5,178_m_m_n_a.png,O,z,1617,7,1,2477.2000000029802,840645.299999997,7124,NNB,B,5
2,prac,1,0.0,2-Back,1,m,Wed Apr 09 2025 16:43:15 GMT-0500 (Central Daylight Time),845704.8999999985,176_o_m_n_a.png,O,m,1696,8,1,2575.300000000745,843129.5999999978,7124,NNB,B,6
3,prac,1,0.0,2-Back,1,m,Wed Apr 09 2025 16:43:15 GMT-0500 (Central Daylight Time),848154.3999999985,173_y_f_n_a.png,O,m,1579,9,1,2444.10000000149,845710.299999997,7124,NNB,B,7
4,prac,1,1.0,2-Back,1,z,Wed Apr 09 2025 16:43:15 GMT-0500 (Central Daylight Time),849987.0999999978,176_o_m_n_a.png,O,z,1059,10,1,1827.8999999985099,848159.1999999993,7124,NNB,B,8
5,prac,1,0.0,2-Back,1,m,Wed Apr 09 2025 16:43:15 GMT-0500 (Central Daylight Time),852619.6999999993,152_y_f_n_a.png,O,m,1761,11,1,2627.5,849992.1999999993,7124,NNB,B,9
6,prac,1,0.0,2-Back,1,m,Wed Apr 09 2025 16:43:15 GMT-0500 (Central Daylight Time),854936.6999999993,178_m_m_n_a.png,O,m,1544,12,1,2310.5,852626.1999999993,7124,NNB,B,10
0,prac,2,0.0,2-Back,,,Wed Apr 09 2025 16:43:15 GMT-0500 (Central Daylight Time),854936.6999999993,013_y_m_n_a.png,O,a,2831,1,1,2310.5,852626.1999999993,7124,NNB,B,0
0,prac,2,0.0,2-Back,,,Wed Apr 09 2025 16:43:15 GMT-0500 (Central Daylight Time),854936.6999999993,029_m_f_n_a.png,O,a,2831,2,1,2310.5,852626.1999999993,7124,NNB,B,0
1,prac,2,1.0,2-Back,1,m,Wed Apr 09 2025 16:43:15 GMT-0500 (Central Daylight Time),865249.0999999978,065_o_m_n_a.png,O,m,1324,3,1,2194.099999997765,863055.0,7124,NNB,B,1
2,prac,2,0.0,2-Back,1,m,Wed Apr 09 2025 16:43:15 GMT-0500 (Central Daylight Time),867181.6999999993,086_o_f_n_a.png,O,m,1042,4,1,1926.699999999255,865255.0,7124,NNB,B,2
3,prac,2,0.0,2-Back,1,z,Wed Apr 09 2025 16:43:15 GMT-0500 (Central Daylight Time),868828.3999999985,065_o_m_n_a.png,O,z,751,5,1,1641.199999999255,867187.1999999993,7124,NNB,B,3
4,prac,2,1.0,2-Back,1,z,Wed Apr 09 2025 16:43:15 GMT-0500 (Central Daylight Time),871180.3999999985,086_o_f_n_a.png,O,z,1567,6,1,2345.39999999851,868835.0,7124,NNB,B,4
5,prac,2,0.0,2-Back,1,m,Wed Apr 09 2025 16:43:15 GMT-0500 (Central Daylight Time),873213.1999999993,178_m_m_n_a.png,O,m,1248,7,1,2026.6000000014901,871186.5999999978,7124,NNB,B,5
6,prac,2,0.0,2-Back,1,m,Wed Apr 09 2025 16:43:15 GMT-0500 (Central Daylight Time),875345.6999999993,176_o_m_n_a.png,O,m,1247,8,1,2126.10000000149,873219.5999999978,7124,NNB,B,6
7,prac,2,0.0,2-Back,1,m,Wed Apr 09 2025 16:43:15 GMT-0500 (Central Daylight Time),878028.299999997,173_y_f_n_a.png,O,m,1819,9,1,2677.699999999255,875350.5999999978,7124,NNB,B,7
8,prac,2,1.0,2-Back,1,z,Wed Apr 09 2025 16:43:15 GMT-0500 (Central Daylight Time),879677.799999997,176_o_m_n_a.png,O,z,864,10,1,1643.699999999255,878034.0999999978,7124,NNB,B,8
8,prac,2,0.0,2-Back,0,m,Wed Apr 09 2025 16:43:15 GMT-0500 (Central Daylight Time),882543.5,152_y_f_n_a.png,O,None,2006,11,1,2861.0,879682.5,7124,NNB,B,9
8,prac,2,0.0,2-Back,0,m,Wed Apr 09 2025 16:43:15 GMT-0500 (Central Daylight Time),885325.799999997,178_m_m_n_a.png,O,None,2011,12,1,2777.199999999255,882548.5999999978,7124,NNB,B,10
0,test,1,0.0,2-Back,,,Wed Apr 09 2025 16:43:15 GMT-0500 (Central Daylight Time),885325.799999997,153_y_m_n_a.png,O,space,16783,1,1,2777.199999999255,882548.5999999978,7124,NNB,B,0
0,test,1,0.0,2-Back,,,Wed Apr 09 2025 16:43:15 GMT-0500 (Central Daylight Time),885325.799999997,153_y_m_n_a.png,O,space,16783,2,1,2777.199999999255,882548.5999999978,7124,NNB,B,0
1,test,1,0.0,2-Back,1,m,Wed Apr 09 2025 16:43:15 GMT-0500 (Central Daylight Time),922147.799999997,086_o_f_n_a.png,O,m,650,3,1,1679.2999999970198,920468.5,7124,NNB,B,1
2,test,1,0.0,2-Back,1,m,Wed Apr 09 2025 16:43:15 GMT-0500 (Central Daylight Time),924463.799999997,126_m_m_n_a.png,O,m,1286,4,1,2313.099999997765,922150.6999999993,7124,NNB,B,2
2,test,1,1.0,2-Back,0,z,Wed Apr 09 2025 16:43:15 GMT-0500 (Central Daylight Time),927329.3999999985,086_o_f_n_a.png,O,m,1842,5,1,2862.5,924466.8999999985,7124,NNB,B,3
3,test,1,0.0,2-Back,1,m,Wed Apr 09 2025 16:43:15 GMT-0500 (Central Daylight Time),930211.5,152_y_f_n_a.png,O,m,1865,6,1,2878.300000000745,927333.1999999993,7124,NNB,B,4
3,test,1,0.0,2-Back,0,m,Wed Apr 09 2025 16:43:15 GMT-0500 (Central Daylight Time),933244.299999997,126_m_m_n_a.png,O,None,2015,7,1,3029.5,930214.799999997,7124,NNB,B,5
4,test,1,1.0,2-Back,1,z,Wed Apr 09 2025 16:43:15 GMT-0500 (Central Daylight Time),935193.5999999978,152_y_f_n_a.png,O,z,918,8,1,1945.699999999255,933247.8999999985,7124,NNB,B,6
4,test,1,0.0,2-Back,0,m,Wed Apr 09 2025 16:43:15 GMT-0500 (Central Daylight Time),938226.1999999993,013_y_m_n_a.png,O,None,2015,9,1,3029.199999999255,935197.0,7124,NNB,B,7
4,test,1,0.0,2-Back,0,m,Wed Apr 09 2025 16:43:15 GMT-0500 (Central Daylight Time),941258.6999999993,110_o_f_n_a.png,O,None,2016,10,1,3029.0,938229.6999999993,7124,NNB,B,8
5,test,1,1.0,2-Back,1,z,Wed Apr 09 2025 16:43:15 GMT-0500 (Central Daylight Time),943341.1999999993,013_y_m_n_a.png,O,z,1056,11,1,2079.0,941262.1999999993,7124,NNB,B,9
5,test,1,0.0,2-Back,0,m,Wed Apr 09 2025 16:43:15 GMT-0500 (Central Daylight Time),946373.5999999978,029_m_f_n_a.png,O,None,2015,12,1,3029.199999999255,943344.3999999985,7124,NNB,B,10
6,test,1,0.0,2-Back,1,m,Wed Apr 09 2025 16:43:15 GMT-0500 (Central Daylight Time),948106.3999999985,029_m_f_n_a.png,O,m,708,13,1,1729.0,946377.3999999985,7124,NNB,B,11
6,test,1,0.0,2-Back,0,m,Wed Apr 09 2025 16:43:15 GMT-0500 (Central Daylight Time),951138.799999997,065_o_m_n_a.png,O,None,2016,14,1,3029.2999999970198,948109.5,7124,NNB,B,12
6,test,1,0.0,2-Back,0,m,Wed Apr 09 2025 16:43:15 GMT-0500 (Central Daylight Time),953105.0,110_o_f_n_a.png,O,z,935,15,1,1963.2000000029802,951141.799999997,7124,NNB,B,13
7,test,1,1.0,2-Back,1,z,Wed Apr 09 2025 16:43:15 GMT-0500 (Central Daylight Time),955487.0,065_o_m_n_a.png,O,z,1362,16,1,2378.800000000745,953108.1999999993,7124,NNB,B,14
7,test,1,0.0,2-Back,0,m,Wed Apr 09 2025 16:43:15 GMT-0500 (Central Daylight Time),958519.6999999993,097_m_f_n_a.png,O,None,2016,17,1,3029.400000002235,955490.299999997,7124,NNB,B,15
8,test,1,0.0,2-Back,1,m,Wed Apr 09 2025 16:43:15 GMT-0500 (Central Daylight Time),961169.0,178_m_m_n_a.png,O,m,1626,18,1,2646.10000000149,958522.8999999985,7124,NNB,B,16
0,test,2,0.0,2-Back,,,Wed Apr 09 2025 16:43:15 GMT-0500 (Central Daylight Time),961169.0,178_m_m_n_a.png,O,space,8337,1,1,2646.10000000149,958522.8999999985,7124,NNB,B,0
0,test,2,0.0,2-Back,,,Wed Apr 09 2025 16:43:15 GMT-0500 (Central Daylight Time),961169.0,173_y_f_n_a.png,O,space,8337,2,1,2646.10000000149,958522.8999999985,7124,NNB,B,0
0,test,2,1.0,2-Back,0,z,Wed Apr 09 2025 16:43:15 GMT-0500 (Central Daylight Time),977580.1999999993,178_m_m_n_a.png,O,m,1914,3,1,2927.699999999255,974652.5,7124,NNB,B,1
1,test,2,0.0,2-Back,1,m,Wed Apr 09 2025 16:43:15 GMT-0500 (Central Daylight Time),980162.8999999985,097_m_f_n_a.png,O,m,1550,4,1,2579.800000000745,977583.0999999978,7124,NNB,B,2
1,test,2,0.0,2-Back,0,m,Wed Apr 09 2025 16:43:15 GMT-0500 (Central Daylight Time),982295.5,173_y_f_n_a.png,O,z,1111,5,1,2129.5,980166.0,7124,NNB,B,3
2,test,2,0.0,2-Back,1,m,Wed Apr 09 2025 16:43:15 GMT-0500 (Central Daylight Time),985028.1999999993,065_o_m_n_a.png,O,m,1707,6,1,2729.5,982298.6999999993,7124,NNB,B,4
3,test,2,0.0,2-Back,1,m,Wed Apr 09 2025 16:43:15 GMT-0500 (Central Daylight Time),987677.3999999985,152_y_f_n_a.png,O,m,1630,7,1,2645.300000000745,985032.0999999978,7124,NNB,B,5
4,test,2,1.0,2-Back,1,z,Wed Apr 09 2025 16:43:15 GMT-0500 (Central Daylight Time),990409.5999999978,065_o_m_n_a.png,O,z,1701,8,1,2728.699999999255,987680.8999999985,7124,NNB,B,6
5,test,2,0.0,2-Back,1,m,Wed Apr 09 2025 16:43:15 GMT-0500 (Central Daylight Time),992725.5999999978,013_y_m_n_a.png,O,m,1288,9,1,2312.099999997765,990413.5,7124,NNB,B,7
5,test,2,0.0,2-Back,0,m,Wed Apr 09 2025 16:43:15 GMT-0500 (Central Daylight Time),995191.5999999978,013_y_m_n_a.png,O,z,1444,10,1,2462.0,992729.5999999978,7124,NNB,B,8
5,test,2,0.0,2-Back,0,m,Wed Apr 09 2025 16:43:15 GMT-0500 (Central Daylight Time),997824.1999999993,029_m_f_n_a.png,O,z,1602,11,1,2628.800000000745,995195.3999999985,7124,NNB,B,9
6,test,2,0.0,2-Back,1,m,Wed Apr 09 2025 16:43:15 GMT-0500 (Central Daylight Time),1000206.8999999985,173_y_f_n_a.png,O,m,1362,12,1,2379.300000000745,997827.5999999978,7124,NNB,B,10
6,test,2,1.0,2-Back,0,z,Wed Apr 09 2025 16:43:15 GMT-0500 (Central Daylight Time),1002789.299999997,029_m_f_n_a.png,O,m,1563,13,1,2579.39999999851,1000209.8999999985,7124,NNB,B,11
7,test,2,0.0,2-Back,1,m,Wed Apr 09 2025 16:43:15 GMT-0500 (Central Daylight Time),1004705.299999997,176_o_m_n_a.png,O,m,885,14,1,1912.5999999977648,1002792.6999999993,7124,NNB,B,12
7,test,2,0.0,2-Back,0,m,Wed Apr 09 2025 16:43:15 GMT-0500 (Central Daylight Time),1006837.8999999985,176_o_m_n_a.png,O,z,1113,15,1,2129.60000000149,1004708.299999997,7124,NNB,B,13
7,test,2,0.0,2-Back,0,m,Wed Apr 09 2025 16:43:15 GMT-0500 (Central Daylight Time),1009870.5999999978,110_o_f_n_a.png,O,None,2015,16,1,3029.199999999255,1006841.3999999985,7124,NNB,B,14
8,test,2,0.0,2-Back,1,m,Wed Apr 09 2025 16:43:15 GMT-0500 (Central Daylight Time),1011969.8999999985,126_m_m_n_a.png,O,m,1068,17,1,2096.300000000745,1009873.5999999978,7124,NNB,B,15
9,test,2,1.0,2-Back,1,z,Wed Apr 09 2025 16:43:15 GMT-0500 (Central Daylight Time),1014119.0999999978,110_o_f_n_a.png,O,z,1128,18,1,2145.800000000745,1011973.299999997,7124,NNB,B,16
0,test,3,1.0,2-Back,,,Wed Apr 09 2025 16:43:15 GMT-0500 (Central Daylight Time),1014119.0999999978,153_y_m_n_a.png,O,space,37635,1,1,2145.800000000745,1011973.299999997,7124,NNB,B,0
0,test,3,1.0,2-Back,,,Wed Apr 09 2025 16:43:15 GMT-0500 (Central Daylight Time),1014119.0999999978,153_y_m_n_a.png,O,space,37635,2,1,2145.800000000745,1011973.299999997,7124,NNB,B,0
1,test,3,0.0,2-Back,1,m,Wed Apr 09 2025 16:43:15 GMT-0500 (Central Daylight Time),1059588.0999999978,110_o_f_n_a.png,O,m,1664,3,1,2679.099999997765,1056909.0,7124,NNB,B,1
2,test,3,0.0,2-Back,1,m,Wed Apr 09 2025 16:43:15 GMT-0500 (Central Daylight Time),1062487.299999997,178_m_m_n_a.png,O,m,1879,4,1,2896.199999999255,1059591.0999999978,7124,NNB,B,2
3,test,3,1.0,2-Back,1,z,Wed Apr 09 2025 16:43:15 GMT-0500 (Central Daylight Time),1065153.1999999993,110_o_f_n_a.png,O,z,1642,5,1,2662.60000000149,1062490.5999999978,7124,NNB,B,3
3,test,3,0.0,2-Back,0,m,Wed Apr 09 2025 16:43:15 GMT-0500 (Central Daylight Time),1068185.5999999978,013_y_m_n_a.png,O,None,2015,6,1,3028.599999997765,1065157.0,7124,NNB,B,4
4,test,3,0.0,2-Back,1,m,Wed Apr 09 2025 16:43:15 GMT-0500 (Central Daylight Time),1070718.0,178_m_m_n_a.png,O,m,1505,7,1,2528.800000000745,1068189.1999999993,7124,NNB,B,5
4,test,3,1.0,2-Back,0,z,Wed Apr 09 2025 16:43:15 GMT-0500 (Central Daylight Time),1073383.6999999993,013_y_m_n_a.png,O,m,1644,8,1,2662.60000000149,1070721.0999999978,7124,NNB,B,6
5,test,3,0.0,2-Back,1,m,Wed Apr 09 2025 16:43:15 GMT-0500 (Central Daylight Time),1075599.6999999993,173_y_f_n_a.png,O,m,1194,9,1,2212.900000002235,1073386.799999997,7124,NNB,B,7
5,test,3,0.0,2-Back,0,m,Wed Apr 09 2025 16:43:15 GMT-0500 (Central Daylight Time),1077299.3999999985,126_m_m_n_a.png,O,z,674,10,1,1696.6000000014901,1075602.799999997,7124,NNB,B,8
5,test,3,1.0,2-Back,0,z,Wed Apr 09 2025 16:43:15 GMT-0500 (Central Daylight Time),1079448.5,173_y_f_n_a.png,O,m,1128,11,1,2145.900000002235,1077302.5999999978,7124,NNB,B,9
5,test,3,1.0,2-Back,0,z,Wed Apr 09 2025 16:43:15 GMT-0500 (Central Daylight Time),1082482.299999997,126_m_m_n_a.png,O,None,2016,12,1,3030.099999997765,1079452.1999999993,7124,NNB,B,10
6,test,3,0.0,2-Back,1,m,Wed Apr 09 2025 16:43:15 GMT-0500 (Central Daylight Time),1083964.0999999978,110_o_f_n_a.png,O,m,449,13,1,1478.5,1082485.5999999978,7124,NNB,B,11
7,test,3,0.0,2-Back,1,m,Wed Apr 09 2025 16:43:15 GMT-0500 (Central Daylight Time),1086379.799999997,097_m_f_n_a.png,O,m,1398,14,1,2412.5,1083967.299999997,7124,NNB,B,12
8,test,3,0.0,2-Back,1,m,Wed Apr 09 2025 16:43:15 GMT-0500 (Central Daylight Time),1088595.5999999978,065_o_m_n_a.png,O,m,1190,15,1,2212.800000000745,1086382.799999997,7124,NNB,B,13
8,test,3,1.0,2-Back,0,z,Wed Apr 09 2025 16:43:15 GMT-0500 (Central Daylight Time),1090644.799999997,097_m_f_n_a.png,O,m,1022,16,1,2045.699999999255,1088599.0999999978,7124,NNB,B,14
9,test,3,0.0,2-Back,1,m,Wed Apr 09 2025 16:43:15 GMT-0500 (Central Daylight Time),1092894.3999999985,086_o_f_n_a.png,O,m,1221,17,1,2246.0,1090648.3999999985,7124,NNB,B,15
9,test,3,0.0,2-Back,0,m,Wed Apr 09 2025 16:43:15 GMT-0500 (Central Daylight Time),1094843.6999999993,086_o_f_n_a.png,O,z,932,18,1,1946.199999999255,1092897.5,7124,NNB,B,16
0,test,4,0.0,2-Back,,,Wed Apr 09 2025 16:43:15 GMT-0500 (Central Daylight Time),1094843.6999999993,176_o_m_n_a.png,O,space,5551,1,1,1946.199999999255,1092897.5,7124,NNB,B,0
0,test,4,0.0,2-Back,,,Wed Apr 09 2025 16:43:15 GMT-0500 (Central Daylight Time),1094843.6999999993,152_y_f_n_a.png,O,space,5551,2,1,1946.199999999255,1092897.5,7124,NNB,B,0
0,test,4,1.0,2-Back,0,z,Wed Apr 09 2025 16:43:15 GMT-0500 (Central Daylight Time),1107140.0999999978,176_o_m_n_a.png,O,m,467,3,1,1495.8999999985099,1105644.1999999993,7124,NNB,B,1
0,test,4,1.0,2-Back,0,z,Wed Apr 09 2025 16:43:15 GMT-0500 (Central Daylight Time),1110172.5,152_y_f_n_a.png,O,None,2016,4,1,3028.2000000029802,1107144.299999997,7124,NNB,B,2
0,test,4,0.0,2-Back,0,m,Wed Apr 09 2025 16:43:15 GMT-0500 (Central Daylight Time),1113204.6999999993,110_o_f_n_a.png,O,None,2016,5,1,3029.10000000149,1110175.5999999978,7124,NNB,B,3
0,test,4,0.0,2-Back,0,m,Wed Apr 09 2025 16:43:15 GMT-0500 (Central Daylight Time),1115554.0999999978,110_o_f_n_a.png,O,z,1318,6,1,2346.099999997765,1113208.0,7124,NNB,B,4
1,test,4,0.0,2-Back,1,m,Wed Apr 09 2025 16:43:15 GMT-0500 (Central Daylight Time),1117786.3999999985,029_m_f_n_a.png,O,m,1208,7,1,2228.800000000745,1115557.5999999978,7124,NNB,B,5
2,test,4,0.0,2-Back,1,m,Wed Apr 09 2025 16:43:15 GMT-0500 (Central Daylight Time),1119985.8999999985,013_y_m_n_a.png,O,m,1168,8,1,2196.300000000745,1117789.5999999978,7124,NNB,B,6
2,test,4,1.0,2-Back,0,z,Wed Apr 09 2025 16:43:15 GMT-0500 (Central Daylight Time),1122585.0,029_m_f_n_a.png,O,m,1576,9,1,2595.7000000029802,1119989.299999997,7124,NNB,B,7
3,test,4,0.0,2-Back,1,m,Wed Apr 09 2025 16:43:15 GMT-0500 (Central Daylight Time),1124384.5,126_m_m_n_a.png,O,m,769,10,1,1795.800000000745,1122588.6999999993,7124,NNB,B,8
3,test,4,0.0,2-Back,0,m,Wed Apr 09 2025 16:43:15 GMT-0500 (Central Daylight Time),1125934.1999999993,013_y_m_n_a.png,O,z,521,11,1,1546.5,1124387.6999999993,7124,NNB,B,9
4,test,4,0.0,2-Back,1,m,Wed Apr 09 2025 16:43:15 GMT-0500 (Central Daylight Time),1128366.6999999993,086_o_f_n_a.png,O,m,1412,12,1,2428.800000000745,1125937.8999999985,7124,NNB,B,10
5,test,4,0.0,2-Back,1,m,Wed Apr 09 2025 16:43:15 GMT-0500 (Central Daylight Time),1130299.3999999985,153_y_m_n_a.png,O,m,907,13,1,1929.699999999255,1128369.6999999993,7124,NNB,B,11
6,test,4,1.0,2-Back,1,z,Wed Apr 09 2025 16:43:15 GMT-0500 (Central Daylight Time),1132332.1999999993,086_o_f_n_a.png,O,z,1000,14,1,2029.6000000014901,1130302.5999999978,7124,NNB,B,12
6,test,4,1.0,2-Back,0,z,Wed Apr 09 2025 16:43:15 GMT-0500 (Central Daylight Time),1134648.0,153_y_m_n_a.png,O,m,1286,15,1,2312.60000000149,1132335.3999999985,7124,NNB,B,13
7,test,4,0.0,2-Back,1,m,Wed Apr 09 2025 16:43:15 GMT-0500 (Central Daylight Time),1136780.5,178_m_m_n_a.png,O,m,1106,16,1,2128.7000000029802,1134651.799999997,7124,NNB,B,14
8,test,4,0.0,2-Back,1,m,Wed Apr 09 2025 16:43:15 GMT-0500 (Central Daylight Time),1139279.8999999985,097_m_f_n_a.png,O,m,1469,17,1,2496.0,1136783.8999999985,7124,NNB,B,15
8,test,4,1.0,2-Back,0,z,Wed Apr 09 2025 16:43:15 GMT-0500 (Central Daylight Time),1141645.799999997,178_m_m_n_a.png,O,m,1346,18,1,2362.199999999255,1139283.5999999978,7124,NNB,B,16
0,test,5,1.0,2-Back,,,Wed Apr 09 2025 16:43:15 GMT-0500 (Central Daylight Time),1141645.799999997,153_y_m_n_a.png,O,space,17628,1,1,2362.199999999255,1139283.5999999978,7124,NNB,B,0
0,test,5,1.0,2-Back,,,Wed Apr 09 2025 16:43:15 GMT-0500 (Central Daylight Time),1141645.799999997,097_m_f_n_a.png,O,space,17628,2,1,2362.199999999255,1139283.5999999978,7124,NNB,B,0
1,test,5,1.0,2-Back,1,z,Wed Apr 09 2025 16:43:15 GMT-0500 (Central Daylight Time),1166938.0,153_y_m_n_a.png,O,z,1575,3,1,2595.900000002235,1164342.0999999978,7124,NNB,B,1
1,test,5,1.0,2-Back,0,z,Wed Apr 09 2025 16:43:15 GMT-0500 (Central Daylight Time),1169970.5999999978,097_m_f_n_a.png,O,None,2015,4,1,3029.39999999851,1166941.1999999993,7124,NNB,B,2
2,test,5,0.0,2-Back,1,m,Wed Apr 09 2025 16:43:15 GMT-0500 (Central Daylight Time),1172103.0,086_o_f_n_a.png,O,m,1113,5,1,2129.2000000029802,1169973.799999997,7124,NNB,B,3
3,test,5,0.0,2-Back,1,m,Wed Apr 09 2025 16:43:15 GMT-0500 (Central Daylight Time),1174802.1999999993,153_y_m_n_a.png,O,m,1675,6,1,2695.900000002235,1172106.299999997,7124,NNB,B,4
4,test,5,0.0,2-Back,1,m,Wed Apr 09 2025 16:43:15 GMT-0500 (Central Daylight Time),1177284.6999999993,173_y_f_n_a.png,O,m,1464,7,1,2479.199999999255,1174805.5,7124,NNB,B,5
4,test,5,0.0,2-Back,0,m,Wed Apr 09 2025 16:43:15 GMT-0500 (Central Daylight Time),1179367.5,086_o_f_n_a.png,O,z,1061,8,1,2079.800000000745,1177287.6999999993,7124,NNB,B,6
4,test,5,1.0,2-Back,0,z,Wed Apr 09 2025 16:43:15 GMT-0500 (Central Daylight Time),1181616.5999999978,173_y_f_n_a.png,O,m,1228,9,1,2246.099999997765,1179370.5,7124,NNB,B,7
4,test,5,0.0,2-Back,0,m,Wed Apr 09 2025 16:43:15 GMT-0500 (Central Daylight Time),1183466.0999999978,065_o_m_n_a.png,O,z,817,10,1,1846.300000000745,1181619.799999997,7124,NNB,B,8
5,test,5,0.0,2-Back,1,m,Wed Apr 09 2025 16:43:15 GMT-0500 (Central Daylight Time),1185965.3999999985,029_m_f_n_a.png,O,m,1480,11,1,2495.300000000745,1183470.0999999978,7124,NNB,B,9
5,test,5,0.0,2-Back,0,m,Wed Apr 09 2025 16:43:15 GMT-0500 (Central Daylight Time),1188414.6999999993,126_m_m_n_a.png,O,z,1429,12,1,2445.699999999255,1185969.0,7124,NNB,B,10
6,test,5,0.0,2-Back,1,m,Wed Apr 09 2025 16:43:15 GMT-0500 (Central Daylight Time),1190747.299999997,065_o_m_n_a.png,O,m,1308,13,1,2329.599999997765,1188417.6999999993,7124,NNB,B,11
7,test,5,1.0,2-Back,1,z,Wed Apr 09 2025 16:43:15 GMT-0500 (Central Daylight Time),1192913.1999999993,126_m_m_n_a.png,O,z,1135,14,1,2162.900000002235,1190750.299999997,7124,NNB,B,12
8,test,5,0.0,2-Back,1,m,Wed Apr 09 2025 16:43:15 GMT-0500 (Central Daylight Time),1195045.799999997,152_y_f_n_a.png,O,m,1104,15,1,2128.89999999851,1192916.8999999985,7124,NNB,B,13
8,test,5,0.0,2-Back,0,m,Wed Apr 09 2025 16:43:15 GMT-0500 (Central Daylight Time),1197744.8999999985,176_o_m_n_a.png,O,z,1677,16,1,2695.89999999851,1195049.0,7124,NNB,B,14
9,test,5,0.0,2-Back,1,m,Wed Apr 09 2025 16:43:15 GMT-0500 (Central Daylight Time),1200027.5999999978,029_m_f_n_a.png,O,m,1214,17,1,2279.099999997765,1197748.5,7124,NNB,B,15
9,test,5,1.0,2-Back,0,z,Wed Apr 09 2025 16:43:15 GMT-0500 (Central Daylight Time),1202660.0999999978,176_o_m_n_a.png,O,m,1608,18,1,2629.800000000745,1200030.299999997,7124,NNB,B,16
