acc_sum,block,block_c,change,condition,correct,correct_response,datetime,endtime,face,project,response,response_time,row_sel,session_number,start_end,starttime,subject_id,task,task_vers,trial
0,prac,1,,1-Back,,,Tue Feb 11 2025 09:20:07 GMT-0600 (Central Standard Time),,050_m_f_n_a.png,O,space,10954,1,1,,,7047,NNB,A,0
1,prac,1,0.0,1-Back,1,m,Tue Feb 11 2025 09:20:07 GMT-0600 (Central Standard Time),147891.29999999702,063_y_f_n_a.png,O,m,600,2,1,1409.7999999970198,146481.5,7047,NNB,A,1
1,prac,1,1.0,1-Back,0,z,Tue Feb 11 2025 09:20:07 GMT-0600 (Central Standard Time),149989.59999999404,063_y_f_n_a.png,O,m,1319,3,1,2091.0999999940395,147898.5,7047,NNB,A,2
2,prac,1,0.0,1-Back,1,m,Tue Feb 11 2025 09:20:07 GMT-0600 (Central Standard Time),151472.3999999985,053_o_m_n_a.png,O,m,676,4,1,1475.7000000029802,149996.69999999553,7047,NNB,A,3
3,prac,1,0.0,1-Back,1,m,Tue Feb 11 2025 09:20:07 GMT-0600 (Central Standard Time),153121.8999999985,058_m_m_n_a.png,O,m,833,5,1,1642.6000000014901,151479.29999999702,7047,NNB,A,4
4,prac,1,1.0,1-Back,1,z,Tue Feb 11 2025 09:20:07 GMT-0600 (Central Standard Time),154438.09999999404,058_m_m_n_a.png,O,z,536,6,1,1309.0999999940395,153129.0,7047,NNB,A,5
5,prac,1,0.0,1-Back,1,m,Tue Feb 11 2025 09:20:07 GMT-0600 (Central Standard Time),156121.0,047_o_f_n_a.png,O,m,837,7,1,1675.6000000014901,154445.3999999985,7047,NNB,A,6
6,prac,1,0.0,1-Back,1,m,Tue Feb 11 2025 09:20:07 GMT-0600 (Central Standard Time),157554.0,045_m_m_n_a.png,O,m,620,8,1,1426.0,156128.0,7047,NNB,A,7
6,prac,1,0.0,1-Back,0,m,Tue Feb 11 2025 09:20:07 GMT-0600 (Central Standard Time),159036.59999999404,050_m_f_n_a.png,O,z,703,9,1,1474.7999999970198,157561.79999999702,7047,NNB,A,8
7,prac,1,1.0,1-Back,1,z,Tue Feb 11 2025 09:20:07 GMT-0600 (Central Standard Time),160786.19999999553,050_m_f_n_a.png,O,z,974,10,1,1742.3999999985099,159043.79999999702,7047,NNB,A,9
8,prac,1,0.0,1-Back,1,m,Tue Feb 11 2025 09:20:07 GMT-0600 (Central Standard Time),162285.59999999404,053_o_m_n_a.png,O,m,711,11,1,1492.0,160793.59999999404,7047,NNB,A,10
9,prac,1,0.0,1-Back,1,m,Tue Feb 11 2025 09:20:07 GMT-0600 (Central Standard Time),164118.3999999985,010_y_f_n_a.png,O,m,1001,12,1,1825.8000000044703,162292.59999999404,7047,NNB,A,11
0,test,1,0.0,1-Back,,,Tue Feb 11 2025 09:20:07 GMT-0600 (Central Standard Time),164118.3999999985,063_y_f_n_a.png,O,space,14375,1,1,1825.8000000044703,162292.59999999404,7047,NNB,A,0
1,test,1,0.0,1-Back,1,m,Tue Feb 11 2025 09:20:07 GMT-0600 (Central Standard Time),192809.5,043_m_f_n_a.png,O,m,534,2,1,1559.2000000029802,191250.29999999702,7047,NNB,A,1
2,test,1,0.0,1-Back,1,m,Tue Feb 11 2025 09:20:07 GMT-0600 (Central Standard Time),194625.29999999702,010_y_f_n_a.png,O,m,791,3,1,1809.8999999985099,192815.3999999985,7047,NNB,A,2
2,test,1,1.0,1-Back,0,z,Tue Feb 11 2025 09:20:07 GMT-0600 (Central Standard Time),196841.29999999702,010_y_f_n_a.png,O,m,1183,4,1,2209.39999999851,194631.8999999985,7047,NNB,A,3
3,test,1,0.0,1-Back,1,m,Tue Feb 11 2025 09:20:07 GMT-0600 (Central Standard Time),198774.5,043_m_f_n_a.png,O,m,903,5,1,1926.9000000059605,196847.59999999404,7047,NNB,A,4
4,test,1,0.0,1-Back,1,m,Tue Feb 11 2025 09:20:07 GMT-0600 (Central Standard Time),200606.8999999985,053_o_m_n_a.png,O,m,810,6,1,1826.3000000044703,198780.59999999404,7047,NNB,A,5
5,test,1,1.0,1-Back,1,z,Tue Feb 11 2025 09:20:07 GMT-0600 (Central Standard Time),202139.3999999985,053_o_m_n_a.png,O,z,514,7,1,1526.5,200612.8999999985,7047,NNB,A,6
6,test,1,0.0,1-Back,1,m,Tue Feb 11 2025 09:20:07 GMT-0600 (Central Standard Time),203739.3999999985,058_m_m_n_a.png,O,m,581,8,1,1593.8000000044703,202145.59999999404,7047,NNB,A,7
7,test,1,0.0,1-Back,1,m,Tue Feb 11 2025 09:20:07 GMT-0600 (Central Standard Time),205488.69999999553,047_o_f_n_a.png,O,m,725,9,1,1743.1000000014901,203745.59999999404,7047,NNB,A,8
8,test,1,0.0,1-Back,1,m,Tue Feb 11 2025 09:20:07 GMT-0600 (Central Standard Time),207254.79999999702,058_m_m_n_a.png,O,m,744,10,1,1759.5,205495.29999999702,7047,NNB,A,9
9,test,1,0.0,1-Back,1,m,Tue Feb 11 2025 09:20:07 GMT-0600 (Central Standard Time),209021.5,041_y_m_n_a.png,O,m,746,11,1,1760.6000000014901,207260.8999999985,7047,NNB,A,10
10,test,1,1.0,1-Back,1,z,Tue Feb 11 2025 09:20:07 GMT-0600 (Central Standard Time),210637.0,041_y_m_n_a.png,O,z,594,12,1,1609.3000000044703,209027.69999999553,7047,NNB,A,11
11,test,1,0.0,1-Back,1,m,Tue Feb 11 2025 09:20:07 GMT-0600 (Central Standard Time),212386.59999999404,044_o_f_n_a.png,O,m,716,13,1,1743.2999999970198,210643.29999999702,7047,NNB,A,12
12,test,1,1.0,1-Back,1,z,Tue Feb 11 2025 09:20:07 GMT-0600 (Central Standard Time),214019.59999999404,044_o_f_n_a.png,O,z,598,14,1,1626.6999999955297,212392.8999999985,7047,NNB,A,13
13,test,1,0.0,1-Back,1,m,Tue Feb 11 2025 09:20:07 GMT-0600 (Central Standard Time),215635.5,008_y_m_n_a.png,O,m,589,15,1,1609.8000000044703,214025.69999999553,7047,NNB,A,14
14,test,1,0.0,1-Back,1,m,Tue Feb 11 2025 09:20:07 GMT-0600 (Central Standard Time),217401.79999999702,050_m_f_n_a.png,O,m,741,16,1,1760.2999999970198,215641.5,7047,NNB,A,15
15,test,1,0.0,1-Back,1,m,Tue Feb 11 2025 09:20:07 GMT-0600 (Central Standard Time),219134.29999999702,046_o_m_n_a.png,O,m,711,17,1,1726.2999999970198,217408.0,7047,NNB,A,16
16,test,1,0.0,1-Back,1,m,Tue Feb 11 2025 09:20:07 GMT-0600 (Central Standard Time),220883.79999999702,050_m_f_n_a.png,O,m,722,18,1,1742.7999999970198,219141.0,7047,NNB,A,17
0,test,2,0.0,1-Back,,,Tue Feb 11 2025 09:20:07 GMT-0600 (Central Standard Time),220883.79999999702,058_m_m_n_a.png,O,space,2982,1,1,1742.7999999970198,219141.0,7047,NNB,A,0
1,test,2,0.0,1-Back,1,m,Tue Feb 11 2025 09:20:07 GMT-0600 (Central Standard Time),227448.3999999985,043_m_f_n_a.png,O,m,518,2,1,1543.0,225905.3999999985,7047,NNB,A,1
2,test,2,1.0,1-Back,1,z,Tue Feb 11 2025 09:20:07 GMT-0600 (Central Standard Time),229531.19999999553,043_m_f_n_a.png,O,z,1048,3,1,2077.0,227454.19999999553,7047,NNB,A,2
3,test,2,0.0,1-Back,1,m,Tue Feb 11 2025 09:20:07 GMT-0600 (Central Standard Time),231163.8999999985,058_m_m_n_a.png,O,m,614,4,1,1626.3999999985099,229537.5,7047,NNB,A,3
4,test,2,0.0,1-Back,1,m,Tue Feb 11 2025 09:20:07 GMT-0600 (Central Standard Time),232896.59999999404,041_y_m_n_a.png,O,m,709,5,1,1726.6999999955297,231169.8999999985,7047,NNB,A,4
5,test,2,0.0,1-Back,1,m,Tue Feb 11 2025 09:20:07 GMT-0600 (Central Standard Time),234629.59999999404,063_y_f_n_a.png,O,m,712,6,1,1726.6999999955297,232902.8999999985,7047,NNB,A,5
6,test,2,1.0,1-Back,1,z,Tue Feb 11 2025 09:20:07 GMT-0600 (Central Standard Time),236279.09999999404,063_y_f_n_a.png,O,z,620,7,1,1643.2999999970198,234635.79999999702,7047,NNB,A,6
7,test,2,0.0,1-Back,1,m,Tue Feb 11 2025 09:20:07 GMT-0600 (Central Standard Time),238128.29999999702,041_y_m_n_a.png,O,m,826,8,1,1842.3999999985099,236285.8999999985,7047,NNB,A,7
8,test,2,0.0,1-Back,1,m,Tue Feb 11 2025 09:20:07 GMT-0600 (Central Standard Time),239844.59999999404,044_o_f_n_a.png,O,m,688,9,1,1710.1999999955297,238134.3999999985,7047,NNB,A,8
9,test,2,0.0,1-Back,1,m,Tue Feb 11 2025 09:20:07 GMT-0600 (Central Standard Time),241694.19999999553,045_m_m_n_a.png,O,m,820,10,1,1843.3999999985099,239850.79999999702,7047,NNB,A,9
10,test,2,1.0,1-Back,1,z,Tue Feb 11 2025 09:20:07 GMT-0600 (Central Standard Time),243360.0,045_m_m_n_a.png,O,z,635,11,1,1659.7000000029802,241700.29999999702,7047,NNB,A,10
11,test,2,0.0,1-Back,1,m,Tue Feb 11 2025 09:20:07 GMT-0600 (Central Standard Time),245026.19999999553,044_o_f_n_a.png,O,m,641,12,1,1660.1999999955297,243366.0,7047,NNB,A,11
12,test,2,0.0,1-Back,1,m,Tue Feb 11 2025 09:20:07 GMT-0600 (Central Standard Time),246859.3999999985,047_o_f_n_a.png,O,m,798,13,1,1826.6000000014901,245032.79999999702,7047,NNB,A,12
13,test,2,0.0,1-Back,1,m,Tue Feb 11 2025 09:20:07 GMT-0600 (Central Standard Time),248775.0,053_o_m_n_a.png,O,m,894,14,1,1909.1000000014901,246865.8999999985,7047,NNB,A,13
14,test,2,0.0,1-Back,1,m,Tue Feb 11 2025 09:20:07 GMT-0600 (Central Standard Time),250474.8999999985,046_o_m_n_a.png,O,m,666,15,1,1693.6000000014901,248781.29999999702,7047,NNB,A,14
15,test,2,1.0,1-Back,1,z,Tue Feb 11 2025 09:20:07 GMT-0600 (Central Standard Time),252057.5,046_o_m_n_a.png,O,z,558,16,1,1576.7000000029802,250480.79999999702,7047,NNB,A,15
16,test,2,0.0,1-Back,1,m,Tue Feb 11 2025 09:20:07 GMT-0600 (Central Standard Time),253807.0,008_y_m_n_a.png,O,m,719,17,1,1743.5,252063.5,7047,NNB,A,16
17,test,2,1.0,1-Back,1,z,Tue Feb 11 2025 09:20:07 GMT-0600 (Central Standard Time),255739.59999999404,008_y_m_n_a.png,O,z,899,18,1,1926.5,253813.09999999404,7047,NNB,A,17
0,test,3,1.0,1-Back,,,Tue Feb 11 2025 09:20:07 GMT-0600 (Central Standard Time),255739.59999999404,010_y_f_n_a.png,O,space,1734,1,1,1926.5,253813.09999999404,7047,NNB,A,0
1,test,3,0.0,1-Back,1,m,Tue Feb 11 2025 09:20:07 GMT-0600 (Central Standard Time),261088.0,046_o_m_n_a.png,O,m,502,2,1,1525.9000000059605,259562.09999999404,7047,NNB,A,1
2,test,3,1.0,1-Back,1,z,Tue Feb 11 2025 09:20:07 GMT-0600 (Central Standard Time),262754.3999999985,046_o_m_n_a.png,O,z,641,3,1,1660.2000000029802,261094.19999999553,7047,NNB,A,2
3,test,3,0.0,1-Back,1,m,Tue Feb 11 2025 09:20:07 GMT-0600 (Central Standard Time),264370.09999999404,050_m_f_n_a.png,O,m,583,4,1,1609.7999999970198,262760.299999997,7047,NNB,A,3
4,test,3,1.0,1-Back,1,z,Tue Feb 11 2025 09:20:07 GMT-0600 (Central Standard Time),266219.69999999553,050_m_f_n_a.png,O,z,830,5,1,1843.1000000014901,264376.59999999404,7047,NNB,A,4
5,test,3,0.0,1-Back,1,m,Tue Feb 11 2025 09:20:07 GMT-0600 (Central Standard Time),267802.5,044_o_f_n_a.png,O,m,557,6,1,1575.5,266227.0,7047,NNB,A,5
6,test,3,0.0,1-Back,1,m,Tue Feb 11 2025 09:20:07 GMT-0600 (Central Standard Time),269418.59999999404,041_y_m_n_a.png,O,m,590,7,1,1609.8999999985099,267808.69999999553,7047,NNB,A,6
7,test,3,0.0,1-Back,1,m,Tue Feb 11 2025 09:20:07 GMT-0600 (Central Standard Time),271251.59999999404,044_o_f_n_a.png,O,m,814,8,1,1827.0999999940395,269424.5,7047,NNB,A,7
7,test,3,0.0,1-Back,0,m,Tue Feb 11 2025 09:20:07 GMT-0600 (Central Standard Time),272934.09999999404,008_y_m_n_a.png,O,z,662,9,1,1676.0999999940395,271258.0,7047,NNB,A,8
8,test,3,1.0,1-Back,1,z,Tue Feb 11 2025 09:20:07 GMT-0600 (Central Standard Time),274700.69999999553,008_y_m_n_a.png,O,z,738,10,1,1760.2999999970198,272940.3999999985,7047,NNB,A,9
9,test,3,0.0,1-Back,1,m,Tue Feb 11 2025 09:20:07 GMT-0600 (Central Standard Time),276393.19999999553,043_m_f_n_a.png,O,m,673,11,1,1686.6000000014901,274706.59999999404,7047,NNB,A,10
10,test,3,0.0,1-Back,1,m,Tue Feb 11 2025 09:20:07 GMT-0600 (Central Standard Time),278215.8999999985,063_y_f_n_a.png,O,m,785,12,1,1815.0,276400.8999999985,7047,NNB,A,11
10,test,3,1.0,1-Back,0,z,Tue Feb 11 2025 09:20:07 GMT-0600 (Central Standard Time),280865.19999999553,063_y_f_n_a.png,O,m,1617,13,1,2643.0,278222.19999999553,7047,NNB,A,12
11,test,3,0.0,1-Back,1,m,Tue Feb 11 2025 09:20:07 GMT-0600 (Central Standard Time),282631.09999999404,043_m_f_n_a.png,O,m,736,14,1,1760.0,280871.09999999404,7047,NNB,A,13
12,test,3,0.0,1-Back,1,m,Tue Feb 11 2025 09:20:07 GMT-0600 (Central Standard Time),284414.09999999404,058_m_m_n_a.png,O,m,762,15,1,1776.5,282637.59999999404,7047,NNB,A,14
13,test,3,1.0,1-Back,1,z,Tue Feb 11 2025 09:20:07 GMT-0600 (Central Standard Time),286079.8999999985,058_m_m_n_a.png,O,z,635,16,1,1658.2000000029802,284421.69999999553,7047,NNB,A,15
14,test,3,0.0,1-Back,1,m,Tue Feb 11 2025 09:20:07 GMT-0600 (Central Standard Time),287829.799999997,047_o_f_n_a.png,O,m,721,17,1,1743.0,286086.799999997,7047,NNB,A,16
15,test,3,1.0,1-Back,1,z,Tue Feb 11 2025 09:20:07 GMT-0600 (Central Standard Time),289379.19999999553,047_o_f_n_a.png,O,z,523,18,1,1543.1000000014901,287836.09999999404,7047,NNB,A,17
0,test,4,1.0,1-Back,,,Tue Feb 11 2025 09:20:07 GMT-0600 (Central Standard Time),289379.19999999553,050_m_f_n_a.png,O,space,2239,1,1,1543.1000000014901,287836.09999999404,7047,NNB,A,0
1,test,4,0.0,1-Back,1,m,Tue Feb 11 2025 09:20:07 GMT-0600 (Central Standard Time),295227.299999997,046_o_m_n_a.png,O,m,556,2,1,1576.3999999985099,293650.8999999985,7047,NNB,A,1
2,test,4,0.0,1-Back,1,m,Tue Feb 11 2025 09:20:07 GMT-0600 (Central Standard Time),297210.0,050_m_f_n_a.png,O,m,950,3,1,1976.7000000029802,295233.299999997,7047,NNB,A,2
3,test,4,0.0,1-Back,1,m,Tue Feb 11 2025 09:20:07 GMT-0600 (Central Standard Time),298909.3999999985,044_o_f_n_a.png,O,m,679,4,1,1693.3999999985099,297216.0,7047,NNB,A,3
4,test,4,1.0,1-Back,1,z,Tue Feb 11 2025 09:20:07 GMT-0600 (Central Standard Time),300525.69999999553,044_o_f_n_a.png,O,z,601,5,1,1610.0,298915.69999999553,7047,NNB,A,4
5,test,4,0.0,1-Back,1,m,Tue Feb 11 2025 09:20:07 GMT-0600 (Central Standard Time),302208.19999999553,063_y_f_n_a.png,O,m,659,6,1,1676.3999999985099,300531.799999997,7047,NNB,A,5
6,test,4,0.0,1-Back,1,m,Tue Feb 11 2025 09:20:07 GMT-0600 (Central Standard Time),303791.19999999553,041_y_m_n_a.png,O,m,560,7,1,1577.0,302214.19999999553,7047,NNB,A,6
7,test,4,1.0,1-Back,1,z,Tue Feb 11 2025 09:20:07 GMT-0600 (Central Standard Time),305424.09999999404,041_y_m_n_a.png,O,z,602,8,1,1626.7999999970198,303797.299999997,7047,NNB,A,7
8,test,4,0.0,1-Back,1,m,Tue Feb 11 2025 09:20:07 GMT-0600 (Central Standard Time),307090.09999999404,063_y_f_n_a.png,O,m,640,9,1,1659.2999999970198,305430.799999997,7047,NNB,A,8
9,test,4,0.0,1-Back,1,m,Tue Feb 11 2025 09:20:07 GMT-0600 (Central Standard Time),308723.19999999553,045_m_m_n_a.png,O,m,606,10,1,1627.1000000014901,307096.09999999404,7047,NNB,A,9
10,test,4,1.0,1-Back,1,z,Tue Feb 11 2025 09:20:07 GMT-0600 (Central Standard Time),310405.8999999985,045_m_m_n_a.png,O,z,662,11,1,1676.2000000029802,308729.69999999553,7047,NNB,A,10
11,test,4,0.0,1-Back,1,m,Tue Feb 11 2025 09:20:07 GMT-0600 (Central Standard Time),311988.59999999404,047_o_f_n_a.png,O,m,562,12,1,1576.3999999985099,310412.19999999553,7047,NNB,A,11
12,test,4,0.0,1-Back,1,m,Tue Feb 11 2025 09:20:07 GMT-0600 (Central Standard Time),313687.8999999985,053_o_m_n_a.png,O,m,676,13,1,1691.8000000044703,311996.09999999404,7047,NNB,A,12
13,test,4,0.0,1-Back,1,m,Tue Feb 11 2025 09:20:07 GMT-0600 (Central Standard Time),315720.8999999985,047_o_f_n_a.png,O,m,1001,14,1,2026.2000000029802,313694.69999999553,7047,NNB,A,13
14,test,4,0.0,1-Back,1,m,Tue Feb 11 2025 09:20:07 GMT-0600 (Central Standard Time),317403.5,010_y_f_n_a.png,O,m,655,15,1,1676.7000000029802,315726.799999997,7047,NNB,A,14
15,test,4,1.0,1-Back,1,z,Tue Feb 11 2025 09:20:07 GMT-0600 (Central Standard Time),319169.799999997,010_y_f_n_a.png,O,z,741,16,1,1760.0,317409.799999997,7047,NNB,A,15
16,test,4,0.0,1-Back,1,m,Tue Feb 11 2025 09:20:07 GMT-0600 (Central Standard Time),320802.3999999985,043_m_f_n_a.png,O,m,607,17,1,1626.1000000014901,319176.299999997,7047,NNB,A,16
17,test,4,1.0,1-Back,1,z,Tue Feb 11 2025 09:20:07 GMT-0600 (Central Standard Time),322785.3999999985,043_m_f_n_a.png,O,z,950,18,1,1976.3000000044703,320809.09999999404,7047,NNB,A,17
0,test,5,1.0,1-Back,,,Tue Feb 11 2025 09:20:07 GMT-0600 (Central Standard Time),322785.3999999985,053_o_m_n_a.png,O,space,2560,1,1,1976.3000000044703,320809.09999999404,7047,NNB,A,0
1,test,5,1.0,1-Back,1,z,Tue Feb 11 2025 09:20:07 GMT-0600 (Central Standard Time),329116.3999999985,053_o_m_n_a.png,O,z,730,2,1,1743.0,327373.3999999985,7047,NNB,A,1
2,test,5,0.0,1-Back,1,m,Tue Feb 11 2025 09:20:07 GMT-0600 (Central Standard Time),330699.5,063_y_f_n_a.png,O,m,564,3,1,1576.8000000044703,329122.69999999553,7047,NNB,A,2
3,test,5,0.0,1-Back,1,m,Tue Feb 11 2025 09:20:07 GMT-0600 (Central Standard Time),332349.0,041_y_m_n_a.png,O,m,629,4,1,1643.7000000029802,330705.299999997,7047,NNB,A,3
4,test,5,0.0,1-Back,1,m,Tue Feb 11 2025 09:20:07 GMT-0600 (Central Standard Time),334248.19999999553,063_y_f_n_a.png,O,m,876,5,1,1892.6000000014901,332355.59999999404,7047,NNB,A,4
5,test,5,0.0,1-Back,1,m,Tue Feb 11 2025 09:20:07 GMT-0600 (Central Standard Time),336114.59999999404,058_m_m_n_a.png,O,m,840,6,1,1860.3999999985099,334254.19999999553,7047,NNB,A,5
6,test,5,1.0,1-Back,1,z,Tue Feb 11 2025 09:20:07 GMT-0600 (Central Standard Time),337763.8999999985,058_m_m_n_a.png,O,z,622,7,1,1643.1000000014901,336120.799999997,7047,NNB,A,6
7,test,5,0.0,1-Back,1,m,Tue Feb 11 2025 09:20:07 GMT-0600 (Central Standard Time),339363.59999999404,010_y_f_n_a.png,O,m,573,8,1,1593.0999999940395,337770.5,7047,NNB,A,7
8,test,5,0.0,1-Back,1,m,Tue Feb 11 2025 09:20:07 GMT-0600 (Central Standard Time),340996.19999999553,008_y_m_n_a.png,O,m,613,9,1,1626.3999999985099,339369.799999997,7047,NNB,A,8
9,test,5,0.0,1-Back,1,m,Tue Feb 11 2025 09:20:07 GMT-0600 (Central Standard Time),342779.09999999404,010_y_f_n_a.png,O,m,755,10,1,1777.0,341002.09999999404,7047,NNB,A,9
10,test,5,0.0,1-Back,1,m,Tue Feb 11 2025 09:20:07 GMT-0600 (Central Standard Time),344445.299999997,047_o_f_n_a.png,O,m,646,11,1,1659.7000000029802,342785.59999999404,7047,NNB,A,10
11,test,5,1.0,1-Back,1,z,Tue Feb 11 2025 09:20:07 GMT-0600 (Central Standard Time),346044.69999999553,047_o_f_n_a.png,O,z,572,12,1,1593.5,344451.19999999553,7047,NNB,A,11
12,test,5,0.0,1-Back,1,m,Tue Feb 11 2025 09:20:07 GMT-0600 (Central Standard Time),347627.3999999985,046_o_m_n_a.png,O,m,556,13,1,1576.3000000044703,346051.09999999404,7047,NNB,A,12
13,test,5,0.0,1-Back,1,m,Tue Feb 11 2025 09:20:07 GMT-0600 (Central Standard Time),349393.5,050_m_f_n_a.png,O,m,741,14,1,1760.2000000029802,347633.299999997,7047,NNB,A,13
14,test,5,1.0,1-Back,1,z,Tue Feb 11 2025 09:20:07 GMT-0600 (Central Standard Time),351026.59999999404,050_m_f_n_a.png,O,z,599,15,1,1627.0999999940395,349399.5,7047,NNB,A,14
15,test,5,0.0,1-Back,1,m,Tue Feb 11 2025 09:20:07 GMT-0600 (Central Standard Time),352775.59999999404,046_o_m_n_a.png,O,m,718,16,1,1742.7999999970198,351032.799999997,7047,NNB,A,15
16,test,5,0.0,1-Back,1,m,Tue Feb 11 2025 09:20:07 GMT-0600 (Central Standard Time),354442.09999999404,043_m_f_n_a.png,O,m,641,17,1,1659.3999999985099,352782.69999999553,7047,NNB,A,16
17,test,5,0.0,1-Back,1,m,Tue Feb 11 2025 09:20:07 GMT-0600 (Central Standard Time),356074.69999999553,045_m_m_n_a.png,O,m,599,18,1,1626.5,354448.19999999553,7047,NNB,A,17
0,prac,1,0.0,2-Back,,,Tue Feb 11 2025 09:20:07 GMT-0600 (Central Standard Time),356074.69999999553,008_y_m_n_a.png,O,space,21051,1,1,1626.5,354448.19999999553,7047,NNB,A,0
0,prac,1,0.0,2-Back,,,Tue Feb 11 2025 09:20:07 GMT-0600 (Central Standard Time),356074.69999999553,043_m_f_n_a.png,O,space,21051,2,1,1626.5,354448.19999999553,7047,NNB,A,0
1,prac,1,1.0,2-Back,1,m,Tue Feb 11 2025 09:20:07 GMT-0600 (Central Standard Time),552446.8999999985,046_o_m_n_a.png,O,m,921,3,1,1725.6000000014901,550721.299999997,7047,NNB,A,1
2,prac,1,0.0,2-Back,1,m,Tue Feb 11 2025 09:20:07 GMT-0600 (Central Standard Time),554379.599999994,047_o_f_n_a.png,O,m,1091,4,1,1925.6999999955297,552453.8999999985,7047,NNB,A,2
3,prac,1,0.0,2-Back,1,z,Tue Feb 11 2025 09:20:07 GMT-0600 (Central Standard Time),556295.599999994,046_o_m_n_a.png,O,z,1134,5,1,1908.5,554387.099999994,7047,NNB,A,3
3,prac,1,1.0,2-Back,0,z,Tue Feb 11 2025 09:20:07 GMT-0600 (Central Standard Time),558011.5,047_o_f_n_a.png,O,m,930,6,1,1708.5,556303.0,7047,NNB,A,4
4,prac,1,0.0,2-Back,1,m,Tue Feb 11 2025 09:20:07 GMT-0600 (Central Standard Time),559977.6999999955,045_m_m_n_a.png,O,m,1150,7,1,1958.2999999970198,558019.3999999985,7047,NNB,A,5
5,prac,1,0.0,2-Back,1,m,Tue Feb 11 2025 09:20:07 GMT-0600 (Central Standard Time),561793.8999999985,053_o_m_n_a.png,O,m,1016,8,1,1808.6000000014901,559985.299999997,7047,NNB,A,6
6,prac,1,0.0,2-Back,1,m,Tue Feb 11 2025 09:20:07 GMT-0600 (Central Standard Time),563643.299999997,010_y_f_n_a.png,O,m,1012,9,1,1841.8999999985099,561801.3999999985,7047,NNB,A,7
7,prac,1,1.0,2-Back,1,z,Tue Feb 11 2025 09:20:07 GMT-0600 (Central Standard Time),565092.799999997,053_o_m_n_a.png,O,z,663,10,1,1442.3999999985099,563650.3999999985,7047,NNB,A,8
8,prac,1,0.0,2-Back,1,m,Tue Feb 11 2025 09:20:07 GMT-0600 (Central Standard Time),567309.8999999985,063_y_f_n_a.png,O,m,1406,11,1,2209.89999999851,565100.0,7047,NNB,A,9
8,prac,1,0.0,2-Back,0,m,Tue Feb 11 2025 09:20:07 GMT-0600 (Central Standard Time),568925.0,045_m_m_n_a.png,O,z,829,12,1,1608.2000000029802,567316.799999997,7047,NNB,A,10
0,prac,2,0.0,2-Back,,,Tue Feb 11 2025 09:20:07 GMT-0600 (Central Standard Time),568925.0,008_y_m_n_a.png,O,a,4544,1,1,1608.2000000029802,567316.799999997,7047,NNB,A,0
0,prac,2,0.0,2-Back,,,Tue Feb 11 2025 09:20:07 GMT-0600 (Central Standard Time),568925.0,043_m_f_n_a.png,O,a,4544,2,1,1608.2000000029802,567316.799999997,7047,NNB,A,0
1,prac,2,1.0,2-Back,1,m,Tue Feb 11 2025 09:20:07 GMT-0600 (Central Standard Time),579954.799999997,046_o_m_n_a.png,O,m,639,3,1,1408.2999999970198,578546.5,7047,NNB,A,1
2,prac,2,0.0,2-Back,1,m,Tue Feb 11 2025 09:20:07 GMT-0600 (Central Standard Time),582345.299999997,047_o_f_n_a.png,O,m,1495,4,1,2383.2999999970198,579962.0,7047,NNB,A,2
3,prac,2,0.0,2-Back,1,z,Tue Feb 11 2025 09:20:07 GMT-0600 (Central Standard Time),583970.299999997,046_o_m_n_a.png,O,z,837,5,1,1614.5,582355.799999997,7047,NNB,A,3
3,prac,2,1.0,2-Back,0,z,Tue Feb 11 2025 09:20:07 GMT-0600 (Central Standard Time),585786.3999999985,047_o_f_n_a.png,O,m,1025,6,1,1808.7000000029802,583977.6999999955,7047,NNB,A,4
4,prac,2,0.0,2-Back,1,m,Tue Feb 11 2025 09:20:07 GMT-0600 (Central Standard Time),587968.799999997,045_m_m_n_a.png,O,m,1400,7,1,2175.10000000149,585793.6999999955,7047,NNB,A,5
5,prac,2,0.0,2-Back,1,m,Tue Feb 11 2025 09:20:07 GMT-0600 (Central Standard Time),589868.299999997,053_o_m_n_a.png,O,m,1113,8,1,1891.7999999970198,587976.5,7047,NNB,A,6
6,prac,2,0.0,2-Back,1,m,Tue Feb 11 2025 09:20:07 GMT-0600 (Central Standard Time),591667.8999999985,010_y_f_n_a.png,O,m,962,9,1,1792.3999999985099,589875.5,7047,NNB,A,7
7,prac,2,1.0,2-Back,1,z,Tue Feb 11 2025 09:20:07 GMT-0600 (Central Standard Time),593084.0,053_o_m_n_a.png,O,z,638,10,1,1408.7000000029802,591675.299999997,7047,NNB,A,8
8,prac,2,0.0,2-Back,1,m,Tue Feb 11 2025 09:20:07 GMT-0600 (Central Standard Time),594752.099999994,063_y_f_n_a.png,O,m,894,11,1,1661.0,593091.099999994,7047,NNB,A,9
8,prac,2,0.0,2-Back,0,m,Tue Feb 11 2025 09:20:07 GMT-0600 (Central Standard Time),596716.1999999955,045_m_m_n_a.png,O,z,1178,12,1,1956.6999999955297,594759.5,7047,NNB,A,10
0,test,1,0.0,2-Back,,,Tue Feb 11 2025 09:20:07 GMT-0600 (Central Standard Time),596716.1999999955,041_y_m_n_a.png,O,space,20531,1,1,1956.6999999955297,594759.5,7047,NNB,A,0
0,test,1,0.0,2-Back,,,Tue Feb 11 2025 09:20:07 GMT-0600 (Central Standard Time),596716.1999999955,041_y_m_n_a.png,O,space,20531,2,1,1956.6999999955297,594759.5,7047,NNB,A,0
1,test,1,0.0,2-Back,1,m,Tue Feb 11 2025 09:20:07 GMT-0600 (Central Standard Time),629472.299999997,047_o_f_n_a.png,O,m,802,3,1,1825.7000000029802,627646.599999994,7047,NNB,A,1
2,test,1,0.0,2-Back,1,m,Tue Feb 11 2025 09:20:07 GMT-0600 (Central Standard Time),631338.799999997,058_m_m_n_a.png,O,m,832,4,1,1857.3999999985099,629481.3999999985,7047,NNB,A,2
3,test,1,1.0,2-Back,1,z,Tue Feb 11 2025 09:20:07 GMT-0600 (Central Standard Time),633171.299999997,047_o_f_n_a.png,O,z,806,5,1,1826.0,631345.299999997,7047,NNB,A,3
4,test,1,0.0,2-Back,1,m,Tue Feb 11 2025 09:20:07 GMT-0600 (Central Standard Time),635003.799999997,063_y_f_n_a.png,O,m,813,6,1,1826.0,633177.799999997,7047,NNB,A,4
5,test,1,0.0,2-Back,1,m,Tue Feb 11 2025 09:20:07 GMT-0600 (Central Standard Time),636853.5,058_m_m_n_a.png,O,m,820,7,1,1842.6000000014901,635010.8999999985,7047,NNB,A,5
6,test,1,1.0,2-Back,1,z,Tue Feb 11 2025 09:20:07 GMT-0600 (Central Standard Time),638503.099999994,063_y_f_n_a.png,O,z,619,8,1,1643.0,636860.099999994,7047,NNB,A,6
7,test,1,0.0,2-Back,1,m,Tue Feb 11 2025 09:20:07 GMT-0600 (Central Standard Time),640252.299999997,008_y_m_n_a.png,O,m,722,9,1,1743.0,638509.299999997,7047,NNB,A,7
8,test,1,0.0,2-Back,1,m,Tue Feb 11 2025 09:20:07 GMT-0600 (Central Standard Time),642568.6999999955,044_o_f_n_a.png,O,m,1284,10,1,2310.0,640258.6999999955,7047,NNB,A,8
9,test,1,1.0,2-Back,1,z,Tue Feb 11 2025 09:20:07 GMT-0600 (Central Standard Time),644101.299999997,008_y_m_n_a.png,O,z,512,11,1,1525.7000000029802,642575.599999994,7047,NNB,A,9
10,test,1,0.0,2-Back,1,m,Tue Feb 11 2025 09:20:07 GMT-0600 (Central Standard Time),645867.299999997,043_m_f_n_a.png,O,m,740,12,1,1759.5,644107.799999997,7047,NNB,A,10
11,test,1,0.0,2-Back,1,m,Tue Feb 11 2025 09:20:07 GMT-0600 (Central Standard Time),648149.8999999985,043_m_f_n_a.png,O,m,1261,13,1,2275.89999999851,645874.0,7047,NNB,A,11
12,test,1,0.0,2-Back,1,m,Tue Feb 11 2025 09:20:07 GMT-0600 (Central Standard Time),650082.8999999985,046_o_m_n_a.png,O,m,907,14,1,1926.2000000029802,648156.6999999955,7047,NNB,A,12
12,test,1,0.0,2-Back,0,m,Tue Feb 11 2025 09:20:07 GMT-0600 (Central Standard Time),653115.1999999955,044_o_f_n_a.png,O,None,2014,15,1,3025.6999999955297,650089.5,7047,NNB,A,13
13,test,1,1.0,2-Back,1,z,Tue Feb 11 2025 09:20:07 GMT-0600 (Central Standard Time),654748.0,046_o_m_n_a.png,O,z,607,16,1,1626.1000000014901,653121.8999999985,7047,NNB,A,14
14,test,1,0.0,2-Back,1,m,Tue Feb 11 2025 09:20:07 GMT-0600 (Central Standard Time),657213.799999997,050_m_f_n_a.png,O,m,1445,17,1,2459.39999999851,654754.3999999985,7047,NNB,A,15
15,test,1,0.0,2-Back,1,m,Tue Feb 11 2025 09:20:07 GMT-0600 (Central Standard Time),660129.599999994,045_m_m_n_a.png,O,m,1883,18,1,2909.5999999940395,657220.0,7047,NNB,A,16
0,test,2,0.0,2-Back,,,Tue Feb 11 2025 09:20:07 GMT-0600 (Central Standard Time),660129.599999994,045_m_m_n_a.png,O,space,3784,1,1,2909.5999999940395,657220.0,7047,NNB,A,0
0,test,2,0.0,2-Back,,,Tue Feb 11 2025 09:20:07 GMT-0600 (Central Standard Time),660129.599999994,010_y_f_n_a.png,O,space,3784,2,1,2909.5999999940395,657220.0,7047,NNB,A,0
1,test,2,1.0,2-Back,1,z,Tue Feb 11 2025 09:20:07 GMT-0600 (Central Standard Time),670826.299999997,045_m_m_n_a.png,O,z,775,3,1,1792.8999999985099,669033.3999999985,7047,NNB,A,1
2,test,2,0.0,2-Back,1,m,Tue Feb 11 2025 09:20:07 GMT-0600 (Central Standard Time),673442.599999994,050_m_f_n_a.png,O,m,1583,4,1,2609.89999999851,670832.6999999955,7047,NNB,A,2
2,test,2,0.0,2-Back,0,m,Tue Feb 11 2025 09:20:07 GMT-0600 (Central Standard Time),675291.5,010_y_f_n_a.png,O,z,831,5,1,1842.8000000044703,673448.6999999955,7047,NNB,A,3
3,test,2,0.0,2-Back,1,m,Tue Feb 11 2025 09:20:07 GMT-0600 (Central Standard Time),677257.6999999955,046_o_m_n_a.png,O,m,904,6,1,1959.7999999970198,675297.8999999985,7047,NNB,A,4
4,test,2,0.0,2-Back,1,m,Tue Feb 11 2025 09:20:07 GMT-0600 (Central Standard Time),679473.599999994,063_y_f_n_a.png,O,m,1183,7,1,2210.0,677263.599999994,7047,NNB,A,5
5,test,2,1.0,2-Back,1,z,Tue Feb 11 2025 09:20:07 GMT-0600 (Central Standard Time),681439.5,046_o_m_n_a.png,O,z,935,8,1,1959.5,679480.0,7047,NNB,A,6
6,test,2,0.0,2-Back,1,m,Tue Feb 11 2025 09:20:07 GMT-0600 (Central Standard Time),683489.1999999955,008_y_m_n_a.png,O,m,1017,9,1,2043.2999999970198,681445.8999999985,7047,NNB,A,7
6,test,2,0.0,2-Back,0,m,Tue Feb 11 2025 09:20:07 GMT-0600 (Central Standard Time),686522.599999994,008_y_m_n_a.png,O,None,2015,10,1,3026.89999999851,683495.6999999955,7047,NNB,A,8
7,test,2,0.0,2-Back,1,m,Tue Feb 11 2025 09:20:07 GMT-0600 (Central Standard Time),688853.8999999985,043_m_f_n_a.png,O,m,1311,11,1,2324.60000000149,686529.299999997,7047,NNB,A,9
8,test,2,0.0,2-Back,1,m,Tue Feb 11 2025 09:20:07 GMT-0600 (Central Standard Time),691386.3999999985,010_y_f_n_a.png,O,m,1507,12,1,2526.2000000029802,688860.1999999955,7047,NNB,A,10
9,test,2,1.0,2-Back,1,z,Tue Feb 11 2025 09:20:07 GMT-0600 (Central Standard Time),693237.099999994,043_m_f_n_a.png,O,z,830,13,1,1844.1999999955297,691392.8999999985,7047,NNB,A,11
10,test,2,0.0,2-Back,1,m,Tue Feb 11 2025 09:20:07 GMT-0600 (Central Standard Time),695268.599999994,053_o_m_n_a.png,O,m,1013,14,1,2025.2999999970198,693243.299999997,7047,NNB,A,12
11,test,2,0.0,2-Back,1,m,Tue Feb 11 2025 09:20:07 GMT-0600 (Central Standard Time),697268.0,053_o_m_n_a.png,O,m,972,15,1,1992.5,695275.5,7047,NNB,A,13
12,test,2,0.0,2-Back,1,m,Tue Feb 11 2025 09:20:07 GMT-0600 (Central Standard Time),699451.799999997,044_o_f_n_a.png,O,m,1157,16,1,2177.39999999851,697274.3999999985,7047,NNB,A,14
13,test,2,0.0,2-Back,1,m,Tue Feb 11 2025 09:20:07 GMT-0600 (Central Standard Time),701366.599999994,058_m_m_n_a.png,O,m,894,17,1,1908.5,699458.099999994,7047,NNB,A,15
14,test,2,1.0,2-Back,1,z,Tue Feb 11 2025 09:20:07 GMT-0600 (Central Standard Time),702949.5,044_o_f_n_a.png,O,z,553,18,1,1576.7000000029802,701372.799999997,7047,NNB,A,16
0,test,3,1.0,2-Back,,,Tue Feb 11 2025 09:20:07 GMT-0600 (Central Standard Time),702949.5,041_y_m_n_a.png,O,space,3036,1,1,1576.7000000029802,701372.799999997,7047,NNB,A,0
0,test,3,1.0,2-Back,,,Tue Feb 11 2025 09:20:07 GMT-0600 (Central Standard Time),702949.5,041_y_m_n_a.png,O,space,3036,2,1,1576.7000000029802,701372.799999997,7047,NNB,A,0
1,test,3,0.0,2-Back,1,m,Tue Feb 11 2025 09:20:07 GMT-0600 (Central Standard Time),712746.5,044_o_f_n_a.png,O,m,657,3,1,1676.8000000044703,711069.6999999955,7047,NNB,A,1
2,test,3,0.0,2-Back,1,m,Tue Feb 11 2025 09:20:07 GMT-0600 (Central Standard Time),714629.299999997,045_m_m_n_a.png,O,m,862,4,1,1876.2999999970198,712753.0,7047,NNB,A,2
3,test,3,1.0,2-Back,1,z,Tue Feb 11 2025 09:20:07 GMT-0600 (Central Standard Time),716345.599999994,044_o_f_n_a.png,O,z,684,5,1,1709.8999999985099,714635.6999999955,7047,NNB,A,3
4,test,3,0.0,2-Back,1,m,Tue Feb 11 2025 09:20:07 GMT-0600 (Central Standard Time),718628.0,008_y_m_n_a.png,O,m,1255,6,1,2275.9000000059605,716352.099999994,7047,NNB,A,4
4,test,3,0.0,2-Back,0,m,Tue Feb 11 2025 09:20:07 GMT-0600 (Central Standard Time),721660.1999999955,045_m_m_n_a.png,O,None,2014,7,1,3025.5,718634.6999999955,7047,NNB,A,5
4,test,3,1.0,2-Back,0,z,Tue Feb 11 2025 09:20:07 GMT-0600 (Central Standard Time),723842.8999999985,008_y_m_n_a.png,O,m,1157,8,1,2175.60000000149,721667.299999997,7047,NNB,A,6
5,test,3,0.0,2-Back,1,m,Tue Feb 11 2025 09:20:07 GMT-0600 (Central Standard Time),726142.299999997,010_y_f_n_a.png,O,m,1270,9,1,2293.0,723849.299999997,7047,NNB,A,7
6,test,3,0.0,2-Back,1,m,Tue Feb 11 2025 09:20:07 GMT-0600 (Central Standard Time),728141.5,058_m_m_n_a.png,O,m,978,10,1,1992.8000000044703,726148.6999999955,7047,NNB,A,8
7,test,3,1.0,2-Back,1,z,Tue Feb 11 2025 09:20:07 GMT-0600 (Central Standard Time),729741.0,010_y_f_n_a.png,O,z,571,11,1,1592.7000000029802,728148.299999997,7047,NNB,A,9
8,test,3,1.0,2-Back,1,z,Tue Feb 11 2025 09:20:07 GMT-0600 (Central Standard Time),732207.0,058_m_m_n_a.png,O,z,1444,12,1,2459.9000000059605,729747.099999994,7047,NNB,A,10
9,test,3,0.0,2-Back,1,m,Tue Feb 11 2025 09:20:07 GMT-0600 (Central Standard Time),733906.3999999985,044_o_f_n_a.png,O,m,674,13,1,1692.8999999985099,732213.5,7047,NNB,A,11
10,test,3,0.0,2-Back,1,m,Tue Feb 11 2025 09:20:07 GMT-0600 (Central Standard Time),735806.0,050_m_f_n_a.png,O,m,877,14,1,1892.8000000044703,733913.1999999955,7047,NNB,A,12
11,test,3,0.0,2-Back,1,m,Tue Feb 11 2025 09:20:07 GMT-0600 (Central Standard Time),737771.8999999985,046_o_m_n_a.png,O,m,948,15,1,1959.3999999985099,735812.5,7047,NNB,A,13
12,test,3,1.0,2-Back,1,z,Tue Feb 11 2025 09:20:07 GMT-0600 (Central Standard Time),739554.8999999985,050_m_f_n_a.png,O,z,757,16,1,1776.8999999985099,737778.0,7047,NNB,A,14
13,test,3,0.0,2-Back,1,m,Tue Feb 11 2025 09:20:07 GMT-0600 (Central Standard Time),742120.5,047_o_f_n_a.png,O,m,1542,17,1,2559.7000000029802,739560.799999997,7047,NNB,A,15
14,test,3,0.0,2-Back,1,m,Tue Feb 11 2025 09:20:07 GMT-0600 (Central Standard Time),744819.6999999955,047_o_f_n_a.png,O,m,1680,18,1,2692.6999999955297,742127.0,7047,NNB,A,16
0,test,4,0.0,2-Back,,,Tue Feb 11 2025 09:20:07 GMT-0600 (Central Standard Time),744819.6999999955,053_o_m_n_a.png,O,space,4182,1,1,2692.6999999955297,742127.0,7047,NNB,A,0
0,test,4,0.0,2-Back,,,Tue Feb 11 2025 09:20:07 GMT-0600 (Central Standard Time),744819.6999999955,063_y_f_n_a.png,O,space,4182,2,1,2692.6999999955297,742127.0,7047,NNB,A,0
1,test,4,1.0,2-Back,1,z,Tue Feb 11 2025 09:20:07 GMT-0600 (Central Standard Time),756449.3999999985,053_o_m_n_a.png,O,z,1291,3,1,2309.8000000044703,754139.599999994,7047,NNB,A,1
2,test,4,1.0,2-Back,1,z,Tue Feb 11 2025 09:20:07 GMT-0600 (Central Standard Time),758499.0,063_y_f_n_a.png,O,z,1023,4,1,2042.7000000029802,756456.299999997,7047,NNB,A,2
3,test,4,0.0,2-Back,1,m,Tue Feb 11 2025 09:20:07 GMT-0600 (Central Standard Time),760398.1999999955,044_o_f_n_a.png,O,m,878,5,1,1893.1000000014901,758505.099999994,7047,NNB,A,3
4,test,4,0.0,2-Back,1,m,Tue Feb 11 2025 09:20:07 GMT-0600 (Central Standard Time),762830.599999994,044_o_f_n_a.png,O,m,1410,6,1,2425.7999999970198,760404.799999997,7047,NNB,A,4
5,test,4,0.0,2-Back,1,m,Tue Feb 11 2025 09:20:07 GMT-0600 (Central Standard Time),765363.3999999985,043_m_f_n_a.png,O,m,1506,7,1,2526.2000000029802,762837.1999999955,7047,NNB,A,5
6,test,4,0.0,2-Back,1,m,Tue Feb 11 2025 09:20:07 GMT-0600 (Central Standard Time),767496.0,008_y_m_n_a.png,O,m,1110,8,1,2126.2000000029802,765369.799999997,7047,NNB,A,6
7,test,4,1.0,2-Back,1,z,Tue Feb 11 2025 09:20:07 GMT-0600 (Central Standard Time),769245.6999999955,043_m_f_n_a.png,O,z,721,9,1,1742.8999999985099,767502.799999997,7047,NNB,A,7
8,test,4,0.0,2-Back,1,m,Tue Feb 11 2025 09:20:07 GMT-0600 (Central Standard Time),771111.299999997,058_m_m_n_a.png,O,m,843,10,1,1859.2999999970198,769252.0,7047,NNB,A,8
8,test,4,0.0,2-Back,0,m,Tue Feb 11 2025 09:20:07 GMT-0600 (Central Standard Time),772944.1999999955,008_y_m_n_a.png,O,z,801,11,1,1826.3999999985099,771117.799999997,7047,NNB,A,9
9,test,4,0.0,2-Back,1,m,Tue Feb 11 2025 09:20:07 GMT-0600 (Central Standard Time),775726.8999999985,047_o_f_n_a.png,O,m,1759,12,1,2775.89999999851,772951.0,7047,NNB,A,10
10,test,4,0.0,2-Back,1,m,Tue Feb 11 2025 09:20:07 GMT-0600 (Central Standard Time),778059.3999999985,041_y_m_n_a.png,O,m,1299,13,1,2326.60000000149,775732.799999997,7047,NNB,A,11
11,test,4,1.0,2-Back,1,z,Tue Feb 11 2025 09:20:07 GMT-0600 (Central Standard Time),779825.3999999985,047_o_f_n_a.png,O,z,734,14,1,1759.6000000014901,778065.799999997,7047,NNB,A,12
12,test,4,1.0,2-Back,1,z,Tue Feb 11 2025 09:20:07 GMT-0600 (Central Standard Time),782174.6999999955,041_y_m_n_a.png,O,z,1327,15,1,2342.7999999970198,779831.8999999985,7047,NNB,A,13
13,test,4,0.0,2-Back,1,m,Tue Feb 11 2025 09:20:07 GMT-0600 (Central Standard Time),784557.299999997,045_m_m_n_a.png,O,m,1363,16,1,2376.2999999970198,782181.0,7047,NNB,A,14
14,test,4,0.0,2-Back,1,m,Tue Feb 11 2025 09:20:07 GMT-0600 (Central Standard Time),786623.1999999955,050_m_f_n_a.png,O,m,1036,17,1,2059.5,784563.6999999955,7047,NNB,A,15
15,test,4,1.0,2-Back,1,z,Tue Feb 11 2025 09:20:07 GMT-0600 (Central Standard Time),788406.1999999955,045_m_m_n_a.png,O,z,761,18,1,1776.2999999970198,786629.8999999985,7047,NNB,A,16
0,test,5,1.0,2-Back,,,Tue Feb 11 2025 09:20:07 GMT-0600 (Central Standard Time),788406.1999999955,041_y_m_n_a.png,O,space,2691,1,1,1776.2999999970198,786629.8999999985,7047,NNB,A,0
0,test,5,1.0,2-Back,,,Tue Feb 11 2025 09:20:07 GMT-0600 (Central Standard Time),788406.1999999955,050_m_f_n_a.png,O,space,2691,2,1,1776.2999999970198,786629.8999999985,7047,NNB,A,0
1,test,5,1.0,2-Back,1,z,Tue Feb 11 2025 09:20:07 GMT-0600 (Central Standard Time),798086.599999994,041_y_m_n_a.png,O,z,878,3,1,1893.1999999955297,796193.3999999985,7047,NNB,A,1
2,test,5,1.0,2-Back,1,z,Tue Feb 11 2025 09:20:07 GMT-0600 (Central Standard Time),799853.599999994,050_m_f_n_a.png,O,z,746,4,1,1760.5999999940395,798093.0,7047,NNB,A,2
3,test,5,0.0,2-Back,1,m,Tue Feb 11 2025 09:20:07 GMT-0600 (Central Standard Time),801635.5,047_o_f_n_a.png,O,m,756,5,1,1775.0,799860.5,7047,NNB,A,3
4,test,5,0.0,2-Back,1,m,Tue Feb 11 2025 09:20:07 GMT-0600 (Central Standard Time),804351.1999999955,041_y_m_n_a.png,O,m,1684,6,1,2709.39999999851,801641.799999997,7047,NNB,A,4
5,test,5,0.0,2-Back,1,m,Tue Feb 11 2025 09:20:07 GMT-0600 (Central Standard Time),806467.099999994,010_y_f_n_a.png,O,m,1090,7,1,2110.0,804357.099999994,7047,NNB,A,5
6,test,5,0.0,2-Back,1,m,Tue Feb 11 2025 09:20:07 GMT-0600 (Central Standard Time),808649.6999999955,047_o_f_n_a.png,O,m,1150,8,1,2176.1999999955297,806473.5,7047,NNB,A,6
7,test,5,1.0,2-Back,1,z,Tue Feb 11 2025 09:20:07 GMT-0600 (Central Standard Time),810416.0,010_y_f_n_a.png,O,z,735,9,1,1759.7000000029802,808656.299999997,7047,NNB,A,7
8,test,5,0.0,2-Back,1,m,Tue Feb 11 2025 09:20:07 GMT-0600 (Central Standard Time),812398.799999997,046_o_m_n_a.png,O,m,953,10,1,1976.5,810422.299999997,7047,NNB,A,8
9,test,5,0.0,2-Back,1,m,Tue Feb 11 2025 09:20:07 GMT-0600 (Central Standard Time),814381.1999999955,043_m_f_n_a.png,O,m,962,11,1,1976.1000000014901,812405.099999994,7047,NNB,A,9
10,test,5,0.0,2-Back,1,m,Tue Feb 11 2025 09:20:07 GMT-0600 (Central Standard Time),816347.5,058_m_m_n_a.png,O,m,939,12,1,1959.8000000044703,814387.6999999955,7047,NNB,A,10
10,test,5,0.0,2-Back,0,m,Tue Feb 11 2025 09:20:07 GMT-0600 (Central Standard Time),818396.6999999955,046_o_m_n_a.png,O,z,1022,13,1,2042.6000000014901,816354.099999994,7047,NNB,A,11
10,test,5,1.0,2-Back,0,z,Tue Feb 11 2025 09:20:07 GMT-0600 (Central Standard Time),820329.599999994,058_m_m_n_a.png,O,m,900,14,1,1926.1999999955297,818403.3999999985,7047,NNB,A,12
11,test,5,0.0,2-Back,1,m,Tue Feb 11 2025 09:20:07 GMT-0600 (Central Standard Time),822495.3999999985,063_y_f_n_a.png,O,m,1136,15,1,2159.2000000029802,820336.1999999955,7047,NNB,A,13
12,test,5,0.0,2-Back,1,m,Tue Feb 11 2025 09:20:07 GMT-0600 (Central Standard Time),824478.099999994,053_o_m_n_a.png,O,m,953,16,1,1976.0999999940395,822502.0,7047,NNB,A,14
13,test,5,0.0,2-Back,1,m,Tue Feb 11 2025 09:20:07 GMT-0600 (Central Standard Time),826927.3999999985,043_m_f_n_a.png,O,m,1419,17,1,2442.7000000029802,824484.6999999955,7047,NNB,A,15
14,test,5,1.0,2-Back,1,z,Tue Feb 11 2025 09:20:07 GMT-0600 (Central Standard Time),828827.0,053_o_m_n_a.png,O,z,873,18,1,1893.1000000014901,826933.8999999985,7047,NNB,A,16
