block_c,block_dur,condition,countdown,datetime,endtime,list,multichar_response,project,response,response_time,session_number,start_end,starttime,subject_id,task,task_vers,trial
,,,,Wed Oct 02 2024 12:10:26 GMT-0500 (Central Daylight Time),,,,O,space,647,1,,,7023,WL,A,
prac,,0,,Wed Oct 02 2024 12:10:26 GMT-0500 (Central Daylight Time),,NA,b,O,b,2191,1,,,7023,WL,A,1.0
prac,,0,,Wed Oct 02 2024 12:10:26 GMT-0500 (Central Daylight Time),,NA,bo,O,o,231,1,,,7023,WL,A,1.0
prac,,0,,Wed Oct 02 2024 12:10:26 GMT-0500 (Central Daylight Time),,NA,boo,O,o,144,1,,,7023,WL,A,1.0
prac,,0,,Wed Oct 02 2024 12:10:26 GMT-0500 (Central Daylight Time),,NA,boos,O,s,96,1,,,7023,WL,A,1.0
prac,,0,,Wed Oct 02 2024 12:10:26 GMT-0500 (Central Daylight Time),,NA,boost,O,t,172,1,,,7023,WL,A,1.0
prac,,0,,Wed Oct 02 2024 12:10:26 GMT-0500 (Central Daylight Time),,NA,boostenter,O,enter,650,1,,,7023,WL,A,1.0
1,1.0159997940063477,learn,58984.00020599365,Wed Oct 02 2024 12:10:26 GMT-0500 (Central Daylight Time),107528.89999997616,A,b,O,b,974,1,1015.3999999761581,106513.5,7023,WL,A,1.0
1,1.3989999294281006,learn,58601.0000705719,Wed Oct 02 2024 12:10:26 GMT-0500 (Central Daylight Time),107912.10000002384,A,bo,O,o,343,1,1398.6000000238419,106513.5,7023,WL,A,1.0
1,1.5989999771118164,learn,58401.00002288818,Wed Oct 02 2024 12:10:26 GMT-0500 (Central Daylight Time),108111.79999995232,A,boo,O,o,160,1,1598.2999999523163,106513.5,7023,WL,A,1.0
1,1.9659998416900635,learn,58034.00015830994,Wed Oct 02 2024 12:10:26 GMT-0500 (Central Daylight Time),108478.20000004768,A,book,O,k,339,1,1964.7000000476837,106513.5,7023,WL,A,1.0
1,2.297999858856201,learn,57702.0001411438,Wed Oct 02 2024 12:10:26 GMT-0500 (Central Daylight Time),108810.79999995232,A,bookenter,O,enter,303,1,2297.2999999523163,106513.5,7023,WL,A,1.0
1,3.1489999294281006,learn,56851.0000705719,Wed Oct 02 2024 12:10:26 GMT-0500 (Central Daylight Time),109661.39999997616,A,f,O,f,834,1,850.1999999284744,108811.20000004768,7023,WL,A,2.0
1,3.2649998664855957,learn,56735.000133514404,Wed Oct 02 2024 12:10:26 GMT-0500 (Central Daylight Time),109777.89999997616,A,fl,O,l,76,1,966.6999999284744,108811.20000004768,7023,WL,A,2.0
1,3.4649999141693115,learn,56535.00008583069,Wed Oct 02 2024 12:10:26 GMT-0500 (Central Daylight Time),109977.89999997616,A,flo,O,o,159,1,1166.6999999284744,108811.20000004768,7023,WL,A,2.0
1,3.569000005722046,learn,56430.999994277954,Wed Oct 02 2024 12:10:26 GMT-0500 (Central Daylight Time),110081.20000004768,A,flow,O,w,66,1,1270.0,108811.20000004768,7023,WL,A,2.0
1,4.180999994277954,learn,55819.000005722046,Wed Oct 02 2024 12:10:26 GMT-0500 (Central Daylight Time),110693.5,A,flowe,O,e,603,1,1882.2999999523163,108811.20000004768,7023,WL,A,2.0
1,4.2809998989105225,learn,55719.00010108948,Wed Oct 02 2024 12:10:26 GMT-0500 (Central Daylight Time),110793.39999997616,A,flower,O,r,82,1,1982.1999999284744,108811.20000004768,7023,WL,A,2.0
1,4.596999883651733,learn,55403.00011634827,Wed Oct 02 2024 12:10:26 GMT-0500 (Central Daylight Time),111110.0,A,flowerenter,O,enter,303,1,2298.7999999523163,108811.20000004768,7023,WL,A,2.0
1,4.996999979019165,learn,55003.000020980835,Wed Oct 02 2024 12:10:26 GMT-0500 (Central Daylight Time),111509.70000004768,A,t,O,t,390,1,399.3000000715256,111110.39999997616,7023,WL,A,3.0
1,5.197999954223633,learn,54802.00004577637,Wed Oct 02 2024 12:10:26 GMT-0500 (Central Daylight Time),111710.5,A,tr,O,r,191,1,600.1000000238419,111110.39999997616,7023,WL,A,3.0
1,5.398000001907349,learn,54601.99999809265,Wed Oct 02 2024 12:10:26 GMT-0500 (Central Daylight Time),111910.39999997616,A,tra,O,a,173,1,800.0,111110.39999997616,7023,WL,A,3.0
1,5.513999938964844,learn,54486.000061035156,Wed Oct 02 2024 12:10:26 GMT-0500 (Central Daylight Time),112026.89999997616,A,trai,O,i,85,1,916.5,111110.39999997616,7023,WL,A,3.0
1,5.763999938964844,learn,54236.000061035156,Wed Oct 02 2024 12:10:26 GMT-0500 (Central Daylight Time),112276.79999995232,A,train,O,n,225,1,1166.3999999761581,111110.39999997616,7023,WL,A,3.0
1,6.113999843597412,learn,53886.00015640259,Wed Oct 02 2024 12:10:26 GMT-0500 (Central Daylight Time),112626.29999995232,A,trainenter,O,enter,318,1,1515.8999999761581,111110.39999997616,7023,WL,A,3.0
1,6.396999835968018,learn,53603.00016403198,Wed Oct 02 2024 12:10:26 GMT-0500 (Central Daylight Time),112910.0,A,m,O,m,267,1,283.5,112626.5,7023,WL,A,4.0
1,6.5309998989105225,learn,53469.00010108948,Wed Oct 02 2024 12:10:26 GMT-0500 (Central Daylight Time),113043.5,A,me,O,e,94,1,417.0,112626.5,7023,WL,A,4.0
1,6.71399998664856,learn,53286.00001335144,Wed Oct 02 2024 12:10:26 GMT-0500 (Central Daylight Time),113226.60000002384,A,med,O,d,151,1,600.1000000238419,112626.5,7023,WL,A,4.0
1,7.0309998989105225,learn,52969.00010108948,Wed Oct 02 2024 12:10:26 GMT-0500 (Central Daylight Time),113543.20000004768,A,meda,O,a,286,1,916.7000000476837,112626.5,7023,WL,A,4.0
1,7.496999979019165,learn,52503.000020980835,Wed Oct 02 2024 12:10:26 GMT-0500 (Central Daylight Time),114009.60000002384,A,med,O,backspace,437,1,1383.1000000238419,112626.5,7023,WL,A,4.0
1,7.663999795913696,learn,52336.000204086304,Wed Oct 02 2024 12:10:26 GMT-0500 (Central Daylight Time),114176.5,A,me,O,backspace,138,1,1550.0,112626.5,7023,WL,A,4.0
1,7.746999979019165,learn,52253.000020980835,Wed Oct 02 2024 12:10:26 GMT-0500 (Central Daylight Time),114259.70000004768,A,mea,O,a,45,1,1633.2000000476837,112626.5,7023,WL,A,4.0
1,7.96399998664856,learn,52036.00001335144,Wed Oct 02 2024 12:10:26 GMT-0500 (Central Daylight Time),114476.39999997616,A,mead,O,d,174,1,1849.8999999761581,112626.5,7023,WL,A,4.0
1,8.196999788284302,learn,51803.0002117157,Wed Oct 02 2024 12:10:26 GMT-0500 (Central Daylight Time),114709.70000004768,A,meado,O,o,201,1,2083.2000000476837,112626.5,7023,WL,A,4.0
1,8.346999883651733,learn,51653.00011634827,Wed Oct 02 2024 12:10:26 GMT-0500 (Central Daylight Time),114859.60000002384,A,meadow,O,w,117,1,2233.100000023842,112626.5,7023,WL,A,4.0
1,8.54699993133545,learn,51453.00006866455,Wed Oct 02 2024 12:10:26 GMT-0500 (Central Daylight Time),115058.70000004768,A,meadowenter,O,enter,167,1,2432.2000000476837,112626.5,7023,WL,A,4.0
1,9.013000011444092,learn,50986.99998855591,Wed Oct 02 2024 12:10:26 GMT-0500 (Central Daylight Time),115525.29999995232,A,l,O,l,450,1,466.2999999523163,115059.0,7023,WL,A,5.0
1,9.246999979019165,learn,50753.000020980835,Wed Oct 02 2024 12:10:26 GMT-0500 (Central Daylight Time),115759.0,A,lo,O,o,210,1,700.0,115059.0,7023,WL,A,5.0
1,9.462999820709229,learn,50537.00017929077,Wed Oct 02 2024 12:10:26 GMT-0500 (Central Daylight Time),115975.70000004768,A,log,O,g,188,1,916.7000000476837,115059.0,7023,WL,A,5.0
1,9.796000003814697,learn,50203.9999961853,Wed Oct 02 2024 12:10:26 GMT-0500 (Central Daylight Time),116308.29999995232,A,logenter,O,enter,309,1,1249.2999999523163,115059.0,7023,WL,A,5.0
1,10.179999828338623,learn,49820.00017166138,Wed Oct 02 2024 12:10:26 GMT-0500 (Central Daylight Time),116692.5,A,h,O,h,378,1,384.0,116308.5,7023,WL,A,6.0
1,10.329999923706055,learn,49670.000076293945,Wed Oct 02 2024 12:10:26 GMT-0500 (Central Daylight Time),116842.29999995232,A,ha,O,a,110,1,533.7999999523163,116308.5,7023,WL,A,6.0
1,10.562999963760376,learn,49437.000036239624,Wed Oct 02 2024 12:10:26 GMT-0500 (Central Daylight Time),117075.39999997616,A,har,O,r,195,1,766.8999999761581,116308.5,7023,WL,A,6.0
1,10.69599986076355,learn,49304.00013923645,Wed Oct 02 2024 12:10:26 GMT-0500 (Central Daylight Time),117208.70000004768,A,harp,O,p,104,1,900.2000000476837,116308.5,7023,WL,A,6.0
1,11.128999948501587,learn,48871.00005149841,Wed Oct 02 2024 12:10:26 GMT-0500 (Central Daylight Time),117641.10000002384,A,harpenter,O,enter,399,1,1332.6000000238419,116308.5,7023,WL,A,6.0
1,18.82699990272522,learn,41173.00009727478,Wed Oct 02 2024 12:10:26 GMT-0500 (Central Daylight Time),125339.39999997616,A,h,O,h,7676,1,7698.0,117641.39999997616,7023,WL,A,7.0
1,18.90999984741211,learn,41090.00015258789,Wed Oct 02 2024 12:10:26 GMT-0500 (Central Daylight Time),125422.70000004768,A,ha,O,a,52,1,7781.300000071526,117641.39999997616,7023,WL,A,7.0
1,19.092999935150146,learn,40907.00006484985,Wed Oct 02 2024 12:10:26 GMT-0500 (Central Daylight Time),125605.70000004768,A,har,O,r,158,1,7964.300000071526,117641.39999997616,7023,WL,A,7.0
1,19.543999910354614,learn,40456.000089645386,Wed Oct 02 2024 12:10:26 GMT-0500 (Central Daylight Time),126055.79999995232,A,harp,O,p,417,1,8414.399999976158,117641.39999997616,7023,WL,A,7.0
1,19.89299988746643,learn,40107.00011253357,Wed Oct 02 2024 12:10:26 GMT-0500 (Central Daylight Time),126404.79999995232,A,harpenter,O,enter,323,1,8763.399999976158,117641.39999997616,7023,WL,A,7.0
1,23.258999824523926,learn,36741.000175476074,Wed Oct 02 2024 12:10:26 GMT-0500 (Central Daylight Time),129771.20000004768,A,t,O,t,3352,1,3366.0,126405.20000004768,7023,WL,A,8.0
1,23.45899987220764,learn,36541.00012779236,Wed Oct 02 2024 12:10:26 GMT-0500 (Central Daylight Time),129971.20000004768,A,tr,O,r,170,1,3566.0,126405.20000004768,7023,WL,A,8.0
1,23.64199995994568,learn,36358.00004005432,Wed Oct 02 2024 12:10:26 GMT-0500 (Central Daylight Time),130154.29999995232,A,tra,O,a,153,1,3749.0999999046326,126405.20000004768,7023,WL,A,8.0
1,23.79199981689453,learn,36208.00018310547,Wed Oct 02 2024 12:10:26 GMT-0500 (Central Daylight Time),130304.39999997616,A,trai,O,i,123,1,3899.1999999284744,126405.20000004768,7023,WL,A,8.0
1,24.05900001525879,learn,35940.99998474121,Wed Oct 02 2024 12:10:26 GMT-0500 (Central Daylight Time),130571.0,A,train,O,n,237,1,4165.799999952316,126405.20000004768,7023,WL,A,8.0
1,24.407999992370605,learn,35592.000007629395,Wed Oct 02 2024 12:10:26 GMT-0500 (Central Daylight Time),130920.29999995232,A,trainenter,O,enter,312,1,4515.099999904633,126405.20000004768,7023,WL,A,8.0
1,39.019999980926514,learn,20980.000019073486,Wed Oct 02 2024 12:10:26 GMT-0500 (Central Daylight Time),145532.10000002384,A,enter,O,enter,14605,1,14611.5,130920.60000002384,7023,WL,A,9.0
1,39.919999837875366,learn,20080.000162124634,Wed Oct 02 2024 12:10:26 GMT-0500 (Central Daylight Time),146431.79999995232,A,enter,O,enter,881,1,899.2999999523163,145532.5,7023,WL,A,10.0
1,40.085999965667725,learn,19914.000034332275,Wed Oct 02 2024 12:10:26 GMT-0500 (Central Daylight Time),146598.29999995232,A,enter,O,enter,157,1,166.09999990463257,146432.20000004768,7023,WL,A,11.0
1,40.26899981498718,learn,19731.000185012817,Wed Oct 02 2024 12:10:26 GMT-0500 (Central Daylight Time),146781.70000004768,A,enter,O,enter,167,1,183.10000002384186,146598.60000002384,7023,WL,A,12.0
1,40.418999910354614,learn,19581.000089645386,Wed Oct 02 2024 12:10:26 GMT-0500 (Central Daylight Time),146931.5,A,enter,O,enter,135,1,149.5,146782.0,7023,WL,A,13.0
1,40.668999910354614,learn,19331.000089645386,Wed Oct 02 2024 12:10:26 GMT-0500 (Central Daylight Time),147181.5,A,enter,O,enter,234,1,249.60000002384186,146931.89999997616,7023,WL,A,14.0
1,41.03600001335144,learn,18963.99998664856,Wed Oct 02 2024 12:10:26 GMT-0500 (Central Daylight Time),147547.89999997616,A,enter,O,enter,359,1,366.0,147181.89999997616,7023,WL,A,15.0
2,1.4159998893737793,learn,58584.00011062622,Wed Oct 02 2024 12:10:26 GMT-0500 (Central Daylight Time),219641.20000004768,A,m,O,m,1380,1,1415.1000000238419,218226.10000002384,7023,WL,A,1.0
2,1.5490000247955322,learn,58450.99997520447,Wed Oct 02 2024 12:10:26 GMT-0500 (Central Daylight Time),219774.5,A,me,O,e,115,1,1548.3999999761581,218226.10000002384,7023,WL,A,1.0
2,1.75,learn,58250.0,Wed Oct 02 2024 12:10:26 GMT-0500 (Central Daylight Time),219974.79999995232,A,mea,O,a,176,1,1748.6999999284744,218226.10000002384,7023,WL,A,1.0
2,1.9499998092651367,learn,58050.00019073486,Wed Oct 02 2024 12:10:26 GMT-0500 (Central Daylight Time),220175.0,A,mead,O,d,175,1,1948.8999999761581,218226.10000002384,7023,WL,A,1.0
2,2.132999897003174,learn,57867.000102996826,Wed Oct 02 2024 12:10:26 GMT-0500 (Central Daylight Time),220357.89999997616,A,meado,O,o,151,1,2131.7999999523163,218226.10000002384,7023,WL,A,1.0
2,2.2829999923706055,learn,57717.000007629395,Wed Oct 02 2024 12:10:26 GMT-0500 (Central Daylight Time),220507.89999997616,A,meadow,O,w,115,1,2281.7999999523163,218226.10000002384,7023,WL,A,1.0
2,2.631999969482422,learn,57368.00003051758,Wed Oct 02 2024 12:10:26 GMT-0500 (Central Daylight Time),220857.29999995232,A,meadowenter,O,enter,325,1,2631.1999999284744,218226.10000002384,7023,WL,A,1.0
2,3.365000009536743,learn,56634.99999046326,Wed Oct 02 2024 12:10:26 GMT-0500 (Central Daylight Time),221590.29999995232,A,r,O,r,724,1,732.6999999284744,220857.60000002384,7023,WL,A,2.0
2,3.6489999294281006,learn,56351.0000705719,Wed Oct 02 2024 12:10:26 GMT-0500 (Central Daylight Time),221874.5,A,ru,O,u,263,1,1016.8999999761581,220857.60000002384,7023,WL,A,2.0
2,3.9489998817443848,learn,56051.000118255615,Wed Oct 02 2024 12:10:26 GMT-0500 (Central Daylight Time),222173.79999995232,A,rug,O,g,267,1,1316.1999999284744,220857.60000002384,7023,WL,A,2.0
2,4.365000009536743,learn,55634.99999046326,Wed Oct 02 2024 12:10:26 GMT-0500 (Central Daylight Time),222590.10000002384,A,rugenter,O,enter,391,1,1732.5,220857.60000002384,7023,WL,A,2.0
2,5.381999969482422,learn,54618.00003051758,Wed Oct 02 2024 12:10:26 GMT-0500 (Central Daylight Time),223606.79999995232,A,f,O,f,1000,1,1016.3999999761581,222590.39999997616,7023,WL,A,3.0
2,5.513999938964844,learn,54486.000061035156,Wed Oct 02 2024 12:10:26 GMT-0500 (Central Daylight Time),223739.60000002384,A,fl,O,l,109,1,1149.2000000476837,222590.39999997616,7023,WL,A,3.0
2,5.697999954223633,learn,54302.00004577637,Wed Oct 02 2024 12:10:26 GMT-0500 (Central Daylight Time),223923.10000002384,A,flo,O,o,168,1,1332.7000000476837,222590.39999997616,7023,WL,A,3.0
2,5.763999938964844,learn,54236.000061035156,Wed Oct 02 2024 12:10:26 GMT-0500 (Central Daylight Time),223989.79999995232,A,flow,O,w,54,1,1399.3999999761581,222590.39999997616,7023,WL,A,3.0
2,5.980999946594238,learn,54019.00005340576,Wed Oct 02 2024 12:10:26 GMT-0500 (Central Daylight Time),224206.29999995232,A,flowe,O,e,196,1,1615.8999999761581,222590.39999997616,7023,WL,A,3.0
2,6.080999851226807,learn,53919.00014877319,Wed Oct 02 2024 12:10:26 GMT-0500 (Central Daylight Time),224306.60000002384,A,flower,O,r,87,1,1716.2000000476837,222590.39999997616,7023,WL,A,3.0
2,6.2809998989105225,learn,53719.00010108948,Wed Oct 02 2024 12:10:26 GMT-0500 (Central Daylight Time),224506.20000004768,A,flowerenter,O,enter,171,1,1915.8000000715256,222590.39999997616,7023,WL,A,3.0
2,7.398000001907349,learn,52601.99999809265,Wed Oct 02 2024 12:10:26 GMT-0500 (Central Daylight Time),225623.10000002384,A,c,O,c,1108,1,1116.7000000476837,224506.39999997616,7023,WL,A,4.0
2,7.580999851226807,learn,52419.00014877319,Wed Oct 02 2024 12:10:26 GMT-0500 (Central Daylight Time),225805.79999995232,A,ch,O,h,150,1,1299.3999999761581,224506.39999997616,7023,WL,A,4.0
2,7.797999858856201,learn,52202.0001411438,Wed Oct 02 2024 12:10:26 GMT-0500 (Central Daylight Time),226023.10000002384,A,chi,O,i,200,1,1516.7000000476837,224506.39999997616,7023,WL,A,4.0
2,7.996999979019165,learn,52003.000020980835,Wed Oct 02 2024 12:10:26 GMT-0500 (Central Daylight Time),226222.10000002384,A,chim,O,m,170,1,1715.7000000476837,224506.39999997616,7023,WL,A,4.0
2,8.246999979019165,learn,51753.000020980835,Wed Oct 02 2024 12:10:26 GMT-0500 (Central Daylight Time),226472.39999997616,A,chimn,O,n,230,1,1966.0,224506.39999997616,7023,WL,A,4.0
2,8.398000001907349,learn,51601.99999809265,Wed Oct 02 2024 12:10:26 GMT-0500 (Central Daylight Time),226623.0,A,chimne,O,e,129,1,2116.600000023842,224506.39999997616,7023,WL,A,4.0
2,8.52999997138977,learn,51470.00002861023,Wed Oct 02 2024 12:10:26 GMT-0500 (Central Daylight Time),226755.70000004768,A,chimney,O,y,100,1,2249.3000000715256,224506.39999997616,7023,WL,A,4.0
2,8.896999835968018,learn,51103.00016403198,Wed Oct 02 2024 12:10:26 GMT-0500 (Central Daylight Time),227121.79999995232,A,chimneyenter,O,enter,347,1,2615.399999976158,224506.39999997616,7023,WL,A,4.0
2,9.513999938964844,learn,50486.000061035156,Wed Oct 02 2024 12:10:26 GMT-0500 (Central Daylight Time),227739.10000002384,A,r,O,r,596,1,617.0,227122.10000002384,7023,WL,A,5.0
2,9.69599986076355,learn,50304.00013923645,Wed Oct 02 2024 12:10:26 GMT-0500 (Central Daylight Time),227921.70000004768,A,ra,O,a,151,1,799.6000000238419,227122.10000002384,7023,WL,A,5.0
2,9.896999835968018,learn,50103.00016403198,Wed Oct 02 2024 12:10:26 GMT-0500 (Central Daylight Time),228122.0,A,rat,O,t,188,1,999.8999999761581,227122.10000002384,7023,WL,A,5.0
2,10.062999963760376,learn,49937.000036239624,Wed Oct 02 2024 12:10:26 GMT-0500 (Central Daylight Time),228288.70000004768,A,ratt,O,t,137,1,1166.6000000238419,227122.10000002384,7023,WL,A,5.0
2,10.212999820709229,learn,49787.00017929077,Wed Oct 02 2024 12:10:26 GMT-0500 (Central Daylight Time),228438.10000002384,A,rattl,O,l,121,1,1316.0,227122.10000002384,7023,WL,A,5.0
2,10.346999883651733,learn,49653.00011634827,Wed Oct 02 2024 12:10:26 GMT-0500 (Central Daylight Time),228572.20000004768,A,rattle,O,e,121,1,1450.1000000238419,227122.10000002384,7023,WL,A,5.0
2,10.628999948501587,learn,49371.00005149841,Wed Oct 02 2024 12:10:26 GMT-0500 (Central Daylight Time),228854.70000004768,A,rattleenter,O,enter,249,1,1732.6000000238419,227122.10000002384,7023,WL,A,5.0
2,11.679999828338623,learn,48320.00017166138,Wed Oct 02 2024 12:10:26 GMT-0500 (Central Daylight Time),229905.0,A,g,O,g,1039,1,1050.0,228855.0,7023,WL,A,6.0
2,11.812999963760376,learn,48187.000036239624,Wed Oct 02 2024 12:10:26 GMT-0500 (Central Daylight Time),230038.39999997616,A,go,O,o,100,1,1183.3999999761581,228855.0,7023,WL,A,6.0
2,12.01199984550476,learn,47988.00015449524,Wed Oct 02 2024 12:10:26 GMT-0500 (Central Daylight Time),230237.70000004768,A,gol,O,l,167,1,1382.7000000476837,228855.0,7023,WL,A,6.0
2,12.095999956130981,learn,47904.00004386902,Wed Oct 02 2024 12:10:26 GMT-0500 (Central Daylight Time),230320.89999997616,A,gold,O,d,70,1,1465.8999999761581,228855.0,7023,WL,A,6.0
2,12.561999797821045,learn,47438.000202178955,Wed Oct 02 2024 12:10:26 GMT-0500 (Central Daylight Time),230787.20000004768,A,goldenter,O,enter,460,1,1932.2000000476837,228855.0,7023,WL,A,6.0
2,13.211999893188477,learn,46788.00010681152,Wed Oct 02 2024 12:10:26 GMT-0500 (Central Daylight Time),231437.5,A,h,O,h,634,1,650.0,230787.5,7023,WL,A,7.0
2,13.328999996185303,learn,46671.0000038147,Wed Oct 02 2024 12:10:26 GMT-0500 (Central Daylight Time),231554.20000004768,A,ha,O,a,89,1,766.7000000476837,230787.5,7023,WL,A,7.0
2,13.51199984550476,learn,46488.00015449524,Wed Oct 02 2024 12:10:26 GMT-0500 (Central Daylight Time),231737.60000002384,A,har,O,r,170,1,950.1000000238419,230787.5,7023,WL,A,7.0
2,13.661999940872192,learn,46338.00005912781,Wed Oct 02 2024 12:10:26 GMT-0500 (Central Daylight Time),231887.20000004768,A,haro,O,o,116,1,1099.7000000476837,230787.5,7023,WL,A,7.0
2,14.327999830245972,learn,45672.00016975403,Wed Oct 02 2024 12:10:26 GMT-0500 (Central Daylight Time),232553.5,A,har,O,backspace,646,1,1766.0,230787.5,7023,WL,A,7.0
2,14.610999822616577,learn,45389.00017738342,Wed Oct 02 2024 12:10:26 GMT-0500 (Central Daylight Time),232836.60000002384,A,harp,O,p,274,1,2049.100000023842,230787.5,7023,WL,A,7.0
2,14.827999830245972,learn,45172.00016975403,Wed Oct 02 2024 12:10:26 GMT-0500 (Central Daylight Time),233053.29999995232,A,harpenter,O,enter,200,1,2265.7999999523163,230787.5,7023,WL,A,7.0
2,15.144999980926514,learn,44855.000019073486,Wed Oct 02 2024 12:10:26 GMT-0500 (Central Daylight Time),233370.60000002384,A,s,O,s,305,1,317.10000002384186,233053.5,7023,WL,A,8.0
2,15.378000020980835,learn,44621.999979019165,Wed Oct 02 2024 12:10:26 GMT-0500 (Central Daylight Time),233603.60000002384,A,sa,O,a,205,1,550.1000000238419,233053.5,7023,WL,A,8.0
2,15.510999917984009,learn,44489.00008201599,Wed Oct 02 2024 12:10:26 GMT-0500 (Central Daylight Time),233736.60000002384,A,sal,O,l,98,1,683.1000000238419,233053.5,7023,WL,A,8.0
2,15.694999933242798,learn,44305.0000667572,Wed Oct 02 2024 12:10:26 GMT-0500 (Central Daylight Time),233920.20000004768,A,salt,O,t,159,1,866.7000000476837,233053.5,7023,WL,A,8.0
2,16.494999885559082,learn,43505.00011444092,Wed Oct 02 2024 12:10:26 GMT-0500 (Central Daylight Time),234719.29999995232,A,saltenter,O,enter,782,1,1665.7999999523163,233053.5,7023,WL,A,8.0
2,16.810999870300293,learn,43189.00012969971,Wed Oct 02 2024 12:10:26 GMT-0500 (Central Daylight Time),235036.0,A,f,O,f,309,1,316.39999997615814,234719.60000002384,7023,WL,A,9.0
2,16.977999925613403,learn,43022.0000743866,Wed Oct 02 2024 12:10:26 GMT-0500 (Central Daylight Time),235202.60000002384,A,fi,O,i,144,1,483.0,234719.60000002384,7023,WL,A,9.0
2,17.194999933242798,learn,42805.0000667572,Wed Oct 02 2024 12:10:26 GMT-0500 (Central Daylight Time),235419.10000002384,A,fin,O,n,193,1,699.5,234719.60000002384,7023,WL,A,9.0
2,17.26099991798401,learn,42739.00008201599,Wed Oct 02 2024 12:10:26 GMT-0500 (Central Daylight Time),235485.70000004768,A,fing,O,g,49,1,766.1000000238419,234719.60000002384,7023,WL,A,9.0
2,17.477999925613403,learn,42522.0000743866,Wed Oct 02 2024 12:10:26 GMT-0500 (Central Daylight Time),235702.29999995232,A,finge,O,e,199,1,982.6999999284744,234719.60000002384,7023,WL,A,9.0
2,17.543999910354614,learn,42456.000089645386,Wed Oct 02 2024 12:10:26 GMT-0500 (Central Daylight Time),235769.0,A,finger,O,r,45,1,1049.3999999761581,234719.60000002384,7023,WL,A,9.0
2,17.860999822616577,learn,42139.00017738342,Wed Oct 02 2024 12:10:26 GMT-0500 (Central Daylight Time),236085.60000002384,A,fingerenter,O,enter,299,1,1366.0,234719.60000002384,7023,WL,A,9.0
2,20.743000030517578,learn,39256.99996948242,Wed Oct 02 2024 12:10:26 GMT-0500 (Central Daylight Time),238967.89999997616,A,m,O,m,2872,1,2882.100000023842,236085.79999995232,7023,WL,A,10.0
2,20.82699990272522,learn,39173.00009727478,Wed Oct 02 2024 12:10:26 GMT-0500 (Central Daylight Time),239051.20000004768,A,me,O,e,59,1,2965.4000000953674,236085.79999995232,7023,WL,A,10.0
2,20.99399995803833,learn,39006.00004196167,Wed Oct 02 2024 12:10:26 GMT-0500 (Central Daylight Time),239218.60000002384,A,mea,O,a,147,1,3132.8000000715256,236085.79999995232,7023,WL,A,10.0
2,21.143999814987183,learn,38856.00018501282,Wed Oct 02 2024 12:10:26 GMT-0500 (Central Daylight Time),239368.60000002384,A,mead,O,d,119,1,3282.8000000715256,236085.79999995232,7023,WL,A,10.0
2,21.293999910354614,learn,38706.000089645386,Wed Oct 02 2024 12:10:26 GMT-0500 (Central Daylight Time),239518.79999995232,A,meado,O,o,125,1,3433.0,236085.79999995232,7023,WL,A,10.0
2,21.393999814987183,learn,38606.00018501282,Wed Oct 02 2024 12:10:26 GMT-0500 (Central Daylight Time),239618.5,A,meadow,O,w,74,1,3532.7000000476837,236085.79999995232,7023,WL,A,10.0
2,21.72599983215332,learn,38274.00016784668,Wed Oct 02 2024 12:10:26 GMT-0500 (Central Daylight Time),239950.89999997616,A,meadowenter,O,enter,296,1,3865.100000023842,236085.79999995232,7023,WL,A,10.0
2,26.125,learn,33875.0,Wed Oct 02 2024 12:10:26 GMT-0500 (Central Daylight Time),244350.10000002384,A,k,O,k,4391,1,4398.899999976158,239951.20000004768,7023,WL,A,11.0
2,26.22499990463257,learn,33775.00009536743,Wed Oct 02 2024 12:10:26 GMT-0500 (Central Daylight Time),244449.70000004768,A,ke,O,e,67,1,4498.5,239951.20000004768,7023,WL,A,11.0
2,26.425999879837036,learn,33574.000120162964,Wed Oct 02 2024 12:10:26 GMT-0500 (Central Daylight Time),244650.20000004768,A,key,O,y,185,1,4699.0,239951.20000004768,7023,WL,A,11.0
2,26.824999809265137,learn,33175.00019073486,Wed Oct 02 2024 12:10:26 GMT-0500 (Central Daylight Time),245049.39999997616,A,keyenter,O,enter,366,1,5098.199999928474,239951.20000004768,7023,WL,A,11.0
2,29.490999937057495,learn,30509.000062942505,Wed Oct 02 2024 12:10:26 GMT-0500 (Central Daylight Time),247715.70000004768,A,f,O,f,2652,1,2665.9000000953674,245049.79999995232,7023,WL,A,12.0
2,29.674000024795532,learn,30325.999975204468,Wed Oct 02 2024 12:10:26 GMT-0500 (Central Daylight Time),247898.89999997616,A,fl,O,l,154,1,2849.100000023842,245049.79999995232,7023,WL,A,12.0
2,29.907999992370605,learn,30092.000007629395,Wed Oct 02 2024 12:10:26 GMT-0500 (Central Daylight Time),248132.39999997616,A,flo,O,o,201,1,3082.600000023842,245049.79999995232,7023,WL,A,12.0
2,30.006999969482422,learn,29993.000030517578,Wed Oct 02 2024 12:10:26 GMT-0500 (Central Daylight Time),248231.89999997616,A,flow,O,w,63,1,3182.100000023842,245049.79999995232,7023,WL,A,12.0
2,30.19099998474121,learn,29809.00001525879,Wed Oct 02 2024 12:10:26 GMT-0500 (Central Daylight Time),248415.5,A,flowe,O,e,160,1,3365.7000000476837,245049.79999995232,7023,WL,A,12.0
2,30.257999897003174,learn,29742.000102996826,Wed Oct 02 2024 12:10:26 GMT-0500 (Central Daylight Time),248482.29999995232,A,flower,O,r,39,1,3432.5,245049.79999995232,7023,WL,A,12.0
2,30.389999866485596,learn,29610.000133514404,Wed Oct 02 2024 12:10:26 GMT-0500 (Central Daylight Time),248614.79999995232,A,flowerenter,O,enter,106,1,3565.0,245049.79999995232,7023,WL,A,12.0
2,36.98899984359741,learn,23011.000156402588,Wed Oct 02 2024 12:10:26 GMT-0500 (Central Daylight Time),255213.39999997616,A,t,O,t,6584,1,6598.299999952316,248615.10000002384,7023,WL,A,13.0
2,37.17199993133545,learn,22828.00006866455,Wed Oct 02 2024 12:10:26 GMT-0500 (Central Daylight Time),255396.79999995232,A,tr,O,r,160,1,6781.699999928474,248615.10000002384,7023,WL,A,13.0
2,37.30499982833862,learn,22695.000171661377,Wed Oct 02 2024 12:10:26 GMT-0500 (Central Daylight Time),255529.89999997616,A,tre,O,e,104,1,6914.799999952316,248615.10000002384,7023,WL,A,13.0
2,37.48899984359741,learn,22511.000156402588,Wed Oct 02 2024 12:10:26 GMT-0500 (Central Daylight Time),255713.20000004768,A,tree,O,e,148,1,7098.100000023842,248615.10000002384,7023,WL,A,13.0
2,37.704999923706055,learn,22295.000076293945,Wed Oct 02 2024 12:10:26 GMT-0500 (Central Daylight Time),255929.20000004768,A,treeenter,O,enter,180,1,7314.100000023842,248615.10000002384,7023,WL,A,13.0
2,42.61999988555908,learn,17380.000114440918,Wed Oct 02 2024 12:10:26 GMT-0500 (Central Daylight Time),260844.89999997616,A,s,O,s,4901,1,4915.5,255929.39999997616,7023,WL,A,14.0
2,42.75399994850159,learn,17246.000051498413,Wed Oct 02 2024 12:10:26 GMT-0500 (Central Daylight Time),260978.29999995232,A,sa,O,a,96,1,5048.899999976158,255929.39999997616,7023,WL,A,14.0
2,42.97000002861023,learn,17029.99997138977,Wed Oct 02 2024 12:10:26 GMT-0500 (Central Daylight Time),261194.89999997616,A,sal,O,l,187,1,5265.5,255929.39999997616,7023,WL,A,14.0
2,43.13599991798401,learn,16864.00008201599,Wed Oct 02 2024 12:10:26 GMT-0500 (Central Daylight Time),261360.79999995232,A,salt,O,t,139,1,5431.399999976158,255929.39999997616,7023,WL,A,14.0
2,43.319000005722046,learn,16680.999994277954,Wed Oct 02 2024 12:10:26 GMT-0500 (Central Daylight Time),261543.89999997616,A,saltenter,O,enter,169,1,5614.5,255929.39999997616,7023,WL,A,14.0
2,52.66699981689453,learn,7333.000183105469,Wed Oct 02 2024 12:10:26 GMT-0500 (Central Daylight Time),270891.7000000477,A,t,O,t,9326,1,9347.400000095367,261544.29999995232,7023,WL,A,15.0
2,52.89999985694885,learn,7100.0001430511475,Wed Oct 02 2024 12:10:26 GMT-0500 (Central Daylight Time),271124.39999997616,A,tr,O,r,200,1,9580.100000023842,261544.29999995232,7023,WL,A,15.0
2,53.09999990463257,learn,6900.000095367432,Wed Oct 02 2024 12:10:26 GMT-0500 (Central Daylight Time),271324.89999997616,A,tra,O,a,169,1,9780.600000023842,261544.29999995232,7023,WL,A,15.0
2,53.25,learn,6750.0,Wed Oct 02 2024 12:10:26 GMT-0500 (Central Daylight Time),271474.89999997616,A,trai,O,i,113,1,9930.600000023842,261544.29999995232,7023,WL,A,15.0
2,53.41599988937378,learn,6584.000110626221,Wed Oct 02 2024 12:10:26 GMT-0500 (Central Daylight Time),271641.2000000477,A,train,O,n,140,1,10096.900000095367,261544.29999995232,7023,WL,A,15.0
2,53.948999881744385,learn,6051.000118255615,Wed Oct 02 2024 12:10:26 GMT-0500 (Central Daylight Time),272173.7000000477,A,trainenter,O,enter,507,1,10629.400000095367,261544.29999995232,7023,WL,A,15.0
3,1.6329998970031738,learn,58367.000102996826,Wed Oct 02 2024 12:10:26 GMT-0500 (Central Daylight Time),342318.0,A,l,O,l,1602,1,1632.2000000476837,340685.7999999523,7023,WL,A,1.0
3,1.8499999046325684,learn,58150.00009536743,Wed Oct 02 2024 12:10:26 GMT-0500 (Central Daylight Time),342534.7999999523,A,lo,O,o,192,1,1849.0,340685.7999999523,7023,WL,A,1.0
3,2.049999952316284,learn,57950.000047683716,Wed Oct 02 2024 12:10:26 GMT-0500 (Central Daylight Time),342734.7000000477,A,log,O,g,176,1,2048.9000000953674,340685.7999999523,7023,WL,A,1.0
3,2.3489999771118164,learn,57651.00002288818,Wed Oct 02 2024 12:10:26 GMT-0500 (Central Daylight Time),343033.89999997616,A,logenter,O,enter,259,1,2348.100000023842,340685.7999999523,7023,WL,A,1.0
3,3.0,learn,57000.0,Wed Oct 02 2024 12:10:26 GMT-0500 (Central Daylight Time),343684.7000000477,A,b,O,b,628,1,650.5,343034.2000000477,7023,WL,A,2.0
3,3.248999834060669,learn,56751.00016593933,Wed Oct 02 2024 12:10:26 GMT-0500 (Central Daylight Time),343934.2000000477,A,bo,O,o,225,1,900.0,343034.2000000477,7023,WL,A,2.0
3,3.431999921798706,learn,56568.000078201294,Wed Oct 02 2024 12:10:26 GMT-0500 (Central Daylight Time),344117.39999997616,A,boo,O,o,160,1,1083.1999999284744,343034.2000000477,7023,WL,A,2.0
3,3.6659998893737793,learn,56334.00011062622,Wed Oct 02 2024 12:10:26 GMT-0500 (Central Daylight Time),344350.89999997616,A,book,O,k,201,1,1316.6999999284744,343034.2000000477,7023,WL,A,2.0
3,3.931999921798706,learn,56068.000078201294,Wed Oct 02 2024 12:10:26 GMT-0500 (Central Daylight Time),344616.7000000477,A,bookenter,O,enter,238,1,1582.5,343034.2000000477,7023,WL,A,2.0
3,5.248999834060669,learn,54751.00016593933,Wed Oct 02 2024 12:10:26 GMT-0500 (Central Daylight Time),345933.7999999523,A,f,O,f,1302,1,1316.7999999523163,344617.0,7023,WL,A,3.0
3,5.348999977111816,learn,54651.00002288818,Wed Oct 02 2024 12:10:26 GMT-0500 (Central Daylight Time),346033.60000002384,A,fi,O,i,63,1,1416.6000000238419,344617.0,7023,WL,A,3.0
3,5.5320000648498535,learn,54467.99993515015,Wed Oct 02 2024 12:10:26 GMT-0500 (Central Daylight Time),346216.89999997616,A,fin,O,n,157,1,1599.8999999761581,344617.0,7023,WL,A,3.0
3,5.5980000495910645,learn,54401.999950408936,Wed Oct 02 2024 12:10:26 GMT-0500 (Central Daylight Time),346283.39999997616,A,fing,O,g,29,1,1666.3999999761581,344617.0,7023,WL,A,3.0
3,5.764999866485596,learn,54235.000133514404,Wed Oct 02 2024 12:10:26 GMT-0500 (Central Daylight Time),346450.0,A,finge,O,e,130,1,1833.0,344617.0,7023,WL,A,3.0
3,5.8480000495910645,learn,54151.999950408936,Wed Oct 02 2024 12:10:26 GMT-0500 (Central Daylight Time),346533.0,A,finger,O,r,60,1,1916.0,344617.0,7023,WL,A,3.0
3,6.080999851226807,learn,53919.00014877319,Wed Oct 02 2024 12:10:26 GMT-0500 (Central Daylight Time),346766.0,A,fingerenter,O,enter,210,1,2149.0,344617.0,7023,WL,A,3.0
3,11.378999948501587,learn,48621.00005149841,Wed Oct 02 2024 12:10:26 GMT-0500 (Central Daylight Time),352064.10000002384,A,r,O,r,5287,1,5297.800000071526,346766.2999999523,7023,WL,A,4.0
3,11.579999923706055,learn,48420.000076293945,Wed Oct 02 2024 12:10:26 GMT-0500 (Central Daylight Time),352264.7999999523,A,ri,O,i,181,1,5498.5,346766.2999999523,7023,WL,A,4.0
3,11.879999876022339,learn,48120.00012397766,Wed Oct 02 2024 12:10:26 GMT-0500 (Central Daylight Time),352564.7999999523,A,rin,O,n,275,1,5798.5,346766.2999999523,7023,WL,A,4.0
3,12.129999876022339,learn,47870.00012397766,Wed Oct 02 2024 12:10:26 GMT-0500 (Central Daylight Time),352814.7999999523,A,ring,O,g,225,1,6048.5,346766.2999999523,7023,WL,A,4.0
3,12.645999908447266,learn,47354.000091552734,Wed Oct 02 2024 12:10:26 GMT-0500 (Central Daylight Time),353331.2000000477,A,rin,O,backspace,480,1,6564.900000095367,346766.2999999523,7023,WL,A,4.0
3,12.845999956130981,learn,47154.00004386902,Wed Oct 02 2024 12:10:26 GMT-0500 (Central Daylight Time),353531.10000002384,A,ri,O,backspace,171,1,6764.800000071526,346766.2999999523,7023,WL,A,4.0
3,13.029000043869019,learn,46970.99995613098,Wed Oct 02 2024 12:10:26 GMT-0500 (Central Daylight Time),353714.39999997616,A,r,O,backspace,154,1,6948.100000023842,346766.2999999523,7023,WL,A,4.0
3,13.211999893188477,learn,46788.00010681152,Wed Oct 02 2024 12:10:26 GMT-0500 (Central Daylight Time),353897.5,A,,O,backspace,166,1,7131.200000047684,346766.2999999523,7023,WL,A,4.0
3,14.013000011444092,learn,45986.99998855591,Wed Oct 02 2024 12:10:26 GMT-0500 (Central Daylight Time),354697.39999997616,A,b,O,b,774,1,7931.100000023842,346766.2999999523,7023,WL,A,4.0
3,14.263000011444092,learn,45736.99998855591,Wed Oct 02 2024 12:10:26 GMT-0500 (Central Daylight Time),354947.5,A,bu,O,u,211,1,8181.200000047684,346766.2999999523,7023,WL,A,4.0
3,14.463000059127808,learn,45536.99994087219,Wed Oct 02 2024 12:10:26 GMT-0500 (Central Daylight Time),355147.2999999523,A,but,O,t,169,1,8381.0,346766.2999999523,7023,WL,A,4.0
3,14.61299991607666,learn,45387.00008392334,Wed Oct 02 2024 12:10:26 GMT-0500 (Central Daylight Time),355297.0,A,butt,O,t,123,1,8530.700000047684,346766.2999999523,7023,WL,A,4.0
3,14.713000059127808,learn,45286.99994087219,Wed Oct 02 2024 12:10:26 GMT-0500 (Central Daylight Time),355396.7999999523,A,butto,O,o,75,1,8630.5,346766.2999999523,7023,WL,A,4.0
3,14.963000059127808,learn,45036.99994087219,Wed Oct 02 2024 12:10:26 GMT-0500 (Central Daylight Time),355647.10000002384,A,button,O,n,224,1,8880.800000071526,346766.2999999523,7023,WL,A,4.0
3,15.34500002861023,learn,44654.99997138977,Wed Oct 02 2024 12:10:26 GMT-0500 (Central Daylight Time),356029.7000000477,A,buttonenter,O,enter,351,1,9263.400000095367,346766.2999999523,7023,WL,A,4.0
3,16.961999893188477,learn,43038.00010681152,Wed Oct 02 2024 12:10:26 GMT-0500 (Central Daylight Time),357646.39999997616,A,r,O,r,1609,1,1616.3999999761581,356030.0,7023,WL,A,5.0
3,17.144999980926514,learn,42855.000019073486,Wed Oct 02 2024 12:10:26 GMT-0500 (Central Daylight Time),357829.5,A,ra,O,a,158,1,1799.5,356030.0,7023,WL,A,5.0
3,17.394999980926514,learn,42605.000019073486,Wed Oct 02 2024 12:10:26 GMT-0500 (Central Daylight Time),358079.60000002384,A,rat,O,t,217,1,2049.600000023842,356030.0,7023,WL,A,5.0
3,17.544999837875366,learn,42455.000162124634,Wed Oct 02 2024 12:10:26 GMT-0500 (Central Daylight Time),358229.2999999523,A,ratt,O,t,129,1,2199.2999999523163,356030.0,7023,WL,A,5.0
3,17.74399995803833,learn,42256.00004196167,Wed Oct 02 2024 12:10:26 GMT-0500 (Central Daylight Time),358428.7999999523,A,rattl,O,l,171,1,2398.7999999523163,356030.0,7023,WL,A,5.0
3,17.82799983024597,learn,42172.00016975403,Wed Oct 02 2024 12:10:26 GMT-0500 (Central Daylight Time),358511.89999997616,A,rattle,O,e,64,1,2481.899999976158,356030.0,7023,WL,A,5.0
3,18.01199984550476,learn,41988.00015449524,Wed Oct 02 2024 12:10:26 GMT-0500 (Central Daylight Time),358696.2999999523,A,rattleenter,O,enter,173,1,2666.2999999523163,356030.0,7023,WL,A,5.0
3,18.810999870300293,learn,41189.00012969971,Wed Oct 02 2024 12:10:26 GMT-0500 (Central Daylight Time),359495.7999999523,A,g,O,g,782,1,799.2999999523163,358696.5,7023,WL,A,6.0
3,19.111000061035156,learn,40888.999938964844,Wed Oct 02 2024 12:10:26 GMT-0500 (Central Daylight Time),359795.60000002384,A,go,O,o,270,1,1099.1000000238419,358696.5,7023,WL,A,6.0
3,19.34500002861023,learn,40654.99997138977,Wed Oct 02 2024 12:10:26 GMT-0500 (Central Daylight Time),360029.10000002384,A,gol,O,l,202,1,1332.6000000238419,358696.5,7023,WL,A,6.0
3,19.74399995803833,learn,40256.00004196167,Wed Oct 02 2024 12:10:26 GMT-0500 (Central Daylight Time),360428.89999997616,A,gold,O,d,371,1,1732.3999999761581,358696.5,7023,WL,A,6.0
3,20.0939998626709,learn,39906.0001373291,Wed Oct 02 2024 12:10:26 GMT-0500 (Central Daylight Time),360778.0,A,goldenter,O,enter,309,1,2081.5,358696.5,7023,WL,A,6.0
3,20.72699999809265,learn,39273.00000190735,Wed Oct 02 2024 12:10:26 GMT-0500 (Central Daylight Time),361411.89999997616,A,k,O,k,620,1,633.6999999284744,360778.2000000477,7023,WL,A,7.0
3,20.92799997329712,learn,39072.00002670288,Wed Oct 02 2024 12:10:26 GMT-0500 (Central Daylight Time),361611.89999997616,A,ke,O,e,161,1,833.6999999284744,360778.2000000477,7023,WL,A,7.0
3,21.14400005340576,learn,38855.99994659424,Wed Oct 02 2024 12:10:26 GMT-0500 (Central Daylight Time),361828.2999999523,A,key,O,y,185,1,1050.0999999046326,360778.2000000477,7023,WL,A,7.0
3,21.526999950408936,learn,38473.000049591064,Wed Oct 02 2024 12:10:26 GMT-0500 (Central Daylight Time),362211.0,A,keyenter,O,enter,347,1,1432.7999999523163,360778.2000000477,7023,WL,A,7.0
3,22.15999984741211,learn,37840.00015258789,Wed Oct 02 2024 12:10:26 GMT-0500 (Central Daylight Time),362844.60000002384,A,a,O,a,619,1,633.5,362211.10000002384,7023,WL,A,8.0
3,22.310999870300293,learn,37689.00012969971,Wed Oct 02 2024 12:10:26 GMT-0500 (Central Daylight Time),362995.0,A,ap,O,p,114,1,783.8999999761581,362211.10000002384,7023,WL,A,8.0
3,22.460000038146973,learn,37539.99996185303,Wed Oct 02 2024 12:10:26 GMT-0500 (Central Daylight Time),363144.60000002384,A,app,O,p,123,1,933.5,362211.10000002384,7023,WL,A,8.0
3,22.65999984741211,learn,37340.00015258789,Wed Oct 02 2024 12:10:26 GMT-0500 (Central Daylight Time),363344.60000002384,A,appl,O,l,174,1,1133.5,362211.10000002384,7023,WL,A,8.0
3,22.776999950408936,learn,37223.000049591064,Wed Oct 02 2024 12:10:26 GMT-0500 (Central Daylight Time),363461.39999997616,A,apple,O,e,94,1,1250.2999999523163,362211.10000002384,7023,WL,A,8.0
3,22.95899987220764,learn,37041.00012779236,Wed Oct 02 2024 12:10:26 GMT-0500 (Central Daylight Time),363643.7000000477,A,appleenter,O,enter,159,1,1432.6000000238419,362211.10000002384,7023,WL,A,8.0
3,23.509999990463257,learn,36490.00000953674,Wed Oct 02 2024 12:10:26 GMT-0500 (Central Daylight Time),364194.2000000477,A,r,O,r,539,1,550.2000000476837,363644.0,7023,WL,A,9.0
3,23.80999994277954,learn,36190.00005722046,Wed Oct 02 2024 12:10:26 GMT-0500 (Central Daylight Time),364494.2999999523,A,ru,O,u,276,1,850.2999999523163,363644.0,7023,WL,A,9.0
3,23.960000038146973,learn,36039.99996185303,Wed Oct 02 2024 12:10:26 GMT-0500 (Central Daylight Time),364644.10000002384,A,rug,O,g,112,1,1000.1000000238419,363644.0,7023,WL,A,9.0
3,24.191999912261963,learn,35808.00008773804,Wed Oct 02 2024 12:10:26 GMT-0500 (Central Daylight Time),364876.60000002384,A,rugenter,O,enter,201,1,1232.6000000238419,363644.0,7023,WL,A,9.0
3,25.575999975204468,learn,34424.00002479553,Wed Oct 02 2024 12:10:26 GMT-0500 (Central Daylight Time),366260.2999999523,A,m,O,m,1370,1,1383.5,364876.7999999523,7023,WL,A,10.0
3,25.70899987220764,learn,34291.00012779236,Wed Oct 02 2024 12:10:26 GMT-0500 (Central Daylight Time),366393.5,A,me,O,e,99,1,1516.7000000476837,364876.7999999523,7023,WL,A,10.0
3,25.875999927520752,learn,34124.00007247925,Wed Oct 02 2024 12:10:26 GMT-0500 (Central Daylight Time),366560.0,A,mea,O,a,140,1,1683.2000000476837,364876.7999999523,7023,WL,A,10.0
3,26.05900001525879,learn,33940.99998474121,Wed Oct 02 2024 12:10:26 GMT-0500 (Central Daylight Time),366743.60000002384,A,mead,O,d,149,1,1866.8000000715256,364876.7999999523,7023,WL,A,10.0
3,26.20899987220764,learn,33791.00012779236,Wed Oct 02 2024 12:10:26 GMT-0500 (Central Daylight Time),366893.2000000477,A,meado,O,o,119,1,2016.4000000953674,364876.7999999523,7023,WL,A,10.0
3,26.307999849319458,learn,33692.00015068054,Wed Oct 02 2024 12:10:26 GMT-0500 (Central Daylight Time),366992.60000002384,A,meadow,O,w,71,1,2115.8000000715256,364876.7999999523,7023,WL,A,10.0
3,26.590999841690063,learn,33409.00015830994,Wed Oct 02 2024 12:10:26 GMT-0500 (Central Daylight Time),367275.7000000477,A,meadowenter,O,enter,276,1,2398.9000000953674,364876.7999999523,7023,WL,A,10.0
3,27.325999975204468,learn,32674.000024795532,Wed Oct 02 2024 12:10:26 GMT-0500 (Central Daylight Time),368009.89999997616,A,l,O,l,715,1,733.8999999761581,367276.0,7023,WL,A,11.0
3,27.491999864578247,learn,32508.000135421753,Wed Oct 02 2024 12:10:26 GMT-0500 (Central Daylight Time),368176.2999999523,A,lo,O,o,139,1,900.2999999523163,367276.0,7023,WL,A,11.0
3,27.64199995994568,learn,32358.00004005432,Wed Oct 02 2024 12:10:26 GMT-0500 (Central Daylight Time),368326.39999997616,A,log,O,g,118,1,1050.3999999761581,367276.0,7023,WL,A,11.0
3,27.85800004005432,learn,32141.99995994568,Wed Oct 02 2024 12:10:26 GMT-0500 (Central Daylight Time),368542.2000000477,A,logenter,O,enter,191,1,1266.2000000476837,367276.0,7023,WL,A,11.0
3,28.95799994468689,learn,31042.00005531311,Wed Oct 02 2024 12:10:26 GMT-0500 (Central Daylight Time),369642.5,A,t,O,t,1080,1,1100.0,368542.5,7023,WL,A,12.0
3,29.141000032424927,learn,30858.999967575073,Wed Oct 02 2024 12:10:26 GMT-0500 (Central Daylight Time),369825.7999999523,A,tr,O,r,155,1,1283.2999999523163,368542.5,7023,WL,A,12.0
3,29.325000047683716,learn,30674.999952316284,Wed Oct 02 2024 12:10:26 GMT-0500 (Central Daylight Time),370009.2999999523,A,tra,O,a,156,1,1466.7999999523163,368542.5,7023,WL,A,12.0
3,29.44099998474121,learn,30559.00001525879,Wed Oct 02 2024 12:10:26 GMT-0500 (Central Daylight Time),370125.39999997616,A,trai,O,i,92,1,1582.8999999761581,368542.5,7023,WL,A,12.0
3,29.641000032424927,learn,30358.999967575073,Wed Oct 02 2024 12:10:26 GMT-0500 (Central Daylight Time),370325.5,A,train,O,n,177,1,1783.0,368542.5,7023,WL,A,12.0
3,29.924000024795532,learn,30075.999975204468,Wed Oct 02 2024 12:10:26 GMT-0500 (Central Daylight Time),370608.2000000477,A,trainenter,O,enter,248,1,2065.7000000476837,368542.5,7023,WL,A,12.0
3,30.674000024795532,learn,29325.999975204468,Wed Oct 02 2024 12:10:26 GMT-0500 (Central Daylight Time),371358.7999999523,A,c,O,c,734,1,750.2999999523163,370608.5,7023,WL,A,13.0
3,30.85800004005432,learn,29141.99995994568,Wed Oct 02 2024 12:10:26 GMT-0500 (Central Daylight Time),371542.0,A,ch,O,h,150,1,933.5,370608.5,7023,WL,A,13.0
3,31.056999921798706,learn,28943.000078201294,Wed Oct 02 2024 12:10:26 GMT-0500 (Central Daylight Time),371741.5,A,chi,O,i,176,1,1133.0,370608.5,7023,WL,A,13.0
3,31.256999969482422,learn,28743.000030517578,Wed Oct 02 2024 12:10:26 GMT-0500 (Central Daylight Time),371941.5,A,chim,O,m,177,1,1333.0,370608.5,7023,WL,A,13.0
3,31.473999977111816,learn,28526.000022888184,Wed Oct 02 2024 12:10:26 GMT-0500 (Central Daylight Time),372158.10000002384,A,chimn,O,n,183,1,1549.6000000238419,370608.5,7023,WL,A,13.0
3,31.62399983406067,learn,28376.00016593933,Wed Oct 02 2024 12:10:26 GMT-0500 (Central Daylight Time),372308.2999999523,A,chimne,O,e,120,1,1699.7999999523163,370608.5,7023,WL,A,13.0
3,31.740000009536743,learn,28259.999990463257,Wed Oct 02 2024 12:10:26 GMT-0500 (Central Daylight Time),372424.2999999523,A,chimney,O,y,89,1,1815.7999999523163,370608.5,7023,WL,A,13.0
3,32.055999994277954,learn,27944.000005722046,Wed Oct 02 2024 12:10:26 GMT-0500 (Central Daylight Time),372740.7000000477,A,chimneyenter,O,enter,309,1,2132.2000000476837,370608.5,7023,WL,A,13.0
3,45.63599991798401,learn,14364.000082015991,Wed Oct 02 2024 12:10:26 GMT-0500 (Central Daylight Time),386320.2999999523,A,f,O,f,13563,1,13579.299999952316,372741.0,7023,WL,A,14.0
3,45.86899995803833,learn,14131.00004196167,Wed Oct 02 2024 12:10:26 GMT-0500 (Central Daylight Time),386553.60000002384,A,fl,O,l,197,1,13812.600000023842,372741.0,7023,WL,A,14.0
3,46.03600001335144,learn,13963.99998664856,Wed Oct 02 2024 12:10:26 GMT-0500 (Central Daylight Time),386720.2999999523,A,flo,O,o,131,1,13979.299999952316,372741.0,7023,WL,A,14.0
3,46.11800003051758,learn,13881.999969482422,Wed Oct 02 2024 12:10:26 GMT-0500 (Central Daylight Time),386802.7999999523,A,flow,O,w,52,1,14061.799999952316,372741.0,7023,WL,A,14.0
3,46.36800003051758,learn,13631.999969482422,Wed Oct 02 2024 12:10:26 GMT-0500 (Central Daylight Time),387052.60000002384,A,flowe,O,e,233,1,14311.600000023842,372741.0,7023,WL,A,14.0
3,46.43499994277954,learn,13565.000057220459,Wed Oct 02 2024 12:10:26 GMT-0500 (Central Daylight Time),387119.7000000477,A,flower,O,r,56,1,14378.700000047684,372741.0,7023,WL,A,14.0
3,46.63499999046326,learn,13365.000009536743,Wed Oct 02 2024 12:10:26 GMT-0500 (Central Daylight Time),387319.2999999523,A,flowerenter,O,enter,181,1,14578.299999952316,372741.0,7023,WL,A,14.0
3,46.986000061035156,learn,13013.999938964844,Wed Oct 02 2024 12:10:26 GMT-0500 (Central Daylight Time),387669.89999997616,A,b,O,b,335,1,350.39999997615814,387319.5,7023,WL,A,15.0
3,47.234999895095825,learn,12765.000104904175,Wed Oct 02 2024 12:10:26 GMT-0500 (Central Daylight Time),387919.89999997616,A,bo,O,o,224,1,600.3999999761581,387319.5,7023,WL,A,15.0
3,47.38499999046326,learn,12615.000009536743,Wed Oct 02 2024 12:10:26 GMT-0500 (Central Daylight Time),388069.7000000477,A,boo,O,o,126,1,750.2000000476837,387319.5,7023,WL,A,15.0
3,47.58500003814697,learn,12414.999961853027,Wed Oct 02 2024 12:10:26 GMT-0500 (Central Daylight Time),388269.39999997616,A,book,O,k,177,1,949.8999999761581,387319.5,7023,WL,A,15.0
3,47.78499984741211,learn,12215.00015258789,Wed Oct 02 2024 12:10:26 GMT-0500 (Central Daylight Time),388468.89999997616,A,bookenter,O,enter,183,1,1149.3999999761581,387319.5,7023,WL,A,15.0
4,0.7990000247955322,learn,59200.99997520447,Wed Oct 02 2024 12:10:26 GMT-0500 (Central Daylight Time),457397.10000002384,A,b,O,b,771,1,799.0,456598.10000002384,7023,WL,A,1.0
4,1.065999984741211,learn,58934.00001525879,Wed Oct 02 2024 12:10:26 GMT-0500 (Central Daylight Time),457663.60000002384,A,bo,O,o,240,1,1065.5,456598.10000002384,7023,WL,A,1.0
4,1.248999834060669,learn,58751.00016593933,Wed Oct 02 2024 12:10:26 GMT-0500 (Central Daylight Time),457846.7999999523,A,boo,O,o,151,1,1248.6999999284744,456598.10000002384,7023,WL,A,1.0
4,1.431999921798706,learn,58568.000078201294,Wed Oct 02 2024 12:10:26 GMT-0500 (Central Daylight Time),458030.0,A,book,O,k,159,1,1431.8999999761581,456598.10000002384,7023,WL,A,1.0
4,1.931999921798706,learn,58068.000078201294,Wed Oct 02 2024 12:10:26 GMT-0500 (Central Daylight Time),458529.2999999523,A,bookenter,O,enter,470,1,1931.1999999284744,456598.10000002384,7023,WL,A,1.0
4,2.56499981880188,learn,57435.00018119812,Wed Oct 02 2024 12:10:26 GMT-0500 (Central Daylight Time),459163.10000002384,A,f,O,f,621,1,633.5,458529.60000002384,7023,WL,A,2.0
4,2.6989998817443848,learn,57301.000118255615,Wed Oct 02 2024 12:10:26 GMT-0500 (Central Daylight Time),459296.5,A,fl,O,l,99,1,766.8999999761581,458529.60000002384,7023,WL,A,2.0
4,2.881999969482422,learn,57118.00003051758,Wed Oct 02 2024 12:10:26 GMT-0500 (Central Daylight Time),459479.60000002384,A,flo,O,o,157,1,950.0,458529.60000002384,7023,WL,A,2.0
4,2.947999954223633,learn,57052.00004577637,Wed Oct 02 2024 12:10:26 GMT-0500 (Central Daylight Time),459546.10000002384,A,flow,O,w,34,1,1016.5,458529.60000002384,7023,WL,A,2.0
4,3.1649999618530273,learn,56835.00003814697,Wed Oct 02 2024 12:10:26 GMT-0500 (Central Daylight Time),459763.0,A,flowe,O,e,180,1,1233.3999999761581,458529.60000002384,7023,WL,A,2.0
4,3.2319998741149902,learn,56768.00012588501,Wed Oct 02 2024 12:10:26 GMT-0500 (Central Daylight Time),459829.5,A,flower,O,r,43,1,1299.8999999761581,458529.60000002384,7023,WL,A,2.0
4,3.365000009536743,learn,56634.99999046326,Wed Oct 02 2024 12:10:26 GMT-0500 (Central Daylight Time),459962.2999999523,A,flowerenter,O,enter,95,1,1432.6999999284744,458529.60000002384,7023,WL,A,2.0
4,3.697999954223633,learn,56302.00004577637,Wed Oct 02 2024 12:10:26 GMT-0500 (Central Daylight Time),460296.2000000477,A,m,O,m,316,1,333.7000000476837,459962.5,7023,WL,A,3.0
4,3.881999969482422,learn,56118.00003051758,Wed Oct 02 2024 12:10:26 GMT-0500 (Central Daylight Time),460479.2000000477,A,me,O,e,148,1,516.7000000476837,459962.5,7023,WL,A,3.0
4,4.080999851226807,learn,55919.00014877319,Wed Oct 02 2024 12:10:26 GMT-0500 (Central Daylight Time),460678.7000000477,A,med,O,d,166,1,716.2000000476837,459962.5,7023,WL,A,3.0
4,4.680999994277954,learn,55319.000005722046,Wed Oct 02 2024 12:10:26 GMT-0500 (Central Daylight Time),461279.2000000477,A,me,O,backspace,577,1,1316.7000000476837,459962.5,7023,WL,A,3.0
4,4.747999906539917,learn,55252.00009346008,Wed Oct 02 2024 12:10:26 GMT-0500 (Central Daylight Time),461345.2999999523,A,mea,O,a,42,1,1382.7999999523163,459962.5,7023,WL,A,3.0
4,4.930999994277954,learn,55069.000005722046,Wed Oct 02 2024 12:10:26 GMT-0500 (Central Daylight Time),461529.10000002384,A,mead,O,d,165,1,1566.6000000238419,459962.5,7023,WL,A,3.0
4,5.063999891281128,learn,54936.00010871887,Wed Oct 02 2024 12:10:26 GMT-0500 (Central Daylight Time),461662.2999999523,A,meado,O,o,101,1,1699.7999999523163,459962.5,7023,WL,A,3.0
4,5.197999954223633,learn,54802.00004577637,Wed Oct 02 2024 12:10:26 GMT-0500 (Central Daylight Time),461795.5,A,meadow,O,w,104,1,1833.0,459962.5,7023,WL,A,3.0
4,5.613999843597412,learn,54386.00015640259,Wed Oct 02 2024 12:10:26 GMT-0500 (Central Daylight Time),462211.39999997616,A,meadowenter,O,enter,385,1,2248.899999976158,459962.5,7023,WL,A,3.0
4,6.830999851226807,learn,53169.00014877319,Wed Oct 02 2024 12:10:26 GMT-0500 (Central Daylight Time),463428.2999999523,A,r,O,r,1195,1,1216.5,462211.7999999523,7023,WL,A,4.0
4,7.013999938964844,learn,52986.000061035156,Wed Oct 02 2024 12:10:26 GMT-0500 (Central Daylight Time),463611.2000000477,A,ru,O,u,154,1,1399.4000000953674,462211.7999999523,7023,WL,A,4.0
4,7.296999931335449,learn,52703.00006866455,Wed Oct 02 2024 12:10:26 GMT-0500 (Central Daylight Time),463894.7999999523,A,rug,O,g,266,1,1683.0,462211.7999999523,7023,WL,A,4.0
4,7.662999868392944,learn,52337.000131607056,Wed Oct 02 2024 12:10:26 GMT-0500 (Central Daylight Time),464260.7999999523,A,rugenter,O,enter,334,1,2049.0,462211.7999999523,7023,WL,A,4.0
4,9.77999997138977,learn,50220.00002861023,Wed Oct 02 2024 12:10:26 GMT-0500 (Central Daylight Time),466377.5,A,t,O,t,2106,1,2116.399999976158,464261.10000002384,7023,WL,A,5.0
4,10.013000011444092,learn,49986.99998855591,Wed Oct 02 2024 12:10:26 GMT-0500 (Central Daylight Time),466610.5,A,tr,O,r,198,1,2349.399999976158,464261.10000002384,7023,WL,A,5.0
4,10.212999820709229,learn,49787.00017929077,Wed Oct 02 2024 12:10:26 GMT-0500 (Central Daylight Time),466810.7000000477,A,tra,O,a,163,1,2549.600000023842,464261.10000002384,7023,WL,A,5.0
4,10.345999956130981,learn,49654.00004386902,Wed Oct 02 2024 12:10:26 GMT-0500 (Central Daylight Time),466943.7999999523,A,trai,O,i,100,1,2682.6999999284744,464261.10000002384,7023,WL,A,5.0
4,10.544999837875366,learn,49455.000162124634,Wed Oct 02 2024 12:10:26 GMT-0500 (Central Daylight Time),467143.0,A,train,O,n,173,1,2881.899999976158,464261.10000002384,7023,WL,A,5.0
4,10.944999933242798,learn,49055.0000667572,Wed Oct 02 2024 12:10:26 GMT-0500 (Central Daylight Time),467542.89999997616,A,trainenter,O,enter,382,1,3281.7999999523163,464261.10000002384,7023,WL,A,5.0
4,12.911999940872192,learn,47088.00005912781,Wed Oct 02 2024 12:10:26 GMT-0500 (Central Daylight Time),469509.39999997616,A,f,O,f,1959,1,1966.1999999284744,467543.2000000477,7023,WL,A,6.0
4,13.061999797821045,learn,46938.000202178955,Wed Oct 02 2024 12:10:26 GMT-0500 (Central Daylight Time),469659.7000000477,A,fi,O,i,112,1,2116.5,467543.2000000477,7023,WL,A,6.0
4,13.26199984550476,learn,46738.00015449524,Wed Oct 02 2024 12:10:26 GMT-0500 (Central Daylight Time),469859.5,A,fin,O,n,162,1,2316.2999999523163,467543.2000000477,7023,WL,A,6.0
4,13.311999797821045,learn,46688.000202178955,Wed Oct 02 2024 12:10:26 GMT-0500 (Central Daylight Time),469909.7999999523,A,fing,O,g,27,1,2366.5999999046326,467543.2000000477,7023,WL,A,6.0
4,13.494999885559082,learn,46505.00011444092,Wed Oct 02 2024 12:10:26 GMT-0500 (Central Daylight Time),470092.89999997616,A,finge,O,e,164,1,2549.6999999284744,467543.2000000477,7023,WL,A,6.0
4,13.560999870300293,learn,46439.00012969971,Wed Oct 02 2024 12:10:26 GMT-0500 (Central Daylight Time),470159.2000000477,A,finger,O,r,33,1,2616.0,467543.2000000477,7023,WL,A,6.0
4,13.710999965667725,learn,46289.000034332275,Wed Oct 02 2024 12:10:26 GMT-0500 (Central Daylight Time),470308.7999999523,A,fingerenter,O,enter,127,1,2765.5999999046326,467543.2000000477,7023,WL,A,6.0
4,15.360999822616577,learn,44639.00017738342,Wed Oct 02 2024 12:10:26 GMT-0500 (Central Daylight Time),471958.39999997616,A,s,O,s,1642,1,1649.1999999284744,470309.2000000477,7023,WL,A,7.0
4,15.543999910354614,learn,44456.000089645386,Wed Oct 02 2024 12:10:26 GMT-0500 (Central Daylight Time),472142.2000000477,A,sa,O,a,171,1,1833.0,470309.2000000477,7023,WL,A,7.0
4,15.67799997329712,learn,44322.00002670288,Wed Oct 02 2024 12:10:26 GMT-0500 (Central Daylight Time),472275.7000000477,A,sal,O,l,96,1,1966.5,470309.2000000477,7023,WL,A,7.0
4,15.827999830245972,learn,44172.00016975403,Wed Oct 02 2024 12:10:26 GMT-0500 (Central Daylight Time),472425.39999997616,A,salt,O,t,116,1,2116.1999999284744,470309.2000000477,7023,WL,A,7.0
4,15.976999998092651,learn,44023.00000190735,Wed Oct 02 2024 12:10:26 GMT-0500 (Central Daylight Time),472574.7000000477,A,saltenter,O,enter,122,1,2265.5,470309.2000000477,7023,WL,A,7.0
4,19.276999950408936,learn,40723.000049591064,Wed Oct 02 2024 12:10:26 GMT-0500 (Central Daylight Time),475874.2000000477,A,c,O,c,3280,1,3299.2000000476837,472575.0,7023,WL,A,8.0
4,19.459999799728394,learn,40540.00020027161,Wed Oct 02 2024 12:10:26 GMT-0500 (Central Daylight Time),476057.60000002384,A,ch,O,h,154,1,3482.600000023842,472575.0,7023,WL,A,8.0
4,20.55999994277954,learn,39440.00005722046,Wed Oct 02 2024 12:10:26 GMT-0500 (Central Daylight Time),477157.2999999523,A,chi,O,i,1068,1,4582.299999952316,472575.0,7023,WL,A,8.0
4,20.776999950408936,learn,39223.000049591064,Wed Oct 02 2024 12:10:26 GMT-0500 (Central Daylight Time),477373.89999997616,A,chim,O,m,185,1,4798.899999976158,472575.0,7023,WL,A,8.0
4,20.959999799728394,learn,39040.00020027161,Wed Oct 02 2024 12:10:26 GMT-0500 (Central Daylight Time),477557.10000002384,A,chimn,O,n,152,1,4982.100000023842,472575.0,7023,WL,A,8.0
4,21.125999927520752,learn,38874.00007247925,Wed Oct 02 2024 12:10:26 GMT-0500 (Central Daylight Time),477723.2000000477,A,chimne,O,e,128,1,5148.200000047684,472575.0,7023,WL,A,8.0
4,21.259999990463257,learn,38740.00000953674,Wed Oct 02 2024 12:10:26 GMT-0500 (Central Daylight Time),477857.10000002384,A,chimney,O,y,107,1,5282.100000023842,472575.0,7023,WL,A,8.0
4,21.54199981689453,learn,38458.00018310547,Wed Oct 02 2024 12:10:26 GMT-0500 (Central Daylight Time),478139.5,A,chimneyenter,O,enter,244,1,5564.5,472575.0,7023,WL,A,8.0
4,21.759999990463257,learn,38240.00000953674,Wed Oct 02 2024 12:10:26 GMT-0500 (Central Daylight Time),478356.7999999523,A,a,O,a,203,1,217.09999990463257,478139.7000000477,7023,WL,A,9.0
4,21.875999927520752,learn,38124.00007247925,Wed Oct 02 2024 12:10:26 GMT-0500 (Central Daylight Time),478473.2999999523,A,ap,O,p,82,1,333.59999990463257,478139.7000000477,7023,WL,A,9.0
4,22.026000022888184,learn,37973.99997711182,Wed Oct 02 2024 12:10:26 GMT-0500 (Central Daylight Time),478622.7000000477,A,app,O,p,116,1,483.0,478139.7000000477,7023,WL,A,9.0
4,22.20899987220764,learn,37791.00012779236,Wed Oct 02 2024 12:10:26 GMT-0500 (Central Daylight Time),478806.60000002384,A,appl,O,l,164,1,666.8999999761581,478139.7000000477,7023,WL,A,9.0
4,22.325999975204468,learn,37674.00002479553,Wed Oct 02 2024 12:10:26 GMT-0500 (Central Daylight Time),478923.5,A,apple,O,e,88,1,783.7999999523163,478139.7000000477,7023,WL,A,9.0
4,22.441999912261963,learn,37558.00008773804,Wed Oct 02 2024 12:10:26 GMT-0500 (Central Daylight Time),479039.2000000477,A,appleenter,O,enter,90,1,899.5,478139.7000000477,7023,WL,A,9.0
4,26.407999992370605,learn,33592.000007629395,Wed Oct 02 2024 12:10:26 GMT-0500 (Central Daylight Time),483005.0,A,b,O,b,3959,1,3965.5,479039.5,7023,WL,A,10.0
4,26.640999794006348,learn,33359.00020599365,Wed Oct 02 2024 12:10:26 GMT-0500 (Central Daylight Time),483238.60000002384,A,bu,O,u,201,1,4199.100000023842,479039.5,7023,WL,A,10.0
4,26.79099988937378,learn,33209.00011062622,Wed Oct 02 2024 12:10:26 GMT-0500 (Central Daylight Time),483388.39999997616,A,but,O,t,122,1,4348.899999976158,479039.5,7023,WL,A,10.0
4,26.97499990463257,learn,33025.00009536743,Wed Oct 02 2024 12:10:26 GMT-0500 (Central Daylight Time),483571.7999999523,A,butt,O,t,148,1,4532.299999952316,479039.5,7023,WL,A,10.0
4,27.057999849319458,learn,32942.00015068054,Wed Oct 02 2024 12:10:26 GMT-0500 (Central Daylight Time),483654.7000000477,A,butto,O,o,50,1,4615.200000047684,479039.5,7023,WL,A,10.0
4,27.274999856948853,learn,32725.000143051147,Wed Oct 02 2024 12:10:26 GMT-0500 (Central Daylight Time),483871.7999999523,A,button,O,n,192,1,4832.299999952316,479039.5,7023,WL,A,10.0
4,27.5239999294281,learn,32476.0000705719,Wed Oct 02 2024 12:10:26 GMT-0500 (Central Daylight Time),484120.7000000477,A,buttonenter,O,enter,221,1,5081.200000047684,479039.5,7023,WL,A,10.0
4,28.85699987411499,learn,31143.00012588501,Wed Oct 02 2024 12:10:26 GMT-0500 (Central Daylight Time),485454.39999997616,A,r,O,r,1325,1,1333.3999999761581,484121.0,7023,WL,A,11.0
4,29.04099988937378,learn,30959.00011062622,Wed Oct 02 2024 12:10:26 GMT-0500 (Central Daylight Time),485637.7999999523,A,ra,O,a,152,1,1516.7999999523163,484121.0,7023,WL,A,11.0
4,29.2739999294281,learn,30726.0000705719,Wed Oct 02 2024 12:10:26 GMT-0500 (Central Daylight Time),485871.0,A,rat,O,t,210,1,1750.0,484121.0,7023,WL,A,11.0
4,29.43999981880188,learn,30560.00018119812,Wed Oct 02 2024 12:10:26 GMT-0500 (Central Daylight Time),486037.60000002384,A,ratt,O,t,135,1,1916.6000000238419,484121.0,7023,WL,A,11.0
4,29.622999906539917,learn,30377.000093460083,Wed Oct 02 2024 12:10:26 GMT-0500 (Central Daylight Time),486220.60000002384,A,rattl,O,l,152,1,2099.600000023842,484121.0,7023,WL,A,11.0
4,29.68999981880188,learn,30310.00018119812,Wed Oct 02 2024 12:10:26 GMT-0500 (Central Daylight Time),486286.7000000477,A,rattle,O,e,46,1,2165.7000000476837,484121.0,7023,WL,A,11.0
4,30.52300000190735,learn,29476.99999809265,Wed Oct 02 2024 12:10:26 GMT-0500 (Central Daylight Time),487119.89999997616,A,rattleenter,O,enter,822,1,2998.899999976158,484121.0,7023,WL,A,11.0
4,31.656999826431274,learn,28343.000173568726,Wed Oct 02 2024 12:10:26 GMT-0500 (Central Daylight Time),488253.7000000477,A,g,O,g,1127,1,1133.5,487120.2000000477,7023,WL,A,12.0
4,31.805999994277954,learn,28194.000005722046,Wed Oct 02 2024 12:10:26 GMT-0500 (Central Daylight Time),488402.7999999523,A,go,O,o,119,1,1282.5999999046326,487120.2000000477,7023,WL,A,12.0
4,32.00599980354309,learn,27994.00019645691,Wed Oct 02 2024 12:10:26 GMT-0500 (Central Daylight Time),488603.5,A,gol,O,l,187,1,1483.2999999523163,487120.2000000477,7023,WL,A,12.0
4,32.10599994659424,learn,27894.00005340576,Wed Oct 02 2024 12:10:26 GMT-0500 (Central Daylight Time),488703.2000000477,A,gold,O,d,67,1,1583.0,487120.2000000477,7023,WL,A,12.0
4,32.47199988365173,learn,27528.000116348267,Wed Oct 02 2024 12:10:26 GMT-0500 (Central Daylight Time),489069.39999997616,A,goldenter,O,enter,334,1,1949.1999999284744,487120.2000000477,7023,WL,A,12.0
4,33.222999811172485,learn,26777.000188827515,Wed Oct 02 2024 12:10:26 GMT-0500 (Central Daylight Time),489819.7999999523,A,k,O,k,737,1,750.1999999284744,489069.60000002384,7023,WL,A,13.0
4,33.35599994659424,learn,26644.00005340576,Wed Oct 02 2024 12:10:26 GMT-0500 (Central Daylight Time),489953.2000000477,A,ke,O,e,97,1,883.6000000238419,489069.60000002384,7023,WL,A,13.0
4,33.57299995422363,learn,26427.000045776367,Wed Oct 02 2024 12:10:26 GMT-0500 (Central Daylight Time),490169.7000000477,A,key,O,y,181,1,1100.1000000238419,489069.60000002384,7023,WL,A,13.0
4,33.88800001144409,learn,26111.99998855591,Wed Oct 02 2024 12:10:26 GMT-0500 (Central Daylight Time),490485.2999999523,A,keyenter,O,enter,292,1,1415.6999999284744,489069.60000002384,7023,WL,A,13.0
4,60.013999938964844,learn,-13.99993896484375,Wed Oct 02 2024 12:10:26 GMT-0500 (Central Daylight Time),516611.10000002384,A,None,O,None,26119,1,26125.5,490485.60000002384,7023,WL,A,14.0
5,2.182999849319458,learn,60000.0,Wed Oct 02 2024 12:10:26 GMT-0500 (Central Daylight Time),591036.7999999523,A,r,O,r,2146,1,2182.7999999523163,588854.0,7023,WL,A,1.0
5,2.3999998569488525,learn,60000.0,Wed Oct 02 2024 12:10:26 GMT-0500 (Central Daylight Time),591253.2000000477,A,ru,O,u,175,1,2399.2000000476837,588854.0,7023,WL,A,1.0
5,2.682999849319458,learn,60000.0,Wed Oct 02 2024 12:10:26 GMT-0500 (Central Daylight Time),591536.3999999762,A,rug,O,g,257,1,2682.399999976158,588854.0,7023,WL,A,1.0
5,2.881999969482422,learn,60000.0,Wed Oct 02 2024 12:10:26 GMT-0500 (Central Daylight Time),591735.6000000238,A,rugenter,O,enter,165,1,2881.600000023842,588854.0,7023,WL,A,1.0
5,3.432999849319458,learn,60000.0,Wed Oct 02 2024 12:10:26 GMT-0500 (Central Daylight Time),592286.2000000477,A,l,O,l,535,1,550.4000000953674,591735.7999999523,7023,WL,A,2.0
5,3.682999849319458,learn,60000.0,Wed Oct 02 2024 12:10:26 GMT-0500 (Central Daylight Time),592536.1000000238,A,lo,O,o,223,1,800.3000000715256,591735.7999999523,7023,WL,A,2.0
5,3.997999906539917,learn,60000.0,Wed Oct 02 2024 12:10:26 GMT-0500 (Central Daylight Time),592851.7000000477,A,log,O,g,292,1,1115.9000000953674,591735.7999999523,7023,WL,A,2.0
5,4.181999921798706,learn,60000.0,Wed Oct 02 2024 12:10:26 GMT-0500 (Central Daylight Time),593035.2000000477,A,logenter,O,enter,170,1,1299.4000000953674,591735.7999999523,7023,WL,A,2.0
5,4.832000017166138,learn,60000.0,Wed Oct 02 2024 12:10:26 GMT-0500 (Central Daylight Time),593684.8999999762,A,b,O,b,635,1,649.5,593035.3999999762,7023,WL,A,3.0
5,5.082000017166138,learn,60000.0,Wed Oct 02 2024 12:10:26 GMT-0500 (Central Daylight Time),593935.2999999523,A,bo,O,o,238,1,899.8999999761581,593035.3999999762,7023,WL,A,3.0
5,5.248999834060669,learn,60000.0,Wed Oct 02 2024 12:10:26 GMT-0500 (Central Daylight Time),594102.2000000477,A,boo,O,o,136,1,1066.8000000715256,593035.3999999762,7023,WL,A,3.0
5,5.448999881744385,learn,60000.0,Wed Oct 02 2024 12:10:26 GMT-0500 (Central Daylight Time),594302.1000000238,A,book,O,k,168,1,1266.7000000476837,593035.3999999762,7023,WL,A,3.0
5,5.781999826431274,learn,60000.0,Wed Oct 02 2024 12:10:26 GMT-0500 (Central Daylight Time),594634.6000000238,A,bookenter,O,enter,303,1,1599.2000000476837,593035.3999999762,7023,WL,A,3.0
5,6.181999921798706,learn,60000.0,Wed Oct 02 2024 12:10:26 GMT-0500 (Central Daylight Time),595035.0,A,f,O,f,380,1,400.10000002384186,594634.8999999762,7023,WL,A,4.0
5,6.281999826431274,learn,60000.0,Wed Oct 02 2024 12:10:26 GMT-0500 (Central Daylight Time),595134.7000000477,A,fl,O,l,75,1,499.8000000715256,594634.8999999762,7023,WL,A,4.0
5,6.4649999141693115,learn,60000.0,Wed Oct 02 2024 12:10:26 GMT-0500 (Central Daylight Time),595318.2999999523,A,flo,O,o,159,1,683.3999999761581,594634.8999999762,7023,WL,A,4.0
5,6.531999826431274,learn,60000.0,Wed Oct 02 2024 12:10:26 GMT-0500 (Central Daylight Time),595384.6000000238,A,flow,O,w,40,1,749.7000000476837,594634.8999999762,7023,WL,A,4.0
5,6.73199987411499,learn,60000.0,Wed Oct 02 2024 12:10:26 GMT-0500 (Central Daylight Time),595585.0,A,flowe,O,e,184,1,950.1000000238419,594634.8999999762,7023,WL,A,4.0
5,6.815000057220459,learn,60000.0,Wed Oct 02 2024 12:10:26 GMT-0500 (Central Daylight Time),595668.2000000477,A,flower,O,r,53,1,1033.3000000715256,594634.8999999762,7023,WL,A,4.0
5,6.947999954223633,learn,60000.0,Wed Oct 02 2024 12:10:26 GMT-0500 (Central Daylight Time),595800.8999999762,A,flowerenter,O,enter,97,1,1166.0,594634.8999999762,7023,WL,A,4.0
5,7.431999921798706,learn,60000.0,Wed Oct 02 2024 12:10:26 GMT-0500 (Central Daylight Time),596284.7000000477,A,t,O,t,470,1,483.5,595801.2000000477,7023,WL,A,5.0
5,7.631999969482422,learn,60000.0,Wed Oct 02 2024 12:10:26 GMT-0500 (Central Daylight Time),596484.8999999762,A,tr,O,r,177,1,683.6999999284744,595801.2000000477,7023,WL,A,5.0
5,7.830999851226807,learn,60000.0,Wed Oct 02 2024 12:10:26 GMT-0500 (Central Daylight Time),596684.6000000238,A,tra,O,a,170,1,883.3999999761581,595801.2000000477,7023,WL,A,5.0
5,7.9649999141693115,learn,60000.0,Wed Oct 02 2024 12:10:26 GMT-0500 (Central Daylight Time),596818.0,A,trai,O,i,106,1,1016.7999999523163,595801.2000000477,7023,WL,A,5.0
5,8.164000034332275,learn,60000.0,Wed Oct 02 2024 12:10:26 GMT-0500 (Central Daylight Time),597017.3999999762,A,train,O,n,175,1,1216.1999999284744,595801.2000000477,7023,WL,A,5.0
5,8.430999994277954,learn,60000.0,Wed Oct 02 2024 12:10:26 GMT-0500 (Central Daylight Time),597283.7000000477,A,trainenter,O,enter,252,1,1482.5,595801.2000000477,7023,WL,A,5.0
5,8.664999961853027,learn,60000.0,Wed Oct 02 2024 12:10:26 GMT-0500 (Central Daylight Time),597517.7000000477,A,c,O,c,219,1,233.80000007152557,597283.8999999762,7023,WL,A,6.0
5,9.080999851226807,learn,60000.0,Wed Oct 02 2024 12:10:26 GMT-0500 (Central Daylight Time),597934.1000000238,A,ch,O,h,392,1,650.2000000476837,597283.8999999762,7023,WL,A,6.0
5,9.263999938964844,learn,60000.0,Wed Oct 02 2024 12:10:26 GMT-0500 (Central Daylight Time),598117.3999999762,A,chi,O,i,159,1,833.5,597283.8999999762,7023,WL,A,6.0
5,9.480999946594238,learn,60000.0,Wed Oct 02 2024 12:10:26 GMT-0500 (Central Daylight Time),598333.8999999762,A,chim,O,m,184,1,1050.0,597283.8999999762,7023,WL,A,6.0
5,9.813999891281128,learn,60000.0,Wed Oct 02 2024 12:10:26 GMT-0500 (Central Daylight Time),598667.3999999762,A,chimn,O,n,305,1,1383.5,597283.8999999762,7023,WL,A,6.0
5,10.080999851226807,learn,60000.0,Wed Oct 02 2024 12:10:26 GMT-0500 (Central Daylight Time),598933.7000000477,A,chimne,O,e,243,1,1649.8000000715256,597283.8999999762,7023,WL,A,6.0
5,10.246999979019165,learn,60000.0,Wed Oct 02 2024 12:10:26 GMT-0500 (Central Daylight Time),599100.3999999762,A,chimney,O,y,137,1,1816.5,597283.8999999762,7023,WL,A,6.0
5,10.579999923706055,learn,60000.0,Wed Oct 02 2024 12:10:26 GMT-0500 (Central Daylight Time),599433.1000000238,A,chimneyenter,O,enter,307,1,2149.2000000476837,597283.8999999762,7023,WL,A,6.0
5,11.02999997138977,learn,60000.0,Wed Oct 02 2024 12:10:26 GMT-0500 (Central Daylight Time),599883.7000000477,A,a,O,a,437,1,450.40000009536743,599433.2999999523,7023,WL,A,7.0
5,11.162999868392944,learn,60000.0,Wed Oct 02 2024 12:10:26 GMT-0500 (Central Daylight Time),600016.2000000477,A,ap,O,p,106,1,582.9000000953674,599433.2999999523,7023,WL,A,7.0
5,11.329999923706055,learn,60000.0,Wed Oct 02 2024 12:10:26 GMT-0500 (Central Daylight Time),600183.3999999762,A,app,O,p,146,1,750.1000000238419,599433.2999999523,7023,WL,A,7.0
5,11.513999938964844,learn,60000.0,Wed Oct 02 2024 12:10:26 GMT-0500 (Central Daylight Time),600366.7000000477,A,appl,O,l,150,1,933.4000000953674,599433.2999999523,7023,WL,A,7.0
5,11.613999843597412,learn,60000.0,Wed Oct 02 2024 12:10:26 GMT-0500 (Central Daylight Time),600466.7999999523,A,apple,O,e,72,1,1033.5,599433.2999999523,7023,WL,A,7.0
5,11.929999828338623,learn,60000.0,Wed Oct 02 2024 12:10:26 GMT-0500 (Central Daylight Time),600782.6000000238,A,appleenter,O,enter,291,1,1349.3000000715256,599433.2999999523,7023,WL,A,7.0
5,17.911999940872192,learn,60000.0,Wed Oct 02 2024 12:10:26 GMT-0500 (Central Daylight Time),606765.0,A,f,O,f,5975,1,5981.899999976158,600783.1000000238,7023,WL,A,8.0
5,18.027999877929688,learn,60000.0,Wed Oct 02 2024 12:10:26 GMT-0500 (Central Daylight Time),606880.7999999523,A,fi,O,i,89,1,6097.699999928474,600783.1000000238,7023,WL,A,8.0
5,18.210999965667725,learn,60000.0,Wed Oct 02 2024 12:10:26 GMT-0500 (Central Daylight Time),607064.5,A,fin,O,n,169,1,6281.399999976158,600783.1000000238,7023,WL,A,8.0
5,18.277999877929688,learn,60000.0,Wed Oct 02 2024 12:10:26 GMT-0500 (Central Daylight Time),607130.7000000477,A,fing,O,g,29,1,6347.600000023842,600783.1000000238,7023,WL,A,8.0
5,18.42799997329712,learn,60000.0,Wed Oct 02 2024 12:10:26 GMT-0500 (Central Daylight Time),607281.2999999523,A,finge,O,e,134,1,6498.199999928474,600783.1000000238,7023,WL,A,8.0
5,18.494999885559082,learn,60000.0,Wed Oct 02 2024 12:10:26 GMT-0500 (Central Daylight Time),607347.7999999523,A,finger,O,r,36,1,6564.699999928474,600783.1000000238,7023,WL,A,8.0
5,18.876999855041504,learn,60000.0,Wed Oct 02 2024 12:10:26 GMT-0500 (Central Daylight Time),607730.2000000477,A,fingerenter,O,enter,347,1,6947.100000023842,600783.1000000238,7023,WL,A,8.0
5,19.16100001335144,learn,60000.0,Wed Oct 02 2024 12:10:26 GMT-0500 (Central Daylight Time),608014.2999999523,A,s,O,s,268,1,283.89999997615814,607730.3999999762,7023,WL,A,9.0
5,19.293999910354614,learn,60000.0,Wed Oct 02 2024 12:10:26 GMT-0500 (Central Daylight Time),608147.5,A,sa,O,a,96,1,417.10000002384186,607730.3999999762,7023,WL,A,9.0
5,19.41100001335144,learn,60000.0,Wed Oct 02 2024 12:10:26 GMT-0500 (Central Daylight Time),608264.2999999523,A,sal,O,l,85,1,533.8999999761581,607730.3999999762,7023,WL,A,9.0
5,19.5939998626709,learn,60000.0,Wed Oct 02 2024 12:10:26 GMT-0500 (Central Daylight Time),608447.5,A,salt,O,t,149,1,717.1000000238419,607730.3999999762,7023,WL,A,9.0
5,19.727999925613403,learn,60000.0,Wed Oct 02 2024 12:10:26 GMT-0500 (Central Daylight Time),608581.1000000238,A,saltenter,O,enter,110,1,850.7000000476837,607730.3999999762,7023,WL,A,9.0
5,22.292999982833862,learn,60000.0,Wed Oct 02 2024 12:10:26 GMT-0500 (Central Daylight Time),611146.5,A,r,O,r,2546,1,2565.100000023842,608581.3999999762,7023,WL,A,10.0
5,22.427000045776367,learn,60000.0,Wed Oct 02 2024 12:10:26 GMT-0500 (Central Daylight Time),611279.8999999762,A,ri,O,i,108,1,2698.5,608581.3999999762,7023,WL,A,10.0
5,22.64299988746643,learn,60000.0,Wed Oct 02 2024 12:10:26 GMT-0500 (Central Daylight Time),611496.2999999523,A,rin,O,n,194,1,2914.899999976158,608581.3999999762,7023,WL,A,10.0
5,22.759999990463257,learn,60000.0,Wed Oct 02 2024 12:10:26 GMT-0500 (Central Daylight Time),611613.2999999523,A,ring,O,g,95,1,3031.899999976158,608581.3999999762,7023,WL,A,10.0
5,23.80900001525879,learn,60000.0,Wed Oct 02 2024 12:10:26 GMT-0500 (Central Daylight Time),612662.0,A,ringenter,O,enter,1023,1,4080.600000023842,608581.3999999762,7023,WL,A,10.0
5,24.47599983215332,learn,60000.0,Wed Oct 02 2024 12:10:26 GMT-0500 (Central Daylight Time),613329.2000000477,A,r,O,r,656,1,666.9000000953674,612662.2999999523,7023,WL,A,11.0
5,24.692999839782715,learn,60000.0,Wed Oct 02 2024 12:10:26 GMT-0500 (Central Daylight Time),613545.7000000477,A,ra,O,a,181,1,883.4000000953674,612662.2999999523,7023,WL,A,11.0
5,24.875999927520752,learn,60000.0,Wed Oct 02 2024 12:10:26 GMT-0500 (Central Daylight Time),613729.1000000238,A,rat,O,t,158,1,1066.8000000715256,612662.2999999523,7023,WL,A,11.0
5,25.04200005531311,learn,60000.0,Wed Oct 02 2024 12:10:26 GMT-0500 (Central Daylight Time),613895.5,A,ratt,O,t,133,1,1233.2000000476837,612662.2999999523,7023,WL,A,11.0
5,25.20899987220764,learn,60000.0,Wed Oct 02 2024 12:10:26 GMT-0500 (Central Daylight Time),614062.2000000477,A,rattl,O,l,135,1,1399.9000000953674,612662.2999999523,7023,WL,A,11.0
5,25.274999856948853,learn,60000.0,Wed Oct 02 2024 12:10:26 GMT-0500 (Central Daylight Time),614128.1000000238,A,rattle,O,e,38,1,1465.8000000715256,612662.2999999523,7023,WL,A,11.0
5,25.54200005531311,learn,60000.0,Wed Oct 02 2024 12:10:26 GMT-0500 (Central Daylight Time),614394.7999999523,A,rattleenter,O,enter,252,1,1732.5,612662.2999999523,7023,WL,A,11.0
5,26.20899987220764,learn,60000.0,Wed Oct 02 2024 12:10:26 GMT-0500 (Central Daylight Time),615062.0,A,g,O,g,652,1,667.0,614395.0,7023,WL,A,12.0
5,26.340999841690063,learn,60000.0,Wed Oct 02 2024 12:10:26 GMT-0500 (Central Daylight Time),615194.3999999762,A,go,O,o,103,1,799.3999999761581,614395.0,7023,WL,A,12.0
5,26.524999856948853,learn,60000.0,Wed Oct 02 2024 12:10:26 GMT-0500 (Central Daylight Time),615377.6000000238,A,gol,O,l,170,1,982.6000000238419,614395.0,7023,WL,A,12.0
5,26.625,learn,60000.0,Wed Oct 02 2024 12:10:26 GMT-0500 (Central Daylight Time),615477.5,A,gold,O,d,82,1,1082.5,614395.0,7023,WL,A,12.0
5,26.807999849319458,learn,60000.0,Wed Oct 02 2024 12:10:26 GMT-0500 (Central Daylight Time),615661.1000000238,A,goldenter,O,enter,176,1,1266.1000000238419,614395.0,7023,WL,A,12.0
5,31.10699987411499,learn,60000.0,Wed Oct 02 2024 12:10:26 GMT-0500 (Central Daylight Time),619960.2999999523,A,m,O,m,4291,1,4299.0,615661.2999999523,7023,WL,A,13.0
5,31.240999937057495,learn,60000.0,Wed Oct 02 2024 12:10:26 GMT-0500 (Central Daylight Time),620093.7000000477,A,me,O,e,100,1,4432.400000095367,615661.2999999523,7023,WL,A,13.0
5,31.424000024795532,learn,60000.0,Wed Oct 02 2024 12:10:26 GMT-0500 (Central Daylight Time),620276.8999999762,A,mea,O,a,153,1,4615.600000023842,615661.2999999523,7023,WL,A,13.0
5,31.60699987411499,learn,60000.0,Wed Oct 02 2024 12:10:26 GMT-0500 (Central Daylight Time),620459.8999999762,A,mead,O,d,147,1,4798.600000023842,615661.2999999523,7023,WL,A,13.0
5,31.740000009536743,learn,60000.0,Wed Oct 02 2024 12:10:26 GMT-0500 (Central Daylight Time),620592.6000000238,A,meado,O,o,100,1,4931.300000071526,615661.2999999523,7023,WL,A,13.0
5,31.85699987411499,learn,60000.0,Wed Oct 02 2024 12:10:26 GMT-0500 (Central Daylight Time),620710.0,A,meadow,O,w,95,1,5048.700000047684,615661.2999999523,7023,WL,A,13.0
5,31.973000049591064,learn,60000.0,Wed Oct 02 2024 12:10:26 GMT-0500 (Central Daylight Time),620826.0,A,meadowenter,O,enter,88,1,5164.700000047684,615661.2999999523,7023,WL,A,13.0
5,40.103999853134155,learn,60000.0,Wed Oct 02 2024 12:10:26 GMT-0500 (Central Daylight Time),628957.3999999762,A,a,O,a,8117,1,8131.100000023842,620826.2999999523,7023,WL,A,14.0
5,40.269999980926514,learn,60000.0,Wed Oct 02 2024 12:10:26 GMT-0500 (Central Daylight Time),629123.3999999762,A,ap,O,p,128,1,8297.100000023842,620826.2999999523,7023,WL,A,14.0
5,40.4210000038147,learn,60000.0,Wed Oct 02 2024 12:10:26 GMT-0500 (Central Daylight Time),629274.2000000477,A,app,O,p,129,1,8447.900000095367,620826.2999999523,7023,WL,A,14.0
5,40.63699984550476,learn,60000.0,Wed Oct 02 2024 12:10:26 GMT-0500 (Central Daylight Time),629490.3999999762,A,appl,O,l,188,1,8664.100000023842,620826.2999999523,7023,WL,A,14.0
5,41.28699994087219,learn,60000.0,Wed Oct 02 2024 12:10:26 GMT-0500 (Central Daylight Time),630140.3999999762,A,apple,O,e,623,1,9314.100000023842,620826.2999999523,7023,WL,A,14.0
5,43.28600001335144,learn,60000.0,Wed Oct 02 2024 12:10:26 GMT-0500 (Central Daylight Time),632138.8999999762,A,appleenter,O,enter,1960,1,11312.600000023842,620826.2999999523,7023,WL,A,14.0
5,43.97000002861023,learn,60000.0,Wed Oct 02 2024 12:10:26 GMT-0500 (Central Daylight Time),632822.7999999523,A,h,O,h,676,1,683.5999999046326,632139.2000000477,7023,WL,A,15.0
5,44.1029999256134,learn,60000.0,Wed Oct 02 2024 12:10:26 GMT-0500 (Central Daylight Time),632956.1000000238,A,ha,O,a,103,1,816.8999999761581,632139.2000000477,7023,WL,A,15.0
5,44.319000005722046,learn,60000.0,Wed Oct 02 2024 12:10:26 GMT-0500 (Central Daylight Time),633172.2999999523,A,hao,O,o,178,1,1033.0999999046326,632139.2000000477,7023,WL,A,15.0
5,44.736000061035156,learn,60000.0,Wed Oct 02 2024 12:10:26 GMT-0500 (Central Daylight Time),633589.2000000477,A,haop,O,p,386,1,1450.0,632139.2000000477,7023,WL,A,15.0
5,45.085999965667725,learn,60000.0,Wed Oct 02 2024 12:10:26 GMT-0500 (Central Daylight Time),633939.0,A,hao,O,backspace,320,1,1799.7999999523163,632139.2000000477,7023,WL,A,15.0
5,45.26900005340576,learn,60000.0,Wed Oct 02 2024 12:10:26 GMT-0500 (Central Daylight Time),634122.2999999523,A,ha,O,backspace,155,1,1983.0999999046326,632139.2000000477,7023,WL,A,15.0
5,45.38599991798401,learn,60000.0,Wed Oct 02 2024 12:10:26 GMT-0500 (Central Daylight Time),634239.0,A,har,O,r,82,1,2099.7999999523163,632139.2000000477,7023,WL,A,15.0
5,45.486000061035156,learn,60000.0,Wed Oct 02 2024 12:10:26 GMT-0500 (Central Daylight Time),634338.8999999762,A,harp,O,p,72,1,2199.6999999284744,632139.2000000477,7023,WL,A,15.0
5,45.80200004577637,learn,60000.0,Wed Oct 02 2024 12:10:26 GMT-0500 (Central Daylight Time),634654.7999999523,A,harpenter,O,enter,283,1,2515.5999999046326,632139.2000000477,7023,WL,A,15.0
6,1.1340000629425049,distr,58865.999937057495,Wed Oct 02 2024 12:10:26 GMT-0500 (Central Daylight Time),704783.2000000477,B,g,O,g,1102,1,1133.0,703650.2000000477,7023,WL,A,1.0
6,1.3499999046325684,distr,58650.00009536743,Wed Oct 02 2024 12:10:26 GMT-0500 (Central Daylight Time),704999.1000000238,B,gr,O,r,191,1,1348.8999999761581,703650.2000000477,7023,WL,A,1.0
6,1.5999999046325684,distr,58400.00009536743,Wed Oct 02 2024 12:10:26 GMT-0500 (Central Daylight Time),705248.7999999523,B,gra,O,a,224,1,1598.5999999046326,703650.2000000477,7023,WL,A,1.0
6,1.75,distr,58250.0,Wed Oct 02 2024 12:10:26 GMT-0500 (Central Daylight Time),705399.0,B,gran,O,n,122,1,1748.7999999523163,703650.2000000477,7023,WL,A,1.0
6,1.8829998970031738,distr,58117.000102996826,Wed Oct 02 2024 12:10:26 GMT-0500 (Central Daylight Time),705532.6000000238,B,grant,O,t,94,1,1882.3999999761581,703650.2000000477,7023,WL,A,1.0
6,2.365999937057495,distr,57634.000062942505,Wed Oct 02 2024 12:10:26 GMT-0500 (Central Daylight Time),706014.7999999523,B,grantenter,O,enter,450,1,2364.5999999046326,703650.2000000477,7023,WL,A,1.0
6,2.6489999294281006,distr,57351.0000705719,Wed Oct 02 2024 12:10:26 GMT-0500 (Central Daylight Time),706298.7999999523,B,c,O,c,264,1,283.7999999523163,706015.0,7023,WL,A,2.0
6,2.8989999294281006,distr,57101.0000705719,Wed Oct 02 2024 12:10:26 GMT-0500 (Central Daylight Time),706548.5,B,co,O,o,212,1,533.5,706015.0,7023,WL,A,2.0
6,3.1660001277923584,distr,56833.99987220764,Wed Oct 02 2024 12:10:26 GMT-0500 (Central Daylight Time),706815.2000000477,B,cou,O,u,234,1,800.2000000476837,706015.0,7023,WL,A,2.0
6,3.365999937057495,distr,56634.000062942505,Wed Oct 02 2024 12:10:26 GMT-0500 (Central Daylight Time),707015.5,B,coun,O,n,167,1,1000.5,706015.0,7023,WL,A,2.0
6,3.5160000324249268,distr,56483.99996757507,Wed Oct 02 2024 12:10:26 GMT-0500 (Central Daylight Time),707164.8999999762,B,count,O,t,111,1,1149.8999999761581,706015.0,7023,WL,A,2.0
6,3.6489999294281006,distr,56351.0000705719,Wed Oct 02 2024 12:10:26 GMT-0500 (Central Daylight Time),707298.2999999523,B,county,O,y,103,1,1283.2999999523163,706015.0,7023,WL,A,2.0
6,4.049000024795532,distr,55950.99997520447,Wed Oct 02 2024 12:10:26 GMT-0500 (Central Daylight Time),707698.5,B,countyenter,O,enter,363,1,1683.5,706015.0,7023,WL,A,2.0
6,4.898999929428101,distr,55101.0000705719,Wed Oct 02 2024 12:10:26 GMT-0500 (Central Daylight Time),708548.0,B,s,O,s,828,1,849.2000000476837,707698.7999999523,7023,WL,A,3.0
6,5.049000024795532,distr,54950.99997520447,Wed Oct 02 2024 12:10:26 GMT-0500 (Central Daylight Time),708697.8999999762,B,sh,O,h,121,1,999.1000000238419,707698.7999999523,7023,WL,A,3.0
6,5.164999961853027,distr,54835.00003814697,Wed Oct 02 2024 12:10:26 GMT-0500 (Central Daylight Time),708814.5,B,she,O,e,93,1,1115.7000000476837,707698.7999999523,7023,WL,A,3.0
6,5.332000017166138,distr,54667.99998283386,Wed Oct 02 2024 12:10:26 GMT-0500 (Central Daylight Time),708981.1000000238,B,shee,O,e,144,1,1282.3000000715256,707698.7999999523,7023,WL,A,3.0
6,5.414000034332275,distr,54585.999965667725,Wed Oct 02 2024 12:10:26 GMT-0500 (Central Daylight Time),709063.6000000238,B,sheep,O,p,55,1,1364.8000000715256,707698.7999999523,7023,WL,A,3.0
6,6.081000089645386,distr,53918.999910354614,Wed Oct 02 2024 12:10:26 GMT-0500 (Central Daylight Time),709730.1000000238,B,sheepenter,O,enter,631,1,2031.3000000715256,707698.7999999523,7023,WL,A,3.0
6,6.430999994277954,distr,53569.000005722046,Wed Oct 02 2024 12:10:26 GMT-0500 (Central Daylight Time),710080.6000000238,B,m,O,m,332,1,350.2000000476837,709730.3999999762,7023,WL,A,4.0
6,7.230999946594238,distr,52769.00005340576,Wed Oct 02 2024 12:10:26 GMT-0500 (Central Daylight Time),710880.2999999523,B,me,O,e,774,1,1149.8999999761581,709730.3999999762,7023,WL,A,4.0
6,7.447999954223633,distr,52552.00004577637,Wed Oct 02 2024 12:10:26 GMT-0500 (Central Daylight Time),711097.1000000238,B,mea,O,a,185,1,1366.7000000476837,709730.3999999762,7023,WL,A,4.0
6,7.564000129699707,distr,52435.99987030029,Wed Oct 02 2024 12:10:26 GMT-0500 (Central Daylight Time),711213.6000000238,B,meal,O,l,79,1,1483.2000000476837,709730.3999999762,7023,WL,A,4.0
6,7.914000034332275,distr,52085.999965667725,Wed Oct 02 2024 12:10:26 GMT-0500 (Central Daylight Time),711562.8999999762,B,mealenter,O,enter,321,1,1832.5,709730.3999999762,7023,WL,A,4.0
6,9.829999923706055,distr,50170.000076293945,Wed Oct 02 2024 12:10:26 GMT-0500 (Central Daylight Time),713479.6000000238,B,p,O,p,1907,1,1916.3999999761581,711563.2000000477,7023,WL,A,5.0
6,9.94700002670288,distr,50052.99997329712,Wed Oct 02 2024 12:10:26 GMT-0500 (Central Daylight Time),713596.2999999523,B,pe,O,e,87,1,2033.0999999046326,711563.2000000477,7023,WL,A,5.0
6,10.130000114440918,distr,49869.99988555908,Wed Oct 02 2024 12:10:26 GMT-0500 (Central Daylight Time),713779.5,B,pea,O,a,148,1,2216.2999999523163,711563.2000000477,7023,WL,A,5.0
6,10.347000122070312,distr,49652.99987792969,Wed Oct 02 2024 12:10:26 GMT-0500 (Central Daylight Time),713996.0,B,peac,O,c,178,1,2432.7999999523163,711563.2000000477,7023,WL,A,5.0
6,10.446000099182129,distr,49553.99990081787,Wed Oct 02 2024 12:10:26 GMT-0500 (Central Daylight Time),714095.6000000238,B,peach,O,h,76,1,2532.399999976158,711563.2000000477,7023,WL,A,5.0
6,10.746999979019165,distr,49253.000020980835,Wed Oct 02 2024 12:10:26 GMT-0500 (Central Daylight Time),714395.2999999523,B,peachenter,O,enter,280,1,2832.0999999046326,711563.2000000477,7023,WL,A,5.0
6,10.996999979019165,distr,49003.000020980835,Wed Oct 02 2024 12:10:26 GMT-0500 (Central Daylight Time),714645.1000000238,B,c,O,c,235,1,249.5,714395.6000000238,7023,WL,A,6.0
6,11.097000122070312,distr,48902.99987792969,Wed Oct 02 2024 12:10:26 GMT-0500 (Central Daylight Time),714745.8999999762,B,co,O,o,78,1,350.2999999523163,714395.6000000238,7023,WL,A,6.0
6,11.246999979019165,distr,48753.000020980835,Wed Oct 02 2024 12:10:26 GMT-0500 (Central Daylight Time),714895.7999999523,B,coa,O,a,118,1,500.1999999284744,714395.6000000238,7023,WL,A,6.0
6,11.44700002670288,distr,48552.99997329712,Wed Oct 02 2024 12:10:26 GMT-0500 (Central Daylight Time),715095.7000000477,B,coat,O,t,167,1,700.1000000238419,714395.6000000238,7023,WL,A,6.0
6,11.680000066757202,distr,48319.9999332428,Wed Oct 02 2024 12:10:26 GMT-0500 (Central Daylight Time),715328.2999999523,B,coatenter,O,enter,204,1,932.6999999284744,714395.6000000238,7023,WL,A,6.0
6,12.77999997138977,distr,47220.00002861023,Wed Oct 02 2024 12:10:26 GMT-0500 (Central Daylight Time),716428.7999999523,B,c,O,c,1086,1,1100.2999999523163,715328.5,7023,WL,A,7.0
6,12.96399998664856,distr,47036.00001335144,Wed Oct 02 2024 12:10:26 GMT-0500 (Central Daylight Time),716612.1000000238,B,ch,O,h,147,1,1283.6000000238419,715328.5,7023,WL,A,7.0
6,13.046000003814697,distr,46953.9999961853,Wed Oct 02 2024 12:10:26 GMT-0500 (Central Daylight Time),716695.0,B,cha,O,a,58,1,1366.5,715328.5,7023,WL,A,7.0
6,13.213000059127808,distr,46786.99994087219,Wed Oct 02 2024 12:10:26 GMT-0500 (Central Daylight Time),716861.5,B,chai,O,i,144,1,1533.0,715328.5,7023,WL,A,7.0
6,13.345999956130981,distr,46654.00004386902,Wed Oct 02 2024 12:10:26 GMT-0500 (Central Daylight Time),716994.8999999762,B,chair,O,r,106,1,1666.3999999761581,715328.5,7023,WL,A,7.0
6,13.578999996185303,distr,46421.0000038147,Wed Oct 02 2024 12:10:26 GMT-0500 (Central Daylight Time),717227.6000000238,B,chairenter,O,enter,195,1,1899.1000000238419,715328.5,7023,WL,A,7.0
6,14.845999956130981,distr,45154.00004386902,Wed Oct 02 2024 12:10:26 GMT-0500 (Central Daylight Time),718494.6000000238,B,b,O,b,1259,1,1266.7000000476837,717227.8999999762,7023,WL,A,8.0
6,15.161999940872192,distr,44838.00005912781,Wed Oct 02 2024 12:10:26 GMT-0500 (Central Daylight Time),718811.0,B,bo,O,o,281,1,1583.1000000238419,717227.8999999762,7023,WL,A,8.0
6,15.345999956130981,distr,44654.00004386902,Wed Oct 02 2024 12:10:26 GMT-0500 (Central Daylight Time),718994.3999999762,B,bot,O,t,148,1,1766.5,717227.8999999762,7023,WL,A,8.0
6,15.496000051498413,distr,44503.99994850159,Wed Oct 02 2024 12:10:26 GMT-0500 (Central Daylight Time),719144.5,B,bott,O,t,124,1,1916.6000000238419,717227.8999999762,7023,WL,A,8.0
6,15.628999948501587,distr,44371.00005149841,Wed Oct 02 2024 12:10:26 GMT-0500 (Central Daylight Time),719277.6000000238,B,bottl,O,l,102,1,2049.7000000476837,717227.8999999762,7023,WL,A,8.0
6,15.745000123977661,distr,44254.99987602234,Wed Oct 02 2024 12:10:26 GMT-0500 (Central Daylight Time),719393.7999999523,B,bottle,O,e,90,1,2165.899999976158,717227.8999999762,7023,WL,A,8.0
6,15.894999980926514,distr,44105.000019073486,Wed Oct 02 2024 12:10:26 GMT-0500 (Central Daylight Time),719543.6000000238,B,bottleenter,O,enter,130,1,2315.7000000476837,717227.8999999762,7023,WL,A,8.0
6,31.907000064849854,distr,28092.999935150146,Wed Oct 02 2024 12:10:26 GMT-0500 (Central Daylight Time),735555.2999999523,B,f,O,f,15990,1,16011.399999976158,719543.8999999762,7023,WL,A,9.0
6,32.19000005722046,distr,27809.99994277954,Wed Oct 02 2024 12:10:26 GMT-0500 (Central Daylight Time),735839.0,B,fa,O,a,251,1,16295.100000023842,719543.8999999762,7023,WL,A,9.0
6,32.67400002479553,distr,27325.999975204468,Wed Oct 02 2024 12:10:26 GMT-0500 (Central Daylight Time),736322.2000000477,B,far,O,r,449,1,16778.300000071526,719543.8999999762,7023,WL,A,9.0
6,32.82299995422363,distr,27177.000045776367,Wed Oct 02 2024 12:10:26 GMT-0500 (Central Daylight Time),736472.0,B,farm,O,m,116,1,16928.100000023842,719543.8999999762,7023,WL,A,9.0
6,33.289000034332275,distr,26710.999965667725,Wed Oct 02 2024 12:10:26 GMT-0500 (Central Daylight Time),736937.8999999762,B,farmenter,O,enter,438,1,17394.0,719543.8999999762,7023,WL,A,9.0
6,33.7720000743866,distr,26227.999925613403,Wed Oct 02 2024 12:10:26 GMT-0500 (Central Daylight Time),737420.8999999762,B,enter,O,enter,475,1,482.7999999523163,736938.1000000238,7023,WL,A,10.0
6,33.98900008201599,distr,26010.99991798401,Wed Oct 02 2024 12:10:26 GMT-0500 (Central Daylight Time),737637.7000000477,B,enter,O,enter,200,1,216.40000009536743,737421.2999999523,7023,WL,A,11.0
6,34.15599989891052,distr,25844.000101089478,Wed Oct 02 2024 12:10:26 GMT-0500 (Central Daylight Time),737804.2999999523,B,enter,O,enter,153,1,166.29999995231628,737638.0,7023,WL,A,12.0
6,34.33899998664856,distr,25661.00001335144,Wed Oct 02 2024 12:10:26 GMT-0500 (Central Daylight Time),737987.6000000238,B,enter,O,enter,170,1,183.0,737804.6000000238,7023,WL,A,13.0
6,34.539000034332275,distr,25460.999965667725,Wed Oct 02 2024 12:10:26 GMT-0500 (Central Daylight Time),738187.5,B,enter,O,enter,187,1,199.60000002384186,737987.8999999762,7023,WL,A,14.0
6,34.954999923706055,distr,25045.000076293945,Wed Oct 02 2024 12:10:26 GMT-0500 (Central Daylight Time),738604.0,B,enter,O,enter,394,1,416.2000000476837,738187.7999999523,7023,WL,A,15.0
7,2.3489999771118164,immed,57651.00002288818,Wed Oct 02 2024 12:10:26 GMT-0500 (Central Daylight Time),750901.0,A,r,O,r,2312,1,2349.0,748552.0,7023,WL,A,1.0
7,2.5319998264312744,immed,57468.000173568726,Wed Oct 02 2024 12:10:26 GMT-0500 (Central Daylight Time),751084.1000000238,A,ru,O,u,145,1,2532.100000023842,748552.0,7023,WL,A,1.0
7,2.6659998893737793,immed,57334.00011062622,Wed Oct 02 2024 12:10:26 GMT-0500 (Central Daylight Time),751217.2000000477,A,ruf,O,f,100,1,2665.2000000476837,748552.0,7023,WL,A,1.0
7,3.3319997787475586,immed,56668.00022125244,Wed Oct 02 2024 12:10:26 GMT-0500 (Central Daylight Time),751883.6000000238,A,ru,O,backspace,628,1,3331.600000023842,748552.0,7023,WL,A,1.0
7,3.4819998741149902,immed,56518.00012588501,Wed Oct 02 2024 12:10:26 GMT-0500 (Central Daylight Time),752033.6000000238,A,rug,O,g,115,1,3481.600000023842,748552.0,7023,WL,A,1.0
7,4.0309998989105225,immed,55969.00010108948,Wed Oct 02 2024 12:10:26 GMT-0500 (Central Daylight Time),752582.7999999523,A,rugenter,O,enter,516,1,4030.7999999523163,748552.0,7023,WL,A,1.0
7,4.631999969482422,immed,55368.00003051758,Wed Oct 02 2024 12:10:26 GMT-0500 (Central Daylight Time),753183.2999999523,A,l,O,l,584,1,600.2999999523163,752583.0,7023,WL,A,2.0
7,4.81499981880188,immed,55185.00018119812,Wed Oct 02 2024 12:10:26 GMT-0500 (Central Daylight Time),753366.5,A,lo,O,o,159,1,783.5,752583.0,7023,WL,A,2.0
7,4.98199987411499,immed,55018.00012588501,Wed Oct 02 2024 12:10:26 GMT-0500 (Central Daylight Time),753533.2000000477,A,log,O,g,144,1,950.2000000476837,752583.0,7023,WL,A,2.0
7,5.346999883651733,immed,54653.00011634827,Wed Oct 02 2024 12:10:26 GMT-0500 (Central Daylight Time),753899.0,A,logenter,O,enter,328,1,1316.0,752583.0,7023,WL,A,2.0
7,6.997999906539917,immed,53002.00009346008,Wed Oct 02 2024 12:10:26 GMT-0500 (Central Daylight Time),755549.2999999523,A,b,O,b,1643,1,1650.0,753899.2999999523,7023,WL,A,3.0
7,7.330999851226807,immed,52669.00014877319,Wed Oct 02 2024 12:10:26 GMT-0500 (Central Daylight Time),755882.3999999762,A,bo,O,o,308,1,1983.1000000238419,753899.2999999523,7023,WL,A,3.0
7,7.513999938964844,immed,52486.000061035156,Wed Oct 02 2024 12:10:26 GMT-0500 (Central Daylight Time),756065.5,A,boo,O,o,148,1,2166.2000000476837,753899.2999999523,7023,WL,A,3.0
7,7.730999946594238,immed,52269.00005340576,Wed Oct 02 2024 12:10:26 GMT-0500 (Central Daylight Time),756282.2999999523,A,book,O,k,180,1,2383.0,753899.2999999523,7023,WL,A,3.0
7,8.096999883651733,immed,51903.00011634827,Wed Oct 02 2024 12:10:26 GMT-0500 (Central Daylight Time),756648.1000000238,A,bookenter,O,enter,340,1,2748.8000000715256,753899.2999999523,7023,WL,A,3.0
7,8.379999876022339,immed,51620.00012397766,Wed Oct 02 2024 12:10:26 GMT-0500 (Central Daylight Time),756932.1000000238,A,f,O,f,263,1,283.8000000715256,756648.2999999523,7023,WL,A,4.0
7,8.513999938964844,immed,51486.000061035156,Wed Oct 02 2024 12:10:26 GMT-0500 (Central Daylight Time),757065.3999999762,A,fl,O,l,104,1,417.10000002384186,756648.2999999523,7023,WL,A,4.0
7,8.71399998664856,immed,51286.00001335144,Wed Oct 02 2024 12:10:26 GMT-0500 (Central Daylight Time),757265.1000000238,A,flo,O,o,165,1,616.8000000715256,756648.2999999523,7023,WL,A,4.0
7,8.812999963760376,immed,51187.000036239624,Wed Oct 02 2024 12:10:26 GMT-0500 (Central Daylight Time),757364.7000000477,A,flow,O,w,69,1,716.4000000953674,756648.2999999523,7023,WL,A,4.0
7,9.013999938964844,immed,50986.000061035156,Wed Oct 02 2024 12:10:26 GMT-0500 (Central Daylight Time),757565.2000000477,A,flowe,O,e,175,1,916.9000000953674,756648.2999999523,7023,WL,A,4.0
7,9.079999923706055,immed,50920.000076293945,Wed Oct 02 2024 12:10:26 GMT-0500 (Central Daylight Time),757631.2000000477,A,flower,O,r,41,1,982.9000000953674,756648.2999999523,7023,WL,A,4.0
7,9.412999868392944,immed,50587.000131607056,Wed Oct 02 2024 12:10:26 GMT-0500 (Central Daylight Time),757964.2000000477,A,flowerenter,O,enter,321,1,1315.9000000953674,756648.2999999523,7023,WL,A,4.0
7,11.328999996185303,immed,48671.0000038147,Wed Oct 02 2024 12:10:26 GMT-0500 (Central Daylight Time),759881.1000000238,A,t,O,t,1907,1,1916.7000000476837,757964.3999999762,7023,WL,A,5.0
7,11.546000003814697,immed,48453.9999961853,Wed Oct 02 2024 12:10:26 GMT-0500 (Central Daylight Time),760097.5,A,tr,O,r,181,1,2133.100000023842,757964.3999999762,7023,WL,A,5.0
7,11.751999855041504,immed,48248.000144958496,Wed Oct 02 2024 12:10:26 GMT-0500 (Central Daylight Time),760303.3999999762,A,tra,O,a,173,1,2339.0,757964.3999999762,7023,WL,A,5.0
7,11.895999908447266,immed,48104.000091552734,Wed Oct 02 2024 12:10:26 GMT-0500 (Central Daylight Time),760447.5,A,trai,O,i,127,1,2483.100000023842,757964.3999999762,7023,WL,A,5.0
7,12.128999948501587,immed,47871.00005149841,Wed Oct 02 2024 12:10:26 GMT-0500 (Central Daylight Time),760680.7999999523,A,train,O,n,199,1,2716.399999976158,757964.3999999762,7023,WL,A,5.0
7,12.394999980926514,immed,47605.000019073486,Wed Oct 02 2024 12:10:26 GMT-0500 (Central Daylight Time),760946.6000000238,A,trainenter,O,enter,237,1,2982.2000000476837,757964.3999999762,7023,WL,A,5.0
7,13.461999893188477,immed,46538.00010681152,Wed Oct 02 2024 12:10:26 GMT-0500 (Central Daylight Time),762013.5,A,h,O,h,1051,1,1066.6000000238419,760946.8999999762,7023,WL,A,6.0
7,13.578999996185303,immed,46421.0000038147,Wed Oct 02 2024 12:10:26 GMT-0500 (Central Daylight Time),762130.3999999762,A,ha,O,a,87,1,1183.5,760946.8999999762,7023,WL,A,6.0
7,13.77899980545044,immed,46221.00019454956,Wed Oct 02 2024 12:10:26 GMT-0500 (Central Daylight Time),762330.2000000477,A,hap,O,p,172,1,1383.3000000715256,760946.8999999762,7023,WL,A,6.0
7,13.894999980926514,immed,46105.000019073486,Wed Oct 02 2024 12:10:26 GMT-0500 (Central Daylight Time),762446.8999999762,A,hapr,O,r,95,1,1500.0,760946.8999999762,7023,WL,A,6.0
7,14.444999933242798,immed,45555.0000667572,Wed Oct 02 2024 12:10:26 GMT-0500 (Central Daylight Time),762997.0,A,hap,O,backspace,528,1,2050.100000023842,760946.8999999762,7023,WL,A,6.0
7,14.627999782562256,immed,45372.000217437744,Wed Oct 02 2024 12:10:26 GMT-0500 (Central Daylight Time),763180.1000000238,A,ha,O,backspace,151,1,2233.2000000476837,760946.8999999762,7023,WL,A,6.0
7,14.727999925613403,immed,45272.0000743866,Wed Oct 02 2024 12:10:26 GMT-0500 (Central Daylight Time),763279.5,A,har,O,r,66,1,2332.600000023842,760946.8999999762,7023,WL,A,6.0
7,14.861999988555908,immed,45138.00001144409,Wed Oct 02 2024 12:10:26 GMT-0500 (Central Daylight Time),763413.3999999762,A,harp,O,p,102,1,2466.5,760946.8999999762,7023,WL,A,6.0
7,15.226999998092651,immed,44773.00000190735,Wed Oct 02 2024 12:10:26 GMT-0500 (Central Daylight Time),763779.1000000238,A,harpenter,O,enter,336,1,2832.2000000476837,760946.8999999762,7023,WL,A,6.0
7,15.84499979019165,immed,44155.00020980835,Wed Oct 02 2024 12:10:26 GMT-0500 (Central Daylight Time),764396.2999999523,A,a,O,a,596,1,617.0,763779.2999999523,7023,WL,A,7.0
7,15.944999933242798,immed,44055.0000667572,Wed Oct 02 2024 12:10:26 GMT-0500 (Central Daylight Time),764496.2000000477,A,ap,O,p,76,1,716.9000000953674,763779.2999999523,7023,WL,A,7.0
7,16.110999822616577,immed,43889.00017738342,Wed Oct 02 2024 12:10:26 GMT-0500 (Central Daylight Time),764662.7999999523,A,app,O,p,134,1,883.5,763779.2999999523,7023,WL,A,7.0
7,16.277999877929688,immed,43722.00012207031,Wed Oct 02 2024 12:10:26 GMT-0500 (Central Daylight Time),764829.6000000238,A,appl,O,l,136,1,1050.3000000715256,763779.2999999523,7023,WL,A,7.0
7,16.393999814987183,immed,43606.00018501282,Wed Oct 02 2024 12:10:26 GMT-0500 (Central Daylight Time),764946.0,A,apple,O,e,89,1,1166.7000000476837,763779.2999999523,7023,WL,A,7.0
7,16.526999950408936,immed,43473.000049591064,Wed Oct 02 2024 12:10:26 GMT-0500 (Central Daylight Time),765078.7000000477,A,appleenter,O,enter,108,1,1299.4000000953674,763779.2999999523,7023,WL,A,7.0
7,17.360999822616577,immed,42639.00017738342,Wed Oct 02 2024 12:10:26 GMT-0500 (Central Daylight Time),765912.5,A,s,O,s,816,1,833.6000000238419,765078.8999999762,7023,WL,A,8.0
7,17.51099991798401,immed,42489.00008201599,Wed Oct 02 2024 12:10:26 GMT-0500 (Central Daylight Time),766062.2999999523,A,sa,O,a,126,1,983.3999999761581,765078.8999999762,7023,WL,A,8.0
7,17.626999855041504,immed,42373.000144958496,Wed Oct 02 2024 12:10:26 GMT-0500 (Central Daylight Time),766178.2000000477,A,sal,O,l,79,1,1099.3000000715256,765078.8999999762,7023,WL,A,8.0
7,17.8439998626709,immed,42156.0001373291,Wed Oct 02 2024 12:10:26 GMT-0500 (Central Daylight Time),766395.3999999762,A,salt,O,t,193,1,1316.5,765078.8999999762,7023,WL,A,8.0
7,18.925999879837036,immed,41074.000120162964,Wed Oct 02 2024 12:10:26 GMT-0500 (Central Daylight Time),767477.8999999762,A,saltenter,O,enter,1052,1,2399.0,765078.8999999762,7023,WL,A,8.0
7,19.609999895095825,immed,40390.000104904175,Wed Oct 02 2024 12:10:26 GMT-0500 (Central Daylight Time),768161.7000000477,A,f,O,f,674,1,683.6000000238419,767478.1000000238,7023,WL,A,9.0
7,19.72599983215332,immed,40274.00016784668,Wed Oct 02 2024 12:10:26 GMT-0500 (Central Daylight Time),768278.1000000238,A,fi,O,i,93,1,800.0,767478.1000000238,7023,WL,A,9.0
7,19.942999839782715,immed,40057.000160217285,Wed Oct 02 2024 12:10:26 GMT-0500 (Central Daylight Time),768495.0,A,fin,O,n,184,1,1016.8999999761581,767478.1000000238,7023,WL,A,9.0
7,20.025999784469604,immed,39974.000215530396,Wed Oct 02 2024 12:10:26 GMT-0500 (Central Daylight Time),768577.7000000477,A,fing,O,g,48,1,1099.6000000238419,767478.1000000238,7023,WL,A,9.0
7,20.176999807357788,immed,39823.00019264221,Wed Oct 02 2024 12:10:26 GMT-0500 (Central Daylight Time),768728.1000000238,A,finge,O,e,137,1,1250.0,767478.1000000238,7023,WL,A,9.0
7,20.259999990463257,immed,39740.00000953674,Wed Oct 02 2024 12:10:26 GMT-0500 (Central Daylight Time),768811.3999999762,A,finger,O,r,46,1,1333.2999999523163,767478.1000000238,7023,WL,A,9.0
7,20.375999927520752,immed,39624.00007247925,Wed Oct 02 2024 12:10:26 GMT-0500 (Central Daylight Time),768927.3999999762,A,fingerenter,O,enter,89,1,1449.2999999523163,767478.1000000238,7023,WL,A,9.0
7,25.991999864578247,immed,34008.00013542175,Wed Oct 02 2024 12:10:26 GMT-0500 (Central Daylight Time),774542.8999999762,A,c,O,c,5608,1,5615.299999952316,768927.6000000238,7023,WL,A,10.0
7,26.14199995994568,immed,33858.00004005432,Wed Oct 02 2024 12:10:26 GMT-0500 (Central Daylight Time),774692.8999999762,A,ch,O,h,119,1,5765.299999952316,768927.6000000238,7023,WL,A,10.0
7,26.357999801635742,immed,33642.00019836426,Wed Oct 02 2024 12:10:26 GMT-0500 (Central Daylight Time),774909.2999999523,A,chi,O,i,179,1,5981.699999928474,768927.6000000238,7023,WL,A,10.0
7,26.557999849319458,immed,33442.00015068054,Wed Oct 02 2024 12:10:26 GMT-0500 (Central Daylight Time),775109.2999999523,A,chim,O,m,169,1,6181.699999928474,768927.6000000238,7023,WL,A,10.0
7,26.774999856948853,immed,33225.00014305115,Wed Oct 02 2024 12:10:26 GMT-0500 (Central Daylight Time),775326.0,A,chimn,O,n,187,1,6398.399999976158,768927.6000000238,7023,WL,A,10.0
7,26.941999912261963,immed,33058.00008773804,Wed Oct 02 2024 12:10:26 GMT-0500 (Central Daylight Time),775492.7000000477,A,chimne,O,e,137,1,6565.100000023842,768927.6000000238,7023,WL,A,10.0
7,27.074999809265137,immed,32925.00019073486,Wed Oct 02 2024 12:10:26 GMT-0500 (Central Daylight Time),775626.0,A,chimney,O,y,96,1,6698.399999976158,768927.6000000238,7023,WL,A,10.0
7,27.557999849319458,immed,32442.000150680542,Wed Oct 02 2024 12:10:26 GMT-0500 (Central Daylight Time),776108.3999999762,A,chimneyenter,O,enter,452,1,7180.799999952316,768927.6000000238,7023,WL,A,10.0
7,27.807999849319458,immed,32192.000150680542,Wed Oct 02 2024 12:10:26 GMT-0500 (Central Daylight Time),776359.5,A,t,O,t,234,1,250.79999995231628,776108.7000000477,7023,WL,A,11.0
7,28.007999897003174,immed,31992.000102996826,Wed Oct 02 2024 12:10:26 GMT-0500 (Central Daylight Time),776558.8999999762,A,tr,O,r,166,1,450.1999999284744,776108.7000000477,7023,WL,A,11.0
7,28.19099998474121,immed,31809.00001525879,Wed Oct 02 2024 12:10:26 GMT-0500 (Central Daylight Time),776742.0,A,tra,O,a,160,1,633.2999999523163,776108.7000000477,7023,WL,A,11.0
7,28.307999849319458,immed,31692.000150680542,Wed Oct 02 2024 12:10:26 GMT-0500 (Central Daylight Time),776858.7000000477,A,trai,O,i,89,1,750.0,776108.7000000477,7023,WL,A,11.0
7,28.5239999294281,immed,31476.0000705719,Wed Oct 02 2024 12:10:26 GMT-0500 (Central Daylight Time),777074.8999999762,A,train,O,n,179,1,966.1999999284744,776108.7000000477,7023,WL,A,11.0
7,28.757999897003174,immed,31242.000102996826,Wed Oct 02 2024 12:10:26 GMT-0500 (Central Daylight Time),777308.8999999762,A,trainenter,O,enter,218,1,1200.1999999284744,776108.7000000477,7023,WL,A,11.0
7,32.74000000953674,immed,27259.999990463257,Wed Oct 02 2024 12:10:26 GMT-0500 (Central Daylight Time),781290.7999999523,A,r,O,r,3970,1,3981.6999999284744,777309.1000000238,7023,WL,A,12.0
7,33.02300000190735,immed,26976.99999809265,Wed Oct 02 2024 12:10:26 GMT-0500 (Central Daylight Time),781574.0,A,ra,O,a,255,1,4264.899999976158,777309.1000000238,7023,WL,A,12.0
7,33.24000000953674,immed,26759.999990463257,Wed Oct 02 2024 12:10:26 GMT-0500 (Central Daylight Time),781790.7999999523,A,rat,O,t,184,1,4481.699999928474,777309.1000000238,7023,WL,A,12.0
7,33.389999866485596,immed,26610.000133514404,Wed Oct 02 2024 12:10:26 GMT-0500 (Central Daylight Time),781940.5,A,ratt,O,t,119,1,4631.399999976158,777309.1000000238,7023,WL,A,12.0
7,33.555999994277954,immed,26444.000005722046,Wed Oct 02 2024 12:10:26 GMT-0500 (Central Daylight Time),782107.2000000477,A,rattl,O,l,139,1,4798.100000023842,777309.1000000238,7023,WL,A,12.0
