acc_sum,block,block_c,change,condition,correct,correct_response,datetime,endtime,face,project,response,response_time,row_sel,session_number,start_end,starttime,subject_id,task,task_vers,trial
0,prac,1,,1-Back,,,Fri Feb 28 2025 15:49:00 GMT-0600 (Central Standard Time),,005_o_f_d_a.png,O,space,11125,1,1,,,7072,VNB,B,0
1,prac,1,0.0,1-Back,1,m,Fri Feb 28 2025 15:49:00 GMT-0600 (Central Standard Time),152796.19999998808,020_y_f_n_a.png,O,m,1226,2,1,2125.800000011921,150670.39999997616,7072,VNB,B,1
2,prac,1,0.0,1-Back,1,m,Fri Feb 28 2025 15:49:00 GMT-0600 (Central Standard Time),154862.09999999404,007_m_m_h_a.png,O,m,1111,3,1,2026.0999999940395,152836.0,7072,VNB,B,2
3,prac,1,0.0,1-Back,1,m,Fri Feb 28 2025 15:49:00 GMT-0600 (Central Standard Time),156612.79999998212,016_y_m_d_a.png,O,m,785,4,1,1713.4000000059605,154899.39999997616,7072,VNB,B,3
4,prac,1,0.0,1-Back,1,m,Fri Feb 28 2025 15:49:00 GMT-0600 (Central Standard Time),158594.39999997616,005_o_f_n_a.png,O,m,1035,5,1,1948.5999999940395,156645.79999998212,7072,VNB,B,4
5,prac,1,1.0,1-Back,1,z,Fri Feb 28 2025 15:49:00 GMT-0600 (Central Standard Time),160676.79999998212,016_y_m_n_a.png,O,z,1123,6,1,2043.4000000059605,158633.39999997616,7072,VNB,B,5
6,prac,1,0.0,1-Back,1,m,Fri Feb 28 2025 15:49:00 GMT-0600 (Central Standard Time),162509.59999999404,004_o_m_h_a.png,O,m,902,7,1,1785.7000000178814,160723.89999997616,7072,VNB,B,6
7,prac,1,0.0,1-Back,1,m,Fri Feb 28 2025 15:49:00 GMT-0600 (Central Standard Time),164242.39999997616,011_m_f_d_a.png,O,m,784,8,1,1693.7999999821186,162548.59999999404,7072,VNB,B,7
8,prac,1,1.0,1-Back,1,z,Fri Feb 28 2025 15:49:00 GMT-0600 (Central Standard Time),166258.29999998212,020_y_f_d_a.png,O,z,1079,9,1,1979.5999999940395,164278.69999998808,7072,VNB,B,8
9,prac,1,0.0,1-Back,1,m,Fri Feb 28 2025 15:49:00 GMT-0600 (Central Standard Time),168141.0,007_m_m_n_a.png,O,m,926,10,1,1852.1000000238419,166288.89999997616,7072,VNB,B,9
10,prac,1,0.0,1-Back,1,m,Fri Feb 28 2025 15:49:00 GMT-0600 (Central Standard Time),170173.89999997616,005_o_f_h_a.png,O,m,1080,11,1,1995.699999988079,168178.19999998808,7072,VNB,B,10
11,prac,1,0.0,1-Back,1,m,Fri Feb 28 2025 15:49:00 GMT-0600 (Central Standard Time),171940.19999998808,016_y_m_d_a.png,O,m,807,12,1,1728.0,170212.19999998808,7072,VNB,B,11
0,test,1,0.0,1-Back,,,Fri Feb 28 2025 15:49:00 GMT-0600 (Central Standard Time),171940.19999998808,020_y_f_d_a.png,O,space,7541,1,1,1728.0,170212.19999998808,7072,VNB,B,0
1,test,1,0.0,1-Back,1,m,Fri Feb 28 2025 15:49:00 GMT-0600 (Central Standard Time),187117.89999997616,011_m_f_n_a.png,O,m,763,2,1,1777.7999999821186,185340.09999999404,7072,VNB,B,1
2,test,1,0.0,1-Back,1,m,Fri Feb 28 2025 15:49:00 GMT-0600 (Central Standard Time),189250.59999999404,004_o_m_h_a.png,O,m,1092,3,1,2107.300000011921,187143.29999998212,7072,VNB,B,2
3,test,1,1.0,1-Back,1,z,Fri Feb 28 2025 15:49:00 GMT-0600 (Central Standard Time),191049.89999997616,007_m_m_h_a.png,O,z,734,4,1,1766.2999999821186,189283.59999999404,7072,VNB,B,3
4,test,1,0.0,1-Back,1,m,Fri Feb 28 2025 15:49:00 GMT-0600 (Central Standard Time),192882.69999998808,005_o_f_n_a.png,O,m,791,5,1,1806.300000011921,191076.39999997616,7072,VNB,B,4
5,test,1,0.0,1-Back,1,m,Fri Feb 28 2025 15:49:00 GMT-0600 (Central Standard Time),194848.79999998212,016_y_m_d_a.png,O,m,910,6,1,1930.699999988079,192918.09999999404,7072,VNB,B,5
6,test,1,1.0,1-Back,1,z,Fri Feb 28 2025 15:49:00 GMT-0600 (Central Standard Time),196898.0,011_m_f_d_a.png,O,z,1001,7,1,2020.9000000059605,194877.09999999404,7072,VNB,B,6
7,test,1,0.0,1-Back,1,m,Fri Feb 28 2025 15:49:00 GMT-0600 (Central Standard Time),198864.29999998212,020_y_f_h_a.png,O,m,919,8,1,1939.9000000059605,196924.39999997616,7072,VNB,B,7
8,test,1,0.0,1-Back,1,m,Fri Feb 28 2025 15:49:00 GMT-0600 (Central Standard Time),200613.39999997616,004_o_m_n_a.png,O,m,705,9,1,1728.3999999761581,198885.0,7072,VNB,B,8
9,test,1,0.0,1-Back,1,m,Fri Feb 28 2025 15:49:00 GMT-0600 (Central Standard Time),202579.5,016_y_m_h_a.png,O,m,916,10,1,1941.7000000178814,200637.79999998212,7072,VNB,B,9
10,test,1,0.0,1-Back,1,m,Fri Feb 28 2025 15:49:00 GMT-0600 (Central Standard Time),204445.5,004_o_m_d_a.png,O,m,822,11,1,1842.0,202603.5,7072,VNB,B,10
11,test,1,1.0,1-Back,1,z,Fri Feb 28 2025 15:49:00 GMT-0600 (Central Standard Time),206427.5,005_o_f_d_a.png,O,z,947,12,1,1956.4000000059605,204471.09999999404,7072,VNB,B,11
12,test,1,0.0,1-Back,1,m,Fri Feb 28 2025 15:49:00 GMT-0600 (Central Standard Time),208244.19999998808,007_m_m_n_a.png,O,m,789,13,1,1812.199999988079,206432.0,7072,VNB,B,12
13,test,1,1.0,1-Back,1,z,Fri Feb 28 2025 15:49:00 GMT-0600 (Central Standard Time),210343.59999999404,020_y_f_n_a.png,O,z,1061,14,1,2071.2000000178814,208272.39999997616,7072,VNB,B,13
14,test,1,0.0,1-Back,1,m,Fri Feb 28 2025 15:49:00 GMT-0600 (Central Standard Time),212226.39999997616,011_m_f_h_a.png,O,m,843,15,1,1858.7999999821186,210367.59999999404,7072,VNB,B,14
15,test,1,0.0,1-Back,1,m,Fri Feb 28 2025 15:49:00 GMT-0600 (Central Standard Time),214125.59999999404,007_m_m_d_a.png,O,m,863,16,1,1874.0999999940395,212251.5,7072,VNB,B,15
16,test,1,0.0,1-Back,1,m,Fri Feb 28 2025 15:49:00 GMT-0600 (Central Standard Time),215925.09999999404,016_y_m_n_a.png,O,m,754,17,1,1771.5999999940395,214153.5,7072,VNB,B,16
17,test,1,0.0,1-Back,1,m,Fri Feb 28 2025 15:49:00 GMT-0600 (Central Standard Time),218507.59999999404,005_o_f_h_a.png,O,m,1540,18,1,2554.0,215953.59999999404,7072,VNB,B,17
0,test,2,0.0,1-Back,,,Fri Feb 28 2025 15:49:00 GMT-0600 (Central Standard Time),218507.59999999404,016_y_m_n_a.png,O,space,2054,1,1,2554.0,215953.59999999404,7072,VNB,B,0
1,test,2,0.0,1-Back,1,m,Fri Feb 28 2025 15:49:00 GMT-0600 (Central Standard Time),224605.5,020_y_f_h_a.png,O,m,972,2,1,1989.7000000178814,222615.79999998212,7072,VNB,B,1
2,test,2,1.0,1-Back,1,m,Fri Feb 28 2025 15:49:00 GMT-0600 (Central Standard Time),226588.39999997616,004_o_m_n_a.png,O,m,931,3,1,1958.699999988079,224629.69999998808,7072,VNB,B,2
3,test,2,0.0,1-Back,1,m,Fri Feb 28 2025 15:49:00 GMT-0600 (Central Standard Time),228870.89999997616,011_m_f_d_a.png,O,m,1228,4,1,2252.0,226618.89999997616,7072,VNB,B,3
4,test,2,0.0,1-Back,1,z,Fri Feb 28 2025 15:49:00 GMT-0600 (Central Standard Time),231037.29999998212,007_m_m_d_a.png,O,z,1130,5,1,2137.7999999821186,228899.5,7072,VNB,B,4
5,test,2,0.0,1-Back,1,m,Fri Feb 28 2025 15:49:00 GMT-0600 (Central Standard Time),232969.59999999404,016_y_m_h_a.png,O,m,885,6,1,1904.2000000178814,231065.39999997616,7072,VNB,B,5
6,test,2,1.0,1-Back,1,z,Fri Feb 28 2025 15:49:00 GMT-0600 (Central Standard Time),235002.09999999404,005_o_f_h_a.png,O,z,992,7,1,2009.4000000059605,232992.69999998808,7072,VNB,B,6
7,test,2,0.0,1-Back,1,m,Fri Feb 28 2025 15:49:00 GMT-0600 (Central Standard Time),237035.19999998808,011_m_f_n_a.png,O,m,967,8,1,2003.699999988079,235031.5,7072,VNB,B,7
8,test,2,0.0,1-Back,1,m,Fri Feb 28 2025 15:49:00 GMT-0600 (Central Standard Time),239117.5,020_y_f_d_a.png,O,m,1038,9,1,2055.7000000178814,237061.79999998212,7072,VNB,B,8
9,test,2,0.0,1-Back,1,m,Fri Feb 28 2025 15:49:00 GMT-0600 (Central Standard Time),241033.5,007_m_m_n_a.png,O,m,876,10,1,1888.1000000238419,239145.39999997616,7072,VNB,B,9
10,test,2,1.0,1-Back,1,m,Fri Feb 28 2025 15:49:00 GMT-0600 (Central Standard Time),243116.19999998808,011_m_f_h_a.png,O,m,1023,11,1,2053.0999999940395,241063.09999999404,7072,VNB,B,10
11,test,2,0.0,1-Back,1,z,Fri Feb 28 2025 15:49:00 GMT-0600 (Central Standard Time),245049.0,004_o_m_h_a.png,O,z,885,12,1,1907.5,243141.5,7072,VNB,B,11
12,test,2,0.0,1-Back,1,m,Fri Feb 28 2025 15:49:00 GMT-0600 (Central Standard Time),246831.69999998808,016_y_m_d_a.png,O,m,744,13,1,1760.0999999940395,245071.59999999404,7072,VNB,B,12
13,test,2,0.0,1-Back,1,m,Fri Feb 28 2025 15:49:00 GMT-0600 (Central Standard Time),249164.29999998212,005_o_f_n_a.png,O,m,1282,14,1,2309.699999988079,246854.59999999404,7072,VNB,B,13
14,test,2,0.0,1-Back,1,z,Fri Feb 28 2025 15:49:00 GMT-0600 (Central Standard Time),251163.79999998212,020_y_f_n_a.png,O,z,949,15,1,1971.0,249192.79999998212,7072,VNB,B,14
15,test,2,1.0,1-Back,1,m,Fri Feb 28 2025 15:49:00 GMT-0600 (Central Standard Time),253113.0,007_m_m_h_a.png,O,m,902,16,1,1919.7000000178814,251193.29999998212,7072,VNB,B,15
16,test,2,0.0,1-Back,1,m,Fri Feb 28 2025 15:49:00 GMT-0600 (Central Standard Time),254929.09999999404,005_o_f_d_a.png,O,m,769,17,1,1787.0,253142.09999999404,7072,VNB,B,16
17,test,2,1.0,1-Back,1,z,Fri Feb 28 2025 15:49:00 GMT-0600 (Central Standard Time),256895.09999999404,004_o_m_d_a.png,O,z,928,18,1,1937.800000011921,254957.29999998212,7072,VNB,B,17
0,test,3,1.0,1-Back,,,Fri Feb 28 2025 15:49:00 GMT-0600 (Central Standard Time),256895.09999999404,005_o_f_h_a.png,O,space,1051,1,1,1937.800000011921,254957.29999998212,7072,VNB,B,0
1,test,3,0.0,1-Back,1,m,Fri Feb 28 2025 15:49:00 GMT-0600 (Central Standard Time),261960.0,011_m_f_d_a.png,O,m,794,2,1,1802.4000000059605,260157.59999999404,7072,VNB,B,1
2,test,3,1.0,1-Back,1,m,Fri Feb 28 2025 15:49:00 GMT-0600 (Central Standard Time),264076.7999999821,007_m_m_n_a.png,O,m,1081,3,1,2094.7999999821186,261982.0,7072,VNB,B,2
3,test,3,0.0,1-Back,1,z,Fri Feb 28 2025 15:49:00 GMT-0600 (Central Standard Time),266128.0,005_o_f_n_a.png,O,z,1016,4,1,2029.4000000059605,264098.59999999404,7072,VNB,B,3
4,test,3,1.0,1-Back,1,m,Fri Feb 28 2025 15:49:00 GMT-0600 (Central Standard Time),268024.7999999821,004_o_m_d_a.png,O,m,852,5,1,1875.2999999821186,266149.5,7072,VNB,B,4
5,test,3,0.0,1-Back,1,m,Fri Feb 28 2025 15:49:00 GMT-0600 (Central Standard Time),269957.39999997616,020_y_f_h_a.png,O,m,897,6,1,1914.3999999761581,268043.0,7072,VNB,B,5
6,test,3,0.0,1-Back,1,z,Fri Feb 28 2025 15:49:00 GMT-0600 (Central Standard Time),271856.7999999821,016_y_m_h_a.png,O,z,852,7,1,1871.0,269985.7999999821,7072,VNB,B,6
7,test,3,0.0,1-Back,1,m,Fri Feb 28 2025 15:49:00 GMT-0600 (Central Standard Time),273689.5,011_m_f_n_a.png,O,m,784,8,1,1806.4000000059605,271883.09999999404,7072,VNB,B,7
8,test,3,0.0,1-Back,1,m,Fri Feb 28 2025 15:49:00 GMT-0600 (Central Standard Time),275572.09999999404,020_y_f_d_a.png,O,m,832,9,1,1858.0999999940395,273714.0,7072,VNB,B,8
9,test,3,1.0,1-Back,1,m,Fri Feb 28 2025 15:49:00 GMT-0600 (Central Standard Time),277521.5,004_o_m_n_a.png,O,m,909,10,1,1926.7000000178814,275594.7999999821,7072,VNB,B,9
10,test,3,0.0,1-Back,1,m,Fri Feb 28 2025 15:49:00 GMT-0600 (Central Standard Time),279454.39999997616,007_m_m_h_a.png,O,m,887,11,1,1908.8999999761581,277545.5,7072,VNB,B,10
11,test,3,0.0,1-Back,1,z,Fri Feb 28 2025 15:49:00 GMT-0600 (Central Standard Time),281320.5,011_m_f_h_a.png,O,z,827,12,1,1836.5,279484.0,7072,VNB,B,11
12,test,3,1.0,1-Back,1,m,Fri Feb 28 2025 15:49:00 GMT-0600 (Central Standard Time),283269.5,005_o_f_d_a.png,O,m,913,13,1,1925.0,281344.5,7072,VNB,B,12
12,test,3,0.0,1-Back,0,z,Fri Feb 28 2025 15:49:00 GMT-0600 (Central Standard Time),285602.39999997616,007_m_m_d_a.png,O,m,1291,14,1,2303.199999988079,283299.1999999881,7072,VNB,B,13
13,test,3,0.0,1-Back,1,m,Fri Feb 28 2025 15:49:00 GMT-0600 (Central Standard Time),287567.59999999404,016_y_m_n_a.png,O,m,918,15,1,1940.300000011921,285627.2999999821,7072,VNB,B,14
14,test,3,1.0,1-Back,1,m,Fri Feb 28 2025 15:49:00 GMT-0600 (Central Standard Time),289784.2999999821,004_o_m_h_a.png,O,m,1194,16,1,2213.0,287571.2999999821,7072,VNB,B,15
15,test,3,0.0,1-Back,1,m,Fri Feb 28 2025 15:49:00 GMT-0600 (Central Standard Time),291683.7999999821,016_y_m_d_a.png,O,m,849,17,1,1876.0,289807.7999999821,7072,VNB,B,16
16,test,3,1.0,1-Back,1,m,Fri Feb 28 2025 15:49:00 GMT-0600 (Central Standard Time),293483.09999999404,020_y_f_n_a.png,O,m,757,18,1,1771.5999999940395,291711.5,7072,VNB,B,17
0,test,4,1.0,1-Back,,,Fri Feb 28 2025 15:49:00 GMT-0600 (Central Standard Time),293483.09999999404,007_m_m_d_a.png,O,space,863,1,1,1771.5999999940395,291711.5,7072,VNB,B,0
1,test,4,0.0,1-Back,1,z,Fri Feb 28 2025 15:49:00 GMT-0600 (Central Standard Time),298498.09999999404,004_o_m_d_a.png,O,z,1092,2,1,2112.0999999940395,296386.0,7072,VNB,B,1
2,test,4,0.0,1-Back,1,m,Fri Feb 28 2025 15:49:00 GMT-0600 (Central Standard Time),300430.7999999821,016_y_m_h_a.png,O,m,887,3,1,1908.2999999821186,298522.5,7072,VNB,B,2
3,test,4,0.0,1-Back,1,m,Fri Feb 28 2025 15:49:00 GMT-0600 (Central Standard Time),302663.2999999821,011_m_f_n_a.png,O,m,1186,4,1,2210.9000000059605,300452.39999997616,7072,VNB,B,3
4,test,4,1.0,1-Back,1,m,Fri Feb 28 2025 15:49:00 GMT-0600 (Central Standard Time),304979.1999999881,005_o_f_h_a.png,O,m,1266,5,1,2287.5,302691.6999999881,7072,VNB,B,4
5,test,4,0.0,1-Back,1,m,Fri Feb 28 2025 15:49:00 GMT-0600 (Central Standard Time),306812.7999999821,007_m_m_n_a.png,O,m,798,6,1,1808.0,305004.7999999821,7072,VNB,B,5
6,test,4,0.0,1-Back,1,m,Fri Feb 28 2025 15:49:00 GMT-0600 (Central Standard Time),308878.0,016_y_m_d_a.png,O,m,1022,7,1,2044.2000000178814,306833.7999999821,7072,VNB,B,6
7,test,4,1.0,1-Back,1,z,Fri Feb 28 2025 15:49:00 GMT-0600 (Central Standard Time),310744.0,020_y_f_d_a.png,O,z,827,8,1,1843.1000000238419,308900.89999997616,7072,VNB,B,7
8,test,4,0.0,1-Back,1,m,Fri Feb 28 2025 15:49:00 GMT-0600 (Central Standard Time),312593.59999999404,011_m_f_h_a.png,O,m,802,9,1,1829.300000011921,310764.2999999821,7072,VNB,B,8
9,test,4,0.0,1-Back,1,z,Fri Feb 28 2025 15:49:00 GMT-0600 (Central Standard Time),314492.89999997616,004_o_m_h_a.png,O,z,856,10,1,1873.699999988079,312619.1999999881,7072,VNB,B,9
10,test,4,1.0,1-Back,1,m,Fri Feb 28 2025 15:49:00 GMT-0600 (Central Standard Time),316309.09999999404,005_o_f_n_a.png,O,m,780,11,1,1793.5999999940395,314515.5,7072,VNB,B,10
11,test,4,0.0,1-Back,1,m,Fri Feb 28 2025 15:49:00 GMT-0600 (Central Standard Time),318808.5,011_m_f_d_a.png,O,m,1460,12,1,2477.2000000178814,316331.2999999821,7072,VNB,B,11
11,test,4,0.0,1-Back,0,m,Fri Feb 28 2025 15:49:00 GMT-0600 (Central Standard Time),321757.09999999404,020_y_f_n_a.png,O,z,1905,13,1,2927.0,318830.09999999404,7072,VNB,B,12
12,test,4,0.0,1-Back,1,m,Fri Feb 28 2025 15:49:00 GMT-0600 (Central Standard Time),324306.1999999881,005_o_f_d_a.png,O,m,1500,14,1,2520.800000011921,321785.39999997616,7072,VNB,B,13
13,test,4,0.0,1-Back,1,m,Fri Feb 28 2025 15:49:00 GMT-0600 (Central Standard Time),326438.89999997616,020_y_f_h_a.png,O,m,1095,15,1,2104.5999999940395,324334.2999999821,7072,VNB,B,14
14,test,4,1.0,1-Back,1,z,Fri Feb 28 2025 15:49:00 GMT-0600 (Central Standard Time),328171.7999999821,007_m_m_h_a.png,O,z,667,16,1,1704.0,326467.7999999821,7072,VNB,B,15
15,test,4,0.0,1-Back,1,m,Fri Feb 28 2025 15:49:00 GMT-0600 (Central Standard Time),329954.59999999404,004_o_m_n_a.png,O,m,734,17,1,1757.7000000178814,328196.89999997616,7072,VNB,B,16
16,test,4,1.0,1-Back,1,z,Fri Feb 28 2025 15:49:00 GMT-0600 (Central Standard Time),332087.2999999821,016_y_m_n_a.png,O,z,1095,18,1,2110.9000000059605,329976.39999997616,7072,VNB,B,17
0,test,5,1.0,1-Back,,,Fri Feb 28 2025 15:49:00 GMT-0600 (Central Standard Time),332087.2999999821,004_o_m_n_a.png,O,space,899,1,1,2110.9000000059605,329976.39999997616,7072,VNB,B,0
1,test,5,1.0,1-Back,1,m,Fri Feb 28 2025 15:49:00 GMT-0600 (Central Standard Time),337002.2999999821,005_o_f_h_a.png,O,m,934,2,1,1956.5999999940395,335045.6999999881,7072,VNB,B,1
2,test,5,0.0,1-Back,1,m,Fri Feb 28 2025 15:49:00 GMT-0600 (Central Standard Time),338784.89999997616,016_y_m_d_a.png,O,m,735,3,1,1756.3999999761581,337028.5,7072,VNB,B,2
3,test,5,0.0,1-Back,1,z,Fri Feb 28 2025 15:49:00 GMT-0600 (Central Standard Time),340685.59999999404,004_o_m_d_a.png,O,z,867,4,1,1874.2000000178814,338811.39999997616,7072,VNB,B,3
4,test,5,0.0,1-Back,1,m,Fri Feb 28 2025 15:49:00 GMT-0600 (Central Standard Time),342549.59999999404,011_m_f_h_a.png,O,m,822,5,1,1842.7000000178814,340706.89999997616,7072,VNB,B,4
5,test,5,0.0,1-Back,1,m,Fri Feb 28 2025 15:49:00 GMT-0600 (Central Standard Time),344316.5,020_y_f_n_a.png,O,m,732,6,1,1761.800000011921,342554.6999999881,7072,VNB,B,5
6,test,5,1.0,1-Back,1,z,Fri Feb 28 2025 15:49:00 GMT-0600 (Central Standard Time),346482.39999997616,005_o_f_n_a.png,O,z,1117,7,1,2144.0999999940395,344338.2999999821,7072,VNB,B,6
7,test,5,0.0,1-Back,1,m,Fri Feb 28 2025 15:49:00 GMT-0600 (Central Standard Time),348731.89999997616,011_m_f_d_a.png,O,m,1190,8,1,2219.7999999821186,346512.09999999404,7072,VNB,B,7
8,test,5,0.0,1-Back,1,m,Fri Feb 28 2025 15:49:00 GMT-0600 (Central Standard Time),350597.7999999821,016_y_m_h_a.png,O,m,823,9,1,1843.0,348754.7999999821,7072,VNB,B,8
9,test,5,0.0,1-Back,1,m,Fri Feb 28 2025 15:49:00 GMT-0600 (Central Standard Time),352363.7999999821,020_y_f_d_a.png,O,m,716,10,1,1736.199999988079,350627.59999999404,7072,VNB,B,9
10,test,5,0.0,1-Back,1,m,Fri Feb 28 2025 15:49:00 GMT-0600 (Central Standard Time),354246.59999999404,007_m_m_n_a.png,O,m,838,11,1,1862.0,352384.59999999404,7072,VNB,B,10
11,test,5,1.0,1-Back,1,z,Fri Feb 28 2025 15:49:00 GMT-0600 (Central Standard Time),356179.1999999881,011_m_f_n_a.png,O,z,891,12,1,1907.699999988079,354271.5,7072,VNB,B,11
12,test,5,0.0,1-Back,1,m,Fri Feb 28 2025 15:49:00 GMT-0600 (Central Standard Time),357895.2999999821,004_o_m_h_a.png,O,m,678,13,1,1694.5999999940395,356200.6999999881,7072,VNB,B,12
13,test,5,0.0,1-Back,1,z,Fri Feb 28 2025 15:49:00 GMT-0600 (Central Standard Time),359677.1999999881,007_m_m_h_a.png,O,z,730,14,1,1753.5,357923.6999999881,7072,VNB,B,13
14,test,5,1.0,1-Back,1,m,Fri Feb 28 2025 15:49:00 GMT-0600 (Central Standard Time),361377.5,005_o_f_d_a.png,O,m,676,15,1,1696.4000000059605,359681.09999999404,7072,VNB,B,14
15,test,5,0.0,1-Back,1,m,Fri Feb 28 2025 15:49:00 GMT-0600 (Central Standard Time),363509.89999997616,016_y_m_n_a.png,O,m,1096,16,1,2107.0999999940395,361402.7999999821,7072,VNB,B,15
16,test,5,0.0,1-Back,1,m,Fri Feb 28 2025 15:49:00 GMT-0600 (Central Standard Time),365342.2999999821,020_y_f_h_a.png,O,m,786,17,1,1806.0999999940395,363536.1999999881,7072,VNB,B,16
17,test,5,0.0,1-Back,1,m,Fri Feb 28 2025 15:49:00 GMT-0600 (Central Standard Time),367308.89999997616,007_m_m_d_a.png,O,m,941,18,1,1959.699999988079,365349.1999999881,7072,VNB,B,17
0,prac,1,0.0,2-Back,,,Fri Feb 28 2025 15:49:00 GMT-0600 (Central Standard Time),367308.89999997616,011_m_f_n_a.png,O,space,6180,1,1,1959.699999988079,365349.1999999881,7072,VNB,B,0
0,prac,1,0.0,2-Back,,,Fri Feb 28 2025 15:49:00 GMT-0600 (Central Standard Time),367308.89999997616,005_o_f_h_a.png,O,space,6180,2,1,1959.699999988079,365349.1999999881,7072,VNB,B,0
1,prac,1,0.0,2-Back,1,m,Fri Feb 28 2025 15:49:00 GMT-0600 (Central Standard Time),467526.6999999881,004_o_m_d_a.png,O,m,1752,3,1,2637.4000000059605,464889.2999999821,7072,VNB,B,1
2,prac,1,1.0,2-Back,1,z,Fri Feb 28 2025 15:49:00 GMT-0600 (Central Standard Time),470442.39999997616,007_m_m_h_a.png,O,z,1951,4,1,2885.2999999821186,467557.09999999404,7072,VNB,B,2
3,prac,1,0.0,2-Back,1,m,Fri Feb 28 2025 15:49:00 GMT-0600 (Central Standard Time),473307.2999999821,020_y_f_n_a.png,O,m,1926,5,1,2834.0999999940395,470473.1999999881,7072,VNB,B,3
4,prac,1,1.0,2-Back,1,z,Fri Feb 28 2025 15:49:00 GMT-0600 (Central Standard Time),474940.59999999404,004_o_m_h_a.png,O,z,720,6,1,1621.5,473319.09999999404,7072,VNB,B,4
4,prac,1,1.0,2-Back,0,z,Fri Feb 28 2025 15:49:00 GMT-0600 (Central Standard Time),477656.39999997616,016_y_m_n_a.png,O,m,1735,7,1,2679.199999988079,474977.1999999881,7072,VNB,B,5
4,prac,1,0.0,2-Back,0,m,Fri Feb 28 2025 15:49:00 GMT-0600 (Central Standard Time),480622.0,011_m_f_d_a.png,O,None,2014,8,1,2931.7000000178814,477690.2999999821,7072,VNB,B,6
4,prac,1,0.0,2-Back,0,m,Fri Feb 28 2025 15:49:00 GMT-0600 (Central Standard Time),482904.5,005_o_f_d_a.png,O,z,1308,9,1,2246.5,480658.0,7072,VNB,B,7
4,prac,1,0.0,2-Back,0,m,Fri Feb 28 2025 15:49:00 GMT-0600 (Central Standard Time),484853.7999999821,007_m_m_h_a.png,O,z,984,10,1,1907.4000000059605,482946.39999997616,7072,VNB,B,8
4,prac,1,1.0,2-Back,0,z,Fri Feb 28 2025 15:49:00 GMT-0600 (Central Standard Time),487203.0,020_y_f_d_a.png,O,m,1403,11,1,2313.100000023842,484889.89999997616,7072,VNB,B,9
5,prac,1,0.0,2-Back,1,m,Fri Feb 28 2025 15:49:00 GMT-0600 (Central Standard Time),489369.0,004_o_m_n_a.png,O,m,1231,12,1,2136.0,487233.0,7072,VNB,B,10
0,prac,2,0.0,2-Back,,,Fri Feb 28 2025 15:49:00 GMT-0600 (Central Standard Time),489369.0,011_m_f_n_a.png,O,a,6096,1,1,2136.0,487233.0,7072,VNB,B,0
0,prac,2,0.0,2-Back,,,Fri Feb 28 2025 15:49:00 GMT-0600 (Central Standard Time),489369.0,005_o_f_h_a.png,O,a,6096,2,1,2136.0,487233.0,7072,VNB,B,0
0,prac,2,0.0,2-Back,0,m,Fri Feb 28 2025 15:49:00 GMT-0600 (Central Standard Time),503531.09999999404,004_o_m_d_a.png,O,z,1757,3,1,2648.800000011921,500882.2999999821,7072,VNB,B,1
1,prac,2,1.0,2-Back,1,z,Fri Feb 28 2025 15:49:00 GMT-0600 (Central Standard Time),505863.59999999404,007_m_m_h_a.png,O,z,1378,4,1,2304.0,503559.59999999404,7072,VNB,B,2
2,prac,2,0.0,2-Back,1,m,Fri Feb 28 2025 15:49:00 GMT-0600 (Central Standard Time),507963.0,020_y_f_n_a.png,O,m,1172,5,1,2070.7000000178814,505892.2999999821,7072,VNB,B,3
3,prac,2,1.0,2-Back,1,z,Fri Feb 28 2025 15:49:00 GMT-0600 (Central Standard Time),509945.7999999821,004_o_m_h_a.png,O,z,1059,6,1,1953.5,507992.2999999821,7072,VNB,B,4
3,prac,2,1.0,2-Back,0,z,Fri Feb 28 2025 15:49:00 GMT-0600 (Central Standard Time),512061.89999997616,016_y_m_n_a.png,O,m,1160,7,1,2085.7999999821186,509976.09999999404,7072,VNB,B,5
3,prac,2,0.0,2-Back,0,m,Fri Feb 28 2025 15:49:00 GMT-0600 (Central Standard Time),514044.2999999821,011_m_f_d_a.png,O,z,1036,8,1,1944.5999999940395,512099.6999999881,7072,VNB,B,6
4,prac,2,0.0,2-Back,1,m,Fri Feb 28 2025 15:49:00 GMT-0600 (Central Standard Time),516327.1999999881,005_o_f_d_a.png,O,m,1341,9,1,2254.699999988079,514072.5,7072,VNB,B,7
4,prac,2,0.0,2-Back,0,m,Fri Feb 28 2025 15:49:00 GMT-0600 (Central Standard Time),518109.6999999881,007_m_m_h_a.png,O,z,842,10,1,1756.5,516353.1999999881,7072,VNB,B,8
5,prac,2,1.0,2-Back,1,z,Fri Feb 28 2025 15:49:00 GMT-0600 (Central Standard Time),520159.09999999404,020_y_f_d_a.png,O,z,1114,11,1,2015.0999999940395,518144.0,7072,VNB,B,9
5,prac,2,0.0,2-Back,0,m,Fri Feb 28 2025 15:49:00 GMT-0600 (Central Standard Time),522208.2999999821,004_o_m_n_a.png,O,z,1126,12,1,2015.4000000059605,520192.89999997616,7072,VNB,B,10
0,test,1,0.0,2-Back,,,Fri Feb 28 2025 15:49:00 GMT-0600 (Central Standard Time),522208.2999999821,016_y_m_h_a.png,O,space,8011,1,1,2015.4000000059605,520192.89999997616,7072,VNB,B,0
0,test,1,0.0,2-Back,,,Fri Feb 28 2025 15:49:00 GMT-0600 (Central Standard Time),522208.2999999821,005_o_f_n_a.png,O,space,8011,2,1,2015.4000000059605,520192.89999997616,7072,VNB,B,0
1,test,1,0.0,2-Back,1,z,Fri Feb 28 2025 15:49:00 GMT-0600 (Central Standard Time),543670.7999999821,004_o_m_h_a.png,O,z,999,3,1,2014.7999999821186,541656.0,7072,VNB,B,1
1,test,1,0.0,2-Back,0,m,Fri Feb 28 2025 15:49:00 GMT-0600 (Central Standard Time),546733.8999999762,011_m_f_d_a.png,O,None,2014,4,1,3032.0999999940395,543701.7999999821,7072,VNB,B,2
2,test,1,1.0,2-Back,1,m,Fri Feb 28 2025 15:49:00 GMT-0600 (Central Standard Time),549332.6999999881,016_y_m_n_a.png,O,m,1556,5,1,2571.199999988079,546761.5,7072,VNB,B,3
3,test,1,0.0,2-Back,1,z,Fri Feb 28 2025 15:49:00 GMT-0600 (Central Standard Time),551732.0,020_y_f_d_a.png,O,z,1341,6,1,2365.800000011921,549366.1999999881,7072,VNB,B,4
3,test,1,0.0,2-Back,0,m,Fri Feb 28 2025 15:49:00 GMT-0600 (Central Standard Time),553797.7999999821,007_m_m_h_a.png,O,z,1006,7,1,2037.4000000059605,551760.3999999762,7072,VNB,B,5
4,test,1,1.0,2-Back,1,m,Fri Feb 28 2025 15:49:00 GMT-0600 (Central Standard Time),556197.8999999762,020_y_f_n_a.png,O,m,1348,8,1,2363.199999988079,553834.6999999881,7072,VNB,B,6
5,test,1,0.0,2-Back,1,z,Fri Feb 28 2025 15:49:00 GMT-0600 (Central Standard Time),557979.7999999821,005_o_f_h_a.png,O,z,733,9,1,1757.9000000059605,556221.8999999762,7072,VNB,B,7
5,test,1,0.0,2-Back,0,m,Fri Feb 28 2025 15:49:00 GMT-0600 (Central Standard Time),560895.099999994,004_o_m_d_a.png,O,z,1878,10,1,2887.9000000059605,558007.1999999881,7072,VNB,B,8
6,test,1,1.0,2-Back,1,m,Fri Feb 28 2025 15:49:00 GMT-0600 (Central Standard Time),563760.599999994,007_m_m_d_a.png,O,m,1820,11,1,2839.5999999940395,560921.0,7072,VNB,B,9
7,test,1,0.0,2-Back,1,m,Fri Feb 28 2025 15:49:00 GMT-0600 (Central Standard Time),566310.099999994,011_m_f_n_a.png,O,m,1530,12,1,2541.0,563769.099999994,7072,VNB,B,10
8,test,1,0.0,2-Back,1,m,Fri Feb 28 2025 15:49:00 GMT-0600 (Central Standard Time),569009.7999999821,020_y_f_h_a.png,O,m,1660,13,1,2676.4000000059605,566333.3999999762,7072,VNB,B,11
9,test,1,0.0,2-Back,1,z,Fri Feb 28 2025 15:49:00 GMT-0600 (Central Standard Time),571225.599999994,007_m_m_n_a.png,O,z,1168,14,1,2193.4000000059605,569032.1999999881,7072,VNB,B,12
9,test,1,0.0,2-Back,0,m,Fri Feb 28 2025 15:49:00 GMT-0600 (Central Standard Time),574024.599999994,016_y_m_d_a.png,O,z,1744,15,1,2765.0,571259.599999994,7072,VNB,B,13
10,test,1,1.0,2-Back,1,m,Fri Feb 28 2025 15:49:00 GMT-0600 (Central Standard Time),576257.3999999762,011_m_f_h_a.png,O,m,1194,16,1,2204.399999976158,574053.0,7072,VNB,B,14
11,test,1,0.0,2-Back,1,z,Fri Feb 28 2025 15:49:00 GMT-0600 (Central Standard Time),578306.2999999821,005_o_f_d_a.png,O,z,1012,17,1,2019.699999988079,576286.599999994,7072,VNB,B,15
11,test,1,0.0,2-Back,0,m,Fri Feb 28 2025 15:49:00 GMT-0600 (Central Standard Time),580122.599999994,004_o_m_n_a.png,O,z,767,18,1,1791.4000000059605,578331.1999999881,7072,VNB,B,16
0,test,2,0.0,2-Back,,,Fri Feb 28 2025 15:49:00 GMT-0600 (Central Standard Time),580122.599999994,007_m_m_h_a.png,O,space,3072,1,1,1791.4000000059605,578331.1999999881,7072,VNB,B,0
0,test,2,0.0,2-Back,,,Fri Feb 28 2025 15:49:00 GMT-0600 (Central Standard Time),580122.599999994,020_y_f_n_a.png,O,space,3072,2,1,1791.4000000059605,578331.1999999881,7072,VNB,B,0
1,test,2,1.0,2-Back,1,z,Fri Feb 28 2025 15:49:00 GMT-0600 (Central Standard Time),590602.5,005_o_f_h_a.png,O,z,1026,3,1,2046.300000011921,588556.1999999881,7072,VNB,B,1
2,test,2,0.0,2-Back,1,m,Fri Feb 28 2025 15:49:00 GMT-0600 (Central Standard Time),592601.7999999821,004_o_m_d_a.png,O,m,952,4,1,1972.0999999940395,590629.6999999881,7072,VNB,B,2
3,test,2,0.0,2-Back,1,m,Fri Feb 28 2025 15:49:00 GMT-0600 (Central Standard Time),594967.7999999821,011_m_f_d_a.png,O,m,1320,5,1,2336.9000000059605,592630.8999999762,7072,VNB,B,3
4,test,2,0.0,2-Back,1,m,Fri Feb 28 2025 15:49:00 GMT-0600 (Central Standard Time),597183.6999999881,016_y_m_h_a.png,O,m,1171,6,1,2192.0999999940395,594991.599999994,7072,VNB,B,4
4,test,2,0.0,2-Back,0,m,Fri Feb 28 2025 15:49:00 GMT-0600 (Central Standard Time),599466.1999999881,005_o_f_n_a.png,O,z,1242,7,1,2263.300000011921,597202.8999999762,7072,VNB,B,5
5,test,2,1.0,2-Back,1,z,Fri Feb 28 2025 15:49:00 GMT-0600 (Central Standard Time),601465.5,004_o_m_h_a.png,O,z,960,8,1,1969.0,599496.5,7072,VNB,B,6
5,test,2,0.0,2-Back,0,m,Fri Feb 28 2025 15:49:00 GMT-0600 (Central Standard Time),603597.8999999762,020_y_f_d_a.png,O,z,1097,9,1,2104.5,601493.3999999762,7072,VNB,B,7
6,test,2,0.0,2-Back,1,m,Fri Feb 28 2025 15:49:00 GMT-0600 (Central Standard Time),605847.3999999762,016_y_m_d_a.png,O,m,1212,10,1,2224.0999999940395,603623.2999999821,7072,VNB,B,8
7,test,2,0.0,2-Back,1,m,Fri Feb 28 2025 15:49:00 GMT-0600 (Central Standard Time),608196.6999999881,007_m_m_n_a.png,O,m,1307,11,1,2323.699999988079,605873.0,7072,VNB,B,9
7,test,2,0.0,2-Back,0,m,Fri Feb 28 2025 15:49:00 GMT-0600 (Central Standard Time),609929.3999999762,011_m_f_h_a.png,O,z,686,12,1,1704.2999999821186,608225.099999994,7072,VNB,B,10
7,test,2,1.0,2-Back,0,z,Fri Feb 28 2025 15:49:00 GMT-0600 (Central Standard Time),612977.8999999762,004_o_m_n_a.png,O,None,2014,13,1,3025.399999976158,609952.5,7072,VNB,B,11
8,test,2,0.0,2-Back,1,m,Fri Feb 28 2025 15:49:00 GMT-0600 (Central Standard Time),614927.8999999762,005_o_f_d_a.png,O,m,904,14,1,1934.5,612993.3999999762,7072,VNB,B,12
8,test,2,0.0,2-Back,0,m,Fri Feb 28 2025 15:49:00 GMT-0600 (Central Standard Time),617143.8999999762,020_y_f_h_a.png,O,z,1153,15,1,2176.399999976158,614967.5,7072,VNB,B,13
9,test,2,0.0,2-Back,1,z,Fri Feb 28 2025 15:49:00 GMT-0600 (Central Standard Time),619626.099999994,007_m_m_d_a.png,O,z,1435,16,1,2453.5999999940395,617172.5,7072,VNB,B,14
10,test,2,0.0,2-Back,1,m,Fri Feb 28 2025 15:49:00 GMT-0600 (Central Standard Time),621492.099999994,016_y_m_n_a.png,O,m,807,17,1,1825.5,619666.599999994,7072,VNB,B,15
10,test,2,1.0,2-Back,0,m,Fri Feb 28 2025 15:49:00 GMT-0600 (Central Standard Time),624058.1999999881,011_m_f_n_a.png,O,z,1518,18,1,2538.199999988079,621520.0,7072,VNB,B,16
0,test,3,1.0,2-Back,,,Fri Feb 28 2025 15:49:00 GMT-0600 (Central Standard Time),624058.1999999881,004_o_m_n_a.png,O,space,4457,1,1,2538.199999988079,621520.0,7072,VNB,B,0
0,test,3,1.0,2-Back,,,Fri Feb 28 2025 15:49:00 GMT-0600 (Central Standard Time),624058.1999999881,005_o_f_d_a.png,O,space,4457,2,1,2538.199999988079,621520.0,7072,VNB,B,0
1,test,3,0.0,2-Back,1,m,Fri Feb 28 2025 15:49:00 GMT-0600 (Central Standard Time),636137.8999999762,020_y_f_h_a.png,O,m,1227,3,1,2242.899999976158,633895.0,7072,VNB,B,1
2,test,3,0.0,2-Back,1,z,Fri Feb 28 2025 15:49:00 GMT-0600 (Central Standard Time),638486.7999999821,011_m_f_d_a.png,O,z,1305,4,1,2324.5,636162.2999999821,7072,VNB,B,2
3,test,3,1.0,2-Back,1,m,Fri Feb 28 2025 15:49:00 GMT-0600 (Central Standard Time),641485.599999994,016_y_m_n_a.png,O,m,1956,5,1,2971.5999999940395,638514.0,7072,VNB,B,3
4,test,3,0.0,2-Back,1,m,Fri Feb 28 2025 15:49:00 GMT-0600 (Central Standard Time),643818.3999999762,004_o_m_h_a.png,O,m,1284,6,1,2307.899999976158,641510.5,7072,VNB,B,4
5,test,3,0.0,2-Back,1,z,Fri Feb 28 2025 15:49:00 GMT-0600 (Central Standard Time),646717.2999999821,020_y_f_n_a.png,O,z,1840,7,1,2867.699999988079,643849.599999994,7072,VNB,B,5
6,test,3,1.0,2-Back,1,m,Fri Feb 28 2025 15:49:00 GMT-0600 (Central Standard Time),649415.6999999881,007_m_m_d_a.png,O,m,1660,8,1,2670.4000000059605,646745.2999999821,7072,VNB,B,6
7,test,3,0.0,2-Back,1,m,Fri Feb 28 2025 15:49:00 GMT-0600 (Central Standard Time),652382.0,016_y_m_d_a.png,O,m,1947,9,1,2957.9000000059605,649424.099999994,7072,VNB,B,7
7,test,3,0.0,2-Back,0,m,Fri Feb 28 2025 15:49:00 GMT-0600 (Central Standard Time),654664.7999999821,005_o_f_h_a.png,O,z,1244,10,1,2257.5,652407.2999999821,7072,VNB,B,8
7,test,3,1.0,2-Back,0,m,Fri Feb 28 2025 15:49:00 GMT-0600 (Central Standard Time),657430.6999999881,011_m_f_n_a.png,O,z,1722,11,1,2741.5,654689.1999999881,7072,VNB,B,9
8,test,3,1.0,2-Back,1,z,Fri Feb 28 2025 15:49:00 GMT-0600 (Central Standard Time),659163.2999999821,007_m_m_h_a.png,O,z,675,12,1,1697.5,657465.7999999821,7072,VNB,B,10
9,test,3,0.0,2-Back,1,m,Fri Feb 28 2025 15:49:00 GMT-0600 (Central Standard Time),661712.5,020_y_f_d_a.png,O,m,1511,13,1,2528.9000000059605,659183.599999994,7072,VNB,B,11
10,test,3,0.0,2-Back,1,m,Fri Feb 28 2025 15:49:00 GMT-0600 (Central Standard Time),663778.5,005_o_f_n_a.png,O,m,1009,14,1,2030.1000000238419,661748.3999999762,7072,VNB,B,12
11,test,3,0.0,2-Back,1,z,Fri Feb 28 2025 15:49:00 GMT-0600 (Central Standard Time),665811.099999994,004_o_m_d_a.png,O,z,992,15,1,2004.2000000178814,663806.8999999762,7072,VNB,B,13
12,test,3,1.0,2-Back,1,m,Fri Feb 28 2025 15:49:00 GMT-0600 (Central Standard Time),668027.5,011_m_f_h_a.png,O,m,1167,16,1,2193.800000011921,665833.6999999881,7072,VNB,B,14
13,test,3,0.0,2-Back,1,m,Fri Feb 28 2025 15:49:00 GMT-0600 (Central Standard Time),670693.0,007_m_m_n_a.png,O,m,1623,17,1,2639.9000000059605,668053.099999994,7072,VNB,B,15
14,test,3,0.0,2-Back,1,z,Fri Feb 28 2025 15:49:00 GMT-0600 (Central Standard Time),672708.8999999762,016_y_m_h_a.png,O,z,966,18,1,1991.5999999940395,670717.2999999821,7072,VNB,B,16
0,test,4,0.0,2-Back,,,Fri Feb 28 2025 15:49:00 GMT-0600 (Central Standard Time),672708.8999999762,011_m_f_n_a.png,O,space,1438,1,1,1991.5999999940395,670717.2999999821,7072,VNB,B,0
0,test,4,0.0,2-Back,,,Fri Feb 28 2025 15:49:00 GMT-0600 (Central Standard Time),672708.8999999762,004_o_m_n_a.png,O,space,1438,2,1,1991.5999999940395,670717.2999999821,7072,VNB,B,0
0,test,4,1.0,2-Back,0,m,Fri Feb 28 2025 15:49:00 GMT-0600 (Central Standard Time),681576.1999999881,016_y_m_h_a.png,O,z,1017,3,1,2036.5,679539.6999999881,7072,VNB,B,1
1,test,4,1.0,2-Back,1,m,Fri Feb 28 2025 15:49:00 GMT-0600 (Central Standard Time),683955.2999999821,005_o_f_d_a.png,O,m,1334,4,1,2356.0,681599.2999999821,7072,VNB,B,2
2,test,4,0.0,2-Back,1,z,Fri Feb 28 2025 15:49:00 GMT-0600 (Central Standard Time),686521.0,004_o_m_h_a.png,O,z,1527,5,1,2535.300000011921,683985.6999999881,7072,VNB,B,3
2,test,4,0.0,2-Back,0,m,Fri Feb 28 2025 15:49:00 GMT-0600 (Central Standard Time),688687.0,007_m_m_n_a.png,O,z,1129,6,1,2137.5,686549.5,7072,VNB,B,4
3,test,4,0.0,2-Back,1,m,Fri Feb 28 2025 15:49:00 GMT-0600 (Central Standard Time),691236.1999999881,011_m_f_d_a.png,O,m,1500,7,1,2526.199999988079,688710.0,7072,VNB,B,5
4,test,4,0.0,2-Back,1,z,Fri Feb 28 2025 15:49:00 GMT-0600 (Central Standard Time),693285.3999999762,020_y_f_n_a.png,O,z,1006,8,1,2024.7999999821186,691260.599999994,7072,VNB,B,6
5,test,4,1.0,2-Back,1,m,Fri Feb 28 2025 15:49:00 GMT-0600 (Central Standard Time),695684.7999999821,005_o_f_h_a.png,O,m,1357,9,1,2371.0999999940395,693313.6999999881,7072,VNB,B,7
6,test,4,0.0,2-Back,1,m,Fri Feb 28 2025 15:49:00 GMT-0600 (Central Standard Time),697767.599999994,007_m_m_h_a.png,O,m,1046,10,1,2055.0,695712.599999994,7072,VNB,B,8
7,test,4,0.0,2-Back,1,m,Fri Feb 28 2025 15:49:00 GMT-0600 (Central Standard Time),700166.3999999762,020_y_f_d_a.png,O,m,1363,11,1,2371.2999999821186,697795.099999994,7072,VNB,B,9
8,test,4,0.0,2-Back,1,m,Fri Feb 28 2025 15:49:00 GMT-0600 (Central Standard Time),702449.1999999881,016_y_m_n_a.png,O,m,1232,12,1,2259.5,700189.6999999881,7072,VNB,B,10
9,test,4,0.0,2-Back,1,z,Fri Feb 28 2025 15:49:00 GMT-0600 (Central Standard Time),705048.3999999762,004_o_m_d_a.png,O,z,1561,13,1,2573.5999999940395,702474.7999999821,7072,VNB,B,11
10,test,4,1.0,2-Back,1,m,Fri Feb 28 2025 15:49:00 GMT-0600 (Central Standard Time),707064.3999999762,011_m_f_h_a.png,O,m,961,14,1,1986.5999999940395,705077.7999999821,7072,VNB,B,12
10,test,4,1.0,2-Back,0,m,Fri Feb 28 2025 15:49:00 GMT-0600 (Central Standard Time),710130.2999999821,020_y_f_h_a.png,O,None,2015,15,1,3030.9000000059605,707099.3999999762,7072,VNB,B,13
11,test,4,0.0,2-Back,1,m,Fri Feb 28 2025 15:49:00 GMT-0600 (Central Standard Time),712396.0,005_o_f_n_a.png,O,m,1201,16,1,2234.9000000059605,710161.099999994,7072,VNB,B,14
12,test,4,0.0,2-Back,1,m,Fri Feb 28 2025 15:49:00 GMT-0600 (Central Standard Time),714845.2999999821,016_y_m_d_a.png,O,m,1407,17,1,2422.0999999940395,712423.1999999881,7072,VNB,B,15
12,test,4,1.0,2-Back,0,m,Fri Feb 28 2025 15:49:00 GMT-0600 (Central Standard Time),716911.2999999821,007_m_m_d_a.png,O,z,1017,18,1,2044.699999988079,714866.599999994,7072,VNB,B,16
0,test,5,1.0,2-Back,,,Fri Feb 28 2025 15:49:00 GMT-0600 (Central Standard Time),716911.2999999821,020_y_f_d_a.png,O,space,2074,1,1,2044.699999988079,714866.599999994,7072,VNB,B,0
0,test,5,1.0,2-Back,,,Fri Feb 28 2025 15:49:00 GMT-0600 (Central Standard Time),716911.2999999821,005_o_f_h_a.png,O,space,2074,2,1,2044.699999988079,714866.599999994,7072,VNB,B,0
1,test,5,1.0,2-Back,1,z,Fri Feb 28 2025 15:49:00 GMT-0600 (Central Standard Time),726525.0,004_o_m_d_a.png,O,z,1149,3,1,2174.7000000178814,724350.2999999821,7072,VNB,B,1
2,test,5,1.0,2-Back,1,m,Fri Feb 28 2025 15:49:00 GMT-0600 (Central Standard Time),728957.1999999881,011_m_f_n_a.png,O,m,1382,4,1,2404.699999988079,726552.5,7072,VNB,B,2
3,test,5,0.0,2-Back,1,m,Fri Feb 28 2025 15:49:00 GMT-0600 (Central Standard Time),731388.7999999821,007_m_m_h_a.png,O,m,1396,5,1,2403.2999999821186,728985.5,7072,VNB,B,3
3,test,5,0.0,2-Back,0,z,Fri Feb 28 2025 15:49:00 GMT-0600 (Central Standard Time),733589.6999999881,020_y_f_n_a.png,O,m,1181,6,1,2191.0999999940395,731398.599999994,7072,VNB,B,4
4,test,5,0.0,2-Back,1,m,Fri Feb 28 2025 15:49:00 GMT-0600 (Central Standard Time),736554.599999994,005_o_f_d_a.png,O,m,1918,7,1,2938.0999999940395,733616.5,7072,VNB,B,5
4,test,5,0.0,2-Back,0,m,Fri Feb 28 2025 15:49:00 GMT-0600 (Central Standard Time),738770.7999999821,004_o_m_h_a.png,O,z,1168,8,1,2192.0999999940395,736578.6999999881,7072,VNB,B,6
4,test,5,1.0,2-Back,0,z,Fri Feb 28 2025 15:49:00 GMT-0600 (Central Standard Time),741169.7999999821,011_m_f_d_a.png,O,m,1360,9,1,2375.0,738794.7999999821,7072,VNB,B,7
5,test,5,0.0,2-Back,1,m,Fri Feb 28 2025 15:49:00 GMT-0600 (Central Standard Time),743636.0,016_y_m_n_a.png,O,m,1418,10,1,2442.0,741194.0,7072,VNB,B,8
5,test,5,0.0,2-Back,0,m,Fri Feb 28 2025 15:49:00 GMT-0600 (Central Standard Time),745568.3999999762,007_m_m_n_a.png,O,z,895,11,1,1904.5,743663.8999999762,7072,VNB,B,9
5,test,5,0.0,2-Back,0,m,Fri Feb 28 2025 15:49:00 GMT-0600 (Central Standard Time),747433.7999999821,020_y_f_h_a.png,O,z,816,12,1,1838.699999988079,745595.099999994,7072,VNB,B,10
6,test,5,0.0,2-Back,1,m,Fri Feb 28 2025 15:49:00 GMT-0600 (Central Standard Time),749517.5,016_y_m_d_a.png,O,m,1065,13,1,2077.4000000059605,747440.099999994,7072,VNB,B,11
7,test,5,1.0,2-Back,1,z,Fri Feb 28 2025 15:49:00 GMT-0600 (Central Standard Time),751166.1999999881,011_m_f_h_a.png,O,z,597,14,1,1616.199999988079,749550.0,7072,VNB,B,12
8,test,5,0.0,2-Back,1,m,Fri Feb 28 2025 15:49:00 GMT-0600 (Central Standard Time),753282.599999994,004_o_m_n_a.png,O,m,1059,15,1,2080.0,751202.599999994,7072,VNB,B,13
9,test,5,0.0,2-Back,1,m,Fri Feb 28 2025 15:49:00 GMT-0600 (Central Standard Time),756298.099999994,007_m_m_d_a.png,O,m,1972,16,1,2985.0999999940395,753313.0,7072,VNB,B,14
10,test,5,0.0,2-Back,1,z,Fri Feb 28 2025 15:49:00 GMT-0600 (Central Standard Time),758414.2999999821,005_o_f_n_a.png,O,z,1055,17,1,2081.7999999821186,756332.5,7072,VNB,B,15
11,test,5,1.0,2-Back,1,m,Fri Feb 28 2025 15:49:00 GMT-0600 (Central Standard Time),760397.0,016_y_m_h_a.png,O,m,940,18,1,1953.7000000178814,758443.2999999821,7072,VNB,B,16
