Number,acc_sum,block,block_c,block_cond,con_img,correct,correct_response,datetime,endtime,jitter,project,response,response_time,row_sel,session_number,start_end,starttime,subject_id,task,task_vers,trial
4,0,prac,1,A,circle.png,0,z,Wed Sep 25 2024 08:11:32 GMT-0500 (Central Daylight Time),131389.30000000075,1400,I,None,1516,4,1,3692.400000002235,127696.89999999851,8004,NTS,C,1
2,1,prac,1,A,circle.png,1,z,Wed Sep 25 2024 08:11:32 GMT-0500 (Central Daylight Time),134805.19999999925,2000,I,z,627,2,1,3409.699999999255,131395.5,8004,NTS,C,2
3,2,prac,1,A,circle.png,1,z,Wed Sep 25 2024 08:11:32 GMT-0500 (Central Daylight Time),137654.09999999776,1200,I,z,852,3,1,2843.199999999255,134810.8999999985,8004,NTS,C,3
1,3,prac,1,A,circle.png,1,z,Wed Sep 25 2024 08:11:32 GMT-0500 (Central Daylight Time),140486.5,1000,I,z,1035,1,1,2826.5,137660.0,8004,NTS,C,4
8,4,prac,1,A,circle.png,1,m,Wed Sep 25 2024 08:11:32 GMT-0500 (Central Daylight Time),143885.69999999925,1600,I,m,1011,7,1,3393.199999999255,140492.5,8004,NTS,C,5
2,5,prac,1,A,circle.png,1,z,Wed Sep 25 2024 08:11:32 GMT-0500 (Central Daylight Time),147384.19999999925,2000,I,z,708,2,1,3492.699999999255,143891.5,8004,NTS,C,6
7,6,prac,1,A,circle.png,1,m,Wed Sep 25 2024 08:11:32 GMT-0500 (Central Daylight Time),151035.59999999776,1700,I,m,1173,6,1,3645.89999999851,147389.69999999925,8004,NTS,C,7
6,7,prac,1,A,circle.png,1,m,Wed Sep 25 2024 08:11:32 GMT-0500 (Central Daylight Time),154648.69999999925,1900,I,m,932,5,1,3607.300000000745,151041.3999999985,8004,NTS,C,8
8,8,prac,1,A,circle.png,1,m,Wed Sep 25 2024 08:11:32 GMT-0500 (Central Daylight Time),157597.69999999925,1600,I,m,552,7,1,2943.89999999851,154653.80000000075,8004,NTS,C,9
7,9,prac,1,A,circle.png,1,m,Wed Sep 25 2024 08:11:32 GMT-0500 (Central Daylight Time),160846.8999999985,1700,I,m,752,6,1,3244.39999999851,157602.5,8004,NTS,C,10
9,10,prac,1,A,circle.png,1,m,Wed Sep 25 2024 08:11:32 GMT-0500 (Central Daylight Time),163929.19999999925,1500,I,m,783,8,1,3077.199999999255,160852.0,8004,NTS,C,11
3,11,prac,1,A,circle.png,1,z,Wed Sep 25 2024 08:11:32 GMT-0500 (Central Daylight Time),166661.59999999776,1200,I,z,736,3,1,2727.599999997765,163934.0,8004,NTS,C,12
4,0,prac,1,B,triangle.png,0,m,Wed Sep 25 2024 08:11:32 GMT-0500 (Central Daylight Time),213563.3999999985,1500,I,None,1516,4,1,3794.199999999255,209769.19999999925,8004,NTS,C,1
7,0,prac,1,B,triangle.png,0,z,Wed Sep 25 2024 08:11:32 GMT-0500 (Central Daylight Time),217862.09999999776,2000,I,None,1516,6,1,4292.0,213570.09999999776,8004,NTS,C,2
4,1,prac,1,B,triangle.png,1,m,Wed Sep 25 2024 08:11:32 GMT-0500 (Central Daylight Time),220827.8999999985,1500,I,m,679,4,1,2960.800000000745,217867.09999999776,8004,NTS,C,3
8,2,prac,1,B,triangle.png,1,m,Wed Sep 25 2024 08:11:32 GMT-0500 (Central Daylight Time),223493.5,1200,I,m,670,7,1,2660.400000002235,220833.09999999776,8004,NTS,C,4
6,3,prac,1,B,triangle.png,1,m,Wed Sep 25 2024 08:11:32 GMT-0500 (Central Daylight Time),226042.8999999985,1000,I,m,756,5,1,2544.300000000745,223498.59999999776,8004,NTS,C,5
2,4,prac,1,B,triangle.png,1,m,Wed Sep 25 2024 08:11:32 GMT-0500 (Central Daylight Time),229808.5,1700,I,m,1267,2,1,3760.60000000149,226047.8999999985,8004,NTS,C,6
1,5,prac,1,B,triangle.png,1,z,Wed Sep 25 2024 08:11:32 GMT-0500 (Central Daylight Time),233240.80000000075,1900,I,z,733,1,1,3427.0,229813.80000000075,8004,NTS,C,7
2,6,prac,1,B,triangle.png,1,m,Wed Sep 25 2024 08:11:32 GMT-0500 (Central Daylight Time),236706.19999999925,1700,I,m,972,2,1,3460.5,233245.69999999925,8004,NTS,C,8
8,7,prac,1,B,triangle.png,1,m,Wed Sep 25 2024 08:11:32 GMT-0500 (Central Daylight Time),239288.80000000075,1200,I,m,591,7,1,2577.400000002235,236711.3999999985,8004,NTS,C,9
9,8,prac,1,B,triangle.png,1,z,Wed Sep 25 2024 08:11:32 GMT-0500 (Central Daylight Time),242554.30000000075,1400,I,z,1073,8,1,3260.400000002235,239293.8999999985,8004,NTS,C,10
9,9,prac,1,B,triangle.png,1,z,Wed Sep 25 2024 08:11:32 GMT-0500 (Central Daylight Time),245786.80000000075,1400,I,z,1063,8,1,3226.7000000029802,242560.09999999776,8004,NTS,C,11
3,10,prac,1,B,triangle.png,1,z,Wed Sep 25 2024 08:11:32 GMT-0500 (Central Daylight Time),249218.8999999985,1600,I,z,1047,3,1,3427.300000000745,245791.59999999776,8004,NTS,C,12
8,1,test,1,A,circle.png,1,m,Wed Sep 25 2024 08:11:32 GMT-0500 (Central Daylight Time),284024.69999999925,1600,I,m,959,7,1,2577.89999999851,281446.80000000075,8004,NTS,C,1
1,2,test,1,A,circle.png,1,z,Wed Sep 25 2024 08:11:32 GMT-0500 (Central Daylight Time),285924.09999999776,1000,I,z,880,1,1,1895.5,284028.59999999776,8004,NTS,C,2
1,3,test,1,A,circle.png,1,z,Wed Sep 25 2024 08:11:32 GMT-0500 (Central Daylight Time),287823.5,1000,I,z,869,1,1,1895.800000000745,285927.69999999925,8004,NTS,C,3
9,4,test,1,A,circle.png,1,m,Wed Sep 25 2024 08:11:32 GMT-0500 (Central Daylight Time),290155.8999999985,1500,I,m,814,8,1,2328.800000000745,287827.09999999776,8004,NTS,C,4
7,5,test,1,A,circle.png,1,m,Wed Sep 25 2024 08:11:32 GMT-0500 (Central Daylight Time),292872.0,1700,I,m,985,6,1,2712.400000002235,290159.59999999776,8004,NTS,C,5
2,6,test,1,A,circle.png,1,z,Wed Sep 25 2024 08:11:32 GMT-0500 (Central Daylight Time),296220.80000000075,2000,I,z,1329,2,1,3345.10000000149,292875.69999999925,8004,NTS,C,6
8,7,test,1,A,circle.png,1,m,Wed Sep 25 2024 08:11:32 GMT-0500 (Central Daylight Time),298887.80000000075,1600,I,m,1036,7,1,2663.300000000745,296224.5,8004,NTS,C,7
4,8,test,1,A,circle.png,1,z,Wed Sep 25 2024 08:11:32 GMT-0500 (Central Daylight Time),301569.30000000075,1400,I,z,1258,4,1,2677.5,298891.80000000075,8004,NTS,C,8
4,9,test,1,A,circle.png,1,z,Wed Sep 25 2024 08:11:32 GMT-0500 (Central Daylight Time),303935.0,1400,I,z,944,4,1,2362.199999999255,301572.80000000075,8004,NTS,C,9
9,10,test,1,A,circle.png,1,m,Wed Sep 25 2024 08:11:32 GMT-0500 (Central Daylight Time),306584.3999999985,1500,I,m,1118,8,1,2645.599999997765,303938.80000000075,8004,NTS,C,10
3,11,test,1,A,circle.png,1,z,Wed Sep 25 2024 08:11:32 GMT-0500 (Central Daylight Time),309266.69999999925,1200,I,z,1456,3,1,2678.5,306588.19999999925,8004,NTS,C,11
9,12,test,1,A,circle.png,1,m,Wed Sep 25 2024 08:11:32 GMT-0500 (Central Daylight Time),311565.69999999925,1500,I,m,770,8,1,2295.199999999255,309270.5,8004,NTS,C,12
2,13,test,1,A,circle.png,1,z,Wed Sep 25 2024 08:11:32 GMT-0500 (Central Daylight Time),314198.59999999776,2000,I,z,612,2,1,2628.89999999851,311569.69999999925,8004,NTS,C,13
6,14,test,1,A,circle.png,1,m,Wed Sep 25 2024 08:11:32 GMT-0500 (Central Daylight Time),316997.59999999776,1900,I,m,871,5,1,2795.39999999851,314202.19999999925,8004,NTS,C,14
4,15,test,1,A,circle.png,1,z,Wed Sep 25 2024 08:11:32 GMT-0500 (Central Daylight Time),319263.3999999985,1400,I,z,844,4,1,2261.800000000745,317001.59999999776,8004,NTS,C,15
7,16,test,1,A,circle.png,1,m,Wed Sep 25 2024 08:11:32 GMT-0500 (Central Daylight Time),321646.0,1700,I,m,653,6,1,2378.900000002235,319267.09999999776,8004,NTS,C,16
1,17,test,1,A,circle.png,1,z,Wed Sep 25 2024 08:11:32 GMT-0500 (Central Daylight Time),323229.0,1000,I,z,563,1,1,1579.300000000745,321649.69999999925,8004,NTS,C,17
6,18,test,1,A,circle.png,1,m,Wed Sep 25 2024 08:11:32 GMT-0500 (Central Daylight Time),325828.0,1900,I,m,672,5,1,2594.10000000149,323233.8999999985,8004,NTS,C,18
3,19,test,1,A,circle.png,1,z,Wed Sep 25 2024 08:11:32 GMT-0500 (Central Daylight Time),327695.30000000075,1200,I,z,645,3,1,1863.6000000014901,325831.69999999925,8004,NTS,C,19
9,20,test,1,A,circle.png,1,m,Wed Sep 25 2024 08:11:32 GMT-0500 (Central Daylight Time),329843.30000000075,1500,I,m,623,8,1,2144.10000000149,327699.19999999925,8004,NTS,C,20
1,21,test,1,A,circle.png,1,z,Wed Sep 25 2024 08:11:32 GMT-0500 (Central Daylight Time),331626.19999999925,1000,I,z,758,1,1,1779.300000000745,329846.8999999985,8004,NTS,C,21
8,22,test,1,A,circle.png,1,m,Wed Sep 25 2024 08:11:32 GMT-0500 (Central Daylight Time),333842.30000000075,1600,I,m,584,7,1,2211.900000002235,331630.3999999985,8004,NTS,C,22
4,23,test,1,A,circle.png,1,z,Wed Sep 25 2024 08:11:32 GMT-0500 (Central Daylight Time),335991.5,1400,I,z,727,4,1,2145.5,333846.0,8004,NTS,C,23
8,24,test,1,A,circle.png,1,m,Wed Sep 25 2024 08:11:32 GMT-0500 (Central Daylight Time),338424.30000000075,1600,I,m,810,7,1,2429.10000000149,335995.19999999925,8004,NTS,C,24
2,1,test,1,B,triangle.png,1,m,Wed Sep 25 2024 08:11:32 GMT-0500 (Central Daylight Time),359850.5,1700,I,m,815,2,1,2527.699999999255,357322.80000000075,8004,NTS,C,1
6,2,test,1,B,triangle.png,1,m,Wed Sep 25 2024 08:11:32 GMT-0500 (Central Daylight Time),361833.59999999776,1000,I,m,959,5,1,1979.5,359854.09999999776,8004,NTS,C,2
3,3,test,1,B,triangle.png,1,z,Wed Sep 25 2024 08:11:32 GMT-0500 (Central Daylight Time),364299.30000000075,1600,I,z,848,3,1,2462.0,361837.30000000075,8004,NTS,C,3
9,4,test,1,B,triangle.png,1,z,Wed Sep 25 2024 08:11:32 GMT-0500 (Central Daylight Time),367266.19999999925,1900,I,z,1050,16,1,2962.89999999851,364303.30000000075,8004,NTS,C,4
8,5,test,1,B,triangle.png,1,m,Wed Sep 25 2024 08:11:32 GMT-0500 (Central Daylight Time),369347.80000000075,1200,I,m,864,7,1,2078.0,367269.80000000075,8004,NTS,C,5
7,6,test,1,B,triangle.png,1,z,Wed Sep 25 2024 08:11:32 GMT-0500 (Central Daylight Time),371796.80000000075,1600,I,z,822,14,1,2445.400000002235,369351.3999999985,8004,NTS,C,6
9,7,test,1,B,triangle.png,1,z,Wed Sep 25 2024 08:11:32 GMT-0500 (Central Daylight Time),374746.0,1900,I,z,1032,16,1,2945.199999999255,371800.80000000075,8004,NTS,C,7
4,8,test,1,B,triangle.png,1,m,Wed Sep 25 2024 08:11:32 GMT-0500 (Central Daylight Time),377011.8999999985,1000,I,m,1247,12,1,2262.199999999255,374749.69999999925,8004,NTS,C,8
2,9,test,1,B,triangle.png,1,m,Wed Sep 25 2024 08:11:32 GMT-0500 (Central Daylight Time),379378.0,1200,I,m,1141,10,1,2362.400000002235,377015.59999999776,8004,NTS,C,9
3,10,test,1,B,triangle.png,1,z,Wed Sep 25 2024 08:11:32 GMT-0500 (Central Daylight Time),382144.8999999985,2000,I,z,744,11,1,2763.0,379381.8999999985,8004,NTS,C,10
1,11,test,1,B,triangle.png,1,z,Wed Sep 25 2024 08:11:32 GMT-0500 (Central Daylight Time),384277.59999999776,1400,I,z,714,9,1,2128.699999999255,382148.8999999985,8004,NTS,C,11
6,12,test,1,B,triangle.png,1,m,Wed Sep 25 2024 08:11:32 GMT-0500 (Central Daylight Time),386157.0,1000,I,m,864,5,1,1875.4000000022352,384281.59999999776,8004,NTS,C,12
1,13,test,1,B,triangle.png,1,z,Wed Sep 25 2024 08:11:32 GMT-0500 (Central Daylight Time),388858.19999999925,1900,I,z,775,1,1,2697.60000000149,386160.59999999776,8004,NTS,C,13
6,14,test,1,B,triangle.png,1,m,Wed Sep 25 2024 08:11:32 GMT-0500 (Central Daylight Time),391424.0,1500,I,m,1044,13,1,2562.0,388862.0,8004,NTS,C,14
8,15,test,1,B,triangle.png,1,m,Wed Sep 25 2024 08:11:32 GMT-0500 (Central Daylight Time),393756.80000000075,1700,I,m,613,15,1,2329.10000000149,391427.69999999925,8004,NTS,C,15
7,16,test,1,B,triangle.png,1,z,Wed Sep 25 2024 08:11:32 GMT-0500 (Central Daylight Time),396472.3999999985,2000,I,z,693,6,1,2711.800000000745,393760.59999999776,8004,NTS,C,16
7,17,test,1,B,triangle.png,1,z,Wed Sep 25 2024 08:11:32 GMT-0500 (Central Daylight Time),399221.8999999985,1600,I,z,1121,14,1,2746.0,396475.8999999985,8004,NTS,C,17
6,18,test,1,B,triangle.png,1,m,Wed Sep 25 2024 08:11:32 GMT-0500 (Central Daylight Time),401421.19999999925,1500,I,m,680,13,1,2195.39999999851,399225.80000000075,8004,NTS,C,18
1,19,test,1,B,triangle.png,1,z,Wed Sep 25 2024 08:11:32 GMT-0500 (Central Daylight Time),403620.5,1400,I,z,772,9,1,2195.699999999255,401424.80000000075,8004,NTS,C,19
2,20,test,1,B,triangle.png,1,m,Wed Sep 25 2024 08:11:32 GMT-0500 (Central Daylight Time),405736.59999999776,1200,I,m,893,10,1,2112.599999997765,403624.0,8004,NTS,C,20
9,21,test,1,B,triangle.png,1,z,Wed Sep 25 2024 08:11:32 GMT-0500 (Central Daylight Time),407919.09999999776,1400,I,z,761,8,1,2178.7999999970198,405740.30000000075,8004,NTS,C,21
8,22,test,1,B,triangle.png,1,m,Wed Sep 25 2024 08:11:32 GMT-0500 (Central Daylight Time),410634.80000000075,1700,I,m,912,15,1,2712.0,407922.80000000075,8004,NTS,C,22
4,23,test,1,B,triangle.png,1,m,Wed Sep 25 2024 08:11:32 GMT-0500 (Central Daylight Time),413017.30000000075,1500,I,m,851,4,1,2378.7000000029802,410638.59999999776,8004,NTS,C,23
4,24,test,1,B,triangle.png,1,m,Wed Sep 25 2024 08:11:32 GMT-0500 (Central Daylight Time),414751.3999999985,1000,I,m,712,12,1,1730.5,413020.8999999985,8004,NTS,C,24
6,0,prac,1,C,circle.png,0,m,Wed Sep 25 2024 08:11:32 GMT-0500 (Central Daylight Time),482762.09999999776,2000,I,None,1513,5,1,4293.79999999702,478468.30000000075,8004,NTS,C,1
6,1,prac,1,C,circle.png,1,m,Wed Sep 25 2024 08:11:32 GMT-0500 (Central Daylight Time),486960.69999999925,2000,I,m,1408,5,1,4193.60000000149,482767.09999999776,8004,NTS,C,2
9,1,prac,1,C,circle.png,0,m,Wed Sep 25 2024 08:11:32 GMT-0500 (Central Daylight Time),491146.8999999985,1900,I,None,1516,8,1,4181.39999999851,486965.5,8004,NTS,C,3
3,1,prac,1,C,triangle.png,0,z,Wed Sep 25 2024 08:11:32 GMT-0500 (Central Daylight Time),494941.59999999776,1500,I,None,1516,3,1,3788.699999999255,491152.8999999985,8004,NTS,C,4
2,1,prac,1,C,triangle.png,0,m,Wed Sep 25 2024 08:11:32 GMT-0500 (Central Daylight Time),498840.5,1600,I,None,1517,2,1,3894.10000000149,494946.3999999985,8004,NTS,C,5
1,2,prac,1,C,circle.png,1,z,Wed Sep 25 2024 08:11:32 GMT-0500 (Central Daylight Time),502472.59999999776,1700,I,z,1140,1,1,3627.2999999970198,498845.30000000075,8004,NTS,C,6
4,3,prac,1,C,circle.png,1,z,Wed Sep 25 2024 08:11:32 GMT-0500 (Central Daylight Time),505321.80000000075,1000,I,z,1065,4,1,2844.2000000029802,502477.59999999776,8004,NTS,C,7
8,3,prac,1,C,triangle.png,0,m,Wed Sep 25 2024 08:11:32 GMT-0500 (Central Daylight Time),509020.5,1400,I,None,1516,7,1,3693.800000000745,505326.69999999925,8004,NTS,C,8
7,4,prac,1,C,triangle.png,1,z,Wed Sep 25 2024 08:11:32 GMT-0500 (Central Daylight Time),511753.19999999925,1200,I,z,749,6,1,2726.199999999255,509027.0,8004,NTS,C,9
8,5,prac,1,C,triangle.png,1,m,Wed Sep 25 2024 08:11:32 GMT-0500 (Central Daylight Time),514768.8999999985,1400,I,m,816,7,1,3010.599999997765,511758.30000000075,8004,NTS,C,10
7,6,prac,1,C,triangle.png,1,z,Wed Sep 25 2024 08:11:32 GMT-0500 (Central Daylight Time),517801.09999999776,1200,I,z,1041,6,1,3027.2999999970198,514773.80000000075,8004,NTS,C,11
9,7,prac,1,C,circle.png,1,m,Wed Sep 25 2024 08:11:32 GMT-0500 (Central Daylight Time),521416.59999999776,1900,I,m,916,8,1,3610.7999999970198,517805.80000000075,8004,NTS,C,12
1,1,prac,2,C,circle.png,1,z,Wed Sep 25 2024 08:11:32 GMT-0500 (Central Daylight Time),551840.3999999985,1700,I,z,1058,1,1,3544.5,548295.8999999985,8004,NTS,C,1
3,2,prac,2,C,triangle.png,1,z,Wed Sep 25 2024 08:11:32 GMT-0500 (Central Daylight Time),555039.3000000007,1500,I,z,909,3,1,3194.0,551845.3000000007,8004,NTS,C,2
9,3,prac,2,C,circle.png,1,m,Wed Sep 25 2024 08:11:32 GMT-0500 (Central Daylight Time),558688.5,1900,I,m,958,8,1,3644.0,555044.5,8004,NTS,C,3
6,4,prac,2,C,circle.png,1,m,Wed Sep 25 2024 08:11:32 GMT-0500 (Central Daylight Time),562253.8999999985,2000,I,m,770,5,1,3560.699999999255,558693.1999999993,8004,NTS,C,4
4,5,prac,2,C,circle.png,1,z,Wed Sep 25 2024 08:11:32 GMT-0500 (Central Daylight Time),564886.3999999985,1000,I,z,836,4,1,2627.39999999851,562259.0,8004,NTS,C,5
1,6,prac,2,C,circle.png,1,z,Wed Sep 25 2024 08:11:32 GMT-0500 (Central Daylight Time),568135.1999999993,1700,I,z,759,1,1,3244.0,564891.1999999993,8004,NTS,C,6
2,6,prac,2,C,triangle.png,0,m,Wed Sep 25 2024 08:11:32 GMT-0500 (Central Daylight Time),572033.8999999985,1600,I,None,1516,2,1,3893.800000000745,568140.0999999978,8004,NTS,C,7
4,7,prac,2,C,circle.png,1,z,Wed Sep 25 2024 08:11:32 GMT-0500 (Central Daylight Time),575099.8000000007,1000,I,z,1295,4,1,3059.7000000029802,572040.0999999978,8004,NTS,C,8
8,8,prac,2,C,triangle.png,1,m,Wed Sep 25 2024 08:11:32 GMT-0500 (Central Daylight Time),578348.6999999993,1400,I,m,1062,7,1,3243.89999999851,575104.8000000007,8004,NTS,C,9
9,9,prac,2,C,circle.png,1,m,Wed Sep 25 2024 08:11:32 GMT-0500 (Central Daylight Time),582397.3999999985,1900,I,m,1353,8,1,4043.800000000745,578353.5999999978,8004,NTS,C,10
8,9,prac,2,C,triangle.png,0,m,Wed Sep 25 2024 08:11:32 GMT-0500 (Central Daylight Time),586096.0999999978,1400,I,None,1516,7,1,3693.89999999851,582402.1999999993,8004,NTS,C,11
7,10,prac,2,C,triangle.png,1,z,Wed Sep 25 2024 08:11:32 GMT-0500 (Central Daylight Time),589312.1999999993,1200,I,z,1216,6,1,3211.0,586101.1999999993,8004,NTS,C,12
7,0,test,1,C,circle.png,0,m,Wed Sep 25 2024 08:11:32 GMT-0500 (Central Daylight Time),621634.8000000007,2000,I,None,1515,14,1,3528.7000000029802,618106.0999999978,8004,NTS,C,1
8,1,test,1,C,triangle.png,1,m,Wed Sep 25 2024 08:11:32 GMT-0500 (Central Daylight Time),624500.8000000007,1600,I,m,1247,23,1,2861.60000000149,621639.1999999993,8004,NTS,C,2
1,2,test,1,C,triangle.png,1,z,Wed Sep 25 2024 08:11:32 GMT-0500 (Central Daylight Time),627450.3000000007,1900,I,z,1017,17,1,2945.400000002235,624504.8999999985,8004,NTS,C,3
2,2,test,1,C,triangle.png,0,m,Wed Sep 25 2024 08:11:32 GMT-0500 (Central Daylight Time),630315.6999999993,2000,I,z,848,2,1,2861.89999999851,627453.8000000007,8004,NTS,C,4
6,2,test,1,C,circle.png,0,m,Wed Sep 25 2024 08:11:32 GMT-0500 (Central Daylight Time),633747.8999999985,1900,I,None,1516,5,1,3428.199999999255,630319.6999999993,8004,NTS,C,5
7,2,test,1,C,triangle.png,0,z,Wed Sep 25 2024 08:11:32 GMT-0500 (Central Daylight Time),636964.6999999993,1700,I,None,1501,22,1,3213.0,633751.6999999993,8004,NTS,C,6
8,2,test,1,C,triangle.png,0,m,Wed Sep 25 2024 08:11:32 GMT-0500 (Central Daylight Time),640096.0,1600,I,None,1516,7,1,3127.300000000745,636968.6999999993,8004,NTS,C,7
3,3,test,1,C,triangle.png,1,z,Wed Sep 25 2024 08:11:32 GMT-0500 (Central Daylight Time),642478.5999999978,1200,I,z,1153,3,1,2378.89999999851,640099.6999999993,8004,NTS,C,8
1,3,test,1,C,circle.png,0,z,Wed Sep 25 2024 08:11:32 GMT-0500 (Central Daylight Time),645039.0999999978,1000,I,None,1544,1,1,2555.5,642483.5999999978,8004,NTS,C,9
7,3,test,1,C,triangle.png,0,z,Wed Sep 25 2024 08:11:32 GMT-0500 (Central Daylight Time),647794.3999999985,1700,I,m,1033,6,1,2751.0,645043.3999999985,8004,NTS,C,10
1,4,test,1,C,triangle.png,1,z,Wed Sep 25 2024 08:11:32 GMT-0500 (Central Daylight Time),650959.1999999993,1900,I,z,1244,9,1,3161.199999999255,647798.0,8004,NTS,C,11
4,5,test,1,C,triangle.png,1,m,Wed Sep 25 2024 08:11:32 GMT-0500 (Central Daylight Time),653358.3999999985,1500,I,m,878,12,1,2395.39999999851,650963.0,8004,NTS,C,12
2,6,test,1,C,circle.png,1,z,Wed Sep 25 2024 08:11:32 GMT-0500 (Central Daylight Time),655957.3999999985,1700,I,z,871,10,1,2595.199999999255,653362.1999999993,8004,NTS,C,13
4,6,test,1,C,triangle.png,0,m,Wed Sep 25 2024 08:11:32 GMT-0500 (Central Daylight Time),658990.0,1500,I,None,1516,20,1,3028.900000002235,655961.0999999978,8004,NTS,C,14
9,6,test,1,C,circle.png,0,m,Wed Sep 25 2024 08:11:32 GMT-0500 (Central Daylight Time),662022.1999999993,1500,I,None,1515,8,1,3028.199999999255,658994.0,8004,NTS,C,15
9,7,test,1,C,circle.png,1,m,Wed Sep 25 2024 08:11:32 GMT-0500 (Central Daylight Time),664604.6999999993,1500,I,m,1063,24,1,2578.60000000149,662026.0999999978,8004,NTS,C,16
9,8,test,1,C,triangle.png,1,z,Wed Sep 25 2024 08:11:32 GMT-0500 (Central Daylight Time),667187.3999999985,1400,I,z,1157,16,1,2579.099999997765,664608.3000000007,8004,NTS,C,17
8,9,test,1,C,circle.png,1,m,Wed Sep 25 2024 08:11:32 GMT-0500 (Central Daylight Time),669536.5999999978,1200,I,m,1104,15,1,2344.89999999851,667191.6999999993,8004,NTS,C,18
6,10,test,1,C,circle.png,1,m,Wed Sep 25 2024 08:11:32 GMT-0500 (Central Daylight Time),672119.1999999993,1900,I,m,653,21,1,2574.39999999851,669544.8000000007,8004,NTS,C,19
6,10,test,1,C,triangle.png,0,m,Wed Sep 25 2024 08:11:32 GMT-0500 (Central Daylight Time),674601.8000000007,1000,I,z,1459,13,1,2478.7000000029802,672123.0999999978,8004,NTS,C,20
4,10,test,1,C,circle.png,0,z,Wed Sep 25 2024 08:11:32 GMT-0500 (Central Daylight Time),676817.6999999993,1400,I,m,792,4,1,2212.10000000149,674605.5999999978,8004,NTS,C,21
3,10,test,1,C,circle.png,0,z,Wed Sep 25 2024 08:11:32 GMT-0500 (Central Daylight Time),679866.6999999993,1600,I,m,1416,11,1,3045.300000000745,676821.3999999985,8004,NTS,C,22
2,10,test,1,C,circle.png,0,z,Wed Sep 25 2024 08:11:32 GMT-0500 (Central Daylight Time),683099.0999999978,1700,I,None,1516,18,1,3228.2999999970198,679870.8000000007,8004,NTS,C,23
3,11,test,1,C,circle.png,1,z,Wed Sep 25 2024 08:11:32 GMT-0500 (Central Daylight Time),685498.3000000007,1600,I,z,774,19,1,2395.60000000149,683102.6999999993,8004,NTS,C,24
4,0,test,2,C,triangle.png,0,m,Wed Sep 25 2024 08:11:32 GMT-0500 (Central Daylight Time),697927.8999999985,1500,I,None,1516,20,1,3029.300000000745,694898.5999999978,8004,NTS,C,1
4,0,test,2,C,circle.png,0,z,Wed Sep 25 2024 08:11:32 GMT-0500 (Central Daylight Time),700860.3000000007,1400,I,None,1516,4,1,2928.300000000745,697932.0,8004,NTS,C,2
9,1,test,2,C,circle.png,1,m,Wed Sep 25 2024 08:11:32 GMT-0500 (Central Daylight Time),703342.6999999993,1500,I,m,961,8,1,2478.800000000745,700863.8999999985,8004,NTS,C,3
8,2,test,2,C,circle.png,1,m,Wed Sep 25 2024 08:11:32 GMT-0500 (Central Daylight Time),705208.6999999993,1200,I,m,643,23,1,1862.199999999255,703346.5,8004,NTS,C,4
1,2,test,2,C,triangle.png,0,z,Wed Sep 25 2024 08:11:32 GMT-0500 (Central Daylight Time),708641.0999999978,1900,I,None,1516,17,1,3428.7999999970198,705212.3000000007,8004,NTS,C,5
8,3,test,2,C,circle.png,1,m,Wed Sep 25 2024 08:11:32 GMT-0500 (Central Daylight Time),710506.8000000007,1200,I,m,648,15,1,1861.5,708645.3000000007,8004,NTS,C,6
2,4,test,2,C,circle.png,1,z,Wed Sep 25 2024 08:11:32 GMT-0500 (Central Daylight Time),712956.3000000007,1700,I,z,723,10,1,2445.800000000745,710510.5,8004,NTS,C,7
1,5,test,2,C,triangle.png,1,z,Wed Sep 25 2024 08:11:32 GMT-0500 (Central Daylight Time),715755.0999999978,1900,I,z,875,9,1,2795.099999997765,712960.0,8004,NTS,C,8
9,6,test,2,C,triangle.png,1,z,Wed Sep 25 2024 08:11:32 GMT-0500 (Central Daylight Time),718521.3999999985,1400,I,z,1342,24,1,2759.800000000745,715761.5999999978,8004,NTS,C,9
3,7,test,2,C,circle.png,1,z,Wed Sep 25 2024 08:11:32 GMT-0500 (Central Daylight Time),721403.6999999993,1600,I,z,1264,19,1,2878.60000000149,718525.0999999978,8004,NTS,C,10
7,7,test,2,C,triangle.png,0,z,Wed Sep 25 2024 08:11:32 GMT-0500 (Central Daylight Time),724602.8999999985,1700,I,m,1467,6,1,3195.39999999851,721407.5,8004,NTS,C,11
3,8,test,2,C,circle.png,1,z,Wed Sep 25 2024 08:11:32 GMT-0500 (Central Daylight Time),727451.8000000007,1600,I,z,1223,11,1,2843.300000000745,724608.5,8004,NTS,C,12
1,9,test,2,C,circle.png,1,z,Wed Sep 25 2024 08:11:32 GMT-0500 (Central Daylight Time),729201.0999999978,1000,I,z,726,1,1,1745.199999999255,727455.8999999985,8004,NTS,C,13
7,10,test,2,C,circle.png,1,m,Wed Sep 25 2024 08:11:32 GMT-0500 (Central Daylight Time),732450.0,2000,I,m,1232,22,1,3245.10000000149,729204.8999999985,8004,NTS,C,14
2,10,test,2,C,triangle.png,0,m,Wed Sep 25 2024 08:11:32 GMT-0500 (Central Daylight Time),735982.3999999985,2000,I,None,1516,2,1,3528.89999999851,732453.5,8004,NTS,C,15
9,10,test,2,C,triangle.png,0,z,Wed Sep 25 2024 08:11:32 GMT-0500 (Central Daylight Time),738916.0,1400,I,None,1517,16,1,2929.699999999255,735986.3000000007,8004,NTS,C,16
7,10,test,2,C,circle.png,0,m,Wed Sep 25 2024 08:11:32 GMT-0500 (Central Daylight Time),742447.3000000007,2000,I,None,1516,14,1,3527.2000000029802,738920.0999999978,8004,NTS,C,17
4,11,test,2,C,triangle.png,1,m,Wed Sep 25 2024 08:11:32 GMT-0500 (Central Daylight Time),745462.8999999985,1500,I,m,1487,12,1,3011.0,742451.8999999985,8004,NTS,C,18
3,12,test,2,C,triangle.png,1,z,Wed Sep 25 2024 08:11:32 GMT-0500 (Central Daylight Time),748078.5999999978,1200,I,z,1386,3,1,2611.5,745467.0999999978,8004,NTS,C,19
8,13,test,2,C,triangle.png,1,m,Wed Sep 25 2024 08:11:32 GMT-0500 (Central Daylight Time),751127.8999999985,1600,I,m,1419,7,1,3045.5,748082.3999999985,8004,NTS,C,20
2,14,test,2,C,circle.png,1,z,Wed Sep 25 2024 08:11:32 GMT-0500 (Central Daylight Time),753993.5,1700,I,z,1134,18,1,2861.699999999255,751131.8000000007,8004,NTS,C,21
6,14,test,2,C,triangle.png,0,m,Wed Sep 25 2024 08:11:32 GMT-0500 (Central Daylight Time),756526.0,1000,I,None,1516,13,1,2528.0,753998.0,8004,NTS,C,22
6,15,test,2,C,triangle.png,1,m,Wed Sep 25 2024 08:11:32 GMT-0500 (Central Daylight Time),758708.8000000007,1000,I,m,1163,21,1,2179.10000000149,756529.6999999993,8004,NTS,C,23
6,15,test,2,C,circle.png,0,m,Wed Sep 25 2024 08:11:32 GMT-0500 (Central Daylight Time),762140.8999999985,1900,I,None,1516,5,1,3428.39999999851,758712.5,8004,NTS,C,24
3,0,test,3,C,triangle.png,0,z,Wed Sep 25 2024 08:11:32 GMT-0500 (Central Daylight Time),774253.8999999985,1200,I,None,1515,3,1,2729.300000000745,771524.5999999978,8004,NTS,C,1
3,1,test,3,C,triangle.png,1,z,Wed Sep 25 2024 08:11:32 GMT-0500 (Central Daylight Time),776686.1999999993,1200,I,z,1203,19,1,2428.199999999255,774258.0,8004,NTS,C,2
3,2,test,3,C,circle.png,1,z,Wed Sep 25 2024 08:11:32 GMT-0500 (Central Daylight Time),779435.6999999993,1600,I,z,1123,11,1,2744.699999999255,776691.0,8004,NTS,C,3
8,3,test,3,C,circle.png,1,m,Wed Sep 25 2024 08:11:32 GMT-0500 (Central Daylight Time),781567.8999999985,1200,I,m,910,15,1,2128.300000000745,779439.5999999978,8004,NTS,C,4
7,3,test,3,C,triangle.png,0,z,Wed Sep 25 2024 08:11:32 GMT-0500 (Central Daylight Time),784800.3999999985,1700,I,None,1515,22,1,3228.599999997765,781571.8000000007,8004,NTS,C,5
2,3,test,3,C,triangle.png,0,m,Wed Sep 25 2024 08:11:32 GMT-0500 (Central Daylight Time),788332.6999999993,2000,I,None,1517,2,1,3528.5,784804.1999999993,8004,NTS,C,6
4,3,test,3,C,circle.png,0,z,Wed Sep 25 2024 08:11:32 GMT-0500 (Central Daylight Time),791265.0999999978,1400,I,None,1516,4,1,2928.599999997765,788336.5,8004,NTS,C,7
6,4,test,3,C,circle.png,1,m,Wed Sep 25 2024 08:11:32 GMT-0500 (Central Daylight Time),794164.0,1900,I,m,981,5,1,2895.400000002235,791268.5999999978,8004,NTS,C,8
4,5,test,3,C,circle.png,1,z,Wed Sep 25 2024 08:11:32 GMT-0500 (Central Daylight Time),796279.8999999985,1400,I,z,685,20,1,2112.39999999851,794167.5,8004,NTS,C,9
2,6,test,3,C,triangle.png,1,m,Wed Sep 25 2024 08:11:32 GMT-0500 (Central Daylight Time),799279.3000000007,2000,I,m,977,18,1,2995.60000000149,796283.6999999993,8004,NTS,C,10
1,7,test,3,C,circle.png,1,z,Wed Sep 25 2024 08:11:32 GMT-0500 (Central Daylight Time),801611.8999999985,1000,I,z,1314,17,1,2328.89999999851,799283.0,8004,NTS,C,11
6,7,test,3,C,triangle.png,0,m,Wed Sep 25 2024 08:11:32 GMT-0500 (Central Daylight Time),804145.3999999985,1000,I,None,1516,13,1,2529.800000000745,801615.5999999978,8004,NTS,C,12
9,8,test,3,C,triangle.png,1,z,Wed Sep 25 2024 08:11:32 GMT-0500 (Central Daylight Time),806410.5,1400,I,z,833,16,1,2261.300000000745,804149.1999999993,8004,NTS,C,13
7,9,test,3,C,circle.png,1,m,Wed Sep 25 2024 08:11:32 GMT-0500 (Central Daylight Time),809392.6999999993,2000,I,m,951,14,1,2978.60000000149,806414.0999999978,8004,NTS,C,14
2,10,test,3,C,circle.png,1,z,Wed Sep 25 2024 08:11:32 GMT-0500 (Central Daylight Time),811891.8999999985,1700,I,z,773,10,1,2495.300000000745,809396.5999999978,8004,NTS,C,15
4,10,test,3,C,triangle.png,0,m,Wed Sep 25 2024 08:11:32 GMT-0500 (Central Daylight Time),814407.8999999985,1500,I,z,994,12,1,2512.199999999255,811895.6999999993,8004,NTS,C,16
1,11,test,3,C,triangle.png,1,z,Wed Sep 25 2024 08:11:32 GMT-0500 (Central Daylight Time),817707.8000000007,1900,I,z,1374,9,1,3296.10000000149,814411.6999999993,8004,NTS,C,17
1,11,test,3,C,circle.png,0,z,Wed Sep 25 2024 08:11:32 GMT-0500 (Central Daylight Time),820239.0999999978,1000,I,None,1516,1,1,2527.2999999970198,817711.8000000007,8004,NTS,C,18
7,11,test,3,C,triangle.png,0,z,Wed Sep 25 2024 08:11:32 GMT-0500 (Central Daylight Time),823471.5999999978,1700,I,None,1516,6,1,3228.89999999851,820242.6999999993,8004,NTS,C,19
8,12,test,3,C,triangle.png,1,m,Wed Sep 25 2024 08:11:32 GMT-0500 (Central Daylight Time),825988.5,1600,I,m,898,7,1,2513.300000000745,823475.1999999993,8004,NTS,C,20
8,13,test,3,C,triangle.png,1,m,Wed Sep 25 2024 08:11:32 GMT-0500 (Central Daylight Time),828686.5,1600,I,m,1069,23,1,2692.5,825994.0,8004,NTS,C,21
6,14,test,3,C,circle.png,1,m,Wed Sep 25 2024 08:11:32 GMT-0500 (Central Daylight Time),831702.1999999993,1900,I,m,1087,21,1,3011.800000000745,828690.3999999985,8004,NTS,C,22
9,15,test,3,C,circle.png,1,m,Wed Sep 25 2024 08:11:32 GMT-0500 (Central Daylight Time),834668.0,1500,I,m,1369,24,1,2962.199999999255,831705.8000000007,8004,NTS,C,23
9,15,test,3,C,circle.png,0,m,Wed Sep 25 2024 08:11:32 GMT-0500 (Central Daylight Time),837700.3999999985,1500,I,None,1515,8,1,3028.599999997765,834671.8000000007,8004,NTS,C,24
8,1,test,4,C,triangle.png,1,m,Wed Sep 25 2024 08:11:32 GMT-0500 (Central Daylight Time),847714.0999999978,1600,I,m,1275,7,1,2895.89999999851,844818.1999999993,8004,NTS,C,1
6,1,test,4,C,circle.png,0,m,Wed Sep 25 2024 08:11:32 GMT-0500 (Central Daylight Time),851147.3999999985,1900,I,None,1517,21,1,3428.89999999851,847718.5,8004,NTS,C,2
7,2,test,4,C,triangle.png,1,z,Wed Sep 25 2024 08:11:32 GMT-0500 (Central Daylight Time),854328.5999999978,1700,I,z,1452,6,1,3177.0,851151.5999999978,8004,NTS,C,3
9,3,test,4,C,circle.png,1,m,Wed Sep 25 2024 08:11:32 GMT-0500 (Central Daylight Time),856821.0,1500,I,m,976,24,1,2484.800000000745,854336.1999999993,8004,NTS,C,4
2,3,test,4,C,triangle.png,0,m,Wed Sep 25 2024 08:11:32 GMT-0500 (Central Daylight Time),859627.8999999985,2000,I,z,799,2,1,2802.599999997765,856825.3000000007,8004,NTS,C,5
7,3,test,4,C,circle.png,0,m,Wed Sep 25 2024 08:11:32 GMT-0500 (Central Daylight Time),863159.1999999993,2000,I,None,1516,14,1,3527.60000000149,859631.5999999978,8004,NTS,C,6
6,4,test,4,C,circle.png,1,m,Wed Sep 25 2024 08:11:32 GMT-0500 (Central Daylight Time),866058.0999999978,1900,I,m,974,5,1,2895.0,863163.0999999978,8004,NTS,C,7
9,5,test,4,C,circle.png,1,m,Wed Sep 25 2024 08:11:32 GMT-0500 (Central Daylight Time),868657.3999999985,1500,I,m,1075,8,1,2595.699999999255,866061.6999999993,8004,NTS,C,8
4,6,test,4,C,triangle.png,1,m,Wed Sep 25 2024 08:11:32 GMT-0500 (Central Daylight Time),871523.0,1500,I,m,1340,12,1,2862.0,868661.0,8004,NTS,C,9
4,7,test,4,C,circle.png,1,z,Wed Sep 25 2024 08:11:32 GMT-0500 (Central Daylight Time),874222.0999999978,1400,I,z,1278,20,1,2695.39999999851,871526.6999999993,8004,NTS,C,10
6,8,test,4,C,triangle.png,1,m,Wed Sep 25 2024 08:11:32 GMT-0500 (Central Daylight Time),876505.0,1000,I,m,1251,13,1,2279.10000000149,874225.8999999985,8004,NTS,C,11
3,9,test,4,C,circle.png,1,z,Wed Sep 25 2024 08:11:32 GMT-0500 (Central Daylight Time),879187.1999999993,1600,I,z,1065,11,1,2678.60000000149,876508.5999999978,8004,NTS,C,12
3,9,test,4,C,triangle.png,0,z,Wed Sep 25 2024 08:11:32 GMT-0500 (Central Daylight Time),881919.8999999985,1200,I,None,1516,19,1,2728.89999999851,879191.0,8004,NTS,C,13
1,10,test,4,C,circle.png,1,z,Wed Sep 25 2024 08:11:32 GMT-0500 (Central Daylight Time),884403.5999999978,1000,I,z,1465,1,1,2480.0,881923.5999999978,8004,NTS,C,14
7,10,test,4,C,triangle.png,0,z,Wed Sep 25 2024 08:11:32 GMT-0500 (Central Daylight Time),887634.8999999985,1700,I,None,1516,22,1,3227.599999997765,884407.3000000007,8004,NTS,C,15
2,10,test,4,C,circle.png,0,z,Wed Sep 25 2024 08:11:32 GMT-0500 (Central Daylight Time),890850.5,1700,I,m,1491,10,1,3212.0,887638.5,8004,NTS,C,16
1,11,test,4,C,circle.png,1,z,Wed Sep 25 2024 08:11:32 GMT-0500 (Central Daylight Time),892849.8000000007,1000,I,z,967,17,1,1995.5,890854.3000000007,8004,NTS,C,17
9,12,test,4,C,triangle.png,1,z,Wed Sep 25 2024 08:11:32 GMT-0500 (Central Daylight Time),895665.5999999978,1400,I,z,1384,16,1,2812.199999999255,892853.3999999985,8004,NTS,C,18
8,12,test,4,C,triangle.png,0,m,Wed Sep 25 2024 08:11:32 GMT-0500 (Central Daylight Time),898798.0999999978,1600,I,None,1516,23,1,3128.7999999970198,895669.3000000007,8004,NTS,C,19
2,12,test,4,C,triangle.png,0,m,Wed Sep 25 2024 08:11:32 GMT-0500 (Central Daylight Time),902330.3000000007,2000,I,None,1516,18,1,3528.60000000149,898801.6999999993,8004,NTS,C,20
1,13,test,4,C,triangle.png,1,z,Wed Sep 25 2024 08:11:32 GMT-0500 (Central Daylight Time),905179.0,1900,I,z,932,9,1,2843.800000000745,902335.1999999993,8004,NTS,C,21
3,13,test,4,C,triangle.png,0,z,Wed Sep 25 2024 08:11:32 GMT-0500 (Central Daylight Time),907911.8000000007,1200,I,None,1516,3,1,2729.0,905182.8000000007,8004,NTS,C,22
8,14,test,4,C,circle.png,1,m,Wed Sep 25 2024 08:11:32 GMT-0500 (Central Daylight Time),910527.8999999985,1200,I,m,1385,15,1,2611.89999999851,907916.0,8004,NTS,C,23
4,15,test,4,C,circle.png,1,z,Wed Sep 25 2024 08:11:32 GMT-0500 (Central Daylight Time),912693.5,1400,I,z,738,4,1,2162.0,910531.5,8004,NTS,C,24
