block_c,block_dur,condition,countdown,datetime,endtime,list,multichar_response,project,response,response_time,session_number,start_end,starttime,subject_id,task,task_vers,trial
,,,,Thu Oct 24 2024 13:16:04 GMT-0500 (Central Daylight Time),,,,O,space,1208,1,,,7026,WL,B,
prac,,0,,Thu Oct 24 2024 13:16:04 GMT-0500 (Central Daylight Time),,NA,b,O,b,4355,1,,,7026,WL,B,1.0
prac,,0,,Thu Oct 24 2024 13:16:04 GMT-0500 (Central Daylight Time),,NA,bo,O,o,212,1,,,7026,WL,B,1.0
prac,,0,,Thu Oct 24 2024 13:16:04 GMT-0500 (Central Daylight Time),,NA,boo,O,o,97,1,,,7026,WL,B,1.0
prac,,0,,Thu Oct 24 2024 13:16:04 GMT-0500 (Central Daylight Time),,NA,boos,O,s,84,1,,,7026,WL,B,1.0
prac,,0,,Thu Oct 24 2024 13:16:04 GMT-0500 (Central Daylight Time),,NA,boost,O,t,81,1,,,7026,WL,B,1.0
prac,,0,,Thu Oct 24 2024 13:16:04 GMT-0500 (Central Daylight Time),,NA,boostenter,O,enter,2898,1,,,7026,WL,B,1.0
1,1.7330000400543213,learn,58266.99995994568,Thu Oct 24 2024 13:16:04 GMT-0500 (Central Daylight Time),142173.30000001192,A,s,O,s,1702,1,1732.1000000238419,140441.19999998808,7026,WL,B,1.0
1,2.1000001430511475,learn,57899.99985694885,Thu Oct 24 2024 13:16:04 GMT-0500 (Central Daylight Time),142539.80000001192,A,st,O,t,330,1,2098.600000023842,140441.19999998808,7026,WL,B,1.0
1,2.3330001831054688,learn,57666.99981689453,Thu Oct 24 2024 13:16:04 GMT-0500 (Central Daylight Time),142772.69999998808,A,str,O,r,188,1,2331.5,140441.19999998808,7026,WL,B,1.0
1,2.5820000171661377,learn,57417.99998283386,Thu Oct 24 2024 13:16:04 GMT-0500 (Central Daylight Time),143021.80000001192,A,stre,O,e,210,1,2580.600000023842,140441.19999998808,7026,WL,B,1.0
1,2.698000192642212,learn,57301.99980735779,Thu Oct 24 2024 13:16:04 GMT-0500 (Central Daylight Time),143138.10000002384,A,stree,O,e,90,1,2696.900000035763,140441.19999998808,7026,WL,B,1.0
1,3.5320000648498535,learn,56467.99993515015,Thu Oct 24 2024 13:16:04 GMT-0500 (Central Daylight Time),143972.19999998808,A,street,O,t,819,1,3531.0,140441.19999998808,7026,WL,B,1.0
1,5.231000185012817,learn,54768.99981498718,Thu Oct 24 2024 13:16:04 GMT-0500 (Central Daylight Time),145670.80000001192,A,streetenter,O,enter,1659,1,5229.600000023842,140441.19999998808,7026,WL,B,1.0
1,6.198000192642212,learn,53801.99980735779,Thu Oct 24 2024 13:16:04 GMT-0500 (Central Daylight Time),146638.0,A,g,O,g,950,1,966.6999999880791,145671.30000001192,7026,WL,B,2.0
1,6.481000185012817,learn,53518.99981498718,Thu Oct 24 2024 13:16:04 GMT-0500 (Central Daylight Time),146921.19999998808,A,gr,O,r,255,1,1249.8999999761581,145671.30000001192,7026,WL,B,2.0
1,6.5980000495910645,learn,53401.999950408936,Thu Oct 24 2024 13:16:04 GMT-0500 (Central Daylight Time),147038.0,A,gra,O,a,83,1,1366.699999988079,145671.30000001192,7026,WL,B,2.0
1,6.88100004196167,learn,53118.99995803833,Thu Oct 24 2024 13:16:04 GMT-0500 (Central Daylight Time),147321.19999998808,A,gras,O,s,244,1,1649.8999999761581,145671.30000001192,7026,WL,B,2.0
1,6.981000185012817,learn,53018.99981498718,Thu Oct 24 2024 13:16:04 GMT-0500 (Central Daylight Time),147420.90000003576,A,grass,O,s,72,1,1749.6000000238419,145671.30000001192,7026,WL,B,2.0
1,7.447000026702881,learn,52552.99997329712,Thu Oct 24 2024 13:16:04 GMT-0500 (Central Daylight Time),147886.80000001192,A,grassenter,O,enter,426,1,2215.5,145671.30000001192,7026,WL,B,2.0
1,8.514000177383423,learn,51485.99982261658,Thu Oct 24 2024 13:16:04 GMT-0500 (Central Daylight Time),148953.80000001192,A,d,O,d,1055,1,1066.699999988079,147887.10000002384,7026,WL,B,3.0
1,8.680000066757202,learn,51319.9999332428,Thu Oct 24 2024 13:16:04 GMT-0500 (Central Daylight Time),149120.40000003576,A,do,O,o,135,1,1233.300000011921,147887.10000002384,7026,WL,B,3.0
1,8.830000162124634,learn,51169.999837875366,Thu Oct 24 2024 13:16:04 GMT-0500 (Central Daylight Time),149270.40000003576,A,doo,O,o,111,1,1383.300000011921,147887.10000002384,7026,WL,B,3.0
1,8.996999979019165,learn,51003.000020980835,Thu Oct 24 2024 13:16:04 GMT-0500 (Central Daylight Time),149437.19999998808,A,door,O,r,139,1,1550.0999999642372,147887.10000002384,7026,WL,B,3.0
1,9.17900013923645,learn,50820.99986076355,Thu Oct 24 2024 13:16:04 GMT-0500 (Central Daylight Time),149619.40000003576,A,doorenter,O,enter,141,1,1732.300000011921,147887.10000002384,7026,WL,B,3.0
1,9.52999997138977,learn,50470.00002861023,Thu Oct 24 2024 13:16:04 GMT-0500 (Central Daylight Time),149970.30000001192,A,a,O,a,338,1,350.5,149619.80000001192,7026,WL,B,4.0
1,9.680000066757202,learn,50319.9999332428,Thu Oct 24 2024 13:16:04 GMT-0500 (Central Daylight Time),150120.19999998808,A,ar,O,r,111,1,500.39999997615814,149619.80000001192,7026,WL,B,4.0
1,9.813000202178955,learn,50186.999797821045,Thu Oct 24 2024 13:16:04 GMT-0500 (Central Daylight Time),150253.60000002384,A,arm,O,m,105,1,633.8000000119209,149619.80000001192,7026,WL,B,4.0
1,10.17900013923645,learn,49820.99986076355,Thu Oct 24 2024 13:16:04 GMT-0500 (Central Daylight Time),150619.19999998808,A,armenter,O,enter,336,1,999.3999999761581,149619.80000001192,7026,WL,B,4.0
1,11.59600019454956,learn,48403.99980545044,Thu Oct 24 2024 13:16:04 GMT-0500 (Central Daylight Time),152036.30000001192,A,c,O,c,1402,1,1416.699999988079,150619.60000002384,7026,WL,B,5.0
1,11.729000091552734,learn,48270.999908447266,Thu Oct 24 2024 13:16:04 GMT-0500 (Central Daylight Time),152169.5,A,ci,O,i,102,1,1549.8999999761581,150619.60000002384,7026,WL,B,5.0
1,11.879000186920166,learn,48120.999813079834,Thu Oct 24 2024 13:16:04 GMT-0500 (Central Daylight Time),152319.30000001192,A,cit,O,t,115,1,1699.699999988079,150619.60000002384,7026,WL,B,5.0
1,12.063000202178955,learn,47936.999797821045,Thu Oct 24 2024 13:16:04 GMT-0500 (Central Daylight Time),152502.90000003576,A,city,O,y,156,1,1883.300000011921,150619.60000002384,7026,WL,B,5.0
1,12.34500002861023,learn,47654.99997138977,Thu Oct 24 2024 13:16:04 GMT-0500 (Central Daylight Time),152785.0,A,cityenter,O,enter,253,1,2165.399999976158,150619.60000002384,7026,WL,B,5.0
1,13.029000043869019,learn,46970.99995613098,Thu Oct 24 2024 13:16:04 GMT-0500 (Central Daylight Time),153469.0,A,w,O,w,669,1,683.6999999880791,152785.30000001192,7026,WL,B,6.0
1,13.17900013923645,learn,46820.99986076355,Thu Oct 24 2024 13:16:04 GMT-0500 (Central Daylight Time),153618.90000003576,A,wi,O,i,109,1,833.6000000238419,152785.30000001192,7026,WL,B,6.0
1,13.245000123977661,learn,46754.99987602234,Thu Oct 24 2024 13:16:04 GMT-0500 (Central Daylight Time),153684.80000001192,A,wif,O,f,30,1,899.5,152785.30000001192,7026,WL,B,6.0
1,13.396000146865845,learn,46603.999853134155,Thu Oct 24 2024 13:16:04 GMT-0500 (Central Daylight Time),153835.69999998808,A,wife,O,e,130,1,1050.3999999761581,152785.30000001192,7026,WL,B,6.0
1,13.611000061035156,learn,46388.999938964844,Thu Oct 24 2024 13:16:04 GMT-0500 (Central Daylight Time),154051.30000001192,A,wifeenter,O,enter,188,1,1266.0,152785.30000001192,7026,WL,B,6.0
1,15.745000123977661,learn,44254.99987602234,Thu Oct 24 2024 13:16:04 GMT-0500 (Central Daylight Time),156184.60000002384,A,s,O,s,2113,1,2133.100000023842,154051.5,7026,WL,B,7.0
1,15.894999980926514,learn,44105.000019073486,Thu Oct 24 2024 13:16:04 GMT-0500 (Central Daylight Time),156334.69999998808,A,st,O,t,114,1,2283.199999988079,154051.5,7026,WL,B,7.0
1,16.045000076293945,learn,43954.999923706055,Thu Oct 24 2024 13:16:04 GMT-0500 (Central Daylight Time),156484.80000001192,A,sta,O,a,113,1,2433.300000011921,154051.5,7026,WL,B,7.0
1,16.16100001335144,learn,43838.99998664856,Thu Oct 24 2024 13:16:04 GMT-0500 (Central Daylight Time),156601.19999998808,A,star,O,r,77,1,2549.699999988079,154051.5,7026,WL,B,7.0
1,16.509999990463257,learn,43490.00000953674,Thu Oct 24 2024 13:16:04 GMT-0500 (Central Daylight Time),156950.30000001192,A,starenter,O,enter,317,1,2898.800000011921,154051.5,7026,WL,B,7.0
1,20.092000007629395,learn,39907.999992370605,Thu Oct 24 2024 13:16:04 GMT-0500 (Central Daylight Time),160532.5,A,enter,O,enter,3567,1,3581.899999976158,156950.60000002384,7026,WL,B,8.0
1,20.392000198364258,learn,39607.99980163574,Thu Oct 24 2024 13:16:04 GMT-0500 (Central Daylight Time),160832.5,A,enter,O,enter,280,1,299.5999999642372,160532.90000003576,7026,WL,B,9.0
1,20.609000205993652,learn,39390.99979400635,Thu Oct 24 2024 13:16:04 GMT-0500 (Central Daylight Time),161049.10000002384,A,enter,O,enter,204,1,216.19999998807907,160832.90000003576,7026,WL,B,10.0
1,20.825999975204468,learn,39174.00002479553,Thu Oct 24 2024 13:16:04 GMT-0500 (Central Daylight Time),161265.80000001192,A,enter,O,enter,196,1,216.39999997615814,161049.40000003576,7026,WL,B,11.0
1,21.242000102996826,learn,38757.999897003174,Thu Oct 24 2024 13:16:04 GMT-0500 (Central Daylight Time),161682.10000002384,A,enter,O,enter,395,1,415.9000000357628,161266.19999998808,7026,WL,B,12.0
1,21.392000198364258,learn,38607.99980163574,Thu Oct 24 2024 13:16:04 GMT-0500 (Central Daylight Time),161832.19999998808,A,enter,O,enter,130,1,149.79999995231628,161682.40000003576,7026,WL,B,13.0
1,21.592000007629395,learn,38407.999992370605,Thu Oct 24 2024 13:16:04 GMT-0500 (Central Daylight Time),162032.10000002384,A,enter,O,enter,181,1,199.60000002384186,161832.5,7026,WL,B,14.0
1,22.02500009536743,learn,37974.99990463257,Thu Oct 24 2024 13:16:04 GMT-0500 (Central Daylight Time),162465.19999998808,A,enter,O,enter,420,1,432.69999998807907,162032.5,7026,WL,B,15.0
2,0.6160001754760742,learn,59383.999824523926,Thu Oct 24 2024 13:16:04 GMT-0500 (Central Daylight Time),235075.60000002384,A,s,O,s,586,1,616.0,234459.60000002384,7026,WL,B,1.0
2,0.8490002155303955,learn,59150.999784469604,Thu Oct 24 2024 13:16:04 GMT-0500 (Central Daylight Time),235308.69999998808,A,st,O,t,197,1,849.0999999642372,234459.60000002384,7026,WL,B,1.0
2,1.0329999923706055,learn,58967.000007629395,Thu Oct 24 2024 13:16:04 GMT-0500 (Central Daylight Time),235491.90000003576,A,str,O,r,155,1,1032.300000011921,234459.60000002384,7026,WL,B,1.0
2,1.183000087738037,learn,58816.99991226196,Thu Oct 24 2024 13:16:04 GMT-0500 (Central Daylight Time),235641.90000003576,A,stre,O,e,119,1,1182.300000011921,234459.60000002384,7026,WL,B,1.0
2,1.31600022315979,learn,58683.99977684021,Thu Oct 24 2024 13:16:04 GMT-0500 (Central Daylight Time),235775.19999998808,A,stree,O,e,97,1,1315.5999999642372,234459.60000002384,7026,WL,B,1.0
2,1.5160000324249268,learn,58483.99996757507,Thu Oct 24 2024 13:16:04 GMT-0500 (Central Daylight Time),235975.19999998808,A,street,O,t,172,1,1515.5999999642372,234459.60000002384,7026,WL,B,1.0
2,1.815000057220459,learn,58184.99994277954,Thu Oct 24 2024 13:16:04 GMT-0500 (Central Daylight Time),236274.30000001192,A,streetenter,O,enter,267,1,1814.699999988079,234459.60000002384,7026,WL,B,1.0
2,2.0490000247955322,learn,57950.99997520447,Thu Oct 24 2024 13:16:04 GMT-0500 (Central Daylight Time),236508.40000003576,A,g,O,g,220,1,233.9000000357628,236274.5,7026,WL,B,2.0
2,2.2160000801086426,learn,57783.99991989136,Thu Oct 24 2024 13:16:04 GMT-0500 (Central Daylight Time),236675.0,A,gr,O,r,139,1,400.5,236274.5,7026,WL,B,2.0
2,2.2980000972747803,learn,57701.99990272522,Thu Oct 24 2024 13:16:04 GMT-0500 (Central Daylight Time),236757.30000001192,A,gra,O,a,55,1,482.80000001192093,236274.5,7026,WL,B,2.0
2,2.5320000648498535,learn,57467.99993515015,Thu Oct 24 2024 13:16:04 GMT-0500 (Central Daylight Time),236991.69999998808,A,gras,O,s,212,1,717.1999999880791,236274.5,7026,WL,B,2.0
2,2.6490001678466797,learn,57350.99983215332,Thu Oct 24 2024 13:16:04 GMT-0500 (Central Daylight Time),237108.5,A,grass,O,s,92,1,834.0,236274.5,7026,WL,B,2.0
2,2.9150002002716064,learn,57084.99979972839,Thu Oct 24 2024 13:16:04 GMT-0500 (Central Daylight Time),237373.80000001192,A,grassenter,O,enter,242,1,1099.300000011921,236274.5,7026,WL,B,2.0
2,3.8320000171661377,learn,56167.99998283386,Thu Oct 24 2024 13:16:04 GMT-0500 (Central Daylight Time),238291.19999998808,A,d,O,d,904,1,917.0999999642372,237374.10000002384,7026,WL,B,3.0
2,3.9660000801086426,learn,56033.99991989136,Thu Oct 24 2024 13:16:04 GMT-0500 (Central Daylight Time),238424.40000003576,A,do,O,o,97,1,1050.300000011921,237374.10000002384,7026,WL,B,3.0
2,4.0990002155303955,learn,55900.999784469604,Thu Oct 24 2024 13:16:04 GMT-0500 (Central Daylight Time),238557.69999998808,A,doo,O,o,97,1,1183.5999999642372,237374.10000002384,7026,WL,B,3.0
2,4.232000112533569,learn,55767.99988746643,Thu Oct 24 2024 13:16:04 GMT-0500 (Central Daylight Time),238691.10000002384,A,door,O,r,102,1,1317.0,237374.10000002384,7026,WL,B,3.0
2,4.466000080108643,learn,55533.99991989136,Thu Oct 24 2024 13:16:04 GMT-0500 (Central Daylight Time),238924.5,A,doorenter,O,enter,208,1,1550.3999999761581,237374.10000002384,7026,WL,B,3.0
2,4.715000152587891,learn,55284.99984741211,Thu Oct 24 2024 13:16:04 GMT-0500 (Central Daylight Time),239174.10000002384,A,a,O,a,242,1,249.4000000357628,238924.69999998808,7026,WL,B,4.0
2,4.865000009536743,learn,55134.99999046326,Thu Oct 24 2024 13:16:04 GMT-0500 (Central Daylight Time),239324.19999998808,A,ar,O,r,118,1,399.5,238924.69999998808,7026,WL,B,4.0
2,5.015000104904175,learn,54984.999895095825,Thu Oct 24 2024 13:16:04 GMT-0500 (Central Daylight Time),239474.10000002384,A,arm,O,m,113,1,549.4000000357628,238924.69999998808,7026,WL,B,4.0
2,5.248000144958496,learn,54751.999855041504,Thu Oct 24 2024 13:16:04 GMT-0500 (Central Daylight Time),239706.69999998808,A,armenter,O,enter,195,1,782.0,238924.69999998808,7026,WL,B,4.0
2,5.615000009536743,learn,54384.99999046326,Thu Oct 24 2024 13:16:04 GMT-0500 (Central Daylight Time),240074.19999998808,A,s,O,s,347,1,367.19999998807907,239707.0,7026,WL,B,5.0
2,5.748000144958496,learn,54251.999855041504,Thu Oct 24 2024 13:16:04 GMT-0500 (Central Daylight Time),240207.10000002384,A,st,O,t,100,1,500.10000002384186,239707.0,7026,WL,B,5.0
2,5.898000001907349,learn,54101.99999809265,Thu Oct 24 2024 13:16:04 GMT-0500 (Central Daylight Time),240357.10000002384,A,sta,O,a,125,1,650.1000000238419,239707.0,7026,WL,B,5.0
2,6.04800009727478,learn,53951.99990272522,Thu Oct 24 2024 13:16:04 GMT-0500 (Central Daylight Time),240507.10000002384,A,star,O,r,116,1,800.1000000238419,239707.0,7026,WL,B,5.0
2,6.430999994277954,learn,53569.000005722046,Thu Oct 24 2024 13:16:04 GMT-0500 (Central Daylight Time),240889.40000003576,A,starenter,O,enter,351,1,1182.4000000357628,239707.0,7026,WL,B,5.0
2,6.680999994277954,learn,53319.000005722046,Thu Oct 24 2024 13:16:04 GMT-0500 (Central Daylight Time),241140.19999998808,A,w,O,w,237,1,250.5,240889.69999998808,7026,WL,B,6.0
2,6.764000177383423,learn,53235.99982261658,Thu Oct 24 2024 13:16:04 GMT-0500 (Central Daylight Time),241222.80000001192,A,wi,O,i,54,1,333.10000002384186,240889.69999998808,7026,WL,B,6.0
2,6.865000009536743,learn,53134.99999046326,Thu Oct 24 2024 13:16:04 GMT-0500 (Central Daylight Time),241323.30000001192,A,win,O,n,79,1,433.60000002384186,240889.69999998808,7026,WL,B,6.0
2,6.965000152587891,learn,53034.99984741211,Thu Oct 24 2024 13:16:04 GMT-0500 (Central Daylight Time),241423.69999998808,A,wind,O,d,72,1,534.0,240889.69999998808,7026,WL,B,6.0
2,7.13100004196167,learn,52868.99995803833,Thu Oct 24 2024 13:16:04 GMT-0500 (Central Daylight Time),241589.69999998808,A,windo,O,o,141,1,700.0,240889.69999998808,7026,WL,B,6.0
2,7.248000144958496,learn,52751.999855041504,Thu Oct 24 2024 13:16:04 GMT-0500 (Central Daylight Time),241706.60000002384,A,window,O,w,85,1,816.9000000357628,240889.69999998808,7026,WL,B,6.0
2,7.78000020980835,learn,52219.99979019165,Thu Oct 24 2024 13:16:04 GMT-0500 (Central Daylight Time),242239.0,A,windowenter,O,enter,502,1,1349.300000011921,240889.69999998808,7026,WL,B,6.0
2,8.13100004196167,learn,51868.99995803833,Thu Oct 24 2024 13:16:04 GMT-0500 (Central Daylight Time),242589.30000001192,A,w,O,w,343,1,350.0,242239.30000001192,7026,WL,B,7.0
2,8.264000177383423,learn,51735.99982261658,Thu Oct 24 2024 13:16:04 GMT-0500 (Central Daylight Time),242723.0,A,wi,O,i,103,1,483.69999998807907,242239.30000001192,7026,WL,B,7.0
2,8.348000049591064,learn,51651.999950408936,Thu Oct 24 2024 13:16:04 GMT-0500 (Central Daylight Time),242806.30000001192,A,wif,O,f,56,1,567.0,242239.30000001192,7026,WL,B,7.0
2,8.481000185012817,learn,51518.99981498718,Thu Oct 24 2024 13:16:04 GMT-0500 (Central Daylight Time),242939.30000001192,A,wife,O,e,105,1,700.0,242239.30000001192,7026,WL,B,7.0
2,8.680000066757202,learn,51319.9999332428,Thu Oct 24 2024 13:16:04 GMT-0500 (Central Daylight Time),243138.69999998808,A,wifeenter,O,enter,168,1,899.3999999761581,242239.30000001192,7026,WL,B,7.0
2,9.44700002670288,learn,50552.99997329712,Thu Oct 24 2024 13:16:04 GMT-0500 (Central Daylight Time),243905.90000003576,A,c,O,c,748,1,766.9000000357628,243139.0,7026,WL,B,8.0
2,9.547000169754028,learn,50452.99983024597,Thu Oct 24 2024 13:16:04 GMT-0500 (Central Daylight Time),244005.60000002384,A,ci,O,i,74,1,866.6000000238419,243139.0,7026,WL,B,8.0
2,9.69700002670288,learn,50302.99997329712,Thu Oct 24 2024 13:16:04 GMT-0500 (Central Daylight Time),244156.0,A,cit,O,t,120,1,1017.0,243139.0,7026,WL,B,8.0
2,9.880000114440918,learn,50119.99988555908,Thu Oct 24 2024 13:16:04 GMT-0500 (Central Daylight Time),244339.10000002384,A,city,O,y,154,1,1200.1000000238419,243139.0,7026,WL,B,8.0
2,10.09600019454956,learn,49903.99980545044,Thu Oct 24 2024 13:16:04 GMT-0500 (Central Daylight Time),244555.19999998808,A,cityenter,O,enter,195,1,1416.199999988079,243139.0,7026,WL,B,8.0
2,10.430000066757202,learn,49569.9999332428,Thu Oct 24 2024 13:16:04 GMT-0500 (Central Daylight Time),244888.90000003576,A,p,O,p,322,1,333.5,244555.40000003576,7026,WL,B,9.0
2,10.53000020980835,learn,49469.99979019165,Thu Oct 24 2024 13:16:04 GMT-0500 (Central Daylight Time),244988.80000001192,A,pi,O,i,66,1,433.39999997615814,244555.40000003576,7026,WL,B,9.0
2,11.097000122070312,learn,48902.99987792969,Thu Oct 24 2024 13:16:04 GMT-0500 (Central Daylight Time),245555.40000003576,A,pip,O,p,527,1,1000.0,244555.40000003576,7026,WL,B,9.0
2,11.297000169754028,learn,48702.99983024597,Thu Oct 24 2024 13:16:04 GMT-0500 (Central Daylight Time),245755.30000001192,A,pipe,O,e,167,1,1199.8999999761581,244555.40000003576,7026,WL,B,9.0
2,11.562000036239624,learn,48437.999963760376,Thu Oct 24 2024 13:16:04 GMT-0500 (Central Daylight Time),246021.10000002384,A,pipeenter,O,enter,240,1,1465.699999988079,244555.40000003576,7026,WL,B,9.0
2,12.213000059127808,learn,47786.99994087219,Thu Oct 24 2024 13:16:04 GMT-0500 (Central Daylight Time),246671.69999998808,A,f,O,f,633,1,650.3999999761581,246021.30000001192,7026,WL,B,10.0
2,12.295000076293945,learn,47704.999923706055,Thu Oct 24 2024 13:16:04 GMT-0500 (Central Daylight Time),246754.0,A,fi,O,i,50,1,732.6999999880791,246021.30000001192,7026,WL,B,10.0
2,12.396000146865845,learn,47603.999853134155,Thu Oct 24 2024 13:16:04 GMT-0500 (Central Daylight Time),246854.90000003576,A,fir,O,r,91,1,833.6000000238419,246021.30000001192,7026,WL,B,10.0
2,12.495000123977661,learn,47504.99987602234,Thu Oct 24 2024 13:16:04 GMT-0500 (Central Daylight Time),246954.0,A,fire,O,e,62,1,932.6999999880791,246021.30000001192,7026,WL,B,10.0
2,12.629000186920166,learn,47370.999813079834,Thu Oct 24 2024 13:16:04 GMT-0500 (Central Daylight Time),247087.40000003576,A,fireenter,O,enter,120,1,1066.1000000238419,246021.30000001192,7026,WL,B,10.0
2,12.828999996185303,learn,47171.0000038147,Thu Oct 24 2024 13:16:04 GMT-0500 (Central Daylight Time),247287.60000002384,A,c,O,c,190,1,199.9000000357628,247087.69999998808,7026,WL,B,11.0
2,12.92900013923645,learn,47070.99986076355,Thu Oct 24 2024 13:16:04 GMT-0500 (Central Daylight Time),247388.10000002384,A,ca,O,a,79,1,300.4000000357628,247087.69999998808,7026,WL,B,11.0
2,13.09600019454956,learn,46903.99980545044,Thu Oct 24 2024 13:16:04 GMT-0500 (Central Daylight Time),247554.90000003576,A,cab,O,b,128,1,467.2000000476837,247087.69999998808,7026,WL,B,11.0
2,13.213000059127808,learn,46786.99994087219,Thu Oct 24 2024 13:16:04 GMT-0500 (Central Daylight Time),247671.40000003576,A,cabi,O,i,82,1,583.7000000476837,247087.69999998808,7026,WL,B,11.0
2,13.312000036239624,learn,46687.999963760376,Thu Oct 24 2024 13:16:04 GMT-0500 (Central Daylight Time),247770.5,A,cabin,O,n,68,1,682.8000000119209,247087.69999998808,7026,WL,B,11.0
2,14.295000076293945,learn,45704.999923706055,Thu Oct 24 2024 13:16:04 GMT-0500 (Central Daylight Time),248753.5,A,cabinenter,O,enter,956,1,1665.800000011921,247087.69999998808,7026,WL,B,11.0
2,16.6780002117157,learn,43321.9997882843,Thu Oct 24 2024 13:16:04 GMT-0500 (Central Daylight Time),251137.19999998808,A,s,O,s,2372,1,2383.2999999523163,248753.90000003576,7026,WL,B,12.0
2,16.778000116348267,learn,43221.99988365173,Thu Oct 24 2024 13:16:04 GMT-0500 (Central Daylight Time),251236.30000001192,A,sk,O,k,64,1,2482.399999976158,248753.90000003576,7026,WL,B,12.0
2,16.91100001335144,learn,43088.99998664856,Thu Oct 24 2024 13:16:04 GMT-0500 (Central Daylight Time),251370.10000002384,A,ski,O,i,115,1,2616.199999988079,248753.90000003576,7026,WL,B,12.0
2,17.061000108718872,learn,42938.99989128113,Thu Oct 24 2024 13:16:04 GMT-0500 (Central Daylight Time),251520.10000002384,A,skin,O,n,115,1,2766.199999988079,248753.90000003576,7026,WL,B,12.0
2,17.961000204086304,learn,42038.999795913696,Thu Oct 24 2024 13:16:04 GMT-0500 (Central Daylight Time),252420.10000002384,A,skinenter,O,enter,858,1,3666.199999988079,248753.90000003576,7026,WL,B,12.0
2,19.39400005340576,learn,40605.99994659424,Thu Oct 24 2024 13:16:04 GMT-0500 (Central Daylight Time),253852.69999998808,A,p,O,p,1410,1,1432.2999999523163,252420.40000003576,7026,WL,B,13.0
2,20.009999990463257,learn,39990.00000953674,Thu Oct 24 2024 13:16:04 GMT-0500 (Central Daylight Time),254469.0,A,pu,O,u,591,1,2048.599999964237,252420.40000003576,7026,WL,B,13.0
2,20.22699999809265,learn,39773.00000190735,Thu Oct 24 2024 13:16:04 GMT-0500 (Central Daylight Time),254685.80000001192,A,pup,O,p,184,1,2265.399999976158,252420.40000003576,7026,WL,B,13.0
2,20.47699999809265,learn,39523.00000190735,Thu Oct 24 2024 13:16:04 GMT-0500 (Central Daylight Time),254935.69999998808,A,pupi,O,i,214,1,2515.2999999523163,252420.40000003576,7026,WL,B,13.0
2,20.677000045776367,learn,39322.99995422363,Thu Oct 24 2024 13:16:04 GMT-0500 (Central Daylight Time),255135.60000002384,A,pupil,O,l,170,1,2715.199999988079,252420.40000003576,7026,WL,B,13.0
2,21.177000045776367,learn,38822.99995422363,Thu Oct 24 2024 13:16:04 GMT-0500 (Central Daylight Time),255635.60000002384,A,pupilenter,O,enter,463,1,3215.199999988079,252420.40000003576,7026,WL,B,13.0
2,21.54200005531311,learn,38457.99994468689,Thu Oct 24 2024 13:16:04 GMT-0500 (Central Daylight Time),256001.19999998808,A,enter,O,enter,345,1,365.2999999523163,255635.90000003576,7026,WL,B,14.0
2,21.892000198364258,learn,38107.99980163574,Thu Oct 24 2024 13:16:04 GMT-0500 (Central Daylight Time),256351.0,A,enter,O,enter,331,1,349.5,256001.5,7026,WL,B,15.0
3,0.5170001983642578,learn,59482.99980163574,Thu Oct 24 2024 13:16:04 GMT-0500 (Central Daylight Time),327727.40000003576,A,p,O,p,506,1,516.2000000476837,327211.1999999881,7026,WL,B,1.0
3,0.6670000553131104,learn,59332.99994468689,Thu Oct 24 2024 13:16:04 GMT-0500 (Central Daylight Time),327877.40000003576,A,pu,O,u,133,1,666.2000000476837,327211.1999999881,7026,WL,B,1.0
3,0.8159999847412109,learn,59184.00001525879,Thu Oct 24 2024 13:16:04 GMT-0500 (Central Daylight Time),328027.1999999881,A,pup,O,p,142,1,816.0,327211.1999999881,7026,WL,B,1.0
3,1.0500001907348633,learn,58949.99980926514,Thu Oct 24 2024 13:16:04 GMT-0500 (Central Daylight Time),328260.60000002384,A,pupi,O,i,217,1,1049.4000000357628,327211.1999999881,7026,WL,B,1.0
3,1.2160000801086426,learn,58783.99991989136,Thu Oct 24 2024 13:16:04 GMT-0500 (Central Daylight Time),328427.1999999881,A,pupil,O,l,159,1,1216.0,327211.1999999881,7026,WL,B,1.0
3,1.7000000476837158,learn,58299.999952316284,Thu Oct 24 2024 13:16:04 GMT-0500 (Central Daylight Time),328910.40000003576,A,pupilenter,O,enter,465,1,1699.2000000476837,327211.1999999881,7026,WL,B,1.0
3,1.999000072479248,learn,58000.99992752075,Thu Oct 24 2024 13:16:04 GMT-0500 (Central Daylight Time),329210.3000000119,A,c,O,c,285,1,299.69999998807907,328910.60000002384,7026,WL,B,2.0
3,2.116000175476074,learn,57883.999824523926,Thu Oct 24 2024 13:16:04 GMT-0500 (Central Daylight Time),329327.0,A,ca,O,a,106,1,416.39999997615814,328910.60000002384,7026,WL,B,2.0
3,2.2829999923706055,learn,57717.000007629395,Thu Oct 24 2024 13:16:04 GMT-0500 (Central Daylight Time),329493.60000002384,A,cab,O,b,149,1,583.0,328910.60000002384,7026,WL,B,2.0
3,2.3990001678466797,learn,57600.99983215332,Thu Oct 24 2024 13:16:04 GMT-0500 (Central Daylight Time),329610.1999999881,A,cabi,O,i,94,1,699.5999999642372,328910.60000002384,7026,WL,B,2.0
3,2.499000072479248,learn,57500.99992752075,Thu Oct 24 2024 13:16:04 GMT-0500 (Central Daylight Time),329710.10000002384,A,cabin,O,n,90,1,799.5,328910.60000002384,7026,WL,B,2.0
3,2.815999984741211,learn,57184.00001525879,Thu Oct 24 2024 13:16:04 GMT-0500 (Central Daylight Time),330026.90000003576,A,cabinenter,O,enter,310,1,1116.300000011921,328910.60000002384,7026,WL,B,2.0
3,3.381999969482422,learn,56618.00003051758,Thu Oct 24 2024 13:16:04 GMT-0500 (Central Daylight Time),330593.10000002384,A,l,O,l,544,1,565.9000000357628,330027.1999999881,7026,WL,B,3.0
3,3.4820001125335693,learn,56517.99988746643,Thu Oct 24 2024 13:16:04 GMT-0500 (Central Daylight Time),330693.10000002384,A,la,O,a,83,1,665.9000000357628,330027.1999999881,7026,WL,B,3.0
3,3.5989999771118164,learn,56401.00002288818,Thu Oct 24 2024 13:16:04 GMT-0500 (Central Daylight Time),330809.8000000119,A,lak,O,k,103,1,782.6000000238419,330027.1999999881,7026,WL,B,3.0
3,3.7320001125335693,learn,56267.99988746643,Thu Oct 24 2024 13:16:04 GMT-0500 (Central Daylight Time),330943.0,A,lake,O,e,114,1,915.8000000119209,330027.1999999881,7026,WL,B,3.0
3,3.949000120162964,learn,56050.999879837036,Thu Oct 24 2024 13:16:04 GMT-0500 (Central Daylight Time),331159.60000002384,A,lakeenter,O,enter,205,1,1132.4000000357628,330027.1999999881,7026,WL,B,3.0
3,4.348999977111816,learn,55651.00002288818,Thu Oct 24 2024 13:16:04 GMT-0500 (Central Daylight Time),331559.5,A,s,O,s,389,1,399.5999999642372,331159.90000003576,7026,WL,B,4.0
3,4.631999969482422,learn,55368.00003051758,Thu Oct 24 2024 13:16:04 GMT-0500 (Central Daylight Time),331843.0,A,si,O,i,277,1,683.0999999642372,331159.90000003576,7026,WL,B,4.0
3,5.0320000648498535,learn,54967.99993515015,Thu Oct 24 2024 13:16:04 GMT-0500 (Central Daylight Time),332242.6999999881,A,s,O,backspace,385,1,1082.7999999523163,331159.90000003576,7026,WL,B,4.0
3,5.232000112533569,learn,54767.99988746643,Thu Oct 24 2024 13:16:04 GMT-0500 (Central Daylight Time),332442.60000002384,A,sk,O,k,186,1,1282.699999988079,331159.90000003576,7026,WL,B,4.0
3,5.4150002002716064,learn,54584.99979972839,Thu Oct 24 2024 13:16:04 GMT-0500 (Central Daylight Time),332625.8000000119,A,ski,O,i,169,1,1465.8999999761581,331159.90000003576,7026,WL,B,4.0
3,5.498000144958496,learn,54501.999855041504,Thu Oct 24 2024 13:16:04 GMT-0500 (Central Daylight Time),332709.1999999881,A,skin,O,n,74,1,1549.2999999523163,331159.90000003576,7026,WL,B,4.0
3,5.998000144958496,learn,54001.999855041504,Thu Oct 24 2024 13:16:04 GMT-0500 (Central Daylight Time),333209.0,A,skinenter,O,enter,479,1,2049.099999964237,331159.90000003576,7026,WL,B,4.0
3,7.364000082015991,learn,52635.99991798401,Thu Oct 24 2024 13:16:04 GMT-0500 (Central Daylight Time),334575.10000002384,A,s,O,s,1354,1,1365.9000000357628,333209.1999999881,7026,WL,B,5.0
3,7.581000089645386,learn,52418.999910354614,Thu Oct 24 2024 13:16:04 GMT-0500 (Central Daylight Time),334791.6999999881,A,st,O,t,205,1,1582.5,333209.1999999881,7026,WL,B,5.0
3,7.79800009727478,learn,52201.99990272522,Thu Oct 24 2024 13:16:04 GMT-0500 (Central Daylight Time),335008.5,A,str,O,r,205,1,1799.300000011921,333209.1999999881,7026,WL,B,5.0
3,7.914000034332275,learn,52085.999965667725,Thu Oct 24 2024 13:16:04 GMT-0500 (Central Daylight Time),335125.10000002384,A,stre,O,e,108,1,1915.9000000357628,333209.1999999881,7026,WL,B,5.0
3,8.031000137329102,learn,51968.9998626709,Thu Oct 24 2024 13:16:04 GMT-0500 (Central Daylight Time),335241.60000002384,A,stree,O,e,103,1,2032.4000000357628,333209.1999999881,7026,WL,B,5.0
3,8.264000177383423,learn,51735.99982261658,Thu Oct 24 2024 13:16:04 GMT-0500 (Central Daylight Time),335474.90000003576,A,street,O,t,227,1,2265.7000000476837,333209.1999999881,7026,WL,B,5.0
3,8.581000089645386,learn,51418.999910354614,Thu Oct 24 2024 13:16:04 GMT-0500 (Central Daylight Time),335791.40000003576,A,streetenter,O,enter,297,1,2582.2000000476837,333209.1999999881,7026,WL,B,5.0
3,8.781000137329102,learn,51218.9998626709,Thu Oct 24 2024 13:16:04 GMT-0500 (Central Daylight Time),335991.40000003576,A,d,O,d,180,1,199.70000004768372,335791.6999999881,7026,WL,B,6.0
3,8.930000066757202,learn,51069.9999332428,Thu Oct 24 2024 13:16:04 GMT-0500 (Central Daylight Time),336141.3000000119,A,do,O,o,133,1,349.60000002384186,335791.6999999881,7026,WL,B,6.0
3,9.080000162124634,learn,50919.999837875366,Thu Oct 24 2024 13:16:04 GMT-0500 (Central Daylight Time),336291.3000000119,A,doo,O,o,143,1,499.60000002384186,335791.6999999881,7026,WL,B,6.0
3,9.430000066757202,learn,50569.9999332428,Thu Oct 24 2024 13:16:04 GMT-0500 (Central Daylight Time),336641.1999999881,A,door,O,r,329,1,849.5,335791.6999999881,7026,WL,B,6.0
3,9.897000074386597,learn,50102.9999256134,Thu Oct 24 2024 13:16:04 GMT-0500 (Central Daylight Time),337107.60000002384,A,doorenter,O,enter,459,1,1315.9000000357628,335791.6999999881,7026,WL,B,6.0
3,11.61300015449524,learn,48386.99984550476,Thu Oct 24 2024 13:16:04 GMT-0500 (Central Daylight Time),338823.8000000119,A,c,O,c,1705,1,1715.8999999761581,337107.90000003576,7026,WL,B,7.0
3,11.730000019073486,learn,48269.999980926514,Thu Oct 24 2024 13:16:04 GMT-0500 (Central Daylight Time),338940.40000003576,A,ci,O,i,109,1,1832.5,337107.90000003576,7026,WL,B,7.0
3,11.896000146865845,learn,48103.999853134155,Thu Oct 24 2024 13:16:04 GMT-0500 (Central Daylight Time),339107.0,A,cit,O,t,144,1,1999.0999999642372,337107.90000003576,7026,WL,B,7.0
3,12.078999996185303,learn,47921.0000038147,Thu Oct 24 2024 13:16:04 GMT-0500 (Central Daylight Time),339290.40000003576,A,city,O,y,161,1,2182.5,337107.90000003576,7026,WL,B,7.0
3,12.163000106811523,learn,47836.99989318848,Thu Oct 24 2024 13:16:04 GMT-0500 (Central Daylight Time),339373.60000002384,A,cityenter,O,enter,73,1,2265.699999988079,337107.90000003576,7026,WL,B,7.0
3,12.313000202178955,learn,47686.999797821045,Thu Oct 24 2024 13:16:04 GMT-0500 (Central Daylight Time),339523.5,A,w,O,w,142,1,149.69999998807907,339373.8000000119,7026,WL,B,8.0
3,12.563000202178955,learn,47436.999797821045,Thu Oct 24 2024 13:16:04 GMT-0500 (Central Daylight Time),339773.5,A,wi,O,i,233,1,399.69999998807907,339373.8000000119,7026,WL,B,8.0
3,12.896000146865845,learn,47103.999853134155,Thu Oct 24 2024 13:16:04 GMT-0500 (Central Daylight Time),340106.6999999881,A,wif,O,f,310,1,732.8999999761581,339373.8000000119,7026,WL,B,8.0
3,13.046000003814697,learn,46953.9999961853,Thu Oct 24 2024 13:16:04 GMT-0500 (Central Daylight Time),340256.60000002384,A,wife,O,e,129,1,882.8000000119209,339373.8000000119,7026,WL,B,8.0
3,13.562000036239624,learn,46437.999963760376,Thu Oct 24 2024 13:16:04 GMT-0500 (Central Daylight Time),340773.0,A,wifeenter,O,enter,507,1,1399.199999988079,339373.8000000119,7026,WL,B,8.0
3,14.046000003814697,learn,45953.9999961853,Thu Oct 24 2024 13:16:04 GMT-0500 (Central Daylight Time),341257.3000000119,A,w,O,w,473,1,484.0,340773.3000000119,7026,WL,B,9.0
3,14.130000114440918,learn,45869.99988555908,Thu Oct 24 2024 13:16:04 GMT-0500 (Central Daylight Time),341340.60000002384,A,wi,O,i,59,1,567.3000000119209,340773.3000000119,7026,WL,B,9.0
3,14.229000091552734,learn,45770.999908447266,Thu Oct 24 2024 13:16:04 GMT-0500 (Central Daylight Time),341440.40000003576,A,win,O,n,71,1,667.1000000238419,340773.3000000119,7026,WL,B,9.0
3,14.330000162124634,learn,45669.999837875366,Thu Oct 24 2024 13:16:04 GMT-0500 (Central Daylight Time),341540.60000002384,A,wind,O,d,67,1,767.3000000119209,340773.3000000119,7026,WL,B,9.0
3,14.42900013923645,learn,45570.99986076355,Thu Oct 24 2024 13:16:04 GMT-0500 (Central Daylight Time),341639.90000003576,A,windo,O,o,66,1,866.6000000238419,340773.3000000119,7026,WL,B,9.0
3,14.513000011444092,learn,45486.99998855591,Thu Oct 24 2024 13:16:04 GMT-0500 (Central Daylight Time),341723.40000003576,A,window,O,w,70,1,950.1000000238419,340773.3000000119,7026,WL,B,9.0
3,14.945000171661377,learn,45054.99982833862,Thu Oct 24 2024 13:16:04 GMT-0500 (Central Daylight Time),342156.0,A,windowenter,O,enter,418,1,1382.699999988079,340773.3000000119,7026,WL,B,9.0
3,25.4760000705719,learn,34523.9999294281,Thu Oct 24 2024 13:16:04 GMT-0500 (Central Daylight Time),352686.8000000119,A,s,O,s,10514,1,10530.600000023842,342156.1999999881,7026,WL,B,10.0
3,25.64300012588501,learn,34356.99987411499,Thu Oct 24 2024 13:16:04 GMT-0500 (Central Daylight Time),352853.6999999881,A,st,O,t,143,1,10697.5,342156.1999999881,7026,WL,B,10.0
3,25.825999975204468,learn,34174.00002479553,Thu Oct 24 2024 13:16:04 GMT-0500 (Central Daylight Time),353036.6999999881,A,sta,O,a,158,1,10880.5,342156.1999999881,7026,WL,B,10.0
3,25.942000150680542,learn,34057.99984931946,Thu Oct 24 2024 13:16:04 GMT-0500 (Central Daylight Time),353153.40000003576,A,star,O,r,88,1,10997.200000047684,342156.1999999881,7026,WL,B,10.0
3,26.20900011062622,learn,33790.99988937378,Thu Oct 24 2024 13:16:04 GMT-0500 (Central Daylight Time),353420.3000000119,A,starenter,O,enter,233,1,11264.100000023842,342156.1999999881,7026,WL,B,10.0
3,29.625,learn,30375.0,Thu Oct 24 2024 13:16:04 GMT-0500 (Central Daylight Time),356835.5,A,g,O,g,3402,1,3415.0,353420.5,7026,WL,B,11.0
3,30.058000087738037,learn,29941.999912261963,Thu Oct 24 2024 13:16:04 GMT-0500 (Central Daylight Time),357269.0,A,gr,O,r,401,1,3848.5,353420.5,7026,WL,B,11.0
3,30.174000024795532,learn,29825.999975204468,Thu Oct 24 2024 13:16:04 GMT-0500 (Central Daylight Time),357384.6999999881,A,gra,O,a,86,1,3964.199999988079,353420.5,7026,WL,B,11.0
3,30.241000175476074,learn,29758.999824523926,Thu Oct 24 2024 13:16:04 GMT-0500 (Central Daylight Time),357451.60000002384,A,gras,O,s,53,1,4031.100000023842,353420.5,7026,WL,B,11.0
3,30.425000190734863,learn,29574.999809265137,Thu Oct 24 2024 13:16:04 GMT-0500 (Central Daylight Time),357635.5,A,grass,O,s,149,1,4215.0,353420.5,7026,WL,B,11.0
3,30.67300009727478,learn,29326.99990272522,Thu Oct 24 2024 13:16:04 GMT-0500 (Central Daylight Time),357884.3000000119,A,grassenter,O,enter,223,1,4463.800000011921,353420.5,7026,WL,B,11.0
3,30.94000005722046,learn,29059.99994277954,Thu Oct 24 2024 13:16:04 GMT-0500 (Central Daylight Time),358151.10000002384,A,enter,O,enter,249,1,266.69999998807907,357884.40000003576,7026,WL,B,12.0
3,31.174000024795532,learn,28825.999975204468,Thu Oct 24 2024 13:16:04 GMT-0500 (Central Daylight Time),358384.10000002384,A,enter,O,enter,222,1,232.69999998807907,358151.40000003576,7026,WL,B,13.0
3,31.52400016784668,learn,28475.99983215332,Thu Oct 24 2024 13:16:04 GMT-0500 (Central Daylight Time),358733.90000003576,A,enter,O,enter,332,1,349.5,358384.40000003576,7026,WL,B,14.0
3,31.824000120162964,learn,28175.999879837036,Thu Oct 24 2024 13:16:04 GMT-0500 (Central Daylight Time),359033.6999999881,A,enter,O,enter,287,1,299.39999997615814,358734.3000000119,7026,WL,B,15.0
4,1.7990000247955322,learn,58200.99997520447,Thu Oct 24 2024 13:16:04 GMT-0500 (Central Daylight Time),426912.5,A,s,O,s,1764,1,1798.800000011921,425113.6999999881,7026,WL,B,1.0
4,2.0160000324249268,learn,57983.99996757507,Thu Oct 24 2024 13:16:04 GMT-0500 (Central Daylight Time),427129.0,A,st,O,t,186,1,2015.300000011921,425113.6999999881,7026,WL,B,1.0
4,2.2150001525878906,learn,57784.99984741211,Thu Oct 24 2024 13:16:04 GMT-0500 (Central Daylight Time),427328.90000003576,A,str,O,r,172,1,2215.2000000476837,425113.6999999881,7026,WL,B,1.0
4,2.365999937057495,learn,57634.000062942505,Thu Oct 24 2024 13:16:04 GMT-0500 (Central Daylight Time),427479.1999999881,A,stre,O,e,124,1,2365.5,425113.6999999881,7026,WL,B,1.0
4,2.515000104904175,learn,57484.999895095825,Thu Oct 24 2024 13:16:04 GMT-0500 (Central Daylight Time),427628.8000000119,A,stree,O,e,116,1,2515.100000023842,425113.6999999881,7026,WL,B,1.0
4,2.881999969482422,learn,57118.00003051758,Thu Oct 24 2024 13:16:04 GMT-0500 (Central Daylight Time),427995.40000003576,A,street,O,t,335,1,2881.7000000476837,425113.6999999881,7026,WL,B,1.0
4,3.38100004196167,learn,56618.99995803833,Thu Oct 24 2024 13:16:04 GMT-0500 (Central Daylight Time),428494.3000000119,A,streetenter,O,enter,463,1,3380.600000023842,425113.6999999881,7026,WL,B,1.0
4,3.615000009536743,learn,56384.99999046326,Thu Oct 24 2024 13:16:04 GMT-0500 (Central Daylight Time),428728.40000003576,A,g,O,g,216,1,233.80000001192093,428494.60000002384,7026,WL,B,2.0
4,3.7980000972747803,learn,56201.99990272522,Thu Oct 24 2024 13:16:04 GMT-0500 (Central Daylight Time),428911.90000003576,A,gr,O,r,155,1,417.30000001192093,428494.60000002384,7026,WL,B,2.0
4,3.8980000019073486,learn,56101.99999809265,Thu Oct 24 2024 13:16:04 GMT-0500 (Central Daylight Time),429011.10000002384,A,gra,O,a,59,1,516.5,428494.60000002384,7026,WL,B,2.0
4,4.148999929428101,learn,55851.0000705719,Thu Oct 24 2024 13:16:04 GMT-0500 (Central Daylight Time),429262.40000003576,A,gras,O,s,226,1,767.8000000119209,428494.60000002384,7026,WL,B,2.0
4,4.265000104904175,learn,55734.999895095825,Thu Oct 24 2024 13:16:04 GMT-0500 (Central Daylight Time),429378.40000003576,A,grass,O,s,80,1,883.8000000119209,428494.60000002384,7026,WL,B,2.0
4,4.8470001220703125,learn,55152.99987792969,Thu Oct 24 2024 13:16:04 GMT-0500 (Central Daylight Time),429960.5,A,grassenter,O,enter,545,1,1465.8999999761581,428494.60000002384,7026,WL,B,2.0
4,5.697999954223633,learn,54302.00004577637,Thu Oct 24 2024 13:16:04 GMT-0500 (Central Daylight Time),430811.1999999881,A,d,O,d,838,1,850.3999999761581,429960.8000000119,7026,WL,B,3.0
4,5.88100004196167,learn,54118.99995803833,Thu Oct 24 2024 13:16:04 GMT-0500 (Central Daylight Time),430994.40000003576,A,do,O,o,153,1,1033.6000000238419,429960.8000000119,7026,WL,B,3.0
4,6.013999938964844,learn,53986.000061035156,Thu Oct 24 2024 13:16:04 GMT-0500 (Central Daylight Time),431127.6999999881,A,doo,O,o,106,1,1166.8999999761581,429960.8000000119,7026,WL,B,3.0
4,6.197999954223633,learn,53802.00004577637,Thu Oct 24 2024 13:16:04 GMT-0500 (Central Daylight Time),431311.10000002384,A,door,O,r,152,1,1350.300000011921,429960.8000000119,7026,WL,B,3.0
4,6.413000106811523,learn,53586.99989318848,Thu Oct 24 2024 13:16:04 GMT-0500 (Central Daylight Time),431526.60000002384,A,doorenter,O,enter,189,1,1565.800000011921,429960.8000000119,7026,WL,B,3.0
4,6.8470001220703125,learn,53152.99987792969,Thu Oct 24 2024 13:16:04 GMT-0500 (Central Daylight Time),431960.6999999881,A,a,O,a,424,1,433.7999999523163,431526.90000003576,7026,WL,B,4.0
4,6.980000019073486,learn,53019.999980926514,Thu Oct 24 2024 13:16:04 GMT-0500 (Central Daylight Time),432093.8000000119,A,ar,O,r,108,1,566.8999999761581,431526.90000003576,7026,WL,B,4.0
4,7.130000114440918,learn,52869.99988555908,Thu Oct 24 2024 13:16:04 GMT-0500 (Central Daylight Time),432243.90000003576,A,arm,O,m,119,1,717.0,431526.90000003576,7026,WL,B,4.0
4,7.546999931335449,learn,52453.00006866455,Thu Oct 24 2024 13:16:04 GMT-0500 (Central Daylight Time),432660.6999999881,A,armenter,O,enter,391,1,1133.7999999523163,431526.90000003576,7026,WL,B,4.0
4,7.864000082015991,learn,52135.99991798401,Thu Oct 24 2024 13:16:04 GMT-0500 (Central Daylight Time),432977.3000000119,A,w,O,w,306,1,316.39999997615814,432660.90000003576,7026,WL,B,5.0
4,7.980000019073486,learn,52019.999980926514,Thu Oct 24 2024 13:16:04 GMT-0500 (Central Daylight Time),433093.40000003576,A,wi,O,i,89,1,432.5,432660.90000003576,7026,WL,B,5.0
4,8.114000082015991,learn,51885.99991798401,Thu Oct 24 2024 13:16:04 GMT-0500 (Central Daylight Time),433227.10000002384,A,wif,O,f,100,1,566.1999999880791,432660.90000003576,7026,WL,B,5.0
4,8.246999979019165,learn,51753.000020980835,Thu Oct 24 2024 13:16:04 GMT-0500 (Central Daylight Time),433360.40000003576,A,wife,O,e,105,1,699.5,432660.90000003576,7026,WL,B,5.0
4,8.479000091552734,learn,51520.999908447266,Thu Oct 24 2024 13:16:04 GMT-0500 (Central Daylight Time),433592.8000000119,A,wifeenter,O,enter,194,1,931.8999999761581,432660.90000003576,7026,WL,B,5.0
4,8.712000131607056,learn,51287.999868392944,Thu Oct 24 2024 13:16:04 GMT-0500 (Central Daylight Time),433825.8000000119,A,w,O,w,213,1,232.80000001192093,433593.0,7026,WL,B,6.0
4,8.796000003814697,learn,51203.9999961853,Thu Oct 24 2024 13:16:04 GMT-0500 (Central Daylight Time),433909.10000002384,A,wi,O,i,66,1,316.10000002384186,433593.0,7026,WL,B,6.0
4,8.911999940872192,learn,51088.00005912781,Thu Oct 24 2024 13:16:04 GMT-0500 (Central Daylight Time),434025.6999999881,A,win,O,n,103,1,432.69999998807907,433593.0,7026,WL,B,6.0
4,9.02999997138977,learn,50970.00002861023,Thu Oct 24 2024 13:16:04 GMT-0500 (Central Daylight Time),434143.40000003576,A,wind,O,d,100,1,550.4000000357628,433593.0,7026,WL,B,6.0
4,9.196000099182129,learn,50803.99990081787,Thu Oct 24 2024 13:16:04 GMT-0500 (Central Daylight Time),434309.6999999881,A,windo,O,o,142,1,716.6999999880791,433593.0,7026,WL,B,6.0
4,9.36300015449524,learn,50636.99984550476,Thu Oct 24 2024 13:16:04 GMT-0500 (Central Daylight Time),434476.8000000119,A,window,O,w,142,1,883.8000000119209,433593.0,7026,WL,B,6.0
4,9.646000146865845,learn,50353.999853134155,Thu Oct 24 2024 13:16:04 GMT-0500 (Central Daylight Time),434758.90000003576,A,windowenter,O,enter,253,1,1165.9000000357628,433593.0,7026,WL,B,6.0
4,9.946000099182129,learn,50053.99990081787,Thu Oct 24 2024 13:16:04 GMT-0500 (Central Daylight Time),435059.90000003576,A,c,O,c,287,1,300.60000002384186,434759.3000000119,7026,WL,B,7.0
4,10.029000043869019,learn,49970.99995613098,Thu Oct 24 2024 13:16:04 GMT-0500 (Central Daylight Time),435143.0,A,ci,O,i,56,1,383.69999998807907,434759.3000000119,7026,WL,B,7.0
4,10.196000099182129,learn,49803.99990081787,Thu Oct 24 2024 13:16:04 GMT-0500 (Central Daylight Time),435309.6999999881,A,cit,O,t,134,1,550.3999999761581,434759.3000000119,7026,WL,B,7.0
4,10.396000146865845,learn,49603.999853134155,Thu Oct 24 2024 13:16:04 GMT-0500 (Central Daylight Time),435509.5,A,city,O,y,166,1,750.1999999880791,434759.3000000119,7026,WL,B,7.0
4,10.67900013923645,learn,49320.99986076355,Thu Oct 24 2024 13:16:04 GMT-0500 (Central Daylight Time),435792.0,A,cityenter,O,enter,254,1,1032.699999988079,434759.3000000119,7026,WL,B,7.0
4,12.029000043869019,learn,47970.99995613098,Thu Oct 24 2024 13:16:04 GMT-0500 (Central Daylight Time),437142.3000000119,A,f,O,f,1342,1,1350.1000000238419,435792.1999999881,7026,WL,B,8.0
4,12.144999980926514,learn,47855.000019073486,Thu Oct 24 2024 13:16:04 GMT-0500 (Central Daylight Time),437258.90000003576,A,fi,O,i,81,1,1466.7000000476837,435792.1999999881,7026,WL,B,8.0
4,12.26200008392334,learn,47737.99991607666,Thu Oct 24 2024 13:16:04 GMT-0500 (Central Daylight Time),437375.6999999881,A,fir,O,r,83,1,1583.5,435792.1999999881,7026,WL,B,8.0
4,12.378999948501587,learn,47621.00005149841,Thu Oct 24 2024 13:16:04 GMT-0500 (Central Daylight Time),437492.10000002384,A,fire,O,e,77,1,1699.9000000357628,435792.1999999881,7026,WL,B,8.0
4,12.57800006866455,learn,47421.99993133545,Thu Oct 24 2024 13:16:04 GMT-0500 (Central Daylight Time),437691.3000000119,A,fireenter,O,enter,167,1,1899.1000000238419,435792.1999999881,7026,WL,B,8.0
4,13.144999980926514,learn,46855.000019073486,Thu Oct 24 2024 13:16:04 GMT-0500 (Central Daylight Time),438258.6999999881,A,c,O,c,547,1,567.0999999642372,437691.60000002384,7026,WL,B,9.0
4,13.210999965667725,learn,46789.000034332275,Thu Oct 24 2024 13:16:04 GMT-0500 (Central Daylight Time),438324.40000003576,A,ca,O,a,32,1,632.8000000119209,437691.60000002384,7026,WL,B,9.0
4,13.411999940872192,learn,46588.00005912781,Thu Oct 24 2024 13:16:04 GMT-0500 (Central Daylight Time),438525.3000000119,A,cab,O,b,181,1,833.6999999880791,437691.60000002384,7026,WL,B,9.0
4,13.545000076293945,learn,46454.999923706055,Thu Oct 24 2024 13:16:04 GMT-0500 (Central Daylight Time),438658.6999999881,A,cabi,O,i,96,1,967.0999999642372,437691.60000002384,7026,WL,B,9.0
4,13.628000020980835,learn,46371.999979019165,Thu Oct 24 2024 13:16:04 GMT-0500 (Central Daylight Time),438741.8000000119,A,cabin,O,n,49,1,1050.199999988079,437691.60000002384,7026,WL,B,9.0
4,13.92799997329712,learn,46072.00002670288,Thu Oct 24 2024 13:16:04 GMT-0500 (Central Daylight Time),439040.90000003576,A,cabinenter,O,enter,260,1,1349.300000011921,437691.60000002384,7026,WL,B,9.0
4,14.227999925613403,learn,45772.0000743866,Thu Oct 24 2024 13:16:04 GMT-0500 (Central Daylight Time),439341.1999999881,A,p,O,p,293,1,300.0,439041.1999999881,7026,WL,B,10.0
4,14.311000108718872,learn,45688.99989128113,Thu Oct 24 2024 13:16:04 GMT-0500 (Central Daylight Time),439424.3000000119,A,pu,O,u,55,1,383.10000002384186,439041.1999999881,7026,WL,B,10.0
4,14.778000116348267,learn,45221.99988365173,Thu Oct 24 2024 13:16:04 GMT-0500 (Central Daylight Time),439891.6999999881,A,pup,O,p,438,1,850.5,439041.1999999881,7026,WL,B,10.0
4,14.977999925613403,learn,45022.0000743866,Thu Oct 24 2024 13:16:04 GMT-0500 (Central Daylight Time),440091.40000003576,A,pupi,O,i,161,1,1050.2000000476837,439041.1999999881,7026,WL,B,10.0
4,15.16100001335144,learn,44838.99998664856,Thu Oct 24 2024 13:16:04 GMT-0500 (Central Daylight Time),440274.5,A,pupil,O,l,145,1,1233.300000011921,439041.1999999881,7026,WL,B,10.0
4,15.410000085830688,learn,44589.99991416931,Thu Oct 24 2024 13:16:04 GMT-0500 (Central Daylight Time),440523.6999999881,A,pupilenter,O,enter,218,1,1482.5,439041.1999999881,7026,WL,B,10.0
4,15.67799997329712,learn,44322.00002670288,Thu Oct 24 2024 13:16:04 GMT-0500 (Central Daylight Time),440791.3000000119,A,c,O,c,250,1,267.30000001192093,440524.0,7026,WL,B,11.0
4,15.794000148773193,learn,44205.99985122681,Thu Oct 24 2024 13:16:04 GMT-0500 (Central Daylight Time),440907.8000000119,A,cl,O,l,76,1,383.80000001192093,440524.0,7026,WL,B,11.0
4,15.944000005722046,learn,44055.999994277954,Thu Oct 24 2024 13:16:04 GMT-0500 (Central Daylight Time),441057.8000000119,A,clo,O,o,124,1,533.8000000119209,440524.0,7026,WL,B,11.0
4,16.044000148773193,learn,43955.99985122681,Thu Oct 24 2024 13:16:04 GMT-0500 (Central Daylight Time),441157.40000003576,A,cloc,O,c,78,1,633.4000000357628,440524.0,7026,WL,B,11.0
4,16.14400005340576,learn,43855.99994659424,Thu Oct 24 2024 13:16:04 GMT-0500 (Central Daylight Time),441257.1999999881,A,clock,O,k,70,1,733.1999999880791,440524.0,7026,WL,B,11.0
4,16.610000133514404,learn,43389.999866485596,Thu Oct 24 2024 13:16:04 GMT-0500 (Central Daylight Time),441723.3000000119,A,clockenter,O,enter,426,1,1199.300000011921,440524.0,7026,WL,B,11.0
4,22.575000047683716,learn,37424.999952316284,Thu Oct 24 2024 13:16:04 GMT-0500 (Central Daylight Time),447688.90000003576,A,p,O,p,5955,1,5965.300000011921,441723.60000002384,7026,WL,B,12.0
4,22.759000062942505,learn,37240.999937057495,Thu Oct 24 2024 13:16:04 GMT-0500 (Central Daylight Time),447872.1999999881,A,pi,O,i,158,1,6148.599999964237,441723.60000002384,7026,WL,B,12.0
4,22.94099998474121,learn,37059.00001525879,Thu Oct 24 2024 13:16:04 GMT-0500 (Central Daylight Time),448054.90000003576,A,pip,O,p,154,1,6331.300000011921,441723.60000002384,7026,WL,B,12.0
4,23.192000150680542,learn,36807.99984931946,Thu Oct 24 2024 13:16:04 GMT-0500 (Central Daylight Time),448305.40000003576,A,pipe,O,e,231,1,6581.800000011921,441723.60000002384,7026,WL,B,12.0
4,23.391000032424927,learn,36608.99996757507,Thu Oct 24 2024 13:16:04 GMT-0500 (Central Daylight Time),448504.5,A,pipeenter,O,enter,163,1,6780.899999976158,441723.60000002384,7026,WL,B,12.0
4,25.157999992370605,learn,34842.000007629395,Thu Oct 24 2024 13:16:04 GMT-0500 (Central Daylight Time),450271.40000003576,A,l,O,l,1750,1,1766.7000000476837,448504.6999999881,7026,WL,B,13.0
4,25.27500009536743,learn,34724.99990463257,Thu Oct 24 2024 13:16:04 GMT-0500 (Central Daylight Time),450388.0,A,la,O,a,84,1,1883.300000011921,448504.6999999881,7026,WL,B,13.0
4,25.407999992370605,learn,34592.000007629395,Thu Oct 24 2024 13:16:04 GMT-0500 (Central Daylight Time),450521.3000000119,A,lak,O,k,107,1,2016.6000000238419,448504.6999999881,7026,WL,B,13.0
4,25.54100012779236,learn,34458.99987220764,Thu Oct 24 2024 13:16:04 GMT-0500 (Central Daylight Time),450654.60000002384,A,lake,O,e,101,1,2149.900000035763,448504.6999999881,7026,WL,B,13.0
4,26.006999969482422,learn,33993.00003051758,Thu Oct 24 2024 13:16:04 GMT-0500 (Central Daylight Time),451120.1999999881,A,lakeenter,O,enter,428,1,2615.5,448504.6999999881,7026,WL,B,13.0
4,26.258000135421753,learn,33741.99986457825,Thu Oct 24 2024 13:16:04 GMT-0500 (Central Daylight Time),451371.0,A,s,O,s,230,1,250.5,451120.5,7026,WL,B,14.0
4,26.308000087738037,learn,33691.99991226196,Thu Oct 24 2024 13:16:04 GMT-0500 (Central Daylight Time),451421.5,A,sk,O,k,26,1,301.0,451120.5,7026,WL,B,14.0
4,26.490999937057495,learn,33509.000062942505,Thu Oct 24 2024 13:16:04 GMT-0500 (Central Daylight Time),451604.6999999881,A,ski,O,i,170,1,484.19999998807907,451120.5,7026,WL,B,14.0
4,26.624000072479248,learn,33375.99992752075,Thu Oct 24 2024 13:16:04 GMT-0500 (Central Daylight Time),451737.40000003576,A,skin,O,n,97,1,616.9000000357628,451120.5,7026,WL,B,14.0
4,26.890000104904175,learn,33109.999895095825,Thu Oct 24 2024 13:16:04 GMT-0500 (Central Daylight Time),452003.3000000119,A,skinenter,O,enter,235,1,882.8000000119209,451120.5,7026,WL,B,14.0
4,30.039999961853027,learn,29960.000038146973,Thu Oct 24 2024 13:16:04 GMT-0500 (Central Daylight Time),455153.10000002384,A,w,O,w,3139,1,3149.5,452003.60000002384,7026,WL,B,15.0
4,30.822999954223633,learn,29177.000045776367,Thu Oct 24 2024 13:16:04 GMT-0500 (Central Daylight Time),455936.10000002384,A,wi,O,i,747,1,3932.5,452003.60000002384,7026,WL,B,15.0
4,30.939000129699707,learn,29060.999870300293,Thu Oct 24 2024 13:16:04 GMT-0500 (Central Daylight Time),456052.8000000119,A,win,O,n,84,1,4049.199999988079,452003.60000002384,7026,WL,B,15.0
4,31.138999938964844,learn,28861.000061035156,Thu Oct 24 2024 13:16:04 GMT-0500 (Central Daylight Time),456252.90000003576,A,wind,O,d,175,1,4249.300000011921,452003.60000002384,7026,WL,B,15.0
4,31.289000034332275,learn,28710.999965667725,Thu Oct 24 2024 13:16:04 GMT-0500 (Central Daylight Time),456402.40000003576,A,windo,O,o,123,1,4398.800000011921,452003.60000002384,7026,WL,B,15.0
4,31.456000089645386,learn,28543.999910354614,Thu Oct 24 2024 13:16:04 GMT-0500 (Central Daylight Time),456569.40000003576,A,window,O,w,140,1,4565.800000011921,452003.60000002384,7026,WL,B,15.0
4,31.621999979019165,learn,28378.000020980835,Thu Oct 24 2024 13:16:04 GMT-0500 (Central Daylight Time),456735.0,A,windowenter,O,enter,138,1,4731.399999976158,452003.60000002384,7026,WL,B,15.0
5,0.5520000457763672,learn,60000.0,Thu Oct 24 2024 13:16:04 GMT-0500 (Central Daylight Time),523365.40000003576,A,s,O,s,536,1,552.0,522813.40000003576,7026,WL,B,1.0
5,0.7829999923706055,learn,60000.0,Thu Oct 24 2024 13:16:04 GMT-0500 (Central Daylight Time),523596.40000003576,A,st,O,t,196,1,783.0,522813.40000003576,7026,WL,B,1.0
5,0.9839999675750732,learn,60000.0,Thu Oct 24 2024 13:16:04 GMT-0500 (Central Daylight Time),523797.1999999881,A,str,O,r,184,1,983.7999999523163,522813.40000003576,7026,WL,B,1.0
5,1.183000087738037,learn,60000.0,Thu Oct 24 2024 13:16:04 GMT-0500 (Central Daylight Time),523997.0,A,stre,O,e,175,1,1183.5999999642372,522813.40000003576,7026,WL,B,1.0
5,1.3330001831054688,learn,60000.0,Thu Oct 24 2024 13:16:04 GMT-0500 (Central Daylight Time),524147.0,A,stree,O,e,111,1,1333.5999999642372,522813.40000003576,7026,WL,B,1.0
5,1.5499999523162842,learn,60000.0,Thu Oct 24 2024 13:16:04 GMT-0500 (Central Daylight Time),524363.3000000119,A,street,O,t,195,1,1549.8999999761581,522813.40000003576,7026,WL,B,1.0
5,1.9170000553131104,learn,60000.0,Thu Oct 24 2024 13:16:04 GMT-0500 (Central Daylight Time),524730.3000000119,A,streetenter,O,enter,336,1,1916.8999999761581,522813.40000003576,7026,WL,B,1.0
5,2.183000087738037,learn,60000.0,Thu Oct 24 2024 13:16:04 GMT-0500 (Central Daylight Time),524996.9000000358,A,g,O,g,243,1,266.30000001192093,524730.6000000238,7026,WL,B,2.0
5,2.3500001430511475,learn,60000.0,Thu Oct 24 2024 13:16:04 GMT-0500 (Central Daylight Time),525163.4000000358,A,gr,O,r,136,1,432.80000001192093,524730.6000000238,7026,WL,B,2.0
5,2.4830000400543213,learn,60000.0,Thu Oct 24 2024 13:16:04 GMT-0500 (Central Daylight Time),525296.8000000119,A,gra,O,a,97,1,566.1999999880791,524730.6000000238,7026,WL,B,2.0
5,2.7330000400543213,learn,60000.0,Thu Oct 24 2024 13:16:04 GMT-0500 (Central Daylight Time),525546.8000000119,A,gras,O,s,212,1,816.1999999880791,524730.6000000238,7026,WL,B,2.0
5,2.8500001430511475,learn,60000.0,Thu Oct 24 2024 13:16:04 GMT-0500 (Central Daylight Time),525663.1999999881,A,grass,O,s,81,1,932.5999999642372,524730.6000000238,7026,WL,B,2.0
5,3.197999954223633,learn,60000.0,Thu Oct 24 2024 13:16:04 GMT-0500 (Central Daylight Time),526012.1000000238,A,grassenter,O,enter,325,1,1281.5,524730.6000000238,7026,WL,B,2.0
5,3.3980000019073486,learn,60000.0,Thu Oct 24 2024 13:16:04 GMT-0500 (Central Daylight Time),526212.1000000238,A,d,O,d,185,1,199.80000001192093,526012.3000000119,7026,WL,B,3.0
5,3.5329999923706055,learn,60000.0,Thu Oct 24 2024 13:16:04 GMT-0500 (Central Daylight Time),526346.5,A,do,O,o,113,1,334.19999998807907,526012.3000000119,7026,WL,B,3.0
5,3.6660001277923584,learn,60000.0,Thu Oct 24 2024 13:16:04 GMT-0500 (Central Daylight Time),526479.6999999881,A,doo,O,o,106,1,467.39999997615814,526012.3000000119,7026,WL,B,3.0
5,3.7980000972747803,learn,60000.0,Thu Oct 24 2024 13:16:04 GMT-0500 (Central Daylight Time),526612.0,A,door,O,r,107,1,599.6999999880791,526012.3000000119,7026,WL,B,3.0
5,4.115000009536743,learn,60000.0,Thu Oct 24 2024 13:16:04 GMT-0500 (Central Daylight Time),526928.6999999881,A,doorenter,O,enter,304,1,916.3999999761581,526012.3000000119,7026,WL,B,3.0
5,4.315000057220459,learn,60000.0,Thu Oct 24 2024 13:16:04 GMT-0500 (Central Daylight Time),527128.6999999881,A,a,O,a,181,1,199.79999995231628,526928.9000000358,7026,WL,B,4.0
5,4.465000152587891,learn,60000.0,Thu Oct 24 2024 13:16:04 GMT-0500 (Central Daylight Time),527279.0,A,ar,O,r,125,1,350.0999999642372,526928.9000000358,7026,WL,B,4.0
5,4.616000175476074,learn,60000.0,Thu Oct 24 2024 13:16:04 GMT-0500 (Central Daylight Time),527429.4000000358,A,arm,O,m,116,1,500.5,526928.9000000358,7026,WL,B,4.0
5,5.115000009536743,learn,60000.0,Thu Oct 24 2024 13:16:04 GMT-0500 (Central Daylight Time),527928.4000000358,A,armenter,O,enter,462,1,999.5,526928.9000000358,7026,WL,B,4.0
5,5.614000082015991,learn,60000.0,Thu Oct 24 2024 13:16:04 GMT-0500 (Central Daylight Time),528428.0,A,s,O,s,493,1,499.39999997615814,527928.6000000238,7026,WL,B,5.0
5,5.7820000648498535,learn,60000.0,Thu Oct 24 2024 13:16:04 GMT-0500 (Central Daylight Time),528595.3000000119,A,st,O,t,144,1,666.6999999880791,527928.6000000238,7026,WL,B,5.0
5,5.914999961853027,learn,60000.0,Thu Oct 24 2024 13:16:04 GMT-0500 (Central Daylight Time),528728.9000000358,A,sta,O,a,110,1,800.3000000119209,527928.6000000238,7026,WL,B,5.0
5,6.04800009727478,learn,60000.0,Thu Oct 24 2024 13:16:04 GMT-0500 (Central Daylight Time),528862.0,A,star,O,r,100,1,933.3999999761581,527928.6000000238,7026,WL,B,5.0
5,6.297000169754028,learn,60000.0,Thu Oct 24 2024 13:16:04 GMT-0500 (Central Daylight Time),529111.0,A,starenter,O,enter,220,1,1182.3999999761581,527928.6000000238,7026,WL,B,5.0
5,6.481000185012817,learn,60000.0,Thu Oct 24 2024 13:16:04 GMT-0500 (Central Daylight Time),529295.1999999881,A,w,O,w,175,1,184.0,529111.1999999881,7026,WL,B,6.0
5,6.615000009536743,learn,60000.0,Thu Oct 24 2024 13:16:04 GMT-0500 (Central Daylight Time),529429.1000000238,A,wi,O,i,115,1,317.9000000357628,529111.1999999881,7026,WL,B,6.0
5,6.797000169754028,learn,60000.0,Thu Oct 24 2024 13:16:04 GMT-0500 (Central Daylight Time),529610.9000000358,A,wif,O,f,140,1,499.7000000476837,529111.1999999881,7026,WL,B,6.0
5,6.932000160217285,learn,60000.0,Thu Oct 24 2024 13:16:04 GMT-0500 (Central Daylight Time),529745.3000000119,A,wife,O,e,122,1,634.1000000238419,529111.1999999881,7026,WL,B,6.0
5,7.180999994277954,learn,60000.0,Thu Oct 24 2024 13:16:04 GMT-0500 (Central Daylight Time),529994.4000000358,A,wifeenter,O,enter,215,1,883.2000000476837,529111.1999999881,7026,WL,B,6.0
5,7.38100004196167,learn,60000.0,Thu Oct 24 2024 13:16:04 GMT-0500 (Central Daylight Time),530194.1999999881,A,w,O,w,187,1,199.5999999642372,529994.6000000238,7026,WL,B,7.0
5,7.481000185012817,learn,60000.0,Thu Oct 24 2024 13:16:04 GMT-0500 (Central Daylight Time),530294.1000000238,A,wi,O,i,82,1,299.5,529994.6000000238,7026,WL,B,7.0
5,7.564000129699707,learn,60000.0,Thu Oct 24 2024 13:16:04 GMT-0500 (Central Daylight Time),530378.1999999881,A,win,O,n,71,1,383.5999999642372,529994.6000000238,7026,WL,B,7.0
5,7.680999994277954,learn,60000.0,Thu Oct 24 2024 13:16:04 GMT-0500 (Central Daylight Time),530494.6999999881,A,wind,O,d,87,1,500.0999999642372,529994.6000000238,7026,WL,B,7.0
5,7.831000089645386,learn,60000.0,Thu Oct 24 2024 13:16:04 GMT-0500 (Central Daylight Time),530644.4000000358,A,windo,O,o,119,1,649.8000000119209,529994.6000000238,7026,WL,B,7.0
5,7.947000026702881,learn,60000.0,Thu Oct 24 2024 13:16:04 GMT-0500 (Central Daylight Time),530760.6000000238,A,window,O,w,96,1,766.0,529994.6000000238,7026,WL,B,7.0
5,8.61300015449524,learn,60000.0,Thu Oct 24 2024 13:16:04 GMT-0500 (Central Daylight Time),531427.0,A,windowenter,O,enter,660,1,1432.3999999761581,529994.6000000238,7026,WL,B,7.0
5,9.46399998664856,learn,60000.0,Thu Oct 24 2024 13:16:04 GMT-0500 (Central Daylight Time),532277.4000000358,A,c,O,c,843,1,850.1000000238419,531427.3000000119,7026,WL,B,8.0
5,9.564000129699707,learn,60000.0,Thu Oct 24 2024 13:16:04 GMT-0500 (Central Daylight Time),532377.3000000119,A,ci,O,i,69,1,950.0,531427.3000000119,7026,WL,B,8.0
5,9.713000059127808,learn,60000.0,Thu Oct 24 2024 13:16:04 GMT-0500 (Central Daylight Time),532526.6999999881,A,cit,O,t,124,1,1099.3999999761581,531427.3000000119,7026,WL,B,8.0
5,9.896000146865845,learn,60000.0,Thu Oct 24 2024 13:16:04 GMT-0500 (Central Daylight Time),532709.9000000358,A,city,O,y,172,1,1282.6000000238419,531427.3000000119,7026,WL,B,8.0
5,10.046000003814697,learn,60000.0,Thu Oct 24 2024 13:16:04 GMT-0500 (Central Daylight Time),532859.9000000358,A,cityenter,O,enter,134,1,1432.6000000238419,531427.3000000119,7026,WL,B,8.0
5,11.080000162124634,learn,60000.0,Thu Oct 24 2024 13:16:04 GMT-0500 (Central Daylight Time),533893.6999999881,A,c,O,c,1026,1,1033.5,532860.1999999881,7026,WL,B,9.0
5,11.19700002670288,learn,60000.0,Thu Oct 24 2024 13:16:04 GMT-0500 (Central Daylight Time),534010.4000000358,A,ca,O,a,78,1,1150.2000000476837,532860.1999999881,7026,WL,B,9.0
5,11.380000114440918,learn,60000.0,Thu Oct 24 2024 13:16:04 GMT-0500 (Central Daylight Time),534193.9000000358,A,cab,O,b,147,1,1333.7000000476837,532860.1999999881,7026,WL,B,9.0
5,11.496999979019165,learn,60000.0,Thu Oct 24 2024 13:16:04 GMT-0500 (Central Daylight Time),534310.5,A,cabi,O,i,83,1,1450.300000011921,532860.1999999881,7026,WL,B,9.0
5,11.61300015449524,learn,60000.0,Thu Oct 24 2024 13:16:04 GMT-0500 (Central Daylight Time),534426.8000000119,A,cabin,O,n,77,1,1566.6000000238419,532860.1999999881,7026,WL,B,9.0
5,11.912000179290771,learn,60000.0,Thu Oct 24 2024 13:16:04 GMT-0500 (Central Daylight Time),534726.0,A,cabinenter,O,enter,269,1,1865.800000011921,532860.1999999881,7026,WL,B,9.0
5,12.896000146865845,learn,60000.0,Thu Oct 24 2024 13:16:04 GMT-0500 (Central Daylight Time),535709.6999999881,A,p,O,p,976,1,983.3999999761581,534726.3000000119,7026,WL,B,10.0
5,13.130000114440918,learn,60000.0,Thu Oct 24 2024 13:16:04 GMT-0500 (Central Daylight Time),535943.1999999881,A,pu,O,u,200,1,1216.8999999761581,534726.3000000119,7026,WL,B,10.0
5,13.296000003814697,learn,60000.0,Thu Oct 24 2024 13:16:04 GMT-0500 (Central Daylight Time),536109.8000000119,A,pup,O,p,133,1,1383.5,534726.3000000119,7026,WL,B,10.0
5,13.446000099182129,learn,60000.0,Thu Oct 24 2024 13:16:04 GMT-0500 (Central Daylight Time),536259.9000000358,A,pupi,O,i,111,1,1533.6000000238419,534726.3000000119,7026,WL,B,10.0
5,13.578999996185303,learn,60000.0,Thu Oct 24 2024 13:16:04 GMT-0500 (Central Daylight Time),536393.1000000238,A,pupil,O,l,97,1,1666.800000011921,534726.3000000119,7026,WL,B,10.0
5,13.84500002861023,learn,60000.0,Thu Oct 24 2024 13:16:04 GMT-0500 (Central Daylight Time),536658.6999999881,A,pupilenter,O,enter,234,1,1932.3999999761581,534726.3000000119,7026,WL,B,10.0
5,14.26200008392334,learn,60000.0,Thu Oct 24 2024 13:16:04 GMT-0500 (Central Daylight Time),537076.1000000238,A,l,O,l,396,1,417.10000002384186,536659.0,7026,WL,B,11.0
5,14.361999988555908,learn,60000.0,Thu Oct 24 2024 13:16:04 GMT-0500 (Central Daylight Time),537176.1999999881,A,la,O,a,66,1,517.1999999880791,536659.0,7026,WL,B,11.0
5,14.495000123977661,learn,60000.0,Thu Oct 24 2024 13:16:04 GMT-0500 (Central Daylight Time),537309.1000000238,A,lak,O,k,107,1,650.1000000238419,536659.0,7026,WL,B,11.0
5,14.595999956130981,learn,60000.0,Thu Oct 24 2024 13:16:04 GMT-0500 (Central Daylight Time),537409.4000000358,A,lake,O,e,71,1,750.4000000357628,536659.0,7026,WL,B,11.0
5,14.92799997329712,learn,60000.0,Thu Oct 24 2024 13:16:04 GMT-0500 (Central Daylight Time),537741.9000000358,A,lakeenter,O,enter,299,1,1082.9000000357628,536659.0,7026,WL,B,11.0
5,16.66200017929077,learn,60000.0,Thu Oct 24 2024 13:16:04 GMT-0500 (Central Daylight Time),539475.3000000119,A,c,O,c,1720,1,1733.199999988079,537742.1000000238,7026,WL,B,12.0
5,16.896000146865845,learn,60000.0,Thu Oct 24 2024 13:16:04 GMT-0500 (Central Daylight Time),539709.0,A,co,O,o,208,1,1966.8999999761581,537742.1000000238,7026,WL,B,12.0
5,17.229000091552734,learn,60000.0,Thu Oct 24 2024 13:16:04 GMT-0500 (Central Daylight Time),540041.8000000119,A,c,O,backspace,303,1,2299.699999988079,537742.1000000238,7026,WL,B,12.0
5,17.42900013923645,learn,60000.0,Thu Oct 24 2024 13:16:04 GMT-0500 (Central Daylight Time),540241.8000000119,A,cl,O,l,170,1,2499.699999988079,537742.1000000238,7026,WL,B,12.0
5,17.611999988555908,learn,60000.0,Thu Oct 24 2024 13:16:04 GMT-0500 (Central Daylight Time),540425.0,A,clo,O,o,146,1,2682.899999976158,537742.1000000238,7026,WL,B,12.0
5,17.712000131607056,learn,60000.0,Thu Oct 24 2024 13:16:04 GMT-0500 (Central Daylight Time),540525.0,A,cloc,O,c,69,1,2782.899999976158,537742.1000000238,7026,WL,B,12.0
5,17.812000036239624,learn,60000.0,Thu Oct 24 2024 13:16:04 GMT-0500 (Central Daylight Time),540624.5,A,clock,O,k,63,1,2882.399999976158,537742.1000000238,7026,WL,B,12.0
5,18.129000186920166,learn,60000.0,Thu Oct 24 2024 13:16:04 GMT-0500 (Central Daylight Time),540941.9000000358,A,clockenter,O,enter,294,1,3199.800000011921,537742.1000000238,7026,WL,B,12.0
5,22.294000148773193,learn,60000.0,Thu Oct 24 2024 13:16:04 GMT-0500 (Central Daylight Time),545106.8000000119,A,f,O,f,4145,1,4164.699999988079,540942.1000000238,7026,WL,B,13.0
5,22.377000093460083,learn,60000.0,Thu Oct 24 2024 13:16:04 GMT-0500 (Central Daylight Time),545189.6999999881,A,fi,O,i,58,1,4247.599999964237,540942.1000000238,7026,WL,B,13.0
5,22.49399995803833,learn,60000.0,Thu Oct 24 2024 13:16:04 GMT-0500 (Central Daylight Time),545306.8000000119,A,fir,O,r,95,1,4364.699999988079,540942.1000000238,7026,WL,B,13.0
5,22.593000173568726,learn,60000.0,Thu Oct 24 2024 13:16:04 GMT-0500 (Central Daylight Time),545406.4000000358,A,fire,O,e,66,1,4464.300000011921,540942.1000000238,7026,WL,B,13.0
5,22.7260000705719,learn,60000.0,Thu Oct 24 2024 13:16:04 GMT-0500 (Central Daylight Time),545539.1999999881,A,fireenter,O,enter,94,1,4597.099999964237,540942.1000000238,7026,WL,B,13.0
5,33.40700006484985,learn,60000.0,Thu Oct 24 2024 13:16:04 GMT-0500 (Central Daylight Time),556219.9000000358,A,f,O,f,10667,1,10680.5,545539.4000000358,7026,WL,B,14.0
5,33.50600004196167,learn,60000.0,Thu Oct 24 2024 13:16:04 GMT-0500 (Central Daylight Time),556319.1999999881,A,fi,O,i,62,1,10779.799999952316,545539.4000000358,7026,WL,B,14.0
5,33.640000104904175,learn,60000.0,Thu Oct 24 2024 13:16:04 GMT-0500 (Central Daylight Time),556453.0,A,fir,O,r,123,1,10913.599999964237,545539.4000000358,7026,WL,B,14.0
5,33.78999996185303,learn,60000.0,Thu Oct 24 2024 13:16:04 GMT-0500 (Central Daylight Time),556603.0,A,fire,O,e,111,1,11063.599999964237,545539.4000000358,7026,WL,B,14.0
5,33.90700006484985,learn,60000.0,Thu Oct 24 2024 13:16:04 GMT-0500 (Central Daylight Time),556719.6999999881,A,fireenter,O,enter,88,1,11180.299999952316,545539.4000000358,7026,WL,B,14.0
5,34.23900008201599,learn,60000.0,Thu Oct 24 2024 13:16:04 GMT-0500 (Central Daylight Time),557052.0,A,enter,O,enter,317,1,332.0,556720.0,7026,WL,B,15.0
6,0.6670000553131104,distr,59332.99994468689,Thu Oct 24 2024 13:16:04 GMT-0500 (Central Daylight Time),635627.6000000238,B,b,O,b,638,1,666.4000000357628,634961.1999999881,7026,WL,B,1.0
6,0.8500001430511475,distr,59149.99985694885,Thu Oct 24 2024 13:16:04 GMT-0500 (Central Daylight Time),635810.8000000119,B,ba,O,a,145,1,849.6000000238419,634961.1999999881,7026,WL,B,1.0
6,0.877000093460083,distr,59122.99990653992,Thu Oct 24 2024 13:16:04 GMT-0500 (Central Daylight Time),635837.4000000358,B,bab,O,b,2,1,876.2000000476837,634961.1999999881,7026,WL,B,1.0
6,1.2320001125335693,distr,58767.99988746643,Thu Oct 24 2024 13:16:04 GMT-0500 (Central Daylight Time),636192.6000000238,B,baby,O,y,325,1,1231.4000000357628,634961.1999999881,7026,WL,B,1.0
6,1.499000072479248,distr,58500.99992752075,Thu Oct 24 2024 13:16:04 GMT-0500 (Central Daylight Time),636459.1999999881,B,babyenter,O,enter,251,1,1498.0,634961.1999999881,7026,WL,B,1.0
6,1.8660001754760742,distr,58133.999824523926,Thu Oct 24 2024 13:16:04 GMT-0500 (Central Daylight Time),636825.9000000358,B,o,O,o,354,1,366.4000000357628,636459.5,7026,WL,B,2.0
6,2.116000175476074,distr,57883.999824523926,Thu Oct 24 2024 13:16:04 GMT-0500 (Central Daylight Time),637076.6000000238,B,oc,O,c,226,1,617.1000000238419,636459.5,7026,WL,B,2.0
6,2.199000120162964,distr,57800.999879837036,Thu Oct 24 2024 13:16:04 GMT-0500 (Central Daylight Time),637159.1999999881,B,oce,O,e,47,1,699.6999999880791,636459.5,7026,WL,B,2.0
6,2.2829999923706055,distr,57717.000007629395,Thu Oct 24 2024 13:16:04 GMT-0500 (Central Daylight Time),637243.3000000119,B,ocea,O,a,60,1,783.8000000119209,636459.5,7026,WL,B,2.0
6,2.4000000953674316,distr,57599.99990463257,Thu Oct 24 2024 13:16:04 GMT-0500 (Central Daylight Time),637359.9000000358,B,ocean,O,n,93,1,900.4000000357628,636459.5,7026,WL,B,2.0
6,2.6649999618530273,distr,57335.00003814697,Thu Oct 24 2024 13:16:04 GMT-0500 (Central Daylight Time),637625.5,B,oceanenter,O,enter,231,1,1166.0,636459.5,7026,WL,B,2.0
6,2.999000072479248,distr,57000.99992752075,Thu Oct 24 2024 13:16:04 GMT-0500 (Central Daylight Time),637958.9000000358,B,p,O,p,324,1,333.10000002384186,637625.8000000119,7026,WL,B,3.0
6,3.1660001277923584,distr,56833.99987220764,Thu Oct 24 2024 13:16:04 GMT-0500 (Central Daylight Time),638126.1999999881,B,pa,O,a,159,1,500.39999997615814,637625.8000000119,7026,WL,B,3.0
6,3.2820000648498535,distr,56717.99993515015,Thu Oct 24 2024 13:16:04 GMT-0500 (Central Daylight Time),638242.4000000358,B,pal,O,l,86,1,616.6000000238419,637625.8000000119,7026,WL,B,3.0
6,3.365000009536743,distr,56634.99999046326,Thu Oct 24 2024 13:16:04 GMT-0500 (Central Daylight Time),638325.3000000119,B,pala,O,a,56,1,699.5,637625.8000000119,7026,WL,B,3.0
6,3.565999984741211,distr,56434.00001525879,Thu Oct 24 2024 13:16:04 GMT-0500 (Central Daylight Time),638526.0,B,palac,O,c,190,1,900.1999999880791,637625.8000000119,7026,WL,B,3.0
6,3.682000160217285,distr,56317.999839782715,Thu Oct 24 2024 13:16:04 GMT-0500 (Central Daylight Time),638642.6000000238,B,palace,O,e,80,1,1016.8000000119209,637625.8000000119,7026,WL,B,3.0
6,3.9160001277923584,distr,56083.99987220764,Thu Oct 24 2024 13:16:04 GMT-0500 (Central Daylight Time),638876.3000000119,B,palaceenter,O,enter,192,1,1250.5,637625.8000000119,7026,WL,B,3.0
6,4.098999977111816,distr,55901.00002288818,Thu Oct 24 2024 13:16:04 GMT-0500 (Central Daylight Time),639059.4000000358,B,b,O,b,162,1,182.9000000357628,638876.5,7026,WL,B,4.0
6,4.299000024795532,distr,55700.99997520447,Thu Oct 24 2024 13:16:04 GMT-0500 (Central Daylight Time),639259.3000000119,B,ba,O,a,170,1,382.80000001192093,638876.5,7026,WL,B,4.0
6,4.398000001907349,distr,55601.99999809265,Thu Oct 24 2024 13:16:04 GMT-0500 (Central Daylight Time),639358.8000000119,B,bar,O,r,72,1,482.30000001192093,638876.5,7026,WL,B,4.0
6,4.697999954223633,distr,55302.00004577637,Thu Oct 24 2024 13:16:04 GMT-0500 (Central Daylight Time),639658.1999999881,B,barenter,O,enter,260,1,781.6999999880791,638876.5,7026,WL,B,4.0
6,4.982000112533569,distr,55017.99988746643,Thu Oct 24 2024 13:16:04 GMT-0500 (Central Daylight Time),639942.3000000119,B,l,O,l,276,1,283.80000001192093,639658.5,7026,WL,B,5.0
6,5.082000017166138,distr,54917.99998283386,Thu Oct 24 2024 13:16:04 GMT-0500 (Central Daylight Time),640042.3000000119,B,li,O,i,75,1,383.80000001192093,639658.5,7026,WL,B,5.0
6,5.348999977111816,distr,54651.00002288818,Thu Oct 24 2024 13:16:04 GMT-0500 (Central Daylight Time),640308.9000000358,B,lip,O,p,234,1,650.4000000357628,639658.5,7026,WL,B,5.0
6,5.8480000495910645,distr,54151.999950408936,Thu Oct 24 2024 13:16:04 GMT-0500 (Central Daylight Time),640807.9000000358,B,lipenter,O,enter,463,1,1149.4000000357628,639658.5,7026,WL,B,5.0
6,9.364000082015991,distr,50635.99991798401,Thu Oct 24 2024 13:16:04 GMT-0500 (Central Daylight Time),644324.4000000358,B,s,O,s,3502,1,3516.2000000476837,640808.1999999881,7026,WL,B,6.0
6,9.69700002670288,distr,50302.99997329712,Thu Oct 24 2024 13:16:04 GMT-0500 (Central Daylight Time),644657.4000000358,B,st,O,t,294,1,3849.2000000476837,640808.1999999881,7026,WL,B,6.0
6,9.763000011444092,distr,50236.99998855591,Thu Oct 24 2024 13:16:04 GMT-0500 (Central Daylight Time),644723.1999999881,B,stt,O,t,34,1,3915.0,640808.1999999881,7026,WL,B,6.0
6,11.163000106811523,distr,48836.99989318848,Thu Oct 24 2024 13:16:04 GMT-0500 (Central Daylight Time),646123.6999999881,B,st,O,backspace,1382,1,5315.5,640808.1999999881,7026,WL,B,6.0
6,12.996000051498413,distr,47003.99994850159,Thu Oct 24 2024 13:16:04 GMT-0500 (Central Daylight Time),647956.3000000119,B,ste,O,e,1800,1,7148.100000023842,640808.1999999881,7026,WL,B,6.0
6,13.095999956130981,distr,46904.00004386902,Thu Oct 24 2024 13:16:04 GMT-0500 (Central Daylight Time),648055.8000000119,B,stea,O,a,63,1,7247.600000023842,640808.1999999881,7026,WL,B,6.0
6,13.213000059127808,distr,46786.99994087219,Thu Oct 24 2024 13:16:04 GMT-0500 (Central Daylight Time),648172.8000000119,B,steam,O,m,104,1,7364.600000023842,640808.1999999881,7026,WL,B,6.0
6,13.462000131607056,distr,46537.999868392944,Thu Oct 24 2024 13:16:04 GMT-0500 (Central Daylight Time),648422.0,B,steamenter,O,enter,216,1,7613.800000011921,640808.1999999881,7026,WL,B,6.0
6,13.812999963760376,distr,46187.000036239624,Thu Oct 24 2024 13:16:04 GMT-0500 (Central Daylight Time),648772.8000000119,B,b,O,b,336,1,350.60000002384186,648422.1999999881,7026,WL,B,7.0
6,13.979000091552734,distr,46020.999908447266,Thu Oct 24 2024 13:16:04 GMT-0500 (Central Daylight Time),648939.6000000238,B,bu,O,u,129,1,517.4000000357628,648422.1999999881,7026,WL,B,7.0
6,14.062000036239624,distr,45937.999963760376,Thu Oct 24 2024 13:16:04 GMT-0500 (Central Daylight Time),649022.0,B,bui,O,i,56,1,599.8000000119209,648422.1999999881,7026,WL,B,7.0
6,14.144999980926514,distr,45855.000019073486,Thu Oct 24 2024 13:16:04 GMT-0500 (Central Daylight Time),649105.4000000358,B,buil,O,l,65,1,683.2000000476837,648422.1999999881,7026,WL,B,7.0
6,14.229000091552734,distr,45770.999908447266,Thu Oct 24 2024 13:16:04 GMT-0500 (Central Daylight Time),649189.1000000238,B,build,O,d,72,1,766.9000000357628,648422.1999999881,7026,WL,B,7.0
6,14.361999988555908,distr,45638.00001144409,Thu Oct 24 2024 13:16:04 GMT-0500 (Central Daylight Time),649322.6000000238,B,buildi,O,i,96,1,900.4000000357628,648422.1999999881,7026,WL,B,7.0
6,14.462000131607056,distr,45537.999868392944,Thu Oct 24 2024 13:16:04 GMT-0500 (Central Daylight Time),649422.6000000238,B,buildin,O,n,65,1,1000.4000000357628,648422.1999999881,7026,WL,B,7.0
6,14.578999996185303,distr,45421.0000038147,Thu Oct 24 2024 13:16:04 GMT-0500 (Central Daylight Time),649539.0,B,building,O,g,78,1,1116.800000011921,648422.1999999881,7026,WL,B,7.0
6,14.76200008392334,distr,45237.99991607666,Thu Oct 24 2024 13:16:04 GMT-0500 (Central Daylight Time),649722.6999999881,B,buildingenter,O,enter,145,1,1300.5,648422.1999999881,7026,WL,B,7.0
6,15.111999988555908,distr,44888.00001144409,Thu Oct 24 2024 13:16:04 GMT-0500 (Central Daylight Time),650072.3000000119,B,c,O,c,331,1,349.30000001192093,649723.0,7026,WL,B,8.0
6,15.245000123977661,distr,44754.99987602234,Thu Oct 24 2024 13:16:04 GMT-0500 (Central Daylight Time),650205.6000000238,B,ce,O,e,100,1,482.60000002384186,649723.0,7026,WL,B,8.0
6,15.361999988555908,distr,44638.00001144409,Thu Oct 24 2024 13:16:04 GMT-0500 (Central Daylight Time),650322.1999999881,B,cel,O,l,80,1,599.1999999880791,649723.0,7026,WL,B,8.0
6,15.51200008392334,distr,44487.99991607666,Thu Oct 24 2024 13:16:04 GMT-0500 (Central Daylight Time),650472.0,B,cell,O,l,114,1,749.0,649723.0,7026,WL,B,8.0
6,15.728000164031982,distr,44271.99983596802,Thu Oct 24 2024 13:16:04 GMT-0500 (Central Daylight Time),650687.9000000358,B,cellenter,O,enter,179,1,964.9000000357628,649723.0,7026,WL,B,8.0
6,18.943000078201294,distr,41056.999921798706,Thu Oct 24 2024 13:16:04 GMT-0500 (Central Daylight Time),653903.5,B,enter,O,enter,3206,1,3215.300000011921,650688.1999999881,7026,WL,B,9.0
6,19.127000093460083,distr,40872.99990653992,Thu Oct 24 2024 13:16:04 GMT-0500 (Central Daylight Time),654086.8000000119,B,enter,O,enter,174,1,182.89999997615814,653903.9000000358,7026,WL,B,10.0
6,19.292999982833862,distr,40707.00001716614,Thu Oct 24 2024 13:16:04 GMT-0500 (Central Daylight Time),654253.5,B,enter,O,enter,151,1,166.39999997615814,654087.1000000238,7026,WL,B,11.0
6,19.509999990463257,distr,40490.00000953674,Thu Oct 24 2024 13:16:04 GMT-0500 (Central Daylight Time),654470.0,B,enter,O,enter,200,1,216.19999998807907,654253.8000000119,7026,WL,B,12.0
6,19.710000038146973,distr,40289.99996185303,Thu Oct 24 2024 13:16:04 GMT-0500 (Central Daylight Time),654669.9000000358,B,enter,O,enter,191,1,199.60000002384186,654470.3000000119,7026,WL,B,13.0
6,20.075999975204468,distr,39924.00002479553,Thu Oct 24 2024 13:16:04 GMT-0500 (Central Daylight Time),655036.5,B,enter,O,enter,360,1,366.19999998807907,654670.3000000119,7026,WL,B,14.0
6,20.426000118255615,distr,39573.999881744385,Thu Oct 24 2024 13:16:04 GMT-0500 (Central Daylight Time),655386.4000000358,B,enter,O,enter,329,1,349.60000002384186,655036.8000000119,7026,WL,B,15.0
7,0.8169999122619629,immed,59183.00008773804,Thu Oct 24 2024 13:16:04 GMT-0500 (Central Daylight Time),667683.1000000238,A,s,O,s,779,1,815.8000000119209,666867.3000000119,7026,WL,B,1.0
7,1.0,immed,59000.0,Thu Oct 24 2024 13:16:04 GMT-0500 (Central Daylight Time),667866.9000000358,A,st,O,t,152,1,999.6000000238419,666867.3000000119,7026,WL,B,1.0
7,1.3340001106262207,immed,58665.99988937378,Thu Oct 24 2024 13:16:04 GMT-0500 (Central Daylight Time),668200.1000000238,A,str,O,r,305,1,1332.800000011921,666867.3000000119,7026,WL,B,1.0
7,1.6500000953674316,immed,58349.99990463257,Thu Oct 24 2024 13:16:04 GMT-0500 (Central Daylight Time),668516.8000000119,A,stre,O,e,294,1,1649.5,666867.3000000119,7026,WL,B,1.0
7,1.7999999523162842,immed,58200.000047683716,Thu Oct 24 2024 13:16:04 GMT-0500 (Central Daylight Time),668666.8000000119,A,stree,O,e,111,1,1799.5,666867.3000000119,7026,WL,B,1.0
7,1.999000072479248,immed,58000.99992752075,Thu Oct 24 2024 13:16:04 GMT-0500 (Central Daylight Time),668865.9000000358,A,street,O,t,169,1,1998.6000000238419,666867.3000000119,7026,WL,B,1.0
7,2.1670000553131104,immed,57832.99994468689,Thu Oct 24 2024 13:16:04 GMT-0500 (Central Daylight Time),669033.1000000238,A,streetenter,O,enter,140,1,2165.800000011921,666867.3000000119,7026,WL,B,1.0
7,2.5829999446868896,immed,57417.00005531311,Thu Oct 24 2024 13:16:04 GMT-0500 (Central Daylight Time),669449.9000000358,A,g,O,g,405,1,416.5,669033.4000000358,7026,WL,B,2.0
7,2.7990000247955322,immed,57200.99997520447,Thu Oct 24 2024 13:16:04 GMT-0500 (Central Daylight Time),669665.9000000358,A,gr,O,r,179,1,632.5,669033.4000000358,7026,WL,B,2.0
7,2.9159998893737793,immed,57084.00011062622,Thu Oct 24 2024 13:16:04 GMT-0500 (Central Daylight Time),669782.5,A,gra,O,a,84,1,749.0999999642372,669033.4000000358,7026,WL,B,2.0
7,3.132999897003174,immed,56867.000102996826,Thu Oct 24 2024 13:16:04 GMT-0500 (Central Daylight Time),669999.3000000119,A,gras,O,s,188,1,965.8999999761581,669033.4000000358,7026,WL,B,2.0
7,3.2660000324249268,immed,56733.99996757507,Thu Oct 24 2024 13:16:04 GMT-0500 (Central Daylight Time),670132.5,A,grass,O,s,103,1,1099.0999999642372,669033.4000000358,7026,WL,B,2.0
7,3.5980000495910645,immed,56401.999950408936,Thu Oct 24 2024 13:16:04 GMT-0500 (Central Daylight Time),670464.9000000358,A,grassenter,O,enter,302,1,1431.5,669033.4000000358,7026,WL,B,2.0
7,5.29800009727478,immed,54701.99990272522,Thu Oct 24 2024 13:16:04 GMT-0500 (Central Daylight Time),672165.0,A,w,O,w,1686,1,1699.8999999761581,670465.1000000238,7026,WL,B,3.0
7,5.414999961853027,immed,54585.00003814697,Thu Oct 24 2024 13:16:04 GMT-0500 (Central Daylight Time),672281.6000000238,A,wi,O,i,88,1,1816.5,670465.1000000238,7026,WL,B,3.0
7,5.515000104904175,immed,54484.999895095825,Thu Oct 24 2024 13:16:04 GMT-0500 (Central Daylight Time),672381.1000000238,A,wif,O,f,77,1,1916.0,670465.1000000238,7026,WL,B,3.0
7,5.664999961853027,immed,54335.00003814697,Thu Oct 24 2024 13:16:04 GMT-0500 (Central Daylight Time),672531.6000000238,A,wife,O,e,131,1,2066.5,670465.1000000238,7026,WL,B,3.0
7,5.79800009727478,immed,54201.99990272522,Thu Oct 24 2024 13:16:04 GMT-0500 (Central Daylight Time),672664.0,A,wifeenter,O,enter,103,1,2198.899999976158,670465.1000000238,7026,WL,B,3.0
7,6.398000001907349,immed,53601.99999809265,Thu Oct 24 2024 13:16:04 GMT-0500 (Central Daylight Time),673264.6999999881,A,w,O,w,590,1,600.5,672664.1999999881,7026,WL,B,4.0
7,6.515000104904175,immed,53484.999895095825,Thu Oct 24 2024 13:16:04 GMT-0500 (Central Daylight Time),673381.3000000119,A,wi,O,i,84,1,717.1000000238419,672664.1999999881,7026,WL,B,4.0
7,6.615000009536743,immed,53384.99999046326,Thu Oct 24 2024 13:16:04 GMT-0500 (Central Daylight Time),673481.3000000119,A,win,O,n,60,1,817.1000000238419,672664.1999999881,7026,WL,B,4.0
7,6.71399998664856,immed,53286.00001335144,Thu Oct 24 2024 13:16:04 GMT-0500 (Central Daylight Time),673580.6000000238,A,wind,O,d,77,1,916.4000000357628,672664.1999999881,7026,WL,B,4.0
7,6.815000057220459,immed,53184.99994277954,Thu Oct 24 2024 13:16:04 GMT-0500 (Central Daylight Time),673681.3000000119,A,windo,O,o,81,1,1017.1000000238419,672664.1999999881,7026,WL,B,4.0
7,6.930999994277954,immed,53069.000005722046,Thu Oct 24 2024 13:16:04 GMT-0500 (Central Daylight Time),673798.0,A,window,O,w,83,1,1133.800000011921,672664.1999999881,7026,WL,B,4.0
7,7.630000114440918,immed,52369.99988555908,Thu Oct 24 2024 13:16:04 GMT-0500 (Central Daylight Time),674496.8000000119,A,windowenter,O,enter,668,1,1832.6000000238419,672664.1999999881,7026,WL,B,4.0
7,8.930999994277954,immed,51069.000005722046,Thu Oct 24 2024 13:16:04 GMT-0500 (Central Daylight Time),675797.1999999881,A,c,O,c,1294,1,1300.0999999642372,674497.1000000238,7026,WL,B,5.0
7,9.04699993133545,immed,50953.00006866455,Thu Oct 24 2024 13:16:04 GMT-0500 (Central Daylight Time),675913.9000000358,A,ca,O,a,80,1,1416.800000011921,674497.1000000238,7026,WL,B,5.0
7,9.21399998664856,immed,50786.00001335144,Thu Oct 24 2024 13:16:04 GMT-0500 (Central Daylight Time),676080.4000000358,A,cab,O,b,131,1,1583.300000011921,674497.1000000238,7026,WL,B,5.0
7,9.329999923706055,immed,50670.000076293945,Thu Oct 24 2024 13:16:04 GMT-0500 (Central Daylight Time),676197.0,A,cabi,O,i,92,1,1699.8999999761581,674497.1000000238,7026,WL,B,5.0
7,9.44700002670288,immed,50552.99997329712,Thu Oct 24 2024 13:16:04 GMT-0500 (Central Daylight Time),676313.5,A,cabin,O,n,80,1,1816.3999999761581,674497.1000000238,7026,WL,B,5.0
7,9.645999908447266,immed,50354.000091552734,Thu Oct 24 2024 13:16:04 GMT-0500 (Central Daylight Time),676512.9000000358,A,cabinenter,O,enter,162,1,2015.800000011921,674497.1000000238,7026,WL,B,5.0
7,9.897000074386597,immed,50102.9999256134,Thu Oct 24 2024 13:16:04 GMT-0500 (Central Daylight Time),676763.9000000358,A,f,O,f,230,1,250.9000000357628,676513.0,7026,WL,B,6.0
7,9.996999979019165,immed,50003.000020980835,Thu Oct 24 2024 13:16:04 GMT-0500 (Central Daylight Time),676863.5,A,fi,O,i,65,1,350.5,676513.0,7026,WL,B,6.0
7,10.114000082015991,immed,49885.99991798401,Thu Oct 24 2024 13:16:04 GMT-0500 (Central Daylight Time),676980.5,A,fir,O,r,91,1,467.5,676513.0,7026,WL,B,6.0
7,10.246999979019165,immed,49753.000020980835,Thu Oct 24 2024 13:16:04 GMT-0500 (Central Daylight Time),677113.9000000358,A,fire,O,e,96,1,600.9000000357628,676513.0,7026,WL,B,6.0
7,10.44700002670288,immed,49552.99997329712,Thu Oct 24 2024 13:16:04 GMT-0500 (Central Daylight Time),677313.6999999881,A,fireenter,O,enter,162,1,800.6999999880791,676513.0,7026,WL,B,6.0
7,11.763000011444092,immed,48236.99998855591,Thu Oct 24 2024 13:16:04 GMT-0500 (Central Daylight Time),678629.6000000238,A,p,O,p,1301,1,1315.6000000238419,677314.0,7026,WL,B,7.0
7,12.263000011444092,immed,47736.99998855591,Thu Oct 24 2024 13:16:04 GMT-0500 (Central Daylight Time),679129.3000000119,A,pu,O,u,471,1,1815.300000011921,677314.0,7026,WL,B,7.0
7,12.430000066757202,immed,47569.9999332428,Thu Oct 24 2024 13:16:04 GMT-0500 (Central Daylight Time),679296.6000000238,A,pup,O,p,132,1,1982.6000000238419,677314.0,7026,WL,B,7.0
7,12.61299991607666,immed,47387.00008392334,Thu Oct 24 2024 13:16:04 GMT-0500 (Central Daylight Time),679479.4000000358,A,pupi,O,i,149,1,2165.400000035763,677314.0,7026,WL,B,7.0
7,12.812999963760376,immed,47187.000036239624,Thu Oct 24 2024 13:16:04 GMT-0500 (Central Daylight Time),679679.1000000238,A,pupil,O,l,166,1,2365.100000023842,677314.0,7026,WL,B,7.0
7,12.994999885559082,immed,47005.00011444092,Thu Oct 24 2024 13:16:04 GMT-0500 (Central Daylight Time),679861.6000000238,A,pupilenter,O,enter,155,1,2547.600000023842,677314.0,7026,WL,B,7.0
7,13.229000091552734,immed,46770.999908447266,Thu Oct 24 2024 13:16:04 GMT-0500 (Central Daylight Time),680095.8000000119,A,c,O,c,217,1,233.89999997615814,679861.9000000358,7026,WL,B,8.0
7,13.328999996185303,immed,46671.0000038147,Thu Oct 24 2024 13:16:04 GMT-0500 (Central Daylight Time),680195.1999999881,A,cl,O,l,59,1,333.2999999523163,679861.9000000358,7026,WL,B,8.0
7,13.479000091552734,immed,46520.999908447266,Thu Oct 24 2024 13:16:04 GMT-0500 (Central Daylight Time),680345.6000000238,A,clo,O,o,131,1,483.69999998807907,679861.9000000358,7026,WL,B,8.0
7,13.579999923706055,immed,46420.000076293945,Thu Oct 24 2024 13:16:04 GMT-0500 (Central Daylight Time),680446.3000000119,A,cloc,O,c,77,1,584.3999999761581,679861.9000000358,7026,WL,B,8.0
7,13.678999900817871,immed,46321.00009918213,Thu Oct 24 2024 13:16:04 GMT-0500 (Central Daylight Time),680545.1000000238,A,clock,O,k,69,1,683.1999999880791,679861.9000000358,7026,WL,B,8.0
7,13.911999940872192,immed,46088.00005912781,Thu Oct 24 2024 13:16:04 GMT-0500 (Central Daylight Time),680778.1000000238,A,clockenter,O,enter,197,1,916.1999999880791,679861.9000000358,7026,WL,B,8.0
7,14.145999908447266,immed,45854.000091552734,Thu Oct 24 2024 13:16:04 GMT-0500 (Central Daylight Time),681012.5,A,l,O,l,212,1,234.0999999642372,680778.4000000358,7026,WL,B,9.0
7,14.26200008392334,immed,45737.99991607666,Thu Oct 24 2024 13:16:04 GMT-0500 (Central Daylight Time),681128.8000000119,A,la,O,a,88,1,350.39999997615814,680778.4000000358,7026,WL,B,9.0
7,14.361999988555908,immed,45638.00001144409,Thu Oct 24 2024 13:16:04 GMT-0500 (Central Daylight Time),681228.1000000238,A,lak,O,k,75,1,449.69999998807907,680778.4000000358,7026,WL,B,9.0
7,14.477999925613403,immed,45522.0000743866,Thu Oct 24 2024 13:16:04 GMT-0500 (Central Daylight Time),681344.8000000119,A,lake,O,e,99,1,566.3999999761581,680778.4000000358,7026,WL,B,9.0
7,14.778000116348267,immed,45221.99988365173,Thu Oct 24 2024 13:16:04 GMT-0500 (Central Daylight Time),681644.4000000358,A,lakeenter,O,enter,285,1,866.0,680778.4000000358,7026,WL,B,9.0
7,18.877000093460083,immed,41122.99990653992,Thu Oct 24 2024 13:16:04 GMT-0500 (Central Daylight Time),685743.9000000358,A,w,O,w,4090,1,4099.200000047684,681644.6999999881,7026,WL,B,10.0
7,18.97699999809265,immed,41023.00000190735,Thu Oct 24 2024 13:16:04 GMT-0500 (Central Daylight Time),685843.3000000119,A,wi,O,i,68,1,4198.600000023842,681644.6999999881,7026,WL,B,10.0
7,19.127000093460083,immed,40872.99990653992,Thu Oct 24 2024 13:16:04 GMT-0500 (Central Daylight Time),685993.8000000119,A,wif,O,f,134,1,4349.100000023842,681644.6999999881,7026,WL,B,10.0
7,19.26099991798401,immed,40739.00008201599,Thu Oct 24 2024 13:16:04 GMT-0500 (Central Daylight Time),686127.1999999881,A,wife,O,e,103,1,4482.5,681644.6999999881,7026,WL,B,10.0
7,19.493000030517578,immed,40506.99996948242,Thu Oct 24 2024 13:16:04 GMT-0500 (Central Daylight Time),686359.6000000238,A,wifeenter,O,enter,197,1,4714.900000035763,681644.6999999881,7026,WL,B,10.0
7,22.89299988746643,immed,37107.00011253357,Thu Oct 24 2024 13:16:04 GMT-0500 (Central Daylight Time),689759.3000000119,A,i,O,i,3382,1,3399.399999976158,686359.9000000358,7026,WL,B,11.0
7,23.408999919891357,immed,36591.00008010864,Thu Oct 24 2024 13:16:04 GMT-0500 (Central Daylight Time),690275.8000000119,A,,O,backspace,477,1,3915.899999976158,686359.9000000358,7026,WL,B,11.0
7,23.858999967575073,immed,36141.00003242493,Thu Oct 24 2024 13:16:04 GMT-0500 (Central Daylight Time),690725.6999999881,A,p,O,p,419,1,4365.799999952316,686359.9000000358,7026,WL,B,11.0
7,24.05900001525879,immed,35940.99998474121,Thu Oct 24 2024 13:16:04 GMT-0500 (Central Daylight Time),690925.3000000119,A,pi,O,i,176,1,4565.399999976158,686359.9000000358,7026,WL,B,11.0
7,24.242000102996826,immed,35757.999897003174,Thu Oct 24 2024 13:16:04 GMT-0500 (Central Daylight Time),691108.9000000358,A,pip,O,p,143,1,4749.0,686359.9000000358,7026,WL,B,11.0
7,24.408999919891357,immed,35591.00008010864,Thu Oct 24 2024 13:16:04 GMT-0500 (Central Daylight Time),691275.4000000358,A,pipe,O,e,129,1,4915.5,686359.9000000358,7026,WL,B,11.0
7,24.625,immed,35375.0,Thu Oct 24 2024 13:16:04 GMT-0500 (Central Daylight Time),691491.1999999881,A,pipeenter,O,enter,193,1,5131.299999952316,686359.9000000358,7026,WL,B,11.0
7,29.640000104904175,immed,30359.999895095825,Thu Oct 24 2024 13:16:04 GMT-0500 (Central Daylight Time),696506.1000000238,A,enter,O,enter,4994,1,5014.699999988079,691491.4000000358,7026,WL,B,12.0
7,29.890000104904175,immed,30109.999895095825,Thu Oct 24 2024 13:16:04 GMT-0500 (Central Daylight Time),696756.1000000238,A,enter,O,enter,235,1,249.60000002384186,696506.5,7026,WL,B,13.0
7,30.124000072479248,immed,29875.999927520752,Thu Oct 24 2024 13:16:04 GMT-0500 (Central Daylight Time),696990.6000000238,A,enter,O,enter,217,1,234.10000002384186,696756.5,7026,WL,B,14.0
7,30.438999891281128,immed,29561.000108718872,Thu Oct 24 2024 13:16:04 GMT-0500 (Central Daylight Time),697306.0,A,enter,O,enter,294,1,315.0999999642372,696990.9000000358,7026,WL,B,15.0
