acc_sum,block,block_c,change,condition,correct,correct_response,datetime,endtime,face,project,response,response_time,row_sel,session_number,start_end,starttime,subject_id,task,task_vers,trial
0,prac,1,,1-Back,,,Fri Apr 25 2025 15:29:58 GMT-0500 (Central Daylight Time),,005_o_f_d_a.png,I,space,4334,1,1,,,8038,VNB,B,0
1,prac,1,0.0,1-Back,1,m,Fri Apr 25 2025 15:29:58 GMT-0500 (Central Daylight Time),110644.19999999925,020_y_f_n_a.png,I,m,797,2,1,1672.9000000003725,108971.29999999888,8038,VNB,B,1
2,prac,1,0.0,1-Back,1,m,Fri Apr 25 2025 15:29:58 GMT-0500 (Central Daylight Time),112477.0,007_m_m_h_a.png,I,m,917,3,1,1808.0,110669.0,8038,VNB,B,2
3,prac,1,0.0,1-Back,1,m,Fri Apr 25 2025 15:29:58 GMT-0500 (Central Daylight Time),114076.5,016_y_m_d_a.png,I,m,681,4,1,1575.5,112501.0,8038,VNB,B,3
4,prac,1,0.0,1-Back,1,m,Fri Apr 25 2025 15:29:58 GMT-0500 (Central Daylight Time),115759.19999999925,005_o_f_n_a.png,I,m,772,5,1,1657.7999999988824,114101.40000000037,8038,VNB,B,4
5,prac,1,1.0,1-Back,1,z,Fri Apr 25 2025 15:29:58 GMT-0500 (Central Daylight Time),117625.29999999888,016_y_m_n_a.png,I,z,938,6,1,1841.8999999985099,115783.40000000037,8038,VNB,B,5
6,prac,1,0.0,1-Back,1,m,Fri Apr 25 2025 15:29:58 GMT-0500 (Central Daylight Time),119391.29999999888,004_o_m_h_a.png,I,m,876,7,1,1741.7999999988824,117649.5,8038,VNB,B,6
6,prac,1,0.0,1-Back,0,m,Fri Apr 25 2025 15:29:58 GMT-0500 (Central Daylight Time),121074.59999999963,011_m_f_d_a.png,I,z,774,8,1,1660.300000000745,119414.29999999888,8038,VNB,B,7
7,prac,1,1.0,1-Back,1,z,Fri Apr 25 2025 15:29:58 GMT-0500 (Central Daylight Time),122940.19999999925,020_y_f_d_a.png,I,z,977,9,1,1842.4000000003725,121097.79999999888,8038,VNB,B,8
8,prac,1,0.0,1-Back,1,m,Fri Apr 25 2025 15:29:58 GMT-0500 (Central Daylight Time),124589.79999999888,007_m_m_n_a.png,I,m,732,10,1,1623.8999999985099,122965.90000000037,8038,VNB,B,9
9,prac,1,0.0,1-Back,1,m,Fri Apr 25 2025 15:29:58 GMT-0500 (Central Daylight Time),126472.59999999963,005_o_f_h_a.png,I,m,979,11,1,1859.4000000003725,124613.19999999925,8038,VNB,B,10
10,prac,1,0.0,1-Back,1,m,Fri Apr 25 2025 15:29:58 GMT-0500 (Central Daylight Time),128138.59999999963,016_y_m_d_a.png,I,m,744,12,1,1641.800000000745,126496.79999999888,8038,VNB,B,11
0,test,1,0.0,1-Back,,,Fri Apr 25 2025 15:29:58 GMT-0500 (Central Daylight Time),128138.59999999963,020_y_f_d_a.png,I,space,5522,1,1,1641.800000000745,126496.79999999888,8038,VNB,B,0
1,test,1,0.0,1-Back,1,m,Fri Apr 25 2025 15:29:58 GMT-0500 (Central Daylight Time),143667.0,011_m_f_n_a.png,I,m,1589,2,1,2609.4000000003725,141057.59999999963,8038,VNB,B,1
2,test,1,0.0,1-Back,1,m,Fri Apr 25 2025 15:29:58 GMT-0500 (Central Daylight Time),145566.59999999963,004_o_m_h_a.png,I,m,853,3,1,1876.4000000003725,143690.19999999925,8038,VNB,B,2
3,test,1,1.0,1-Back,1,z,Fri Apr 25 2025 15:29:58 GMT-0500 (Central Daylight Time),147199.29999999888,007_m_m_h_a.png,I,z,594,4,1,1608.3999999985099,145590.90000000037,8038,VNB,B,3
4,test,1,0.0,1-Back,1,m,Fri Apr 25 2025 15:29:58 GMT-0500 (Central Daylight Time),148848.90000000037,005_o_f_n_a.png,I,m,609,5,1,1625.300000000745,147223.59999999963,8038,VNB,B,4
5,test,1,0.0,1-Back,1,m,Fri Apr 25 2025 15:29:58 GMT-0500 (Central Daylight Time),150581.59999999963,016_y_m_d_a.png,I,m,696,6,1,1709.5,148872.09999999963,8038,VNB,B,5
6,test,1,1.0,1-Back,1,z,Fri Apr 25 2025 15:29:58 GMT-0500 (Central Daylight Time),152547.5,011_m_f_d_a.png,I,z,931,7,1,1939.7000000011176,150607.79999999888,8038,VNB,B,6
7,test,1,0.0,1-Back,1,m,Fri Apr 25 2025 15:29:58 GMT-0500 (Central Daylight Time),154447.19999999925,020_y_f_h_a.png,I,m,853,8,1,1876.9000000003725,152570.29999999888,8038,VNB,B,7
8,test,1,0.0,1-Back,1,m,Fri Apr 25 2025 15:29:58 GMT-0500 (Central Daylight Time),156279.79999999888,004_o_m_n_a.png,I,m,793,9,1,1809.199999999255,154470.59999999963,8038,VNB,B,8
9,test,1,0.0,1-Back,1,m,Fri Apr 25 2025 15:29:58 GMT-0500 (Central Daylight Time),157929.19999999925,016_y_m_h_a.png,I,m,609,10,1,1626.4000000003725,156302.79999999888,8038,VNB,B,9
10,test,1,0.0,1-Back,1,m,Fri Apr 25 2025 15:29:58 GMT-0500 (Central Daylight Time),159595.29999999888,004_o_m_d_a.png,I,m,631,11,1,1642.8999999985099,157952.40000000037,8038,VNB,B,10
11,test,1,1.0,1-Back,1,z,Fri Apr 25 2025 15:29:58 GMT-0500 (Central Daylight Time),161444.79999999888,005_o_f_d_a.png,I,z,813,12,1,1826.199999999255,159618.59999999963,8038,VNB,B,11
12,test,1,0.0,1-Back,1,m,Fri Apr 25 2025 15:29:58 GMT-0500 (Central Daylight Time),163194.19999999925,007_m_m_n_a.png,I,m,708,13,1,1725.2999999988824,161468.90000000037,8038,VNB,B,12
13,test,1,1.0,1-Back,1,z,Fri Apr 25 2025 15:29:58 GMT-0500 (Central Daylight Time),165210.5,020_y_f_n_a.png,I,z,974,14,1,1992.5,163218.0,8038,VNB,B,13
14,test,1,0.0,1-Back,1,m,Fri Apr 25 2025 15:29:58 GMT-0500 (Central Daylight Time),167442.90000000037,011_m_f_h_a.png,I,m,1198,15,1,2208.800000000745,165234.09999999963,8038,VNB,B,14
15,test,1,0.0,1-Back,1,m,Fri Apr 25 2025 15:29:58 GMT-0500 (Central Daylight Time),169192.40000000037,007_m_m_d_a.png,I,m,709,16,1,1726.1000000014901,167466.29999999888,8038,VNB,B,15
16,test,1,0.0,1-Back,1,m,Fri Apr 25 2025 15:29:58 GMT-0500 (Central Daylight Time),171291.69999999925,016_y_m_n_a.png,I,m,1064,17,1,2075.2999999988824,169216.40000000037,8038,VNB,B,16
17,test,1,0.0,1-Back,1,m,Fri Apr 25 2025 15:29:58 GMT-0500 (Central Daylight Time),173041.19999999925,005_o_f_h_a.png,I,m,709,18,1,1724.699999999255,171316.5,8038,VNB,B,17
0,test,2,0.0,1-Back,,,Fri Apr 25 2025 15:29:58 GMT-0500 (Central Daylight Time),173041.19999999925,016_y_m_n_a.png,I,space,1984,1,1,1724.699999999255,171316.5,8038,VNB,B,0
1,test,2,0.0,1-Back,1,m,Fri Apr 25 2025 15:29:58 GMT-0500 (Central Daylight Time),178989.40000000037,020_y_f_h_a.png,I,m,896,2,1,1909.4000000003725,177080.0,8038,VNB,B,1
2,test,2,1.0,1-Back,1,m,Fri Apr 25 2025 15:29:58 GMT-0500 (Central Daylight Time),180572.19999999925,004_o_m_n_a.png,I,m,539,3,1,1559.0,179013.19999999925,8038,VNB,B,2
3,test,2,0.0,1-Back,1,m,Fri Apr 25 2025 15:29:58 GMT-0500 (Central Daylight Time),182388.29999999888,011_m_f_d_a.png,I,m,780,4,1,1793.7999999988824,180594.5,8038,VNB,B,3
4,test,2,0.0,1-Back,1,z,Fri Apr 25 2025 15:29:58 GMT-0500 (Central Daylight Time),183854.5,007_m_m_d_a.png,I,z,420,5,1,1441.300000000745,182413.19999999925,8038,VNB,B,4
5,test,2,0.0,1-Back,1,m,Fri Apr 25 2025 15:29:58 GMT-0500 (Central Daylight Time),185470.79999999888,016_y_m_h_a.png,I,m,570,6,1,1590.699999999255,183880.09999999963,8038,VNB,B,5
6,test,2,1.0,1-Back,1,z,Fri Apr 25 2025 15:29:58 GMT-0500 (Central Daylight Time),187303.5,005_o_f_h_a.png,I,z,786,7,1,1810.0,185493.5,8038,VNB,B,6
7,test,2,0.0,1-Back,1,m,Fri Apr 25 2025 15:29:58 GMT-0500 (Central Daylight Time),188966.09999999963,011_m_f_n_a.png,I,m,629,8,1,1637.199999999255,187328.90000000037,8038,VNB,B,7
8,test,2,0.0,1-Back,1,m,Fri Apr 25 2025 15:29:58 GMT-0500 (Central Daylight Time),191019.09999999963,020_y_f_d_a.png,I,m,898,9,1,1902.5999999996275,189116.5,8038,VNB,B,8
9,test,2,0.0,1-Back,1,m,Fri Apr 25 2025 15:29:58 GMT-0500 (Central Daylight Time),192651.90000000037,007_m_m_n_a.png,I,m,598,10,1,1607.9000000003725,191044.0,8038,VNB,B,9
10,test,2,1.0,1-Back,1,m,Fri Apr 25 2025 15:29:58 GMT-0500 (Central Daylight Time),194367.79999999888,011_m_f_h_a.png,I,m,669,11,1,1688.5999999996275,192679.19999999925,8038,VNB,B,10
11,test,2,0.0,1-Back,1,z,Fri Apr 25 2025 15:29:58 GMT-0500 (Central Daylight Time),195950.79999999888,004_o_m_h_a.png,I,z,545,12,1,1559.0,194391.79999999888,8038,VNB,B,11
12,test,2,0.0,1-Back,1,m,Fri Apr 25 2025 15:29:58 GMT-0500 (Central Daylight Time),197600.29999999888,016_y_m_d_a.png,I,m,602,13,1,1623.2999999988824,195977.0,8038,VNB,B,12
13,test,2,0.0,1-Back,1,m,Fri Apr 25 2025 15:29:58 GMT-0500 (Central Daylight Time),199283.0,005_o_f_n_a.png,I,m,640,14,1,1657.5999999996275,197625.40000000037,8038,VNB,B,13
13,test,2,0.0,1-Back,0,z,Fri Apr 25 2025 15:29:58 GMT-0500 (Central Daylight Time),200982.59999999963,020_y_f_n_a.png,I,m,653,15,1,1676.199999999255,199306.40000000037,8038,VNB,B,14
14,test,2,1.0,1-Back,1,m,Fri Apr 25 2025 15:29:58 GMT-0500 (Central Daylight Time),202715.19999999925,007_m_m_h_a.png,I,m,698,16,1,1708.5,201006.69999999925,8038,VNB,B,15
15,test,2,0.0,1-Back,1,m,Fri Apr 25 2025 15:29:58 GMT-0500 (Central Daylight Time),204464.79999999888,005_o_f_d_a.png,I,m,701,17,1,1726.199999999255,202738.59999999963,8038,VNB,B,16
16,test,2,1.0,1-Back,1,z,Fri Apr 25 2025 15:29:58 GMT-0500 (Central Daylight Time),206230.79999999888,004_o_m_d_a.png,I,z,720,18,1,1743.5,204487.29999999888,8038,VNB,B,17
0,test,3,1.0,1-Back,,,Fri Apr 25 2025 15:29:58 GMT-0500 (Central Daylight Time),206230.79999999888,005_o_f_h_a.png,I,space,1579,1,1,1743.5,204487.29999999888,8038,VNB,B,0
1,test,3,0.0,1-Back,1,m,Fri Apr 25 2025 15:29:58 GMT-0500 (Central Daylight Time),211862.29999999888,011_m_f_d_a.png,I,m,870,2,1,1887.5999999996275,209974.69999999925,8038,VNB,B,1
2,test,3,1.0,1-Back,1,m,Fri Apr 25 2025 15:29:58 GMT-0500 (Central Daylight Time),213895.09999999963,007_m_m_n_a.png,I,m,994,3,1,2009.9000000003725,211885.19999999925,8038,VNB,B,2
3,test,3,0.0,1-Back,1,z,Fri Apr 25 2025 15:29:58 GMT-0500 (Central Daylight Time),215627.69999999925,005_o_f_n_a.png,I,z,697,4,1,1709.4000000003725,213918.29999999888,8038,VNB,B,3
4,test,3,1.0,1-Back,1,m,Fri Apr 25 2025 15:29:58 GMT-0500 (Central Daylight Time),217344.09999999963,004_o_m_d_a.png,I,m,677,5,1,1691.300000000745,215652.79999999888,8038,VNB,B,4
5,test,3,0.0,1-Back,1,m,Fri Apr 25 2025 15:29:58 GMT-0500 (Central Daylight Time),219043.5,020_y_f_h_a.png,I,m,664,6,1,1675.800000000745,217367.69999999925,8038,VNB,B,5
6,test,3,0.0,1-Back,1,z,Fri Apr 25 2025 15:29:58 GMT-0500 (Central Daylight Time),220726.29999999888,016_y_m_h_a.png,I,z,645,7,1,1658.7999999988824,219067.5,8038,VNB,B,6
7,test,3,0.0,1-Back,1,m,Fri Apr 25 2025 15:29:58 GMT-0500 (Central Daylight Time),222359.0,011_m_f_n_a.png,I,m,594,8,1,1605.4000000003725,220753.59999999963,8038,VNB,B,7
8,test,3,0.0,1-Back,1,m,Fri Apr 25 2025 15:29:58 GMT-0500 (Central Daylight Time),224125.40000000037,020_y_f_d_a.png,I,m,729,9,1,1742.800000000745,222382.59999999963,8038,VNB,B,8
9,test,3,1.0,1-Back,1,m,Fri Apr 25 2025 15:29:58 GMT-0500 (Central Daylight Time),226058.09999999963,004_o_m_n_a.png,I,m,884,10,1,1910.800000000745,224147.29999999888,8038,VNB,B,9
10,test,3,0.0,1-Back,1,m,Fri Apr 25 2025 15:29:58 GMT-0500 (Central Daylight Time),227674.5,007_m_m_h_a.png,I,m,583,11,1,1589.0,226085.5,8038,VNB,B,10
11,test,3,0.0,1-Back,1,z,Fri Apr 25 2025 15:29:58 GMT-0500 (Central Daylight Time),229240.09999999963,011_m_f_h_a.png,I,z,519,12,1,1543.199999999255,227696.90000000037,8038,VNB,B,11
12,test,3,1.0,1-Back,1,m,Fri Apr 25 2025 15:29:58 GMT-0500 (Central Daylight Time),230939.59999999963,005_o_f_d_a.png,I,m,656,13,1,1676.199999999255,229263.40000000037,8038,VNB,B,12
13,test,3,0.0,1-Back,1,z,Fri Apr 25 2025 15:29:58 GMT-0500 (Central Daylight Time),232739.09999999963,007_m_m_d_a.png,I,z,757,14,1,1776.9000000003725,230962.19999999925,8038,VNB,B,13
14,test,3,0.0,1-Back,1,m,Fri Apr 25 2025 15:29:58 GMT-0500 (Central Daylight Time),234438.40000000037,016_y_m_n_a.png,I,m,653,15,1,1675.2000000011176,232763.19999999925,8038,VNB,B,14
15,test,3,1.0,1-Back,1,m,Fri Apr 25 2025 15:29:58 GMT-0500 (Central Daylight Time),236238.19999999925,004_o_m_h_a.png,I,m,761,16,1,1775.699999999255,234462.5,8038,VNB,B,15
16,test,3,0.0,1-Back,1,m,Fri Apr 25 2025 15:29:58 GMT-0500 (Central Daylight Time),237887.5,016_y_m_d_a.png,I,m,602,17,1,1618.800000000745,236268.69999999925,8038,VNB,B,16
17,test,3,1.0,1-Back,1,m,Fri Apr 25 2025 15:29:58 GMT-0500 (Central Daylight Time),239570.69999999925,020_y_f_n_a.png,I,m,649,18,1,1660.0,237910.69999999925,8038,VNB,B,17
0,test,4,1.0,1-Back,,,Fri Apr 25 2025 15:29:58 GMT-0500 (Central Daylight Time),239570.69999999925,007_m_m_d_a.png,I,space,1743,1,1,1660.0,237910.69999999925,8038,VNB,B,0
1,test,4,0.0,1-Back,1,z,Fri Apr 25 2025 15:29:58 GMT-0500 (Central Daylight Time),245068.5,004_o_m_d_a.png,I,z,689,2,1,1709.800000000745,243358.69999999925,8038,VNB,B,1
2,test,4,0.0,1-Back,1,m,Fri Apr 25 2025 15:29:58 GMT-0500 (Central Daylight Time),246768.0,016_y_m_h_a.png,I,m,652,3,1,1675.300000000745,245092.69999999925,8038,VNB,B,2
3,test,4,0.0,1-Back,1,m,Fri Apr 25 2025 15:29:58 GMT-0500 (Central Daylight Time),248367.40000000037,011_m_f_n_a.png,I,m,561,4,1,1577.4000000003725,246790.0,8038,VNB,B,3
4,test,4,1.0,1-Back,1,m,Fri Apr 25 2025 15:29:58 GMT-0500 (Central Daylight Time),249967.0,005_o_f_h_a.png,I,m,553,5,1,1575.300000000745,248391.69999999925,8038,VNB,B,4
5,test,4,0.0,1-Back,1,m,Fri Apr 25 2025 15:29:58 GMT-0500 (Central Daylight Time),251716.40000000037,007_m_m_n_a.png,I,m,713,6,1,1725.5,249990.90000000037,8038,VNB,B,5
6,test,4,0.0,1-Back,1,m,Fri Apr 25 2025 15:29:58 GMT-0500 (Central Daylight Time),253416.09999999963,016_y_m_d_a.png,I,m,652,7,1,1675.699999999255,251740.40000000037,8038,VNB,B,6
7,test,4,1.0,1-Back,1,z,Fri Apr 25 2025 15:29:58 GMT-0500 (Central Daylight Time),255215.40000000037,020_y_f_d_a.png,I,z,752,8,1,1776.800000000745,253438.59999999963,8038,VNB,B,7
8,test,4,0.0,1-Back,1,m,Fri Apr 25 2025 15:29:58 GMT-0500 (Central Daylight Time),256914.79999999888,011_m_f_h_a.png,I,m,657,9,1,1675.699999999255,255239.09999999963,8038,VNB,B,8
9,test,4,0.0,1-Back,1,z,Fri Apr 25 2025 15:29:58 GMT-0500 (Central Daylight Time),258447.79999999888,004_o_m_h_a.png,I,z,494,10,1,1510.0,256937.79999999888,8038,VNB,B,9
10,test,4,1.0,1-Back,1,m,Fri Apr 25 2025 15:29:58 GMT-0500 (Central Daylight Time),260113.79999999888,005_o_f_n_a.png,I,m,617,11,1,1642.0999999996275,258471.69999999925,8038,VNB,B,10
11,test,4,0.0,1-Back,1,m,Fri Apr 25 2025 15:29:58 GMT-0500 (Central Daylight Time),262063.19999999925,011_m_f_d_a.png,I,m,903,12,1,1923.7999999988824,260139.40000000037,8038,VNB,B,11
12,test,4,0.0,1-Back,1,m,Fri Apr 25 2025 15:29:58 GMT-0500 (Central Daylight Time),263812.69999999925,020_y_f_n_a.png,I,m,713,13,1,1726.5,262086.19999999925,8038,VNB,B,12
13,test,4,0.0,1-Back,1,m,Fri Apr 25 2025 15:29:58 GMT-0500 (Central Daylight Time),265562.0999999996,005_o_f_d_a.png,I,m,708,14,1,1726.300000000745,263835.7999999989,8038,VNB,B,13
14,test,4,0.0,1-Back,1,m,Fri Apr 25 2025 15:29:58 GMT-0500 (Central Daylight Time),267261.7999999989,020_y_f_h_a.png,I,m,654,15,1,1677.199999999255,265584.5999999996,8038,VNB,B,14
15,test,4,1.0,1-Back,1,z,Fri Apr 25 2025 15:29:58 GMT-0500 (Central Daylight Time),268711.19999999925,007_m_m_h_a.png,I,z,403,16,1,1423.9000000003725,267287.2999999989,8038,VNB,B,15
16,test,4,0.0,1-Back,1,m,Fri Apr 25 2025 15:29:58 GMT-0500 (Central Daylight Time),270394.2999999989,004_o_m_n_a.png,I,m,649,17,1,1659.7999999988824,268734.5,8038,VNB,B,16
17,test,4,1.0,1-Back,1,z,Fri Apr 25 2025 15:29:58 GMT-0500 (Central Daylight Time),272076.69999999925,016_y_m_n_a.png,I,z,638,18,1,1658.5999999996275,270418.0999999996,8038,VNB,B,17
0,test,5,1.0,1-Back,,,Fri Apr 25 2025 15:29:58 GMT-0500 (Central Daylight Time),272076.69999999925,004_o_m_n_a.png,I,space,1452,1,1,1658.5999999996275,270418.0999999996,8038,VNB,B,0
1,test,5,1.0,1-Back,1,m,Fri Apr 25 2025 15:29:58 GMT-0500 (Central Daylight Time),277291.7999999989,005_o_f_h_a.png,I,m,698,2,1,1711.7999999988824,275580.0,8038,VNB,B,1
2,test,5,0.0,1-Back,1,m,Fri Apr 25 2025 15:29:58 GMT-0500 (Central Daylight Time),279191.2999999989,016_y_m_d_a.png,I,m,853,3,1,1876.199999999255,277315.0999999996,8038,VNB,B,2
3,test,5,0.0,1-Back,1,z,Fri Apr 25 2025 15:29:58 GMT-0500 (Central Daylight Time),280774.0,004_o_m_d_a.png,I,z,546,4,1,1559.5999999996275,279214.4000000004,8038,VNB,B,3
4,test,5,0.0,1-Back,1,m,Fri Apr 25 2025 15:29:58 GMT-0500 (Central Daylight Time),282473.4000000004,011_m_f_h_a.png,I,m,657,5,1,1676.300000000745,280797.0999999996,8038,VNB,B,4
5,test,5,0.0,1-Back,1,m,Fri Apr 25 2025 15:29:58 GMT-0500 (Central Daylight Time),284056.19999999925,020_y_f_n_a.png,I,m,543,6,1,1558.2999999988824,282497.9000000004,8038,VNB,B,5
6,test,5,1.0,1-Back,1,z,Fri Apr 25 2025 15:29:58 GMT-0500 (Central Daylight Time),286105.7999999989,005_o_f_n_a.png,I,z,1008,7,1,2025.8999999985099,284079.9000000004,8038,VNB,B,6
7,test,5,0.0,1-Back,1,m,Fri Apr 25 2025 15:29:58 GMT-0500 (Central Daylight Time),287771.7999999989,011_m_f_d_a.png,I,m,631,8,1,1641.5,286130.2999999989,8038,VNB,B,7
8,test,5,0.0,1-Back,1,m,Fri Apr 25 2025 15:29:58 GMT-0500 (Central Daylight Time),289388.19999999925,016_y_m_h_a.png,I,m,581,9,1,1592.5999999996275,287795.5999999996,8038,VNB,B,8
9,test,5,0.0,1-Back,1,m,Fri Apr 25 2025 15:29:58 GMT-0500 (Central Daylight Time),291137.5,020_y_f_d_a.png,I,m,701,10,1,1726.0999999996275,289411.4000000004,8038,VNB,B,9
10,test,5,0.0,1-Back,1,m,Fri Apr 25 2025 15:29:58 GMT-0500 (Central Daylight Time),292786.9000000004,007_m_m_n_a.png,I,m,607,11,1,1626.5,291160.4000000004,8038,VNB,B,10
11,test,5,1.0,1-Back,1,z,Fri Apr 25 2025 15:29:58 GMT-0500 (Central Daylight Time),294769.69999999925,011_m_f_n_a.png,I,z,934,12,1,1960.0,292809.69999999925,8038,VNB,B,11
12,test,5,0.0,1-Back,1,m,Fri Apr 25 2025 15:29:58 GMT-0500 (Central Daylight Time),296570.0,004_o_m_h_a.png,I,m,751,13,1,1774.9000000003725,294795.0999999996,8038,VNB,B,12
13,test,5,0.0,1-Back,1,z,Fri Apr 25 2025 15:29:58 GMT-0500 (Central Daylight Time),298101.9000000004,007_m_m_h_a.png,I,z,487,14,1,1507.800000000745,296594.0999999996,8038,VNB,B,13
14,test,5,1.0,1-Back,1,m,Fri Apr 25 2025 15:29:58 GMT-0500 (Central Daylight Time),299868.0999999996,005_o_f_d_a.png,I,m,731,15,1,1743.800000000745,298124.2999999989,8038,VNB,B,14
15,test,5,0.0,1-Back,1,m,Fri Apr 25 2025 15:29:58 GMT-0500 (Central Daylight Time),301534.2999999989,016_y_m_n_a.png,I,m,628,16,1,1642.8999999985099,299891.4000000004,8038,VNB,B,15
16,test,5,0.0,1-Back,1,m,Fri Apr 25 2025 15:29:58 GMT-0500 (Central Daylight Time),303250.2999999989,020_y_f_h_a.png,I,m,674,17,1,1691.7999999988824,301558.5,8038,VNB,B,16
17,test,5,0.0,1-Back,1,m,Fri Apr 25 2025 15:29:58 GMT-0500 (Central Daylight Time),304766.69999999925,007_m_m_d_a.png,I,m,478,18,1,1494.699999999255,303272.0,8038,VNB,B,17
0,prac,1,0.0,2-Back,,,Fri Apr 25 2025 15:29:58 GMT-0500 (Central Daylight Time),304766.69999999925,011_m_f_n_a.png,I,space,6913,1,1,1494.699999999255,303272.0,8038,VNB,B,0
0,prac,1,0.0,2-Back,,,Fri Apr 25 2025 15:29:58 GMT-0500 (Central Daylight Time),304766.69999999925,005_o_f_h_a.png,I,space,6913,2,1,1494.699999999255,303272.0,8038,VNB,B,0
1,prac,1,0.0,2-Back,1,m,Fri Apr 25 2025 15:29:58 GMT-0500 (Central Daylight Time),394271.9000000004,004_o_m_d_a.png,I,m,1432,3,1,2308.5,391963.4000000004,8038,VNB,B,1
2,prac,1,1.0,2-Back,1,z,Fri Apr 25 2025 15:29:58 GMT-0500 (Central Daylight Time),396121.4000000004,007_m_m_h_a.png,I,z,933,4,1,1826.0,394295.4000000004,8038,VNB,B,2
2,prac,1,0.0,2-Back,0,m,Fri Apr 25 2025 15:29:58 GMT-0500 (Central Daylight Time),398503.9000000004,020_y_f_n_a.png,I,z,1476,5,1,2355.2000000011176,396148.69999999925,8038,VNB,B,3
2,prac,1,1.0,2-Back,0,z,Fri Apr 25 2025 15:29:58 GMT-0500 (Central Daylight Time),400786.4000000004,004_o_m_h_a.png,I,m,1488,6,1,2256.60000000149,398529.7999999989,8038,VNB,B,4
3,prac,1,1.0,2-Back,1,z,Fri Apr 25 2025 15:29:58 GMT-0500 (Central Daylight Time),403102.19999999925,016_y_m_n_a.png,I,z,1400,7,1,2292.0999999996275,400810.0999999996,8038,VNB,B,5
4,prac,1,0.0,2-Back,1,m,Fri Apr 25 2025 15:29:58 GMT-0500 (Central Daylight Time),405734.9000000004,011_m_f_d_a.png,I,m,1724,8,1,2609.10000000149,403125.7999999989,8038,VNB,B,6
5,prac,1,0.0,2-Back,1,m,Fri Apr 25 2025 15:29:58 GMT-0500 (Central Daylight Time),408117.2999999989,005_o_f_d_a.png,I,m,1468,9,1,2358.199999999255,405759.0999999996,8038,VNB,B,7
6,prac,1,0.0,2-Back,1,m,Fri Apr 25 2025 15:29:58 GMT-0500 (Central Daylight Time),410050.19999999925,007_m_m_h_a.png,I,m,1139,10,1,1907.7999999988824,408142.4000000004,8038,VNB,B,8
7,prac,1,1.0,2-Back,1,z,Fri Apr 25 2025 15:29:58 GMT-0500 (Central Daylight Time),412033.19999999925,020_y_f_d_a.png,I,z,1095,11,1,1960.0,410073.19999999925,8038,VNB,B,9
8,prac,1,0.0,2-Back,1,m,Fri Apr 25 2025 15:29:58 GMT-0500 (Central Daylight Time),414615.2999999989,004_o_m_n_a.png,I,m,1683,12,1,2556.89999999851,412058.4000000004,8038,VNB,B,10
0,test,1,0.0,2-Back,,,Fri Apr 25 2025 15:29:58 GMT-0500 (Central Daylight Time),414615.2999999989,016_y_m_h_a.png,I,space,3899,1,1,2556.89999999851,412058.4000000004,8038,VNB,B,0
0,test,1,0.0,2-Back,,,Fri Apr 25 2025 15:29:58 GMT-0500 (Central Daylight Time),414615.2999999989,005_o_f_n_a.png,I,space,3899,2,1,2556.89999999851,412058.4000000004,8038,VNB,B,0
1,test,1,0.0,2-Back,1,z,Fri Apr 25 2025 15:29:58 GMT-0500 (Central Daylight Time),431193.69999999925,004_o_m_h_a.png,I,z,484,3,1,1508.5,429685.19999999925,8038,VNB,B,1
2,test,1,0.0,2-Back,1,m,Fri Apr 25 2025 15:29:58 GMT-0500 (Central Daylight Time),433493.0,011_m_f_d_a.png,I,m,1255,4,1,2275.9000000003725,431217.0999999996,8038,VNB,B,2
2,test,1,1.0,2-Back,0,m,Fri Apr 25 2025 15:29:58 GMT-0500 (Central Daylight Time),435659.2999999989,016_y_m_n_a.png,I,z,1132,5,1,2139.5,433519.7999999989,8038,VNB,B,3
3,test,1,0.0,2-Back,1,z,Fri Apr 25 2025 15:29:58 GMT-0500 (Central Daylight Time),438024.7999999989,020_y_f_d_a.png,I,z,1318,6,1,2342.0,435682.7999999989,8038,VNB,B,4
4,test,1,0.0,2-Back,1,m,Fri Apr 25 2025 15:29:58 GMT-0500 (Central Daylight Time),440590.5,007_m_m_h_a.png,I,m,1528,7,1,2542.0,438048.5,8038,VNB,B,5
5,test,1,1.0,2-Back,1,m,Fri Apr 25 2025 15:29:58 GMT-0500 (Central Daylight Time),442506.5999999996,020_y_f_n_a.png,I,m,882,8,1,1893.0999999996275,440613.5,8038,VNB,B,6
6,test,1,0.0,2-Back,1,z,Fri Apr 25 2025 15:29:58 GMT-0500 (Central Daylight Time),444222.9000000004,005_o_f_h_a.png,I,z,678,9,1,1692.6000000014901,442530.2999999989,8038,VNB,B,7
7,test,1,0.0,2-Back,1,m,Fri Apr 25 2025 15:29:58 GMT-0500 (Central Daylight Time),446888.69999999925,004_o_m_d_a.png,I,m,1618,10,1,2639.5,444249.19999999925,8038,VNB,B,8
7,test,1,1.0,2-Back,0,m,Fri Apr 25 2025 15:29:58 GMT-0500 (Central Daylight Time),449338.0,007_m_m_d_a.png,I,z,1408,11,1,2425.800000000745,446912.19999999925,8038,VNB,B,9
8,test,1,0.0,2-Back,1,m,Fri Apr 25 2025 15:29:58 GMT-0500 (Central Daylight Time),452303.69999999925,011_m_f_n_a.png,I,m,1927,12,1,2942.4000000003725,449361.2999999989,8038,VNB,B,10
9,test,1,0.0,2-Back,1,m,Fri Apr 25 2025 15:29:58 GMT-0500 (Central Daylight Time),454252.9000000004,020_y_f_h_a.png,I,m,905,13,1,1923.2000000011176,452329.69999999925,8038,VNB,B,11
10,test,1,0.0,2-Back,1,z,Fri Apr 25 2025 15:29:58 GMT-0500 (Central Daylight Time),456002.4000000004,007_m_m_n_a.png,I,z,708,14,1,1728.4000000003725,454274.0,8038,VNB,B,12
11,test,1,0.0,2-Back,1,m,Fri Apr 25 2025 15:29:58 GMT-0500 (Central Daylight Time),458135.0,016_y_m_d_a.png,I,m,1086,15,1,2106.5,456028.5,8038,VNB,B,13
11,test,1,1.0,2-Back,0,m,Fri Apr 25 2025 15:29:58 GMT-0500 (Central Daylight Time),460901.0,011_m_f_h_a.png,I,z,1721,16,1,2742.4000000003725,458158.5999999996,8038,VNB,B,14
12,test,1,0.0,2-Back,1,z,Fri Apr 25 2025 15:29:58 GMT-0500 (Central Daylight Time),462850.2999999989,005_o_f_d_a.png,I,z,899,17,1,1926.2999999988824,460924.0,8038,VNB,B,15
13,test,1,0.0,2-Back,1,m,Fri Apr 25 2025 15:29:58 GMT-0500 (Central Daylight Time),465532.9000000004,004_o_m_n_a.png,I,m,1647,18,1,2659.0,462873.9000000004,8038,VNB,B,16
0,test,2,0.0,2-Back,,,Fri Apr 25 2025 15:29:58 GMT-0500 (Central Daylight Time),465532.9000000004,007_m_m_h_a.png,I,space,1381,1,1,2659.0,462873.9000000004,8038,VNB,B,0
0,test,2,0.0,2-Back,,,Fri Apr 25 2025 15:29:58 GMT-0500 (Central Daylight Time),465532.9000000004,020_y_f_n_a.png,I,space,1381,2,1,2659.0,462873.9000000004,8038,VNB,B,0
1,test,2,1.0,2-Back,1,z,Fri Apr 25 2025 15:29:58 GMT-0500 (Central Daylight Time),474346.5999999996,005_o_f_h_a.png,I,z,1124,3,1,2144.9000000003725,472201.69999999925,8038,VNB,B,1
2,test,2,0.0,2-Back,1,m,Fri Apr 25 2025 15:29:58 GMT-0500 (Central Daylight Time),476679.19999999925,004_o_m_d_a.png,I,m,1286,4,1,2308.0999999996275,474371.0999999996,8038,VNB,B,2
3,test,2,0.0,2-Back,1,m,Fri Apr 25 2025 15:29:58 GMT-0500 (Central Daylight Time),478728.69999999925,011_m_f_d_a.png,I,m,1001,5,1,2027.0999999996275,476701.5999999996,8038,VNB,B,3
4,test,2,0.0,2-Back,1,m,Fri Apr 25 2025 15:29:58 GMT-0500 (Central Daylight Time),480794.5999999996,016_y_m_h_a.png,I,m,1016,6,1,2041.4000000003725,478753.19999999925,8038,VNB,B,4
5,test,2,0.0,2-Back,1,m,Fri Apr 25 2025 15:29:58 GMT-0500 (Central Daylight Time),483377.0,005_o_f_n_a.png,I,m,1542,7,1,2557.0,480820.0,8038,VNB,B,5
6,test,2,1.0,2-Back,1,z,Fri Apr 25 2025 15:29:58 GMT-0500 (Central Daylight Time),485076.5999999996,004_o_m_h_a.png,I,z,663,8,1,1675.0999999996275,483401.5,8038,VNB,B,6
7,test,2,0.0,2-Back,1,m,Fri Apr 25 2025 15:29:58 GMT-0500 (Central Daylight Time),487042.9000000004,020_y_f_d_a.png,I,m,916,9,1,1944.0,485098.9000000004,8038,VNB,B,7
8,test,2,0.0,2-Back,1,m,Fri Apr 25 2025 15:29:58 GMT-0500 (Central Daylight Time),489075.4000000004,016_y_m_d_a.png,I,m,990,10,1,2008.4000000003725,487067.0,8038,VNB,B,8
9,test,2,0.0,2-Back,1,m,Fri Apr 25 2025 15:29:58 GMT-0500 (Central Daylight Time),491158.0999999996,007_m_m_n_a.png,I,m,1045,11,1,2058.0999999996275,489100.0,8038,VNB,B,9
10,test,2,0.0,2-Back,1,m,Fri Apr 25 2025 15:29:58 GMT-0500 (Central Daylight Time),493074.19999999925,011_m_f_h_a.png,I,m,867,12,1,1891.2999999988824,491182.9000000004,8038,VNB,B,10
11,test,2,1.0,2-Back,1,z,Fri Apr 25 2025 15:29:58 GMT-0500 (Central Daylight Time),494873.4000000004,004_o_m_n_a.png,I,z,759,13,1,1774.7000000011176,493098.69999999925,8038,VNB,B,11
12,test,2,0.0,2-Back,1,m,Fri Apr 25 2025 15:29:58 GMT-0500 (Central Daylight Time),496873.19999999925,005_o_f_d_a.png,I,m,951,14,1,1975.9000000003725,494897.2999999989,8038,VNB,B,12
13,test,2,0.0,2-Back,1,m,Fri Apr 25 2025 15:29:58 GMT-0500 (Central Daylight Time),498805.5,020_y_f_h_a.png,I,m,896,15,1,1908.5999999996275,496896.9000000004,8038,VNB,B,13
14,test,2,0.0,2-Back,1,z,Fri Apr 25 2025 15:29:58 GMT-0500 (Central Daylight Time),500705.0999999996,007_m_m_d_a.png,I,z,851,16,1,1877.0,498828.0999999996,8038,VNB,B,14
15,test,2,0.0,2-Back,1,m,Fri Apr 25 2025 15:29:58 GMT-0500 (Central Daylight Time),503304.19999999925,016_y_m_n_a.png,I,m,1552,17,1,2576.2999999988824,500727.9000000004,8038,VNB,B,15
16,test,2,1.0,2-Back,1,m,Fri Apr 25 2025 15:29:58 GMT-0500 (Central Daylight Time),505487.0,011_m_f_n_a.png,I,m,1144,18,1,2156.300000000745,503330.69999999925,8038,VNB,B,16
0,test,3,1.0,2-Back,,,Fri Apr 25 2025 15:29:58 GMT-0500 (Central Daylight Time),505487.0,004_o_m_n_a.png,I,space,2074,1,1,2156.300000000745,503330.69999999925,8038,VNB,B,0
0,test,3,1.0,2-Back,,,Fri Apr 25 2025 15:29:58 GMT-0500 (Central Daylight Time),505487.0,005_o_f_d_a.png,I,space,2074,2,1,2156.300000000745,503330.69999999925,8038,VNB,B,0
1,test,3,0.0,2-Back,1,m,Fri Apr 25 2025 15:29:58 GMT-0500 (Central Daylight Time),515100.5999999996,020_y_f_h_a.png,I,m,1438,3,1,2459.5,512641.0999999996,8038,VNB,B,1
2,test,3,0.0,2-Back,1,z,Fri Apr 25 2025 15:29:58 GMT-0500 (Central Daylight Time),517083.19999999925,011_m_f_d_a.png,I,z,940,4,1,1960.9000000003725,515122.2999999989,8038,VNB,B,2
3,test,3,1.0,2-Back,1,m,Fri Apr 25 2025 15:29:58 GMT-0500 (Central Daylight Time),519515.9000000004,016_y_m_n_a.png,I,m,1389,5,1,2408.7000000011176,517107.19999999925,8038,VNB,B,3
4,test,3,0.0,2-Back,1,m,Fri Apr 25 2025 15:29:58 GMT-0500 (Central Daylight Time),521598.4000000004,004_o_m_h_a.png,I,m,1037,6,1,2061.2000000011176,519537.19999999925,8038,VNB,B,4
5,test,3,0.0,2-Back,1,z,Fri Apr 25 2025 15:29:58 GMT-0500 (Central Daylight Time),523764.4000000004,020_y_f_n_a.png,I,z,1122,7,1,2143.5,521620.9000000004,8038,VNB,B,5
6,test,3,1.0,2-Back,1,m,Fri Apr 25 2025 15:29:58 GMT-0500 (Central Daylight Time),525763.7999999989,007_m_m_d_a.png,I,m,956,8,1,1975.3999999985099,523788.4000000004,8038,VNB,B,6
7,test,3,0.0,2-Back,1,m,Fri Apr 25 2025 15:29:58 GMT-0500 (Central Daylight Time),527680.0999999996,016_y_m_d_a.png,I,m,869,9,1,1892.699999999255,525787.4000000004,8038,VNB,B,7
8,test,3,0.0,2-Back,1,m,Fri Apr 25 2025 15:29:58 GMT-0500 (Central Daylight Time),529679.2999999989,005_o_f_h_a.png,I,m,960,10,1,1976.5,527702.7999999989,8038,VNB,B,8
9,test,3,1.0,2-Back,1,m,Fri Apr 25 2025 15:29:58 GMT-0500 (Central Daylight Time),531645.4000000004,011_m_f_n_a.png,I,m,929,11,1,1941.2000000011176,529704.1999999993,8038,VNB,B,9
10,test,3,1.0,2-Back,1,z,Fri Apr 25 2025 15:29:58 GMT-0500 (Central Daylight Time),533511.4000000004,007_m_m_h_a.png,I,z,819,12,1,1842.1000000014901,531669.2999999989,8038,VNB,B,10
11,test,3,0.0,2-Back,1,m,Fri Apr 25 2025 15:29:58 GMT-0500 (Central Daylight Time),535577.5999999996,020_y_f_d_a.png,I,m,1025,13,1,2041.5,533536.0999999996,8038,VNB,B,11
12,test,3,0.0,2-Back,1,m,Fri Apr 25 2025 15:29:58 GMT-0500 (Central Daylight Time),538460.7999999989,005_o_f_n_a.png,I,m,1848,14,1,2859.0999999996275,535601.6999999993,8038,VNB,B,12
13,test,3,0.0,2-Back,1,z,Fri Apr 25 2025 15:29:58 GMT-0500 (Central Daylight Time),540875.7999999989,004_o_m_d_a.png,I,z,1381,15,1,2391.5999999996275,538484.1999999993,8038,VNB,B,13
14,test,3,1.0,2-Back,1,m,Fri Apr 25 2025 15:29:58 GMT-0500 (Central Daylight Time),543025.4000000004,011_m_f_h_a.png,I,m,1101,16,1,2123.5,540901.9000000004,8038,VNB,B,14
14,test,3,0.0,2-Back,0,m,Fri Apr 25 2025 15:29:58 GMT-0500 (Central Daylight Time),545174.5,007_m_m_n_a.png,I,z,1104,17,1,2124.800000000745,543049.6999999993,8038,VNB,B,15
14,test,3,0.0,2-Back,0,z,Fri Apr 25 2025 15:29:58 GMT-0500 (Central Daylight Time),547090.5,016_y_m_h_a.png,I,m,882,18,1,1891.4000000003725,545199.0999999996,8038,VNB,B,16
0,test,4,0.0,2-Back,,,Fri Apr 25 2025 15:29:58 GMT-0500 (Central Daylight Time),547090.5,011_m_f_n_a.png,I,space,1863,1,1,1891.4000000003725,545199.0999999996,8038,VNB,B,0
0,test,4,0.0,2-Back,,,Fri Apr 25 2025 15:29:58 GMT-0500 (Central Daylight Time),547090.5,004_o_m_n_a.png,I,space,1863,2,1,1891.4000000003725,545199.0999999996,8038,VNB,B,0
1,test,4,1.0,2-Back,1,m,Fri Apr 25 2025 15:29:58 GMT-0500 (Central Daylight Time),556504.4000000004,016_y_m_h_a.png,I,m,1252,3,1,2275.60000000149,554228.7999999989,8038,VNB,B,1
2,test,4,1.0,2-Back,1,m,Fri Apr 25 2025 15:29:58 GMT-0500 (Central Daylight Time),558920.0999999996,005_o_f_d_a.png,I,m,1368,4,1,2392.5999999996275,556527.5,8038,VNB,B,2
3,test,4,0.0,2-Back,1,z,Fri Apr 25 2025 15:29:58 GMT-0500 (Central Daylight Time),560619.7999999989,004_o_m_h_a.png,I,z,656,5,1,1677.199999999255,558942.5999999996,8038,VNB,B,3
4,test,4,0.0,2-Back,1,m,Fri Apr 25 2025 15:29:58 GMT-0500 (Central Daylight Time),562619.0,007_m_m_n_a.png,I,m,965,6,1,1975.0,560644.0,8038,VNB,B,4
5,test,4,0.0,2-Back,1,m,Fri Apr 25 2025 15:29:58 GMT-0500 (Central Daylight Time),565268.1999999993,011_m_f_d_a.png,I,m,1613,7,1,2626.7999999988824,562641.4000000004,8038,VNB,B,5
6,test,4,0.0,2-Back,1,z,Fri Apr 25 2025 15:29:58 GMT-0500 (Central Daylight Time),567100.9000000004,020_y_f_n_a.png,I,z,788,8,1,1808.7000000011176,565292.1999999993,8038,VNB,B,6
7,test,4,1.0,2-Back,1,m,Fri Apr 25 2025 15:29:58 GMT-0500 (Central Daylight Time),569816.6999999993,005_o_f_h_a.png,I,m,1668,9,1,2692.699999999255,567124.0,8038,VNB,B,7
8,test,4,0.0,2-Back,1,m,Fri Apr 25 2025 15:29:58 GMT-0500 (Central Daylight Time),572399.2999999989,007_m_m_h_a.png,I,m,1544,10,1,2558.5,569840.7999999989,8038,VNB,B,8
9,test,4,0.0,2-Back,1,m,Fri Apr 25 2025 15:29:58 GMT-0500 (Central Daylight Time),574365.2999999989,020_y_f_d_a.png,I,m,929,11,1,1941.5999999996275,572423.6999999993,8038,VNB,B,9
10,test,4,0.0,2-Back,1,m,Fri Apr 25 2025 15:29:58 GMT-0500 (Central Daylight Time),576248.2999999989,016_y_m_n_a.png,I,m,835,12,1,1859.5999999996275,574388.6999999993,8038,VNB,B,10
11,test,4,0.0,2-Back,1,z,Fri Apr 25 2025 15:29:58 GMT-0500 (Central Daylight Time),578330.9000000004,004_o_m_d_a.png,I,z,1048,13,1,2056.60000000149,576274.2999999989,8038,VNB,B,11
12,test,4,1.0,2-Back,1,m,Fri Apr 25 2025 15:29:58 GMT-0500 (Central Daylight Time),580296.7999999989,011_m_f_h_a.png,I,m,926,14,1,1941.7999999988824,578355.0,8038,VNB,B,12
13,test,4,1.0,2-Back,1,m,Fri Apr 25 2025 15:29:58 GMT-0500 (Central Daylight Time),582312.9000000004,020_y_f_h_a.png,I,m,976,15,1,1992.800000000745,580320.0999999996,8038,VNB,B,13
14,test,4,0.0,2-Back,1,m,Fri Apr 25 2025 15:29:58 GMT-0500 (Central Daylight Time),584662.0999999996,005_o_f_n_a.png,I,m,1312,16,1,2324.699999999255,582337.4000000004,8038,VNB,B,14
15,test,4,0.0,2-Back,1,m,Fri Apr 25 2025 15:29:58 GMT-0500 (Central Daylight Time),586511.5999999996,016_y_m_d_a.png,I,m,802,17,1,1823.4000000003725,584688.1999999993,8038,VNB,B,15
16,test,4,1.0,2-Back,1,m,Fri Apr 25 2025 15:29:58 GMT-0500 (Central Daylight Time),588577.6999999993,007_m_m_d_a.png,I,m,1025,18,1,2041.9000000003725,586535.7999999989,8038,VNB,B,16
0,test,5,1.0,2-Back,,,Fri Apr 25 2025 15:29:58 GMT-0500 (Central Daylight Time),588577.6999999993,020_y_f_d_a.png,I,space,1568,1,1,2041.9000000003725,586535.7999999989,8038,VNB,B,0
0,test,5,1.0,2-Back,,,Fri Apr 25 2025 15:29:58 GMT-0500 (Central Daylight Time),588577.6999999993,005_o_f_h_a.png,I,space,1568,2,1,2041.9000000003725,586535.7999999989,8038,VNB,B,0
1,test,5,1.0,2-Back,1,z,Fri Apr 25 2025 15:29:58 GMT-0500 (Central Daylight Time),597091.5999999996,004_o_m_d_a.png,I,z,623,3,1,1640.699999999255,595450.9000000004,8038,VNB,B,1
2,test,5,1.0,2-Back,1,m,Fri Apr 25 2025 15:29:58 GMT-0500 (Central Daylight Time),599174.2999999989,011_m_f_n_a.png,I,m,1037,4,1,2058.7999999988824,597115.5,8038,VNB,B,2
3,test,5,0.0,2-Back,1,m,Fri Apr 25 2025 15:29:58 GMT-0500 (Central Daylight Time),601390.5,007_m_m_h_a.png,I,m,1170,5,1,2193.0,599197.5,8038,VNB,B,3
4,test,5,0.0,2-Back,1,z,Fri Apr 25 2025 15:29:58 GMT-0500 (Central Daylight Time),604256.0999999996,020_y_f_n_a.png,I,z,1818,6,1,2843.300000000745,601412.7999999989,8038,VNB,B,4
5,test,5,0.0,2-Back,1,m,Fri Apr 25 2025 15:29:58 GMT-0500 (Central Daylight Time),606788.5,005_o_f_d_a.png,I,m,1489,7,1,2508.2000000011176,604280.2999999989,8038,VNB,B,5
6,test,5,0.0,2-Back,1,m,Fri Apr 25 2025 15:29:58 GMT-0500 (Central Daylight Time),608771.2999999989,004_o_m_h_a.png,I,m,940,8,1,1959.8999999985099,606811.4000000004,8038,VNB,B,6
7,test,5,1.0,2-Back,1,z,Fri Apr 25 2025 15:29:58 GMT-0500 (Central Daylight Time),611003.7999999989,011_m_f_d_a.png,I,z,1189,9,1,2207.89999999851,608795.9000000004,8038,VNB,B,7
8,test,5,0.0,2-Back,1,m,Fri Apr 25 2025 15:29:58 GMT-0500 (Central Daylight Time),612770.0999999996,016_y_m_n_a.png,I,m,725,10,1,1743.9000000003725,611026.1999999993,8038,VNB,B,8
9,test,5,0.0,2-Back,1,m,Fri Apr 25 2025 15:29:58 GMT-0500 (Central Daylight Time),614719.5,007_m_m_n_a.png,I,m,902,11,1,1926.300000000745,612793.1999999993,8038,VNB,B,9
10,test,5,0.0,2-Back,1,m,Fri Apr 25 2025 15:29:58 GMT-0500 (Central Daylight Time),616568.9000000004,020_y_f_h_a.png,I,m,801,12,1,1827.2000000011176,614741.6999999993,8038,VNB,B,10
11,test,5,0.0,2-Back,1,m,Fri Apr 25 2025 15:29:58 GMT-0500 (Central Daylight Time),618634.7999999989,016_y_m_d_a.png,I,m,1024,13,1,2040.0999999996275,616594.6999999993,8038,VNB,B,11
12,test,5,1.0,2-Back,1,z,Fri Apr 25 2025 15:29:58 GMT-0500 (Central Daylight Time),620334.2999999989,011_m_f_h_a.png,I,z,654,14,1,1677.199999999255,618657.0999999996,8038,VNB,B,12
13,test,5,0.0,2-Back,1,m,Fri Apr 25 2025 15:29:58 GMT-0500 (Central Daylight Time),622250.2999999989,004_o_m_n_a.png,I,m,882,15,1,1893.0,620357.2999999989,8038,VNB,B,13
13,test,5,0.0,2-Back,0,m,Fri Apr 25 2025 15:29:58 GMT-0500 (Central Daylight Time),624482.7999999989,007_m_m_d_a.png,I,z,1198,16,1,2208.39999999851,622274.4000000004,8038,VNB,B,14
13,test,5,0.0,2-Back,0,z,Fri Apr 25 2025 15:29:58 GMT-0500 (Central Daylight Time),626932.4000000004,005_o_f_n_a.png,I,m,1406,17,1,2425.9000000003725,624506.5,8038,VNB,B,15
14,test,5,1.0,2-Back,1,m,Fri Apr 25 2025 15:29:58 GMT-0500 (Central Daylight Time),628864.7999999989,016_y_m_h_a.png,I,m,884,18,1,1909.699999999255,626955.0999999996,8038,VNB,B,16
