acc_sum,block,block_c,change,condition,correct,correct_response,datetime,endtime,face,project,response,response_time,row_sel,session_number,start_end,starttime,subject_id,task,task_vers,trial
0,prac,1,,1-Back,,,Thu Mar 13 2025 11:17:42 GMT-0500 (Central Daylight Time),,012_o_f_d_a.png,O,space,10551,1,1,,,7077,VNB,C,0
1,prac,1,0.0,1-Back,1,m,Thu Mar 13 2025 11:17:42 GMT-0500 (Central Daylight Time),132844.70000000112,022_y_f_n_a.png,O,m,1466,2,1,2357.9000000003725,130486.80000000075,7077,VNB,C,1
2,prac,1,0.0,1-Back,1,m,Thu Mar 13 2025 11:17:42 GMT-0500 (Central Daylight Time),134810.70000000112,014_m_m_h_a.png,O,m,1087,3,1,1959.2000000011176,132851.5,7077,VNB,C,2
3,prac,1,0.0,1-Back,1,m,Thu Mar 13 2025 11:17:42 GMT-0500 (Central Daylight Time),136493.70000000112,025_y_m_d_a.png,O,m,797,4,1,1675.7000000011176,134818.0,7077,VNB,C,3
4,prac,1,0.0,1-Back,1,m,Thu Mar 13 2025 11:17:42 GMT-0500 (Central Daylight Time),138742.90000000037,012_o_f_n_a.png,O,m,1351,5,1,2241.5999999996275,136501.30000000075,7077,VNB,C,4
5,prac,1,1.0,1-Back,1,z,Thu Mar 13 2025 11:17:42 GMT-0500 (Central Daylight Time),140642.30000000075,025_y_m_n_a.png,O,z,1025,6,1,1892.0,138750.30000000075,7077,VNB,C,5
6,prac,1,0.0,1-Back,1,m,Thu Mar 13 2025 11:17:42 GMT-0500 (Central Daylight Time),142375.0,015_o_m_h_a.png,O,m,828,7,1,1724.699999999255,140650.30000000075,7077,VNB,C,6
7,prac,1,0.0,1-Back,1,m,Thu Mar 13 2025 11:17:42 GMT-0500 (Central Daylight Time),144257.90000000037,019_m_f_d_a.png,O,m,985,8,1,1874.9000000003725,142383.0,7077,VNB,C,7
8,prac,1,1.0,1-Back,1,z,Thu Mar 13 2025 11:17:42 GMT-0500 (Central Daylight Time),146273.5,022_y_f_d_a.png,O,z,1117,9,1,2008.199999999255,144265.30000000075,7077,VNB,C,8
9,prac,1,0.0,1-Back,1,m,Thu Mar 13 2025 11:17:42 GMT-0500 (Central Daylight Time),148190.0,014_m_m_n_a.png,O,m,1027,10,1,1908.7999999988824,146281.20000000112,7077,VNB,C,9
9,prac,1,0.0,1-Back,0,m,Thu Mar 13 2025 11:17:42 GMT-0500 (Central Daylight Time),150222.59999999963,012_o_f_h_a.png,O,z,1137,11,1,2026.5,148196.09999999963,7077,VNB,C,10
10,prac,1,0.0,1-Back,1,m,Thu Mar 13 2025 11:17:42 GMT-0500 (Central Daylight Time),152171.90000000037,025_y_m_d_a.png,O,m,1074,12,1,1941.699999999255,150230.20000000112,7077,VNB,C,11
0,test,1,0.0,1-Back,,,Thu Mar 13 2025 11:17:42 GMT-0500 (Central Daylight Time),152171.90000000037,022_y_f_d_a.png,O,space,8057,1,1,1941.699999999255,150230.20000000112,7077,VNB,C,0
1,test,1,0.0,1-Back,1,m,Thu Mar 13 2025 11:17:42 GMT-0500 (Central Daylight Time),173766.09999999963,019_m_f_n_a.png,O,m,888,2,1,1912.0,171854.09999999963,7077,VNB,C,1
2,test,1,0.0,1-Back,1,m,Thu Mar 13 2025 11:17:42 GMT-0500 (Central Daylight Time),175797.90000000037,015_o_m_h_a.png,O,m,1004,3,1,2027.9000000003725,173770.0,7077,VNB,C,2
3,test,1,1.0,1-Back,1,z,Thu Mar 13 2025 11:17:42 GMT-0500 (Central Daylight Time),177830.59999999963,014_m_m_h_a.png,O,z,1003,4,1,2028.5999999996275,175802.0,7077,VNB,C,3
4,test,1,0.0,1-Back,1,m,Thu Mar 13 2025 11:17:42 GMT-0500 (Central Daylight Time),179713.40000000037,012_o_f_n_a.png,O,m,851,5,1,1879.5999999996275,177833.80000000075,7077,VNB,C,4
5,test,1,0.0,1-Back,1,m,Thu Mar 13 2025 11:17:42 GMT-0500 (Central Daylight Time),181895.70000000112,025_y_m_d_a.png,O,m,1160,6,1,2178.4000000003725,179717.30000000075,7077,VNB,C,5
6,test,1,1.0,1-Back,1,z,Thu Mar 13 2025 11:17:42 GMT-0500 (Central Daylight Time),184028.5,019_m_f_d_a.png,O,z,1105,7,1,2128.2999999988824,181900.20000000112,7077,VNB,C,6
7,test,1,0.0,1-Back,1,m,Thu Mar 13 2025 11:17:42 GMT-0500 (Central Daylight Time),185861.40000000037,022_y_f_h_a.png,O,m,813,8,1,1828.699999999255,184032.70000000112,7077,VNB,C,7
8,test,1,0.0,1-Back,1,m,Thu Mar 13 2025 11:17:42 GMT-0500 (Central Daylight Time),188077.20000000112,015_o_m_n_a.png,O,m,1187,9,1,2212.300000000745,185864.90000000037,7077,VNB,C,8
9,test,1,0.0,1-Back,1,m,Thu Mar 13 2025 11:17:42 GMT-0500 (Central Daylight Time),190110.20000000112,025_y_m_h_a.png,O,m,1012,10,1,2028.5,188081.70000000112,7077,VNB,C,9
10,test,1,0.0,1-Back,1,m,Thu Mar 13 2025 11:17:42 GMT-0500 (Central Daylight Time),192109.30000000075,015_o_m_d_a.png,O,m,979,11,1,1994.9000000003725,190114.40000000037,7077,VNB,C,10
11,test,1,1.0,1-Back,1,z,Thu Mar 13 2025 11:17:42 GMT-0500 (Central Daylight Time),194275.20000000112,012_o_f_d_a.png,O,z,1029,12,1,2161.0,192114.20000000112,7077,VNB,C,11
12,test,1,0.0,1-Back,1,m,Thu Mar 13 2025 11:17:42 GMT-0500 (Central Daylight Time),196241.20000000112,014_m_m_n_a.png,O,m,941,13,1,1961.7000000011176,194279.5,7077,VNB,C,12
13,test,1,1.0,1-Back,1,z,Thu Mar 13 2025 11:17:42 GMT-0500 (Central Daylight Time),198407.30000000075,022_y_f_n_a.png,O,z,1144,14,1,2161.9000000003725,196245.40000000037,7077,VNB,C,13
14,test,1,0.0,1-Back,1,m,Thu Mar 13 2025 11:17:42 GMT-0500 (Central Daylight Time),200241.20000000112,019_m_f_h_a.png,O,m,802,15,1,1830.2000000011176,198411.0,7077,VNB,C,14
15,test,1,0.0,1-Back,1,m,Thu Mar 13 2025 11:17:42 GMT-0500 (Central Daylight Time),202456.0,014_m_m_d_a.png,O,m,1185,16,1,2210.0999999996275,200245.90000000037,7077,VNB,C,15
16,test,1,0.0,1-Back,1,m,Thu Mar 13 2025 11:17:42 GMT-0500 (Central Daylight Time),204821.90000000037,025_y_m_n_a.png,O,m,1345,17,1,2361.199999999255,202460.70000000112,7077,VNB,C,16
17,test,1,0.0,1-Back,1,m,Thu Mar 13 2025 11:17:42 GMT-0500 (Central Daylight Time),206754.59999999963,012_o_f_h_a.png,O,m,906,18,1,1927.8999999985099,204826.70000000112,7077,VNB,C,17
0,test,2,0.0,1-Back,,,Thu Mar 13 2025 11:17:42 GMT-0500 (Central Daylight Time),206754.59999999963,025_y_m_n_a.png,O,space,1855,1,1,1927.8999999985099,204826.70000000112,7077,VNB,C,0
1,test,2,0.0,1-Back,1,m,Thu Mar 13 2025 11:17:42 GMT-0500 (Central Daylight Time),212536.20000000112,022_y_f_h_a.png,O,m,876,2,1,1894.9000000003725,210641.30000000075,7077,VNB,C,1
2,test,2,1.0,1-Back,1,m,Thu Mar 13 2025 11:17:42 GMT-0500 (Central Daylight Time),214602.40000000037,015_o_m_n_a.png,O,m,1033,3,1,2062.0,212540.40000000037,7077,VNB,C,2
3,test,2,0.0,1-Back,1,m,Thu Mar 13 2025 11:17:42 GMT-0500 (Central Daylight Time),216732.40000000037,019_m_f_d_a.png,O,m,1113,4,1,2126.699999999255,214605.70000000112,7077,VNB,C,3
4,test,2,0.0,1-Back,1,z,Thu Mar 13 2025 11:17:42 GMT-0500 (Central Daylight Time),218834.30000000075,014_m_m_d_a.png,O,z,1074,5,1,2096.9000000003725,216737.40000000037,7077,VNB,C,4
5,test,2,0.0,1-Back,1,m,Thu Mar 13 2025 11:17:42 GMT-0500 (Central Daylight Time),220716.80000000075,025_y_m_h_a.png,O,m,863,6,1,1878.0999999996275,218838.70000000112,7077,VNB,C,5
6,test,2,1.0,1-Back,1,z,Thu Mar 13 2025 11:17:42 GMT-0500 (Central Daylight Time),222799.80000000075,012_o_f_h_a.png,O,z,1060,7,1,2078.5,220721.30000000075,7077,VNB,C,6
7,test,2,0.0,1-Back,1,m,Thu Mar 13 2025 11:17:42 GMT-0500 (Central Daylight Time),224615.80000000075,019_m_f_n_a.png,O,m,793,8,1,1811.7000000011176,222804.09999999963,7077,VNB,C,7
8,test,2,0.0,1-Back,1,m,Thu Mar 13 2025 11:17:42 GMT-0500 (Central Daylight Time),227065.30000000075,022_y_f_d_a.png,O,m,1425,9,1,2445.0999999996275,224620.20000000112,7077,VNB,C,8
9,test,2,0.0,1-Back,1,m,Thu Mar 13 2025 11:17:42 GMT-0500 (Central Daylight Time),229231.20000000112,014_m_m_n_a.png,O,m,1136,10,1,2161.4000000003725,227069.80000000075,7077,VNB,C,9
10,test,2,1.0,1-Back,1,m,Thu Mar 13 2025 11:17:42 GMT-0500 (Central Daylight Time),231263.59999999963,019_m_f_h_a.png,O,m,1010,11,1,2027.8999999985099,229235.70000000112,7077,VNB,C,10
11,test,2,0.0,1-Back,1,z,Thu Mar 13 2025 11:17:42 GMT-0500 (Central Daylight Time),233463.0,015_o_m_h_a.png,O,z,1177,12,1,2194.7999999988824,231268.20000000112,7077,VNB,C,11
12,test,2,0.0,1-Back,1,m,Thu Mar 13 2025 11:17:42 GMT-0500 (Central Daylight Time),235662.40000000037,025_y_m_d_a.png,O,m,1170,13,1,2194.699999999255,233467.70000000112,7077,VNB,C,12
13,test,2,0.0,1-Back,1,m,Thu Mar 13 2025 11:17:42 GMT-0500 (Central Daylight Time),237711.80000000075,012_o_f_n_a.png,O,m,1027,14,1,2044.9000000003725,235666.90000000037,7077,VNB,C,13
14,test,2,0.0,1-Back,1,z,Thu Mar 13 2025 11:17:42 GMT-0500 (Central Daylight Time),239944.20000000112,022_y_f_n_a.png,O,z,1200,15,1,2228.7000000011176,237715.5,7077,VNB,C,14
15,test,2,1.0,1-Back,1,m,Thu Mar 13 2025 11:17:42 GMT-0500 (Central Daylight Time),241877.20000000112,014_m_m_h_a.png,O,m,913,16,1,1928.300000000745,239948.90000000037,7077,VNB,C,15
16,test,2,0.0,1-Back,1,m,Thu Mar 13 2025 11:17:42 GMT-0500 (Central Daylight Time),244226.59999999963,012_o_f_d_a.png,O,m,1316,17,1,2344.89999999851,241881.70000000112,7077,VNB,C,16
17,test,2,1.0,1-Back,1,z,Thu Mar 13 2025 11:17:42 GMT-0500 (Central Daylight Time),246592.30000000075,015_o_m_d_a.png,O,z,1335,18,1,2361.7000000011176,244230.59999999963,7077,VNB,C,17
0,test,3,1.0,1-Back,,,Thu Mar 13 2025 11:17:42 GMT-0500 (Central Daylight Time),246592.30000000075,012_o_f_h_a.png,O,space,2681,1,1,2361.7000000011176,244230.59999999963,7077,VNB,C,0
1,test,3,0.0,1-Back,1,m,Thu Mar 13 2025 11:17:42 GMT-0500 (Central Daylight Time),253507.0,019_m_f_d_a.png,O,m,1074,2,1,2095.2999999988824,251411.70000000112,7077,VNB,C,1
2,test,3,1.0,1-Back,1,m,Thu Mar 13 2025 11:17:42 GMT-0500 (Central Daylight Time),255339.59999999963,014_m_m_n_a.png,O,m,806,3,1,1828.2999999988824,253511.30000000075,7077,VNB,C,2
3,test,3,0.0,1-Back,1,z,Thu Mar 13 2025 11:17:42 GMT-0500 (Central Daylight Time),257489.0,012_o_f_n_a.png,O,z,1126,4,1,2145.2999999988824,255343.70000000112,7077,VNB,C,3
4,test,3,1.0,1-Back,1,m,Thu Mar 13 2025 11:17:42 GMT-0500 (Central Daylight Time),259354.70000000112,015_o_m_d_a.png,O,m,848,5,1,1861.4000000003725,257493.30000000075,7077,VNB,C,4
5,test,3,0.0,1-Back,1,m,Thu Mar 13 2025 11:17:42 GMT-0500 (Central Daylight Time),261137.90000000037,022_y_f_h_a.png,O,m,750,6,1,1779.0999999996275,259358.80000000075,7077,VNB,C,5
6,test,3,0.0,1-Back,1,z,Thu Mar 13 2025 11:17:42 GMT-0500 (Central Daylight Time),263186.9000000004,025_y_m_h_a.png,O,z,1031,7,1,2044.699999999255,261142.20000000112,7077,VNB,C,6
7,test,3,0.0,1-Back,1,m,Thu Mar 13 2025 11:17:42 GMT-0500 (Central Daylight Time),265069.9000000004,019_m_f_n_a.png,O,m,862,8,1,1879.0,263190.9000000004,7077,VNB,C,7
8,test,3,0.0,1-Back,1,m,Thu Mar 13 2025 11:17:42 GMT-0500 (Central Daylight Time),267019.2000000011,022_y_f_d_a.png,O,m,923,9,1,1945.300000000745,265073.9000000004,7077,VNB,C,8
9,test,3,1.0,1-Back,1,m,Thu Mar 13 2025 11:17:42 GMT-0500 (Central Daylight Time),268935.2000000011,015_o_m_n_a.png,O,m,886,10,1,1911.4000000003725,267023.80000000075,7077,VNB,C,9
10,test,3,0.0,1-Back,1,m,Thu Mar 13 2025 11:17:42 GMT-0500 (Central Daylight Time),270917.9000000004,014_m_m_h_a.png,O,m,954,11,1,1977.5999999996275,268940.30000000075,7077,VNB,C,10
11,test,3,0.0,1-Back,1,z,Thu Mar 13 2025 11:17:42 GMT-0500 (Central Daylight Time),273033.9000000004,019_m_f_h_a.png,O,z,1091,12,1,2111.5,270922.4000000004,7077,VNB,C,11
12,test,3,1.0,1-Back,1,m,Thu Mar 13 2025 11:17:42 GMT-0500 (Central Daylight Time),274866.5999999996,012_o_f_d_a.png,O,m,807,13,1,1828.5,273038.0999999996,7077,VNB,C,12
13,test,3,0.0,1-Back,1,z,Thu Mar 13 2025 11:17:42 GMT-0500 (Central Daylight Time),277415.9000000004,014_m_m_d_a.png,O,z,1519,14,1,2545.199999999255,274870.7000000011,7077,VNB,C,13
14,test,3,0.0,1-Back,1,m,Thu Mar 13 2025 11:17:42 GMT-0500 (Central Daylight Time),279565.30000000075,025_y_m_n_a.png,O,m,1121,15,1,2145.0,277420.30000000075,7077,VNB,C,14
15,test,3,1.0,1-Back,1,m,Thu Mar 13 2025 11:17:42 GMT-0500 (Central Daylight Time),281714.7000000011,015_o_m_h_a.png,O,m,1124,16,1,2145.2000000011176,279569.5,7077,VNB,C,15
16,test,3,0.0,1-Back,1,m,Thu Mar 13 2025 11:17:42 GMT-0500 (Central Daylight Time),283647.4000000004,025_y_m_d_a.png,O,m,911,17,1,1928.5999999996275,281718.80000000075,7077,VNB,C,16
17,test,3,1.0,1-Back,1,m,Thu Mar 13 2025 11:17:42 GMT-0500 (Central Daylight Time),285380.30000000075,022_y_f_n_a.png,O,m,713,18,1,1728.9000000003725,283651.4000000004,7077,VNB,C,17
0,test,4,1.0,1-Back,,,Thu Mar 13 2025 11:17:42 GMT-0500 (Central Daylight Time),285380.30000000075,014_m_m_d_a.png,O,space,2213,1,1,1728.9000000003725,283651.4000000004,7077,VNB,C,0
1,test,4,0.0,1-Back,1,z,Thu Mar 13 2025 11:17:42 GMT-0500 (Central Daylight Time),292444.5,015_o_m_d_a.png,O,z,1705,2,1,2728.0999999996275,289716.4000000004,7077,VNB,C,1
2,test,4,0.0,1-Back,1,m,Thu Mar 13 2025 11:17:42 GMT-0500 (Central Daylight Time),294443.9000000004,025_y_m_h_a.png,O,m,972,3,1,1995.699999999255,292448.2000000011,7077,VNB,C,2
3,test,4,0.0,1-Back,1,m,Thu Mar 13 2025 11:17:42 GMT-0500 (Central Daylight Time),296560.0,019_m_f_n_a.png,O,m,1093,4,1,2111.5999999996275,294448.4000000004,7077,VNB,C,3
4,test,4,1.0,1-Back,1,m,Thu Mar 13 2025 11:17:42 GMT-0500 (Central Daylight Time),298459.4000000004,012_o_f_h_a.png,O,m,873,5,1,1896.199999999255,296563.2000000011,7077,VNB,C,4
5,test,4,0.0,1-Back,1,m,Thu Mar 13 2025 11:17:42 GMT-0500 (Central Daylight Time),300308.9000000004,014_m_m_n_a.png,O,m,822,6,1,1844.9000000003725,298464.0,7077,VNB,C,5
6,test,4,0.0,1-Back,1,m,Thu Mar 13 2025 11:17:42 GMT-0500 (Central Daylight Time),302358.0999999996,025_y_m_d_a.png,O,m,1029,7,1,2044.699999999255,300313.4000000004,7077,VNB,C,6
7,test,4,1.0,1-Back,1,z,Thu Mar 13 2025 11:17:42 GMT-0500 (Central Daylight Time),304390.80000000075,022_y_f_d_a.png,O,z,1011,8,1,2029.300000000745,302361.5,7077,VNB,C,7
8,test,4,0.0,1-Back,1,m,Thu Mar 13 2025 11:17:42 GMT-0500 (Central Daylight Time),306073.80000000075,019_m_f_h_a.png,O,m,658,9,1,1678.5999999996275,304395.2000000011,7077,VNB,C,8
9,test,4,0.0,1-Back,1,z,Thu Mar 13 2025 11:17:42 GMT-0500 (Central Daylight Time),308239.5,015_o_m_h_a.png,O,z,1135,10,1,2160.5999999996275,306078.9000000004,7077,VNB,C,9
10,test,4,1.0,1-Back,1,m,Thu Mar 13 2025 11:17:42 GMT-0500 (Central Daylight Time),310039.0,012_o_f_n_a.png,O,m,777,11,1,1793.9000000003725,308245.0999999996,7077,VNB,C,10
11,test,4,0.0,1-Back,1,m,Thu Mar 13 2025 11:17:42 GMT-0500 (Central Daylight Time),312055.30000000075,019_m_f_d_a.png,O,m,992,12,1,2011.9000000003725,310043.4000000004,7077,VNB,C,11
12,test,4,0.0,1-Back,1,m,Thu Mar 13 2025 11:17:42 GMT-0500 (Central Daylight Time),313904.7000000011,022_y_f_n_a.png,O,m,826,13,1,1845.4000000003725,312059.30000000075,7077,VNB,C,12
13,test,4,0.0,1-Back,1,m,Thu Mar 13 2025 11:17:42 GMT-0500 (Central Daylight Time),315987.2000000011,012_o_f_d_a.png,O,m,1057,14,1,2078.800000000745,313908.4000000004,7077,VNB,C,13
14,test,4,0.0,1-Back,1,m,Thu Mar 13 2025 11:17:42 GMT-0500 (Central Daylight Time),317919.80000000075,022_y_f_h_a.png,O,m,902,15,1,1928.0999999996275,315991.7000000011,7077,VNB,C,14
15,test,4,1.0,1-Back,1,z,Thu Mar 13 2025 11:17:42 GMT-0500 (Central Daylight Time),319869.5999999996,014_m_m_h_a.png,O,z,921,16,1,1945.699999999255,317923.9000000004,7077,VNB,C,15
16,test,4,0.0,1-Back,1,m,Thu Mar 13 2025 11:17:42 GMT-0500 (Central Daylight Time),321652.0999999996,015_o_m_n_a.png,O,m,756,17,1,1778.3999999985099,319873.7000000011,7077,VNB,C,16
17,test,4,1.0,1-Back,1,z,Thu Mar 13 2025 11:17:42 GMT-0500 (Central Daylight Time),323735.0999999996,025_y_m_n_a.png,O,z,1061,18,1,2078.7999999988824,321656.30000000075,7077,VNB,C,17
0,test,5,1.0,1-Back,,,Thu Mar 13 2025 11:17:42 GMT-0500 (Central Daylight Time),323735.0999999996,015_o_m_n_a.png,O,space,2114,1,1,2078.7999999988824,321656.30000000075,7077,VNB,C,0
1,test,5,1.0,1-Back,1,m,Thu Mar 13 2025 11:17:42 GMT-0500 (Central Daylight Time),329732.7000000011,012_o_f_h_a.png,O,m,846,2,1,1861.1000000014901,327871.5999999996,7077,VNB,C,1
2,test,5,0.0,1-Back,1,m,Thu Mar 13 2025 11:17:42 GMT-0500 (Central Daylight Time),331532.7000000011,025_y_m_d_a.png,O,m,780,3,1,1795.7000000011176,329737.0,7077,VNB,C,2
3,test,5,0.0,1-Back,1,z,Thu Mar 13 2025 11:17:42 GMT-0500 (Central Daylight Time),333431.5999999996,015_o_m_d_a.png,O,z,876,4,1,1895.0999999996275,331536.5,7077,VNB,C,3
4,test,5,0.0,1-Back,1,m,Thu Mar 13 2025 11:17:42 GMT-0500 (Central Daylight Time),335381.0999999996,019_m_f_h_a.png,O,m,843,5,1,1945.2999999988824,333435.80000000075,7077,VNB,C,4
5,test,5,0.0,1-Back,1,m,Thu Mar 13 2025 11:17:42 GMT-0500 (Central Daylight Time),337696.9000000004,022_y_f_n_a.png,O,m,1283,6,1,2311.4000000003725,335385.5,7077,VNB,C,5
6,test,5,1.0,1-Back,1,z,Thu Mar 13 2025 11:17:42 GMT-0500 (Central Daylight Time),339713.9000000004,012_o_f_n_a.png,O,z,984,7,1,2013.0999999996275,337700.80000000075,7077,VNB,C,6
7,test,5,0.0,1-Back,1,m,Thu Mar 13 2025 11:17:42 GMT-0500 (Central Daylight Time),341562.5999999996,019_m_f_d_a.png,O,m,824,8,1,1844.699999999255,339717.9000000004,7077,VNB,C,7
8,test,5,0.0,1-Back,1,m,Thu Mar 13 2025 11:17:42 GMT-0500 (Central Daylight Time),343762.0999999996,025_y_m_h_a.png,O,m,1182,9,1,2195.699999999255,341566.4000000004,7077,VNB,C,8
9,test,5,0.0,1-Back,1,m,Thu Mar 13 2025 11:17:42 GMT-0500 (Central Daylight Time),345677.9000000004,022_y_f_d_a.png,O,m,895,10,1,1911.9000000003725,343766.0,7077,VNB,C,9
10,test,5,0.0,1-Back,1,m,Thu Mar 13 2025 11:17:42 GMT-0500 (Central Daylight Time),347710.7000000011,014_m_m_n_a.png,O,m,1011,11,1,2028.7000000011176,345682.0,7077,VNB,C,10
11,test,5,1.0,1-Back,1,z,Thu Mar 13 2025 11:17:42 GMT-0500 (Central Daylight Time),349560.0,019_m_f_n_a.png,O,z,827,12,1,1845.4000000003725,347714.5999999996,7077,VNB,C,11
12,test,5,0.0,1-Back,1,m,Thu Mar 13 2025 11:17:42 GMT-0500 (Central Daylight Time),351242.80000000075,015_o_m_h_a.png,O,m,656,13,1,1679.0,349563.80000000075,7077,VNB,C,12
13,test,5,0.0,1-Back,1,z,Thu Mar 13 2025 11:17:42 GMT-0500 (Central Daylight Time),353142.0,014_m_m_h_a.png,O,z,878,14,1,1894.9000000003725,351247.0999999996,7077,VNB,C,13
14,test,5,1.0,1-Back,1,m,Thu Mar 13 2025 11:17:42 GMT-0500 (Central Daylight Time),354891.7000000011,012_o_f_d_a.png,O,m,723,15,1,1745.4000000003725,353146.30000000075,7077,VNB,C,14
15,test,5,0.0,1-Back,1,m,Thu Mar 13 2025 11:17:42 GMT-0500 (Central Daylight Time),356991.0,025_y_m_n_a.png,O,m,1078,16,1,2095.2999999988824,354895.7000000011,7077,VNB,C,15
16,test,5,0.0,1-Back,1,m,Thu Mar 13 2025 11:17:42 GMT-0500 (Central Daylight Time),358973.5999999996,022_y_f_h_a.png,O,m,886,17,1,1978.7999999988824,356994.80000000075,7077,VNB,C,16
17,test,5,0.0,1-Back,1,m,Thu Mar 13 2025 11:17:42 GMT-0500 (Central Daylight Time),360706.80000000075,014_m_m_d_a.png,O,m,707,18,1,1729.4000000003725,358977.4000000004,7077,VNB,C,17
0,prac,1,0.0,2-Back,,,Thu Mar 13 2025 11:17:42 GMT-0500 (Central Daylight Time),360706.80000000075,019_m_f_n_a.png,O,space,25421,1,1,1729.4000000003725,358977.4000000004,7077,VNB,C,0
0,prac,1,0.0,2-Back,,,Thu Mar 13 2025 11:17:42 GMT-0500 (Central Daylight Time),360706.80000000075,012_o_f_h_a.png,O,space,25421,2,1,1729.4000000003725,358977.4000000004,7077,VNB,C,0
1,prac,1,0.0,2-Back,1,m,Thu Mar 13 2025 11:17:42 GMT-0500 (Central Daylight Time),502146.80000000075,015_o_m_d_a.png,O,m,960,3,1,1844.2000000011176,500302.5999999996,7077,VNB,C,1
2,prac,1,1.0,2-Back,1,z,Thu Mar 13 2025 11:17:42 GMT-0500 (Central Daylight Time),504511.5999999996,014_m_m_h_a.png,O,z,1485,4,1,2359.0999999996275,502152.5,7077,VNB,C,2
3,prac,1,0.0,2-Back,1,m,Thu Mar 13 2025 11:17:42 GMT-0500 (Central Daylight Time),506844.0999999996,022_y_f_n_a.png,O,m,1438,5,1,2327.0999999996275,504517.0,7077,VNB,C,3
4,prac,1,1.0,2-Back,1,z,Thu Mar 13 2025 11:17:42 GMT-0500 (Central Daylight Time),509409.80000000075,015_o_m_h_a.png,O,z,1667,6,1,2558.800000000745,506851.0,7077,VNB,C,4
5,prac,1,1.0,2-Back,1,z,Thu Mar 13 2025 11:17:42 GMT-0500 (Central Daylight Time),511942.5,025_y_m_n_a.png,O,z,1655,7,1,2525.699999999255,509416.80000000075,7077,VNB,C,5
6,prac,1,0.0,2-Back,1,m,Thu Mar 13 2025 11:17:42 GMT-0500 (Central Daylight Time),513742.0,019_m_f_d_a.png,O,m,888,8,1,1792.2999999988824,511949.7000000011,7077,VNB,C,6
6,prac,1,0.0,2-Back,0,m,Thu Mar 13 2025 11:17:42 GMT-0500 (Central Daylight Time),516642.2000000011,012_o_f_d_a.png,O,None,2007,9,1,2893.5,513748.7000000011,7077,VNB,C,7
7,prac,1,0.0,2-Back,1,m,Thu Mar 13 2025 11:17:42 GMT-0500 (Central Daylight Time),519157.0999999996,014_m_m_h_a.png,O,m,1736,10,1,2507.89999999851,516649.2000000011,7077,VNB,C,8
8,prac,1,1.0,2-Back,1,z,Thu Mar 13 2025 11:17:42 GMT-0500 (Central Daylight Time),521273.0,022_y_f_d_a.png,O,z,1211,11,1,2108.9000000003725,519164.0999999996,7077,VNB,C,9
9,prac,1,0.0,2-Back,1,m,Thu Mar 13 2025 11:17:42 GMT-0500 (Central Daylight Time),523755.7000000011,015_o_m_n_a.png,O,m,1572,12,1,2476.2000000011176,521279.5,7077,VNB,C,10
0,test,1,0.0,2-Back,,,Thu Mar 13 2025 11:17:42 GMT-0500 (Central Daylight Time),523755.7000000011,025_y_m_h_a.png,O,space,9858,1,1,2476.2000000011176,521279.5,7077,VNB,C,0
0,test,1,0.0,2-Back,,,Thu Mar 13 2025 11:17:42 GMT-0500 (Central Daylight Time),523755.7000000011,012_o_f_n_a.png,O,space,9858,2,1,2476.2000000011176,521279.5,7077,VNB,C,0
1,test,1,0.0,2-Back,1,z,Thu Mar 13 2025 11:17:42 GMT-0500 (Central Daylight Time),549847.3000000007,015_o_m_h_a.png,O,z,810,3,1,1828.4000000003725,548018.9000000004,7077,VNB,C,1
2,test,1,0.0,2-Back,1,m,Thu Mar 13 2025 11:17:42 GMT-0500 (Central Daylight Time),551881.9000000004,019_m_f_d_a.png,O,m,1010,4,1,2030.699999999255,549851.2000000011,7077,VNB,C,2
3,test,1,1.0,2-Back,1,m,Thu Mar 13 2025 11:17:42 GMT-0500 (Central Daylight Time),554379.0,025_y_m_n_a.png,O,m,1473,5,1,2492.9000000003725,551886.0999999996,7077,VNB,C,3
3,test,1,0.0,2-Back,0,z,Thu Mar 13 2025 11:17:42 GMT-0500 (Central Daylight Time),556795.0,022_y_f_d_a.png,O,m,1398,6,1,2411.5999999996275,554383.4000000004,7077,VNB,C,4
4,test,1,0.0,2-Back,1,m,Thu Mar 13 2025 11:17:42 GMT-0500 (Central Daylight Time),558844.5,014_m_m_h_a.png,O,m,1030,7,1,2045.9000000003725,556798.5999999996,7077,VNB,C,5
5,test,1,1.0,2-Back,1,m,Thu Mar 13 2025 11:17:42 GMT-0500 (Central Daylight Time),561343.7000000011,022_y_f_n_a.png,O,m,1469,8,1,2495.300000000745,558848.4000000004,7077,VNB,C,6
6,test,1,0.0,2-Back,1,z,Thu Mar 13 2025 11:17:42 GMT-0500 (Central Daylight Time),563293.0,012_o_f_h_a.png,O,z,921,9,1,1946.199999999255,561346.8000000007,7077,VNB,C,7
7,test,1,0.0,2-Back,1,m,Thu Mar 13 2025 11:17:42 GMT-0500 (Central Daylight Time),565409.0,015_o_m_d_a.png,O,m,1092,10,1,2112.699999999255,563296.3000000007,7077,VNB,C,8
7,test,1,1.0,2-Back,0,m,Thu Mar 13 2025 11:17:42 GMT-0500 (Central Daylight Time),568074.7000000011,014_m_m_d_a.png,O,z,1648,11,1,2661.7000000011176,565413.0,7077,VNB,C,9
7,test,1,0.0,2-Back,0,m,Thu Mar 13 2025 11:17:42 GMT-0500 (Central Daylight Time),570524.0,019_m_f_n_a.png,O,z,1431,12,1,2445.5999999996275,568078.4000000004,7077,VNB,C,10
8,test,1,0.0,2-Back,1,m,Thu Mar 13 2025 11:17:42 GMT-0500 (Central Daylight Time),572690.3000000007,022_y_f_h_a.png,O,m,1149,13,1,2161.9000000003725,570528.4000000004,7077,VNB,C,11
8,test,1,0.0,2-Back,0,z,Thu Mar 13 2025 11:17:42 GMT-0500 (Central Daylight Time),575389.2000000011,014_m_m_n_a.png,O,m,1679,14,1,2695.800000000745,572693.4000000004,7077,VNB,C,12
9,test,1,0.0,2-Back,1,m,Thu Mar 13 2025 11:17:42 GMT-0500 (Central Daylight Time),577455.2000000011,025_y_m_d_a.png,O,m,1036,15,1,2061.9000000003725,575393.3000000007,7077,VNB,C,13
10,test,1,1.0,2-Back,1,m,Thu Mar 13 2025 11:17:42 GMT-0500 (Central Daylight Time),579488.0,019_m_f_h_a.png,O,m,1010,16,1,2029.4000000003725,577458.5999999996,7077,VNB,C,14
11,test,1,0.0,2-Back,1,z,Thu Mar 13 2025 11:17:42 GMT-0500 (Central Daylight Time),581570.3000000007,012_o_f_d_a.png,O,z,1065,17,1,2079.300000000745,579491.0,7077,VNB,C,15
12,test,1,0.0,2-Back,1,m,Thu Mar 13 2025 11:17:42 GMT-0500 (Central Daylight Time),583670.2000000011,015_o_m_n_a.png,O,m,1069,18,1,2096.9000000003725,581573.3000000007,7077,VNB,C,16
0,test,2,0.0,2-Back,,,Thu Mar 13 2025 11:17:42 GMT-0500 (Central Daylight Time),583670.2000000011,014_m_m_h_a.png,O,space,2867,1,1,2096.9000000003725,581573.3000000007,7077,VNB,C,0
0,test,2,0.0,2-Back,,,Thu Mar 13 2025 11:17:42 GMT-0500 (Central Daylight Time),583670.2000000011,022_y_f_n_a.png,O,space,2867,2,1,2096.9000000003725,581573.3000000007,7077,VNB,C,0
1,test,2,1.0,2-Back,1,z,Thu Mar 13 2025 11:17:42 GMT-0500 (Central Daylight Time),593883.5,012_o_f_h_a.png,O,z,1040,3,1,2062.4000000003725,591821.0999999996,7077,VNB,C,1
2,test,2,0.0,2-Back,1,m,Thu Mar 13 2025 11:17:42 GMT-0500 (Central Daylight Time),595849.4000000004,015_o_m_d_a.png,O,m,942,4,1,1961.9000000003725,593887.5,7077,VNB,C,2
3,test,2,0.0,2-Back,1,m,Thu Mar 13 2025 11:17:42 GMT-0500 (Central Daylight Time),598248.7000000011,019_m_f_d_a.png,O,m,1368,5,1,2395.2000000011176,595853.5,7077,VNB,C,3
4,test,2,0.0,2-Back,1,m,Thu Mar 13 2025 11:17:42 GMT-0500 (Central Daylight Time),600864.7000000011,025_y_m_h_a.png,O,m,1592,6,1,2612.300000000745,598252.4000000004,7077,VNB,C,4
5,test,2,0.0,2-Back,1,m,Thu Mar 13 2025 11:17:42 GMT-0500 (Central Daylight Time),603548.0999999996,012_o_f_n_a.png,O,m,1665,7,1,2679.7999999988824,600868.3000000007,7077,VNB,C,5
6,test,2,1.0,2-Back,1,z,Thu Mar 13 2025 11:17:42 GMT-0500 (Central Daylight Time),605596.3000000007,015_o_m_h_a.png,O,z,1030,8,1,2044.800000000745,603551.5,7077,VNB,C,6
7,test,2,0.0,2-Back,1,m,Thu Mar 13 2025 11:17:42 GMT-0500 (Central Daylight Time),607912.5,022_y_f_d_a.png,O,m,1284,9,1,2312.2999999988824,605600.2000000011,7077,VNB,C,7
8,test,2,0.0,2-Back,1,m,Thu Mar 13 2025 11:17:42 GMT-0500 (Central Daylight Time),610378.3000000007,025_y_m_d_a.png,O,m,1433,10,1,2461.9000000003725,607916.4000000004,7077,VNB,C,8
9,test,2,0.0,2-Back,1,m,Thu Mar 13 2025 11:17:42 GMT-0500 (Central Daylight Time),612660.9000000004,014_m_m_n_a.png,O,m,1255,11,1,2279.300000000745,610381.5999999996,7077,VNB,C,9
10,test,2,0.0,2-Back,1,m,Thu Mar 13 2025 11:17:42 GMT-0500 (Central Daylight Time),614877.0,019_m_f_h_a.png,O,m,1188,12,1,2212.2999999988824,612664.7000000011,7077,VNB,C,10
11,test,2,1.0,2-Back,1,z,Thu Mar 13 2025 11:17:42 GMT-0500 (Central Daylight Time),617076.2000000011,015_o_m_n_a.png,O,z,1172,13,1,2195.5,614880.7000000011,7077,VNB,C,11
12,test,2,0.0,2-Back,1,m,Thu Mar 13 2025 11:17:42 GMT-0500 (Central Daylight Time),619025.8000000007,012_o_f_d_a.png,O,m,917,14,1,1945.9000000003725,617079.9000000004,7077,VNB,C,12
13,test,2,0.0,2-Back,1,m,Thu Mar 13 2025 11:17:42 GMT-0500 (Central Daylight Time),621258.2000000011,022_y_f_h_a.png,O,m,1200,15,1,2228.2000000011176,619030.0,7077,VNB,C,13
14,test,2,0.0,2-Back,1,z,Thu Mar 13 2025 11:17:42 GMT-0500 (Central Daylight Time),623640.5999999996,014_m_m_d_a.png,O,z,1351,16,1,2378.5,621262.0999999996,7077,VNB,C,14
15,test,2,0.0,2-Back,1,m,Thu Mar 13 2025 11:17:42 GMT-0500 (Central Daylight Time),625673.3000000007,025_y_m_n_a.png,O,m,1001,17,1,2028.7000000011176,623644.5999999996,7077,VNB,C,15
16,test,2,1.0,2-Back,1,m,Thu Mar 13 2025 11:17:42 GMT-0500 (Central Daylight Time),628139.3000000007,019_m_f_n_a.png,O,m,1440,18,1,2462.0999999996275,625677.2000000011,7077,VNB,C,16
0,test,3,1.0,2-Back,,,Thu Mar 13 2025 11:17:42 GMT-0500 (Central Daylight Time),628139.3000000007,015_o_m_n_a.png,O,space,2717,1,1,2462.0999999996275,625677.2000000011,7077,VNB,C,0
0,test,3,1.0,2-Back,,,Thu Mar 13 2025 11:17:42 GMT-0500 (Central Daylight Time),628139.3000000007,012_o_f_d_a.png,O,space,2717,2,1,2462.0999999996275,625677.2000000011,7077,VNB,C,0
1,test,3,0.0,2-Back,1,m,Thu Mar 13 2025 11:17:42 GMT-0500 (Central Daylight Time),638003.2000000011,022_y_f_h_a.png,O,m,940,3,1,1963.300000000745,636039.9000000004,7077,VNB,C,1
1,test,3,0.0,2-Back,0,z,Thu Mar 13 2025 11:17:42 GMT-0500 (Central Daylight Time),640152.0999999996,019_m_f_d_a.png,O,m,1118,4,1,2144.89999999851,638007.2000000011,7077,VNB,C,2
2,test,3,1.0,2-Back,1,m,Thu Mar 13 2025 11:17:42 GMT-0500 (Central Daylight Time),642618.3000000007,025_y_m_n_a.png,O,m,1433,5,1,2463.0,640155.3000000007,7077,VNB,C,3
3,test,3,0.0,2-Back,1,m,Thu Mar 13 2025 11:17:42 GMT-0500 (Central Daylight Time),645100.7000000011,015_o_m_h_a.png,O,m,1463,6,1,2478.9000000003725,642621.8000000007,7077,VNB,C,4
3,test,3,0.0,2-Back,0,z,Thu Mar 13 2025 11:17:42 GMT-0500 (Central Daylight Time),648133.5,022_y_f_n_a.png,O,None,2015,7,1,3028.5999999996275,645104.9000000004,7077,VNB,C,5
4,test,3,1.0,2-Back,1,m,Thu Mar 13 2025 11:17:42 GMT-0500 (Central Daylight Time),650099.2000000011,014_m_m_d_a.png,O,m,940,8,1,1961.800000000745,648137.4000000004,7077,VNB,C,6
5,test,3,0.0,2-Back,1,m,Thu Mar 13 2025 11:17:42 GMT-0500 (Central Daylight Time),652181.9000000004,025_y_m_d_a.png,O,m,1053,9,1,2078.9000000003725,650103.0,7077,VNB,C,7
6,test,3,0.0,2-Back,1,m,Thu Mar 13 2025 11:17:42 GMT-0500 (Central Daylight Time),654498.0999999996,012_o_f_h_a.png,O,m,1299,10,1,2312.5999999996275,652185.5,7077,VNB,C,8
7,test,3,1.0,2-Back,1,m,Thu Mar 13 2025 11:17:42 GMT-0500 (Central Daylight Time),656730.5999999996,019_m_f_n_a.png,O,m,1207,11,1,2228.699999999255,654501.9000000004,7077,VNB,C,9
7,test,3,1.0,2-Back,0,z,Thu Mar 13 2025 11:17:42 GMT-0500 (Central Daylight Time),659762.8000000007,014_m_m_h_a.png,O,None,2016,12,1,3028.4000000003725,656734.4000000004,7077,VNB,C,10
8,test,3,0.0,2-Back,1,m,Thu Mar 13 2025 11:17:42 GMT-0500 (Central Daylight Time),661812.0999999996,022_y_f_d_a.png,O,m,1022,13,1,2045.0,659767.0999999996,7077,VNB,C,11
9,test,3,0.0,2-Back,1,m,Thu Mar 13 2025 11:17:42 GMT-0500 (Central Daylight Time),664004.5,012_o_f_n_a.png,O,m,1175,14,1,2188.5999999996275,661815.9000000004,7077,VNB,C,12
10,test,3,0.0,2-Back,1,z,Thu Mar 13 2025 11:17:42 GMT-0500 (Central Daylight Time),666844.0,015_o_m_d_a.png,O,z,1830,15,1,2835.2999999988824,664008.7000000011,7077,VNB,C,13
11,test,3,1.0,2-Back,1,m,Thu Mar 13 2025 11:17:42 GMT-0500 (Central Daylight Time),669659.7000000011,019_m_f_h_a.png,O,m,1797,16,1,2811.7000000011176,666848.0,7077,VNB,C,14
12,test,3,0.0,2-Back,1,m,Thu Mar 13 2025 11:17:42 GMT-0500 (Central Daylight Time),671908.9000000004,014_m_m_n_a.png,O,m,1229,17,1,2245.5,669663.4000000004,7077,VNB,C,15
13,test,3,0.0,2-Back,1,z,Thu Mar 13 2025 11:17:42 GMT-0500 (Central Daylight Time),674158.3000000007,025_y_m_h_a.png,O,z,1228,18,1,2244.800000000745,671913.5,7077,VNB,C,16
0,test,4,0.0,2-Back,,,Thu Mar 13 2025 11:17:42 GMT-0500 (Central Daylight Time),674158.3000000007,019_m_f_n_a.png,O,space,3571,1,1,2244.800000000745,671913.5,7077,VNB,C,0
0,test,4,0.0,2-Back,,,Thu Mar 13 2025 11:17:42 GMT-0500 (Central Daylight Time),674158.3000000007,015_o_m_n_a.png,O,space,3571,2,1,2244.800000000745,671913.5,7077,VNB,C,0
1,test,4,1.0,2-Back,1,m,Thu Mar 13 2025 11:17:42 GMT-0500 (Central Daylight Time),684954.7000000011,025_y_m_h_a.png,O,m,898,3,1,1911.800000000745,683042.9000000004,7077,VNB,C,1
2,test,4,1.0,2-Back,1,m,Thu Mar 13 2025 11:17:42 GMT-0500 (Central Daylight Time),687054.0999999996,012_o_f_d_a.png,O,m,1070,4,1,2096.0999999996275,684958.0,7077,VNB,C,2
3,test,4,0.0,2-Back,1,z,Thu Mar 13 2025 11:17:42 GMT-0500 (Central Daylight Time),689936.7000000011,015_o_m_h_a.png,O,z,1859,5,1,2879.10000000149,687057.5999999996,7077,VNB,C,3
4,test,4,0.0,2-Back,1,m,Thu Mar 13 2025 11:17:42 GMT-0500 (Central Daylight Time),692419.4000000004,014_m_m_n_a.png,O,m,1464,6,1,2478.5999999996275,689940.8000000007,7077,VNB,C,4
5,test,4,0.0,2-Back,1,m,Thu Mar 13 2025 11:17:42 GMT-0500 (Central Daylight Time),695036.2000000011,019_m_f_d_a.png,O,m,1598,7,1,2613.0,692423.2000000011,7077,VNB,C,5
6,test,4,0.0,2-Back,1,z,Thu Mar 13 2025 11:17:42 GMT-0500 (Central Daylight Time),697700.8000000007,022_y_f_n_a.png,O,z,1645,8,1,2661.5,695039.3000000007,7077,VNB,C,6
7,test,4,1.0,2-Back,1,m,Thu Mar 13 2025 11:17:42 GMT-0500 (Central Daylight Time),700166.8000000007,012_o_f_h_a.png,O,m,1437,9,1,2462.0,697704.8000000007,7077,VNB,C,7
8,test,4,0.0,2-Back,1,m,Thu Mar 13 2025 11:17:42 GMT-0500 (Central Daylight Time),703033.0,014_m_m_h_a.png,O,m,1842,10,1,2862.199999999255,700170.8000000007,7077,VNB,C,8
9,test,4,0.0,2-Back,1,m,Thu Mar 13 2025 11:17:42 GMT-0500 (Central Daylight Time),705681.7000000011,022_y_f_d_a.png,O,m,1625,11,1,2645.0,703036.7000000011,7077,VNB,C,9
10,test,4,0.0,2-Back,1,m,Thu Mar 13 2025 11:17:42 GMT-0500 (Central Daylight Time),708080.9000000004,025_y_m_n_a.png,O,m,1375,12,1,2395.300000000745,705685.5999999996,7077,VNB,C,10
11,test,4,0.0,2-Back,1,z,Thu Mar 13 2025 11:17:42 GMT-0500 (Central Daylight Time),710927.2000000011,015_o_m_d_a.png,O,z,1829,13,1,2842.800000000745,708084.4000000004,7077,VNB,C,11
12,test,4,1.0,2-Back,1,m,Thu Mar 13 2025 11:17:42 GMT-0500 (Central Daylight Time),713096.0999999996,019_m_f_h_a.png,O,m,1135,14,1,2165.39999999851,710930.7000000011,7077,VNB,C,12
13,test,4,1.0,2-Back,1,m,Thu Mar 13 2025 11:17:42 GMT-0500 (Central Daylight Time),715578.8000000007,022_y_f_h_a.png,O,m,1465,15,1,2478.9000000003725,713099.9000000004,7077,VNB,C,13
14,test,4,0.0,2-Back,1,m,Thu Mar 13 2025 11:17:42 GMT-0500 (Central Daylight Time),718527.7000000011,012_o_f_n_a.png,O,m,1926,16,1,2945.300000000745,715582.4000000004,7077,VNB,C,14
15,test,4,0.0,2-Back,1,m,Thu Mar 13 2025 11:17:42 GMT-0500 (Central Daylight Time),720843.7000000011,025_y_m_d_a.png,O,m,1289,17,1,2312.2000000011176,718531.5,7077,VNB,C,15
16,test,4,1.0,2-Back,1,m,Thu Mar 13 2025 11:17:42 GMT-0500 (Central Daylight Time),723109.5999999996,014_m_m_d_a.png,O,m,1237,18,1,2262.199999999255,720847.4000000004,7077,VNB,C,16
0,test,5,1.0,2-Back,,,Thu Mar 13 2025 11:17:42 GMT-0500 (Central Daylight Time),723109.5999999996,022_y_f_d_a.png,O,space,3076,1,1,2262.199999999255,720847.4000000004,7077,VNB,C,0
0,test,5,1.0,2-Back,,,Thu Mar 13 2025 11:17:42 GMT-0500 (Central Daylight Time),723109.5999999996,012_o_f_h_a.png,O,space,3076,2,1,2262.199999999255,720847.4000000004,7077,VNB,C,0
1,test,5,1.0,2-Back,1,z,Thu Mar 13 2025 11:17:42 GMT-0500 (Central Daylight Time),733789.5999999996,015_o_m_d_a.png,O,z,1312,3,1,2328.89999999851,731460.7000000011,7077,VNB,C,1
2,test,5,1.0,2-Back,1,m,Thu Mar 13 2025 11:17:42 GMT-0500 (Central Daylight Time),736106.7000000011,019_m_f_n_a.png,O,m,1283,4,1,2312.800000000745,733793.9000000004,7077,VNB,C,2
3,test,5,0.0,2-Back,1,m,Thu Mar 13 2025 11:17:42 GMT-0500 (Central Daylight Time),738538.0999999996,014_m_m_h_a.png,O,m,1400,5,1,2427.199999999255,736110.9000000004,7077,VNB,C,3
4,test,5,0.0,2-Back,1,z,Thu Mar 13 2025 11:17:42 GMT-0500 (Central Daylight Time),740837.5,022_y_f_n_a.png,O,z,1271,6,1,2295.4000000003725,738542.0999999996,7077,VNB,C,4
4,test,5,0.0,2-Back,0,m,Thu Mar 13 2025 11:17:42 GMT-0500 (Central Daylight Time),743437.8000000007,012_o_f_d_a.png,O,z,1580,7,1,2596.2000000011176,740841.5999999996,7077,VNB,C,5
5,test,5,0.0,2-Back,1,m,Thu Mar 13 2025 11:17:42 GMT-0500 (Central Daylight Time),745802.3000000007,015_o_m_h_a.png,O,m,1348,8,1,2360.0999999996275,743442.2000000011,7077,VNB,C,6
6,test,5,1.0,2-Back,1,z,Thu Mar 13 2025 11:17:42 GMT-0500 (Central Daylight Time),748218.3000000007,019_m_f_d_a.png,O,z,1399,9,1,2412.5,745805.8000000007,7077,VNB,C,7
7,test,5,0.0,2-Back,1,m,Thu Mar 13 2025 11:17:42 GMT-0500 (Central Daylight Time),750585.7000000011,025_y_m_n_a.png,O,m,1335,10,1,2363.9000000003725,748221.8000000007,7077,VNB,C,8
8,test,5,0.0,2-Back,1,m,Thu Mar 13 2025 11:17:42 GMT-0500 (Central Daylight Time),752766.7000000011,014_m_m_n_a.png,O,m,1153,11,1,2177.300000000745,750589.4000000004,7077,VNB,C,9
9,test,5,0.0,2-Back,1,m,Thu Mar 13 2025 11:17:42 GMT-0500 (Central Daylight Time),755682.5,022_y_f_h_a.png,O,m,1897,12,1,2912.199999999255,752770.3000000007,7077,VNB,C,10
9,test,5,0.0,2-Back,0,m,Thu Mar 13 2025 11:17:42 GMT-0500 (Central Daylight Time),758715.2000000011,025_y_m_d_a.png,O,None,2015,13,1,3028.5,755686.7000000011,7077,VNB,C,11
10,test,5,1.0,2-Back,1,z,Thu Mar 13 2025 11:17:42 GMT-0500 (Central Daylight Time),760814.5,019_m_f_h_a.png,O,z,1070,14,1,2095.5999999996275,758718.9000000004,7077,VNB,C,12
11,test,5,0.0,2-Back,1,m,Thu Mar 13 2025 11:17:42 GMT-0500 (Central Daylight Time),762830.5999999996,015_o_m_n_a.png,O,m,987,15,1,2012.8999999985099,760817.7000000011,7077,VNB,C,13
12,test,5,0.0,2-Back,1,m,Thu Mar 13 2025 11:17:42 GMT-0500 (Central Daylight Time),765046.5,014_m_m_d_a.png,O,m,1187,16,1,2212.5,762834.0,7077,VNB,C,14
13,test,5,0.0,2-Back,1,z,Thu Mar 13 2025 11:17:42 GMT-0500 (Central Daylight Time),767345.5,012_o_f_n_a.png,O,z,1275,17,1,2295.5,765050.0,7077,VNB,C,15
14,test,5,1.0,2-Back,1,m,Thu Mar 13 2025 11:17:42 GMT-0500 (Central Daylight Time),769561.9000000004,025_y_m_h_a.png,O,m,1183,18,1,2213.0,767348.9000000004,7077,VNB,C,16
