block_c,block_dur,condition,countdown,datetime,endtime,list,multichar_response,project,response,response_time,session_number,start_end,starttime,subject_id,task,task_vers,trial
,,,,Wed Mar 26 2025 16:02:31 GMT-0500 (Central Daylight Time),,,,O,space,595,1,,,7091,WL,B,
prac,,0,,Wed Mar 26 2025 16:02:31 GMT-0500 (Central Daylight Time),,NA,b,O,b,2697,1,,,7091,WL,B,1.0
prac,,0,,Wed Mar 26 2025 16:02:31 GMT-0500 (Central Daylight Time),,NA,bo,O,o,118,1,,,7091,WL,B,1.0
prac,,0,,Wed Mar 26 2025 16:02:31 GMT-0500 (Central Daylight Time),,NA,boo,O,o,168,1,,,7091,WL,B,1.0
prac,,0,,Wed Mar 26 2025 16:02:31 GMT-0500 (Central Daylight Time),,NA,boos,O,s,124,1,,,7091,WL,B,1.0
prac,,0,,Wed Mar 26 2025 16:02:31 GMT-0500 (Central Daylight Time),,NA,boost,O,t,395,1,,,7091,WL,B,1.0
prac,,0,,Wed Mar 26 2025 16:02:31 GMT-0500 (Central Daylight Time),,NA,boostenter,O,enter,274,1,,,7091,WL,B,1.0
1,0.8329999446868896,learn,59167.00005531311,Wed Mar 26 2025 16:02:31 GMT-0500 (Central Daylight Time),130629.69999998808,A,s,O,s,822,1,832.6999999880791,129797.0,7091,WL,B,1.0
1,1.0339999198913574,learn,58966.00008010864,Wed Mar 26 2025 16:02:31 GMT-0500 (Central Daylight Time),130830.89999997616,A,st,O,t,181,1,1033.8999999761581,129797.0,7091,WL,B,1.0
1,1.184999942779541,learn,58815.00005722046,Wed Mar 26 2025 16:02:31 GMT-0500 (Central Daylight Time),130981.39999997616,A,str,O,r,124,1,1184.3999999761581,129797.0,7091,WL,B,1.0
1,1.316999912261963,learn,58683.00008773804,Wed Mar 26 2025 16:02:31 GMT-0500 (Central Daylight Time),131114.30000001192,A,stre,O,e,98,1,1317.300000011921,129797.0,7091,WL,B,1.0
1,1.6489999294281006,learn,58351.0000705719,Wed Mar 26 2025 16:02:31 GMT-0500 (Central Daylight Time),131446.09999996424,A,stree,O,e,291,1,1649.0999999642372,129797.0,7091,WL,B,1.0
1,1.9500000476837158,learn,58049.999952316284,Wed Mar 26 2025 16:02:31 GMT-0500 (Central Daylight Time),131747.0,A,street,O,t,278,1,1950.0,129797.0,7091,WL,B,1.0
1,4.9649999141693115,learn,55035.00008583069,Wed Mar 26 2025 16:02:31 GMT-0500 (Central Daylight Time),134761.80000001192,A,streetenter,O,enter,2970,1,4964.800000011921,129797.0,7091,WL,B,1.0
1,5.865999937057495,learn,54134.000062942505,Wed Mar 26 2025 16:02:31 GMT-0500 (Central Daylight Time),135662.59999996424,A,a,O,a,882,1,900.1999999880791,134762.39999997616,7091,WL,B,2.0
1,6.0320000648498535,learn,53967.99993515015,Wed Mar 26 2025 16:02:31 GMT-0500 (Central Daylight Time),135828.39999997616,A,ar,O,r,129,1,1066.0,134762.39999997616,7091,WL,B,2.0
1,6.216000080108643,learn,53783.99991989136,Wed Mar 26 2025 16:02:31 GMT-0500 (Central Daylight Time),136013.09999996424,A,arm,O,m,170,1,1250.699999988079,134762.39999997616,7091,WL,B,2.0
1,6.765000104904175,learn,53234.999895095825,Wed Mar 26 2025 16:02:31 GMT-0500 (Central Daylight Time),136561.30000001192,A,armenter,O,enter,502,1,1798.9000000357628,134762.39999997616,7091,WL,B,2.0
1,7.181999921798706,learn,52818.000078201294,Wed Mar 26 2025 16:02:31 GMT-0500 (Central Daylight Time),136978.30000001192,A,w,O,w,403,1,416.60000002384186,136561.69999998808,7091,WL,B,3.0
1,7.447999954223633,learn,52552.00004577637,Wed Mar 26 2025 16:02:31 GMT-0500 (Central Daylight Time),137245.30000001192,A,wi,O,i,251,1,683.6000000238419,136561.69999998808,7091,WL,B,3.0
1,7.614000082015991,learn,52385.99991798401,Wed Mar 26 2025 16:02:31 GMT-0500 (Central Daylight Time),137410.89999997616,A,wif,O,f,138,1,849.1999999880791,136561.69999998808,7091,WL,B,3.0
1,7.763999938964844,learn,52236.000061035156,Wed Mar 26 2025 16:02:31 GMT-0500 (Central Daylight Time),137560.69999998808,A,wife,O,e,137,1,999.0,136561.69999998808,7091,WL,B,3.0
1,8.013999938964844,learn,51986.000061035156,Wed Mar 26 2025 16:02:31 GMT-0500 (Central Daylight Time),137810.80000001192,A,wifeenter,O,enter,227,1,1249.1000000238419,136561.69999998808,7091,WL,B,3.0
1,8.829999923706055,learn,51170.000076293945,Wed Mar 26 2025 16:02:31 GMT-0500 (Central Daylight Time),138626.89999997616,A,d,O,d,800,1,815.8000000119209,137811.09999996424,7091,WL,B,4.0
1,9.581000089645386,learn,50418.999910354614,Wed Mar 26 2025 16:02:31 GMT-0500 (Central Daylight Time),139377.30000001192,A,,O,backspace,730,1,1566.2000000476837,137811.09999996424,7091,WL,B,4.0
1,9.780999898910522,learn,50219.00010108948,Wed Mar 26 2025 16:02:31 GMT-0500 (Central Daylight Time),139577.80000001192,A,c,O,c,177,1,1766.7000000476837,137811.09999996424,7091,WL,B,4.0
1,9.963000059127808,learn,50036.99994087219,Wed Mar 26 2025 16:02:31 GMT-0500 (Central Daylight Time),139760.19999998808,A,ca,O,a,149,1,1949.1000000238419,137811.09999996424,7091,WL,B,4.0
1,10.213000059127808,learn,49786.99994087219,Wed Mar 26 2025 16:02:31 GMT-0500 (Central Daylight Time),140009.89999997616,A,cab,O,b,223,1,2198.800000011921,137811.09999996424,7091,WL,B,4.0
1,10.413000106811523,learn,49586.99989318848,Wed Mar 26 2025 16:02:31 GMT-0500 (Central Daylight Time),140209.80000001192,A,cabi,O,i,177,1,2398.7000000476837,137811.09999996424,7091,WL,B,4.0
1,10.579999923706055,learn,49420.000076293945,Wed Mar 26 2025 16:02:31 GMT-0500 (Central Daylight Time),140376.59999996424,A,cabin,O,n,145,1,2565.5,137811.09999996424,7091,WL,B,4.0
1,10.94700002670288,learn,49052.99997329712,Wed Mar 26 2025 16:02:31 GMT-0500 (Central Daylight Time),140743.19999998808,A,cabinenter,O,enter,347,1,2932.100000023842,137811.09999996424,7091,WL,B,4.0
1,12.328999996185303,learn,47671.0000038147,Wed Mar 26 2025 16:02:31 GMT-0500 (Central Daylight Time),142126.0,A,f,O,f,1365,1,1382.4000000357628,140743.59999996424,7091,WL,B,5.0
1,12.463000059127808,learn,47536.99994087219,Wed Mar 26 2025 16:02:31 GMT-0500 (Central Daylight Time),142259.39999997616,A,fi,O,i,117,1,1515.800000011921,140743.59999996424,7091,WL,B,5.0
1,12.611999988555908,learn,47388.00001144409,Wed Mar 26 2025 16:02:31 GMT-0500 (Central Daylight Time),142409.0,A,fir,O,r,134,1,1665.4000000357628,140743.59999996424,7091,WL,B,5.0
1,12.729000091552734,learn,47270.999908447266,Wed Mar 26 2025 16:02:31 GMT-0500 (Central Daylight Time),142525.69999998808,A,fire,O,e,98,1,1782.1000000238419,140743.59999996424,7091,WL,B,5.0
1,13.062000036239624,learn,46937.999963760376,Wed Mar 26 2025 16:02:31 GMT-0500 (Central Daylight Time),142859.09999996424,A,fireenter,O,enter,309,1,2115.5,140743.59999996424,7091,WL,B,5.0
1,13.579999923706055,learn,46420.000076293945,Wed Mar 26 2025 16:02:31 GMT-0500 (Central Daylight Time),143376.5,A,l,O,l,506,1,517.0,142859.5,7091,WL,B,6.0
1,13.779000043869019,learn,46220.99995613098,Wed Mar 26 2025 16:02:31 GMT-0500 (Central Daylight Time),143575.39999997616,A,la,O,a,169,1,715.8999999761581,142859.5,7091,WL,B,6.0
1,13.946000099182129,learn,46053.99990081787,Wed Mar 26 2025 16:02:31 GMT-0500 (Central Daylight Time),143743.19999998808,A,lak,O,k,158,1,883.6999999880791,142859.5,7091,WL,B,6.0
1,14.09500002861023,learn,45904.99997138977,Wed Mar 26 2025 16:02:31 GMT-0500 (Central Daylight Time),143892.0,A,lake,O,e,128,1,1032.5,142859.5,7091,WL,B,6.0
1,14.361999988555908,learn,45638.00001144409,Wed Mar 26 2025 16:02:31 GMT-0500 (Central Daylight Time),144158.5,A,lakeenter,O,enter,248,1,1299.0,142859.5,7091,WL,B,6.0
1,18.210999965667725,learn,41789.000034332275,Wed Mar 26 2025 16:02:31 GMT-0500 (Central Daylight Time),148007.39999997616,A,w,O,w,3827,1,3848.599999964237,144158.80000001192,7091,WL,B,7.0
1,18.344000101089478,learn,41655.99989891052,Wed Mar 26 2025 16:02:31 GMT-0500 (Central Daylight Time),148140.5,A,wi,O,i,122,1,3981.699999988079,144158.80000001192,7091,WL,B,7.0
1,18.509999990463257,learn,41490.00000953674,Wed Mar 26 2025 16:02:31 GMT-0500 (Central Daylight Time),148307.09999996424,A,wif,O,f,159,1,4148.299999952316,144158.80000001192,7091,WL,B,7.0
1,18.694000005722046,learn,41305.999994277954,Wed Mar 26 2025 16:02:31 GMT-0500 (Central Daylight Time),148490.5,A,wife,O,e,159,1,4331.699999988079,144158.80000001192,7091,WL,B,7.0
1,18.877000093460083,learn,41122.99990653992,Wed Mar 26 2025 16:02:31 GMT-0500 (Central Daylight Time),148673.80000001192,A,wifeenter,O,enter,160,1,4515.0,144158.80000001192,7091,WL,B,7.0
1,22.9760000705719,learn,37023.9999294281,Wed Mar 26 2025 16:02:31 GMT-0500 (Central Daylight Time),152772.5,A,w,O,w,4090,1,4098.400000035763,148674.09999996424,7091,WL,B,8.0
1,23.108999967575073,learn,36891.00003242493,Wed Mar 26 2025 16:02:31 GMT-0500 (Central Daylight Time),152905.69999998808,A,wi,O,i,108,1,4231.600000023842,148674.09999996424,7091,WL,B,8.0
1,23.259000062942505,learn,36740.999937057495,Wed Mar 26 2025 16:02:31 GMT-0500 (Central Daylight Time),153055.80000001192,A,win,O,n,130,1,4381.700000047684,148674.09999996424,7091,WL,B,8.0
1,23.375999927520752,learn,36624.00007247925,Wed Mar 26 2025 16:02:31 GMT-0500 (Central Daylight Time),153172.39999997616,A,wind,O,d,108,1,4498.300000011921,148674.09999996424,7091,WL,B,8.0
1,23.610000133514404,learn,36389.999866485596,Wed Mar 26 2025 16:02:31 GMT-0500 (Central Daylight Time),153406.59999996424,A,windo,O,o,218,1,4732.5,148674.09999996424,7091,WL,B,8.0
1,23.941999912261963,learn,36058.00008773804,Wed Mar 26 2025 16:02:31 GMT-0500 (Central Daylight Time),153738.89999997616,A,window,O,w,311,1,5064.800000011921,148674.09999996424,7091,WL,B,8.0
1,24.27500009536743,learn,35724.99990463257,Wed Mar 26 2025 16:02:31 GMT-0500 (Central Daylight Time),154071.89999997616,A,windowenter,O,enter,313,1,5397.800000011921,148674.09999996424,7091,WL,B,8.0
1,25.657999992370605,learn,34342.000007629395,Wed Mar 26 2025 16:02:31 GMT-0500 (Central Daylight Time),155454.89999997616,A,p,O,p,1364,1,1382.699999988079,154072.19999998808,7091,WL,B,9.0
1,25.79100012779236,learn,34208.99987220764,Wed Mar 26 2025 16:02:31 GMT-0500 (Central Daylight Time),155588.09999996424,A,pi,O,i,124,1,1515.8999999761581,154072.19999998808,7091,WL,B,9.0
1,25.992000102996826,learn,34007.999897003174,Wed Mar 26 2025 16:02:31 GMT-0500 (Central Daylight Time),155788.5,A,pip,O,p,185,1,1716.300000011921,154072.19999998808,7091,WL,B,9.0
1,26.176000118255615,learn,33823.999881744385,Wed Mar 26 2025 16:02:31 GMT-0500 (Central Daylight Time),155972.19999998808,A,pipe,O,e,148,1,1900.0,154072.19999998808,7091,WL,B,9.0
1,26.44099998474121,learn,33559.00001525879,Wed Mar 26 2025 16:02:31 GMT-0500 (Central Daylight Time),156238.19999998808,A,pipeenter,O,enter,237,1,2166.0,154072.19999998808,7091,WL,B,9.0
1,30.457000017166138,learn,29542.999982833862,Wed Mar 26 2025 16:02:31 GMT-0500 (Central Daylight Time),160253.39999997616,A,l,O,l,3998,1,4015.099999964237,156238.30000001192,7091,WL,B,10.0
1,31.60599994659424,learn,28394.00005340576,Wed Mar 26 2025 16:02:31 GMT-0500 (Central Daylight Time),161403.09999996424,A,la,O,a,1126,1,5164.799999952316,156238.30000001192,7091,WL,B,10.0
1,31.7739999294281,learn,28226.0000705719,Wed Mar 26 2025 16:02:31 GMT-0500 (Central Daylight Time),161570.39999997616,A,lak,O,k,153,1,5332.099999964237,156238.30000001192,7091,WL,B,10.0
1,31.907000064849854,learn,28092.999935150146,Wed Mar 26 2025 16:02:31 GMT-0500 (Central Daylight Time),161703.39999997616,A,lake,O,e,103,1,5465.099999964237,156238.30000001192,7091,WL,B,10.0
1,32.10599994659424,learn,27894.00005340576,Wed Mar 26 2025 16:02:31 GMT-0500 (Central Daylight Time),161902.80000001192,A,lakeenter,O,enter,182,1,5664.5,156238.30000001192,7091,WL,B,10.0
1,60.015000104904175,learn,-15.000104904174805,Wed Mar 26 2025 16:02:31 GMT-0500 (Central Daylight Time),189811.59999996424,A,None,O,None,27900,1,27908.299999952316,161903.30000001192,7091,WL,B,11.0
2,0.5,learn,59500.0,Wed Mar 26 2025 16:02:31 GMT-0500 (Central Daylight Time),264986.59999996424,A,s,O,s,468,1,499.0,264487.59999996424,7091,WL,B,1.0
2,1.0,learn,59000.0,Wed Mar 26 2025 16:02:31 GMT-0500 (Central Daylight Time),265486.5,A,st,O,t,461,1,998.9000000357628,264487.59999996424,7091,WL,B,1.0
2,1.2829999923706055,learn,58717.000007629395,Wed Mar 26 2025 16:02:31 GMT-0500 (Central Daylight Time),265769.59999996424,A,str,O,r,252,1,1282.0,264487.59999996424,7091,WL,B,1.0
2,1.4160001277923584,learn,58583.99987220764,Wed Mar 26 2025 16:02:31 GMT-0500 (Central Daylight Time),265902.6999999881,A,stre,O,e,104,1,1415.1000000238419,264487.59999996424,7091,WL,B,1.0
2,1.6660001277923584,learn,58333.99987220764,Wed Mar 26 2025 16:02:31 GMT-0500 (Central Daylight Time),266152.6999999881,A,stree,O,e,219,1,1665.1000000238419,264487.59999996424,7091,WL,B,1.0
2,1.8650000095367432,learn,58134.99999046326,Wed Mar 26 2025 16:02:31 GMT-0500 (Central Daylight Time),266351.8000000119,A,street,O,t,159,1,1864.2000000476837,264487.59999996424,7091,WL,B,1.0
2,2.0820000171661377,learn,57917.99998283386,Wed Mar 26 2025 16:02:31 GMT-0500 (Central Daylight Time),266568.39999997616,A,streetenter,O,enter,204,1,2080.800000011921,264487.59999996424,7091,WL,B,1.0
2,2.2990000247955322,learn,57700.99997520447,Wed Mar 26 2025 16:02:31 GMT-0500 (Central Daylight Time),266785.89999997616,A,a,O,a,205,1,217.19999998807907,266568.6999999881,7091,WL,B,2.0
2,2.449000120162964,learn,57550.999879837036,Wed Mar 26 2025 16:02:31 GMT-0500 (Central Daylight Time),266936.0,A,ar,O,r,110,1,367.30000001192093,266568.6999999881,7091,WL,B,2.0
2,2.615000009536743,learn,57384.99999046326,Wed Mar 26 2025 16:02:31 GMT-0500 (Central Daylight Time),267102.09999996424,A,arm,O,m,130,1,533.3999999761581,266568.6999999881,7091,WL,B,2.0
2,3.13100004196167,learn,56868.99995803833,Wed Mar 26 2025 16:02:31 GMT-0500 (Central Daylight Time),267618.09999996424,A,armenter,O,enter,484,1,1049.3999999761581,266568.6999999881,7091,WL,B,2.0
2,3.8320000171661377,learn,56167.99998283386,Wed Mar 26 2025 16:02:31 GMT-0500 (Central Daylight Time),268318.8000000119,A,p,O,p,684,1,700.4000000357628,267618.39999997616,7091,WL,B,3.0
2,3.947999954223633,learn,56052.00004577637,Wed Mar 26 2025 16:02:31 GMT-0500 (Central Daylight Time),268434.59999996424,A,pu,O,u,74,1,816.1999999880791,267618.39999997616,7091,WL,B,3.0
2,4.115000009536743,learn,55884.99999046326,Wed Mar 26 2025 16:02:31 GMT-0500 (Central Daylight Time),268601.5,A,pup,O,p,148,1,983.1000000238419,267618.39999997616,7091,WL,B,3.0
2,4.482000112533569,learn,55517.99988746643,Wed Mar 26 2025 16:02:31 GMT-0500 (Central Daylight Time),268968.59999996424,A,pupi,O,i,339,1,1350.199999988079,267618.39999997616,7091,WL,B,3.0
2,4.697999954223633,learn,55302.00004577637,Wed Mar 26 2025 16:02:31 GMT-0500 (Central Daylight Time),269185.0,A,pupil,O,l,185,1,1566.6000000238419,267618.39999997616,7091,WL,B,3.0
2,4.980999946594238,learn,55019.00005340576,Wed Mar 26 2025 16:02:31 GMT-0500 (Central Daylight Time),269467.59999996424,A,pupilenter,O,enter,265,1,1849.199999988079,267618.39999997616,7091,WL,B,3.0
2,5.430999994277954,learn,54569.000005722046,Wed Mar 26 2025 16:02:31 GMT-0500 (Central Daylight Time),269918.1999999881,A,g,O,g,441,1,450.30000001192093,269467.89999997616,7091,WL,B,4.0
2,5.63100004196167,learn,54368.99995803833,Wed Mar 26 2025 16:02:31 GMT-0500 (Central Daylight Time),270118.3000000119,A,gr,O,r,166,1,650.4000000357628,269467.89999997616,7091,WL,B,4.0
2,5.765000104904175,learn,54234.999895095825,Wed Mar 26 2025 16:02:31 GMT-0500 (Central Daylight Time),270251.59999996424,A,gra,O,a,91,1,783.6999999880791,269467.89999997616,7091,WL,B,4.0
2,5.982000112533569,learn,54017.99988746643,Wed Mar 26 2025 16:02:31 GMT-0500 (Central Daylight Time),270468.8000000119,A,gras,O,s,194,1,1000.9000000357628,269467.89999997616,7091,WL,B,4.0
2,6.164000034332275,learn,53835.999965667725,Wed Mar 26 2025 16:02:31 GMT-0500 (Central Daylight Time),270651.39999997616,A,grass,O,s,149,1,1183.5,269467.89999997616,7091,WL,B,4.0
2,6.447000026702881,learn,53552.99997329712,Wed Mar 26 2025 16:02:31 GMT-0500 (Central Daylight Time),270933.59999996424,A,grassenter,O,enter,253,1,1465.699999988079,269467.89999997616,7091,WL,B,4.0
2,8.130000114440918,learn,51869.99988555908,Wed Mar 26 2025 16:02:31 GMT-0500 (Central Daylight Time),272617.5,A,f,O,f,1664,1,1683.5,270934.0,7091,WL,B,5.0
2,8.230000019073486,learn,51769.999980926514,Wed Mar 26 2025 16:02:31 GMT-0500 (Central Daylight Time),272716.6999999881,A,fi,O,i,66,1,1782.699999988079,270934.0,7091,WL,B,5.0
2,8.398000001907349,learn,51601.99999809265,Wed Mar 26 2025 16:02:31 GMT-0500 (Central Daylight Time),272884.59999996424,A,fir,O,r,157,1,1950.5999999642372,270934.0,7091,WL,B,5.0
2,8.513999938964844,learn,51486.000061035156,Wed Mar 26 2025 16:02:31 GMT-0500 (Central Daylight Time),273000.59999996424,A,fire,O,e,87,1,2066.599999964237,270934.0,7091,WL,B,5.0
2,8.729000091552734,learn,51270.999908447266,Wed Mar 26 2025 16:02:31 GMT-0500 (Central Daylight Time),273216.1999999881,A,fireenter,O,enter,177,1,2282.199999988079,270934.0,7091,WL,B,5.0
2,8.996999979019165,learn,51003.000020980835,Wed Mar 26 2025 16:02:31 GMT-0500 (Central Daylight Time),273483.6999999881,A,c,O,c,253,1,267.19999998807907,273216.5,7091,WL,B,6.0
2,9.19700002670288,learn,50802.99997329712,Wed Mar 26 2025 16:02:31 GMT-0500 (Central Daylight Time),273683.8000000119,A,ca,O,a,158,1,467.30000001192093,273216.5,7091,WL,B,6.0
2,9.44700002670288,learn,50552.99997329712,Wed Mar 26 2025 16:02:31 GMT-0500 (Central Daylight Time),273933.8000000119,A,cab,O,b,213,1,717.3000000119209,273216.5,7091,WL,B,6.0
2,9.562999963760376,learn,50437.000036239624,Wed Mar 26 2025 16:02:31 GMT-0500 (Central Daylight Time),274050.5,A,cabi,O,i,77,1,834.0,273216.5,7091,WL,B,6.0
2,9.663000106811523,learn,50336.99989318848,Wed Mar 26 2025 16:02:31 GMT-0500 (Central Daylight Time),274150.09999996424,A,cabin,O,n,71,1,933.5999999642372,273216.5,7091,WL,B,6.0
2,10.479000091552734,learn,49520.999908447266,Wed Mar 26 2025 16:02:31 GMT-0500 (Central Daylight Time),274965.6999999881,A,cabinenter,O,enter,790,1,1749.199999988079,273216.5,7091,WL,B,6.0
2,13.161999940872192,learn,46838.00005912781,Wed Mar 26 2025 16:02:31 GMT-0500 (Central Daylight Time),277649.39999997616,A,w,O,w,2672,1,2683.399999976158,274966.0,7091,WL,B,7.0
2,13.239000082015991,learn,46760.99991798401,Wed Mar 26 2025 16:02:31 GMT-0500 (Central Daylight Time),277726.09999996424,A,wi,O,i,16,1,2760.099999964237,274966.0,7091,WL,B,7.0
2,13.495000123977661,learn,46504.99987602234,Wed Mar 26 2025 16:02:31 GMT-0500 (Central Daylight Time),277982.39999997616,A,wif,O,f,232,1,3016.399999976158,274966.0,7091,WL,B,7.0
2,13.644999980926514,learn,46355.000019073486,Wed Mar 26 2025 16:02:31 GMT-0500 (Central Daylight Time),278132.1999999881,A,wife,O,e,107,1,3166.199999988079,274966.0,7091,WL,B,7.0
2,14.194000005722046,learn,45805.999994277954,Wed Mar 26 2025 16:02:31 GMT-0500 (Central Daylight Time),278681.1999999881,A,wifeenter,O,enter,507,1,3715.199999988079,274966.0,7091,WL,B,7.0
2,16.394999980926514,learn,43605.000019073486,Wed Mar 26 2025 16:02:31 GMT-0500 (Central Daylight Time),280881.5,A,l,O,l,2180,1,2200.0,278681.5,7091,WL,B,8.0
2,16.544000148773193,learn,43455.99985122681,Wed Mar 26 2025 16:02:31 GMT-0500 (Central Daylight Time),281031.3000000119,A,la,O,a,119,1,2349.800000011921,278681.5,7091,WL,B,8.0
2,16.694000005722046,learn,43305.999994277954,Wed Mar 26 2025 16:02:31 GMT-0500 (Central Daylight Time),281180.89999997616,A,lak,O,k,107,1,2499.399999976158,278681.5,7091,WL,B,8.0
2,16.861000061035156,learn,43138.999938964844,Wed Mar 26 2025 16:02:31 GMT-0500 (Central Daylight Time),281347.5,A,lake,O,e,134,1,2666.0,278681.5,7091,WL,B,8.0
2,17.042999982833862,learn,42957.00001716614,Wed Mar 26 2025 16:02:31 GMT-0500 (Central Daylight Time),281530.1999999881,A,lakeenter,O,enter,153,1,2848.699999988079,278681.5,7091,WL,B,8.0
2,33.621999979019165,learn,26378.000020980835,Wed Mar 26 2025 16:02:31 GMT-0500 (Central Daylight Time),298109.09999996424,A,c,O,c,16564,1,16578.69999998808,281530.39999997616,7091,WL,B,9.0
2,33.82200002670288,learn,26177.99997329712,Wed Mar 26 2025 16:02:31 GMT-0500 (Central Daylight Time),298308.39999997616,A,ca,O,a,170,1,16778.0,281530.39999997616,7091,WL,B,9.0
2,34.0550000667572,learn,25944.999933242798,Wed Mar 26 2025 16:02:31 GMT-0500 (Central Daylight Time),298542.0,A,cab,O,b,217,1,17011.600000023842,281530.39999997616,7091,WL,B,9.0
2,34.223000049591064,learn,25776.999950408936,Wed Mar 26 2025 16:02:31 GMT-0500 (Central Daylight Time),298709.1999999881,A,cabi,O,i,146,1,17178.80000001192,281530.39999997616,7091,WL,B,9.0
2,34.33899998664856,learn,25661.00001335144,Wed Mar 26 2025 16:02:31 GMT-0500 (Central Daylight Time),298825.09999996424,A,cabin,O,n,85,1,17294.69999998808,281530.39999997616,7091,WL,B,9.0
2,34.65499997138977,learn,25345.00002861023,Wed Mar 26 2025 16:02:31 GMT-0500 (Central Daylight Time),299141.09999996424,A,cabinenter,O,enter,288,1,17610.69999998808,281530.39999997616,7091,WL,B,9.0
2,42.003000020980835,learn,17996.999979019165,Wed Mar 26 2025 16:02:31 GMT-0500 (Central Daylight Time),306489.6999999881,A,s,O,s,7329,1,7348.399999976158,299141.3000000119,7091,WL,B,10.0
2,42.16900014877319,learn,17830.999851226807,Wed Mar 26 2025 16:02:31 GMT-0500 (Central Daylight Time),306655.89999997616,A,sk,O,k,139,1,7514.599999964237,299141.3000000119,7091,WL,B,10.0
2,42.420000076293945,learn,17579.999923706055,Wed Mar 26 2025 16:02:31 GMT-0500 (Central Daylight Time),306906.3000000119,A,sky,O,y,212,1,7765.0,299141.3000000119,7091,WL,B,10.0
2,42.75200009346008,learn,17247.999906539917,Wed Mar 26 2025 16:02:31 GMT-0500 (Central Daylight Time),307238.5,A,skyenter,O,enter,296,1,8097.199999988079,299141.3000000119,7091,WL,B,10.0
2,53.33400011062622,learn,6665.999889373779,Wed Mar 26 2025 16:02:31 GMT-0500 (Central Daylight Time),317820.39999997616,A,g,O,g,10559,1,10581.699999988079,307238.6999999881,7091,WL,B,11.0
2,53.54900002479553,learn,6450.999975204468,Wed Mar 26 2025 16:02:31 GMT-0500 (Central Daylight Time),318035.3000000119,A,gr,O,r,170,1,10796.600000023842,307238.6999999881,7091,WL,B,11.0
2,53.71499991416931,learn,6285.0000858306885,Wed Mar 26 2025 16:02:31 GMT-0500 (Central Daylight Time),318201.6999999881,A,gre,O,e,133,1,10963.0,307238.6999999881,7091,WL,B,11.0
2,53.83299994468689,learn,6167.00005531311,Wed Mar 26 2025 16:02:31 GMT-0500 (Central Daylight Time),318319.39999997616,A,grea,O,a,98,1,11080.699999988079,307238.6999999881,7091,WL,B,11.0
2,54.36500000953674,learn,5634.999990463257,Wed Mar 26 2025 16:02:31 GMT-0500 (Central Daylight Time),318852.0,A,gre,O,backspace,490,1,11613.300000011921,307238.6999999881,7091,WL,B,11.0
2,54.54900002479553,learn,5450.999975204468,Wed Mar 26 2025 16:02:31 GMT-0500 (Central Daylight Time),319035.5,A,gr,O,backspace,156,1,11796.800000011921,307238.6999999881,7091,WL,B,11.0
2,54.69799995422363,learn,5302.000045776367,Wed Mar 26 2025 16:02:31 GMT-0500 (Central Daylight Time),319185.0,A,gra,O,a,118,1,11946.300000011921,307238.6999999881,7091,WL,B,11.0
2,54.931999921798706,learn,5068.000078201294,Wed Mar 26 2025 16:02:31 GMT-0500 (Central Daylight Time),319418.89999997616,A,gras,O,s,205,1,12180.199999988079,307238.6999999881,7091,WL,B,11.0
2,55.115999937057495,learn,4884.000062942505,Wed Mar 26 2025 16:02:31 GMT-0500 (Central Daylight Time),319602.09999996424,A,grass,O,s,147,1,12363.399999976158,307238.6999999881,7091,WL,B,11.0
2,55.38100004196167,learn,4618.99995803833,Wed Mar 26 2025 16:02:31 GMT-0500 (Central Daylight Time),319867.5,A,grassenter,O,enter,223,1,12628.800000011921,307238.6999999881,7091,WL,B,11.0
2,60.013999938964844,learn,-13.99993896484375,Wed Mar 26 2025 16:02:31 GMT-0500 (Central Daylight Time),324500.1999999881,A,None,O,None,4627,1,4632.5,319867.6999999881,7091,WL,B,12.0
3,0.5340001583099365,learn,59465.99984169006,Wed Mar 26 2025 16:02:31 GMT-0500 (Central Daylight Time),394510.6999999881,A,c,O,c,498,1,532.8000000119209,393977.89999997616,7091,WL,B,1.0
3,0.6330001354217529,learn,59366.99986457825,Wed Mar 26 2025 16:02:31 GMT-0500 (Central Daylight Time),394610.09999996424,A,cl,O,l,69,1,632.1999999880791,393977.89999997616,7091,WL,B,1.0
3,0.8670001029968262,learn,59132.999897003174,Wed Mar 26 2025 16:02:31 GMT-0500 (Central Daylight Time),394844.09999996424,A,clo,O,o,197,1,866.1999999880791,393977.89999997616,7091,WL,B,1.0
3,1.067000150680542,learn,58932.99984931946,Wed Mar 26 2025 16:02:31 GMT-0500 (Central Daylight Time),395043.89999997616,A,cloc,O,c,158,1,1066.0,393977.89999997616,7091,WL,B,1.0
3,1.183000087738037,learn,58816.99991226196,Wed Mar 26 2025 16:02:31 GMT-0500 (Central Daylight Time),395160.5,A,clock,O,k,87,1,1182.6000000238419,393977.89999997616,7091,WL,B,1.0
3,1.4820001125335693,learn,58517.99988746643,Wed Mar 26 2025 16:02:31 GMT-0500 (Central Daylight Time),395459.3000000119,A,clockenter,O,enter,273,1,1481.4000000357628,393977.89999997616,7091,WL,B,1.0
3,1.9000000953674316,learn,58099.99990463257,Wed Mar 26 2025 16:02:31 GMT-0500 (Central Daylight Time),395877.09999996424,A,c,O,c,395,1,417.5,395459.59999996424,7091,WL,B,2.0
3,2.1000001430511475,learn,57899.99985694885,Wed Mar 26 2025 16:02:31 GMT-0500 (Central Daylight Time),396077.0,A,ca,O,a,165,1,617.4000000357628,395459.59999996424,7091,WL,B,2.0
3,2.315999984741211,learn,57684.00001525879,Wed Mar 26 2025 16:02:31 GMT-0500 (Central Daylight Time),396293.3000000119,A,cab,O,b,189,1,833.7000000476837,395459.59999996424,7091,WL,B,2.0
3,2.4160001277923584,learn,57583.99987220764,Wed Mar 26 2025 16:02:31 GMT-0500 (Central Daylight Time),396393.8000000119,A,cabi,O,i,67,1,934.2000000476837,395459.59999996424,7091,WL,B,2.0
3,2.5490000247955322,learn,57450.99997520447,Wed Mar 26 2025 16:02:31 GMT-0500 (Central Daylight Time),396526.39999997616,A,cabin,O,n,106,1,1066.800000011921,395459.59999996424,7091,WL,B,2.0
3,2.8489999771118164,learn,57151.00002288818,Wed Mar 26 2025 16:02:31 GMT-0500 (Central Daylight Time),396825.59999996424,A,cabinenter,O,enter,268,1,1366.0,395459.59999996424,7091,WL,B,2.0
3,3.2820000648498535,learn,56717.99993515015,Wed Mar 26 2025 16:02:31 GMT-0500 (Central Daylight Time),397259.5,A,l,O,l,420,1,433.60000002384186,396825.89999997616,7091,WL,B,3.0
3,3.449000120162964,learn,56550.999879837036,Wed Mar 26 2025 16:02:31 GMT-0500 (Central Daylight Time),397426.3000000119,A,la,O,a,135,1,600.4000000357628,396825.89999997616,7091,WL,B,3.0
3,3.616000175476074,learn,56383.999824523926,Wed Mar 26 2025 16:02:31 GMT-0500 (Central Daylight Time),397593.09999996424,A,lak,O,k,135,1,767.1999999880791,396825.89999997616,7091,WL,B,3.0
3,3.7660000324249268,learn,56233.99996757507,Wed Mar 26 2025 16:02:31 GMT-0500 (Central Daylight Time),397742.8000000119,A,lake,O,e,121,1,916.9000000357628,396825.89999997616,7091,WL,B,3.0
3,3.9650001525878906,learn,56034.99984741211,Wed Mar 26 2025 16:02:31 GMT-0500 (Central Daylight Time),397941.89999997616,A,lakeenter,O,enter,170,1,1116.0,396825.89999997616,7091,WL,B,3.0
3,4.2820000648498535,learn,55717.99993515015,Wed Mar 26 2025 16:02:31 GMT-0500 (Central Daylight Time),398259.5,A,f,O,f,296,1,317.30000001192093,397942.1999999881,7091,WL,B,4.0
3,4.416000127792358,learn,55583.99987220764,Wed Mar 26 2025 16:02:31 GMT-0500 (Central Daylight Time),398393.6999999881,A,fi,O,i,106,1,451.5,397942.1999999881,7091,WL,B,4.0
3,4.582000017166138,learn,55417.99998283386,Wed Mar 26 2025 16:02:31 GMT-0500 (Central Daylight Time),398559.5,A,fir,O,r,127,1,617.3000000119209,397942.1999999881,7091,WL,B,4.0
3,4.715000152587891,learn,55284.99984741211,Wed Mar 26 2025 16:02:31 GMT-0500 (Central Daylight Time),398692.6999999881,A,fire,O,e,92,1,750.5,397942.1999999881,7091,WL,B,4.0
3,4.998000144958496,learn,55001.999855041504,Wed Mar 26 2025 16:02:31 GMT-0500 (Central Daylight Time),398974.89999997616,A,fireenter,O,enter,245,1,1032.699999988079,397942.1999999881,7091,WL,B,4.0
3,5.79800009727478,learn,54201.99990272522,Wed Mar 26 2025 16:02:31 GMT-0500 (Central Daylight Time),399775.59999996424,A,p,O,p,783,1,800.3999999761581,398975.1999999881,7091,WL,B,5.0
3,5.932000160217285,learn,54067.999839782715,Wed Mar 26 2025 16:02:31 GMT-0500 (Central Daylight Time),399909.1999999881,A,pu,O,u,106,1,934.0,398975.1999999881,7091,WL,B,5.0
3,6.248000144958496,learn,53751.999855041504,Wed Mar 26 2025 16:02:31 GMT-0500 (Central Daylight Time),400225.5,A,puo,O,o,281,1,1250.300000011921,398975.1999999881,7091,WL,B,5.0
3,6.8480000495910645,learn,53151.999950408936,Wed Mar 26 2025 16:02:31 GMT-0500 (Central Daylight Time),400825.1999999881,A,pu,O,backspace,568,1,1850.0,398975.1999999881,7091,WL,B,5.0
3,7.63100004196167,learn,52368.99995803833,Wed Mar 26 2025 16:02:31 GMT-0500 (Central Daylight Time),401608.39999997616,A,pup,O,p,743,1,2633.199999988079,398975.1999999881,7091,WL,B,5.0
3,7.748000144958496,learn,52251.999855041504,Wed Mar 26 2025 16:02:31 GMT-0500 (Central Daylight Time),401725.1999999881,A,pupi,O,i,73,1,2750.0,398975.1999999881,7091,WL,B,5.0
3,8.19700002670288,learn,51802.99997329712,Wed Mar 26 2025 16:02:31 GMT-0500 (Central Daylight Time),402174.59999996424,A,pupil,O,l,418,1,3199.399999976158,398975.1999999881,7091,WL,B,5.0
3,8.496999979019165,learn,51503.000020980835,Wed Mar 26 2025 16:02:31 GMT-0500 (Central Daylight Time),402473.8000000119,A,pupilenter,O,enter,265,1,3498.600000023842,398975.1999999881,7091,WL,B,5.0
3,9.097000122070312,learn,50902.99987792969,Wed Mar 26 2025 16:02:31 GMT-0500 (Central Daylight Time),403074.59999996424,A,p,O,p,588,1,600.5,402474.09999996424,7091,WL,B,6.0
3,9.19700002670288,learn,50802.99997329712,Wed Mar 26 2025 16:02:31 GMT-0500 (Central Daylight Time),403174.39999997616,A,pi,O,i,71,1,700.3000000119209,402474.09999996424,7091,WL,B,6.0
3,9.46399998664856,learn,50536.00001335144,Wed Mar 26 2025 16:02:31 GMT-0500 (Central Daylight Time),403441.09999996424,A,pip,O,p,228,1,967.0,402474.09999996424,7091,WL,B,6.0
3,9.69700002670288,learn,50302.99997329712,Wed Mar 26 2025 16:02:31 GMT-0500 (Central Daylight Time),403674.39999997616,A,pipe,O,e,194,1,1200.300000011921,402474.09999996424,7091,WL,B,6.0
3,9.913000106811523,learn,50086.99989318848,Wed Mar 26 2025 16:02:31 GMT-0500 (Central Daylight Time),403890.1999999881,A,pipeenter,O,enter,174,1,1416.1000000238419,402474.09999996424,7091,WL,B,6.0
3,10.21399998664856,learn,49786.00001335144,Wed Mar 26 2025 16:02:31 GMT-0500 (Central Daylight Time),404191.1999999881,A,w,O,w,284,1,300.80000001192093,403890.39999997616,7091,WL,B,7.0
3,10.496999979019165,learn,49503.000020980835,Wed Mar 26 2025 16:02:31 GMT-0500 (Central Daylight Time),404474.1999999881,A,wi,O,i,243,1,583.8000000119209,403890.39999997616,7091,WL,B,7.0
3,10.680000066757202,learn,49319.9999332428,Wed Mar 26 2025 16:02:31 GMT-0500 (Central Daylight Time),404657.59999996424,A,wif,O,f,145,1,767.1999999880791,403890.39999997616,7091,WL,B,7.0
3,10.847000122070312,learn,49152.99987792969,Wed Mar 26 2025 16:02:31 GMT-0500 (Central Daylight Time),404824.1999999881,A,wife,O,e,129,1,933.8000000119209,403890.39999997616,7091,WL,B,7.0
3,11.162000179290771,learn,48837.99982070923,Wed Mar 26 2025 16:02:31 GMT-0500 (Central Daylight Time),405139.59999996424,A,wifeenter,O,enter,282,1,1249.199999988079,403890.39999997616,7091,WL,B,7.0
3,11.646000146865845,learn,48353.999853134155,Wed Mar 26 2025 16:02:31 GMT-0500 (Central Daylight Time),405623.1999999881,A,g,O,g,465,1,483.39999997615814,405139.8000000119,7091,WL,B,8.0
3,11.880000114440918,learn,48119.99988555908,Wed Mar 26 2025 16:02:31 GMT-0500 (Central Daylight Time),405857.0,A,gr,O,r,213,1,717.1999999880791,405139.8000000119,7091,WL,B,8.0
3,12.013000011444092,learn,47986.99998855591,Wed Mar 26 2025 16:02:31 GMT-0500 (Central Daylight Time),405990.1999999881,A,gra,O,a,97,1,850.3999999761581,405139.8000000119,7091,WL,B,8.0
3,12.380000114440918,learn,47619.99988555908,Wed Mar 26 2025 16:02:31 GMT-0500 (Central Daylight Time),406356.89999997616,A,gras,O,s,324,1,1217.0999999642372,405139.8000000119,7091,WL,B,8.0
3,12.563000202178955,learn,47436.999797821045,Wed Mar 26 2025 16:02:31 GMT-0500 (Central Daylight Time),406540.09999996424,A,grass,O,s,144,1,1400.2999999523163,405139.8000000119,7091,WL,B,8.0
3,12.745000123977661,learn,47254.99987602234,Wed Mar 26 2025 16:02:31 GMT-0500 (Central Daylight Time),406722.39999997616,A,grassenter,O,enter,146,1,1582.5999999642372,405139.8000000119,7091,WL,B,8.0
3,12.979000091552734,learn,47020.999908447266,Wed Mar 26 2025 16:02:31 GMT-0500 (Central Daylight Time),406956.5,A,a,O,a,211,1,233.9000000357628,406722.59999996424,7091,WL,B,9.0
3,13.078999996185303,learn,46921.0000038147,Wed Mar 26 2025 16:02:31 GMT-0500 (Central Daylight Time),407056.6999999881,A,ar,O,r,72,1,334.10000002384186,406722.59999996424,7091,WL,B,9.0
3,13.34600019454956,learn,46653.99980545044,Wed Mar 26 2025 16:02:31 GMT-0500 (Central Daylight Time),407323.3000000119,A,arm,O,m,226,1,600.7000000476837,406722.59999996424,7091,WL,B,9.0
3,13.778000116348267,learn,46221.99988365173,Wed Mar 26 2025 16:02:31 GMT-0500 (Central Daylight Time),407755.39999997616,A,armenter,O,enter,406,1,1032.800000011921,406722.59999996424,7091,WL,B,9.0
3,14.546000003814697,learn,45453.9999961853,Wed Mar 26 2025 16:02:31 GMT-0500 (Central Daylight Time),408522.6999999881,A,p,O,p,755,1,767.1000000238419,407755.59999996424,7091,WL,B,10.0
3,14.662000179290771,learn,45337.99982070923,Wed Mar 26 2025 16:02:31 GMT-0500 (Central Daylight Time),408639.1999999881,A,pi,O,i,91,1,883.6000000238419,407755.59999996424,7091,WL,B,10.0
3,14.861999988555908,learn,45138.00001144409,Wed Mar 26 2025 16:02:31 GMT-0500 (Central Daylight Time),408839.3000000119,A,pip,O,p,168,1,1083.7000000476837,407755.59999996424,7091,WL,B,10.0
3,15.229000091552734,learn,44770.999908447266,Wed Mar 26 2025 16:02:31 GMT-0500 (Central Daylight Time),409205.89999997616,A,pipe,O,e,330,1,1450.300000011921,407755.59999996424,7091,WL,B,10.0
3,15.544000148773193,learn,44455.99985122681,Wed Mar 26 2025 16:02:31 GMT-0500 (Central Daylight Time),409521.5,A,pipeenter,O,enter,277,1,1765.9000000357628,407755.59999996424,7091,WL,B,10.0
3,21.926000118255615,learn,38073.999881744385,Wed Mar 26 2025 16:02:31 GMT-0500 (Central Daylight Time),415903.59999996424,A,s,O,s,6373,1,6381.899999976158,409521.6999999881,7091,WL,B,11.0
3,22.177000045776367,learn,37822.99995422363,Wed Mar 26 2025 16:02:31 GMT-0500 (Central Daylight Time),416153.89999997616,A,st,O,t,216,1,6632.199999988079,409521.6999999881,7091,WL,B,11.0
3,22.326000213623047,learn,37673.99978637695,Wed Mar 26 2025 16:02:31 GMT-0500 (Central Daylight Time),416303.3000000119,A,sta,O,a,112,1,6781.600000023842,409521.6999999881,7091,WL,B,11.0
3,22.409000158309937,learn,37590.99984169006,Wed Mar 26 2025 16:02:31 GMT-0500 (Central Daylight Time),416386.0,A,star,O,r,48,1,6864.300000011921,409521.6999999881,7091,WL,B,11.0
3,22.64300012588501,learn,37356.99987411499,Wed Mar 26 2025 16:02:31 GMT-0500 (Central Daylight Time),416620.3000000119,A,starenter,O,enter,205,1,7098.600000023842,409521.6999999881,7091,WL,B,11.0
3,26.04200005531311,learn,33957.99994468689,Wed Mar 26 2025 16:02:31 GMT-0500 (Central Daylight Time),420018.89999997616,A,s,O,s,3385,1,3398.399999976158,416620.5,7091,WL,B,12.0
3,26.139000177383423,learn,33860.99982261658,Wed Mar 26 2025 16:02:31 GMT-0500 (Central Daylight Time),420116.39999997616,A,sk,O,k,47,1,3495.899999976158,416620.5,7091,WL,B,12.0
3,26.342000007629395,learn,33657.999992370605,Wed Mar 26 2025 16:02:31 GMT-0500 (Central Daylight Time),420319.0,A,ski,O,i,177,1,3698.5,416620.5,7091,WL,B,12.0
3,26.45800018310547,learn,33541.99981689453,Wed Mar 26 2025 16:02:31 GMT-0500 (Central Daylight Time),420434.89999997616,A,skin,O,n,82,1,3814.399999976158,416620.5,7091,WL,B,12.0
3,26.79100012779236,learn,33208.99987220764,Wed Mar 26 2025 16:02:31 GMT-0500 (Central Daylight Time),420767.6999999881,A,skinenter,O,enter,308,1,4147.199999988079,416620.5,7091,WL,B,12.0
3,35.1560001373291,learn,24843.9998626709,Wed Mar 26 2025 16:02:31 GMT-0500 (Central Daylight Time),429132.8000000119,A,s,O,s,8343,1,8364.800000011921,420768.0,7091,WL,B,13.0
3,35.23900008201599,learn,24760.99991798401,Wed Mar 26 2025 16:02:31 GMT-0500 (Central Daylight Time),429215.39999997616,A,sk,O,k,49,1,8447.399999976158,420768.0,7091,WL,B,13.0
3,35.455000162124634,learn,24544.999837875366,Wed Mar 26 2025 16:02:31 GMT-0500 (Central Daylight Time),429431.8000000119,A,ski,O,i,198,1,8663.800000011921,420768.0,7091,WL,B,13.0
3,35.621999979019165,learn,24378.000020980835,Wed Mar 26 2025 16:02:31 GMT-0500 (Central Daylight Time),429598.89999997616,A,skin,O,n,151,1,8830.899999976158,420768.0,7091,WL,B,13.0
3,35.97100019454956,learn,24028.99980545044,Wed Mar 26 2025 16:02:31 GMT-0500 (Central Daylight Time),429948.0,A,skinenter,O,enter,322,1,9180.0,420768.0,7091,WL,B,13.0
3,38.98800015449524,learn,21011.99984550476,Wed Mar 26 2025 16:02:31 GMT-0500 (Central Daylight Time),432964.59999996424,A,a,O,a,3002,1,3016.2999999523163,429948.3000000119,7091,WL,B,14.0
3,39.13800001144409,learn,20861.99998855591,Wed Mar 26 2025 16:02:31 GMT-0500 (Central Daylight Time),433114.6999999881,A,ar,O,r,110,1,3166.399999976158,429948.3000000119,7091,WL,B,14.0
3,39.23699998855591,learn,20763.00001144409,Wed Mar 26 2025 16:02:31 GMT-0500 (Central Daylight Time),433214.1999999881,A,arm,O,m,73,1,3265.899999976158,429948.3000000119,7091,WL,B,14.0
3,39.57100009918213,learn,20428.99990081787,Wed Mar 26 2025 16:02:31 GMT-0500 (Central Daylight Time),433548.0,A,armenter,O,enter,293,1,3599.699999988079,429948.3000000119,7091,WL,B,14.0
3,59.96399998664856,learn,36.00001335144043,Wed Mar 26 2025 16:02:31 GMT-0500 (Central Daylight Time),453941.09999996424,A,f,O,f,20379,1,20392.799999952316,433548.3000000119,7091,WL,B,15.0
3,60.03700017929077,learn,-37.000179290771484,Wed Mar 26 2025 16:02:31 GMT-0500 (Central Daylight Time),454013.6999999881,A,fNone,O,None,50,1,20465.399999976158,433548.3000000119,7091,WL,B,15.0
4,0.9500000476837158,learn,59049.999952316284,Wed Mar 26 2025 16:02:31 GMT-0500 (Central Daylight Time),521352.5,A,c,O,c,922,1,949.5,520403.0,7091,WL,B,1.0
4,1.0329999923706055,learn,58967.000007629395,Wed Mar 26 2025 16:02:31 GMT-0500 (Central Daylight Time),521434.8000000119,A,cl,O,l,46,1,1031.800000011921,520403.0,7091,WL,B,1.0
4,1.2669999599456787,learn,58733.00004005432,Wed Mar 26 2025 16:02:31 GMT-0500 (Central Daylight Time),521669.5,A,clo,O,o,223,1,1266.5,520403.0,7091,WL,B,1.0
4,1.4489998817443848,learn,58551.000118255615,Wed Mar 26 2025 16:02:31 GMT-0500 (Central Daylight Time),521851.8000000119,A,cloc,O,c,141,1,1448.800000011921,520403.0,7091,WL,B,1.0
4,1.565999984741211,learn,58434.00001525879,Wed Mar 26 2025 16:02:31 GMT-0500 (Central Daylight Time),521968.0,A,clock,O,k,82,1,1565.0,520403.0,7091,WL,B,1.0
4,1.8489999771118164,learn,58151.00002288818,Wed Mar 26 2025 16:02:31 GMT-0500 (Central Daylight Time),522251.09999996424,A,clockenter,O,enter,266,1,1848.0999999642372,520403.0,7091,WL,B,1.0
4,2.132999897003174,learn,57867.000102996826,Wed Mar 26 2025 16:02:31 GMT-0500 (Central Daylight Time),522535.1999999881,A,s,O,s,267,1,283.80000001192093,522251.39999997616,7091,WL,B,2.0
4,2.4489998817443848,learn,57551.000118255615,Wed Mar 26 2025 16:02:31 GMT-0500 (Central Daylight Time),522851.8000000119,A,sk,O,k,283,1,600.4000000357628,522251.39999997616,7091,WL,B,2.0
4,2.683000087738037,learn,57316.99991226196,Wed Mar 26 2025 16:02:31 GMT-0500 (Central Daylight Time),523085.09999996424,A,ski,O,i,203,1,833.6999999880791,522251.39999997616,7091,WL,B,2.0
4,2.7990000247955322,learn,57200.99997520447,Wed Mar 26 2025 16:02:31 GMT-0500 (Central Daylight Time),523201.8000000119,A,skin,O,n,86,1,950.4000000357628,522251.39999997616,7091,WL,B,2.0
4,3.0820000171661377,learn,56917.99998283386,Wed Mar 26 2025 16:02:31 GMT-0500 (Central Daylight Time),523484.0,A,skinenter,O,enter,248,1,1232.6000000238419,522251.39999997616,7091,WL,B,2.0
4,3.3320000171661377,learn,56667.99998283386,Wed Mar 26 2025 16:02:31 GMT-0500 (Central Daylight Time),523734.6999999881,A,f,O,f,242,1,250.39999997615814,523484.3000000119,7091,WL,B,3.0
4,3.4649999141693115,learn,56535.00008583069,Wed Mar 26 2025 16:02:31 GMT-0500 (Central Daylight Time),523867.8000000119,A,fi,O,i,100,1,383.5,523484.3000000119,7091,WL,B,3.0
4,3.6659998893737793,learn,56334.00011062622,Wed Mar 26 2025 16:02:31 GMT-0500 (Central Daylight Time),524068.1999999881,A,fir,O,r,175,1,583.8999999761581,523484.3000000119,7091,WL,B,3.0
4,3.7319998741149902,learn,56268.00012588501,Wed Mar 26 2025 16:02:31 GMT-0500 (Central Daylight Time),524134.0,A,fire,O,e,36,1,649.6999999880791,523484.3000000119,7091,WL,B,3.0
4,4.230999946594238,learn,55769.00005340576,Wed Mar 26 2025 16:02:31 GMT-0500 (Central Daylight Time),524633.5,A,fireenter,O,enter,481,1,1149.199999988079,523484.3000000119,7091,WL,B,3.0
4,4.497999906539917,learn,55502.00009346008,Wed Mar 26 2025 16:02:31 GMT-0500 (Central Daylight Time),524900.3999999762,A,s,O,s,259,1,266.5999999642372,524633.8000000119,7091,WL,B,4.0
4,4.680999994277954,learn,55319.000005722046,Wed Mar 26 2025 16:02:31 GMT-0500 (Central Daylight Time),525083.3999999762,A,st,O,t,167,1,449.5999999642372,524633.8000000119,7091,WL,B,4.0
4,4.914999961853027,learn,55085.00003814697,Wed Mar 26 2025 16:02:31 GMT-0500 (Central Daylight Time),525317.8000000119,A,str,O,r,226,1,684.0,524633.8000000119,7091,WL,B,4.0
4,5.299000024795532,learn,54700.99997520447,Wed Mar 26 2025 16:02:31 GMT-0500 (Central Daylight Time),525701.3000000119,A,stre,O,e,358,1,1067.5,524633.8000000119,7091,WL,B,4.0
4,5.514999866485596,learn,54485.000133514404,Wed Mar 26 2025 16:02:31 GMT-0500 (Central Daylight Time),525917.5,A,stree,O,e,185,1,1283.699999988079,524633.8000000119,7091,WL,B,4.0
4,5.865000009536743,learn,54134.99999046326,Wed Mar 26 2025 16:02:31 GMT-0500 (Central Daylight Time),526267.5,A,street,O,t,310,1,1633.699999988079,524633.8000000119,7091,WL,B,4.0
4,6.096999883651733,learn,53903.00011634827,Wed Mar 26 2025 16:02:31 GMT-0500 (Central Daylight Time),526499.6999999881,A,streetenter,O,enter,201,1,1865.8999999761581,524633.8000000119,7091,WL,B,4.0
4,6.365000009536743,learn,53634.99999046326,Wed Mar 26 2025 16:02:31 GMT-0500 (Central Daylight Time),526767.1999999881,A,g,O,g,250,1,267.30000001192093,526499.8999999762,7091,WL,B,5.0
4,6.581000089645386,learn,53418.999910354614,Wed Mar 26 2025 16:02:31 GMT-0500 (Central Daylight Time),526983.6999999881,A,gr,O,r,187,1,483.80000001192093,526499.8999999762,7091,WL,B,5.0
4,6.7149999141693115,learn,53285.00008583069,Wed Mar 26 2025 16:02:31 GMT-0500 (Central Daylight Time),527117.0999999642,A,gra,O,a,100,1,617.1999999880791,526499.8999999762,7091,WL,B,5.0
4,6.931999921798706,learn,53068.000078201294,Wed Mar 26 2025 16:02:31 GMT-0500 (Central Daylight Time),527333.8999999762,A,gras,O,s,190,1,834.0,526499.8999999762,7091,WL,B,5.0
4,7.115000009536743,learn,52884.99999046326,Wed Mar 26 2025 16:02:31 GMT-0500 (Central Daylight Time),527516.8999999762,A,grass,O,s,147,1,1017.0,526499.8999999762,7091,WL,B,5.0
4,7.297999858856201,learn,52702.0001411438,Wed Mar 26 2025 16:02:31 GMT-0500 (Central Daylight Time),527700.3000000119,A,grassenter,O,enter,139,1,1200.4000000357628,526499.8999999762,7091,WL,B,5.0
4,8.21399998664856,learn,51786.00001335144,Wed Mar 26 2025 16:02:31 GMT-0500 (Central Daylight Time),528616.3999999762,A,p,O,p,906,1,915.8000000119209,527700.5999999642,7091,WL,B,6.0
4,8.346999883651733,learn,51653.00011634827,Wed Mar 26 2025 16:02:31 GMT-0500 (Central Daylight Time),528749.6999999881,A,pu,O,u,97,1,1049.1000000238419,527700.5999999642,7091,WL,B,6.0
4,8.63100004196167,learn,51368.99995803833,Wed Mar 26 2025 16:02:31 GMT-0500 (Central Daylight Time),529032.8999999762,A,pup,O,p,251,1,1332.300000011921,527700.5999999642,7091,WL,B,6.0
4,8.846999883651733,learn,51153.00011634827,Wed Mar 26 2025 16:02:31 GMT-0500 (Central Daylight Time),529249.8000000119,A,pupi,O,i,182,1,1549.2000000476837,527700.5999999642,7091,WL,B,6.0
4,9.081000089645386,learn,50918.999910354614,Wed Mar 26 2025 16:02:31 GMT-0500 (Central Daylight Time),529482.8999999762,A,pupil,O,l,201,1,1782.300000011921,527700.5999999642,7091,WL,B,6.0
4,9.395999908447266,learn,50604.000091552734,Wed Mar 26 2025 16:02:31 GMT-0500 (Central Daylight Time),529798.5999999642,A,pupilenter,O,enter,284,1,2098.0,527700.5999999642,7091,WL,B,6.0
4,9.930999994277954,learn,50069.000005722046,Wed Mar 26 2025 16:02:31 GMT-0500 (Central Daylight Time),530333.5,A,p,O,p,528,1,534.6999999880791,529798.8000000119,7091,WL,B,7.0
4,10.19700002670288,learn,49802.99997329712,Wed Mar 26 2025 16:02:31 GMT-0500 (Central Daylight Time),530599.3000000119,A,pi,O,i,229,1,800.5,529798.8000000119,7091,WL,B,7.0
4,10.746999979019165,learn,49253.000020980835,Wed Mar 26 2025 16:02:31 GMT-0500 (Central Daylight Time),531149.3000000119,A,pip,O,p,516,1,1350.5,529798.8000000119,7091,WL,B,7.0
4,10.879999876022339,learn,49120.00012397766,Wed Mar 26 2025 16:02:31 GMT-0500 (Central Daylight Time),531282.3999999762,A,pipe,O,e,93,1,1483.5999999642372,529798.8000000119,7091,WL,B,7.0
4,11.246000051498413,learn,48753.99994850159,Wed Mar 26 2025 16:02:31 GMT-0500 (Central Daylight Time),531648.0,A,pipeenter,O,enter,335,1,1849.199999988079,529798.8000000119,7091,WL,B,7.0
4,11.54699993133545,learn,48453.00006866455,Wed Mar 26 2025 16:02:31 GMT-0500 (Central Daylight Time),531949.0999999642,A,w,O,w,294,1,300.89999997615814,531648.1999999881,7091,WL,B,8.0
4,11.746000051498413,learn,48253.99994850159,Wed Mar 26 2025 16:02:31 GMT-0500 (Central Daylight Time),532148.8000000119,A,wi,O,i,166,1,500.60000002384186,531648.1999999881,7091,WL,B,8.0
4,11.928999900817871,learn,48071.00009918213,Wed Mar 26 2025 16:02:31 GMT-0500 (Central Daylight Time),532331.8000000119,A,wif,O,f,144,1,683.6000000238419,531648.1999999881,7091,WL,B,8.0
4,12.062999963760376,learn,47937.000036239624,Wed Mar 26 2025 16:02:31 GMT-0500 (Central Daylight Time),532465.3000000119,A,wife,O,e,107,1,817.1000000238419,531648.1999999881,7091,WL,B,8.0
4,12.428999900817871,learn,47571.00009918213,Wed Mar 26 2025 16:02:31 GMT-0500 (Central Daylight Time),532830.8999999762,A,wifeenter,O,enter,335,1,1182.699999988079,531648.1999999881,7091,WL,B,8.0
4,12.779000043869019,learn,47220.99995613098,Wed Mar 26 2025 16:02:31 GMT-0500 (Central Daylight Time),533181.0999999642,A,c,O,c,334,1,349.89999997615814,532831.1999999881,7091,WL,B,9.0
4,12.979000091552734,learn,47020.999908447266,Wed Mar 26 2025 16:02:31 GMT-0500 (Central Daylight Time),533381.5999999642,A,ca,O,a,179,1,550.3999999761581,532831.1999999881,7091,WL,B,9.0
4,13.211999893188477,learn,46788.00010681152,Wed Mar 26 2025 16:02:31 GMT-0500 (Central Daylight Time),533614.8000000119,A,cab,O,b,208,1,783.6000000238419,532831.1999999881,7091,WL,B,9.0
4,13.395999908447266,learn,46604.000091552734,Wed Mar 26 2025 16:02:31 GMT-0500 (Central Daylight Time),533798.5,A,cabi,O,i,149,1,967.3000000119209,532831.1999999881,7091,WL,B,9.0
4,13.496000051498413,learn,46503.99994850159,Wed Mar 26 2025 16:02:31 GMT-0500 (Central Daylight Time),533897.8000000119,A,cabin,O,n,61,1,1066.6000000238419,532831.1999999881,7091,WL,B,9.0
4,13.92799997329712,learn,46072.00002670288,Wed Mar 26 2025 16:02:31 GMT-0500 (Central Daylight Time),534330.3000000119,A,cabinenter,O,enter,408,1,1499.1000000238419,532831.1999999881,7091,WL,B,9.0
4,14.26200008392334,learn,45737.99991607666,Wed Mar 26 2025 16:02:31 GMT-0500 (Central Daylight Time),534664.5999999642,A,l,O,l,324,1,334.0,534330.5999999642,7091,WL,B,10.0
4,14.411999940872192,learn,45588.00005912781,Wed Mar 26 2025 16:02:31 GMT-0500 (Central Daylight Time),534814.5999999642,A,la,O,a,115,1,484.0,534330.5999999642,7091,WL,B,10.0
4,14.84500002861023,learn,45154.99997138977,Wed Mar 26 2025 16:02:31 GMT-0500 (Central Daylight Time),535247.8999999762,A,lak,O,k,397,1,917.3000000119209,534330.5999999642,7091,WL,B,10.0
4,15.01200008392334,learn,44987.99991607666,Wed Mar 26 2025 16:02:31 GMT-0500 (Central Daylight Time),535414.1999999881,A,lake,O,e,138,1,1083.6000000238419,534330.5999999642,7091,WL,B,10.0
4,15.42799997329712,learn,44572.00002670288,Wed Mar 26 2025 16:02:31 GMT-0500 (Central Daylight Time),535829.8999999762,A,lakeenter,O,enter,388,1,1499.300000011921,534330.5999999642,7091,WL,B,10.0
4,15.961999893188477,learn,44038.00010681152,Wed Mar 26 2025 16:02:31 GMT-0500 (Central Daylight Time),536364.1999999881,A,c,O,c,519,1,533.8999999761581,535830.3000000119,7091,WL,B,11.0
4,16.07800006866455,learn,43921.99993133545,Wed Mar 26 2025 16:02:31 GMT-0500 (Central Daylight Time),536480.0,A,cl,O,l,77,1,649.6999999880791,535830.3000000119,7091,WL,B,11.0
4,16.277999877929688,learn,43722.00012207031,Wed Mar 26 2025 16:02:31 GMT-0500 (Central Daylight Time),536680.5999999642,A,clo,O,o,178,1,850.2999999523163,535830.3000000119,7091,WL,B,11.0
4,16.444999933242798,learn,43555.0000667572,Wed Mar 26 2025 16:02:31 GMT-0500 (Central Daylight Time),536847.0999999642,A,cloc,O,c,139,1,1016.7999999523163,535830.3000000119,7091,WL,B,11.0
4,16.57800006866455,learn,43421.99993133545,Wed Mar 26 2025 16:02:31 GMT-0500 (Central Daylight Time),536980.3000000119,A,clock,O,k,92,1,1150.0,535830.3000000119,7091,WL,B,11.0
4,16.877000093460083,learn,43122.99990653992,Wed Mar 26 2025 16:02:31 GMT-0500 (Central Daylight Time),537279.5999999642,A,clockenter,O,enter,268,1,1449.2999999523163,535830.3000000119,7091,WL,B,11.0
4,18.611000061035156,learn,41388.999938964844,Wed Mar 26 2025 16:02:31 GMT-0500 (Central Daylight Time),539013.1999999881,A,a,O,a,1719,1,1733.3999999761581,537279.8000000119,7091,WL,B,12.0
4,18.727999925613403,learn,41272.0000743866,Wed Mar 26 2025 16:02:31 GMT-0500 (Central Daylight Time),539129.8000000119,A,ar,O,r,78,1,1850.0,537279.8000000119,7091,WL,B,12.0
4,18.8439998626709,learn,41156.0001373291,Wed Mar 26 2025 16:02:31 GMT-0500 (Central Daylight Time),539246.3000000119,A,arm,O,m,89,1,1966.5,537279.8000000119,7091,WL,B,12.0
4,19.127000093460083,learn,40872.99990653992,Wed Mar 26 2025 16:02:31 GMT-0500 (Central Daylight Time),539528.8000000119,A,armenter,O,enter,243,1,2249.0,537279.8000000119,7091,WL,B,12.0
4,22.66000008583069,learn,37339.99991416931,Wed Mar 26 2025 16:02:31 GMT-0500 (Central Daylight Time),543061.8000000119,A,s,O,s,3525,1,3532.800000011921,539529.0,7091,WL,B,13.0
4,22.842999935150146,learn,37157.00006484985,Wed Mar 26 2025 16:02:31 GMT-0500 (Central Daylight Time),543245.3000000119,A,st,O,t,156,1,3716.300000011921,539529.0,7091,WL,B,13.0
4,22.993000030517578,learn,37006.99996948242,Wed Mar 26 2025 16:02:31 GMT-0500 (Central Daylight Time),543395.0999999642,A,sta,O,a,118,1,3866.099999964237,539529.0,7091,WL,B,13.0
4,23.092999935150146,learn,36907.00006484985,Wed Mar 26 2025 16:02:31 GMT-0500 (Central Daylight Time),543495.3999999762,A,star,O,r,64,1,3966.399999976158,539529.0,7091,WL,B,13.0
4,23.358999967575073,learn,36641.00003242493,Wed Mar 26 2025 16:02:31 GMT-0500 (Central Daylight Time),543760.8000000119,A,starenter,O,enter,234,1,4231.800000011921,539529.0,7091,WL,B,13.0
4,37.0220000743866,learn,22977.999925613403,Wed Mar 26 2025 16:02:31 GMT-0500 (Central Daylight Time),557423.8000000119,A,c,O,c,13654,1,13662.800000011921,543761.0,7091,WL,B,14.0
4,37.42199993133545,learn,22578.00006866455,Wed Mar 26 2025 16:02:31 GMT-0500 (Central Daylight Time),557823.5999999642,A,ca,O,a,370,1,14062.599999964237,543761.0,7091,WL,B,14.0
4,37.67199993133545,learn,22328.00006866455,Wed Mar 26 2025 16:02:31 GMT-0500 (Central Daylight Time),558073.5999999642,A,cab,O,b,220,1,14312.599999964237,543761.0,7091,WL,B,14.0
4,37.83800005912781,learn,22161.999940872192,Wed Mar 26 2025 16:02:31 GMT-0500 (Central Daylight Time),558240.0999999642,A,cabi,O,i,128,1,14479.099999964237,543761.0,7091,WL,B,14.0
4,37.93899989128113,learn,22061.000108718872,Wed Mar 26 2025 16:02:31 GMT-0500 (Central Daylight Time),558340.8000000119,A,cabin,O,n,75,1,14579.800000011921,543761.0,7091,WL,B,14.0
4,38.33800005912781,learn,21661.999940872192,Wed Mar 26 2025 16:02:31 GMT-0500 (Central Daylight Time),558740.0999999642,A,cabinenter,O,enter,360,1,14979.099999964237,543761.0,7091,WL,B,14.0
4,42.420000076293945,learn,17579.999923706055,Wed Mar 26 2025 16:02:31 GMT-0500 (Central Daylight Time),562822.1999999881,A,f,O,f,4066,1,4081.800000011921,558740.3999999762,7091,WL,B,15.0
4,42.58699989318848,learn,17413.000106811523,Wed Mar 26 2025 16:02:31 GMT-0500 (Central Daylight Time),562988.6999999881,A,fi,O,i,132,1,4248.300000011921,558740.3999999762,7091,WL,B,15.0
4,42.70300006866455,learn,17296.99993133545,Wed Mar 26 2025 16:02:31 GMT-0500 (Central Daylight Time),563105.1999999881,A,fir,O,r,80,1,4364.800000011921,558740.3999999762,7091,WL,B,15.0
4,42.80299997329712,learn,17197.00002670288,Wed Mar 26 2025 16:02:31 GMT-0500 (Central Daylight Time),563204.8999999762,A,fire,O,e,73,1,4464.5,558740.3999999762,7091,WL,B,15.0
4,43.01900005340576,learn,16980.99994659424,Wed Mar 26 2025 16:02:31 GMT-0500 (Central Daylight Time),563420.8000000119,A,fireenter,O,enter,187,1,4680.400000035763,558740.3999999762,7091,WL,B,15.0
5,1.0160000324249268,learn,60000.0,Wed Mar 26 2025 16:02:31 GMT-0500 (Central Daylight Time),637281.1999999881,A,c,O,c,989,1,1016.1000000238419,636265.0999999642,7091,WL,B,1.0
5,1.0820000171661377,learn,60000.0,Wed Mar 26 2025 16:02:31 GMT-0500 (Central Daylight Time),637346.6999999881,A,cl,O,l,30,1,1081.6000000238419,636265.0999999642,7091,WL,B,1.0
5,1.315000057220459,learn,60000.0,Wed Mar 26 2025 16:02:31 GMT-0500 (Central Daylight Time),637579.8000000119,A,clo,O,o,214,1,1314.7000000476837,636265.0999999642,7091,WL,B,1.0
5,1.4060001373291016,learn,60000.0,Wed Mar 26 2025 16:02:31 GMT-0500 (Central Daylight Time),637670.1999999881,A,cloc,O,c,83,1,1405.1000000238419,636265.0999999642,7091,WL,B,1.0
5,1.5150001049041748,learn,60000.0,Wed Mar 26 2025 16:02:31 GMT-0500 (Central Daylight Time),637779.5999999642,A,clock,O,k,102,1,1514.5,636265.0999999642,7091,WL,B,1.0
5,1.7990000247955322,learn,60000.0,Wed Mar 26 2025 16:02:31 GMT-0500 (Central Daylight Time),638063.0,A,clockenter,O,enter,265,1,1797.9000000357628,636265.0999999642,7091,WL,B,1.0
5,2.184000015258789,learn,60000.0,Wed Mar 26 2025 16:02:31 GMT-0500 (Central Daylight Time),638448.1999999881,A,f,O,f,375,1,384.89999997615814,638063.3000000119,7091,WL,B,2.0
5,2.315999984741211,learn,60000.0,Wed Mar 26 2025 16:02:31 GMT-0500 (Central Daylight Time),638580.5,A,fi,O,i,97,1,517.1999999880791,638063.3000000119,7091,WL,B,2.0
5,2.515000104904175,learn,60000.0,Wed Mar 26 2025 16:02:31 GMT-0500 (Central Daylight Time),638779.3999999762,A,fir,O,r,173,1,716.0999999642372,638063.3000000119,7091,WL,B,2.0
5,2.633000135421753,learn,60000.0,Wed Mar 26 2025 16:02:31 GMT-0500 (Central Daylight Time),638897.1999999881,A,fire,O,e,106,1,833.8999999761581,638063.3000000119,7091,WL,B,2.0
5,2.930999994277954,learn,60000.0,Wed Mar 26 2025 16:02:31 GMT-0500 (Central Daylight Time),639196.0,A,fireenter,O,enter,265,1,1132.699999988079,638063.3000000119,7091,WL,B,2.0
5,3.182000160217285,learn,60000.0,Wed Mar 26 2025 16:02:31 GMT-0500 (Central Daylight Time),639446.5999999642,A,s,O,s,242,1,250.39999997615814,639196.1999999881,7091,WL,B,3.0
5,3.3329999446868896,learn,60000.0,Wed Mar 26 2025 16:02:31 GMT-0500 (Central Daylight Time),639597.3999999762,A,sk,O,k,124,1,401.19999998807907,639196.1999999881,7091,WL,B,3.0
5,3.5320000648498535,learn,60000.0,Wed Mar 26 2025 16:02:31 GMT-0500 (Central Daylight Time),639796.8000000119,A,ski,O,i,166,1,600.6000000238419,639196.1999999881,7091,WL,B,3.0
5,3.615000009536743,learn,60000.0,Wed Mar 26 2025 16:02:31 GMT-0500 (Central Daylight Time),639879.3000000119,A,skin,O,n,54,1,683.1000000238419,639196.1999999881,7091,WL,B,3.0
5,3.947999954223633,learn,60000.0,Wed Mar 26 2025 16:02:31 GMT-0500 (Central Daylight Time),640212.3999999762,A,skinenter,O,enter,309,1,1016.1999999880791,639196.1999999881,7091,WL,B,3.0
5,4.264000177383423,learn,60000.0,Wed Mar 26 2025 16:02:31 GMT-0500 (Central Daylight Time),640528.8999999762,A,s,O,s,305,1,316.30000001192093,640212.5999999642,7091,WL,B,4.0
5,4.482000112533569,learn,60000.0,Wed Mar 26 2025 16:02:31 GMT-0500 (Central Daylight Time),640746.5,A,st,O,t,196,1,533.9000000357628,640212.5999999642,7091,WL,B,4.0
5,4.682000160217285,learn,60000.0,Wed Mar 26 2025 16:02:31 GMT-0500 (Central Daylight Time),640946.1999999881,A,str,O,r,171,1,733.6000000238419,640212.5999999642,7091,WL,B,4.0
5,4.814000129699707,learn,60000.0,Wed Mar 26 2025 16:02:31 GMT-0500 (Central Daylight Time),641079.0,A,stre,O,e,104,1,866.4000000357628,640212.5999999642,7091,WL,B,4.0
5,5.0980000495910645,learn,60000.0,Wed Mar 26 2025 16:02:31 GMT-0500 (Central Daylight Time),641363.0,A,stree,O,e,250,1,1150.4000000357628,640212.5999999642,7091,WL,B,4.0
5,5.2820000648498535,learn,60000.0,Wed Mar 26 2025 16:02:31 GMT-0500 (Central Daylight Time),641546.1999999881,A,street,O,t,149,1,1333.6000000238419,640212.5999999642,7091,WL,B,4.0
5,5.730999946594238,learn,60000.0,Wed Mar 26 2025 16:02:31 GMT-0500 (Central Daylight Time),641995.3000000119,A,streetenter,O,enter,435,1,1782.7000000476837,640212.5999999642,7091,WL,B,4.0
5,6.047000169754028,learn,60000.0,Wed Mar 26 2025 16:02:31 GMT-0500 (Central Daylight Time),642311.5999999642,A,g,O,g,306,1,316.0999999642372,641995.5,7091,WL,B,5.0
5,6.230999946594238,learn,60000.0,Wed Mar 26 2025 16:02:31 GMT-0500 (Central Daylight Time),642495.5999999642,A,gr,O,r,174,1,500.0999999642372,641995.5,7091,WL,B,5.0
5,6.364000082015991,learn,60000.0,Wed Mar 26 2025 16:02:31 GMT-0500 (Central Daylight Time),642628.3999999762,A,gra,O,a,104,1,632.8999999761581,641995.5,7091,WL,B,5.0
5,6.5970001220703125,learn,60000.0,Wed Mar 26 2025 16:02:31 GMT-0500 (Central Daylight Time),642862.0,A,gras,O,s,220,1,866.5,641995.5,7091,WL,B,5.0
5,6.7799999713897705,learn,60000.0,Wed Mar 26 2025 16:02:31 GMT-0500 (Central Daylight Time),643044.5,A,grass,O,s,166,1,1049.0,641995.5,7091,WL,B,5.0
5,7.013000011444092,learn,60000.0,Wed Mar 26 2025 16:02:31 GMT-0500 (Central Daylight Time),643278.0,A,grassenter,O,enter,218,1,1282.5,641995.5,7091,WL,B,5.0
5,7.764000177383423,learn,60000.0,Wed Mar 26 2025 16:02:31 GMT-0500 (Central Daylight Time),644029.0,A,p,O,p,744,1,750.8000000119209,643278.1999999881,7091,WL,B,6.0
5,7.896000146865845,learn,60000.0,Wed Mar 26 2025 16:02:31 GMT-0500 (Central Daylight Time),644160.8999999762,A,pu,O,u,92,1,882.6999999880791,643278.1999999881,7091,WL,B,6.0
5,8.064000129699707,learn,60000.0,Wed Mar 26 2025 16:02:31 GMT-0500 (Central Daylight Time),644328.3999999762,A,pup,O,p,150,1,1050.199999988079,643278.1999999881,7091,WL,B,6.0
5,8.264000177383423,learn,60000.0,Wed Mar 26 2025 16:02:31 GMT-0500 (Central Daylight Time),644528.1999999881,A,pupi,O,i,161,1,1250.0,643278.1999999881,7091,WL,B,6.0
5,8.52999997138977,learn,60000.0,Wed Mar 26 2025 16:02:31 GMT-0500 (Central Daylight Time),644794.0,A,pupil,O,l,233,1,1515.800000011921,643278.1999999881,7091,WL,B,6.0
5,8.763000011444092,learn,60000.0,Wed Mar 26 2025 16:02:31 GMT-0500 (Central Daylight Time),645027.5,A,pupilenter,O,enter,226,1,1749.300000011921,643278.1999999881,7091,WL,B,6.0
5,9.19700002670288,learn,60000.0,Wed Mar 26 2025 16:02:31 GMT-0500 (Central Daylight Time),645461.5,A,p,O,p,419,1,433.80000001192093,645027.6999999881,7091,WL,B,7.0
5,9.330000162124634,learn,60000.0,Wed Mar 26 2025 16:02:31 GMT-0500 (Central Daylight Time),645594.8999999762,A,pi,O,i,96,1,567.1999999880791,645027.6999999881,7091,WL,B,7.0
5,9.897000074386597,learn,60000.0,Wed Mar 26 2025 16:02:31 GMT-0500 (Central Daylight Time),646161.3000000119,A,pip,O,p,528,1,1133.6000000238419,645027.6999999881,7091,WL,B,7.0
5,10.114000082015991,learn,60000.0,Wed Mar 26 2025 16:02:31 GMT-0500 (Central Daylight Time),646378.0999999642,A,pipe,O,e,178,1,1350.3999999761581,645027.6999999881,7091,WL,B,7.0
5,10.462000131607056,learn,60000.0,Wed Mar 26 2025 16:02:31 GMT-0500 (Central Daylight Time),646726.8999999762,A,pipeenter,O,enter,311,1,1699.199999988079,645027.6999999881,7091,WL,B,7.0
5,11.02999997138977,learn,60000.0,Wed Mar 26 2025 16:02:31 GMT-0500 (Central Daylight Time),647294.1999999881,A,c,O,c,550,1,567.1000000238419,646727.0999999642,7091,WL,B,8.0
5,11.213000059127808,learn,60000.0,Wed Mar 26 2025 16:02:31 GMT-0500 (Central Daylight Time),647477.5999999642,A,ca,O,a,155,1,750.5,646727.0999999642,7091,WL,B,8.0
5,11.446000099182129,learn,60000.0,Wed Mar 26 2025 16:02:31 GMT-0500 (Central Daylight Time),647710.6999999881,A,cab,O,b,205,1,983.6000000238419,646727.0999999642,7091,WL,B,8.0
5,11.580000162124634,learn,60000.0,Wed Mar 26 2025 16:02:31 GMT-0500 (Central Daylight Time),647844.0999999642,A,cabi,O,i,96,1,1117.0,646727.0999999642,7091,WL,B,8.0
5,11.662000179290771,learn,60000.0,Wed Mar 26 2025 16:02:31 GMT-0500 (Central Daylight Time),647926.5999999642,A,cabin,O,n,45,1,1199.5,646727.0999999642,7091,WL,B,8.0
5,12.01200008392334,learn,60000.0,Wed Mar 26 2025 16:02:31 GMT-0500 (Central Daylight Time),648276.1999999881,A,cabinenter,O,enter,325,1,1549.1000000238419,646727.0999999642,7091,WL,B,8.0
5,12.378999948501587,learn,60000.0,Wed Mar 26 2025 16:02:31 GMT-0500 (Central Daylight Time),648643.6999999881,A,l,O,l,346,1,367.19999998807907,648276.5,7091,WL,B,9.0
5,12.529000043869019,learn,60000.0,Wed Mar 26 2025 16:02:31 GMT-0500 (Central Daylight Time),648793.6999999881,A,la,O,a,111,1,517.1999999880791,648276.5,7091,WL,B,9.0
5,12.763000011444092,learn,60000.0,Wed Mar 26 2025 16:02:31 GMT-0500 (Central Daylight Time),649027.3000000119,A,lak,O,k,194,1,750.8000000119209,648276.5,7091,WL,B,9.0
5,12.946000099182129,learn,60000.0,Wed Mar 26 2025 16:02:31 GMT-0500 (Central Daylight Time),649210.3000000119,A,lake,O,e,154,1,933.8000000119209,648276.5,7091,WL,B,9.0
5,13.16100001335144,learn,60000.0,Wed Mar 26 2025 16:02:31 GMT-0500 (Central Daylight Time),649426.0,A,lakeenter,O,enter,173,1,1149.5,648276.5,7091,WL,B,9.0
5,14.695000171661377,learn,60000.0,Wed Mar 26 2025 16:02:31 GMT-0500 (Central Daylight Time),650959.3000000119,A,s,O,s,1524,1,1533.1000000238419,649426.1999999881,7091,WL,B,10.0
5,14.945000171661377,learn,60000.0,Wed Mar 26 2025 16:02:31 GMT-0500 (Central Daylight Time),651209.6999999881,A,st,O,t,220,1,1783.5,649426.1999999881,7091,WL,B,10.0
5,15.128000020980835,learn,60000.0,Wed Mar 26 2025 16:02:31 GMT-0500 (Central Daylight Time),651392.5,A,str,O,r,155,1,1966.300000011921,649426.1999999881,7091,WL,B,10.0
5,15.228000164031982,learn,60000.0,Wed Mar 26 2025 16:02:31 GMT-0500 (Central Daylight Time),651492.8999999762,A,stre,O,e,67,1,2066.699999988079,649426.1999999881,7091,WL,B,10.0
5,15.462000131607056,learn,60000.0,Wed Mar 26 2025 16:02:31 GMT-0500 (Central Daylight Time),651726.3000000119,A,stree,O,e,204,1,2300.100000023842,649426.1999999881,7091,WL,B,10.0
5,15.628000020980835,learn,60000.0,Wed Mar 26 2025 16:02:31 GMT-0500 (Central Daylight Time),651893.0,A,street,O,t,126,1,2466.800000011921,649426.1999999881,7091,WL,B,10.0
5,15.809999942779541,learn,60000.0,Wed Mar 26 2025 16:02:31 GMT-0500 (Central Daylight Time),652075.0,A,streetenter,O,enter,140,1,2648.800000011921,649426.1999999881,7091,WL,B,10.0
5,16.694000005722046,learn,60000.0,Wed Mar 26 2025 16:02:31 GMT-0500 (Central Daylight Time),652958.6999999881,A,w,O,w,875,1,883.3999999761581,652075.3000000119,7091,WL,B,11.0
5,16.794000148773193,learn,60000.0,Wed Mar 26 2025 16:02:31 GMT-0500 (Central Daylight Time),653059.0,A,wi,O,i,63,1,983.6999999880791,652075.3000000119,7091,WL,B,11.0
5,16.978000164031982,learn,60000.0,Wed Mar 26 2025 16:02:31 GMT-0500 (Central Daylight Time),653242.1999999881,A,wif,O,f,150,1,1166.8999999761581,652075.3000000119,7091,WL,B,11.0
5,17.111000061035156,learn,60000.0,Wed Mar 26 2025 16:02:31 GMT-0500 (Central Daylight Time),653375.3999999762,A,wife,O,e,105,1,1300.0999999642372,652075.3000000119,7091,WL,B,11.0
5,17.243000030517578,learn,60000.0,Wed Mar 26 2025 16:02:31 GMT-0500 (Central Daylight Time),653507.8000000119,A,wifeenter,O,enter,106,1,1432.5,652075.3000000119,7091,WL,B,11.0
5,17.511000156402588,learn,60000.0,Wed Mar 26 2025 16:02:31 GMT-0500 (Central Daylight Time),653775.3000000119,A,a,O,a,258,1,267.30000001192093,653508.0,7091,WL,B,12.0
5,17.64400005340576,learn,60000.0,Wed Mar 26 2025 16:02:31 GMT-0500 (Central Daylight Time),653908.8999999762,A,ar,O,r,99,1,400.89999997615814,653508.0,7091,WL,B,12.0
5,17.8270001411438,learn,60000.0,Wed Mar 26 2025 16:02:31 GMT-0500 (Central Daylight Time),654091.6999999881,A,arm,O,m,150,1,583.6999999880791,653508.0,7091,WL,B,12.0
5,18.093000173568726,learn,60000.0,Wed Mar 26 2025 16:02:31 GMT-0500 (Central Daylight Time),654357.5999999642,A,armenter,O,enter,235,1,849.5999999642372,653508.0,7091,WL,B,12.0
5,21.30999994277954,learn,60000.0,Wed Mar 26 2025 16:02:31 GMT-0500 (Central Daylight Time),657574.1999999881,A,b,O,b,3210,1,3216.300000011921,654357.8999999762,7091,WL,B,13.0
5,21.426000118255615,learn,60000.0,Wed Mar 26 2025 16:02:31 GMT-0500 (Central Daylight Time),657690.8000000119,A,bu,O,u,77,1,3332.900000035763,654357.8999999762,7091,WL,B,13.0
5,21.575999975204468,learn,60000.0,Wed Mar 26 2025 16:02:31 GMT-0500 (Central Daylight Time),657841.0999999642,A,bur,O,r,111,1,3483.199999988079,654357.8999999762,7091,WL,B,13.0
5,21.693000078201294,learn,60000.0,Wed Mar 26 2025 16:02:31 GMT-0500 (Central Daylight Time),657957.3000000119,A,burn,O,n,90,1,3599.400000035763,654357.8999999762,7091,WL,B,13.0
5,21.9760000705719,learn,60000.0,Wed Mar 26 2025 16:02:31 GMT-0500 (Central Daylight Time),658239.6999999881,A,burnenter,O,enter,252,1,3881.800000011921,654357.8999999762,7091,WL,B,13.0
5,25.192000150680542,learn,60000.0,Wed Mar 26 2025 16:02:31 GMT-0500 (Central Daylight Time),661456.3000000119,A,s,O,s,3206,1,3216.400000035763,658239.8999999762,7091,WL,B,14.0
5,25.27999997138977,learn,60000.0,Wed Mar 26 2025 16:02:31 GMT-0500 (Central Daylight Time),661544.0999999642,A,sk,O,k,25,1,3304.199999988079,658239.8999999762,7091,WL,B,14.0
5,26.27500009536743,learn,60000.0,Wed Mar 26 2025 16:02:31 GMT-0500 (Central Daylight Time),662539.0,A,sky,O,y,973,1,4299.100000023842,658239.8999999762,7091,WL,B,14.0
5,26.641000032424927,learn,60000.0,Wed Mar 26 2025 16:02:31 GMT-0500 (Central Daylight Time),662904.8000000119,A,skyenter,O,enter,327,1,4664.900000035763,658239.8999999762,7091,WL,B,14.0
5,27.725000143051147,learn,60000.0,Wed Mar 26 2025 16:02:31 GMT-0500 (Central Daylight Time),663989.5,A,c,O,c,1078,1,1084.4000000357628,662905.0999999642,7091,WL,B,15.0
5,28.591000080108643,learn,60000.0,Wed Mar 26 2025 16:02:31 GMT-0500 (Central Daylight Time),664855.0999999642,A,ca,O,a,836,1,1950.0,662905.0999999642,7091,WL,B,15.0
5,28.94099998474121,learn,60000.0,Wed Mar 26 2025 16:02:31 GMT-0500 (Central Daylight Time),665205.1999999881,A,cab,O,b,309,1,2300.100000023842,662905.0999999642,7091,WL,B,15.0
5,29.02400016784668,learn,60000.0,Wed Mar 26 2025 16:02:31 GMT-0500 (Central Daylight Time),665288.3000000119,A,cabi,O,i,54,1,2383.2000000476837,662905.0999999642,7091,WL,B,15.0
5,29.174000024795532,learn,60000.0,Wed Mar 26 2025 16:02:31 GMT-0500 (Central Daylight Time),665438.0999999642,A,cabin,O,n,127,1,2533.0,662905.0999999642,7091,WL,B,15.0
5,29.490000009536743,learn,60000.0,Wed Mar 26 2025 16:02:31 GMT-0500 (Central Daylight Time),665753.8999999762,A,cabinenter,O,enter,278,1,2848.800000011921,662905.0999999642,7091,WL,B,15.0
6,0.8840000629425049,distr,59115.999937057495,Wed Mar 26 2025 16:02:31 GMT-0500 (Central Daylight Time),749560.8000000119,B,c,O,c,858,1,883.6000000238419,748677.1999999881,7091,WL,B,1.0
6,1.0839998722076416,distr,58916.00012779236,Wed Mar 26 2025 16:02:31 GMT-0500 (Central Daylight Time),749760.5999999642,B,ce,O,e,160,1,1083.3999999761581,748677.1999999881,7091,WL,B,1.0
6,1.2669999599456787,distr,58733.00004005432,Wed Mar 26 2025 16:02:31 GMT-0500 (Central Daylight Time),749943.6999999881,B,cel,O,l,154,1,1266.5,748677.1999999881,7091,WL,B,1.0
6,1.4500000476837158,distr,58549.999952316284,Wed Mar 26 2025 16:02:31 GMT-0500 (Central Daylight Time),750126.5,B,cell,O,l,148,1,1449.300000011921,748677.1999999881,7091,WL,B,1.0
6,1.6989998817443848,distr,58301.000118255615,Wed Mar 26 2025 16:02:31 GMT-0500 (Central Daylight Time),750376.0,B,cellenter,O,enter,222,1,1698.800000011921,748677.1999999881,7091,WL,B,1.0
6,2.0169999599456787,distr,57983.00004005432,Wed Mar 26 2025 16:02:31 GMT-0500 (Central Daylight Time),750694.0,B,f,O,f,302,1,317.69999998807907,750376.3000000119,7091,WL,B,2.0
6,2.2170000076293945,distr,57782.999992370605,Wed Mar 26 2025 16:02:31 GMT-0500 (Central Daylight Time),750893.5,B,fr,O,r,173,1,517.1999999880791,750376.3000000119,7091,WL,B,2.0
6,2.3329999446868896,distr,57667.00005531311,Wed Mar 26 2025 16:02:31 GMT-0500 (Central Daylight Time),751010.1999999881,B,fri,O,i,87,1,633.8999999761581,750376.3000000119,7091,WL,B,2.0
6,2.431999921798706,distr,57568.000078201294,Wed Mar 26 2025 16:02:31 GMT-0500 (Central Daylight Time),751109.0999999642,B,frie,O,e,72,1,732.7999999523163,750376.3000000119,7091,WL,B,2.0
6,2.566999912261963,distr,57433.00008773804,Wed Mar 26 2025 16:02:31 GMT-0500 (Central Daylight Time),751243.3999999762,B,frien,O,n,117,1,867.0999999642372,750376.3000000119,7091,WL,B,2.0
6,2.7170000076293945,distr,57282.999992370605,Wed Mar 26 2025 16:02:31 GMT-0500 (Central Daylight Time),751394.1999999881,B,friend,O,d,112,1,1017.8999999761581,750376.3000000119,7091,WL,B,2.0
6,2.999000072479248,distr,57000.99992752075,Wed Mar 26 2025 16:02:31 GMT-0500 (Central Daylight Time),751675.3999999762,B,friendenter,O,enter,256,1,1299.0999999642372,750376.3000000119,7091,WL,B,2.0
6,3.7829999923706055,distr,56217.000007629395,Wed Mar 26 2025 16:02:31 GMT-0500 (Central Daylight Time),752459.8000000119,B,b,O,b,771,1,784.1000000238419,751675.6999999881,7091,WL,B,3.0
6,4.016999959945679,distr,55983.00004005432,Wed Mar 26 2025 16:02:31 GMT-0500 (Central Daylight Time),752693.3999999762,B,ba,O,a,208,1,1017.6999999880791,751675.6999999881,7091,WL,B,3.0
6,4.198999881744385,distr,55801.000118255615,Wed Mar 26 2025 16:02:31 GMT-0500 (Central Daylight Time),752876.1999999881,B,bay,O,y,148,1,1200.5,751675.6999999881,7091,WL,B,3.0
6,4.7159998416900635,distr,55284.00015830994,Wed Mar 26 2025 16:02:31 GMT-0500 (Central Daylight Time),753392.3999999762,B,ba,O,backspace,487,1,1716.699999988079,751675.6999999881,7091,WL,B,3.0
6,4.865999937057495,distr,55134.000062942505,Wed Mar 26 2025 16:02:31 GMT-0500 (Central Daylight Time),753542.5999999642,B,bab,O,b,123,1,1866.8999999761581,751675.6999999881,7091,WL,B,3.0
6,5.115999937057495,distr,54884.000062942505,Wed Mar 26 2025 16:02:31 GMT-0500 (Central Daylight Time),753792.5999999642,B,baby,O,y,220,1,2116.899999976158,751675.6999999881,7091,WL,B,3.0
6,5.480999946594238,distr,54519.00005340576,Wed Mar 26 2025 16:02:31 GMT-0500 (Central Daylight Time),754158.1999999881,B,babyenter,O,enter,342,1,2482.5,751675.6999999881,7091,WL,B,3.0
6,5.799000024795532,distr,54200.99997520447,Wed Mar 26 2025 16:02:31 GMT-0500 (Central Daylight Time),754475.5999999642,B,r,O,r,296,1,317.19999998807907,754158.3999999762,7091,WL,B,4.0
6,5.948999881744385,distr,54051.000118255615,Wed Mar 26 2025 16:02:31 GMT-0500 (Central Daylight Time),754625.5999999642,B,ro,O,o,120,1,467.19999998807907,754158.3999999762,7091,WL,B,4.0
6,6.164999961853027,distr,53835.00003814697,Wed Mar 26 2025 16:02:31 GMT-0500 (Central Daylight Time),754842.1999999881,B,roc,O,c,186,1,683.8000000119209,754158.3999999762,7091,WL,B,4.0
6,6.2820000648498535,distr,53717.99993515015,Wed Mar 26 2025 16:02:31 GMT-0500 (Central Daylight Time),754958.6999999881,B,rock,O,k,85,1,800.3000000119209,754158.3999999762,7091,WL,B,4.0
6,6.547999858856201,distr,53452.0001411438,Wed Mar 26 2025 16:02:31 GMT-0500 (Central Daylight Time),755224.5,B,rockenter,O,enter,232,1,1066.1000000238419,754158.3999999762,7091,WL,B,4.0
6,7.197999954223633,distr,52802.00004577637,Wed Mar 26 2025 16:02:31 GMT-0500 (Central Daylight Time),755874.8000000119,B,o,O,o,629,1,650.0,755224.8000000119,7091,WL,B,5.0
6,7.398000001907349,distr,52601.99999809265,Wed Mar 26 2025 16:02:31 GMT-0500 (Central Daylight Time),756075.1999999881,B,oc,O,c,168,1,850.3999999761581,755224.8000000119,7091,WL,B,5.0
6,7.7820000648498535,distr,52217.99993515015,Wed Mar 26 2025 16:02:31 GMT-0500 (Central Daylight Time),756458.3000000119,B,oce,O,e,352,1,1233.5,755224.8000000119,7091,WL,B,5.0
6,7.9649999141693115,distr,52035.00008583069,Wed Mar 26 2025 16:02:31 GMT-0500 (Central Daylight Time),756641.6999999881,B,ocea,O,a,155,1,1416.8999999761581,755224.8000000119,7091,WL,B,5.0
6,8.13100004196167,distr,51868.99995803833,Wed Mar 26 2025 16:02:31 GMT-0500 (Central Daylight Time),756808.3000000119,B,ocean,O,n,134,1,1583.5,755224.8000000119,7091,WL,B,5.0
6,8.447999954223633,distr,51552.00004577637,Wed Mar 26 2025 16:02:31 GMT-0500 (Central Daylight Time),757124.8999999762,B,oceanenter,O,enter,289,1,1900.0999999642372,755224.8000000119,7091,WL,B,5.0
6,8.714999914169312,distr,51285.00008583069,Wed Mar 26 2025 16:02:31 GMT-0500 (Central Daylight Time),757392.0999999642,B,c,O,c,249,1,266.89999997615814,757125.1999999881,7091,WL,B,6.0
6,8.930999994277954,distr,51069.000005722046,Wed Mar 26 2025 16:02:31 GMT-0500 (Central Daylight Time),757607.8000000119,B,ce,O,e,182,1,482.60000002384186,757125.1999999881,7091,WL,B,6.0
6,9.098000049591064,distr,50901.999950408936,Wed Mar 26 2025 16:02:31 GMT-0500 (Central Daylight Time),757774.6999999881,B,cel,O,l,136,1,649.5,757125.1999999881,7091,WL,B,6.0
6,9.280999898910522,distr,50719.00010108948,Wed Mar 26 2025 16:02:31 GMT-0500 (Central Daylight Time),757957.8999999762,B,cell,O,l,149,1,832.6999999880791,757125.1999999881,7091,WL,B,6.0
6,9.52999997138977,distr,50470.00002861023,Wed Mar 26 2025 16:02:31 GMT-0500 (Central Daylight Time),758206.8999999762,B,cellenter,O,enter,220,1,1081.699999988079,757125.1999999881,7091,WL,B,6.0
6,9.782000064849854,distr,50217.99993515015,Wed Mar 26 2025 16:02:31 GMT-0500 (Central Daylight Time),758458.8000000119,B,v,O,v,231,1,251.80000001192093,758207.0,7091,WL,B,7.0
6,9.947999954223633,distr,50052.00004577637,Wed Mar 26 2025 16:02:31 GMT-0500 (Central Daylight Time),758624.5999999642,B,vi,O,i,136,1,417.5999999642372,758207.0,7091,WL,B,7.0
6,10.13100004196167,distr,49868.99995803833,Wed Mar 26 2025 16:02:31 GMT-0500 (Central Daylight Time),758808.1999999881,B,vil,O,l,146,1,601.1999999880791,758207.0,7091,WL,B,7.0
6,10.313999891281128,distr,49686.00010871887,Wed Mar 26 2025 16:02:31 GMT-0500 (Central Daylight Time),758991.0999999642,B,vill,O,l,153,1,784.0999999642372,758207.0,7091,WL,B,7.0
6,10.396999835968018,distr,49603.00016403198,Wed Mar 26 2025 16:02:31 GMT-0500 (Central Daylight Time),759073.8000000119,B,villa,O,a,52,1,866.8000000119209,758207.0,7091,WL,B,7.0
6,10.63100004196167,distr,49368.99995803833,Wed Mar 26 2025 16:02:31 GMT-0500 (Central Daylight Time),759307.8999999762,B,villar,O,r,213,1,1100.8999999761581,758207.0,7091,WL,B,7.0
6,11.030999898910522,distr,48969.00010108948,Wed Mar 26 2025 16:02:31 GMT-0500 (Central Daylight Time),759707.3000000119,B,villa,O,backspace,360,1,1500.300000011921,758207.0,7091,WL,B,7.0
6,11.19700002670288,distr,48802.99997329712,Wed Mar 26 2025 16:02:31 GMT-0500 (Central Daylight Time),759873.8000000119,B,villag,O,g,135,1,1666.800000011921,758207.0,7091,WL,B,7.0
6,11.396999835968018,distr,48603.00016403198,Wed Mar 26 2025 16:02:31 GMT-0500 (Central Daylight Time),760073.8999999762,B,village,O,e,169,1,1866.8999999761581,758207.0,7091,WL,B,7.0
6,11.595999956130981,distr,48404.00004386902,Wed Mar 26 2025 16:02:31 GMT-0500 (Central Daylight Time),760273.0,B,villageenter,O,enter,160,1,2066.0,758207.0,7091,WL,B,7.0
6,20.427000045776367,distr,39572.99995422363,Wed Mar 26 2025 16:02:31 GMT-0500 (Central Daylight Time),769104.0999999642,B,r,O,r,8814,1,8830.799999952316,760273.3000000119,7091,WL,B,8.0
6,20.5939998626709,distr,39406.0001373291,Wed Mar 26 2025 16:02:31 GMT-0500 (Central Daylight Time),769270.5999999642,B,ro,O,o,138,1,8997.299999952316,760273.3000000119,7091,WL,B,8.0
6,20.810999870300293,distr,39189.00012969971,Wed Mar 26 2025 16:02:31 GMT-0500 (Central Daylight Time),769487.3999999762,B,roc,O,c,185,1,9214.099999964237,760273.3000000119,7091,WL,B,8.0
6,20.894999980926514,distr,39105.000019073486,Wed Mar 26 2025 16:02:31 GMT-0500 (Central Daylight Time),769571.3999999762,B,rock,O,k,43,1,9298.099999964237,760273.3000000119,7091,WL,B,8.0
6,21.210000038146973,distr,38789.99996185303,Wed Mar 26 2025 16:02:31 GMT-0500 (Central Daylight Time),769886.3000000119,B,rockenter,O,enter,301,1,9613.0,760273.3000000119,7091,WL,B,8.0
6,37.138999938964844,distr,22861.000061035156,Wed Mar 26 2025 16:02:31 GMT-0500 (Central Daylight Time),785815.3000000119,B,c,O,c,15913,1,15928.800000011921,769886.5,7091,WL,B,9.0
6,37.40599989891052,distr,22594.000101089478,Wed Mar 26 2025 16:02:31 GMT-0500 (Central Daylight Time),786082.0,B,ce,O,e,234,1,16195.5,769886.5,7091,WL,B,9.0
6,37.605000019073486,distr,22394.999980926514,Wed Mar 26 2025 16:02:31 GMT-0500 (Central Daylight Time),786281.8000000119,B,cel,O,l,170,1,16395.30000001192,769886.5,7091,WL,B,9.0
6,37.77199983596802,distr,22228.000164031982,Wed Mar 26 2025 16:02:31 GMT-0500 (Central Daylight Time),786448.5999999642,B,cell,O,l,134,1,16562.099999964237,769886.5,7091,WL,B,9.0
6,38.020999908447266,distr,21979.000091552734,Wed Mar 26 2025 16:02:31 GMT-0500 (Central Daylight Time),786697.5999999642,B,cellenter,O,enter,209,1,16811.099999964237,769886.5,7091,WL,B,9.0
6,60.014999866485596,distr,-14.999866485595703,Wed Mar 26 2025 16:02:31 GMT-0500 (Central Daylight Time),808691.5999999642,B,None,O,None,21987,1,21993.799999952316,786697.8000000119,7091,WL,B,10.0
7,0.41700005531311035,immed,59582.99994468689,Wed Mar 26 2025 16:02:31 GMT-0500 (Central Daylight Time),823736.1999999881,A,f,O,f,388,1,415.69999998807907,823320.5,7091,WL,B,1.0
7,0.9660000801086426,immed,59033.99991989136,Wed Mar 26 2025 16:02:31 GMT-0500 (Central Daylight Time),824285.6999999881,A,fr,O,r,521,1,965.1999999880791,823320.5,7091,WL,B,1.0
7,1.067000150680542,immed,58932.99984931946,Wed Mar 26 2025 16:02:31 GMT-0500 (Central Daylight Time),824386.3000000119,A,fri,O,i,71,1,1065.800000011921,823320.5,7091,WL,B,1.0
7,1.3990001678466797,immed,58600.99983215332,Wed Mar 26 2025 16:02:31 GMT-0500 (Central Daylight Time),824718.8000000119,A,fr,O,backspace,295,1,1398.300000011921,823320.5,7091,WL,B,1.0
7,1.5830001831054688,immed,58416.99981689453,Wed Mar 26 2025 16:02:31 GMT-0500 (Central Daylight Time),824902.0,A,f,O,backspace,158,1,1581.5,823320.5,7091,WL,B,1.0
7,1.9000000953674316,immed,58099.99990463257,Wed Mar 26 2025 16:02:31 GMT-0500 (Central Daylight Time),825218.8999999762,A,fi,O,i,288,1,1898.3999999761581,823320.5,7091,WL,B,1.0
7,2.0830001831054688,immed,57916.99981689453,Wed Mar 26 2025 16:02:31 GMT-0500 (Central Daylight Time),825402.3999999762,A,fir,O,r,149,1,2081.899999976158,823320.5,7091,WL,B,1.0
7,2.315999984741211,immed,57684.00001525879,Wed Mar 26 2025 16:02:31 GMT-0500 (Central Daylight Time),825635.5999999642,A,fire,O,e,205,1,2315.099999964237,823320.5,7091,WL,B,1.0
7,2.499000072479248,immed,57500.99992752075,Wed Mar 26 2025 16:02:31 GMT-0500 (Central Daylight Time),825817.8999999762,A,fireenter,O,enter,143,1,2497.399999976158,823320.5,7091,WL,B,1.0
7,2.8489999771118164,immed,57151.00002288818,Wed Mar 26 2025 16:02:31 GMT-0500 (Central Daylight Time),826168.8000000119,A,c,O,c,340,1,350.60000002384186,825818.1999999881,7091,WL,B,2.0
7,3.0329999923706055,immed,56967.000007629395,Wed Mar 26 2025 16:02:31 GMT-0500 (Central Daylight Time),826352.1999999881,A,ca,O,a,147,1,534.0,825818.1999999881,7091,WL,B,2.0
7,3.2660000324249268,immed,56733.99996757507,Wed Mar 26 2025 16:02:31 GMT-0500 (Central Daylight Time),826585.5,A,cab,O,b,203,1,767.3000000119209,825818.1999999881,7091,WL,B,2.0
7,3.4820001125335693,immed,56517.99988746643,Wed Mar 26 2025 16:02:31 GMT-0500 (Central Daylight Time),826802.0999999642,A,cabi,O,i,185,1,983.8999999761581,825818.1999999881,7091,WL,B,2.0
7,3.5820000171661377,immed,56417.99998283386,Wed Mar 26 2025 16:02:31 GMT-0500 (Central Daylight Time),826901.5,A,cabin,O,n,70,1,1083.300000011921,825818.1999999881,7091,WL,B,2.0
7,3.881999969482422,immed,56118.00003051758,Wed Mar 26 2025 16:02:31 GMT-0500 (Central Daylight Time),827200.8999999762,A,cabinenter,O,enter,271,1,1382.699999988079,825818.1999999881,7091,WL,B,2.0
7,4.216000080108643,immed,55783.99991989136,Wed Mar 26 2025 16:02:31 GMT-0500 (Central Daylight Time),827534.8999999762,A,w,O,w,325,1,333.69999998807907,827201.1999999881,7091,WL,B,3.0
7,4.366000175476074,immed,55633.999824523926,Wed Mar 26 2025 16:02:31 GMT-0500 (Central Daylight Time),827685.3000000119,A,wi,O,i,116,1,484.10000002384186,827201.1999999881,7091,WL,B,3.0
7,4.531000137329102,immed,55468.9998626709,Wed Mar 26 2025 16:02:31 GMT-0500 (Central Daylight Time),827850.8999999762,A,wif,O,f,126,1,649.6999999880791,827201.1999999881,7091,WL,B,3.0
7,4.64900016784668,immed,55350.99983215332,Wed Mar 26 2025 16:02:31 GMT-0500 (Central Daylight Time),827968.0999999642,A,wife,O,e,103,1,766.8999999761581,827201.1999999881,7091,WL,B,3.0
7,4.864000082015991,immed,55135.99991798401,Wed Mar 26 2025 16:02:31 GMT-0500 (Central Daylight Time),828183.8000000119,A,wifeenter,O,enter,186,1,982.6000000238419,827201.1999999881,7091,WL,B,3.0
7,5.082000017166138,immed,54917.99998283386,Wed Mar 26 2025 16:02:31 GMT-0500 (Central Daylight Time),828401.3999999762,A,a,O,a,207,1,217.39999997615814,828184.0,7091,WL,B,4.0
7,5.248000144958496,immed,54751.999855041504,Wed Mar 26 2025 16:02:31 GMT-0500 (Central Daylight Time),828567.8000000119,A,ar,O,r,133,1,383.80000001192093,828184.0,7091,WL,B,4.0
7,5.515000104904175,immed,54484.999895095825,Wed Mar 26 2025 16:02:31 GMT-0500 (Central Daylight Time),828834.5999999642,A,arm,O,m,235,1,650.5999999642372,828184.0,7091,WL,B,4.0
7,5.88100004196167,immed,54118.99995803833,Wed Mar 26 2025 16:02:31 GMT-0500 (Central Daylight Time),829200.1999999881,A,armenter,O,enter,328,1,1016.1999999880791,828184.0,7091,WL,B,4.0
7,6.865000009536743,immed,53134.99999046326,Wed Mar 26 2025 16:02:31 GMT-0500 (Central Daylight Time),830184.0999999642,A,p,O,p,966,1,983.5999999642372,829200.5,7091,WL,B,5.0
7,7.197999954223633,immed,52802.00004577637,Wed Mar 26 2025 16:02:31 GMT-0500 (Central Daylight Time),830517.3000000119,A,pi,O,i,299,1,1316.800000011921,829200.5,7091,WL,B,5.0
7,7.414999961853027,immed,52585.00003814697,Wed Mar 26 2025 16:02:31 GMT-0500 (Central Daylight Time),830734.0999999642,A,pip,O,p,181,1,1533.5999999642372,829200.5,7091,WL,B,5.0
7,7.781000137329102,immed,52218.9998626709,Wed Mar 26 2025 16:02:31 GMT-0500 (Central Daylight Time),831100.8000000119,A,pipe,O,e,325,1,1900.300000011921,829200.5,7091,WL,B,5.0
7,8.19700002670288,immed,51802.99997329712,Wed Mar 26 2025 16:02:31 GMT-0500 (Central Daylight Time),831516.0,A,pipeenter,O,enter,393,1,2315.5,829200.5,7091,WL,B,5.0
7,11.314000129699707,immed,48685.99987030029,Wed Mar 26 2025 16:02:31 GMT-0500 (Central Daylight Time),834633.0999999642,A,p,O,p,3099,1,3116.7999999523163,831516.3000000119,7091,WL,B,6.0
7,11.595999956130981,immed,48404.00004386902,Wed Mar 26 2025 16:02:31 GMT-0500 (Central Daylight Time),834915.8000000119,A,pu,O,u,242,1,3399.5,831516.3000000119,7091,WL,B,6.0
7,11.896000146865845,immed,48103.999853134155,Wed Mar 26 2025 16:02:31 GMT-0500 (Central Daylight Time),835215.6999999881,A,pup,O,p,264,1,3699.399999976158,831516.3000000119,7091,WL,B,6.0
7,12.180000066757202,immed,47819.9999332428,Wed Mar 26 2025 16:02:31 GMT-0500 (Central Daylight Time),835499.3999999762,A,pupi,O,i,244,1,3983.099999964237,831516.3000000119,7091,WL,B,6.0
7,12.413000106811523,immed,47586.99989318848,Wed Mar 26 2025 16:02:31 GMT-0500 (Central Daylight Time),835732.1999999881,A,pupil,O,l,192,1,4215.899999976158,831516.3000000119,7091,WL,B,6.0
7,12.712000131607056,immed,47287.999868392944,Wed Mar 26 2025 16:02:31 GMT-0500 (Central Daylight Time),836031.3000000119,A,pupilenter,O,enter,267,1,4515.0,831516.3000000119,7091,WL,B,6.0
7,14.17900013923645,immed,45820.99986076355,Wed Mar 26 2025 16:02:31 GMT-0500 (Central Daylight Time),837498.5,A,s,O,s,1447,1,1467.0,836031.5,7091,WL,B,7.0
7,14.26200008392334,immed,45737.99991607666,Wed Mar 26 2025 16:02:31 GMT-0500 (Central Daylight Time),837581.0999999642,A,sk,O,k,55,1,1549.5999999642372,836031.5,7091,WL,B,7.0
7,14.51200008392334,immed,45487.99991607666,Wed Mar 26 2025 16:02:31 GMT-0500 (Central Daylight Time),837831.5999999642,A,ski,O,i,232,1,1800.0999999642372,836031.5,7091,WL,B,7.0
7,14.59500002861023,immed,45404.99997138977,Wed Mar 26 2025 16:02:31 GMT-0500 (Central Daylight Time),837913.8999999762,A,skin,O,n,43,1,1882.3999999761581,836031.5,7091,WL,B,7.0
7,14.894999980926514,immed,45105.000019073486,Wed Mar 26 2025 16:02:31 GMT-0500 (Central Daylight Time),838213.8000000119,A,skinenter,O,enter,288,1,2182.300000011921,836031.5,7091,WL,B,7.0
7,15.36300015449524,immed,44636.99984550476,Wed Mar 26 2025 16:02:31 GMT-0500 (Central Daylight Time),838682.1999999881,A,s,O,s,447,1,468.10000002384186,838214.0999999642,7091,WL,B,8.0
7,15.546000003814697,immed,44453.9999961853,Wed Mar 26 2025 16:02:31 GMT-0500 (Central Daylight Time),838864.8000000119,A,st,O,t,143,1,650.7000000476837,838214.0999999642,7091,WL,B,8.0
7,15.695000171661377,immed,44304.99982833862,Wed Mar 26 2025 16:02:31 GMT-0500 (Central Daylight Time),839014.3000000119,A,sta,O,a,123,1,800.2000000476837,838214.0999999642,7091,WL,B,8.0
7,15.795000076293945,immed,44204.999923706055,Wed Mar 26 2025 16:02:31 GMT-0500 (Central Daylight Time),839114.3999999762,A,star,O,r,60,1,900.3000000119209,838214.0999999642,7091,WL,B,8.0
7,16.061000108718872,immed,43938.99989128113,Wed Mar 26 2025 16:02:31 GMT-0500 (Central Daylight Time),839380.0999999642,A,starenter,O,enter,244,1,1166.0,838214.0999999642,7091,WL,B,8.0
7,17.394999980926514,immed,42605.000019073486,Wed Mar 26 2025 16:02:31 GMT-0500 (Central Daylight Time),840714.0999999642,A,l,O,l,1314,1,1333.7999999523163,839380.3000000119,7091,WL,B,9.0
7,17.628000020980835,immed,42371.999979019165,Wed Mar 26 2025 16:02:31 GMT-0500 (Central Daylight Time),840947.0999999642,A,la,O,a,193,1,1566.7999999523163,839380.3000000119,7091,WL,B,9.0
7,17.74500012397766,immed,42254.99987602234,Wed Mar 26 2025 16:02:31 GMT-0500 (Central Daylight Time),841064.0,A,lak,O,k,79,1,1683.699999988079,839380.3000000119,7091,WL,B,9.0
7,17.878000020980835,immed,42121.999979019165,Wed Mar 26 2025 16:02:31 GMT-0500 (Central Daylight Time),841197.3999999762,A,lake,O,e,107,1,1817.0999999642372,839380.3000000119,7091,WL,B,9.0
7,18.177000045776367,immed,41822.99995422363,Wed Mar 26 2025 16:02:31 GMT-0500 (Central Daylight Time),841496.0999999642,A,lakeenter,O,enter,269,1,2115.7999999523163,839380.3000000119,7091,WL,B,9.0
7,21.710000038146973,immed,38289.99996185303,Wed Mar 26 2025 16:02:31 GMT-0500 (Central Daylight Time),845029.1999999881,A,g,O,g,3519,1,3532.899999976158,841496.3000000119,7091,WL,B,10.0
7,21.91000008583069,immed,38089.99991416931,Wed Mar 26 2025 16:02:31 GMT-0500 (Central Daylight Time),845229.5,A,gr,O,r,175,1,3733.199999988079,841496.3000000119,7091,WL,B,10.0
7,22.042999982833862,immed,37957.00001716614,Wed Mar 26 2025 16:02:31 GMT-0500 (Central Daylight Time),845362.5,A,gra,O,a,105,1,3866.199999988079,841496.3000000119,7091,WL,B,10.0
7,22.292999982833862,immed,37707.00001716614,Wed Mar 26 2025 16:02:31 GMT-0500 (Central Daylight Time),845612.3999999762,A,gras,O,s,212,1,4116.099999964237,841496.3000000119,7091,WL,B,10.0
7,22.460000038146973,immed,37539.99996185303,Wed Mar 26 2025 16:02:31 GMT-0500 (Central Daylight Time),845779.1999999881,A,grass,O,s,126,1,4282.899999976158,841496.3000000119,7091,WL,B,10.0
7,22.692000150680542,immed,37307.99984931946,Wed Mar 26 2025 16:02:31 GMT-0500 (Central Daylight Time),846011.3999999762,A,grassenter,O,enter,206,1,4515.099999964237,841496.3000000119,7091,WL,B,10.0
7,30.574000120162964,immed,29425.999879837036,Wed Mar 26 2025 16:02:31 GMT-0500 (Central Daylight Time),853893.1999999881,A,b,O,b,7868,1,7881.600000023842,846011.5999999642,7091,WL,B,11.0
7,30.741000175476074,immed,29258.999824523926,Wed Mar 26 2025 16:02:31 GMT-0500 (Central Daylight Time),854059.5,A,bu,O,u,134,1,8047.900000035763,846011.5999999642,7091,WL,B,11.0
7,30.890000104904175,immed,29109.999895095825,Wed Mar 26 2025 16:02:31 GMT-0500 (Central Daylight Time),854209.0999999642,A,bur,O,r,112,1,8197.5,846011.5999999642,7091,WL,B,11.0
7,31.058000087738037,immed,28941.999912261963,Wed Mar 26 2025 16:02:31 GMT-0500 (Central Daylight Time),854376.5999999642,A,burn,O,n,131,1,8365.0,846011.5999999642,7091,WL,B,11.0
7,31.373000144958496,immed,28626.999855041504,Wed Mar 26 2025 16:02:31 GMT-0500 (Central Daylight Time),854691.6999999881,A,burnenter,O,enter,275,1,8680.100000023842,846011.5999999642,7091,WL,B,11.0
7,60.01400017738342,immed,-14.000177383422852,Wed Mar 26 2025 16:02:31 GMT-0500 (Central Daylight Time),883333.5,A,None,O,None,28635,1,28641.5,854692.0,7091,WL,B,12.0
