acc_sum,block,block_c,block_cond,con_img,correct,correct_response,datetime,endtime,face,jitter,line,project,response,response_time,row_sel,session_number,start_end,starttime,subject_id,task,task_vers,trial
1,prac,1,A,haborder.png,1,z,Tue Mar 11 2025 13:40:15 GMT-0500 (Central Daylight Time),53037.80000000447,CFD-BF-050-012-A.jpg,1200,solid,O,z,836,6,1,2832.60000000149,50205.20000000298,7093,ATS,B,1
2,prac,1,A,haborder.png,1,z,Tue Mar 11 2025 13:40:15 GMT-0500 (Central Daylight Time),56153.40000000596,CFD-WF-026-008-A.jpg,1600,solid,O,z,733,10,1,5948.20000000298,50205.20000000298,7093,ATS,B,2
3,prac,1,A,haborder.png,1,z,Tue Mar 11 2025 13:40:15 GMT-0500 (Central Daylight Time),58735.80000000447,CFD-WF-013-015-A.jpg,1000,solid,O,z,784,12,1,8530.60000000149,50205.20000000298,7093,ATS,B,3
4,prac,1,A,haborder.png,1,z,Tue Mar 11 2025 13:40:15 GMT-0500 (Central Daylight Time),61734.70000000298,CFD-BM-037-041-A.jpg,1600,solid,O,z,611,2,1,11529.5,50205.20000000298,7093,ATS,B,4
5,prac,1,A,haborder.png,1,m,Tue Mar 11 2025 13:40:15 GMT-0500 (Central Daylight Time),64417.40000000596,CFD-WM-011-006-HC.jpg,1400,solid,O,m,483,7,1,14212.20000000298,50205.20000000298,7093,ATS,B,5
6,prac,1,A,haborder.png,1,z,Tue Mar 11 2025 13:40:15 GMT-0500 (Central Daylight Time),66716.90000000596,CFD-BF-051-043-A.jpg,1000,solid,O,z,513,4,1,16511.70000000298,50205.20000000298,7093,ATS,B,6
7,prac,1,A,haborder.png,1,m,Tue Mar 11 2025 13:40:15 GMT-0500 (Central Daylight Time),69965.70000000298,CFD-WM-012-007-HC.jpg,1700,solid,O,m,762,9,1,19760.5,50205.20000000298,7093,ATS,B,7
8,prac,1,A,haborder.png,1,m,Tue Mar 11 2025 13:40:15 GMT-0500 (Central Daylight Time),72981.40000000596,CFD-BM-015-017-HC.jpg,1700,solid,O,m,521,1,1,22776.20000000298,50205.20000000298,7093,ATS,B,8
9,prac,1,A,haborder.png,1,m,Tue Mar 11 2025 13:40:15 GMT-0500 (Central Daylight Time),76363.60000000149,CFD-BF-035-007-HC.jpg,2000,solid,O,m,588,5,1,26158.39999999851,50205.20000000298,7093,ATS,B,9
10,prac,1,A,haborder.png,1,m,Tue Mar 11 2025 13:40:15 GMT-0500 (Central Daylight Time),79179.40000000596,CFD-BM-020-024-HC.jpg,1500,solid,O,m,531,3,1,28974.20000000298,50205.20000000298,7093,ATS,B,10
11,prac,1,A,haborder.png,1,m,Tue Mar 11 2025 13:40:15 GMT-0500 (Central Daylight Time),82195.20000000298,CFD-WF-011-006-HC.jpg,1500,solid,O,m,731,11,1,31990.0,50205.20000000298,7093,ATS,B,11
12,prac,1,A,haborder.png,1,z,Tue Mar 11 2025 13:40:15 GMT-0500 (Central Daylight Time),85394.30000000447,CFD-WM-009-009-A.jpg,1900,solid,O,z,506,8,1,35189.10000000149,50205.20000000298,7093,ATS,B,12
1,prac,1,B,mfborder.png,1,z,Tue Mar 11 2025 13:40:15 GMT-0500 (Central Daylight Time),107070.70000000298,CFD-WF-011-006-HC.jpg,1000,dash,O,z,602,12,1,2399.2000000029802,104671.5,7093,ATS,B,1
2,prac,1,B,mfborder.png,1,z,Tue Mar 11 2025 13:40:15 GMT-0500 (Central Daylight Time),109919.90000000596,CFD-WF-026-008-A.jpg,1500,dash,O,z,550,11,1,5248.4000000059605,104671.5,7093,ATS,B,2
3,prac,1,B,mfborder.png,1,m,Tue Mar 11 2025 13:40:15 GMT-0500 (Central Daylight Time),112452.40000000596,CFD-WM-037-060-A.jpg,1200,dash,O,m,547,6,1,7780.9000000059605,104671.5,7093,ATS,B,3
4,prac,1,B,mfborder.png,1,m,Tue Mar 11 2025 13:40:15 GMT-0500 (Central Daylight Time),115601.5,CFD-WM-009-009-A.jpg,1700,dash,O,m,650,9,1,10930.0,104671.5,7093,ATS,B,4
5,prac,1,B,mfborder.png,1,z,Tue Mar 11 2025 13:40:15 GMT-0500 (Central Daylight Time),118818.20000000298,CFD-BF-035-007-HC.jpg,1400,dash,O,z,1032,7,1,14146.70000000298,104671.5,7093,ATS,B,5
6,prac,1,B,mfborder.png,1,z,Tue Mar 11 2025 13:40:15 GMT-0500 (Central Daylight Time),121716.10000000149,CFD-BF-027-013-HC.jpg,1500,dash,O,z,612,3,1,17044.60000000149,104671.5,7093,ATS,B,6
7,prac,1,B,mfborder.png,1,m,Tue Mar 11 2025 13:40:15 GMT-0500 (Central Daylight Time),125015.0,CFD-BM-037-041-A.jpg,2000,dash,O,m,509,5,1,20343.5,104671.5,7093,ATS,B,7
8,prac,1,B,mfborder.png,1,m,Tue Mar 11 2025 13:40:15 GMT-0500 (Central Daylight Time),127964.10000000149,CFD-WM-012-007-HC.jpg,1600,dash,O,m,563,10,1,23292.60000000149,104671.5,7093,ATS,B,8
9,prac,1,B,mfborder.png,1,m,Tue Mar 11 2025 13:40:15 GMT-0500 (Central Daylight Time),130913.40000000596,CFD-BM-041-048-A.jpg,1600,dash,O,m,558,2,1,26241.90000000596,104671.5,7093,ATS,B,9
10,prac,1,B,mfborder.png,1,z,Tue Mar 11 2025 13:40:15 GMT-0500 (Central Daylight Time),133412.5,CFD-BF-051-043-A.jpg,1000,dash,O,z,674,4,1,28741.0,104671.5,7093,ATS,B,10
11,prac,1,B,mfborder.png,1,m,Tue Mar 11 2025 13:40:15 GMT-0500 (Central Daylight Time),136678.30000000447,CFD-BM-020-024-HC.jpg,1700,dash,O,m,770,1,1,32006.80000000447,104671.5,7093,ATS,B,11
12,prac,1,B,mfborder.png,1,z,Tue Mar 11 2025 13:40:15 GMT-0500 (Central Daylight Time),140027.20000000298,CFD-WF-027-007-HC.jpg,1900,dash,O,z,656,8,1,35355.70000000298,104671.5,7093,ATS,B,12
1,test,1,A,haborder.png,1,z,Tue Mar 11 2025 13:40:15 GMT-0500 (Central Daylight Time),160004.1000000015,CFD-BM-037-041-A.jpg,1600,solid,O,z,1227,2,1,2849.0,157155.1000000015,7093,ATS,B,1
2,test,1,A,haborder.png,1,z,Tue Mar 11 2025 13:40:15 GMT-0500 (Central Daylight Time),162519.90000000596,CFD-WM-009-009-A.jpg,1900,solid,O,z,594,8,1,5364.80000000447,157155.1000000015,7093,ATS,B,2
3,test,1,A,haborder.png,1,m,Tue Mar 11 2025 13:40:15 GMT-0500 (Central Daylight Time),164935.6000000015,CFD-WM-012-007-HC.jpg,1700,solid,O,m,695,9,1,7780.5,157155.1000000015,7093,ATS,B,3
3,test,1,A,haborder.png,0,m,Tue Mar 11 2025 13:40:15 GMT-0500 (Central Daylight Time),167668.40000000596,CFD-BF-035-007-HC.jpg,2000,solid,O,z,714,5,1,10513.30000000447,157155.1000000015,7093,ATS,B,4
4,test,1,A,haborder.png,1,m,Tue Mar 11 2025 13:40:15 GMT-0500 (Central Daylight Time),170384.30000000447,CFD-WF-011-006-HC.jpg,1500,solid,O,m,1184,11,1,13229.20000000298,157155.1000000015,7093,ATS,B,5
5,test,1,A,haborder.png,1,m,Tue Mar 11 2025 13:40:15 GMT-0500 (Central Daylight Time),173066.6000000015,CFD-BM-020-024-HC.jpg,1500,solid,O,m,1165,3,1,15911.5,157155.1000000015,7093,ATS,B,6
6,test,1,A,haborder.png,1,z,Tue Mar 11 2025 13:40:15 GMT-0500 (Central Daylight Time),174782.5,CFD-WF-013-015-A.jpg,1000,solid,O,z,695,12,1,17627.39999999851,157155.1000000015,7093,ATS,B,7
7,test,1,A,haborder.png,1,z,Tue Mar 11 2025 13:40:15 GMT-0500 (Central Daylight Time),177232.1000000015,CFD-WF-026-008-A.jpg,1600,solid,O,z,827,10,1,20077.0,157155.1000000015,7093,ATS,B,8
8,test,1,A,haborder.png,1,m,Tue Mar 11 2025 13:40:15 GMT-0500 (Central Daylight Time),179699.0,CFD-WF-011-006-HC.jpg,1500,solid,O,m,933,11,1,22543.89999999851,157155.1000000015,7093,ATS,B,9
9,test,1,A,haborder.png,1,m,Tue Mar 11 2025 13:40:15 GMT-0500 (Central Daylight Time),182013.90000000596,CFD-WM-011-006-HC.jpg,1400,solid,O,m,896,7,1,24858.80000000447,157155.1000000015,7093,ATS,B,10
10,test,1,A,haborder.png,1,z,Tue Mar 11 2025 13:40:15 GMT-0500 (Central Daylight Time),184163.20000000298,CFD-BM-037-041-A.jpg,1600,solid,O,z,532,2,1,27008.10000000149,157155.1000000015,7093,ATS,B,11
11,test,1,A,haborder.png,1,m,Tue Mar 11 2025 13:40:15 GMT-0500 (Central Daylight Time),186345.6000000015,CFD-BM-020-024-HC.jpg,1500,solid,O,m,650,3,1,29190.5,157155.1000000015,7093,ATS,B,12
12,test,1,A,haborder.png,1,m,Tue Mar 11 2025 13:40:15 GMT-0500 (Central Daylight Time),188295.1000000015,CFD-WM-011-006-HC.jpg,1400,solid,O,m,520,7,1,31140.0,157155.1000000015,7093,ATS,B,13
13,test,1,A,haborder.png,1,z,Tue Mar 11 2025 13:40:15 GMT-0500 (Central Daylight Time),189994.5,CFD-BF-051-043-A.jpg,1000,solid,O,z,667,4,1,32839.39999999851,157155.1000000015,7093,ATS,B,14
14,test,1,A,haborder.png,1,z,Tue Mar 11 2025 13:40:15 GMT-0500 (Central Daylight Time),192777.1000000015,CFD-WM-009-009-A.jpg,1900,solid,O,z,860,8,1,35622.0,157155.1000000015,7093,ATS,B,15
15,test,1,A,haborder.png,1,z,Tue Mar 11 2025 13:40:15 GMT-0500 (Central Daylight Time),195043.20000000298,CFD-WF-026-008-A.jpg,1600,solid,O,z,649,10,1,37888.10000000149,157155.1000000015,7093,ATS,B,16
16,test,1,A,haborder.png,1,z,Tue Mar 11 2025 13:40:15 GMT-0500 (Central Daylight Time),196675.6000000015,CFD-BF-051-043-A.jpg,1000,solid,O,z,615,4,1,39520.5,157155.1000000015,7093,ATS,B,17
17,test,1,A,haborder.png,1,m,Tue Mar 11 2025 13:40:15 GMT-0500 (Central Daylight Time),198975.30000000447,CFD-BM-015-017-HC.jpg,1700,solid,O,m,578,1,1,41820.20000000298,157155.1000000015,7093,ATS,B,18
18,test,1,A,haborder.png,1,m,Tue Mar 11 2025 13:40:15 GMT-0500 (Central Daylight Time),201341.40000000596,CFD-BM-015-017-HC.jpg,1700,solid,O,m,636,1,1,44186.30000000447,157155.1000000015,7093,ATS,B,19
19,test,1,A,haborder.png,1,m,Tue Mar 11 2025 13:40:15 GMT-0500 (Central Daylight Time),204090.5,CFD-BF-035-007-HC.jpg,2000,solid,O,m,724,5,1,46935.39999999851,157155.1000000015,7093,ATS,B,20
20,test,1,A,haborder.png,1,z,Tue Mar 11 2025 13:40:15 GMT-0500 (Central Daylight Time),206139.5,CFD-BF-050-012-A.jpg,1200,solid,O,z,832,6,1,48984.39999999851,157155.1000000015,7093,ATS,B,21
21,test,1,A,haborder.png,1,z,Tue Mar 11 2025 13:40:15 GMT-0500 (Central Daylight Time),207922.40000000596,CFD-BF-050-012-A.jpg,1200,solid,O,z,549,6,1,50767.30000000447,157155.1000000015,7093,ATS,B,22
22,test,1,A,haborder.png,1,z,Tue Mar 11 2025 13:40:15 GMT-0500 (Central Daylight Time),209655.30000000447,CFD-WF-013-015-A.jpg,1000,solid,O,z,711,12,1,52500.20000000298,157155.1000000015,7093,ATS,B,23
23,test,1,A,haborder.png,1,m,Tue Mar 11 2025 13:40:15 GMT-0500 (Central Daylight Time),212004.40000000596,CFD-WM-012-007-HC.jpg,1700,solid,O,m,627,9,1,54849.30000000447,157155.1000000015,7093,ATS,B,24
1,test,1,B,mfborder.png,1,m,Tue Mar 11 2025 13:40:15 GMT-0500 (Central Daylight Time),225783.5,CFD-BM-037-041-A.jpg,2000,dash,O,m,750,5,1,2782.2999999970198,223001.20000000298,7093,ATS,B,1
2,test,1,B,mfborder.png,1,m,Tue Mar 11 2025 13:40:15 GMT-0500 (Central Daylight Time),228166.20000000298,CFD-BM-041-048-A.jpg,1600,dash,O,m,759,2,1,5165.0,223001.20000000298,7093,ATS,B,2
3,test,1,B,mfborder.png,1,z,Tue Mar 11 2025 13:40:15 GMT-0500 (Central Daylight Time),230115.30000000447,CFD-BF-035-007-HC.jpg,1400,dash,O,z,531,7,1,7114.10000000149,223001.20000000298,7093,ATS,B,3
4,test,1,B,mfborder.png,1,z,Tue Mar 11 2025 13:40:15 GMT-0500 (Central Daylight Time),231714.80000000447,CFD-BF-051-043-A.jpg,1000,dash,O,z,575,4,1,8713.60000000149,223001.20000000298,7093,ATS,B,4
5,test,1,B,mfborder.png,1,z,Tue Mar 11 2025 13:40:15 GMT-0500 (Central Daylight Time),233814.40000000596,CFD-BF-027-013-HC.jpg,1500,dash,O,z,571,3,1,10813.20000000298,223001.20000000298,7093,ATS,B,5
6,test,1,B,mfborder.png,1,z,Tue Mar 11 2025 13:40:15 GMT-0500 (Central Daylight Time),235880.30000000447,CFD-WF-026-008-A.jpg,1500,dash,O,z,544,11,1,12879.10000000149,223001.20000000298,7093,ATS,B,6
7,test,1,B,mfborder.png,1,m,Tue Mar 11 2025 13:40:15 GMT-0500 (Central Daylight Time),238162.90000000596,CFD-WM-009-009-A.jpg,1700,dash,O,m,557,9,1,15161.70000000298,223001.20000000298,7093,ATS,B,7
8,test,1,B,mfborder.png,1,m,Tue Mar 11 2025 13:40:15 GMT-0500 (Central Daylight Time),239929.1000000015,CFD-WM-037-060-A.jpg,1200,dash,O,m,534,6,1,16927.89999999851,223001.20000000298,7093,ATS,B,8
9,test,1,B,mfborder.png,1,z,Tue Mar 11 2025 13:40:15 GMT-0500 (Central Daylight Time),241495.40000000596,CFD-WF-011-006-HC.jpg,1000,dash,O,z,544,12,1,18494.20000000298,223001.20000000298,7093,ATS,B,9
10,test,1,B,mfborder.png,1,m,Tue Mar 11 2025 13:40:15 GMT-0500 (Central Daylight Time),243777.90000000596,CFD-WM-009-009-A.jpg,1700,dash,O,m,559,9,1,20776.70000000298,223001.20000000298,7093,ATS,B,10
11,test,1,B,mfborder.png,1,m,Tue Mar 11 2025 13:40:15 GMT-0500 (Central Daylight Time),246143.70000000298,CFD-BM-020-024-HC.jpg,1700,dash,O,m,644,1,1,23142.5,223001.20000000298,7093,ATS,B,11
12,test,1,B,mfborder.png,1,z,Tue Mar 11 2025 13:40:15 GMT-0500 (Central Daylight Time),248259.6000000015,CFD-WF-026-008-A.jpg,1500,dash,O,z,591,11,1,25258.39999999851,223001.20000000298,7093,ATS,B,12
13,test,1,B,mfborder.png,1,m,Tue Mar 11 2025 13:40:15 GMT-0500 (Central Daylight Time),250476.0,CFD-WM-012-007-HC.jpg,1600,dash,O,m,590,10,1,27474.79999999702,223001.20000000298,7093,ATS,B,13
14,test,1,B,mfborder.png,1,z,Tue Mar 11 2025 13:40:15 GMT-0500 (Central Daylight Time),252125.30000000447,CFD-BF-051-043-A.jpg,1000,dash,O,z,629,4,1,29124.10000000149,223001.20000000298,7093,ATS,B,14
15,test,1,B,mfborder.png,1,z,Tue Mar 11 2025 13:40:15 GMT-0500 (Central Daylight Time),254325.5,CFD-BF-027-013-HC.jpg,1500,dash,O,z,681,3,1,31324.29999999702,223001.20000000298,7093,ATS,B,15
16,test,1,B,mfborder.png,1,z,Tue Mar 11 2025 13:40:15 GMT-0500 (Central Daylight Time),256373.80000000447,CFD-BF-035-007-HC.jpg,1400,dash,O,z,630,7,1,33372.60000000149,223001.20000000298,7093,ATS,B,16
17,test,1,B,mfborder.png,1,m,Tue Mar 11 2025 13:40:15 GMT-0500 (Central Daylight Time),259123.1000000015,CFD-BM-037-041-A.jpg,2000,dash,O,m,732,5,1,36121.89999999851,223001.20000000298,7093,ATS,B,17
18,test,1,B,mfborder.png,1,m,Tue Mar 11 2025 13:40:15 GMT-0500 (Central Daylight Time),261388.80000000447,CFD-BM-041-048-A.jpg,1600,dash,O,m,639,2,1,38387.60000000149,223001.20000000298,7093,ATS,B,18
19,test,1,B,mfborder.png,1,m,Tue Mar 11 2025 13:40:15 GMT-0500 (Central Daylight Time),263371.700000003,CFD-WM-037-060-A.jpg,1200,dash,O,m,756,6,1,40370.5,223001.20000000298,7093,ATS,B,19
20,test,1,B,mfborder.png,1,m,Tue Mar 11 2025 13:40:15 GMT-0500 (Central Daylight Time),265754.5,CFD-WM-012-007-HC.jpg,1600,dash,O,m,749,10,1,42753.29999999702,223001.20000000298,7093,ATS,B,20
21,test,1,B,mfborder.png,1,z,Tue Mar 11 2025 13:40:15 GMT-0500 (Central Daylight Time),267554.1000000015,CFD-WF-011-006-HC.jpg,1000,dash,O,z,768,12,1,44552.89999999851,223001.20000000298,7093,ATS,B,21
22,test,1,B,mfborder.png,1,z,Tue Mar 11 2025 13:40:15 GMT-0500 (Central Daylight Time),270219.6000000015,CFD-WF-027-007-HC.jpg,1900,dash,O,z,741,8,1,47218.39999999851,223001.20000000298,7093,ATS,B,22
23,test,1,B,mfborder.png,1,m,Tue Mar 11 2025 13:40:15 GMT-0500 (Central Daylight Time),272568.700000003,CFD-BM-020-024-HC.jpg,1700,dash,O,m,627,1,1,49567.5,223001.20000000298,7093,ATS,B,23
24,test,1,B,mfborder.png,1,z,Tue Mar 11 2025 13:40:15 GMT-0500 (Central Daylight Time),275201.40000000596,CFD-WF-027-007-HC.jpg,1900,dash,O,z,710,8,1,52200.20000000298,223001.20000000298,7093,ATS,B,24
1,1,1,C,mfborder.png,1,z,Tue Mar 11 2025 13:40:15 GMT-0500 (Central Daylight Time),316955.0,CFD-WF-011-006-HC.jpg,1600,dash,O,z,998,prac,1,3382.2999999970198,313572.700000003,7093,ATS,B,1
2,4,1,C,mfborder.png,1,m,Tue Mar 11 2025 13:40:15 GMT-0500 (Central Daylight Time),320853.80000000447,CFD-BM-015-017-HC.jpg,2000,solid,O,m,1127,prac,1,7281.10000000149,313572.700000003,7093,ATS,B,2
3,3,1,C,mfborder.png,1,z,Tue Mar 11 2025 13:40:15 GMT-0500 (Central Daylight Time),323619.6000000015,CFD-BF-035-007-HC.jpg,1000,dash,O,z,980,prac,1,10046.89999999851,313572.700000003,7093,ATS,B,3
4,9,1,C,haborder.png,1,z,Tue Mar 11 2025 13:40:15 GMT-0500 (Central Daylight Time),326668.90000000596,CFD-WF-026-008-A.jpg,1600,dash,O,z,654,prac,1,13096.20000000298,313572.700000003,7093,ATS,B,4
4,7,1,C,haborder.png,0,z,Tue Mar 11 2025 13:40:15 GMT-0500 (Central Daylight Time),330617.5,CFD-BF-051-043-A.jpg,1900,dash,O,m,1258,prac,1,17044.79999999702,313572.700000003,7093,ATS,B,5
5,10,1,C,haborder.png,1,m,Tue Mar 11 2025 13:40:15 GMT-0500 (Central Daylight Time),333949.700000003,CFD-BM-020-024-HC.jpg,1500,solid,O,m,1045,prac,1,20377.0,313572.700000003,7093,ATS,B,6
6,2,1,C,mfborder.png,1,z,Tue Mar 11 2025 13:40:15 GMT-0500 (Central Daylight Time),336948.700000003,CFD-WF-013-015-A.jpg,1500,solid,O,z,704,prac,1,23376.0,313572.700000003,7093,ATS,B,7
7,5,1,C,mfborder.png,1,m,Tue Mar 11 2025 13:40:15 GMT-0500 (Central Daylight Time),340314.30000000447,CFD-BM-037-041-A.jpg,1200,dash,O,m,1372,prac,1,26741.60000000149,313572.700000003,7093,ATS,B,8
8,11,1,C,haborder.png,1,m,Tue Mar 11 2025 13:40:15 GMT-0500 (Central Daylight Time),343296.80000000447,CFD-WM-011-006-HC.jpg,1000,dash,O,m,1192,prac,1,29724.10000000149,313572.700000003,7093,ATS,B,9
8,8,1,C,haborder.png,0,z,Tue Mar 11 2025 13:40:15 GMT-0500 (Central Daylight Time),346945.6000000015,CFD-BF-050-012-A.jpg,1700,solid,O,m,1165,prac,1,33372.89999999851,313572.700000003,7093,ATS,B,10
9,12,1,C,haborder.png,1,m,Tue Mar 11 2025 13:40:15 GMT-0500 (Central Daylight Time),350061.5,CFD-WM-011-006-HC.jpg,1400,solid,O,m,928,prac,1,36488.79999999702,313572.700000003,7093,ATS,B,11
10,6,1,C,mfborder.png,1,m,Tue Mar 11 2025 13:40:15 GMT-0500 (Central Daylight Time),353393.80000000447,CFD-WM-009-009-A.jpg,1700,solid,O,m,842,prac,1,39821.10000000149,313572.700000003,7093,ATS,B,12
1,test,1,C,mfborder.png,1,m,Tue Mar 11 2025 13:40:15 GMT-0500 (Central Daylight Time),365973.1000000015,CFD-BM-020-024-HC.jpg,1200,dash,O,m,797,6,1,2016.1999999955297,363956.90000000596,7093,ATS,B,1
2,test,1,C,mfborder.png,1,z,Tue Mar 11 2025 13:40:15 GMT-0500 (Central Daylight Time),368372.0,CFD-BF-051-043-A.jpg,1600,dash,O,z,768,2,1,4415.0999999940395,363956.90000000596,7093,ATS,B,2
2,test,1,C,haborder.png,0,z,Tue Mar 11 2025 13:40:15 GMT-0500 (Central Daylight Time),371604.6000000015,CFD-BM-041-048-A.jpg,1700,solid,O,None,1515,9,1,7647.69999999553,363956.90000000596,7093,ATS,B,3
2,test,1,C,mfborder.png,0,m,Tue Mar 11 2025 13:40:15 GMT-0500 (Central Daylight Time),374886.90000000596,CFD-WM-037-060-A.jpg,2000,dash,O,z,1254,5,1,10930.0,363956.90000000596,7093,ATS,B,4
2,test,1,C,haborder.png,0,m,Tue Mar 11 2025 13:40:15 GMT-0500 (Central Daylight Time),378019.30000000447,CFD-BF-035-007-HC.jpg,1600,solid,O,None,1515,10,1,14062.39999999851,363956.90000000596,7093,ATS,B,5
2,test,1,C,mfborder.png,0,m,Tue Mar 11 2025 13:40:15 GMT-0500 (Central Daylight Time),380551.6000000015,CFD-WM-012-007-HC.jpg,1000,dash,O,None,1516,4,1,16594.69999999553,363956.90000000596,7093,ATS,B,6
2,test,1,C,haborder.png,0,m,Tue Mar 11 2025 13:40:15 GMT-0500 (Central Daylight Time),383084.40000000596,CFD-WF-011-006-HC.jpg,1000,solid,O,None,1515,12,1,19127.5,363956.90000000596,7093,ATS,B,7
3,test,1,C,haborder.png,1,z,Tue Mar 11 2025 13:40:15 GMT-0500 (Central Daylight Time),385849.90000000596,CFD-BM-041-048-A.jpg,1700,solid,O,z,1042,9,1,21893.0,363956.90000000596,7093,ATS,B,8
4,test,1,C,haborder.png,1,m,Tue Mar 11 2025 13:40:15 GMT-0500 (Central Daylight Time),388665.90000000596,CFD-BF-035-007-HC.jpg,1600,solid,O,m,1184,10,1,24709.0,363956.90000000596,7093,ATS,B,9
5,test,1,C,haborder.png,1,m,Tue Mar 11 2025 13:40:15 GMT-0500 (Central Daylight Time),391181.6000000015,CFD-WF-027-007-HC.jpg,1500,solid,O,m,987,11,1,27224.69999999553,363956.90000000596,7093,ATS,B,10
6,test,1,C,mfborder.png,1,z,Tue Mar 11 2025 13:40:15 GMT-0500 (Central Daylight Time),394347.30000000447,CFD-BF-027-013-HC.jpg,1700,dash,O,z,1447,1,1,30390.39999999851,363956.90000000596,7093,ATS,B,11
7,test,1,C,haborder.png,1,m,Tue Mar 11 2025 13:40:15 GMT-0500 (Central Daylight Time),396280.1000000015,CFD-WF-011-006-HC.jpg,1000,solid,O,m,903,12,1,32323.19999999553,363956.90000000596,7093,ATS,B,12
8,test,1,C,haborder.png,1,z,Tue Mar 11 2025 13:40:15 GMT-0500 (Central Daylight Time),399429.1000000015,CFD-BM-037-041-A.jpg,1900,solid,O,z,1230,8,1,35472.19999999553,363956.90000000596,7093,ATS,B,13
9,test,1,C,mfborder.png,1,m,Tue Mar 11 2025 13:40:15 GMT-0500 (Central Daylight Time),401478.30000000447,CFD-WM-012-007-HC.jpg,1000,dash,O,m,1021,4,1,37521.39999999851,363956.90000000596,7093,ATS,B,14
10,test,1,C,mfborder.png,1,z,Tue Mar 11 2025 13:40:15 GMT-0500 (Central Daylight Time),403644.5,CFD-WF-026-008-A.jpg,1500,dash,O,z,648,3,1,39687.59999999404,363956.90000000596,7093,ATS,B,15
11,test,1,C,mfborder.png,1,z,Tue Mar 11 2025 13:40:15 GMT-0500 (Central Daylight Time),405893.700000003,CFD-WF-026-008-A.jpg,1500,dash,O,z,729,3,1,41936.79999999702,363956.90000000596,7093,ATS,B,16
11,test,1,C,haborder.png,0,z,Tue Mar 11 2025 13:40:15 GMT-0500 (Central Daylight Time),408426.30000000447,CFD-WM-009-009-A.jpg,1400,solid,O,m,1100,7,1,44469.39999999851,363956.90000000596,7093,ATS,B,17
11,test,1,C,haborder.png,0,z,Tue Mar 11 2025 13:40:15 GMT-0500 (Central Daylight Time),411358.700000003,CFD-WM-009-009-A.jpg,1400,solid,O,None,1516,7,1,47401.79999999702,363956.90000000596,7093,ATS,B,18
12,test,1,C,mfborder.png,1,m,Tue Mar 11 2025 13:40:15 GMT-0500 (Central Daylight Time),413607.90000000596,CFD-BM-020-024-HC.jpg,1200,dash,O,m,1020,6,1,49651.0,363956.90000000596,7093,ATS,B,19
13,test,1,C,haborder.png,1,m,Tue Mar 11 2025 13:40:15 GMT-0500 (Central Daylight Time),416074.1000000015,CFD-WF-027-007-HC.jpg,1500,solid,O,m,941,11,1,52117.19999999553,363956.90000000596,7093,ATS,B,20
14,test,1,C,haborder.png,1,z,Tue Mar 11 2025 13:40:15 GMT-0500 (Central Daylight Time),418956.40000000596,CFD-BM-037-041-A.jpg,1900,solid,O,z,965,8,1,54999.5,363956.90000000596,7093,ATS,B,21
15,test,1,C,mfborder.png,1,z,Tue Mar 11 2025 13:40:15 GMT-0500 (Central Daylight Time),421838.80000000447,CFD-BF-027-013-HC.jpg,1700,dash,O,z,1162,1,1,57881.89999999851,363956.90000000596,7093,ATS,B,22
16,test,1,C,mfborder.png,1,m,Tue Mar 11 2025 13:40:15 GMT-0500 (Central Daylight Time),424621.200000003,CFD-WM-037-060-A.jpg,2000,dash,O,m,764,5,1,60664.29999999702,363956.90000000596,7093,ATS,B,23
17,test,1,C,mfborder.png,1,z,Tue Mar 11 2025 13:40:15 GMT-0500 (Central Daylight Time),427103.700000003,CFD-BF-051-043-A.jpg,1600,dash,O,z,861,2,1,63146.79999999702,363956.90000000596,7093,ATS,B,24
1,test,2,C,haborder.png,1,m,Tue Mar 11 2025 13:40:15 GMT-0500 (Central Daylight Time),438850.1000000015,CFD-WM-011-006-HC.jpg,1000,solid,O,m,1058,12,1,2082.60000000149,436767.5,7093,ATS,B,1
2,test,2,C,haborder.png,1,z,Tue Mar 11 2025 13:40:15 GMT-0500 (Central Daylight Time),441766.0,CFD-BF-050-012-A.jpg,1900,solid,O,z,988,8,1,4998.5,436767.5,7093,ATS,B,2
3,test,2,C,mfborder.png,1,m,Tue Mar 11 2025 13:40:15 GMT-0500 (Central Daylight Time),444048.5,CFD-BM-015-017-HC.jpg,1000,dash,O,m,1259,4,1,7281.0,436767.5,7093,ATS,B,3
4,test,2,C,haborder.png,1,m,Tue Mar 11 2025 13:40:15 GMT-0500 (Central Daylight Time),446497.90000000596,CFD-WM-011-006-HC.jpg,1500,solid,O,m,922,11,1,9730.40000000596,436767.5,7093,ATS,B,4
5,test,2,C,haborder.png,1,m,Tue Mar 11 2025 13:40:15 GMT-0500 (Central Daylight Time),449346.80000000447,CFD-WM-011-006-HC.jpg,1500,solid,O,m,1325,11,1,12579.30000000447,436767.5,7093,ATS,B,5
6,test,2,C,mfborder.png,1,m,Tue Mar 11 2025 13:40:15 GMT-0500 (Central Daylight Time),452029.40000000596,CFD-WM-009-009-A.jpg,1200,dash,O,m,1463,6,1,15261.90000000596,436767.5,7093,ATS,B,6
7,test,2,C,haborder.png,1,z,Tue Mar 11 2025 13:40:15 GMT-0500 (Central Daylight Time),454678.6000000015,CFD-BF-051-043-A.jpg,1400,solid,O,z,1221,7,1,17911.10000000149,436767.5,7093,ATS,B,7
8,test,2,C,mfborder.png,1,m,Tue Mar 11 2025 13:40:15 GMT-0500 (Central Daylight Time),458110.700000003,CFD-BM-037-041-A.jpg,2000,dash,O,m,1404,5,1,21343.20000000298,436767.5,7093,ATS,B,8
9,test,2,C,mfborder.png,1,z,Tue Mar 11 2025 13:40:15 GMT-0500 (Central Daylight Time),461010.90000000596,CFD-WF-011-006-HC.jpg,1700,dash,O,z,1175,1,1,24243.40000000596,436767.5,7093,ATS,B,9
10,test,2,C,mfborder.png,1,m,Tue Mar 11 2025 13:40:15 GMT-0500 (Central Daylight Time),463775.700000003,CFD-BM-037-041-A.jpg,2000,dash,O,m,737,5,1,27008.20000000298,436767.5,7093,ATS,B,10
11,test,2,C,mfborder.png,1,z,Tue Mar 11 2025 13:40:15 GMT-0500 (Central Daylight Time),466326.0,CFD-WF-011-006-HC.jpg,1700,dash,O,z,823,1,1,29558.5,436767.5,7093,ATS,B,11
12,test,2,C,mfborder.png,1,z,Tue Mar 11 2025 13:40:15 GMT-0500 (Central Daylight Time),468674.200000003,CFD-BF-035-007-HC.jpg,1500,dash,O,z,825,3,1,31906.70000000298,436767.5,7093,ATS,B,12
13,test,2,C,mfborder.png,1,z,Tue Mar 11 2025 13:40:15 GMT-0500 (Central Daylight Time),471056.700000003,CFD-WF-013-015-A.jpg,1600,dash,O,z,752,2,1,34289.20000000298,436767.5,7093,ATS,B,13
14,test,2,C,haborder.png,1,z,Tue Mar 11 2025 13:40:15 GMT-0500 (Central Daylight Time),473205.90000000596,CFD-BF-051-043-A.jpg,1400,solid,O,z,721,7,1,36438.40000000596,436767.5,7093,ATS,B,14
15,test,2,C,haborder.png,1,z,Tue Mar 11 2025 13:40:15 GMT-0500 (Central Daylight Time),475788.700000003,CFD-WF-026-008-A.jpg,1700,solid,O,z,856,9,1,39021.20000000298,436767.5,7093,ATS,B,15
16,test,2,C,mfborder.png,1,m,Tue Mar 11 2025 13:40:15 GMT-0500 (Central Daylight Time),477721.30000000447,CFD-WM-009-009-A.jpg,1200,dash,O,m,710,6,1,40953.80000000447,436767.5,7093,ATS,B,16
17,test,2,C,mfborder.png,1,z,Tue Mar 11 2025 13:40:15 GMT-0500 (Central Daylight Time),479937.30000000447,CFD-BF-035-007-HC.jpg,1500,dash,O,z,684,3,1,43169.80000000447,436767.5,7093,ATS,B,17
18,test,2,C,haborder.png,1,z,Tue Mar 11 2025 13:40:15 GMT-0500 (Central Daylight Time),482819.5,CFD-WF-026-008-A.jpg,1700,solid,O,z,1165,9,1,46052.0,436767.5,7093,ATS,B,18
19,test,2,C,haborder.png,1,m,Tue Mar 11 2025 13:40:15 GMT-0500 (Central Daylight Time),485802.1000000015,CFD-BM-020-024-HC.jpg,1600,solid,O,m,1346,10,1,49034.60000000149,436767.5,7093,ATS,B,19
20,test,2,C,haborder.png,1,m,Tue Mar 11 2025 13:40:15 GMT-0500 (Central Daylight Time),488218.0,CFD-BM-020-024-HC.jpg,1600,solid,O,m,792,10,1,51450.5,436767.5,7093,ATS,B,20
21,test,2,C,haborder.png,1,z,Tue Mar 11 2025 13:40:15 GMT-0500 (Central Daylight Time),491300.40000000596,CFD-BF-050-012-A.jpg,1900,solid,O,z,1165,8,1,54532.90000000596,436767.5,7093,ATS,B,21
22,test,2,C,haborder.png,1,m,Tue Mar 11 2025 13:40:15 GMT-0500 (Central Daylight Time),493283.30000000447,CFD-WM-011-006-HC.jpg,1000,solid,O,m,950,12,1,56515.80000000447,436767.5,7093,ATS,B,22
23,test,2,C,mfborder.png,1,z,Tue Mar 11 2025 13:40:15 GMT-0500 (Central Daylight Time),495849.0,CFD-WF-013-015-A.jpg,1600,dash,O,z,943,2,1,59081.5,436767.5,7093,ATS,B,23
24,test,2,C,mfborder.png,1,m,Tue Mar 11 2025 13:40:15 GMT-0500 (Central Daylight Time),497664.80000000447,CFD-BM-015-017-HC.jpg,1000,dash,O,m,785,4,1,60897.30000000447,436767.5,7093,ATS,B,24
1,test,3,C,haborder.png,1,m,Tue Mar 11 2025 13:40:15 GMT-0500 (Central Daylight Time),503829.80000000447,CFD-BF-035-007-HC.jpg,1600,solid,O,m,1146,10,1,2766.2000000029802,501063.6000000015,7093,ATS,B,1
2,test,3,C,haborder.png,1,z,Tue Mar 11 2025 13:40:15 GMT-0500 (Central Daylight Time),506712.0,CFD-BM-037-041-A.jpg,1900,solid,O,z,961,8,1,5648.39999999851,501063.6000000015,7093,ATS,B,2
3,test,3,C,mfborder.png,1,z,Tue Mar 11 2025 13:40:15 GMT-0500 (Central Daylight Time),509677.90000000596,CFD-BF-027-013-HC.jpg,1700,dash,O,z,1135,1,1,8614.30000000447,501063.6000000015,7093,ATS,B,3
4,test,3,C,mfborder.png,1,z,Tue Mar 11 2025 13:40:15 GMT-0500 (Central Daylight Time),512027.30000000447,CFD-WF-026-008-A.jpg,1500,dash,O,z,832,3,1,10963.70000000298,501063.6000000015,7093,ATS,B,4
5,test,3,C,haborder.png,1,z,Tue Mar 11 2025 13:40:15 GMT-0500 (Central Daylight Time),514992.90000000596,CFD-BM-037-041-A.jpg,1900,solid,O,z,1035,8,1,13929.30000000447,501063.6000000015,7093,ATS,B,5
6,test,3,C,mfborder.png,1,z,Tue Mar 11 2025 13:40:15 GMT-0500 (Central Daylight Time),517708.80000000447,CFD-BF-051-043-A.jpg,1600,dash,O,z,1089,2,1,16645.20000000298,501063.6000000015,7093,ATS,B,6
7,test,3,C,mfborder.png,1,m,Tue Mar 11 2025 13:40:15 GMT-0500 (Central Daylight Time),519874.90000000596,CFD-WM-012-007-HC.jpg,1000,dash,O,m,1141,4,1,18811.30000000447,501063.6000000015,7093,ATS,B,7
8,test,3,C,mfborder.png,1,z,Tue Mar 11 2025 13:40:15 GMT-0500 (Central Daylight Time),522373.90000000596,CFD-BF-051-043-A.jpg,1600,dash,O,z,879,2,1,21310.30000000447,501063.6000000015,7093,ATS,B,8
8,test,3,C,haborder.png,0,z,Tue Mar 11 2025 13:40:15 GMT-0500 (Central Daylight Time),525306.5,CFD-WM-009-009-A.jpg,1400,solid,O,None,1515,7,1,24242.89999999851,501063.6000000015,7093,ATS,B,9
9,test,3,C,haborder.png,1,z,Tue Mar 11 2025 13:40:15 GMT-0500 (Central Daylight Time),528072.3000000045,CFD-BM-041-048-A.jpg,1700,solid,O,z,1044,9,1,27008.70000000298,501063.6000000015,7093,ATS,B,10
10,test,3,C,haborder.png,1,m,Tue Mar 11 2025 13:40:15 GMT-0500 (Central Daylight Time),530621.200000003,CFD-WF-027-007-HC.jpg,1500,solid,O,m,1022,11,1,29557.60000000149,501063.6000000015,7093,ATS,B,11
11,test,3,C,haborder.png,1,z,Tue Mar 11 2025 13:40:15 GMT-0500 (Central Daylight Time),533770.400000006,CFD-BM-041-048-A.jpg,1700,solid,O,z,1425,9,1,32706.80000000447,501063.6000000015,7093,ATS,B,12
12,test,3,C,haborder.png,1,m,Tue Mar 11 2025 13:40:15 GMT-0500 (Central Daylight Time),535753.200000003,CFD-WF-011-006-HC.jpg,1000,solid,O,m,960,12,1,34689.60000000149,501063.6000000015,7093,ATS,B,13
13,test,3,C,haborder.png,1,m,Tue Mar 11 2025 13:40:15 GMT-0500 (Central Daylight Time),538285.700000003,CFD-WF-027-007-HC.jpg,1500,solid,O,m,1005,11,1,37222.10000000149,501063.6000000015,7093,ATS,B,14
13,test,3,C,mfborder.png,0,m,Tue Mar 11 2025 13:40:15 GMT-0500 (Central Daylight Time),541018.3000000045,CFD-BM-020-024-HC.jpg,1200,dash,O,None,1516,6,1,39954.70000000298,501063.6000000015,7093,ATS,B,15
13,test,3,C,mfborder.png,0,m,Tue Mar 11 2025 13:40:15 GMT-0500 (Central Daylight Time),543550.900000006,CFD-WM-012-007-HC.jpg,1000,dash,O,None,1516,4,1,42487.30000000447,501063.6000000015,7093,ATS,B,16
14,test,3,C,haborder.png,1,z,Tue Mar 11 2025 13:40:15 GMT-0500 (Central Daylight Time),545733.400000006,CFD-WM-009-009-A.jpg,1400,solid,O,z,764,7,1,44669.80000000447,501063.6000000015,7093,ATS,B,17
15,test,3,C,mfborder.png,1,m,Tue Mar 11 2025 13:40:15 GMT-0500 (Central Daylight Time),549148.900000006,CFD-WM-037-060-A.jpg,2000,dash,O,m,1397,5,1,48085.30000000447,501063.6000000015,7093,ATS,B,18
16,test,3,C,haborder.png,1,m,Tue Mar 11 2025 13:40:15 GMT-0500 (Central Daylight Time),552231.3000000045,CFD-BF-035-007-HC.jpg,1600,solid,O,m,1453,10,1,51167.70000000298,501063.6000000015,7093,ATS,B,19
16,test,3,C,mfborder.png,0,m,Tue Mar 11 2025 13:40:15 GMT-0500 (Central Daylight Time),555763.3000000045,CFD-WM-037-060-A.jpg,2000,dash,O,None,1515,5,1,54699.70000000298,501063.6000000015,7093,ATS,B,20
17,test,3,C,mfborder.png,1,z,Tue Mar 11 2025 13:40:15 GMT-0500 (Central Daylight Time),558379.3000000045,CFD-BF-027-013-HC.jpg,1700,dash,O,z,891,1,1,57315.70000000298,501063.6000000015,7093,ATS,B,21
18,test,3,C,mfborder.png,1,m,Tue Mar 11 2025 13:40:15 GMT-0500 (Central Daylight Time),560895.3000000045,CFD-BM-020-024-HC.jpg,1200,dash,O,m,1287,6,1,59831.70000000298,501063.6000000015,7093,ATS,B,22
19,test,3,C,mfborder.png,1,z,Tue Mar 11 2025 13:40:15 GMT-0500 (Central Daylight Time),563594.5,CFD-WF-026-008-A.jpg,1500,dash,O,z,1167,3,1,62530.89999999851,501063.6000000015,7093,ATS,B,23
20,test,3,C,haborder.png,1,m,Tue Mar 11 2025 13:40:15 GMT-0500 (Central Daylight Time),565527.1000000015,CFD-WF-011-006-HC.jpg,1000,solid,O,m,900,12,1,64463.5,501063.6000000015,7093,ATS,B,24
1,test,4,C,mfborder.png,1,z,Tue Mar 11 2025 13:40:15 GMT-0500 (Central Daylight Time),590602.8000000045,CFD-WF-011-006-HC.jpg,1700,dash,O,z,965,1,1,2682.7000000029802,587920.1000000015,7093,ATS,B,1
2,test,4,C,haborder.png,1,m,Tue Mar 11 2025 13:40:15 GMT-0500 (Central Daylight Time),593035.200000003,CFD-WM-011-006-HC.jpg,1500,solid,O,m,904,11,1,5115.10000000149,587920.1000000015,7093,ATS,B,2
3,test,4,C,mfborder.png,1,m,Tue Mar 11 2025 13:40:15 GMT-0500 (Central Daylight Time),596117.6000000015,CFD-BM-037-041-A.jpg,2000,dash,O,m,1055,5,1,8197.5,587920.1000000015,7093,ATS,B,3
4,test,4,C,mfborder.png,1,m,Tue Mar 11 2025 13:40:15 GMT-0500 (Central Daylight Time),599200.0,CFD-BM-037-041-A.jpg,2000,dash,O,m,1061,5,1,11279.89999999851,587920.1000000015,7093,ATS,B,4
5,test,4,C,haborder.png,1,m,Tue Mar 11 2025 13:40:15 GMT-0500 (Central Daylight Time),601182.400000006,CFD-WM-011-006-HC.jpg,1000,solid,O,m,962,12,1,13262.30000000447,587920.1000000015,7093,ATS,B,5
6,test,4,C,haborder.png,1,z,Tue Mar 11 2025 13:40:15 GMT-0500 (Central Daylight Time),603648.6000000015,CFD-WF-026-008-A.jpg,1700,solid,O,z,744,9,1,15728.5,587920.1000000015,7093,ATS,B,6
7,test,4,C,haborder.png,1,z,Tue Mar 11 2025 13:40:15 GMT-0500 (Central Daylight Time),605814.6000000015,CFD-BF-051-043-A.jpg,1400,solid,O,z,746,7,1,17894.5,587920.1000000015,7093,ATS,B,7
8,test,4,C,mfborder.png,1,z,Tue Mar 11 2025 13:40:15 GMT-0500 (Central Daylight Time),608513.8000000045,CFD-WF-013-015-A.jpg,1600,dash,O,z,1068,2,1,20593.70000000298,587920.1000000015,7093,ATS,B,8
9,test,4,C,mfborder.png,1,m,Tue Mar 11 2025 13:40:15 GMT-0500 (Central Daylight Time),610596.1000000015,CFD-WM-009-009-A.jpg,1200,dash,O,m,864,6,1,22676.0,587920.1000000015,7093,ATS,B,9
10,test,4,C,mfborder.png,1,m,Tue Mar 11 2025 13:40:15 GMT-0500 (Central Daylight Time),612312.700000003,CFD-BM-015-017-HC.jpg,1000,dash,O,m,686,4,1,24392.60000000149,587920.1000000015,7093,ATS,B,10
11,test,4,C,mfborder.png,1,z,Tue Mar 11 2025 13:40:15 GMT-0500 (Central Daylight Time),614595.1000000015,CFD-BF-035-007-HC.jpg,1500,dash,O,z,766,3,1,26675.0,587920.1000000015,7093,ATS,B,11
12,test,4,C,haborder.png,1,z,Tue Mar 11 2025 13:40:15 GMT-0500 (Central Daylight Time),616744.3000000045,CFD-BF-051-043-A.jpg,1400,solid,O,z,727,7,1,28824.20000000298,587920.1000000015,7093,ATS,B,12
13,test,4,C,haborder.png,1,z,Tue Mar 11 2025 13:40:15 GMT-0500 (Central Daylight Time),619293.5,CFD-WF-026-008-A.jpg,1700,solid,O,z,830,9,1,31373.39999999851,587920.1000000015,7093,ATS,B,13
14,test,4,C,mfborder.png,1,m,Tue Mar 11 2025 13:40:15 GMT-0500 (Central Daylight Time),621094.200000003,CFD-BM-015-017-HC.jpg,1000,dash,O,m,781,4,1,33174.10000000149,587920.1000000015,7093,ATS,B,14
15,test,4,C,mfborder.png,1,z,Tue Mar 11 2025 13:40:15 GMT-0500 (Central Daylight Time),623525.700000003,CFD-WF-013-015-A.jpg,1600,dash,O,z,805,2,1,35605.60000000149,587920.1000000015,7093,ATS,B,15
16,test,4,C,haborder.png,1,m,Tue Mar 11 2025 13:40:15 GMT-0500 (Central Daylight Time),625808.5,CFD-WM-011-006-HC.jpg,1500,solid,O,m,753,11,1,37888.39999999851,587920.1000000015,7093,ATS,B,16
17,test,4,C,haborder.png,1,m,Tue Mar 11 2025 13:40:15 GMT-0500 (Central Daylight Time),628307.3000000045,CFD-BM-020-024-HC.jpg,1600,solid,O,m,882,10,1,40387.20000000298,587920.1000000015,7093,ATS,B,17
18,test,4,C,mfborder.png,1,m,Tue Mar 11 2025 13:40:15 GMT-0500 (Central Daylight Time),630640.1000000015,CFD-WM-009-009-A.jpg,1200,dash,O,m,1103,6,1,42720.0,587920.1000000015,7093,ATS,B,18
19,test,4,C,mfborder.png,1,z,Tue Mar 11 2025 13:40:15 GMT-0500 (Central Daylight Time),633255.700000003,CFD-WF-011-006-HC.jpg,1700,dash,O,z,885,1,1,45335.60000000149,587920.1000000015,7093,ATS,B,19
20,test,4,C,haborder.png,1,m,Tue Mar 11 2025 13:40:15 GMT-0500 (Central Daylight Time),635138.700000003,CFD-WM-011-006-HC.jpg,1000,solid,O,m,850,12,1,47218.60000000149,587920.1000000015,7093,ATS,B,20
21,test,4,C,haborder.png,1,z,Tue Mar 11 2025 13:40:15 GMT-0500 (Central Daylight Time),638421.1000000015,CFD-BF-050-012-A.jpg,1900,solid,O,z,1356,8,1,50501.0,587920.1000000015,7093,ATS,B,21
21,test,4,C,haborder.png,0,m,Tue Mar 11 2025 13:40:15 GMT-0500 (Central Daylight Time),641553.400000006,CFD-BM-020-024-HC.jpg,1600,solid,O,None,1515,10,1,53633.30000000447,587920.1000000015,7093,ATS,B,22
22,test,4,C,mfborder.png,1,z,Tue Mar 11 2025 13:40:15 GMT-0500 (Central Daylight Time),644002.6000000015,CFD-BF-035-007-HC.jpg,1500,dash,O,z,917,3,1,56082.5,587920.1000000015,7093,ATS,B,23
23,test,4,C,haborder.png,1,z,Tue Mar 11 2025 13:40:15 GMT-0500 (Central Daylight Time),646885.0,CFD-BF-050-012-A.jpg,1900,solid,O,z,956,8,1,58964.89999999851,587920.1000000015,7093,ATS,B,24
