acc_sum,block,block_c,change,condition,correct,correct_response,datetime,endtime,face,project,response,response_time,row_sel,session_number,start_end,starttime,subject_id,task,task_vers,trial
0,prac,1,,1-Back,,,Fri Feb 28 2025 16:20:12 GMT-0600 (Central Standard Time),,124_o_f_d_a.png,O,space,6626,1,1,,,7073,VNB,A,0
1,prac,1,0.0,1-Back,1,m,Fri Feb 28 2025 16:20:12 GMT-0600 (Central Standard Time),123820.30000000028,071_y_f_n_a.png,O,m,1128,2,1,1941.6000000000931,121878.70000000019,7073,VNB,A,1
2,prac,1,0.0,1-Back,1,m,Fri Feb 28 2025 16:20:12 GMT-0600 (Central Standard Time),125586.30000000028,165_m_m_h_a.png,O,m,964,3,1,1758.3999999999069,123827.90000000037,7073,VNB,A,2
3,prac,1,0.0,1-Back,1,m,Fri Feb 28 2025 16:20:12 GMT-0600 (Central Standard Time),127070.40000000037,109_y_m_d_a.png,O,m,672,4,1,1475.3000000002794,125595.1000000001,7073,VNB,A,3
4,prac,1,0.0,1-Back,1,m,Fri Feb 28 2025 16:20:12 GMT-0600 (Central Standard Time),128736.5,124_o_f_n_a.png,O,m,821,5,1,1658.8999999999069,127077.6000000001,7073,VNB,A,4
4,prac,1,1.0,1-Back,0,z,Fri Feb 28 2025 16:20:12 GMT-0600 (Central Standard Time),130551.5,109_y_m_n_a.png,O,m,995,6,1,1807.6999999997206,128743.80000000028,7073,VNB,A,5
5,prac,1,0.0,1-Back,1,m,Fri Feb 28 2025 16:20:12 GMT-0600 (Central Standard Time),133034.1000000001,039_o_m_h_a.png,O,m,1682,7,1,2474.7999999998137,130559.30000000028,7073,VNB,A,6
5,prac,1,0.0,1-Back,0,m,Fri Feb 28 2025 16:20:12 GMT-0600 (Central Standard Time),135533.0,139_m_f_d_a.png,O,z,1694,8,1,2491.5,133041.5,7073,VNB,A,7
5,prac,1,1.0,1-Back,0,z,Fri Feb 28 2025 16:20:12 GMT-0600 (Central Standard Time),137199.5,071_y_f_d_a.png,O,m,852,9,1,1659.1999999997206,135540.30000000028,7073,VNB,A,8
6,prac,1,0.0,1-Back,1,m,Fri Feb 28 2025 16:20:12 GMT-0600 (Central Standard Time),139632.1000000001,165_m_m_n_a.png,O,m,1618,10,1,2425.0,137207.1000000001,7073,VNB,A,9
7,prac,1,0.0,1-Back,1,m,Fri Feb 28 2025 16:20:12 GMT-0600 (Central Standard Time),141681.30000000028,124_o_f_h_a.png,O,m,1228,11,1,2038.3999999999069,139642.90000000037,7073,VNB,A,10
8,prac,1,0.0,1-Back,1,m,Fri Feb 28 2025 16:20:12 GMT-0600 (Central Standard Time),143515.2000000002,109_y_m_d_a.png,O,m,1049,12,1,1826.5,141688.7000000002,7073,VNB,A,11
0,test,1,0.0,1-Back,,,Fri Feb 28 2025 16:20:12 GMT-0600 (Central Standard Time),143515.2000000002,071_y_f_d_a.png,O,space,5411,1,1,1826.5,141688.7000000002,7073,VNB,A,0
1,test,1,0.0,1-Back,1,m,Fri Feb 28 2025 16:20:12 GMT-0600 (Central Standard Time),160309.1000000001,139_m_f_n_a.png,O,m,963,2,1,1976.1999999997206,158332.90000000037,7073,VNB,A,1
2,test,1,0.0,1-Back,1,m,Fri Feb 28 2025 16:20:12 GMT-0600 (Central Standard Time),162758.2000000002,039_o_m_h_a.png,O,m,1428,3,1,2443.0,160315.2000000002,7073,VNB,A,2
3,test,1,1.0,1-Back,1,z,Fri Feb 28 2025 16:20:12 GMT-0600 (Central Standard Time),164740.80000000028,165_m_m_h_a.png,O,z,955,4,1,1975.8999999999069,162764.90000000037,7073,VNB,A,3
4,test,1,0.0,1-Back,1,m,Fri Feb 28 2025 16:20:12 GMT-0600 (Central Standard Time),166557.0,124_o_f_n_a.png,O,m,788,5,1,1810.0999999996275,164746.90000000037,7073,VNB,A,4
5,test,1,0.0,1-Back,1,m,Fri Feb 28 2025 16:20:12 GMT-0600 (Central Standard Time),168756.2000000002,109_y_m_d_a.png,O,m,1172,6,1,2193.100000000093,166563.1000000001,7073,VNB,A,5
6,test,1,1.0,1-Back,1,z,Fri Feb 28 2025 16:20:12 GMT-0600 (Central Standard Time),170622.30000000028,139_m_f_d_a.png,O,z,845,7,1,1859.6000000000931,168762.7000000002,7073,VNB,A,6
7,test,1,0.0,1-Back,1,m,Fri Feb 28 2025 16:20:12 GMT-0600 (Central Standard Time),172438.40000000037,071_y_f_h_a.png,O,m,787,8,1,1809.9000000003725,170628.5,7073,VNB,A,7
8,test,1,0.0,1-Back,1,m,Fri Feb 28 2025 16:20:12 GMT-0600 (Central Standard Time),174570.90000000037,039_o_m_n_a.png,O,m,1115,9,1,2126.100000000093,172444.80000000028,7073,VNB,A,8
9,test,1,0.0,1-Back,1,m,Fri Feb 28 2025 16:20:12 GMT-0600 (Central Standard Time),176654.0,109_y_m_h_a.png,O,m,1054,10,1,2076.7999999998137,174577.2000000002,7073,VNB,A,9
10,test,1,0.0,1-Back,1,m,Fri Feb 28 2025 16:20:12 GMT-0600 (Central Standard Time),178603.0,039_o_m_d_a.png,O,m,923,11,1,1943.2999999998137,176659.7000000002,7073,VNB,A,10
11,test,1,1.0,1-Back,1,z,Fri Feb 28 2025 16:20:12 GMT-0600 (Central Standard Time),180719.2000000002,124_o_f_d_a.png,O,z,1094,12,1,2110.100000000093,178609.1000000001,7073,VNB,A,11
12,test,1,0.0,1-Back,1,m,Fri Feb 28 2025 16:20:12 GMT-0600 (Central Standard Time),182668.6000000001,165_m_m_n_a.png,O,m,922,13,1,1942.6999999997206,180725.90000000037,7073,VNB,A,12
12,test,1,1.0,1-Back,0,z,Fri Feb 28 2025 16:20:12 GMT-0600 (Central Standard Time),184717.90000000037,071_y_f_n_a.png,O,m,1029,14,1,2041.9000000003725,182676.0,7073,VNB,A,13
13,test,1,0.0,1-Back,1,m,Fri Feb 28 2025 16:20:12 GMT-0600 (Central Standard Time),186733.90000000037,139_m_f_h_a.png,O,m,995,15,1,2009.8000000002794,184724.1000000001,7073,VNB,A,14
14,test,1,0.0,1-Back,1,m,Fri Feb 28 2025 16:20:12 GMT-0600 (Central Standard Time),188516.90000000037,165_m_m_d_a.png,O,m,755,16,1,1776.9000000003725,186740.0,7073,VNB,A,15
15,test,1,0.0,1-Back,1,m,Fri Feb 28 2025 16:20:12 GMT-0600 (Central Standard Time),190915.90000000037,109_y_m_n_a.png,O,m,1380,17,1,2392.8000000002794,188523.1000000001,7073,VNB,A,16
16,test,1,0.0,1-Back,1,m,Fri Feb 28 2025 16:20:12 GMT-0600 (Central Standard Time),192998.7000000002,124_o_f_h_a.png,O,m,1061,18,1,2077.0,190921.7000000002,7073,VNB,A,17
0,test,2,0.0,1-Back,,,Fri Feb 28 2025 16:20:12 GMT-0600 (Central Standard Time),192998.7000000002,109_y_m_n_a.png,O,space,2395,1,1,2077.0,190921.7000000002,7073,VNB,A,0
1,test,2,0.0,1-Back,1,m,Fri Feb 28 2025 16:20:12 GMT-0600 (Central Standard Time),199330.0,071_y_f_h_a.png,O,m,891,2,1,1909.8999999999069,197420.1000000001,7073,VNB,A,1
2,test,2,1.0,1-Back,1,m,Fri Feb 28 2025 16:20:12 GMT-0600 (Central Standard Time),201296.0,039_o_m_n_a.png,O,m,943,3,1,1959.8999999999069,199336.1000000001,7073,VNB,A,2
3,test,2,0.0,1-Back,1,m,Fri Feb 28 2025 16:20:12 GMT-0600 (Central Standard Time),203045.6000000001,139_m_f_d_a.png,O,m,729,4,1,1743.1000000000931,201302.5,7073,VNB,A,3
4,test,2,0.0,1-Back,1,z,Fri Feb 28 2025 16:20:12 GMT-0600 (Central Standard Time),204994.7000000002,165_m_m_d_a.png,O,z,924,5,1,1942.8999999999069,203051.80000000028,7073,VNB,A,4
5,test,2,0.0,1-Back,1,m,Fri Feb 28 2025 16:20:12 GMT-0600 (Central Standard Time),206677.7000000002,109_y_m_h_a.png,O,m,655,6,1,1676.3999999999069,205001.30000000028,7073,VNB,A,5
6,test,2,1.0,1-Back,1,z,Fri Feb 28 2025 16:20:12 GMT-0600 (Central Standard Time),208543.90000000037,124_o_f_h_a.png,O,z,835,7,1,1860.0,206683.90000000037,7073,VNB,A,6
7,test,2,0.0,1-Back,1,m,Fri Feb 28 2025 16:20:12 GMT-0600 (Central Standard Time),210209.90000000037,139_m_f_n_a.png,O,m,641,8,1,1659.2000000001863,208550.7000000002,7073,VNB,A,7
8,test,2,0.0,1-Back,1,m,Fri Feb 28 2025 16:20:12 GMT-0600 (Central Standard Time),212076.0,071_y_f_d_a.png,O,m,839,9,1,1860.3999999999069,210215.6000000001,7073,VNB,A,8
9,test,2,0.0,1-Back,1,m,Fri Feb 28 2025 16:20:12 GMT-0600 (Central Standard Time),214226.5,165_m_m_n_a.png,O,m,1125,10,1,2143.7999999998137,212082.7000000002,7073,VNB,A,9
10,test,2,1.0,1-Back,1,m,Fri Feb 28 2025 16:20:12 GMT-0600 (Central Standard Time),215941.6000000001,139_m_f_h_a.png,O,m,688,11,1,1708.8999999999069,214232.7000000002,7073,VNB,A,10
11,test,2,0.0,1-Back,1,z,Fri Feb 28 2025 16:20:12 GMT-0600 (Central Standard Time),217607.7000000002,039_o_m_h_a.png,O,z,636,12,1,1659.7999999998137,215947.90000000037,7073,VNB,A,11
12,test,2,0.0,1-Back,1,m,Fri Feb 28 2025 16:20:12 GMT-0600 (Central Standard Time),219357.2000000002,109_y_m_d_a.png,O,m,730,13,1,1743.0,217614.2000000002,7073,VNB,A,12
13,test,2,0.0,1-Back,1,m,Fri Feb 28 2025 16:20:12 GMT-0600 (Central Standard Time),221406.5,124_o_f_n_a.png,O,m,1028,14,1,2042.7999999998137,219363.7000000002,7073,VNB,A,13
14,test,2,0.0,1-Back,1,z,Fri Feb 28 2025 16:20:12 GMT-0600 (Central Standard Time),223589.0,071_y_f_n_a.png,O,z,1163,15,1,2176.0,221413.0,7073,VNB,A,14
15,test,2,1.0,1-Back,1,m,Fri Feb 28 2025 16:20:12 GMT-0600 (Central Standard Time),225338.5,165_m_m_h_a.png,O,m,723,16,1,1743.2999999998137,223595.2000000002,7073,VNB,A,15
16,test,2,0.0,1-Back,1,m,Fri Feb 28 2025 16:20:12 GMT-0600 (Central Standard Time),227387.90000000037,124_o_f_d_a.png,O,m,1031,17,1,2042.8000000002794,225345.1000000001,7073,VNB,A,16
17,test,2,1.0,1-Back,1,z,Fri Feb 28 2025 16:20:12 GMT-0600 (Central Standard Time),228970.6000000001,039_o_m_d_a.png,O,z,565,18,1,1576.0,227394.6000000001,7073,VNB,A,17
0,test,3,1.0,1-Back,,,Fri Feb 28 2025 16:20:12 GMT-0600 (Central Standard Time),228970.6000000001,124_o_f_h_a.png,O,space,1431,1,1,1576.0,227394.6000000001,7073,VNB,A,0
1,test,3,0.0,1-Back,1,m,Fri Feb 28 2025 16:20:12 GMT-0600 (Central Standard Time),234119.0,139_m_f_d_a.png,O,m,636,2,1,1659.5999999996275,232459.40000000037,7073,VNB,A,1
2,test,3,1.0,1-Back,1,m,Fri Feb 28 2025 16:20:12 GMT-0600 (Central Standard Time),236401.90000000037,165_m_m_n_a.png,O,m,1258,3,1,2276.5,234125.40000000037,7073,VNB,A,2
3,test,3,0.0,1-Back,1,z,Fri Feb 28 2025 16:20:12 GMT-0600 (Central Standard Time),238251.30000000028,124_o_f_n_a.png,O,z,823,4,1,1843.2000000001863,236408.1000000001,7073,VNB,A,3
4,test,3,1.0,1-Back,1,m,Fri Feb 28 2025 16:20:12 GMT-0600 (Central Standard Time),240000.80000000028,039_o_m_d_a.png,O,m,718,5,1,1742.8000000002794,238258.0,7073,VNB,A,4
5,test,3,0.0,1-Back,1,m,Fri Feb 28 2025 16:20:12 GMT-0600 (Central Standard Time),241750.2000000002,071_y_f_h_a.png,O,m,729,6,1,1743.2000000001863,240007.0,7073,VNB,A,5
6,test,3,0.0,1-Back,1,z,Fri Feb 28 2025 16:20:12 GMT-0600 (Central Standard Time),243599.6000000001,109_y_m_h_a.png,O,z,827,7,1,1842.8999999999069,241756.7000000002,7073,VNB,A,6
7,test,3,0.0,1-Back,1,m,Fri Feb 28 2025 16:20:12 GMT-0600 (Central Standard Time),245265.80000000028,139_m_f_n_a.png,O,m,641,8,1,1660.0,243605.80000000028,7073,VNB,A,7
8,test,3,0.0,1-Back,1,m,Fri Feb 28 2025 16:20:12 GMT-0600 (Central Standard Time),246981.90000000037,071_y_f_d_a.png,O,m,695,9,1,1709.7000000001863,245272.2000000002,7073,VNB,A,8
9,test,3,1.0,1-Back,1,m,Fri Feb 28 2025 16:20:12 GMT-0600 (Central Standard Time),248897.90000000037,039_o_m_n_a.png,O,m,883,10,1,1910.0,246987.90000000037,7073,VNB,A,9
10,test,3,0.0,1-Back,1,m,Fri Feb 28 2025 16:20:12 GMT-0600 (Central Standard Time),250830.6000000001,165_m_m_h_a.png,O,m,903,11,1,1926.1000000000931,248904.5,7073,VNB,A,10
11,test,3,0.0,1-Back,1,z,Fri Feb 28 2025 16:20:12 GMT-0600 (Central Standard Time),252530.0,139_m_f_h_a.png,O,z,673,12,1,1692.8999999999069,250837.1000000001,7073,VNB,A,11
12,test,3,1.0,1-Back,1,m,Fri Feb 28 2025 16:20:12 GMT-0600 (Central Standard Time),254296.1000000001,124_o_f_d_a.png,O,m,735,13,1,1759.8999999999069,252536.2000000002,7073,VNB,A,12
13,test,3,0.0,1-Back,1,z,Fri Feb 28 2025 16:20:12 GMT-0600 (Central Standard Time),256245.6000000001,165_m_m_d_a.png,O,z,921,14,1,1943.2999999998137,254302.30000000028,7073,VNB,A,13
14,test,3,0.0,1-Back,1,m,Fri Feb 28 2025 16:20:12 GMT-0600 (Central Standard Time),258095.0,109_y_m_n_a.png,O,m,819,15,1,1842.8999999999069,256252.1000000001,7073,VNB,A,14
15,test,3,1.0,1-Back,1,m,Fri Feb 28 2025 16:20:12 GMT-0600 (Central Standard Time),259961.0,039_o_m_h_a.png,O,m,842,16,1,1859.3999999999069,258101.6000000001,7073,VNB,A,15
16,test,3,0.0,1-Back,1,m,Fri Feb 28 2025 16:20:12 GMT-0600 (Central Standard Time),262010.2000000002,109_y_m_d_a.png,O,m,1024,17,1,2042.7999999998137,259967.40000000037,7073,VNB,A,16
17,test,3,1.0,1-Back,1,m,Fri Feb 28 2025 16:20:12 GMT-0600 (Central Standard Time),263976.6000000001,071_y_f_n_a.png,O,m,935,18,1,1959.8999999999069,262016.7000000002,7073,VNB,A,17
0,test,4,1.0,1-Back,,,Fri Feb 28 2025 16:20:12 GMT-0600 (Central Standard Time),263976.6000000001,165_m_m_d_a.png,O,space,1385,1,1,1959.8999999999069,262016.7000000002,7073,VNB,A,0
1,test,4,0.0,1-Back,1,z,Fri Feb 28 2025 16:20:12 GMT-0600 (Central Standard Time),269391.5,039_o_m_d_a.png,O,z,977,2,1,1993.0,267398.5,7073,VNB,A,1
2,test,4,0.0,1-Back,1,m,Fri Feb 28 2025 16:20:12 GMT-0600 (Central Standard Time),270974.3000000003,109_y_m_h_a.png,O,m,562,3,1,1576.7000000001863,269397.6000000001,7073,VNB,A,2
3,test,4,0.0,1-Back,1,m,Fri Feb 28 2025 16:20:12 GMT-0600 (Central Standard Time),272690.4000000004,139_m_f_n_a.png,O,m,691,4,1,1709.9000000003725,270980.5,7073,VNB,A,3
4,test,4,1.0,1-Back,1,m,Fri Feb 28 2025 16:20:12 GMT-0600 (Central Standard Time),274656.5,124_o_f_h_a.png,O,m,935,5,1,1959.2999999998137,272697.2000000002,7073,VNB,A,4
5,test,4,0.0,1-Back,1,m,Fri Feb 28 2025 16:20:12 GMT-0600 (Central Standard Time),276389.2000000002,165_m_m_n_a.png,O,m,713,6,1,1726.2000000001863,274663.0,7073,VNB,A,5
6,test,4,0.0,1-Back,1,m,Fri Feb 28 2025 16:20:12 GMT-0600 (Central Standard Time),278238.7000000002,109_y_m_d_a.png,O,m,828,7,1,1843.2999999998137,276395.4000000004,7073,VNB,A,6
6,test,4,1.0,1-Back,0,z,Fri Feb 28 2025 16:20:12 GMT-0600 (Central Standard Time),280354.5,071_y_f_d_a.png,O,m,1098,8,1,2109.399999999907,278245.1000000001,7073,VNB,A,7
7,test,4,0.0,1-Back,1,m,Fri Feb 28 2025 16:20:12 GMT-0600 (Central Standard Time),282354.2000000002,139_m_f_h_a.png,O,m,966,9,1,1993.3999999999069,280360.8000000003,7073,VNB,A,8
8,test,4,0.0,1-Back,1,z,Fri Feb 28 2025 16:20:12 GMT-0600 (Central Standard Time),284186.9000000004,039_o_m_h_a.png,O,z,807,10,1,1826.4000000003725,282360.5,7073,VNB,A,9
9,test,4,1.0,1-Back,1,m,Fri Feb 28 2025 16:20:12 GMT-0600 (Central Standard Time),285886.3000000003,124_o_f_n_a.png,O,m,671,11,1,1692.0,284194.3000000003,7073,VNB,A,10
10,test,4,0.0,1-Back,1,m,Fri Feb 28 2025 16:20:12 GMT-0600 (Central Standard Time),287635.8000000003,139_m_f_d_a.png,O,m,731,12,1,1743.1000000000931,285892.7000000002,7073,VNB,A,11
11,test,4,0.0,1-Back,1,m,Fri Feb 28 2025 16:20:12 GMT-0600 (Central Standard Time),289686.2000000002,071_y_f_n_a.png,O,m,1021,13,1,2044.0,287642.2000000002,7073,VNB,A,12
12,test,4,0.0,1-Back,1,m,Fri Feb 28 2025 16:20:12 GMT-0600 (Central Standard Time),291451.4000000004,124_o_f_d_a.png,O,m,740,14,1,1758.4000000003725,289693.0,7073,VNB,A,13
13,test,4,0.0,1-Back,1,m,Fri Feb 28 2025 16:20:12 GMT-0600 (Central Standard Time),293317.2000000002,071_y_f_h_a.png,O,m,838,15,1,1859.5,291457.7000000002,7073,VNB,A,14
14,test,4,1.0,1-Back,1,z,Fri Feb 28 2025 16:20:12 GMT-0600 (Central Standard Time),295733.2000000002,165_m_m_h_a.png,O,z,1388,16,1,2409.2000000001863,293324.0,7073,VNB,A,15
15,test,4,0.0,1-Back,1,m,Fri Feb 28 2025 16:20:12 GMT-0600 (Central Standard Time),297849.1000000001,039_o_m_n_a.png,O,m,1092,17,1,2109.100000000093,295740.0,7073,VNB,A,16
15,test,4,1.0,1-Back,0,z,Fri Feb 28 2025 16:20:12 GMT-0600 (Central Standard Time),299882.0,109_y_m_n_a.png,O,m,1008,18,1,2026.5,297855.5,7073,VNB,A,17
0,test,5,1.0,1-Back,,,Fri Feb 28 2025 16:20:12 GMT-0600 (Central Standard Time),299882.0,039_o_m_n_a.png,O,space,1375,1,1,2026.5,297855.5,7073,VNB,A,0
1,test,5,1.0,1-Back,1,m,Fri Feb 28 2025 16:20:12 GMT-0600 (Central Standard Time),305047.0,124_o_f_h_a.png,O,m,737,2,1,1759.2999999998137,303287.7000000002,7073,VNB,A,1
2,test,5,0.0,1-Back,1,m,Fri Feb 28 2025 16:20:12 GMT-0600 (Central Standard Time),307162.7000000002,109_y_m_d_a.png,O,m,1098,3,1,2109.5,305053.2000000002,7073,VNB,A,2
2,test,5,0.0,1-Back,0,z,Fri Feb 28 2025 16:20:12 GMT-0600 (Central Standard Time),309079.2000000002,039_o_m_d_a.png,O,m,894,4,1,1910.1000000000931,307169.1000000001,7073,VNB,A,3
3,test,5,0.0,1-Back,1,m,Fri Feb 28 2025 16:20:12 GMT-0600 (Central Standard Time),311061.9000000004,139_m_f_h_a.png,O,m,954,5,1,1976.0,309085.9000000004,7073,VNB,A,4
4,test,5,0.0,1-Back,1,m,Fri Feb 28 2025 16:20:12 GMT-0600 (Central Standard Time),313177.8000000003,071_y_f_n_a.png,O,m,1083,6,1,2109.100000000093,311068.7000000002,7073,VNB,A,5
5,test,5,1.0,1-Back,1,z,Fri Feb 28 2025 16:20:12 GMT-0600 (Central Standard Time),315577.0,124_o_f_n_a.png,O,z,1367,7,1,2393.0,313184.0,7073,VNB,A,6
6,test,5,0.0,1-Back,1,m,Fri Feb 28 2025 16:20:12 GMT-0600 (Central Standard Time),317322.8000000003,139_m_f_d_a.png,O,m,712,8,1,1739.3999999999069,315583.4000000004,7073,VNB,A,7
7,test,5,0.0,1-Back,1,m,Fri Feb 28 2025 16:20:12 GMT-0600 (Central Standard Time),319092.5,109_y_m_h_a.png,O,m,739,9,1,1762.5,317330.0,7073,VNB,A,8
8,test,5,0.0,1-Back,1,m,Fri Feb 28 2025 16:20:12 GMT-0600 (Central Standard Time),321242.2000000002,071_y_f_d_a.png,O,m,1117,10,1,2143.2000000001863,319099.0,7073,VNB,A,9
9,test,5,0.0,1-Back,1,m,Fri Feb 28 2025 16:20:12 GMT-0600 (Central Standard Time),323741.1000000001,165_m_m_n_a.png,O,m,1479,11,1,2492.5,321248.6000000001,7073,VNB,A,10
9,test,5,1.0,1-Back,0,z,Fri Feb 28 2025 16:20:12 GMT-0600 (Central Standard Time),326190.3000000003,139_m_f_n_a.png,O,m,1420,12,1,2442.899999999907,323747.4000000004,7073,VNB,A,11
9,test,5,0.0,1-Back,0,m,Fri Feb 28 2025 16:20:12 GMT-0600 (Central Standard Time),328039.8000000003,039_o_m_h_a.png,O,z,819,13,1,1843.5,326196.3000000003,7073,VNB,A,12
10,test,5,0.0,1-Back,1,z,Fri Feb 28 2025 16:20:12 GMT-0600 (Central Standard Time),330022.3000000003,165_m_m_h_a.png,O,z,953,14,1,1976.3999999999069,328045.9000000004,7073,VNB,A,13
11,test,5,1.0,1-Back,1,m,Fri Feb 28 2025 16:20:12 GMT-0600 (Central Standard Time),331672.1000000001,124_o_f_d_a.png,O,m,626,15,1,1642.6999999997206,330029.4000000004,7073,VNB,A,14
12,test,5,0.0,1-Back,1,m,Fri Feb 28 2025 16:20:12 GMT-0600 (Central Standard Time),333421.3000000003,109_y_m_n_a.png,O,m,721,16,1,1743.2000000001863,331678.1000000001,7073,VNB,A,15
13,test,5,0.0,1-Back,1,m,Fri Feb 28 2025 16:20:12 GMT-0600 (Central Standard Time),335204.1000000001,071_y_f_h_a.png,O,m,756,17,1,1776.0,333428.1000000001,7073,VNB,A,16
13,test,5,0.0,1-Back,0,m,Fri Feb 28 2025 16:20:12 GMT-0600 (Central Standard Time),337537.0,165_m_m_d_a.png,O,z,1301,18,1,2326.399999999907,335210.6000000001,7073,VNB,A,17
0,prac,1,0.0,2-Back,,,Fri Feb 28 2025 16:20:12 GMT-0600 (Central Standard Time),337537.0,139_m_f_n_a.png,O,space,9639,1,1,2326.399999999907,335210.6000000001,7073,VNB,A,0
0,prac,1,0.0,2-Back,,,Fri Feb 28 2025 16:20:12 GMT-0600 (Central Standard Time),337537.0,124_o_f_h_a.png,O,space,9639,2,1,2326.399999999907,335210.6000000001,7073,VNB,A,0
1,prac,1,0.0,2-Back,1,m,Fri Feb 28 2025 16:20:12 GMT-0600 (Central Standard Time),467546.4000000004,039_o_m_d_a.png,O,m,942,3,1,1742.6000000000931,465803.8000000003,7073,VNB,A,1
1,prac,1,1.0,2-Back,0,z,Fri Feb 28 2025 16:20:12 GMT-0600 (Central Standard Time),469729.0,165_m_m_h_a.png,O,m,1367,4,1,2175.2999999998137,467553.7000000002,7073,VNB,A,2
2,prac,1,0.0,2-Back,1,m,Fri Feb 28 2025 16:20:12 GMT-0600 (Central Standard Time),472361.3000000003,071_y_f_n_a.png,O,m,1823,5,1,2624.600000000093,469736.7000000002,7073,VNB,A,3
2,prac,1,1.0,2-Back,0,z,Fri Feb 28 2025 16:20:12 GMT-0600 (Central Standard Time),474344.1000000001,039_o_m_h_a.png,O,m,1169,6,1,1975.0,472369.1000000001,7073,VNB,A,4
2,prac,1,1.0,2-Back,0,z,Fri Feb 28 2025 16:20:12 GMT-0600 (Central Standard Time),477010.0,109_y_m_n_a.png,O,m,1851,7,1,2658.0,474352.0,7073,VNB,A,5
3,prac,1,0.0,2-Back,1,m,Fri Feb 28 2025 16:20:12 GMT-0600 (Central Standard Time),479442.7000000002,139_m_f_d_a.png,O,m,1623,8,1,2425.100000000093,477017.6000000001,7073,VNB,A,6
3,prac,1,0.0,2-Back,0,m,Fri Feb 28 2025 16:20:12 GMT-0600 (Central Standard Time),481591.6000000001,124_o_f_d_a.png,O,z,1304,9,1,2141.399999999907,479450.2000000002,7073,VNB,A,7
4,prac,1,0.0,2-Back,1,m,Fri Feb 28 2025 16:20:12 GMT-0600 (Central Standard Time),483607.8000000003,165_m_m_h_a.png,O,m,1225,10,1,2007.7000000001863,481600.1000000001,7073,VNB,A,8
5,prac,1,1.0,2-Back,1,z,Fri Feb 28 2025 16:20:12 GMT-0600 (Central Standard Time),485574.2000000002,071_y_f_d_a.png,O,z,1161,11,1,1959.0,483615.2000000002,7073,VNB,A,9
6,prac,1,0.0,2-Back,1,m,Fri Feb 28 2025 16:20:12 GMT-0600 (Central Standard Time),487323.5,039_o_m_n_a.png,O,m,940,12,1,1741.8999999999069,485581.6000000001,7073,VNB,A,10
0,prac,2,0.0,2-Back,,,Fri Feb 28 2025 16:20:12 GMT-0600 (Central Standard Time),487323.5,139_m_f_n_a.png,O,a,4099,1,1,1741.8999999999069,485581.6000000001,7073,VNB,A,0
0,prac,2,0.0,2-Back,,,Fri Feb 28 2025 16:20:12 GMT-0600 (Central Standard Time),487323.5,124_o_f_h_a.png,O,a,4099,2,1,1741.8999999999069,485581.6000000001,7073,VNB,A,0
1,prac,2,0.0,2-Back,1,m,Fri Feb 28 2025 16:20:12 GMT-0600 (Central Standard Time),498303.5,039_o_m_d_a.png,O,m,960,3,1,1759.0999999996275,496544.4000000004,7073,VNB,A,1
1,prac,2,1.0,2-Back,0,z,Fri Feb 28 2025 16:20:12 GMT-0600 (Central Standard Time),500969.2000000002,165_m_m_h_a.png,O,m,1891,4,1,2658.399999999907,498310.8000000003,7073,VNB,A,2
2,prac,2,0.0,2-Back,1,m,Fri Feb 28 2025 16:20:12 GMT-0600 (Central Standard Time),502968.4000000004,071_y_f_n_a.png,O,m,1183,5,1,1992.0,500976.4000000004,7073,VNB,A,3
3,prac,2,1.0,2-Back,1,z,Fri Feb 28 2025 16:20:12 GMT-0600 (Central Standard Time),504901.4000000004,039_o_m_h_a.png,O,z,1129,6,1,1925.4000000003725,502976.0,7073,VNB,A,4
3,prac,2,1.0,2-Back,0,z,Fri Feb 28 2025 16:20:12 GMT-0600 (Central Standard Time),506734.1000000001,109_y_m_n_a.png,O,m,1022,7,1,1825.3999999999069,504908.7000000002,7073,VNB,A,5
4,prac,2,0.0,2-Back,1,m,Fri Feb 28 2025 16:20:12 GMT-0600 (Central Standard Time),508700.0,139_m_f_d_a.png,O,m,1147,8,1,1958.5999999996275,506741.4000000004,7073,VNB,A,6
4,prac,2,0.0,2-Back,0,m,Fri Feb 28 2025 16:20:12 GMT-0600 (Central Standard Time),510466.2000000002,124_o_f_d_a.png,O,z,934,9,1,1758.5,508707.7000000002,7073,VNB,A,7
5,prac,2,0.0,2-Back,1,m,Fri Feb 28 2025 16:20:12 GMT-0600 (Central Standard Time),512265.6000000001,165_m_m_h_a.png,O,m,1024,10,1,1791.8999999999069,510473.7000000002,7073,VNB,A,8
5,prac,2,1.0,2-Back,0,z,Fri Feb 28 2025 16:20:12 GMT-0600 (Central Standard Time),514298.5,071_y_f_d_a.png,O,m,1225,11,1,2025.2999999998137,512273.2000000002,7073,VNB,A,9
5,prac,2,0.0,2-Back,0,m,Fri Feb 28 2025 16:20:12 GMT-0600 (Central Standard Time),517097.1000000001,039_o_m_n_a.png,O,None,2001,12,1,2790.5,514306.6000000001,7073,VNB,A,10
0,test,1,0.0,2-Back,,,Fri Feb 28 2025 16:20:12 GMT-0600 (Central Standard Time),517097.1000000001,109_y_m_h_a.png,O,space,9718,1,1,2790.5,514306.6000000001,7073,VNB,A,0
0,test,1,0.0,2-Back,,,Fri Feb 28 2025 16:20:12 GMT-0600 (Central Standard Time),517097.1000000001,124_o_f_n_a.png,O,space,9718,2,1,2790.5,514306.6000000001,7073,VNB,A,0
1,test,1,0.0,2-Back,1,z,Fri Feb 28 2025 16:20:12 GMT-0600 (Central Standard Time),540706.8000000003,039_o_m_h_a.png,O,z,584,3,1,1609.7000000001863,539097.1000000001,7073,VNB,A,1
2,test,1,0.0,2-Back,1,m,Fri Feb 28 2025 16:20:12 GMT-0600 (Central Standard Time),542289.5,139_m_f_d_a.png,O,m,551,4,1,1576.0999999996275,540713.4000000004,7073,VNB,A,2
3,test,1,1.0,2-Back,1,m,Fri Feb 28 2025 16:20:12 GMT-0600 (Central Standard Time),544472.3000000003,109_y_m_n_a.png,O,m,1151,5,1,2176.100000000093,542296.2000000002,7073,VNB,A,3
3,test,1,0.0,2-Back,0,z,Fri Feb 28 2025 16:20:12 GMT-0600 (Central Standard Time),546555.9000000004,071_y_f_d_a.png,O,m,1065,6,1,2076.9000000003725,544479.0,7073,VNB,A,4
4,test,1,0.0,2-Back,1,m,Fri Feb 28 2025 16:20:12 GMT-0600 (Central Standard Time),548537.8000000003,165_m_m_h_a.png,O,m,950,7,1,1974.3999999999069,546563.4000000004,7073,VNB,A,5
5,test,1,1.0,2-Back,1,m,Fri Feb 28 2025 16:20:12 GMT-0600 (Central Standard Time),550470.4000000004,071_y_f_n_a.png,O,m,904,8,1,1926.1000000000931,548544.3000000003,7073,VNB,A,6
5,test,1,0.0,2-Back,0,z,Fri Feb 28 2025 16:20:12 GMT-0600 (Central Standard Time),552624.8000000003,124_o_f_h_a.png,O,m,1138,9,1,2148.2000000001863,550476.6000000001,7073,VNB,A,7
6,test,1,0.0,2-Back,1,m,Fri Feb 28 2025 16:20:12 GMT-0600 (Central Standard Time),554952.3000000003,039_o_m_d_a.png,O,m,1302,10,1,2320.7000000001863,552631.6000000001,7073,VNB,A,8
6,test,1,1.0,2-Back,0,m,Fri Feb 28 2025 16:20:12 GMT-0600 (Central Standard Time),557218.2000000002,165_m_m_d_a.png,O,z,1233,11,1,2259.7000000001863,554958.5,7073,VNB,A,9
7,test,1,0.0,2-Back,1,m,Fri Feb 28 2025 16:20:12 GMT-0600 (Central Standard Time),559284.3000000003,139_m_f_n_a.png,O,m,1039,12,1,2058.2000000001863,557226.1000000001,7073,VNB,A,10
8,test,1,0.0,2-Back,1,m,Fri Feb 28 2025 16:20:12 GMT-0600 (Central Standard Time),561100.3000000003,071_y_f_h_a.png,O,m,797,13,1,1809.3000000002794,559291.0,7073,VNB,A,11
8,test,1,0.0,2-Back,0,z,Fri Feb 28 2025 16:20:12 GMT-0600 (Central Standard Time),562816.6000000001,165_m_m_n_a.png,O,m,693,14,1,1709.8999999999069,561106.7000000002,7073,VNB,A,12
9,test,1,0.0,2-Back,1,m,Fri Feb 28 2025 16:20:12 GMT-0600 (Central Standard Time),564632.4000000004,109_y_m_d_a.png,O,m,793,15,1,1809.2000000001863,562823.2000000002,7073,VNB,A,13
10,test,1,1.0,2-Back,1,m,Fri Feb 28 2025 16:20:12 GMT-0600 (Central Standard Time),566898.4000000004,139_m_f_h_a.png,O,m,1241,16,1,2259.3000000002794,564639.1000000001,7073,VNB,A,14
10,test,1,0.0,2-Back,0,z,Fri Feb 28 2025 16:20:12 GMT-0600 (Central Standard Time),568731.3000000003,124_o_f_d_a.png,O,m,815,17,1,1826.3999999999069,566904.9000000004,7073,VNB,A,15
11,test,1,0.0,2-Back,1,m,Fri Feb 28 2025 16:20:12 GMT-0600 (Central Standard Time),570997.2000000002,039_o_m_n_a.png,O,m,1246,18,1,2259.5,568737.7000000002,7073,VNB,A,16
0,test,2,0.0,2-Back,,,Fri Feb 28 2025 16:20:12 GMT-0600 (Central Standard Time),570997.2000000002,165_m_m_h_a.png,O,space,1372,1,1,2259.5,568737.7000000002,7073,VNB,A,0
0,test,2,0.0,2-Back,,,Fri Feb 28 2025 16:20:12 GMT-0600 (Central Standard Time),570997.2000000002,071_y_f_n_a.png,O,space,1372,2,1,2259.5,568737.7000000002,7073,VNB,A,0
1,test,2,1.0,2-Back,1,z,Fri Feb 28 2025 16:20:12 GMT-0600 (Central Standard Time),579228.0,124_o_f_h_a.png,O,z,747,3,1,1759.7999999998137,577468.2000000002,7073,VNB,A,1
2,test,2,0.0,2-Back,1,m,Fri Feb 28 2025 16:20:12 GMT-0600 (Central Standard Time),580961.8000000003,039_o_m_d_a.png,O,m,701,4,1,1727.2000000001863,579234.6000000001,7073,VNB,A,2
2,test,2,0.0,2-Back,0,m,Fri Feb 28 2025 16:20:12 GMT-0600 (Central Standard Time),583477.7000000002,139_m_f_d_a.png,O,z,1488,5,1,2509.100000000093,580968.6000000001,7073,VNB,A,3
3,test,2,0.0,2-Back,1,m,Fri Feb 28 2025 16:20:12 GMT-0600 (Central Standard Time),585176.0,109_y_m_h_a.png,O,m,669,6,1,1691.6999999997206,583484.3000000003,7073,VNB,A,4
4,test,2,0.0,2-Back,1,m,Fri Feb 28 2025 16:20:12 GMT-0600 (Central Standard Time),587192.2000000002,124_o_f_n_a.png,O,m,993,7,1,2009.6000000000931,585182.6000000001,7073,VNB,A,5
4,test,2,1.0,2-Back,0,z,Fri Feb 28 2025 16:20:12 GMT-0600 (Central Standard Time),589091.7000000002,039_o_m_h_a.png,O,m,873,8,1,1893.2000000001863,587198.5,7073,VNB,A,6
5,test,2,0.0,2-Back,1,m,Fri Feb 28 2025 16:20:12 GMT-0600 (Central Standard Time),590857.7000000002,071_y_f_d_a.png,O,m,734,9,1,1759.7000000001863,589098.0,7073,VNB,A,7
5,test,2,0.0,2-Back,0,m,Fri Feb 28 2025 16:20:12 GMT-0600 (Central Standard Time),592923.7000000002,109_y_m_d_a.png,O,z,1048,10,1,2058.0,590865.7000000002,7073,VNB,A,8
6,test,2,0.0,2-Back,1,m,Fri Feb 28 2025 16:20:12 GMT-0600 (Central Standard Time),594873.0,165_m_m_n_a.png,O,m,916,11,1,1943.0,592930.0,7073,VNB,A,9
7,test,2,0.0,2-Back,1,m,Fri Feb 28 2025 16:20:12 GMT-0600 (Central Standard Time),596622.5,139_m_f_h_a.png,O,m,728,12,1,1742.6999999997206,594879.8000000003,7073,VNB,A,10
7,test,2,1.0,2-Back,0,z,Fri Feb 28 2025 16:20:12 GMT-0600 (Central Standard Time),598571.9000000004,039_o_m_n_a.png,O,m,923,13,1,1942.9000000003725,596629.0,7073,VNB,A,11
7,test,2,0.0,2-Back,0,m,Fri Feb 28 2025 16:20:12 GMT-0600 (Central Standard Time),601704.3000000003,124_o_f_d_a.png,O,None,2004,14,1,3125.8000000002794,598578.5,7073,VNB,A,12
7,test,2,0.0,2-Back,0,m,Fri Feb 28 2025 16:20:12 GMT-0600 (Central Standard Time),603470.3000000003,071_y_f_h_a.png,O,z,736,15,1,1759.3000000002794,601711.0,7073,VNB,A,13
7,test,2,0.0,2-Back,0,z,Fri Feb 28 2025 16:20:12 GMT-0600 (Central Standard Time),605303.2000000002,165_m_m_d_a.png,O,m,803,16,1,1826.5,603476.7000000002,7073,VNB,A,14
8,test,2,0.0,2-Back,1,m,Fri Feb 28 2025 16:20:12 GMT-0600 (Central Standard Time),607102.9000000004,109_y_m_n_a.png,O,m,770,17,1,1793.4000000003725,605309.5,7073,VNB,A,15
9,test,2,1.0,2-Back,1,m,Fri Feb 28 2025 16:20:12 GMT-0600 (Central Standard Time),608835.2999999998,139_m_f_n_a.png,O,m,707,18,1,1725.699999999255,607109.6000000006,7073,VNB,A,16
0,test,3,1.0,2-Back,,,Fri Feb 28 2025 16:20:12 GMT-0600 (Central Standard Time),608835.2999999998,039_o_m_n_a.png,O,space,1326,1,1,1725.699999999255,607109.6000000006,7073,VNB,A,0
0,test,3,1.0,2-Back,,,Fri Feb 28 2025 16:20:12 GMT-0600 (Central Standard Time),608835.2999999998,124_o_f_d_a.png,O,space,1326,2,1,1725.699999999255,607109.6000000006,7073,VNB,A,0
1,test,3,0.0,2-Back,1,m,Fri Feb 28 2025 16:20:12 GMT-0600 (Central Standard Time),617199.5,071_y_f_h_a.png,O,m,911,3,1,1925.5,615274.0,7073,VNB,A,1
2,test,3,0.0,2-Back,1,z,Fri Feb 28 2025 16:20:12 GMT-0600 (Central Standard Time),619498.6000000006,139_m_f_d_a.png,O,z,1281,4,1,2292.100000000559,617206.5,7073,VNB,A,2
3,test,3,1.0,2-Back,1,m,Fri Feb 28 2025 16:20:12 GMT-0600 (Central Standard Time),621048.2999999998,109_y_m_n_a.png,O,m,518,5,1,1542.7999999998137,619505.5,7073,VNB,A,3
4,test,3,0.0,2-Back,1,m,Fri Feb 28 2025 16:20:12 GMT-0600 (Central Standard Time),622947.7000000002,039_o_m_h_a.png,O,m,881,6,1,1892.5999999996275,621055.1000000006,7073,VNB,A,4
4,test,3,0.0,2-Back,0,z,Fri Feb 28 2025 16:20:12 GMT-0600 (Central Standard Time),625463.6000000006,071_y_f_n_a.png,O,m,1493,7,1,2509.5,622954.1000000006,7073,VNB,A,5
5,test,3,1.0,2-Back,1,m,Fri Feb 28 2025 16:20:12 GMT-0600 (Central Standard Time),627412.9000000004,165_m_m_d_a.png,O,m,922,8,1,1942.7999999998137,625470.1000000006,7073,VNB,A,6
5,test,3,0.0,2-Back,0,m,Fri Feb 28 2025 16:20:12 GMT-0600 (Central Standard Time),629445.7999999998,109_y_m_d_a.png,O,z,1004,9,1,2026.699999999255,627419.1000000006,7073,VNB,A,7
6,test,3,0.0,2-Back,1,m,Fri Feb 28 2025 16:20:12 GMT-0600 (Central Standard Time),631428.2999999998,124_o_f_h_a.png,O,m,964,10,1,1976.0999999996275,629452.2000000002,7073,VNB,A,8
7,test,3,1.0,2-Back,1,m,Fri Feb 28 2025 16:20:12 GMT-0600 (Central Standard Time),633744.4000000004,139_m_f_n_a.png,O,m,1285,11,1,2309.9000000003725,631434.5,7073,VNB,A,9
7,test,3,1.0,2-Back,0,z,Fri Feb 28 2025 16:20:12 GMT-0600 (Central Standard Time),636759.9000000004,165_m_m_h_a.png,O,m,1993,12,1,3008.9000000003725,633751.0,7073,VNB,A,10
8,test,3,0.0,2-Back,1,m,Fri Feb 28 2025 16:20:12 GMT-0600 (Central Standard Time),638526.0,071_y_f_d_a.png,O,m,745,13,1,1759.0999999996275,636766.9000000004,7073,VNB,A,11
9,test,3,0.0,2-Back,1,m,Fri Feb 28 2025 16:20:12 GMT-0600 (Central Standard Time),640775.4000000004,124_o_f_n_a.png,O,m,1219,14,1,2242.7999999998137,638532.6000000006,7073,VNB,A,12
9,test,3,0.0,2-Back,0,z,Fri Feb 28 2025 16:20:12 GMT-0600 (Central Standard Time),642808.2000000002,039_o_m_d_a.png,O,m,1010,15,1,2025.7999999998137,640782.4000000004,7073,VNB,A,13
10,test,3,1.0,2-Back,1,m,Fri Feb 28 2025 16:20:12 GMT-0600 (Central Standard Time),645040.7000000002,139_m_f_h_a.png,O,m,1201,16,1,2226.2000000001863,642814.5,7073,VNB,A,14
10,test,3,0.0,2-Back,0,m,Fri Feb 28 2025 16:20:12 GMT-0600 (Central Standard Time),646989.9000000004,165_m_m_n_a.png,O,z,921,17,1,1943.1000000005588,645046.7999999998,7073,VNB,A,15
10,test,3,0.0,2-Back,0,z,Fri Feb 28 2025 16:20:12 GMT-0600 (Central Standard Time),648856.2999999998,109_y_m_h_a.png,O,m,843,18,1,1860.199999999255,646996.1000000006,7073,VNB,A,16
0,test,4,0.0,2-Back,,,Fri Feb 28 2025 16:20:12 GMT-0600 (Central Standard Time),648856.2999999998,139_m_f_n_a.png,O,space,1417,1,1,1860.199999999255,646996.1000000006,7073,VNB,A,0
0,test,4,0.0,2-Back,,,Fri Feb 28 2025 16:20:12 GMT-0600 (Central Standard Time),648856.2999999998,039_o_m_n_a.png,O,space,1417,2,1,1860.199999999255,646996.1000000006,7073,VNB,A,0
1,test,4,1.0,2-Back,1,m,Fri Feb 28 2025 16:20:12 GMT-0600 (Central Standard Time),657137.0,109_y_m_h_a.png,O,m,742,3,1,1758.2000000001863,655378.7999999998,7073,VNB,A,1
2,test,4,1.0,2-Back,1,m,Fri Feb 28 2025 16:20:12 GMT-0600 (Central Standard Time),658969.6000000006,124_o_f_d_a.png,O,m,808,4,1,1825.7000000001863,657143.9000000004,7073,VNB,A,2
2,test,4,0.0,2-Back,0,z,Fri Feb 28 2025 16:20:12 GMT-0600 (Central Standard Time),661352.1000000006,039_o_m_h_a.png,O,m,1359,5,1,2375.4000000003725,658976.7000000002,7073,VNB,A,3
2,test,4,0.0,2-Back,0,m,Fri Feb 28 2025 16:20:12 GMT-0600 (Central Standard Time),663884.7999999998,165_m_m_n_a.png,O,z,1505,6,1,2525.7999999998137,661359.0,7073,VNB,A,4
3,test,4,0.0,2-Back,1,m,Fri Feb 28 2025 16:20:12 GMT-0600 (Central Standard Time),665750.9000000004,139_m_f_d_a.png,O,m,844,7,1,1859.4000000003725,663891.5,7073,VNB,A,5
3,test,4,0.0,2-Back,0,z,Fri Feb 28 2025 16:20:12 GMT-0600 (Central Standard Time),667383.7000000002,071_y_f_n_a.png,O,m,610,8,1,1626.0999999996275,665757.6000000006,7073,VNB,A,6
4,test,4,1.0,2-Back,1,m,Fri Feb 28 2025 16:20:12 GMT-0600 (Central Standard Time),669283.0,124_o_f_h_a.png,O,m,882,9,1,1892.3999999994412,667390.6000000006,7073,VNB,A,7
4,test,4,0.0,2-Back,0,m,Fri Feb 28 2025 16:20:12 GMT-0600 (Central Standard Time),671415.5,165_m_m_h_a.png,O,z,1032,10,1,2126.0,669289.5,7073,VNB,A,8
5,test,4,0.0,2-Back,1,m,Fri Feb 28 2025 16:20:12 GMT-0600 (Central Standard Time),673248.5,071_y_f_d_a.png,O,m,809,11,1,1826.2999999998137,671422.2000000002,7073,VNB,A,9
6,test,4,0.0,2-Back,1,m,Fri Feb 28 2025 16:20:12 GMT-0600 (Central Standard Time),675032.5,109_y_m_n_a.png,O,m,761,12,1,1777.0,673255.5,7073,VNB,A,10
7,test,4,0.0,2-Back,1,z,Fri Feb 28 2025 16:20:12 GMT-0600 (Central Standard Time),676980.7000000002,039_o_m_d_a.png,O,z,929,13,1,1941.4000000003725,675039.2999999998,7073,VNB,A,11
8,test,4,1.0,2-Back,1,m,Fri Feb 28 2025 16:20:12 GMT-0600 (Central Standard Time),678713.4000000004,139_m_f_h_a.png,O,m,709,14,1,1726.0,676987.4000000004,7073,VNB,A,12
8,test,4,1.0,2-Back,0,m,Fri Feb 28 2025 16:20:12 GMT-0600 (Central Standard Time),680796.2000000002,071_y_f_h_a.png,O,z,1064,15,1,2075.7999999998137,678720.4000000004,7073,VNB,A,13
9,test,4,0.0,2-Back,1,m,Fri Feb 28 2025 16:20:12 GMT-0600 (Central Standard Time),682645.5,124_o_f_n_a.png,O,m,829,16,1,1842.2999999998137,680803.2000000002,7073,VNB,A,14
10,test,4,0.0,2-Back,1,m,Fri Feb 28 2025 16:20:12 GMT-0600 (Central Standard Time),684461.9000000004,109_y_m_d_a.png,O,m,787,17,1,1809.6000000005588,682652.2999999998,7073,VNB,A,15
10,test,4,1.0,2-Back,0,m,Fri Feb 28 2025 16:20:12 GMT-0600 (Central Standard Time),686710.9000000004,165_m_m_d_a.png,O,z,1220,18,1,2242.5,684468.4000000004,7073,VNB,A,16
0,test,5,1.0,2-Back,,,Fri Feb 28 2025 16:20:12 GMT-0600 (Central Standard Time),686710.9000000004,071_y_f_d_a.png,O,space,1283,1,1,2242.5,684468.4000000004,7073,VNB,A,0
0,test,5,1.0,2-Back,,,Fri Feb 28 2025 16:20:12 GMT-0600 (Central Standard Time),686710.9000000004,124_o_f_h_a.png,O,space,1283,2,1,2242.5,684468.4000000004,7073,VNB,A,0
1,test,5,1.0,2-Back,1,z,Fri Feb 28 2025 16:20:12 GMT-0600 (Central Standard Time),694925.1000000006,039_o_m_d_a.png,O,z,813,3,1,1826.6000000005588,693098.5,7073,VNB,A,1
2,test,5,1.0,2-Back,1,m,Fri Feb 28 2025 16:20:12 GMT-0600 (Central Standard Time),696759.2000000002,139_m_f_n_a.png,O,m,804,4,1,1827.7000000001863,694931.5,7073,VNB,A,2
2,test,5,0.0,2-Back,0,m,Fri Feb 28 2025 16:20:12 GMT-0600 (Central Standard Time),698823.7999999998,165_m_m_h_a.png,O,z,1035,5,1,2057.899999999441,696765.9000000004,7073,VNB,A,3
2,test,5,0.0,2-Back,0,z,Fri Feb 28 2025 16:20:12 GMT-0600 (Central Standard Time),700656.6000000006,071_y_f_n_a.png,O,m,801,6,1,1825.9000000003725,698830.7000000002,7073,VNB,A,4
3,test,5,0.0,2-Back,1,m,Fri Feb 28 2025 16:20:12 GMT-0600 (Central Standard Time),702606.0,124_o_f_d_a.png,O,m,921,7,1,1942.7999999998137,700663.2000000002,7073,VNB,A,5
4,test,5,0.0,2-Back,1,m,Fri Feb 28 2025 16:20:12 GMT-0600 (Central Standard Time),704622.0,039_o_m_h_a.png,O,m,995,8,1,2008.5999999996275,702613.4000000004,7073,VNB,A,6
4,test,5,1.0,2-Back,0,z,Fri Feb 28 2025 16:20:12 GMT-0600 (Central Standard Time),706971.5,139_m_f_d_a.png,O,m,1323,9,1,2342.7999999998137,704628.7000000002,7073,VNB,A,7
5,test,5,0.0,2-Back,1,m,Fri Feb 28 2025 16:20:12 GMT-0600 (Central Standard Time),709254.0,109_y_m_n_a.png,O,m,1262,10,1,2276.0,706978.0,7073,VNB,A,8
5,test,5,0.0,2-Back,0,m,Fri Feb 28 2025 16:20:12 GMT-0600 (Central Standard Time),711319.7000000002,165_m_m_n_a.png,O,z,1043,11,1,2059.0,709260.7000000002,7073,VNB,A,9
6,test,5,0.0,2-Back,1,m,Fri Feb 28 2025 16:20:12 GMT-0600 (Central Standard Time),713102.7000000002,071_y_f_h_a.png,O,m,761,12,1,1775.9000000003725,711326.7999999998,7073,VNB,A,10
7,test,5,0.0,2-Back,1,m,Fri Feb 28 2025 16:20:12 GMT-0600 (Central Standard Time),715018.7000000002,109_y_m_d_a.png,O,m,882,13,1,1909.2999999998137,713109.4000000004,7073,VNB,A,11
8,test,5,1.0,2-Back,1,z,Fri Feb 28 2025 16:20:12 GMT-0600 (Central Standard Time),716684.9000000004,139_m_f_h_a.png,O,z,637,14,1,1658.7999999998137,715026.1000000006,7073,VNB,A,12
9,test,5,0.0,2-Back,1,m,Fri Feb 28 2025 16:20:12 GMT-0600 (Central Standard Time),718684.4000000004,039_o_m_n_a.png,O,m,972,15,1,1992.9000000003725,716691.5,7073,VNB,A,13
10,test,5,0.0,2-Back,1,m,Fri Feb 28 2025 16:20:12 GMT-0600 (Central Standard Time),720700.5,165_m_m_d_a.png,O,m,989,16,1,2009.0999999996275,718691.4000000004,7073,VNB,A,14
11,test,5,0.0,2-Back,1,z,Fri Feb 28 2025 16:20:12 GMT-0600 (Central Standard Time),722699.6000000006,124_o_f_n_a.png,O,z,973,17,1,1992.6000000005588,720707.0,7073,VNB,A,15
12,test,5,1.0,2-Back,1,m,Fri Feb 28 2025 16:20:12 GMT-0600 (Central Standard Time),724549.2999999998,109_y_m_h_a.png,O,m,829,18,1,1842.5999999996275,722706.7000000002,7073,VNB,A,16
