acc_sum,block,block_c,change,condition,correct,correct_response,datetime,endtime,face,project,response,response_time,row_sel,session_number,start_end,starttime,subject_id,task,task_vers,trial
0,prac,1,,1-Back,,,Thu Mar 27 2025 10:56:52 GMT-0500 (Central Daylight Time),,124_o_f_d_a.png,O,space,9034,1,1,,,7106,VNB,A,0
1,prac,1,0.0,1-Back,1,m,Thu Mar 27 2025 10:56:52 GMT-0500 (Central Daylight Time),120018.89999997616,071_y_f_n_a.png,O,m,1451,2,1,2289.7999999523163,117729.10000002384,7106,VNB,A,1
1,prac,1,0.0,1-Back,0,m,Thu Mar 27 2025 10:56:52 GMT-0500 (Central Daylight Time),122884.19999998808,165_m_m_h_a.png,O,None,2011,3,1,2828.399999976158,120055.80000001192,7106,VNB,A,2
2,prac,1,0.0,1-Back,1,m,Thu Mar 27 2025 10:56:52 GMT-0500 (Central Daylight Time),125733.19999998808,109_y_m_d_a.png,O,m,1989,4,1,2821.599999964237,122911.60000002384,7106,VNB,A,3
2,prac,1,0.0,1-Back,0,m,Thu Mar 27 2025 10:56:52 GMT-0500 (Central Daylight Time),128065.5,124_o_f_n_a.png,O,z,1445,5,1,2304.300000011921,125761.19999998808,7106,VNB,A,4
2,prac,1,1.0,1-Back,0,z,Thu Mar 27 2025 10:56:52 GMT-0500 (Central Daylight Time),130931.0,109_y_m_n_a.png,O,None,2009,6,1,2832.399999976158,128098.60000002384,7106,VNB,A,5
3,prac,1,0.0,1-Back,1,m,Thu Mar 27 2025 10:56:52 GMT-0500 (Central Daylight Time),132930.80000001192,039_o_m_h_a.png,O,m,1152,7,1,1973.4000000357628,130957.39999997616,7106,VNB,A,6
4,prac,1,0.0,1-Back,1,m,Thu Mar 27 2025 10:56:52 GMT-0500 (Central Daylight Time),134946.80000001192,139_m_f_d_a.png,O,m,1172,8,1,1986.6000000238419,132960.19999998808,7106,VNB,A,7
5,prac,1,1.0,1-Back,1,z,Thu Mar 27 2025 10:56:52 GMT-0500 (Central Daylight Time),137012.60000002384,071_y_f_d_a.png,O,z,1220,9,1,2038.9000000357628,134973.69999998808,7106,VNB,A,8
6,prac,1,0.0,1-Back,1,m,Thu Mar 27 2025 10:56:52 GMT-0500 (Central Daylight Time),139562.0,165_m_m_n_a.png,O,m,1700,10,1,2520.699999988079,137041.30000001192,7106,VNB,A,9
7,prac,1,0.0,1-Back,1,m,Thu Mar 27 2025 10:56:52 GMT-0500 (Central Daylight Time),141994.39999997616,124_o_f_h_a.png,O,m,1549,11,1,2404.2999999523163,139590.10000002384,7106,VNB,A,10
8,prac,1,0.0,1-Back,1,m,Thu Mar 27 2025 10:56:52 GMT-0500 (Central Daylight Time),144177.19999998808,109_y_m_d_a.png,O,m,1373,12,1,2155.5,142021.69999998808,7106,VNB,A,11
0,test,1,0.0,1-Back,,,Thu Mar 27 2025 10:56:52 GMT-0500 (Central Daylight Time),144177.19999998808,071_y_f_d_a.png,O,space,12234,1,1,2155.5,142021.69999998808,7106,VNB,A,0
1,test,1,0.0,1-Back,1,m,Thu Mar 27 2025 10:56:52 GMT-0500 (Central Daylight Time),166869.39999997616,139_m_f_n_a.png,O,m,1130,2,1,2147.899999976158,164721.5,7106,VNB,A,1
2,test,1,0.0,1-Back,1,m,Thu Mar 27 2025 10:56:52 GMT-0500 (Central Daylight Time),168952.39999997616,039_o_m_h_a.png,O,m,1019,3,1,2048.699999988079,166903.69999998808,7106,VNB,A,2
3,test,1,1.0,1-Back,1,z,Thu Mar 27 2025 10:56:52 GMT-0500 (Central Daylight Time),171168.19999998808,165_m_m_h_a.png,O,z,1160,4,1,2180.199999988079,168988.0,7106,VNB,A,3
4,test,1,0.0,1-Back,1,m,Thu Mar 27 2025 10:56:52 GMT-0500 (Central Daylight Time),173034.19999998808,124_o_f_n_a.png,O,m,801,5,1,1831.199999988079,171203.0,7106,VNB,A,4
5,test,1,0.0,1-Back,1,m,Thu Mar 27 2025 10:56:52 GMT-0500 (Central Daylight Time),175483.39999997616,109_y_m_d_a.png,O,m,1399,6,1,2418.899999976158,173064.5,7106,VNB,A,5
6,test,1,1.0,1-Back,1,z,Thu Mar 27 2025 10:56:52 GMT-0500 (Central Daylight Time),177632.30000001192,139_m_f_d_a.png,O,z,1093,7,1,2112.800000011921,175519.5,7106,VNB,A,6
7,test,1,0.0,1-Back,1,m,Thu Mar 27 2025 10:56:52 GMT-0500 (Central Daylight Time),179764.60000002384,071_y_f_h_a.png,O,m,1088,8,1,2105.600000023842,177659.0,7106,VNB,A,7
8,test,1,0.0,1-Back,1,m,Thu Mar 27 2025 10:56:52 GMT-0500 (Central Daylight Time),182014.30000001192,039_o_m_n_a.png,O,m,1204,9,1,2230.100000023842,179784.19999998808,7106,VNB,A,8
9,test,1,0.0,1-Back,1,m,Thu Mar 27 2025 10:56:52 GMT-0500 (Central Daylight Time),184230.60000002384,109_y_m_h_a.png,O,m,1171,10,1,2188.7000000476837,182041.89999997616,7106,VNB,A,9
10,test,1,0.0,1-Back,1,m,Thu Mar 27 2025 10:56:52 GMT-0500 (Central Daylight Time),186613.0,039_o_m_d_a.png,O,m,1346,11,1,2355.699999988079,184257.30000001192,7106,VNB,A,10
11,test,1,1.0,1-Back,1,z,Thu Mar 27 2025 10:56:52 GMT-0500 (Central Daylight Time),189178.89999997616,124_o_f_d_a.png,O,z,1508,12,1,2531.199999988079,186647.69999998808,7106,VNB,A,11
12,test,1,0.0,1-Back,1,m,Thu Mar 27 2025 10:56:52 GMT-0500 (Central Daylight Time),191428.30000001192,165_m_m_n_a.png,O,m,1199,13,1,2221.5,189206.80000001192,7106,VNB,A,12
13,test,1,1.0,1-Back,1,z,Thu Mar 27 2025 10:56:52 GMT-0500 (Central Daylight Time),193643.30000001192,071_y_f_n_a.png,O,z,1172,14,1,2186.300000011921,191457.0,7106,VNB,A,13
14,test,1,0.0,1-Back,1,m,Thu Mar 27 2025 10:56:52 GMT-0500 (Central Daylight Time),195659.30000001192,139_m_f_h_a.png,O,m,983,15,1,2006.9000000357628,193652.39999997616,7106,VNB,A,14
15,test,1,0.0,1-Back,1,m,Thu Mar 27 2025 10:56:52 GMT-0500 (Central Daylight Time),197826.0,165_m_m_d_a.png,O,m,1134,16,1,2157.699999988079,195668.30000001192,7106,VNB,A,15
16,test,1,0.0,1-Back,1,m,Thu Mar 27 2025 10:56:52 GMT-0500 (Central Daylight Time),200258.60000002384,109_y_m_n_a.png,O,m,1375,17,1,2397.100000023842,197861.5,7106,VNB,A,16
17,test,1,0.0,1-Back,1,m,Thu Mar 27 2025 10:56:52 GMT-0500 (Central Daylight Time),202607.80000001192,124_o_f_h_a.png,O,m,1287,18,1,2314.300000011921,200293.5,7106,VNB,A,17
0,test,2,0.0,1-Back,,,Thu Mar 27 2025 10:56:52 GMT-0500 (Central Daylight Time),202607.80000001192,109_y_m_n_a.png,O,space,1490,1,1,2314.300000011921,200293.5,7106,VNB,A,0
1,test,2,0.0,1-Back,1,m,Thu Mar 27 2025 10:56:52 GMT-0500 (Central Daylight Time),208139.5,071_y_f_h_a.png,O,m,941,2,1,1967.0,206172.5,7106,VNB,A,1
2,test,2,1.0,1-Back,1,m,Thu Mar 27 2025 10:56:52 GMT-0500 (Central Daylight Time),210571.10000002384,039_o_m_n_a.png,O,m,1389,3,1,2402.300000011921,208168.80000001192,7106,VNB,A,2
2,test,2,0.0,1-Back,0,m,Thu Mar 27 2025 10:56:52 GMT-0500 (Central Daylight Time),213604.30000001192,139_m_f_d_a.png,O,None,2014,4,1,3021.100000023842,210583.19999998808,7106,VNB,A,3
3,test,2,0.0,1-Back,1,z,Thu Mar 27 2025 10:56:52 GMT-0500 (Central Daylight Time),215820.10000002384,165_m_m_d_a.png,O,z,1173,5,1,2190.7000000476837,213629.39999997616,7106,VNB,A,4
4,test,2,0.0,1-Back,1,m,Thu Mar 27 2025 10:56:52 GMT-0500 (Central Daylight Time),217786.5,109_y_m_h_a.png,O,m,918,6,1,1938.1000000238419,215848.39999997616,7106,VNB,A,5
5,test,2,1.0,1-Back,1,z,Thu Mar 27 2025 10:56:52 GMT-0500 (Central Daylight Time),220001.60000002384,124_o_f_h_a.png,O,z,1160,7,1,2181.600000023842,217820.0,7106,VNB,A,6
6,test,2,0.0,1-Back,1,m,Thu Mar 27 2025 10:56:52 GMT-0500 (Central Daylight Time),222368.0,139_m_f_n_a.png,O,m,1319,8,1,2348.199999988079,220019.80000001192,7106,VNB,A,7
7,test,2,0.0,1-Back,1,m,Thu Mar 27 2025 10:56:52 GMT-0500 (Central Daylight Time),225117.0,071_y_f_d_a.png,O,m,1706,9,1,2723.199999988079,222393.80000001192,7106,VNB,A,8
8,test,2,0.0,1-Back,1,m,Thu Mar 27 2025 10:56:52 GMT-0500 (Central Daylight Time),227750.60000002384,165_m_m_n_a.png,O,m,1599,10,1,2602.5,225148.10000002384,7106,VNB,A,9
9,test,2,1.0,1-Back,1,m,Thu Mar 27 2025 10:56:52 GMT-0500 (Central Daylight Time),229848.30000001192,139_m_f_h_a.png,O,m,1042,11,1,2065.600000023842,227782.69999998808,7106,VNB,A,10
10,test,2,0.0,1-Back,1,z,Thu Mar 27 2025 10:56:52 GMT-0500 (Central Daylight Time),232031.39999997616,039_o_m_h_a.png,O,z,1137,12,1,2155.199999988079,229876.19999998808,7106,VNB,A,11
11,test,2,0.0,1-Back,1,m,Thu Mar 27 2025 10:56:52 GMT-0500 (Central Daylight Time),234164.69999998808,109_y_m_d_a.png,O,m,1081,13,1,2098.899999976158,232065.80000001192,7106,VNB,A,12
11,test,2,0.0,1-Back,0,m,Thu Mar 27 2025 10:56:52 GMT-0500 (Central Daylight Time),236446.60000002384,124_o_f_n_a.png,O,z,1229,14,1,2246.0,234200.60000002384,7106,VNB,A,13
12,test,2,0.0,1-Back,1,z,Thu Mar 27 2025 10:56:52 GMT-0500 (Central Daylight Time),238761.60000002384,071_y_f_n_a.png,O,z,1248,15,1,2280.7000000476837,236480.89999997616,7106,VNB,A,14
13,test,2,1.0,1-Back,1,m,Thu Mar 27 2025 10:56:52 GMT-0500 (Central Daylight Time),240861.39999997616,165_m_m_h_a.png,O,m,1079,16,1,2090.0,238771.39999997616,7106,VNB,A,15
14,test,2,0.0,1-Back,1,m,Thu Mar 27 2025 10:56:52 GMT-0500 (Central Daylight Time),243311.30000001192,124_o_f_d_a.png,O,m,1404,17,1,2417.699999988079,240893.60000002384,7106,VNB,A,16
15,test,2,1.0,1-Back,1,z,Thu Mar 27 2025 10:56:52 GMT-0500 (Central Daylight Time),245610.60000002384,039_o_m_d_a.png,O,z,1233,18,1,2264.800000011921,243345.80000001192,7106,VNB,A,17
0,test,3,1.0,1-Back,,,Thu Mar 27 2025 10:56:52 GMT-0500 (Central Daylight Time),245610.60000002384,124_o_f_h_a.png,O,space,1439,1,1,2264.800000011921,243345.80000001192,7106,VNB,A,0
1,test,3,0.0,1-Back,1,m,Thu Mar 27 2025 10:56:52 GMT-0500 (Central Daylight Time),251675.10000002384,139_m_f_d_a.png,O,m,1450,2,1,2470.2000000476837,249204.89999997616,7106,VNB,A,1
2,test,3,1.0,1-Back,1,m,Thu Mar 27 2025 10:56:52 GMT-0500 (Central Daylight Time),254057.5,165_m_m_n_a.png,O,m,1343,3,1,2358.100000023842,251699.39999997616,7106,VNB,A,2
3,test,3,0.0,1-Back,1,z,Thu Mar 27 2025 10:56:52 GMT-0500 (Central Daylight Time),256539.89999997616,124_o_f_n_a.png,O,z,1415,4,1,2447.099999964237,254092.80000001192,7106,VNB,A,3
4,test,3,1.0,1-Back,1,m,Thu Mar 27 2025 10:56:52 GMT-0500 (Central Daylight Time),259022.5,039_o_m_d_a.png,O,m,1429,5,1,2445.0,256577.5,7106,VNB,A,4
5,test,3,0.0,1-Back,1,m,Thu Mar 27 2025 10:56:52 GMT-0500 (Central Daylight Time),261589.0,071_y_f_h_a.png,O,m,1531,6,1,2541.199999988079,259047.80000001192,7106,VNB,A,5
6,test,3,0.0,1-Back,1,z,Thu Mar 27 2025 10:56:52 GMT-0500 (Central Daylight Time),263805.0,109_y_m_h_a.png,O,z,1164,7,1,2182.300000011921,261622.69999998808,7106,VNB,A,6
7,test,3,0.0,1-Back,1,m,Thu Mar 27 2025 10:56:52 GMT-0500 (Central Daylight Time),266353.60000002384,139_m_f_n_a.png,O,m,1484,8,1,2514.800000011921,263838.8000000119,7106,VNB,A,7
8,test,3,0.0,1-Back,1,m,Thu Mar 27 2025 10:56:52 GMT-0500 (Central Daylight Time),268902.6999999881,071_y_f_d_a.png,O,m,1487,9,1,2512.800000011921,266389.89999997616,7106,VNB,A,8
9,test,3,1.0,1-Back,1,m,Thu Mar 27 2025 10:56:52 GMT-0500 (Central Daylight Time),271351.8000000119,039_o_m_n_a.png,O,m,1386,10,1,2414.0,268937.8000000119,7106,VNB,A,9
10,test,3,0.0,1-Back,1,m,Thu Mar 27 2025 10:56:52 GMT-0500 (Central Daylight Time),273384.3000000119,165_m_m_h_a.png,O,m,993,11,1,2005.800000011921,271378.5,7106,VNB,A,10
11,test,3,0.0,1-Back,1,z,Thu Mar 27 2025 10:56:52 GMT-0500 (Central Daylight Time),275583.89999997616,139_m_f_h_a.png,O,z,1153,12,1,2179.0,273404.89999997616,7106,VNB,A,11
12,test,3,1.0,1-Back,1,m,Thu Mar 27 2025 10:56:52 GMT-0500 (Central Daylight Time),277616.5,124_o_f_d_a.png,O,m,993,13,1,2005.3999999761581,275611.10000002384,7106,VNB,A,12
13,test,3,0.0,1-Back,1,z,Thu Mar 27 2025 10:56:52 GMT-0500 (Central Daylight Time),280332.3000000119,165_m_m_d_a.png,O,z,1665,14,1,2686.100000023842,277646.1999999881,7106,VNB,A,13
14,test,3,0.0,1-Back,1,m,Thu Mar 27 2025 10:56:52 GMT-0500 (Central Daylight Time),282481.1999999881,109_y_m_n_a.png,O,m,1093,15,1,2112.599999964237,280368.60000002384,7106,VNB,A,14
15,test,3,1.0,1-Back,1,m,Thu Mar 27 2025 10:56:52 GMT-0500 (Central Daylight Time),284897.39999997616,039_o_m_h_a.png,O,m,1376,16,1,2390.0,282507.39999997616,7106,VNB,A,15
16,test,3,0.0,1-Back,1,m,Thu Mar 27 2025 10:56:52 GMT-0500 (Central Daylight Time),287829.6999999881,109_y_m_d_a.png,O,m,1871,17,1,2897.099999964237,284932.60000002384,7106,VNB,A,16
17,test,3,1.0,1-Back,1,m,Thu Mar 27 2025 10:56:52 GMT-0500 (Central Daylight Time),290828.89999997616,071_y_f_n_a.png,O,m,1947,18,1,2963.599999964237,287865.3000000119,7106,VNB,A,17
0,test,4,1.0,1-Back,,,Thu Mar 27 2025 10:56:52 GMT-0500 (Central Daylight Time),290828.89999997616,165_m_m_d_a.png,O,space,1085,1,1,2963.599999964237,287865.3000000119,7106,VNB,A,0
1,test,4,0.0,1-Back,1,z,Thu Mar 27 2025 10:56:52 GMT-0500 (Central Daylight Time),296193.8000000119,039_o_m_d_a.png,O,z,1185,2,1,2200.800000011921,293993.0,7106,VNB,A,1
2,test,4,0.0,1-Back,1,m,Thu Mar 27 2025 10:56:52 GMT-0500 (Central Daylight Time),298393.10000002384,109_y_m_h_a.png,O,m,1152,3,1,2174.900000035763,296218.1999999881,7106,VNB,A,2
3,test,4,0.0,1-Back,1,m,Thu Mar 27 2025 10:56:52 GMT-0500 (Central Daylight Time),300975.39999997616,139_m_f_n_a.png,O,m,1520,4,1,2547.899999976158,298427.5,7106,VNB,A,3
4,test,4,1.0,1-Back,1,m,Thu Mar 27 2025 10:56:52 GMT-0500 (Central Daylight Time),303108.5,124_o_f_h_a.png,O,m,1066,5,1,2094.800000011921,301013.6999999881,7106,VNB,A,4
5,test,4,0.0,1-Back,1,m,Thu Mar 27 2025 10:56:52 GMT-0500 (Central Daylight Time),305290.89999997616,165_m_m_n_a.png,O,m,1117,6,1,2146.699999988079,303144.1999999881,7106,VNB,A,5
6,test,4,0.0,1-Back,1,m,Thu Mar 27 2025 10:56:52 GMT-0500 (Central Daylight Time),307906.10000002384,109_y_m_d_a.png,O,m,1557,7,1,2580.0,305326.10000002384,7106,VNB,A,6
7,test,4,1.0,1-Back,1,z,Thu Mar 27 2025 10:56:52 GMT-0500 (Central Daylight Time),310322.8000000119,071_y_f_d_a.png,O,z,1351,8,1,2382.199999988079,307940.60000002384,7106,VNB,A,7
8,test,4,0.0,1-Back,1,m,Thu Mar 27 2025 10:56:52 GMT-0500 (Central Daylight Time),312288.39999997616,139_m_f_h_a.png,O,m,927,9,1,1939.5,310348.89999997616,7106,VNB,A,8
9,test,4,0.0,1-Back,1,z,Thu Mar 27 2025 10:56:52 GMT-0500 (Central Daylight Time),314703.60000002384,039_o_m_h_a.png,O,z,1360,10,1,2381.2000000476837,312322.39999997616,7106,VNB,A,9
10,test,4,1.0,1-Back,1,m,Thu Mar 27 2025 10:56:52 GMT-0500 (Central Daylight Time),317037.39999997616,124_o_f_n_a.png,O,m,1298,11,1,2312.399999976158,314725.0,7106,VNB,A,10
11,test,4,0.0,1-Back,1,m,Thu Mar 27 2025 10:56:52 GMT-0500 (Central Daylight Time),319952.0,139_m_f_d_a.png,O,m,1868,12,1,2885.800000011921,317066.1999999881,7106,VNB,A,11
12,test,4,0.0,1-Back,1,m,Thu Mar 27 2025 10:56:52 GMT-0500 (Central Daylight Time),322418.5,071_y_f_n_a.png,O,m,1417,13,1,2448.199999988079,319970.3000000119,7106,VNB,A,12
13,test,4,0.0,1-Back,1,m,Thu Mar 27 2025 10:56:52 GMT-0500 (Central Daylight Time),325017.89999997616,124_o_f_d_a.png,O,m,1543,14,1,2563.0,322454.89999997616,7106,VNB,A,13
14,test,4,0.0,1-Back,1,m,Thu Mar 27 2025 10:56:52 GMT-0500 (Central Daylight Time),327450.10000002384,071_y_f_h_a.png,O,m,1392,15,1,2403.900000035763,325046.1999999881,7106,VNB,A,14
15,test,4,1.0,1-Back,1,z,Thu Mar 27 2025 10:56:52 GMT-0500 (Central Daylight Time),329432.8000000119,165_m_m_h_a.png,O,z,944,16,1,1954.5,327478.3000000119,7106,VNB,A,15
16,test,4,0.0,1-Back,1,m,Thu Mar 27 2025 10:56:52 GMT-0500 (Central Daylight Time),331432.1999999881,039_o_m_n_a.png,O,m,953,17,1,1973.0999999642372,329459.10000002384,7106,VNB,A,16
17,test,4,1.0,1-Back,1,z,Thu Mar 27 2025 10:56:52 GMT-0500 (Central Daylight Time),333648.0,109_y_m_n_a.png,O,z,1161,18,1,2183.600000023842,331464.39999997616,7106,VNB,A,17
0,test,5,1.0,1-Back,,,Thu Mar 27 2025 10:56:52 GMT-0500 (Central Daylight Time),333648.0,039_o_m_n_a.png,O,space,1218,1,1,2183.600000023842,331464.39999997616,7106,VNB,A,0
1,test,5,1.0,1-Back,1,m,Thu Mar 27 2025 10:56:52 GMT-0500 (Central Daylight Time),339013.3000000119,124_o_f_h_a.png,O,m,1047,2,1,2066.100000023842,336947.1999999881,7106,VNB,A,1
2,test,5,0.0,1-Back,1,m,Thu Mar 27 2025 10:56:52 GMT-0500 (Central Daylight Time),341495.3000000119,109_y_m_d_a.png,O,m,1420,3,1,2447.300000011921,339048.0,7106,VNB,A,2
3,test,5,0.0,1-Back,1,z,Thu Mar 27 2025 10:56:52 GMT-0500 (Central Daylight Time),343978.0,039_o_m_d_a.png,O,z,1442,4,1,2454.800000011921,341523.1999999881,7106,VNB,A,3
4,test,5,0.0,1-Back,1,m,Thu Mar 27 2025 10:56:52 GMT-0500 (Central Daylight Time),346060.5,139_m_f_h_a.png,O,m,1040,5,1,2052.800000011921,344007.6999999881,7106,VNB,A,4
5,test,5,0.0,1-Back,1,m,Thu Mar 27 2025 10:56:52 GMT-0500 (Central Daylight Time),348310.1999999881,071_y_f_n_a.png,O,m,1188,6,1,2215.599999964237,346094.60000002384,7106,VNB,A,5
6,test,5,1.0,1-Back,1,z,Thu Mar 27 2025 10:56:52 GMT-0500 (Central Daylight Time),350509.0,124_o_f_n_a.png,O,z,1147,7,1,2160.0,348349.0,7106,VNB,A,6
7,test,5,0.0,1-Back,1,m,Thu Mar 27 2025 10:56:52 GMT-0500 (Central Daylight Time),352758.1999999881,139_m_f_d_a.png,O,m,1188,8,1,2215.800000011921,350542.39999997616,7106,VNB,A,7
8,test,5,0.0,1-Back,1,m,Thu Mar 27 2025 10:56:52 GMT-0500 (Central Daylight Time),354790.8000000119,109_y_m_h_a.png,O,m,971,9,1,1998.199999988079,352792.60000002384,7106,VNB,A,8
9,test,5,0.0,1-Back,1,m,Thu Mar 27 2025 10:56:52 GMT-0500 (Central Daylight Time),356724.39999997616,071_y_f_d_a.png,O,m,882,10,1,1891.7999999523163,354832.60000002384,7106,VNB,A,9
10,test,5,0.0,1-Back,1,m,Thu Mar 27 2025 10:56:52 GMT-0500 (Central Daylight Time),358739.89999997616,165_m_m_n_a.png,O,m,957,11,1,1983.199999988079,356756.6999999881,7106,VNB,A,10
11,test,5,1.0,1-Back,1,z,Thu Mar 27 2025 10:56:52 GMT-0500 (Central Daylight Time),360804.89999997616,139_m_f_n_a.png,O,z,1029,12,1,2036.199999988079,358768.6999999881,7106,VNB,A,11
12,test,5,0.0,1-Back,1,m,Thu Mar 27 2025 10:56:52 GMT-0500 (Central Daylight Time),362705.10000002384,039_o_m_h_a.png,O,m,876,13,1,1885.9000000357628,360819.1999999881,7106,VNB,A,12
13,test,5,0.0,1-Back,1,z,Thu Mar 27 2025 10:56:52 GMT-0500 (Central Daylight Time),364754.60000002384,165_m_m_h_a.png,O,z,1001,14,1,2024.4000000357628,362730.1999999881,7106,VNB,A,13
14,test,5,1.0,1-Back,1,m,Thu Mar 27 2025 10:56:52 GMT-0500 (Central Daylight Time),366853.8000000119,124_o_f_d_a.png,O,m,1038,15,1,2064.5,364789.3000000119,7106,VNB,A,14
15,test,5,0.0,1-Back,1,m,Thu Mar 27 2025 10:56:52 GMT-0500 (Central Daylight Time),368936.1999999881,109_y_m_n_a.png,O,m,1020,16,1,2046.300000011921,366889.89999997616,7106,VNB,A,15
16,test,5,0.0,1-Back,1,m,Thu Mar 27 2025 10:56:52 GMT-0500 (Central Daylight Time),371202.1999999881,071_y_f_h_a.png,O,m,1217,17,1,2237.300000011921,368964.89999997616,7106,VNB,A,16
17,test,5,0.0,1-Back,1,m,Thu Mar 27 2025 10:56:52 GMT-0500 (Central Daylight Time),373634.89999997616,165_m_m_d_a.png,O,m,1383,18,1,2405.199999988079,371229.6999999881,7106,VNB,A,17
0,prac,1,0.0,2-Back,,,Thu Mar 27 2025 10:56:52 GMT-0500 (Central Daylight Time),373634.89999997616,139_m_f_n_a.png,O,space,8810,1,1,2405.199999988079,371229.6999999881,7106,VNB,A,0
0,prac,1,0.0,2-Back,,,Thu Mar 27 2025 10:56:52 GMT-0500 (Central Daylight Time),373634.89999997616,124_o_f_h_a.png,O,space,8810,2,1,2405.199999988079,371229.6999999881,7106,VNB,A,0
1,prac,1,0.0,2-Back,1,m,Thu Mar 27 2025 10:56:52 GMT-0500 (Central Daylight Time),466654.6999999881,039_o_m_d_a.png,O,m,1777,3,1,2622.899999976158,464031.8000000119,7106,VNB,A,1
2,prac,1,1.0,2-Back,1,z,Thu Mar 27 2025 10:56:52 GMT-0500 (Central Daylight Time),468620.5,165_m_m_h_a.png,O,z,1097,4,1,1935.699999988079,466684.8000000119,7106,VNB,A,2
3,prac,1,0.0,2-Back,1,m,Thu Mar 27 2025 10:56:52 GMT-0500 (Central Daylight Time),470918.6999999881,071_y_f_n_a.png,O,m,1419,5,1,2261.699999988079,468657.0,7106,VNB,A,3
3,prac,1,1.0,2-Back,0,z,Thu Mar 27 2025 10:56:52 GMT-0500 (Central Daylight Time),473520.0,039_o_m_h_a.png,O,m,1773,6,1,2585.300000011921,470934.6999999881,7106,VNB,A,4
3,prac,1,1.0,2-Back,0,z,Thu Mar 27 2025 10:56:52 GMT-0500 (Central Daylight Time),476417.6999999881,109_y_m_n_a.png,O,None,2014,7,1,2867.300000011921,473550.39999997616,7106,VNB,A,5
4,prac,1,0.0,2-Back,1,m,Thu Mar 27 2025 10:56:52 GMT-0500 (Central Daylight Time),479233.5,139_m_f_d_a.png,O,m,1953,8,1,2777.800000011921,476455.6999999881,7106,VNB,A,6
4,prac,1,0.0,2-Back,0,m,Thu Mar 27 2025 10:56:52 GMT-0500 (Central Daylight Time),482149.0,124_o_f_d_a.png,O,None,2012,9,1,2875.800000011921,479273.1999999881,7106,VNB,A,7
5,prac,1,0.0,2-Back,1,m,Thu Mar 27 2025 10:56:52 GMT-0500 (Central Daylight Time),484498.5,165_m_m_h_a.png,O,m,1482,10,1,2312.600000023842,482185.89999997616,7106,VNB,A,8
5,prac,1,1.0,2-Back,0,z,Thu Mar 27 2025 10:56:52 GMT-0500 (Central Daylight Time),486548.0,071_y_f_d_a.png,O,m,1202,11,1,2017.5,484530.5,7106,VNB,A,9
6,prac,1,0.0,2-Back,1,m,Thu Mar 27 2025 10:56:52 GMT-0500 (Central Daylight Time),488997.10000002384,039_o_m_n_a.png,O,m,1584,12,1,2422.900000035763,486574.1999999881,7106,VNB,A,10
0,prac,2,0.0,2-Back,,,Thu Mar 27 2025 10:56:52 GMT-0500 (Central Daylight Time),488997.10000002384,139_m_f_n_a.png,O,a,12801,1,1,2422.900000035763,486574.1999999881,7106,VNB,A,0
0,prac,2,0.0,2-Back,,,Thu Mar 27 2025 10:56:52 GMT-0500 (Central Daylight Time),488997.10000002384,124_o_f_h_a.png,O,a,12801,2,1,2422.900000035763,486574.1999999881,7106,VNB,A,0
1,prac,2,0.0,2-Back,1,m,Thu Mar 27 2025 10:56:52 GMT-0500 (Central Daylight Time),509207.3000000119,039_o_m_d_a.png,O,m,1297,3,1,2118.300000011921,507089.0,7106,VNB,A,1
2,prac,2,1.0,2-Back,1,z,Thu Mar 27 2025 10:56:52 GMT-0500 (Central Daylight Time),511105.5,165_m_m_h_a.png,O,z,1034,4,1,1859.800000011921,509245.6999999881,7106,VNB,A,2
3,prac,2,0.0,2-Back,1,m,Thu Mar 27 2025 10:56:52 GMT-0500 (Central Daylight Time),513088.60000002384,071_y_f_n_a.png,O,m,1158,5,1,1970.800000011921,511117.8000000119,7106,VNB,A,3
3,prac,2,1.0,2-Back,0,z,Thu Mar 27 2025 10:56:52 GMT-0500 (Central Daylight Time),515621.6999999881,039_o_m_h_a.png,O,m,1701,6,1,2508.800000011921,513112.89999997616,7106,VNB,A,4
3,prac,2,1.0,2-Back,0,z,Thu Mar 27 2025 10:56:52 GMT-0500 (Central Daylight Time),518070.60000002384,109_y_m_n_a.png,O,m,1569,7,1,2406.5,515664.10000002384,7106,VNB,A,5
4,prac,2,0.0,2-Back,1,m,Thu Mar 27 2025 10:56:52 GMT-0500 (Central Daylight Time),520453.3000000119,139_m_f_d_a.png,O,m,1536,8,1,2351.699999988079,518101.60000002384,7106,VNB,A,6
5,prac,2,0.0,2-Back,1,m,Thu Mar 27 2025 10:56:52 GMT-0500 (Central Daylight Time),522753.60000002384,124_o_f_d_a.png,O,m,1390,9,1,2259.400000035763,520494.1999999881,7106,VNB,A,7
6,prac,2,0.0,2-Back,1,m,Thu Mar 27 2025 10:56:52 GMT-0500 (Central Daylight Time),525118.6999999881,165_m_m_h_a.png,O,m,1521,10,1,2337.5,522781.1999999881,7106,VNB,A,8
6,prac,2,1.0,2-Back,0,z,Thu Mar 27 2025 10:56:52 GMT-0500 (Central Daylight Time),527084.3000000119,071_y_f_d_a.png,O,m,1120,11,1,1934.1000000238419,525150.1999999881,7106,VNB,A,9
7,prac,2,0.0,2-Back,1,m,Thu Mar 27 2025 10:56:52 GMT-0500 (Central Daylight Time),529683.1999999881,039_o_m_n_a.png,O,m,1735,12,1,2557.800000011921,527125.3999999762,7106,VNB,A,10
0,test,1,0.0,2-Back,,,Thu Mar 27 2025 10:56:52 GMT-0500 (Central Daylight Time),529683.1999999881,109_y_m_h_a.png,O,space,7956,1,1,2557.800000011921,527125.3999999762,7106,VNB,A,0
0,test,1,0.0,2-Back,,,Thu Mar 27 2025 10:56:52 GMT-0500 (Central Daylight Time),529683.1999999881,124_o_f_n_a.png,O,space,7956,2,1,2557.800000011921,527125.3999999762,7106,VNB,A,0
1,test,1,0.0,2-Back,1,z,Thu Mar 27 2025 10:56:52 GMT-0500 (Central Daylight Time),551143.3999999762,039_o_m_h_a.png,O,z,1270,3,1,2292.699999988079,548850.6999999881,7106,VNB,A,1
2,test,1,0.0,2-Back,1,m,Thu Mar 27 2025 10:56:52 GMT-0500 (Central Daylight Time),553258.3000000119,139_m_f_d_a.png,O,m,1049,4,1,2078.699999988079,551179.6000000238,7106,VNB,A,2
3,test,1,1.0,2-Back,1,m,Thu Mar 27 2025 10:56:52 GMT-0500 (Central Daylight Time),555342.8999999762,109_y_m_n_a.png,O,m,1065,5,1,2069.899999976158,553273.0,7106,VNB,A,3
3,test,1,0.0,2-Back,0,z,Thu Mar 27 2025 10:56:52 GMT-0500 (Central Daylight Time),557624.5,071_y_f_d_a.png,O,m,1219,6,1,2241.300000011921,555383.1999999881,7106,VNB,A,4
4,test,1,0.0,2-Back,1,m,Thu Mar 27 2025 10:56:52 GMT-0500 (Central Daylight Time),559856.8999999762,165_m_m_h_a.png,O,m,1169,7,1,2195.599999964237,557661.3000000119,7106,VNB,A,5
5,test,1,1.0,2-Back,1,m,Thu Mar 27 2025 10:56:52 GMT-0500 (Central Daylight Time),562572.8999999762,071_y_f_n_a.png,O,m,1674,8,1,2685.5,559887.3999999762,7106,VNB,A,6
5,test,1,0.0,2-Back,0,z,Thu Mar 27 2025 10:56:52 GMT-0500 (Central Daylight Time),564805.3999999762,124_o_f_h_a.png,O,m,1172,9,1,2195.0,562610.3999999762,7106,VNB,A,7
6,test,1,0.0,2-Back,1,m,Thu Mar 27 2025 10:56:52 GMT-0500 (Central Daylight Time),567521.1999999881,039_o_m_d_a.png,O,m,1668,10,1,2685.699999988079,564835.5,7106,VNB,A,8
7,test,1,1.0,2-Back,1,m,Thu Mar 27 2025 10:56:52 GMT-0500 (Central Daylight Time),570153.5,165_m_m_d_a.png,O,m,1576,11,1,2597.100000023842,567556.3999999762,7106,VNB,A,9
7,test,1,0.0,2-Back,0,m,Thu Mar 27 2025 10:56:52 GMT-0500 (Central Daylight Time),572369.3999999762,139_m_f_n_a.png,O,z,1176,12,1,2188.7999999523163,570180.6000000238,7106,VNB,A,10
7,test,1,0.0,2-Back,0,m,Thu Mar 27 2025 10:56:52 GMT-0500 (Central Daylight Time),575418.6000000238,071_y_f_h_a.png,O,None,2014,13,1,3020.5,572398.1000000238,7106,VNB,A,11
7,test,1,0.0,2-Back,0,z,Thu Mar 27 2025 10:56:52 GMT-0500 (Central Daylight Time),577767.8000000119,165_m_m_n_a.png,O,m,1303,14,1,2323.100000023842,575444.6999999881,7106,VNB,A,12
8,test,1,0.0,2-Back,1,m,Thu Mar 27 2025 10:56:52 GMT-0500 (Central Daylight Time),580616.8999999762,109_y_m_d_a.png,O,m,1793,15,1,2810.0,577806.8999999762,7106,VNB,A,13
9,test,1,1.0,2-Back,1,m,Thu Mar 27 2025 10:56:52 GMT-0500 (Central Daylight Time),582899.3999999762,139_m_f_h_a.png,O,m,1224,16,1,2246.099999964237,580653.3000000119,7106,VNB,A,14
10,test,1,0.0,2-Back,1,z,Thu Mar 27 2025 10:56:52 GMT-0500 (Central Daylight Time),585632.0,124_o_f_d_a.png,O,z,1677,17,1,2696.5,582935.5,7106,VNB,A,15
11,test,1,0.0,2-Back,1,m,Thu Mar 27 2025 10:56:52 GMT-0500 (Central Daylight Time),587947.8000000119,039_o_m_n_a.png,O,m,1257,18,1,2280.600000023842,585667.1999999881,7106,VNB,A,16
0,test,2,0.0,2-Back,,,Thu Mar 27 2025 10:56:52 GMT-0500 (Central Daylight Time),587947.8000000119,165_m_m_h_a.png,O,space,1325,1,1,2280.600000023842,585667.1999999881,7106,VNB,A,0
0,test,2,0.0,2-Back,,,Thu Mar 27 2025 10:56:52 GMT-0500 (Central Daylight Time),587947.8000000119,071_y_f_n_a.png,O,space,1325,2,1,2280.600000023842,585667.1999999881,7106,VNB,A,0
1,test,2,1.0,2-Back,1,z,Thu Mar 27 2025 10:56:52 GMT-0500 (Central Daylight Time),596645.0,124_o_f_h_a.png,O,z,1191,3,1,2209.0,594436.0,7106,VNB,A,1
1,test,2,0.0,2-Back,0,m,Thu Mar 27 2025 10:56:52 GMT-0500 (Central Daylight Time),599061.3000000119,039_o_m_d_a.png,O,z,1364,4,1,2381.5,596679.8000000119,7106,VNB,A,2
2,test,2,0.0,2-Back,1,m,Thu Mar 27 2025 10:56:52 GMT-0500 (Central Daylight Time),601609.1999999881,139_m_f_d_a.png,O,m,1501,5,1,2522.399999976158,599086.8000000119,7106,VNB,A,3
3,test,2,0.0,2-Back,1,m,Thu Mar 27 2025 10:56:52 GMT-0500 (Central Daylight Time),604242.5,109_y_m_h_a.png,O,m,1601,6,1,2619.199999988079,601623.3000000119,7106,VNB,A,4
3,test,2,0.0,2-Back,0,m,Thu Mar 27 2025 10:56:52 GMT-0500 (Central Daylight Time),607290.8000000119,124_o_f_n_a.png,O,None,2014,7,1,3017.600000023842,604273.1999999881,7106,VNB,A,5
3,test,2,1.0,2-Back,0,z,Thu Mar 27 2025 10:56:52 GMT-0500 (Central Daylight Time),610007.1999999881,039_o_m_h_a.png,O,m,1695,8,1,2704.5,607302.6999999881,7106,VNB,A,6
3,test,2,0.0,2-Back,0,m,Thu Mar 27 2025 10:56:52 GMT-0500 (Central Daylight Time),613056.1999999881,071_y_f_d_a.png,O,None,2015,9,1,3021.800000011921,610034.3999999762,7106,VNB,A,7
3,test,2,0.0,2-Back,0,m,Thu Mar 27 2025 10:56:52 GMT-0500 (Central Daylight Time),615505.5,109_y_m_d_a.png,O,z,1393,10,1,2415.899999976158,613089.6000000238,7106,VNB,A,8
4,test,2,0.0,2-Back,1,m,Thu Mar 27 2025 10:56:52 GMT-0500 (Central Daylight Time),617688.0,165_m_m_n_a.png,O,m,1120,11,1,2145.100000023842,615542.8999999762,7106,VNB,A,9
5,test,2,0.0,2-Back,1,m,Thu Mar 27 2025 10:56:52 GMT-0500 (Central Daylight Time),620203.8999999762,139_m_f_h_a.png,O,m,1466,12,1,2489.7999999523163,617714.1000000238,7106,VNB,A,10
6,test,2,1.0,2-Back,1,z,Thu Mar 27 2025 10:56:52 GMT-0500 (Central Daylight Time),622737.1000000238,039_o_m_n_a.png,O,z,1486,13,1,2503.5,620233.6000000238,7106,VNB,A,11
7,test,2,0.0,2-Back,1,m,Thu Mar 27 2025 10:56:52 GMT-0500 (Central Daylight Time),625568.8000000119,124_o_f_d_a.png,O,m,1778,14,1,2795.0,622773.8000000119,7106,VNB,A,12
8,test,2,0.0,2-Back,1,m,Thu Mar 27 2025 10:56:52 GMT-0500 (Central Daylight Time),628217.6999999881,071_y_f_h_a.png,O,m,1584,15,1,2615.899999976158,625601.8000000119,7106,VNB,A,13
8,test,2,0.0,2-Back,0,z,Thu Mar 27 2025 10:56:52 GMT-0500 (Central Daylight Time),630917.1000000238,165_m_m_d_a.png,O,m,1663,16,1,2670.300000011921,628246.8000000119,7106,VNB,A,14
9,test,2,0.0,2-Back,1,m,Thu Mar 27 2025 10:56:52 GMT-0500 (Central Daylight Time),633333.1000000238,109_y_m_n_a.png,O,m,1381,17,1,2388.400000035763,630944.6999999881,7106,VNB,A,15
10,test,2,1.0,2-Back,1,m,Thu Mar 27 2025 10:56:52 GMT-0500 (Central Daylight Time),635732.3999999762,139_m_f_n_a.png,O,m,1332,18,1,2363.599999964237,633368.8000000119,7106,VNB,A,16
0,test,3,1.0,2-Back,,,Thu Mar 27 2025 10:56:52 GMT-0500 (Central Daylight Time),635732.3999999762,039_o_m_n_a.png,O,space,1733,1,1,2363.599999964237,633368.8000000119,7106,VNB,A,0
0,test,3,1.0,2-Back,,,Thu Mar 27 2025 10:56:52 GMT-0500 (Central Daylight Time),635732.3999999762,124_o_f_d_a.png,O,space,1733,2,1,2363.599999964237,633368.8000000119,7106,VNB,A,0
1,test,3,0.0,2-Back,1,m,Thu Mar 27 2025 10:56:52 GMT-0500 (Central Daylight Time),644961.5,071_y_f_h_a.png,O,m,1199,3,1,2232.199999988079,642729.3000000119,7106,VNB,A,1
2,test,3,0.0,2-Back,1,z,Thu Mar 27 2025 10:56:52 GMT-0500 (Central Daylight Time),647544.0,139_m_f_d_a.png,O,z,1561,4,1,2571.5,644972.5,7106,VNB,A,2
3,test,3,1.0,2-Back,1,m,Thu Mar 27 2025 10:56:52 GMT-0500 (Central Daylight Time),649876.5,109_y_m_n_a.png,O,m,1314,5,1,2320.699999988079,647555.8000000119,7106,VNB,A,3
3,test,3,0.0,2-Back,0,m,Thu Mar 27 2025 10:56:52 GMT-0500 (Central Daylight Time),652526.1999999881,039_o_m_h_a.png,O,z,1621,6,1,2638.099999964237,649888.1000000238,7106,VNB,A,4
3,test,3,0.0,2-Back,0,z,Thu Mar 27 2025 10:56:52 GMT-0500 (Central Daylight Time),655542.3000000119,071_y_f_n_a.png,O,m,1974,7,1,2997.5,652544.8000000119,7106,VNB,A,5
4,test,3,1.0,2-Back,1,m,Thu Mar 27 2025 10:56:52 GMT-0500 (Central Daylight Time),657790.6000000238,165_m_m_d_a.png,O,m,1211,8,1,2217.900000035763,655572.6999999881,7106,VNB,A,6
5,test,3,0.0,2-Back,1,m,Thu Mar 27 2025 10:56:52 GMT-0500 (Central Daylight Time),660123.3000000119,109_y_m_d_a.png,O,m,1308,9,1,2322.800000011921,657800.5,7106,VNB,A,7
6,test,3,0.0,2-Back,1,m,Thu Mar 27 2025 10:56:52 GMT-0500 (Central Daylight Time),662222.5,124_o_f_h_a.png,O,m,1079,10,1,2087.600000023842,660134.8999999762,7106,VNB,A,8
7,test,3,1.0,2-Back,1,m,Thu Mar 27 2025 10:56:52 GMT-0500 (Central Daylight Time),664655.8999999762,139_m_f_n_a.png,O,m,1411,11,1,2421.7999999523163,662234.1000000238,7106,VNB,A,9
7,test,3,1.0,2-Back,0,z,Thu Mar 27 2025 10:56:52 GMT-0500 (Central Daylight Time),666821.6000000238,165_m_m_h_a.png,O,m,1105,12,1,2131.600000023842,664690.0,7106,VNB,A,10
8,test,3,0.0,2-Back,1,m,Thu Mar 27 2025 10:56:52 GMT-0500 (Central Daylight Time),669087.5,071_y_f_d_a.png,O,m,1222,13,1,2235.0,666852.5,7106,VNB,A,11
9,test,3,0.0,2-Back,1,m,Thu Mar 27 2025 10:56:52 GMT-0500 (Central Daylight Time),671487.0,124_o_f_n_a.png,O,m,1337,14,1,2362.100000023842,669124.8999999762,7106,VNB,A,12
10,test,3,0.0,2-Back,1,z,Thu Mar 27 2025 10:56:52 GMT-0500 (Central Daylight Time),673636.1999999881,039_o_m_d_a.png,O,z,1107,15,1,2123.5,671512.6999999881,7106,VNB,A,13
11,test,3,1.0,2-Back,1,m,Thu Mar 27 2025 10:56:52 GMT-0500 (Central Daylight Time),675818.0,139_m_f_h_a.png,O,m,1132,16,1,2151.899999976158,673666.1000000238,7106,VNB,A,14
12,test,3,0.0,2-Back,1,m,Thu Mar 27 2025 10:56:52 GMT-0500 (Central Daylight Time),678551.3999999762,165_m_m_n_a.png,O,m,1705,17,1,2723.699999988079,675827.6999999881,7106,VNB,A,15
13,test,3,0.0,2-Back,1,z,Thu Mar 27 2025 10:56:52 GMT-0500 (Central Daylight Time),681183.8000000119,109_y_m_h_a.png,O,z,1594,18,1,2601.900000035763,678581.8999999762,7106,VNB,A,16
0,test,4,0.0,2-Back,,,Thu Mar 27 2025 10:56:52 GMT-0500 (Central Daylight Time),681183.8000000119,139_m_f_n_a.png,O,space,1329,1,1,2601.900000035763,678581.8999999762,7106,VNB,A,0
0,test,4,0.0,2-Back,,,Thu Mar 27 2025 10:56:52 GMT-0500 (Central Daylight Time),681183.8000000119,039_o_m_n_a.png,O,space,1329,2,1,2601.900000035763,678581.8999999762,7106,VNB,A,0
1,test,4,1.0,2-Back,1,m,Thu Mar 27 2025 10:56:52 GMT-0500 (Central Daylight Time),689730.1999999881,109_y_m_h_a.png,O,m,957,3,1,1979.800000011921,687750.3999999762,7106,VNB,A,1
2,test,4,1.0,2-Back,1,m,Thu Mar 27 2025 10:56:52 GMT-0500 (Central Daylight Time),691897.0,124_o_f_d_a.png,O,m,1135,4,1,2156.600000023842,689740.3999999762,7106,VNB,A,2
2,test,4,0.0,2-Back,0,z,Thu Mar 27 2025 10:56:52 GMT-0500 (Central Daylight Time),694013.0,039_o_m_h_a.png,O,m,1056,5,1,2082.199999988079,691930.8000000119,7106,VNB,A,3
2,test,4,0.0,2-Back,0,m,Thu Mar 27 2025 10:56:52 GMT-0500 (Central Daylight Time),696478.8999999762,165_m_m_n_a.png,O,z,1421,6,1,2438.7999999523163,694040.1000000238,7106,VNB,A,4
3,test,4,0.0,2-Back,1,m,Thu Mar 27 2025 10:56:52 GMT-0500 (Central Daylight Time),698811.3000000119,139_m_f_d_a.png,O,m,1266,7,1,2294.300000011921,696517.0,7106,VNB,A,5
3,test,4,0.0,2-Back,0,z,Thu Mar 27 2025 10:56:52 GMT-0500 (Central Daylight Time),701127.1999999881,071_y_f_n_a.png,O,m,1278,8,1,2288.399999976158,698838.8000000119,7106,VNB,A,6
4,test,4,1.0,2-Back,1,m,Thu Mar 27 2025 10:56:52 GMT-0500 (Central Daylight Time),703476.5,124_o_f_h_a.png,O,m,1282,9,1,2313.600000023842,701162.8999999762,7106,VNB,A,7
5,test,4,0.0,2-Back,1,m,Thu Mar 27 2025 10:56:52 GMT-0500 (Central Daylight Time),705692.3000000119,165_m_m_h_a.png,O,m,1149,10,1,2181.400000035763,703510.8999999762,7106,VNB,A,8
6,test,4,0.0,2-Back,1,m,Thu Mar 27 2025 10:56:52 GMT-0500 (Central Daylight Time),708324.8999999762,071_y_f_d_a.png,O,m,1572,11,1,2596.0,705728.8999999762,7106,VNB,A,9
7,test,4,0.0,2-Back,1,m,Thu Mar 27 2025 10:56:52 GMT-0500 (Central Daylight Time),710424.1999999881,109_y_m_n_a.png,O,m,1036,12,1,2061.300000011921,708362.8999999762,7106,VNB,A,10
7,test,4,0.0,2-Back,0,z,Thu Mar 27 2025 10:56:52 GMT-0500 (Central Daylight Time),712573.6000000238,039_o_m_d_a.png,O,m,1089,13,1,2113.7000000476837,710459.8999999762,7106,VNB,A,11
8,test,4,1.0,2-Back,1,m,Thu Mar 27 2025 10:56:52 GMT-0500 (Central Daylight Time),714739.5,139_m_f_h_a.png,O,m,1124,14,1,2136.800000011921,712602.6999999881,7106,VNB,A,12
9,test,4,1.0,2-Back,1,m,Thu Mar 27 2025 10:56:52 GMT-0500 (Central Daylight Time),716889.0,071_y_f_h_a.png,O,m,1102,15,1,2122.600000023842,714766.3999999762,7106,VNB,A,13
10,test,4,0.0,2-Back,1,m,Thu Mar 27 2025 10:56:52 GMT-0500 (Central Daylight Time),719254.5,124_o_f_n_a.png,O,m,1329,16,1,2333.800000011921,716920.6999999881,7106,VNB,A,14
11,test,4,0.0,2-Back,1,m,Thu Mar 27 2025 10:56:52 GMT-0500 (Central Daylight Time),721586.1999999881,109_y_m_d_a.png,O,m,1265,17,1,2295.800000011921,719290.3999999762,7106,VNB,A,15
12,test,4,1.0,2-Back,1,m,Thu Mar 27 2025 10:56:52 GMT-0500 (Central Daylight Time),723903.1000000238,165_m_m_d_a.png,O,m,1288,18,1,2307.0,721596.1000000238,7106,VNB,A,16
0,test,5,1.0,2-Back,,,Thu Mar 27 2025 10:56:52 GMT-0500 (Central Daylight Time),723903.1000000238,071_y_f_d_a.png,O,space,1187,1,1,2307.0,721596.1000000238,7106,VNB,A,0
0,test,5,1.0,2-Back,,,Thu Mar 27 2025 10:56:52 GMT-0500 (Central Daylight Time),723903.1000000238,124_o_f_h_a.png,O,space,1187,2,1,2307.0,721596.1000000238,7106,VNB,A,0
0,test,5,1.0,2-Back,0,z,Thu Mar 27 2025 10:56:52 GMT-0500 (Central Daylight Time),733283.8000000119,039_o_m_d_a.png,O,m,1883,3,1,2913.400000035763,730370.3999999762,7106,VNB,A,1
1,test,5,1.0,2-Back,1,m,Thu Mar 27 2025 10:56:52 GMT-0500 (Central Daylight Time),735831.5,139_m_f_n_a.png,O,m,1493,4,1,2512.399999976158,733319.1000000238,7106,VNB,A,2
2,test,5,0.0,2-Back,1,m,Thu Mar 27 2025 10:56:52 GMT-0500 (Central Daylight Time),738024.0,165_m_m_h_a.png,O,m,1173,5,1,2182.699999988079,735841.3000000119,7106,VNB,A,3
2,test,5,0.0,2-Back,0,z,Thu Mar 27 2025 10:56:52 GMT-0500 (Central Daylight Time),740147.6000000238,071_y_f_n_a.png,O,m,1074,6,1,2089.2000000476837,738058.3999999762,7106,VNB,A,4
3,test,5,0.0,2-Back,1,m,Thu Mar 27 2025 10:56:52 GMT-0500 (Central Daylight Time),742230.3000000119,124_o_f_d_a.png,O,m,1029,7,1,2045.699999988079,740184.6000000238,7106,VNB,A,5
3,test,5,0.0,2-Back,0,m,Thu Mar 27 2025 10:56:52 GMT-0500 (Central Daylight Time),744595.3000000119,039_o_m_h_a.png,O,z,1323,8,1,2336.300000011921,742259.0,7106,VNB,A,6
3,test,5,1.0,2-Back,0,z,Thu Mar 27 2025 10:56:52 GMT-0500 (Central Daylight Time),746812.5,139_m_f_d_a.png,O,m,1183,9,1,2207.399999976158,744605.1000000238,7106,VNB,A,7
4,test,5,0.0,2-Back,1,m,Thu Mar 27 2025 10:56:52 GMT-0500 (Central Daylight Time),749011.3999999762,109_y_m_n_a.png,O,m,1133,10,1,2165.2999999523163,746846.1000000238,7106,VNB,A,8
4,test,5,0.0,2-Back,0,m,Thu Mar 27 2025 10:56:52 GMT-0500 (Central Daylight Time),751260.8999999762,165_m_m_n_a.png,O,z,1214,11,1,2221.599999964237,749039.3000000119,7106,VNB,A,9
5,test,5,0.0,2-Back,1,m,Thu Mar 27 2025 10:56:52 GMT-0500 (Central Daylight Time),753492.8999999762,071_y_f_h_a.png,O,m,1197,12,1,2203.599999964237,751289.3000000119,7106,VNB,A,10
6,test,5,0.0,2-Back,1,m,Thu Mar 27 2025 10:56:52 GMT-0500 (Central Daylight Time),755676.1000000238,109_y_m_d_a.png,O,m,1116,13,1,2144.100000023842,753532.0,7106,VNB,A,11
6,test,5,1.0,2-Back,0,z,Thu Mar 27 2025 10:56:52 GMT-0500 (Central Daylight Time),758341.8000000119,139_m_f_h_a.png,O,m,1622,14,1,2640.5,755701.3000000119,7106,VNB,A,12
7,test,5,0.0,2-Back,1,m,Thu Mar 27 2025 10:56:52 GMT-0500 (Central Daylight Time),760357.3999999762,039_o_m_n_a.png,O,m,980,15,1,1987.5999999642372,758369.8000000119,7106,VNB,A,13
8,test,5,0.0,2-Back,1,m,Thu Mar 27 2025 10:56:52 GMT-0500 (Central Daylight Time),762257.3999999762,165_m_m_d_a.png,O,m,860,16,1,1875.7999999523163,760381.6000000238,7106,VNB,A,14
8,test,5,0.0,2-Back,0,z,Thu Mar 27 2025 10:56:52 GMT-0500 (Central Daylight Time),764473.3000000119,124_o_f_n_a.png,O,m,1152,17,1,2179.100000023842,762294.1999999881,7106,VNB,A,15
9,test,5,1.0,2-Back,1,m,Thu Mar 27 2025 10:56:52 GMT-0500 (Central Daylight Time),766505.3999999762,109_y_m_h_a.png,O,m,976,18,1,1993.2999999523163,764512.1000000238,7106,VNB,A,16
