acc_sum,block,block_c,condition,correct,correct_response,datetime,endtime,flanker,jitter,project,response,response_test_buffer_response,response_test_target_response,response_time,response_time_test_buffer_response,response_time_test_target_response,row_sel,session_number,start_end,starttime,subject_id,target,task,task_vers,time_test_buffer,time_test_buffer_response,time_test_constants,time_test_flanker,time_test_jitter,time_test_logger,time_test_target,time_test_target_response,time_test_variables,trial
0,prac,1,inc,0,z,Thu Apr 17 2025 10:01:38 GMT-0500 (Central Daylight Time),151663.20000000298,lead,1100,I,None,,,1799,,,8,1,5159.89999999851,146503.30000000447,7128,plum,NF,C,,,,,,,,,,1
0,prac,1,con,0,z,Thu Apr 17 2025 10:01:38 GMT-0500 (Central Daylight Time),154345.6000000015,banana,800,I,m,,,580,,,1,1,2677.1999999955297,151668.40000000596,7128,banana,NF,C,,,,,,,,,,2
1,prac,1,con,1,m,Thu Apr 17 2025 10:01:38 GMT-0500 (Central Daylight Time),157261.5,zinc,1000,I,m,,,609,,,15,1,2911.1999999955297,154350.30000000447,7128,zinc,NF,C,,,,,,,,,,3
2,prac,1,inc,1,m,Thu Apr 17 2025 10:01:38 GMT-0500 (Central Daylight Time),160460.6000000015,cherry,900,I,m,,,993,,,10,1,3193.60000000149,157267.0,7128,copper,NF,C,,,,,,,,,,4
3,prac,1,con,1,m,Thu Apr 17 2025 10:01:38 GMT-0500 (Central Daylight Time),163626.20000000298,gold,800,I,m,,,1063,,,13,1,3160.39999999851,160465.80000000447,7128,gold,NF,C,,,,,,,,,,5
4,prac,1,inc,1,m,Thu Apr 17 2025 10:01:38 GMT-0500 (Central Daylight Time),166525.30000000447,pear,900,I,m,,,685,,,14,1,2893.7000000029802,163631.6000000015,7128,iron,NF,C,,,,,,,,,,6
5,prac,1,con,1,m,Thu Apr 17 2025 10:01:38 GMT-0500 (Central Daylight Time),169457.70000000298,silver,1000,I,m,,,623,,,11,1,2927.5,166530.20000000298,7128,silver,NF,C,,,,,,,,,,7
6,prac,1,inc,1,m,Thu Apr 17 2025 10:01:38 GMT-0500 (Central Daylight Time),172589.80000000447,plum,1100,I,m,,,717,,,16,1,3127.7000000029802,169462.1000000015,7128,lead,NF,C,,,,,,,,,,8
7,prac,1,con,1,z,Thu Apr 17 2025 10:01:38 GMT-0500 (Central Daylight Time),175622.5,orange,1000,I,z,,,726,,,3,1,3028.39999999851,172594.1000000015,7128,orange,NF,C,,,,,,,,,,9
8,prac,1,inc,1,m,Thu Apr 17 2025 10:01:38 GMT-0500 (Central Daylight Time),178754.80000000447,raisin,1100,I,m,,,728,,,12,1,3127.10000000149,175627.70000000298,7128,cobalt,NF,C,,,,,,,,,,10
9,prac,1,inc,1,z,Thu Apr 17 2025 10:01:38 GMT-0500 (Central Daylight Time),181637.1000000015,cobalt,1100,I,z,,,476,,,4,1,2877.39999999851,178759.70000000298,7128,raisin,NF,C,,,,,,,,,,11
10,prac,1,con,1,z,Thu Apr 17 2025 10:01:38 GMT-0500 (Central Daylight Time),184202.90000000596,lime,800,I,z,,,463,,,5,1,2561.5,181641.40000000596,7128,lime,NF,C,,,,,,,,,,12
11,prac,1,inc,1,z,Thu Apr 17 2025 10:01:38 GMT-0500 (Central Daylight Time),187018.5,copper,900,I,z,,,613,,,2,1,2811.5999999940395,184206.90000000596,7128,cherry,NF,C,,,,,,,,,,13
12,prac,1,con,1,m,Thu Apr 17 2025 10:01:38 GMT-0500 (Central Daylight Time),189684.5,bronze,800,I,m,,,560,,,9,1,2661.6999999955297,187022.80000000447,7128,bronze,NF,C,,,,,,,,,,14
13,prac,1,con,1,z,Thu Apr 17 2025 10:01:38 GMT-0500 (Central Daylight Time),192650.30000000447,kiwi,1000,I,z,,,654,,,7,1,2961.3000000044703,189689.0,7128,kiwi,NF,C,,,,,,,,,,15
14,prac,1,inc,1,z,Thu Apr 17 2025 10:01:38 GMT-0500 (Central Daylight Time),195399.5,iron,900,I,z,,,533,,,6,1,2744.89999999851,192654.6000000015,7128,pear,NF,C,,,,,,,,,,16
1,test,1,inc,1,m,Thu Apr 17 2025 10:01:38 GMT-0500 (Central Daylight Time),223173.80000000447,pear,900,I,m,m,None,537,337.0,200.0,102,1,1978.7000000029802,221195.1000000015,7128,gold,NF,C,218309,218309,216680,217593,216681,218659,218109,218109,218659,1
2,test,1,con,1,m,Thu Apr 17 2025 10:01:38 GMT-0500 (Central Daylight Time),225140.0,lead,1000,I,m,m,None,422,222.0,200.0,123,1,1960.1999999955297,223179.80000000447,7128,lead,NF,C,220392,220392,218665,219676,218665,220625,220192,220192,220625,2
3,test,1,inc,1,z,Thu Apr 17 2025 10:01:38 GMT-0500 (Central Daylight Time),227122.70000000298,silver,1000,I,z,z,None,440,240.0,200.0,31,1,1974.8999999985099,225147.80000000447,7128,raisin,NF,C,222358,222358,220633,221642,220634,222608,222158,222158,222608,3
4,test,1,con,1,z,Thu Apr 17 2025 10:01:38 GMT-0500 (Central Daylight Time),228938.6000000015,lime,800,I,z,z,None,480,281.0,199.0,33,1,1811.1999999955297,227127.40000000596,7128,lime,NF,C,224141,224141,222612,223424,222613,224424,223941,223941,224424,4
5,test,1,inc,1,z,Thu Apr 17 2025 10:01:38 GMT-0500 (Central Daylight Time),230804.90000000596,iron,900,I,z,z,None,429,229.0,200.0,46,1,1861.5,228943.40000000596,7128,pear,NF,C,226057,226057,224428,225340,224429,226290,225857,225857,226290,5
6,test,1,inc,1,m,Thu Apr 17 2025 10:01:38 GMT-0500 (Central Daylight Time),232887.5,raisin,1100,I,m,m,None,443,243.0,200.0,72,1,2078.5,230809.0,7128,bronze,NF,C,228123,228123,226294,227407,226294,228373,227923,227923,228372,6
7,test,1,inc,1,z,Thu Apr 17 2025 10:01:38 GMT-0500 (Central Daylight Time),234970.20000000298,silver,1000,I,z,z,None,539,340.0,199.0,23,1,2078.0,232892.20000000298,7128,orange,NF,C,230106,230106,228377,229389,228378,230455,229906,229906,230455,7
8,test,1,con,1,z,Thu Apr 17 2025 10:01:38 GMT-0500 (Central Daylight Time),236869.70000000298,kiwi,800,I,z,z,None,553,353.0,200.0,49,1,1895.2000000029802,234974.5,7128,kiwi,NF,C,231988,231989,230460,231272,230460,232355,231788,231788,232355,8
9,test,1,inc,1,z,Thu Apr 17 2025 10:01:38 GMT-0500 (Central Daylight Time),238635.6000000015,gold,800,I,z,z,None,429,230.0,199.0,37,1,1761.3999999985099,236874.20000000298,7128,lime,NF,C,233888,233888,232359,233171,232360,234121,233688,233688,234121,9
10,test,1,con,1,z,Thu Apr 17 2025 10:01:38 GMT-0500 (Central Daylight Time),240751.80000000447,plum,1100,I,z,z,None,475,276.0,199.0,60,1,2112.0,238639.80000000447,7128,plum,NF,C,235954,235954,234125,235237,234125,236237,235754,235754,236237,10
11,test,1,inc,1,z,Thu Apr 17 2025 10:01:38 GMT-0500 (Central Daylight Time),242701.1000000015,zinc,1000,I,z,z,None,399,187.0,212.0,55,1,1943.6999999955297,240757.40000000596,7128,kiwi,NF,C,237987,237987,236242,237254,236243,238186,237774,237774,238186,11
12,test,1,inc,1,z,Thu Apr 17 2025 10:01:38 GMT-0500 (Central Daylight Time),244617.40000000596,iron,900,I,z,z,None,482,283.0,199.0,54,1,1912.2000000029802,242705.20000000298,7128,kiwi,NF,C,239819,239819,238190,239103,238191,240103,239620,239620,240102,12
13,test,1,inc,1,z,Thu Apr 17 2025 10:01:38 GMT-0500 (Central Daylight Time),246416.5,copper,900,I,z,z,None,359,159.0,200.0,30,1,1794.7999999970198,244621.70000000298,7128,raisin,NF,C,241735,241735,240107,241019,240107,241902,241535,241535,241901,13
14,test,1,con,1,z,Thu Apr 17 2025 10:01:38 GMT-0500 (Central Daylight Time),248166.1000000015,banana,800,I,z,z,None,410,211.0,199.0,1,1,1745.5,246420.6000000015,7128,banana,NF,C,243435,243435,241906,242718,241906,243651,243235,243235,243651,14
14,test,1,con,0,m,Thu Apr 17 2025 10:01:38 GMT-0500 (Central Daylight Time),250032.1000000015,silver,900,I,z,z,None,426,226.0,200.0,82,1,1862.1999999955297,248169.90000000596,7128,silver,NF,C,245284,245284,243655,244568,243655,245517,245084,245084,245517,15
15,test,1,con,1,m,Thu Apr 17 2025 10:01:38 GMT-0500 (Central Daylight Time),251981.5,bronze,900,I,m,m,None,504,304.0,200.0,66,1,1945.3999999985099,250036.1000000015,7128,bronze,NF,C,247150,247150,245521,246434,245521,247467,246950,246950,247466,16
16,test,1,inc,1,m,Thu Apr 17 2025 10:01:38 GMT-0500 (Central Daylight Time),253864.1000000015,cherry,900,I,m,m,None,441,242.0,199.0,78,1,1878.2999999970198,251985.80000000447,7128,copper,NF,C,249100,249100,247471,248383,247471,249349,248900,248900,249349,17
17,test,1,con,1,z,Thu Apr 17 2025 10:01:38 GMT-0500 (Central Daylight Time),255897.0,cherry,1000,I,z,z,None,500,300.0,200.0,11,1,2028.6999999955297,253868.30000000447,7128,cherry,NF,C,251082,251082,249353,250366,249354,251382,250882,250882,251382,18
18,test,1,con,1,m,Thu Apr 17 2025 10:01:38 GMT-0500 (Central Daylight Time),257846.5,zinc,1000,I,m,m,None,411,211.0,200.0,115,1,1945.5999999940395,255900.90000000596,7128,zinc,NF,C,253115,253115,251386,252399,251386,253332,252915,252915,253331,19
19,test,1,inc,1,z,Thu Apr 17 2025 10:01:38 GMT-0500 (Central Daylight Time),259795.5,copper,900,I,z,z,None,513,314.0,199.0,22,1,1944.7999999970198,257850.70000000298,7128,orange,NF,C,254964,254964,253336,254248,253336,255281,254765,254765,255281,20
20,test,1,con,1,m,Thu Apr 17 2025 10:01:38 GMT-0500 (Central Daylight Time),261761.70000000298,lead,900,I,m,m,None,532,332.0,200.0,122,1,1962.0,259799.70000000298,7128,lead,NF,C,256914,256914,255285,256197,255285,257247,256714,256714,257247,21
20,test,1,con,0,z,Thu Apr 17 2025 10:01:38 GMT-0500 (Central Daylight Time),263544.5,cherry,800,I,m,m,None,441,242.0,199.0,9,1,1777.2999999970198,261767.20000000298,7128,cherry,NF,C,258780,258780,257252,258064,257253,259030,258580,258580,259030,22
21,test,1,inc,1,z,Thu Apr 17 2025 10:01:38 GMT-0500 (Central Daylight Time),266227.0,lead,1100,I,z,z,None,1038,839.0,199.0,48,1,2678.5999999940395,263548.40000000596,7128,pear,NF,C,260863,260863,259033,260146,259034,261712,260663,260663,261712,23
22,test,1,con,1,m,Thu Apr 17 2025 10:01:38 GMT-0500 (Central Daylight Time),268176.200000003,lead,800,I,m,m,None,601,401.0,200.0,121,1,1945.3999999985099,266230.80000000447,7128,lead,NF,C,263245,263245,261716,262529,261716,263661,263045,263045,263661,24
23,test,1,con,1,m,Thu Apr 17 2025 10:01:38 GMT-0500 (Central Daylight Time),270375.700000003,copper,1100,I,m,m,None,559,360.0,199.0,76,1,2195.39999999851,268180.30000000447,7128,copper,NF,C,265494,265494,263665,264778,263666,265861,265295,265295,265861,25
24,test,1,con,1,z,Thu Apr 17 2025 10:01:38 GMT-0500 (Central Daylight Time),272608.30000000447,lime,900,I,z,z,None,791,592.0,199.0,34,1,2228.5,270379.80000000447,7128,lime,NF,C,267494,267494,265865,266777,265865,268093,267294,267294,268093,26
25,test,1,inc,1,z,Thu Apr 17 2025 10:01:38 GMT-0500 (Central Daylight Time),274807.80000000447,zinc,1000,I,z,z,None,651,452.0,199.0,39,1,2195.7000000029802,272612.1000000015,7128,lime,NF,C,269826,269826,268097,269110,268097,270293,269627,269627,270293,27
26,test,1,con,1,z,Thu Apr 17 2025 10:01:38 GMT-0500 (Central Daylight Time),277057.200000003,kiwi,1100,I,z,z,None,615,416.0,199.0,52,1,2245.2999999970198,274811.90000000596,7128,kiwi,NF,C,272126,272126,270297,271409,270297,272542,271926,271926,272542,28
27,test,1,con,1,z,Thu Apr 17 2025 10:01:38 GMT-0500 (Central Daylight Time),278922.90000000596,plum,800,I,z,z,None,523,323.0,200.0,57,1,1861.6000000014901,277061.30000000447,7128,plum,NF,C,274075,274075,272546,273359,272547,274408,273875,273875,274408,29
28,test,1,inc,1,m,Thu Apr 17 2025 10:01:38 GMT-0500 (Central Daylight Time),280972.30000000447,pear,900,I,m,m,None,604,405.0,199.0,110,1,2045.5,278926.80000000447,7128,iron,NF,C,276041,276041,274412,275325,274412,276457,275841,275842,276457,30
29,test,1,inc,1,m,Thu Apr 17 2025 10:01:38 GMT-0500 (Central Daylight Time),282922.30000000447,pear,900,I,m,m,None,516,316.0,200.0,126,1,1946.3999999985099,280975.90000000596,7128,lead,NF,C,278090,278090,276461,277374,276461,278407,277890,277890,278407,31
30,test,1,con,1,z,Thu Apr 17 2025 10:01:38 GMT-0500 (Central Daylight Time),284921.200000003,raisin,900,I,z,z,None,550,350.0,200.0,26,1,1994.8999999985099,282926.30000000447,7128,raisin,NF,C,280040,280040,278411,279323,278412,280406,279840,279840,280406,32
31,test,1,con,1,z,Thu Apr 17 2025 10:01:38 GMT-0500 (Central Daylight Time),287203.80000000447,pear,1000,I,z,z,None,739,539.0,200.0,43,1,2278.7000000029802,284925.1000000015,7128,pear,NF,C,282139,282139,280410,281423,280411,282689,281939,281939,282689,33
32,test,1,inc,1,m,Thu Apr 17 2025 10:01:38 GMT-0500 (Central Daylight Time),289266.1000000015,pear,900,I,m,m,None,629,429.0,200.0,118,1,2058.5,287207.6000000015,7128,zinc,NF,C,284322,284322,282693,283606,282693,284751,284122,284122,284751,34
33,test,1,inc,1,z,Thu Apr 17 2025 10:01:38 GMT-0500 (Central Daylight Time),291468.90000000596,lead,1100,I,z,z,None,561,362.0,199.0,64,1,2197.7000000029802,289271.200000003,7128,plum,NF,C,286588,286588,284756,285871,284757,286954,286388,286388,286954,35
34,test,1,con,1,z,Thu Apr 17 2025 10:01:38 GMT-0500 (Central Daylight Time),293568.40000000596,banana,1000,I,z,z,None,559,359.0,200.0,3,1,2095.60000000149,291472.80000000447,7128,banana,NF,C,288687,288687,286958,287971,286958,289053,288487,288487,289053,36
35,test,1,con,1,m,Thu Apr 17 2025 10:01:38 GMT-0500 (Central Daylight Time),295501.1000000015,silver,800,I,m,m,None,587,388.0,199.0,81,1,1928.6999999955297,293572.40000000596,7128,silver,NF,C,290586,290586,289057,289870,289058,290986,290387,290387,290986,37
36,test,1,inc,1,z,Thu Apr 17 2025 10:01:38 GMT-0500 (Central Daylight Time),297717.0,lead,1100,I,z,z,None,579,379.0,200.0,40,1,2211.6999999955297,295505.30000000447,7128,lime,NF,C,292819,292819,290990,292103,290991,293202,292619,292619,293202,38
37,test,1,inc,1,z,Thu Apr 17 2025 10:01:38 GMT-0500 (Central Daylight Time),299566.40000000596,gold,800,I,z,z,None,511,311.0,200.0,53,1,1845.4000000059605,297721.0,7128,kiwi,NF,C,294735,294735,293206,294019,293206,295051,294535,294535,295051,39
38,test,1,con,1,m,Thu Apr 17 2025 10:01:38 GMT-0500 (Central Daylight Time),301465.90000000596,copper,900,I,m,m,None,456,257.0,199.0,74,1,1895.1000000014901,299570.80000000447,7128,copper,NF,C,296685,296685,295056,295968,295056,296951,296485,296485,296951,40
39,test,1,con,1,m,Thu Apr 17 2025 10:01:38 GMT-0500 (Central Daylight Time),303548.6000000015,zinc,1100,I,m,m,None,438,238.0,200.0,116,1,2078.39999999851,301470.200000003,7128,zinc,NF,C,298784,298784,296955,298068,296956,299034,298584,298584,299034,41
40,test,1,con,1,m,Thu Apr 17 2025 10:01:38 GMT-0500 (Central Daylight Time),305464.6000000015,cobalt,900,I,m,m,None,467,267.0,200.0,90,1,1912.1999999955297,303552.40000000596,7128,cobalt,NF,C,300667,300667,299037,299950,299038,300950,300467,300467,300950,42
41,test,1,con,1,m,Thu Apr 17 2025 10:01:38 GMT-0500 (Central Daylight Time),307213.90000000596,iron,800,I,m,m,None,411,211.0,200.0,105,1,1745.3000000044703,305468.6000000015,7128,iron,NF,C,302483,302483,300954,301766,300954,302699,302283,302283,302699,43
42,test,1,inc,1,m,Thu Apr 17 2025 10:01:38 GMT-0500 (Central Daylight Time),309113.40000000596,cherry,900,I,m,m,None,450,250.0,200.0,86,1,1895.8000000044703,307217.6000000015,7128,silver,NF,C,304332,304332,302703,303616,302703,304598,304132,304132,304598,44
43,test,1,inc,1,z,Thu Apr 17 2025 10:01:38 GMT-0500 (Central Daylight Time),311113.0,iron,900,I,z,z,None,566,367.0,199.0,62,1,1995.8999999985099,309117.1000000015,7128,plum,NF,C,306231,306231,304602,305515,304602,306598,306032,306032,306598,45
44,test,1,con,1,z,Thu Apr 17 2025 10:01:38 GMT-0500 (Central Daylight Time),313145.5,banana,900,I,z,z,None,461,254.0,207.0,2,1,2028.5,311117.0,7128,banana,NF,C,308368,308368,306602,307515,306603,308631,308160,308160,308631,46
45,test,1,inc,1,z,Thu Apr 17 2025 10:01:38 GMT-0500 (Central Daylight Time),315128.30000000447,silver,1000,I,z,z,None,442,243.0,199.0,15,1,1978.8999999985099,313149.40000000596,7128,cherry,NF,C,310363,310363,308634,309647,308635,310613,310164,310164,310613,47
46,test,1,inc,1,z,Thu Apr 17 2025 10:01:38 GMT-0500 (Central Daylight Time),317144.30000000447,zinc,1000,I,z,z,None,476,276.0,200.0,47,1,2012.3000000044703,315132.0,7128,pear,NF,C,312346,312346,310617,311630,310617,312629,312146,312146,312629,48
47,test,1,con,1,z,Thu Apr 17 2025 10:01:38 GMT-0500 (Central Daylight Time),319377.200000003,kiwi,1000,I,z,z,None,700,500.0,200.0,51,1,2228.89999999851,317148.30000000447,7128,kiwi,NF,C,314362,314362,312633,313646,312634,314862,314162,314162,314862,49
48,test,1,con,1,m,Thu Apr 17 2025 10:01:38 GMT-0500 (Central Daylight Time),321476.200000003,copper,1000,I,m,m,None,555,355.0,200.0,75,1,2095.2000000029802,319381.0,7128,copper,NF,C,316595,316595,314866,315879,314866,316961,316395,316395,316961,50
49,test,1,con,1,m,Thu Apr 17 2025 10:01:38 GMT-0500 (Central Daylight Time),323692.200000003,gold,1100,I,m,m,None,580,380.0,200.0,100,1,2211.7000000029802,321480.5,7128,gold,NF,C,318794,318794,316966,318078,316966,319177,318594,318594,319177,51
50,test,1,con,1,m,Thu Apr 17 2025 10:01:38 GMT-0500 (Central Daylight Time),325641.6000000015,zinc,800,I,m,m,None,607,408.0,199.0,113,1,1945.8999999985099,323695.700000003,7128,zinc,NF,C,320710,320710,319181,319994,319181,321127,320511,320511,321127,52
51,test,1,con,1,z,Thu Apr 17 2025 10:01:38 GMT-0500 (Central Daylight Time),327724.200000003,orange,1000,I,z,z,None,545,346.0,199.0,19,1,2078.89999999851,325645.30000000447,7128,orange,NF,C,322860,322860,321130,322143,321131,323209,322660,322660,323209,53
52,test,1,inc,1,m,Thu Apr 17 2025 10:01:38 GMT-0500 (Central Daylight Time),329956.90000000596,orange,1000,I,m,m,None,688,488.0,200.0,95,1,2228.8000000044703,327728.1000000015,7128,cobalt,NF,C,324942,324942,323213,324226,323213,325442,324742,324742,325442,54
53,test,1,inc,1,z,Thu Apr 17 2025 10:01:38 GMT-0500 (Central Daylight Time),331856.200000003,bronze,800,I,z,z,None,551,351.0,200.0,21,1,1895.2000000029802,329961.0,7128,orange,NF,C,326975,326975,325446,326259,325446,327341,326775,326775,327341,55
54,test,1,con,1,m,Thu Apr 17 2025 10:01:38 GMT-0500 (Central Daylight Time),333838.90000000596,cobalt,800,I,m,m,None,636,436.0,200.0,89,1,1978.5,331860.40000000596,7128,cobalt,NF,C,328874,328874,327345,328158,327346,329324,328674,328674,329324,56
55,test,1,con,1,z,Thu Apr 17 2025 10:01:38 GMT-0500 (Central Daylight Time),336021.5,lime,1100,I,z,z,None,545,345.0,200.0,36,1,2179.0,333842.5,7128,lime,NF,C,331157,331157,329328,330441,329328,331507,330957,330957,331507,57
56,test,1,con,1,m,Thu Apr 17 2025 10:01:38 GMT-0500 (Central Daylight Time),338104.200000003,iron,1100,I,m,m,None,441,242.0,199.0,108,1,2078.2999999970198,336025.90000000596,7128,iron,NF,C,333340,333340,331511,332623,331511,333589,333140,333140,333589,58
57,test,1,con,1,z,Thu Apr 17 2025 10:01:38 GMT-0500 (Central Daylight Time),340053.80000000447,kiwi,900,I,z,z,None,504,304.0,200.0,50,1,1945.2000000029802,338108.6000000015,7128,kiwi,NF,C,335222,335222,333594,334506,333594,335539,335022,335022,335539,59
58,test,1,con,1,z,Thu Apr 17 2025 10:01:38 GMT-0500 (Central Daylight Time),342186.40000000596,plum,900,I,z,z,None,697,498.0,199.0,58,1,2128.8000000044703,340057.6000000015,7128,plum,NF,C,337172,337172,335543,336455,335543,337671,336972,336972,337671,60
59,test,1,inc,1,m,Thu Apr 17 2025 10:01:38 GMT-0500 (Central Daylight Time),344052.30000000447,banana,800,I,m,m,None,522,322.0,200.0,93,1,1861.8999999985099,342190.40000000596,7128,cobalt,NF,C,339204,339204,337675,338488,337676,339538,339004,339004,339537,61
60,test,1,inc,1,m,Thu Apr 17 2025 10:01:38 GMT-0500 (Central Daylight Time),346501.5,plum,1100,I,m,m,None,810,611.0,199.0,120,1,2444.39999999851,344057.1000000015,7128,zinc,NF,C,341370,341371,339542,340654,339542,341987,341171,341171,341987,62
61,test,1,inc,1,m,Thu Apr 17 2025 10:01:38 GMT-0500 (Central Daylight Time),348534.200000003,kiwi,1000,I,m,m,None,485,286.0,199.0,111,1,2028.8999999985099,346505.30000000447,7128,iron,NF,C,343720,343720,341990,343003,341991,344019,343520,343520,344019,63
62,test,1,inc,1,m,Thu Apr 17 2025 10:01:38 GMT-0500 (Central Daylight Time),350633.700000003,raisin,1100,I,m,m,None,457,258.0,199.0,96,1,2095.89999999851,348537.80000000447,7128,cobalt,NF,C,345852,345852,344023,345136,344023,346119,345653,345653,346119,64
63,test,1,inc,1,z,Thu Apr 17 2025 10:01:38 GMT-0500 (Central Daylight Time),352432.90000000596,bronze,800,I,z,z,None,465,266.0,199.0,5,1,1795.4000000059605,350637.5,7128,banana,NF,C,347652,347652,346123,346935,346123,347918,347452,347452,347918,65
64,test,1,con,1,z,Thu Apr 17 2025 10:01:38 GMT-0500 (Central Daylight Time),354765.700000003,orange,1100,I,z,z,None,695,495.0,200.0,20,1,2328.5,352437.200000003,7128,orange,NF,C,349751,349751,347922,349035,347922,350251,349551,349551,350251,66
65,test,1,inc,1,z,Thu Apr 17 2025 10:01:38 GMT-0500 (Central Daylight Time),356765.1000000015,zinc,1000,I,z,z,None,454,254.0,200.0,63,1,1995.1999999955297,354769.90000000596,7128,plum,NF,C,351984,351984,350255,351267,350255,352250,351784,351784,352250,67
66,test,1,inc,1,m,Thu Apr 17 2025 10:01:38 GMT-0500 (Central Daylight Time),358814.40000000596,kiwi,1000,I,m,m,None,511,311.0,200.0,119,1,2045.2000000029802,356769.200000003,7128,zinc,NF,C,353983,353983,352254,353267,352255,354299,353783,353783,354299,68
67,test,1,inc,1,m,Thu Apr 17 2025 10:01:38 GMT-0500 (Central Daylight Time),361130.30000000447,plum,1100,I,m,m,None,674,474.0,200.0,104,1,2311.89999999851,358818.40000000596,7128,gold,NF,C,356132,356132,354303,355426,354304,356615,355932,355932,356615,69
68,test,1,con,1,z,Thu Apr 17 2025 10:01:38 GMT-0500 (Central Daylight Time),363262.90000000596,plum,1000,I,z,z,None,593,394.0,199.0,59,1,2129.0,361133.90000000596,7128,plum,NF,C,358348,358348,356619,357632,356619,358748,358148,358149,358748,70
69,test,1,inc,1,z,Thu Apr 17 2025 10:01:38 GMT-0500 (Central Daylight Time),365279.0,copper,900,I,z,z,None,569,369.0,200.0,6,1,2011.7999999970198,363267.200000003,7128,banana,NF,C,360381,360381,358752,359665,358753,360764,360181,360181,360764,71
70,test,1,con,1,z,Thu Apr 17 2025 10:01:38 GMT-0500 (Central Daylight Time),367361.6000000015,banana,1100,I,z,z,None,449,249.0,200.0,4,1,2078.6999999955297,365282.90000000596,7128,banana,NF,C,362597,362597,360768,361881,360768,362847,362397,362397,362847,72
70,test,1,con,0,m,Thu Apr 17 2025 10:01:38 GMT-0500 (Central Daylight Time),369327.80000000447,cobalt,1000,I,z,z,None,426,225.0,201.0,91,1,1962.3999999985099,367365.40000000596,7128,cobalt,NF,C,364581,364581,362850,363863,362851,364813,364380,364380,364813,73
71,test,1,inc,1,m,Thu Apr 17 2025 10:01:38 GMT-0500 (Central Daylight Time),372093.5,plum,1100,I,m,m,None,1127,928.0,199.0,112,1,2761.6999999955297,369331.80000000447,7128,iron,NF,C,366646,366646,364817,365930,364817,367579,366446,366446,367579,74
72,test,1,inc,1,m,Thu Apr 17 2025 10:01:38 GMT-0500 (Central Daylight Time),374192.90000000596,kiwi,1000,I,m,m,None,565,366.0,199.0,103,1,2095.5,372097.40000000596,7128,gold,NF,C,369312,369312,367582,368595,367583,369678,369112,369112,369678,75
73,test,1,inc,1,m,Thu Apr 17 2025 10:01:38 GMT-0500 (Central Daylight Time),376142.30000000447,cherry,900,I,m,m,None,503,303.0,200.0,94,1,1945.3000000044703,374197.0,7128,cobalt,NF,C,371311,371311,369682,370594,369682,371627,371111,371111,371627,76
74,test,1,con,1,m,Thu Apr 17 2025 10:01:38 GMT-0500 (Central Daylight Time),378225.200000003,iron,1000,I,m,m,None,534,334.0,200.0,107,1,2078.89999999851,376146.30000000447,7128,iron,NF,C,373360,373360,371631,372644,371632,373710,373160,373160,373710,77
75,test,1,inc,1,m,Thu Apr 17 2025 10:01:38 GMT-0500 (Central Daylight Time),380191.1000000015,lime,800,I,m,m,None,619,419.0,200.0,101,1,1962.1000000014901,378229.0,7128,gold,NF,C,375243,375243,373714,374527,373715,375676,375043,375043,375676,78
76,test,1,con,1,m,Thu Apr 17 2025 10:01:38 GMT-0500 (Central Daylight Time),382407.1000000015,lead,1100,I,m,m,None,569,369.0,200.0,124,1,2212.10000000149,380195.0,7128,lead,NF,C,377509,377509,375680,376793,375680,377892,377309,377309,377892,79
77,test,1,inc,1,z,Thu Apr 17 2025 10:01:38 GMT-0500 (Central Daylight Time),384489.80000000447,gold,800,I,z,z,None,741,541.0,200.0,45,1,2078.8000000044703,382411.0,7128,pear,NF,C,379425,379425,377896,378709,377896,379975,379225,379225,379975,80
78,test,1,inc,1,m,Thu Apr 17 2025 10:01:38 GMT-0500 (Central Daylight Time),386622.40000000596,banana,800,I,m,m,None,786,586.0,200.0,85,1,2128.9000000059605,384493.5,7128,silver,NF,C,381508,381508,379979,380792,379979,382107,381308,381308,382107,81
79,test,1,inc,1,z,Thu Apr 17 2025 10:01:38 GMT-0500 (Central Daylight Time),388538.40000000596,bronze,800,I,z,z,None,573,374.0,199.0,13,1,1912.1000000014901,386626.30000000447,7128,cherry,NF,C,383640,383640,382111,382926,382112,384023,383441,383441,384023,82
80,test,1,inc,1,z,Thu Apr 17 2025 10:01:38 GMT-0500 (Central Daylight Time),390621.1000000015,copper,900,I,z,z,None,644,445.0,199.0,14,1,2079.10000000149,388542.0,7128,cherry,NF,C,385657,385657,384027,384941,384027,386106,385457,385457,386106,83
81,test,1,inc,1,z,Thu Apr 17 2025 10:01:38 GMT-0500 (Central Daylight Time),392820.30000000447,cobalt,1100,I,z,z,None,555,355.0,200.0,24,1,2195.2000000029802,390625.1000000015,7128,orange,NF,C,387939,387939,386110,387223,386111,388305,387739,387739,388305,84
82,test,1,con,1,m,Thu Apr 17 2025 10:01:38 GMT-0500 (Central Daylight Time),394903.0,zinc,900,I,m,m,None,642,443.0,199.0,114,1,2079.0,392824.0,7128,zinc,NF,C,389939,389939,388309,389222,388309,390388,389739,389739,390388,85
83,test,1,con,1,m,Thu Apr 17 2025 10:01:38 GMT-0500 (Central Daylight Time),396769.1000000015,bronze,800,I,m,m,None,517,317.0,200.0,65,1,1862.0,394907.1000000015,7128,bronze,NF,C,391921,391921,390392,391205,390392,392254,391721,391721,392254,86
84,test,1,inc,1,z,Thu Apr 17 2025 10:01:38 GMT-0500 (Central Daylight Time),398935.0,silver,1000,I,z,z,None,627,427.0,200.0,7,1,2162.1999999955297,396772.80000000447,7128,banana,NF,C,393987,393987,392258,393271,392258,394420,393787,393787,394420,87
85,test,1,con,1,m,Thu Apr 17 2025 10:01:38 GMT-0500 (Central Daylight Time),400867.80000000447,gold,800,I,m,m,None,597,397.0,200.0,97,1,1929.3000000044703,398938.5,7128,gold,NF,C,395953,395953,394424,395237,394424,396353,395753,395753,396353,88
86,test,1,con,1,m,Thu Apr 17 2025 10:01:38 GMT-0500 (Central Daylight Time),403000.6000000015,gold,900,I,m,m,None,692,492.0,200.0,98,1,2129.2999999970198,400871.30000000447,7128,gold,NF,C,397986,397986,396356,397270,396357,398486,397786,397786,398486,89
87,test,1,con,1,z,Thu Apr 17 2025 10:01:38 GMT-0500 (Central Daylight Time),404833.200000003,pear,800,I,z,z,None,490,291.0,199.0,41,1,1829.0,403004.200000003,7128,pear,NF,C,400019,400019,398489,399302,398489,400318,399819,399819,400318,90
88,test,1,inc,1,z,Thu Apr 17 2025 10:01:38 GMT-0500 (Central Daylight Time),407051.1000000015,cobalt,1100,I,z,z,None,574,375.0,199.0,8,1,2214.2999999970198,404836.80000000447,7128,banana,NF,C,402151,402151,400322,401435,400322,402536,401952,401952,402536,91
89,test,1,inc,1,m,Thu Apr 17 2025 10:01:38 GMT-0500 (Central Daylight Time),409065.200000003,orange,1000,I,m,m,None,483,283.0,200.0,79,1,2009.3999999985099,407055.80000000447,7128,copper,NF,C,404267,404267,402541,403551,402541,404550,404067,404067,404550,92
90,test,1,con,1,z,Thu Apr 17 2025 10:01:38 GMT-0500 (Central Daylight Time),411231.200000003,raisin,1000,I,z,z,None,627,427.0,200.0,27,1,2162.39999999851,409068.80000000447,7128,raisin,NF,C,406283,406283,404554,405567,404554,406716,406083,406083,406716,93
91,test,1,con,1,z,Thu Apr 17 2025 10:01:38 GMT-0500 (Central Daylight Time),413197.40000000596,cherry,900,I,z,z,None,529,329.0,200.0,10,1,1962.3000000044703,411235.1000000015,7128,cherry,NF,C,408349,408349,406720,407633,406720,408682,408149,408149,408682,94
92,test,1,con,1,z,Thu Apr 17 2025 10:01:38 GMT-0500 (Central Daylight Time),415263.200000003,cherry,1100,I,z,z,None,427,227.0,200.0,12,1,2062.2000000029802,413201.0,7128,cherry,NF,C,410515,410515,408686,409799,408686,410748,410315,410315,410748,95
93,test,1,inc,1,m,Thu Apr 17 2025 10:01:38 GMT-0500 (Central Daylight Time),417112.90000000596,lime,800,I,m,m,None,517,317.0,200.0,117,1,1845.9000000059605,415267.0,7128,zinc,NF,C,412281,412281,410752,411565,410752,412598,412081,412081,412598,96
94,test,1,con,1,m,Thu Apr 17 2025 10:01:38 GMT-0500 (Central Daylight Time),419078.90000000596,copper,800,I,m,m,None,626,427.0,199.0,73,1,1962.1000000014901,417116.80000000447,7128,copper,NF,C,414131,414131,412602,413414,412602,414564,413931,413931,414564,97
95,test,1,inc,1,m,Thu Apr 17 2025 10:01:38 GMT-0500 (Central Daylight Time),420894.90000000596,lime,800,I,m,m,None,469,269.0,200.0,109,1,1812.1000000014901,419082.80000000447,7128,iron,NF,C,416097,416097,414568,415381,414568,416380,415897,415897,416380,98
96,test,1,con,1,z,Thu Apr 17 2025 10:01:38 GMT-0500 (Central Daylight Time),422844.30000000447,pear,900,I,z,z,None,505,305.0,200.0,42,1,1945.6000000014901,420898.700000003,7128,pear,NF,C,418013,418013,416384,417297,416384,418329,417813,417813,418329,99
97,test,1,inc,1,m,Thu Apr 17 2025 10:01:38 GMT-0500 (Central Daylight Time),424960.200000003,plum,1100,I,m,m,None,476,276.0,200.0,128,1,2112.10000000149,422848.1000000015,7128,lead,NF,C,420162,420162,418333,419446,418334,420445,419962,419962,420445,100
98,test,1,inc,1,z,Thu Apr 17 2025 10:01:38 GMT-0500 (Central Daylight Time),426992.90000000596,iron,900,I,z,z,None,591,392.0,199.0,38,1,2028.7000000029802,424964.200000003,7128,lime,NF,C,422078,422078,420449,421362,420450,422478,421879,421879,422478,101
99,test,1,inc,1,m,Thu Apr 17 2025 10:01:38 GMT-0500 (Central Daylight Time),428842.40000000596,banana,800,I,m,m,None,515,315.0,200.0,77,1,1846.0,426996.40000000596,7128,copper,NF,C,424011,424011,422481,423295,422482,424327,423811,423811,424327,102
100,test,1,inc,1,z,Thu Apr 17 2025 10:01:38 GMT-0500 (Central Daylight Time),430975.1000000015,bronze,800,I,z,z,None,785,538.0,247.0,29,1,2128.89999999851,428846.200000003,7128,raisin,NF,C,425908,425908,424331,425144,424332,426460,425661,425661,426460,103
101,test,1,con,1,m,Thu Apr 17 2025 10:01:38 GMT-0500 (Central Daylight Time),433107.700000003,gold,1000,I,m,m,None,597,397.0,200.0,99,1,2128.39999999851,430979.30000000447,7128,gold,NF,C,428193,428193,426464,427477,426465,428593,427993,427993,428593,104
102,test,1,con,1,m,Thu Apr 17 2025 10:01:38 GMT-0500 (Central Daylight Time),435623.5,cobalt,1100,I,m,m,None,867,668.0,199.0,92,1,2512.0999999940395,433111.40000000596,7128,cobalt,NF,C,430426,430426,428596,429709,428597,431109,430226,430226,431109,105
103,test,1,inc,1,z,Thu Apr 17 2025 10:01:38 GMT-0500 (Central Daylight Time),437856.200000003,lead,1100,I,z,z,None,583,384.0,199.0,56,1,2228.60000000149,435627.6000000015,7128,kiwi,NF,C,432942,432942,431113,432225,431113,433341,432742,432742,433341,106
104,test,1,con,1,z,Thu Apr 17 2025 10:01:38 GMT-0500 (Central Daylight Time),439705.700000003,raisin,800,I,z,z,None,508,308.0,200.0,25,1,1845.2999999970198,437860.40000000596,7128,raisin,NF,C,434874,434874,433345,434158,433346,435191,434674,434674,435191,107
105,test,1,con,1,m,Thu Apr 17 2025 10:01:38 GMT-0500 (Central Daylight Time),441538.30000000447,iron,900,I,m,m,None,398,198.0,200.0,106,1,1828.3000000044703,439710.0,7128,iron,NF,C,436824,436824,435195,436107,435195,437023,436624,436624,437023,108
106,test,1,inc,1,m,Thu Apr 17 2025 10:01:38 GMT-0500 (Central Daylight Time),443721.0,raisin,1100,I,m,m,None,541,342.0,199.0,80,1,2178.7999999970198,441542.200000003,7128,copper,NF,C,438856,438856,437027,438140,437028,439206,438657,438657,439206,109
107,test,1,con,1,z,Thu Apr 17 2025 10:01:38 GMT-0500 (Central Daylight Time),445637.1000000015,orange,800,I,z,z,None,579,379.0,200.0,17,1,1912.1999999955297,443724.90000000596,7128,orange,NF,C,440739,440739,439210,440023,439211,441122,440539,440539,441122,110
108,test,1,con,1,z,Thu Apr 17 2025 10:01:38 GMT-0500 (Central Daylight Time),447603.1000000015,orange,900,I,z,z,None,531,331.0,200.0,18,1,1962.1999999955297,445640.90000000596,7128,orange,NF,C,442755,442755,441126,442039,441126,443088,442555,442555,443088,111
109,test,1,con,1,z,Thu Apr 17 2025 10:01:38 GMT-0500 (Central Daylight Time),449669.1000000015,pear,1100,I,z,z,None,429,229.0,200.0,44,1,2062.2999999970198,447606.80000000447,7128,pear,NF,C,444921,444921,443092,444205,443092,445154,444721,444721,445154,112
110,test,1,inc,1,m,Thu Apr 17 2025 10:01:38 GMT-0500 (Central Daylight Time),451835.200000003,orange,1000,I,m,m,None,631,431.0,200.0,71,1,2162.39999999851,449672.80000000447,7128,bronze,NF,C,446887,446887,445158,446171,445158,447320,446687,446687,447320,113
111,test,1,inc,1,m,Thu Apr 17 2025 10:01:38 GMT-0500 (Central Daylight Time),454350.90000000596,raisin,1100,I,m,m,None,877,677.0,200.0,88,1,2512.10000000149,451838.80000000447,7128,silver,NF,C,449153,449153,447324,448437,447324,449836,448953,448953,449836,114
112,test,1,con,1,m,Thu Apr 17 2025 10:01:38 GMT-0500 (Central Daylight Time),456366.90000000596,silver,1100,I,m,m,None,377,177.0,200.0,84,1,2012.3000000044703,454354.6000000015,7128,silver,NF,C,451669,451669,449840,450953,449840,451852,451469,451469,451852,115
113,test,1,inc,1,m,Thu Apr 17 2025 10:01:38 GMT-0500 (Central Daylight Time),458133.200000003,banana,800,I,m,m,None,429,229.0,200.0,69,1,1762.5,456370.700000003,7128,bronze,NF,C,453385,453385,451856,452669,451856,453618,453185,453185,453618,116
114,test,1,inc,1,z,Thu Apr 17 2025 10:01:38 GMT-0500 (Central Daylight Time),460165.90000000596,gold,800,I,z,z,None,687,487.0,200.0,61,1,2029.2000000029802,458136.700000003,7128,plum,NF,C,455151,455151,453622,454435,453622,455651,454951,454951,455651,117
115,test,1,con,1,z,Thu Apr 17 2025 10:01:38 GMT-0500 (Central Daylight Time),462481.6000000015,lime,1000,I,z,z,None,782,582.0,200.0,35,1,2311.6999999955297,460169.90000000596,7128,lime,NF,C,457384,457384,455655,456668,455655,457967,457184,457184,457967,118
116,test,1,inc,1,m,Thu Apr 17 2025 10:01:38 GMT-0500 (Central Daylight Time),464581.1000000015,orange,1000,I,m,m,None,562,362.0,200.0,87,1,2095.60000000149,462485.5,7128,silver,NF,C,459700,459700,457971,458983,457971,460066,459500,459500,460066,119
117,test,1,inc,1,m,Thu Apr 17 2025 10:01:38 GMT-0500 (Central Daylight Time),466830.5,cherry,900,I,m,m,None,803,603.0,200.0,70,1,2245.89999999851,464584.6000000015,7128,bronze,NF,C,461699,461699,460070,460983,460070,462316,461499,461499,462316,120
118,test,1,inc,1,m,Thu Apr 17 2025 10:01:38 GMT-0500 (Central Daylight Time),468929.700000003,kiwi,1000,I,m,m,None,556,357.0,199.0,127,1,2095.5,466834.200000003,7128,lead,NF,C,464049,464049,462319,463332,462320,464415,463849,463849,464415,121
119,test,1,con,1,m,Thu Apr 17 2025 10:01:38 GMT-0500 (Central Daylight Time),471179.0,bronze,1100,I,m,m,None,605,406.0,199.0,68,1,2245.6999999955297,468933.30000000447,7128,bronze,NF,C,466248,466248,464418,465531,464419,466664,466048,466048,466664,122
120,test,1,con,1,z,Thu Apr 17 2025 10:01:38 GMT-0500 (Central Daylight Time),473328.30000000447,raisin,1100,I,z,z,None,501,301.0,200.0,28,1,2145.3000000044703,471183.0,7128,raisin,NF,C,468497,468497,466668,467781,466668,468813,468297,468297,468813,123
121,test,1,inc,1,m,Thu Apr 17 2025 10:01:38 GMT-0500 (Central Daylight Time),475277.80000000447,lime,800,I,m,m,None,610,411.0,199.0,125,1,1945.2000000029802,473332.6000000015,7128,lead,NF,C,470347,470347,468818,469630,468818,470763,470147,470147,470763,124
122,test,1,inc,1,z,Thu Apr 17 2025 10:01:38 GMT-0500 (Central Daylight Time),477524.40000000596,cobalt,1100,I,z,z,None,612,413.0,199.0,32,1,2243.0,475281.40000000596,7128,raisin,NF,C,472596,472596,470766,471880,470767,473009,472396,472396,473009,125
123,test,1,con,1,m,Thu Apr 17 2025 10:01:38 GMT-0500 (Central Daylight Time),479659.700000003,bronze,1000,I,m,m,None,589,389.0,200.0,67,1,2130.89999999851,477528.80000000447,7128,bronze,NF,C,474745,474745,473014,474029,473014,475145,474545,474545,475145,126
124,test,1,inc,1,z,Thu Apr 17 2025 10:01:38 GMT-0500 (Central Daylight Time),481925.700000003,cobalt,1100,I,z,z,None,628,428.0,200.0,16,1,2262.10000000149,479663.6000000015,7128,cherry,NF,C,476978,476978,475149,476261,475149,477411,476778,476778,477411,127
125,test,1,con,1,m,Thu Apr 17 2025 10:01:38 GMT-0500 (Central Daylight Time),484158.40000000596,silver,1000,I,m,m,None,693,494.0,199.0,83,1,2229.10000000149,481929.30000000447,7128,silver,NF,C,479144,479144,477414,478427,477415,479644,478944,478944,479643,128
