Q,Q1,Q2,Q3,Q4,acc_sum,block,block_c,correct,correct_response,datetime,endtime,project,response,response_time,row_sel,session_number,squiggle1,squiggle1x,squiggle1y,squiggle2,squiggle2x,squiggle2y,squiggle3,squiggle3x,squiggle3y,squiggle4,squiggle4x,squiggle4y,start_end,starttime,subject_id,target_congruent,task,task_vers,testsquiggle,testsquigglex,testsquiggley,time_practice_delay,time_practice_fixation,time_practice_stimuli,time_practice_study,time_test_delay,time_test_fixation,time_test_stimuli,time_test_study,trial
1,1,0,0,0,1,prac,1,1,z,Mon Mar 03 2025 15:53:10 GMT-0600 (Central Standard Time),94970.40000000037,O,z,997,1,1,116.bmp,-120,-120,117.bmp,120,-120,118.bmp,-120,120,119.bmp,120,120,9810.599999999627,85159.80000000075,7053,yes,SM,A,116.bmp,-120,-120,89137,83108,91153,85121,,,,,1
3,0,0,1,0,2,prac,1,1,m,Mon Mar 03 2025 15:53:10 GMT-0600 (Central Standard Time),105383.90000000037,O,m,1464,2,1,120.bmp,-120,-120,121.bmp,120,-120,122.bmp,-120,120,123.bmp,120,120,10409.5,94974.40000000037,7053,no,SM,A,123.bmp,-120,120,98950,92923,100966,94935,,,,,2
4,0,0,0,1,3,prac,1,1,m,Mon Mar 03 2025 15:53:10 GMT-0600 (Central Standard Time),115380.70000000019,O,m,1170,3,1,124.bmp,-120,-120,125.bmp,120,-120,126.bmp,-120,120,127.bmp,120,120,9993.299999999814,105387.40000000037,7053,no,SM,A,124.bmp,120,120,109363,103336,111380,105348,,,,,3
2,0,1,0,0,4,prac,1,1,z,Mon Mar 03 2025 15:53:10 GMT-0600 (Central Standard Time),125294.70000000019,O,z,1085,4,1,128.bmp,-120,-120,129.bmp,120,-120,130.bmp,-120,120,131.bmp,120,120,9910.599999999627,115384.10000000056,7053,yes,SM,A,129.bmp,120,-120,119360,113333,121377,115345,,,,,4
3,0,0,1,0,5,prac,1,1,z,Mon Mar 03 2025 15:53:10 GMT-0600 (Central Standard Time),135224.40000000037,O,z,1108,5,1,132.bmp,-120,-120,133.bmp,120,-120,134.bmp,-120,120,135.bmp,120,120,9926.5,125297.90000000037,7053,yes,SM,A,134.bmp,-120,120,129274,123246,131290,125259,,,,,5
1,1,0,0,0,6,prac,1,1,m,Mon Mar 03 2025 15:53:10 GMT-0600 (Central Standard Time),145121.30000000075,O,m,1082,6,1,136.bmp,-120,-120,137.bmp,120,-120,138.bmp,-120,120,139.bmp,120,120,9893.600000000559,135227.7000000002,7053,no,SM,A,139.bmp,-120,-120,139204,133176,141220,135190,,,,,6
2,0,1,0,0,7,prac,1,1,m,Mon Mar 03 2025 15:53:10 GMT-0600 (Central Standard Time),155184.90000000037,O,m,1234,7,1,140.bmp,-120,-120,141.bmp,120,-120,142.bmp,-120,120,143.bmp,120,120,10060.400000000373,145124.5,7053,no,SM,A,140.bmp,120,-120,149101,143073,151117,145087,,,,,7
4,0,0,0,1,8,prac,1,1,z,Mon Mar 03 2025 15:53:10 GMT-0600 (Central Standard Time),165315.10000000056,O,z,1304,8,1,144.bmp,-120,-120,145.bmp,120,-120,146.bmp,-120,120,147.bmp,120,120,10126.600000000559,155188.5,7053,yes,SM,A,147.bmp,120,120,159164,153137,161182,155150,,,,,8
4,0,0,0,1,1,test,1,1,m,Mon Mar 03 2025 15:53:10 GMT-0600 (Central Standard Time),177911.10000000056,O,m,827,1,1,148.bmp,-120,-120,149.bmp,120,-120,150.bmp,-120,120,143.bmp,120,120,8994.600000000559,168916.5,7053,no,SM,A,150.bmp,120,120,159164,153137,161182,155150,173021.0,166865.0,175027.0,168878.0,1
2,0,1,0,0,2,test,1,1,m,Mon Mar 03 2025 15:53:10 GMT-0600 (Central Standard Time),187091.40000000037,O,m,1131,2,1,101.bmp,-120,-120,102.bmp,120,-120,103.bmp,-120,120,104.bmp,120,120,9176.700000000186,177914.7000000002,7053,no,SM,A,103.bmp,120,-120,159164,153137,161182,155150,181890.0,175863.0,183907.0,177876.0,2
1,1,0,0,0,3,test,1,1,z,Mon Mar 03 2025 15:53:10 GMT-0600 (Central Standard Time),196771.60000000056,O,z,1630,3,1,105.bmp,-120,-120,106.bmp,120,-120,107.bmp,-120,120,108.bmp,120,120,9677.400000000373,187094.2000000002,7053,yes,SM,A,105.bmp,-120,-120,159164,153137,161182,155150,191071.0,185042.0,193088.0,187056.0,3
3,0,0,1,0,3,test,1,0,m,Mon Mar 03 2025 15:53:10 GMT-0600 (Central Standard Time),206035.5,O,z,1231,4,1,109.bmp,-120,-120,110.bmp,120,-120,111.bmp,-120,120,112.bmp,120,120,9260.199999999255,196775.30000000075,7053,no,SM,A,109.bmp,-120,120,159164,153137,161182,155150,200735.0,194724.0,202751.0,196727.0,4
2,0,1,0,0,4,test,1,1,z,Mon Mar 03 2025 15:53:10 GMT-0600 (Central Standard Time),215599.10000000056,O,z,1501,5,1,113.bmp,-120,-120,114.bmp,120,-120,115.bmp,-120,120,116.bmp,120,120,9560.200000000186,206038.90000000037,7053,yes,SM,A,114.bmp,120,-120,159164,153137,161182,155150,210015.0,203987.0,212033.0,206000.0,5
3,0,0,1,0,5,test,1,1,z,Mon Mar 03 2025 15:53:10 GMT-0600 (Central Standard Time),224496.7000000002,O,z,843,6,1,117.bmp,-120,-120,118.bmp,120,-120,119.bmp,-120,120,120.bmp,120,120,8894.099999999627,215602.60000000056,7053,yes,SM,A,119.bmp,-120,120,159164,153137,161182,155150,219579.0,213551.0,221595.0,215564.0,6
4,0,0,0,1,6,test,1,1,z,Mon Mar 03 2025 15:53:10 GMT-0600 (Central Standard Time),233643.40000000037,O,z,1097,7,1,121.bmp,-120,-120,122.bmp,120,-120,123.bmp,-120,120,124.bmp,120,120,9143.299999999814,224500.10000000056,7053,yes,SM,A,124.bmp,120,120,159164,153137,161182,155150,228476.0,222448.0,230493.0,224461.0,7
2,0,1,0,0,7,test,1,1,m,Mon Mar 03 2025 15:53:10 GMT-0600 (Central Standard Time),242774.2000000002,O,m,1078,8,1,125.bmp,-120,-120,126.bmp,120,-120,127.bmp,-120,120,128.bmp,120,120,9127.799999999814,233646.40000000037,7053,no,SM,A,125.bmp,120,-120,159164,153137,161182,155150,237623.0,231595.0,239639.0,233608.0,8
3,0,0,1,0,8,test,1,1,m,Mon Mar 03 2025 15:53:10 GMT-0600 (Central Standard Time),252038.0,O,m,1212,9,1,129.bmp,-120,-120,130.bmp,120,-120,131.bmp,-120,120,132.bmp,120,120,9260.699999999255,242777.30000000075,7053,no,SM,A,130.bmp,-120,120,159164,153137,161182,155150,246754.0,240726.0,248770.0,242739.0,9
4,0,0,0,1,9,test,1,1,z,Mon Mar 03 2025 15:53:10 GMT-0600 (Central Standard Time),261568.30000000075,O,z,1476,10,1,137.bmp,-120,-120,138.bmp,120,-120,139.bmp,-120,120,140.bmp,120,120,9527.0,252041.30000000075,7053,yes,SM,A,140.bmp,120,120,159164,153137,161182,155150,256017.0,249989.0,258034.0,252002.0,10
3,0,0,1,0,10,test,1,1,z,Mon Mar 03 2025 15:53:10 GMT-0600 (Central Standard Time),270832.0,O,z,1202,11,1,133.bmp,-120,-120,134.bmp,120,-120,135.bmp,-120,120,136.bmp,120,120,9260.0,261572.0,7053,yes,SM,A,135.bmp,-120,120,159164,153137,161182,155150,265548.0,259520.0,267564.0,261533.0,11
2,0,1,0,0,11,test,1,1,m,Mon Mar 03 2025 15:53:10 GMT-0600 (Central Standard Time),279946.0,O,m,1050,12,1,141.bmp,-120,-120,142.bmp,120,-120,143.bmp,-120,120,144.bmp,120,120,9110.699999999255,270835.30000000075,7053,no,SM,A,141.bmp,120,-120,159164,153137,161182,155150,274812.0,268783.0,276828.0,270797.0,12
3,0,0,1,0,12,test,1,1,m,Mon Mar 03 2025 15:53:10 GMT-0600 (Central Standard Time),289193.0,O,m,1184,13,1,145.bmp,-120,-120,146.bmp,120,-120,147.bmp,-120,120,148.bmp,120,120,9243.099999999627,279949.9000000004,7053,no,SM,A,146.bmp,-120,120,159164,153137,161182,155150,283925.0,277898.0,285942.0,279910.0,13
1,1,0,0,0,13,test,1,1,z,Mon Mar 03 2025 15:53:10 GMT-0600 (Central Standard Time),298223.4000000004,O,z,969,14,1,149.bmp,-120,-120,150.bmp,120,-120,104.bmp,-120,120,101.bmp,120,120,9026.700000000186,289196.7000000002,7053,yes,SM,A,149.bmp,-120,-120,159164,153137,161182,155150,293172.0,287145.0,295189.0,289159.0,14
4,0,0,0,1,13,test,1,0,m,Mon Mar 03 2025 15:53:10 GMT-0600 (Central Standard Time),307537.2000000002,O,z,1260,15,1,110.bmp,-120,-120,111.bmp,120,-120,112.bmp,-120,120,113.bmp,120,120,9310.5,298226.7000000002,7053,no,SM,A,111.bmp,120,120,159164,153137,161182,155150,302203.0,296175.0,304219.0,298188.0,15
1,1,0,0,0,14,test,1,1,m,Mon Mar 03 2025 15:53:10 GMT-0600 (Central Standard Time),316667.60000000056,O,m,1081,16,1,102.bmp,-120,-120,103.bmp,120,-120,104.bmp,-120,120,105.bmp,120,120,9127.5,307540.10000000056,7053,no,SM,A,105.bmp,-120,-120,159164,153137,161182,155150,311517.0,305488.0,313533.0,307502.0,16
3,0,0,1,0,14,test,1,0,m,Mon Mar 03 2025 15:53:10 GMT-0600 (Central Standard Time),325882.80000000075,O,z,1158,17,1,122.bmp,-120,-120,123.bmp,120,-120,124.bmp,-120,120,125.bmp,120,120,9211.5,316671.30000000075,7053,no,SM,A,122.bmp,-120,120,159164,153137,161182,155150,320647.0,314619.0,322664.0,316632.0,17
1,1,0,0,0,15,test,1,1,z,Mon Mar 03 2025 15:53:10 GMT-0600 (Central Standard Time),335095.10000000056,O,z,1160,18,1,106.bmp,-120,-120,107.bmp,120,-120,108.bmp,-120,120,109.bmp,120,120,9209.200000000186,325885.9000000004,7053,yes,SM,A,106.bmp,-120,-120,159164,153137,161182,155150,329861.0,323834.0,331878.0,325846.0,18
2,0,1,0,0,16,test,1,1,z,Mon Mar 03 2025 15:53:10 GMT-0600 (Central Standard Time),344742.4000000004,O,z,1596,19,1,126.bmp,-120,-120,127.bmp,120,-120,128.bmp,-120,120,129.bmp,120,120,9644.0,335098.4000000004,7053,yes,SM,A,127.bmp,120,-120,159164,153137,161182,155150,339075.0,333047.0,341091.0,335060.0,19
3,0,0,1,0,17,test,1,1,z,Mon Mar 03 2025 15:53:10 GMT-0600 (Central Standard Time),353622.80000000075,O,z,828,20,1,130.bmp,-120,-120,131.bmp,120,-120,132.bmp,-120,120,133.bmp,120,120,8877.200000000186,344745.60000000056,7053,yes,SM,A,132.bmp,-120,120,159164,153137,161182,155150,348722.0,342694.0,350738.0,344707.0,20
1,1,0,0,0,17,test,1,0,m,Mon Mar 03 2025 15:53:10 GMT-0600 (Central Standard Time),363686.0,O,None,2015,21,1,114.bmp,-120,-120,115.bmp,120,-120,116.bmp,-120,120,117.bmp,120,120,10059.699999999255,353626.30000000075,7053,no,SM,A,116.bmp,-120,-120,159164,153137,161182,155150,357602.0,351575.0,359619.0,353587.0,21
4,0,0,0,1,18,test,1,1,z,Mon Mar 03 2025 15:53:10 GMT-0600 (Central Standard Time),372716.9000000004,O,z,980,22,1,118.bmp,-120,-120,119.bmp,120,-120,120.bmp,-120,120,121.bmp,120,120,9027.799999999814,363689.10000000056,7053,yes,SM,A,121.bmp,120,120,159164,153137,161182,155150,367666.0,361637.0,369682.0,363651.0,22
1,1,0,0,0,19,test,1,1,m,Mon Mar 03 2025 15:53:10 GMT-0600 (Central Standard Time),382014.0,O,m,1245,23,1,134.bmp,-120,-120,135.bmp,120,-120,136.bmp,-120,120,137.bmp,120,120,9294.099999999627,372719.9000000004,7053,no,SM,A,137.bmp,-120,-120,159164,153137,161182,155150,376697.0,370668.0,378713.0,372681.0,23
2,0,1,0,0,20,test,1,1,z,Mon Mar 03 2025 15:53:10 GMT-0600 (Central Standard Time),391177.7000000002,O,z,1100,24,1,142.bmp,-120,-120,143.bmp,120,-120,144.bmp,-120,120,145.bmp,120,120,9160.200000000186,382017.5,7053,yes,SM,A,143.bmp,120,-120,159164,153137,161182,155150,385995.0,379966.0,388010.0,381979.0,24
4,0,0,0,1,21,test,1,1,m,Mon Mar 03 2025 15:53:10 GMT-0600 (Central Standard Time),400391.5,O,m,1152,25,1,146.bmp,-120,-120,147.bmp,120,-120,148.bmp,-120,120,149.bmp,120,120,9210.5,391181.0,7053,no,SM,A,148.bmp,120,120,159164,153137,161182,155150,395157.0,389129.0,397175.0,391142.0,25
1,1,0,0,0,22,test,1,1,z,Mon Mar 03 2025 15:53:10 GMT-0600 (Central Standard Time),409505.4000000004,O,z,1050,26,1,138.bmp,-120,-120,139.bmp,120,-120,140.bmp,-120,120,141.bmp,120,120,9110.700000000186,400394.7000000002,7053,yes,SM,A,138.bmp,-120,-120,159164,153137,161182,155150,404371.0,398343.0,406388.0,400356.0,26
4,0,0,0,1,23,test,1,1,z,Mon Mar 03 2025 15:53:10 GMT-0600 (Central Standard Time),419285.7000000002,O,z,1721,27,1,150.bmp,-120,-120,111.bmp,120,-120,101.bmp,-120,120,102.bmp,120,120,9776.5,409509.2000000002,7053,yes,SM,A,102.bmp,120,120,159164,153137,161182,155150,413485.0,407458.0,415502.0,409470.0,27
3,0,0,1,0,23,test,1,0,m,Mon Mar 03 2025 15:53:10 GMT-0600 (Central Standard Time),428399.7000000002,O,z,1060,28,1,103.bmp,-120,-120,104.bmp,120,-120,105.bmp,-120,120,106.bmp,120,120,9110.799999999814,419288.9000000004,7053,no,SM,A,103.bmp,-120,120,159164,153137,161182,155150,423265.0,417237.0,425282.0,419250.0,28
2,0,1,0,0,24,test,1,1,z,Mon Mar 03 2025 15:53:10 GMT-0600 (Central Standard Time),437779.80000000075,O,z,1331,29,1,107.bmp,-120,-120,108.bmp,120,-120,109.bmp,-120,120,110.bmp,120,120,9376.900000000373,428402.9000000004,7053,yes,SM,A,108.bmp,120,-120,159164,153137,161182,155150,432379.0,426351.0,434396.0,428365.0,29
3,0,0,1,0,25,test,1,1,z,Mon Mar 03 2025 15:53:10 GMT-0600 (Central Standard Time),446793.80000000075,O,z,950,30,1,111.bmp,-120,-120,112.bmp,120,-120,113.bmp,-120,120,114.bmp,120,120,9010.700000000186,437783.10000000056,7053,yes,SM,A,113.bmp,-120,120,159164,153137,161182,155150,441760.0,435731.0,443776.0,437745.0,30
1,1,0,0,0,26,test,1,1,z,Mon Mar 03 2025 15:53:10 GMT-0600 (Central Standard Time),455440.9000000004,O,z,593,31,1,115.bmp,-120,-120,116.bmp,120,-120,117.bmp,-120,120,118.bmp,120,120,8643.900000000373,446797.0,7053,yes,SM,A,115.bmp,-120,-120,159164,153137,161182,155150,450773.0,444745.0,452790.0,446758.0,31
2,0,1,0,0,27,test,1,1,m,Mon Mar 03 2025 15:53:10 GMT-0600 (Central Standard Time),464421.9000000004,O,m,904,32,1,119.bmp,-120,-120,120.bmp,120,-120,121.bmp,-120,120,122.bmp,120,120,8978.0,455443.9000000004,7053,no,SM,A,119.bmp,120,-120,159164,153137,161182,155150,459437.0,453392.0,461454.0,455436.0,32
4,0,0,0,1,28,test,1,1,z,Mon Mar 03 2025 15:53:10 GMT-0600 (Central Standard Time),473735.4000000004,O,z,1261,33,1,131.bmp,-120,-120,132.bmp,120,-120,133.bmp,-120,120,134.bmp,120,120,9310.400000000373,464425.0,7053,yes,SM,A,134.bmp,120,120,159164,153137,161182,155150,468401.0,462373.0,470418.0,464386.0,33
2,0,1,0,0,29,test,1,1,z,Mon Mar 03 2025 15:53:10 GMT-0600 (Central Standard Time),482915.7000000002,O,z,1123,34,1,123.bmp,-120,-120,124.bmp,120,-120,125.bmp,-120,120,126.bmp,120,120,9177.299999999814,473738.4000000004,7053,yes,SM,A,124.bmp,120,-120,159164,153137,161182,155150,477715.0,471687.0,479731.0,473700.0,34
4,0,0,0,1,30,test,1,1,m,Mon Mar 03 2025 15:53:10 GMT-0600 (Central Standard Time),492262.80000000075,O,m,1287,35,1,127.bmp,-120,-120,128.bmp,120,-120,129.bmp,-120,120,130.bmp,120,120,9344.0,482918.80000000075,7053,no,SM,A,129.bmp,120,120,159164,153137,161182,155150,486896.0,480867.0,488912.0,482880.0,35
3,0,0,1,0,30,test,1,0,m,Mon Mar 03 2025 15:53:10 GMT-0600 (Central Standard Time),501426.9000000004,O,z,1116,36,1,135.bmp,-120,-120,136.bmp,120,-120,137.bmp,-120,120,138.bmp,120,120,9160.900000000373,492266.0,7053,no,SM,A,135.bmp,-120,120,159164,153137,161182,155150,496243.0,490214.0,498259.0,492227.0,36
1,1,0,0,0,31,test,1,1,m,Mon Mar 03 2025 15:53:10 GMT-0600 (Central Standard Time),510473.9000000004,O,m,983,37,1,139.bmp,-120,-120,140.bmp,120,-120,141.bmp,-120,120,142.bmp,120,120,9043.799999999814,501430.10000000056,7053,no,SM,A,140.bmp,-120,-120,159164,153137,161182,155150,505406.0,499378.0,507423.0,501391.0,37
2,0,1,0,0,32,test,1,1,m,Mon Mar 03 2025 15:53:10 GMT-0600 (Central Standard Time),519821.0,O,m,1288,38,1,143.bmp,-120,-120,144.bmp,120,-120,145.bmp,-120,120,146.bmp,120,120,9343.699999999255,510477.30000000075,7053,no,SM,A,145.bmp,120,-120,159164,153137,161182,155150,514454.0,508426.0,516470.0,510439.0,38
4,0,0,0,1,33,test,1,1,z,Mon Mar 03 2025 15:53:10 GMT-0600 (Central Standard Time),529251.1000000006,O,z,1382,39,1,147.bmp,-120,-120,148.bmp,120,-120,149.bmp,-120,120,150.bmp,120,120,9427.100000000559,519824.0,7053,yes,SM,A,150.bmp,120,120,159164,153137,161182,155150,523801.0,517772.0,525817.0,519786.0,39
3,0,0,1,0,34,test,1,1,m,Mon Mar 03 2025 15:53:10 GMT-0600 (Central Standard Time),538265.3000000007,O,m,960,40,1,104.bmp,-120,-120,105.bmp,120,-120,106.bmp,-120,120,107.bmp,120,120,9010.100000000559,529255.2000000002,7053,no,SM,A,105.bmp,-120,120,159164,153137,161182,155150,533231.0,527203.0,535247.0,529216.0,40
1,1,0,0,0,35,test,1,1,z,Mon Mar 03 2025 15:53:10 GMT-0600 (Central Standard Time),546912.7000000002,O,z,586,41,1,108.bmp,-120,-120,109.bmp,120,-120,110.bmp,-120,120,111.bmp,120,120,8644.200000000186,538268.5,7053,yes,SM,A,108.bmp,-120,-120,159164,153137,161182,155150,542245.0,536217.0,544261.0,538230.0,41
4,0,0,0,1,36,test,1,1,z,Mon Mar 03 2025 15:53:10 GMT-0600 (Central Standard Time),555892.9000000004,O,z,922,42,1,112.bmp,-120,-120,113.bmp,120,-120,114.bmp,-120,120,115.bmp,120,120,8977.099999999627,546915.8000000007,7053,yes,SM,A,115.bmp,120,120,159164,153137,161182,155150,550892.0,544864.0,552909.0,546877.0,42
1,1,0,0,0,37,test,1,1,z,Mon Mar 03 2025 15:53:10 GMT-0600 (Central Standard Time),564706.9000000004,O,z,758,43,1,116.bmp,-120,-120,117.bmp,120,-120,118.bmp,-120,120,119.bmp,120,120,8810.900000000373,555896.0,7053,yes,SM,A,116.bmp,-120,-120,159164,153137,161182,155150,559873.0,553844.0,561889.0,555857.0,43
4,0,0,0,1,38,test,1,1,m,Mon Mar 03 2025 15:53:10 GMT-0600 (Central Standard Time),573570.7000000002,O,m,807,44,1,104.bmp,-120,-120,101.bmp,120,-120,102.bmp,-120,120,103.bmp,120,120,8860.799999999814,564709.9000000004,7053,no,SM,A,104.bmp,120,120,159164,153137,161182,155150,568688.0,562658.0,570703.0,564671.0,44
1,1,0,0,0,39,test,1,1,m,Mon Mar 03 2025 15:53:10 GMT-0600 (Central Standard Time),582484.3000000007,O,m,871,45,1,128.bmp,-120,-120,129.bmp,120,-120,130.bmp,-120,120,131.bmp,120,120,8910.5,573573.8000000007,7053,no,SM,A,131.bmp,-120,-120,159164,153137,161182,155150,577550.0,571522.0,579551.0,573535.0,45
1,1,0,0,0,40,test,1,1,m,Mon Mar 03 2025 15:53:10 GMT-0600 (Central Standard Time),591398.5,O,m,855,46,1,120.bmp,-120,-120,121.bmp,120,-120,122.bmp,-120,120,123.bmp,120,120,8911.399999999441,582487.1000000006,7053,no,SM,A,121.bmp,-120,-120,159164,153137,161182,155150,586464.0,580435.0,588480.0,582449.0,46
3,0,0,1,0,41,test,1,1,z,Mon Mar 03 2025 15:53:10 GMT-0600 (Central Standard Time),600845.6000000006,O,z,1396,47,1,124.bmp,-120,-120,125.bmp,120,-120,126.bmp,-120,120,127.bmp,120,120,9444.0,591401.6000000006,7053,yes,SM,A,126.bmp,-120,120,159164,153137,161182,155150,595378.0,589350.0,597395.0,591363.0,47
3,0,0,1,0,42,test,1,1,z,Mon Mar 03 2025 15:53:10 GMT-0600 (Central Standard Time),609842.8000000007,O,z,940,48,1,140.bmp,-120,-120,141.bmp,120,-120,142.bmp,-120,120,143.bmp,120,120,8994.5,600848.3000000007,7053,yes,SM,A,142.bmp,-120,120,159164,153137,161182,155150,604825.0,598796.0,606842.0,600810.0,48
2,0,1,0,0,43,test,1,1,z,Mon Mar 03 2025 15:53:10 GMT-0600 (Central Standard Time),619106.6000000006,O,z,1200,49,1,136.bmp,-120,-120,137.bmp,120,-120,138.bmp,-120,120,139.bmp,120,120,9260.600000000559,609846.0,7053,yes,SM,A,137.bmp,120,-120,159164,153137,161182,155150,613822.0,607794.0,615839.0,609807.0,49
3,0,0,1,0,43,test,1,0,m,Mon Mar 03 2025 15:53:10 GMT-0600 (Central Standard Time),628353.6000000006,O,z,1184,50,1,132.bmp,-120,-120,133.bmp,120,-120,134.bmp,-120,120,135.bmp,120,120,9244.0,619109.6000000006,7053,no,SM,A,132.bmp,-120,120,159164,153137,161182,155150,623086.0,617058.0,625103.0,619071.0,50
2,0,1,0,0,44,test,1,1,z,Mon Mar 03 2025 15:53:10 GMT-0600 (Central Standard Time),637367.4000000004,O,z,961,51,1,144.bmp,-120,-120,145.bmp,120,-120,146.bmp,-120,120,147.bmp,120,120,9010.5,628356.9000000004,7053,yes,SM,A,145.bmp,120,-120,159164,153137,161182,155150,632333.0,626305.0,634350.0,628318.0,51
4,0,0,0,1,45,test,1,1,m,Mon Mar 03 2025 15:53:10 GMT-0600 (Central Standard Time),646298.0,O,m,875,52,1,148.bmp,-120,-120,149.bmp,120,-120,150.bmp,-120,120,131.bmp,120,120,8927.699999999255,637370.3000000007,7053,no,SM,A,148.bmp,120,120,159164,153137,161182,155150,641348.0,635318.0,643364.0,637332.0,52
3,0,0,1,0,46,test,1,1,z,Mon Mar 03 2025 15:53:10 GMT-0600 (Central Standard Time),655428.6000000006,O,z,1081,53,1,101.bmp,-120,-120,102.bmp,120,-120,103.bmp,-120,120,104.bmp,120,120,9127.400000000373,646301.2000000002,7053,yes,SM,A,103.bmp,-120,120,159164,153137,161182,155150,650278.0,644249.0,652294.0,646262.0,53
1,1,0,0,0,46,test,1,0,m,Mon Mar 03 2025 15:53:10 GMT-0600 (Central Standard Time),664408.8000000007,O,z,926,54,1,105.bmp,-120,-120,106.bmp,120,-120,107.bmp,-120,120,108.bmp,120,120,8975.800000000745,655433.0,7053,no,SM,A,107.bmp,-120,-120,159164,153137,161182,155150,659408.0,653381.0,661424.0,655393.0,54
4,0,0,0,1,47,test,1,1,z,Mon Mar 03 2025 15:53:10 GMT-0600 (Central Standard Time),673639.5,O,z,1177,55,1,109.bmp,-120,-120,110.bmp,120,-120,111.bmp,-120,120,112.bmp,120,120,9227.699999999255,664411.8000000007,7053,yes,SM,A,112.bmp,120,120,159164,153137,161182,155150,668389.0,662360.0,670405.0,664374.0,55
2,0,1,0,0,48,test,1,1,m,Mon Mar 03 2025 15:53:10 GMT-0600 (Central Standard Time),682553.4000000004,O,m,852,56,1,113.bmp,-120,-120,114.bmp,120,-120,115.bmp,-120,120,116.bmp,120,120,8910.599999999627,673642.8000000007,7053,no,SM,A,113.bmp,120,-120,159164,153137,161182,155150,677619.0,671591.0,679635.0,673604.0,56
4,0,0,0,1,48,test,1,0,m,Mon Mar 03 2025 15:53:10 GMT-0600 (Central Standard Time),691717.3000000007,O,z,1113,57,1,117.bmp,-120,-120,118.bmp,120,-120,119.bmp,-120,120,120.bmp,120,120,9160.900000000373,682556.4000000004,7053,no,SM,A,118.bmp,120,120,159164,153137,161182,155150,686533.0,680505.0,688550.0,682518.0,57
3,0,0,1,0,49,test,1,1,z,Mon Mar 03 2025 15:53:10 GMT-0600 (Central Standard Time),700697.7000000002,O,z,926,58,1,121.bmp,-120,-120,122.bmp,120,-120,123.bmp,-120,120,124.bmp,120,120,8977.299999999814,691720.4000000004,7053,yes,SM,A,123.bmp,-120,120,159164,153137,161182,155150,695697.0,689669.0,697713.0,691682.0,58
2,0,1,0,0,49,test,1,0,m,Mon Mar 03 2025 15:53:10 GMT-0600 (Central Standard Time),709828.3000000007,O,z,1073,59,1,125.bmp,-120,-120,126.bmp,120,-120,127.bmp,-120,120,128.bmp,120,120,9127.600000000559,700700.7000000002,7053,no,SM,A,128.bmp,120,-120,159164,153137,161182,155150,704677.0,698649.0,706694.0,700662.0,59
1,1,0,0,0,50,test,1,1,z,Mon Mar 03 2025 15:53:10 GMT-0600 (Central Standard Time),718825.5,O,z,935,60,1,129.bmp,-120,-120,130.bmp,120,-120,131.bmp,-120,120,132.bmp,120,120,8994.0,709831.5,7053,yes,SM,A,129.bmp,-120,-120,159164,153137,161182,155150,713808.0,707780.0,715824.0,709793.0,60
2,0,1,0,0,51,test,1,1,z,Mon Mar 03 2025 15:53:10 GMT-0600 (Central Standard Time),727939.2000000002,O,z,1050,61,1,133.bmp,-120,-120,134.bmp,120,-120,135.bmp,-120,120,136.bmp,120,120,9110.899999999441,718828.3000000007,7053,yes,SM,A,134.bmp,120,-120,159164,153137,161182,155150,722805.0,716777.0,724821.0,718790.0,61
4,0,0,0,1,52,test,1,1,z,Mon Mar 03 2025 15:53:10 GMT-0600 (Central Standard Time),736936.4000000004,O,z,941,62,1,141.bmp,-120,-120,142.bmp,120,-120,143.bmp,-120,120,144.bmp,120,120,8994.099999999627,727942.3000000007,7053,yes,SM,A,144.bmp,120,120,159164,153137,161182,155150,731919.0,725890.0,733937.0,727904.0,62
1,1,0,0,0,52,test,1,0,m,Mon Mar 03 2025 15:53:10 GMT-0600 (Central Standard Time),746083.3000000007,O,z,1099,63,1,145.bmp,-120,-120,146.bmp,120,-120,147.bmp,-120,120,148.bmp,120,120,9143.800000000745,736939.5,7053,no,SM,A,145.bmp,-120,120,159164,153137,161182,155150,740916.0,734888.0,742932.0,736901.0,63
2,0,1,0,0,53,test,1,1,z,Mon Mar 03 2025 15:53:10 GMT-0600 (Central Standard Time),755080.8000000007,O,z,943,64,1,149.bmp,-120,-120,150.bmp,120,-120,112.bmp,-120,120,101.bmp,120,120,8994.700000000186,746086.1000000006,7053,yes,SM,A,150.bmp,120,-120,159164,153137,161182,155150,750063.0,744034.0,752079.0,746048.0,64
4,0,0,0,1,54,test,1,1,m,Mon Mar 03 2025 15:53:10 GMT-0600 (Central Standard Time),764944.4000000004,O,m,1810,65,1,102.bmp,-120,-120,103.bmp,120,-120,104.bmp,-120,120,105.bmp,120,120,9860.700000000186,755083.7000000002,7053,no,SM,A,104.bmp,120,120,159164,153137,161182,155150,759060.0,753032.0,761077.0,755045.0,65
3,0,0,1,0,55,test,1,1,m,Mon Mar 03 2025 15:53:10 GMT-0600 (Central Standard Time),773891.6000000006,O,m,891,66,1,106.bmp,-120,-120,107.bmp,120,-120,108.bmp,-120,120,109.bmp,120,120,8944.100000000559,764947.5,7053,no,SM,A,109.bmp,-120,120,159164,153137,161182,155150,768924.0,762896.0,770940.0,764909.0,66
2,0,1,0,0,56,test,1,1,m,Mon Mar 03 2025 15:53:10 GMT-0600 (Central Standard Time),783171.7000000002,O,m,1223,67,1,137.bmp,-120,-120,138.bmp,120,-120,139.bmp,-120,120,140.bmp,120,120,9276.799999999814,773894.9000000004,7053,no,SM,A,139.bmp,120,-120,159164,153137,161182,155150,777871.0,771843.0,779887.0,773856.0,67
3,0,0,1,0,57,test,1,1,z,Mon Mar 03 2025 15:53:10 GMT-0600 (Central Standard Time),792202.5,O,z,974,68,1,110.bmp,-120,-120,111.bmp,120,-120,112.bmp,-120,120,113.bmp,120,120,9027.699999999255,783174.8000000007,7053,yes,SM,A,112.bmp,-120,120,159164,153137,161182,155150,787152.0,781123.0,789168.0,783136.0,68
1,1,0,0,0,58,test,1,1,m,Mon Mar 03 2025 15:53:10 GMT-0600 (Central Standard Time),801184.2000000002,O,m,921,69,1,114.bmp,-120,-120,115.bmp,120,-120,116.bmp,-120,120,117.bmp,120,120,8978.200000000186,792206.0,7053,no,SM,A,115.bmp,-120,-120,159164,153137,161182,155150,796182.0,790154.0,798198.0,792167.0,69
2,0,1,0,0,59,test,1,1,m,Mon Mar 03 2025 15:53:10 GMT-0600 (Central Standard Time),810096.8000000007,O,m,852,70,1,118.bmp,-120,-120,119.bmp,120,-120,120.bmp,-120,120,121.bmp,120,120,8909.700000000186,801187.1000000006,7053,no,SM,A,120.bmp,120,-120,159164,153137,161182,155150,805164.0,799135.0,807179.0,801148.0,70
4,0,0,0,1,60,test,1,1,z,Mon Mar 03 2025 15:53:10 GMT-0600 (Central Standard Time),819477.3000000007,O,z,1330,71,1,122.bmp,-120,-120,123.bmp,120,-120,124.bmp,-120,120,125.bmp,120,120,9377.400000000373,810099.9000000004,7053,yes,SM,A,125.bmp,120,120,159164,153137,161182,155150,814078.0,808048.0,816093.0,810061.0,71
1,1,0,0,0,61,test,1,1,z,Mon Mar 03 2025 15:53:10 GMT-0600 (Central Standard Time),828507.7000000002,O,z,974,72,1,126.bmp,-120,-120,127.bmp,120,-120,128.bmp,-120,120,129.bmp,120,120,9027.299999999814,819480.4000000004,7053,yes,SM,A,126.bmp,-120,-120,159164,153137,161182,155150,823457.0,817429.0,825473.0,819442.0,72
2,0,1,0,0,62,test,1,1,z,Mon Mar 03 2025 15:53:10 GMT-0600 (Central Standard Time),837121.7000000002,O,z,559,73,1,130.bmp,-120,-120,131.bmp,120,-120,132.bmp,-120,120,133.bmp,120,120,8611.099999999627,828510.6000000006,7053,yes,SM,A,131.bmp,120,-120,159164,153137,161182,155150,832488.0,826459.0,834504.0,828472.0,73
4,0,0,0,1,63,test,1,1,m,Mon Mar 03 2025 15:53:10 GMT-0600 (Central Standard Time),846018.9000000004,O,m,856,74,1,134.bmp,-120,-120,135.bmp,120,-120,136.bmp,-120,120,137.bmp,120,120,8894.200000000186,837124.7000000002,7053,no,SM,A,136.bmp,120,120,159164,153137,161182,155150,841101.0,835073.0,843102.0,837086.0,74
2,0,1,0,0,63,test,1,0,m,Mon Mar 03 2025 15:53:10 GMT-0600 (Central Standard Time),854966.2000000002,O,z,888,75,1,138.bmp,-120,-120,139.bmp,120,-120,140.bmp,-120,120,141.bmp,120,120,8944.599999999627,846021.6000000006,7053,no,SM,A,141.bmp,120,-120,159164,153137,161182,155150,849999.0,843970.0,852015.0,845983.0,75
1,1,0,0,0,64,test,1,1,z,Mon Mar 03 2025 15:53:10 GMT-0600 (Central Standard Time),864029.9000000004,O,z,1013,76,1,142.bmp,-120,-120,143.bmp,120,-120,144.bmp,-120,120,145.bmp,120,120,9060.200000000186,854969.7000000002,7053,yes,SM,A,142.bmp,-120,-120,159164,153137,161182,155150,858946.0,852918.0,860962.0,854931.0,76
3,0,0,1,0,65,test,1,1,z,Mon Mar 03 2025 15:53:10 GMT-0600 (Central Standard Time),872977.2000000002,O,z,885,77,1,150.bmp,-120,-120,111.bmp,120,-120,101.bmp,-120,120,102.bmp,120,120,8944.200000000186,864033.0,7053,yes,SM,A,101.bmp,-120,120,159164,153137,161182,155150,868010.0,861981.0,870026.0,863995.0,77
1,1,0,0,0,66,test,1,1,m,Mon Mar 03 2025 15:53:10 GMT-0600 (Central Standard Time),881909.0,O,m,874,78,1,146.bmp,-120,-120,147.bmp,120,-120,148.bmp,-120,120,149.bmp,120,120,8928.299999999814,872980.7000000002,7053,no,SM,A,147.bmp,-120,-120,159164,153137,161182,155150,876957.0,870929.0,878973.0,872941.0,78
4,0,0,0,1,67,test,1,1,m,Mon Mar 03 2025 15:53:10 GMT-0600 (Central Standard Time),890838.3000000007,O,m,871,79,1,107.bmp,-120,-120,108.bmp,120,-120,109.bmp,-120,120,110.bmp,120,120,8920.900000000373,881917.4000000004,7053,no,SM,A,107.bmp,120,120,159164,153137,161182,155150,885887.0,879866.0,887904.0,881873.0,79
3,0,0,1,0,68,test,1,1,m,Mon Mar 03 2025 15:53:10 GMT-0600 (Central Standard Time),899902.2000000002,O,m,1005,80,1,103.bmp,-120,-120,104.bmp,120,-120,105.bmp,-120,120,106.bmp,120,120,9060.299999999814,890841.9000000004,7053,no,SM,A,106.bmp,-120,120,159164,153137,161182,155150,894818.0,888790.0,896834.0,890803.0,80
