acc_sum,block,block_c,change,condition,correct,correct_response,datetime,endtime,face,project,response,response_time,row_sel,session_number,start_end,starttime,subject_id,task,task_vers,trial
0,prac,1,,1-Back,,,Wed Nov 20 2024 13:33:18 GMT-0600 (Central Standard Time),,050_m_f_n_a.png,I,space,15538,1,2,,,8000,NNB,A,0
1,prac,1,0.0,1-Back,1,m,Wed Nov 20 2024 13:33:18 GMT-0600 (Central Standard Time),203345.5,063_y_f_n_a.png,I,m,1615,2,2,2423.2999999970198,200922.20000000298,8000,NNB,A,1
2,prac,1,1.0,1-Back,1,z,Wed Nov 20 2024 13:33:18 GMT-0600 (Central Standard Time),205494.8999999985,063_y_f_n_a.png,I,z,1360,3,2,2141.6999999955297,203353.20000000298,8000,NNB,A,2
3,prac,1,0.0,1-Back,1,m,Wed Nov 20 2024 13:33:18 GMT-0600 (Central Standard Time),207044.5,053_o_m_n_a.png,I,m,738,4,2,1541.8999999985099,205502.6000000015,8000,NNB,A,3
4,prac,1,0.0,1-Back,1,m,Wed Nov 20 2024 13:33:18 GMT-0600 (Central Standard Time),208643.8999999985,058_m_m_n_a.png,I,m,797,5,2,1592.0999999940395,207051.80000000447,8000,NNB,A,4
5,prac,1,1.0,1-Back,1,z,Wed Nov 20 2024 13:33:18 GMT-0600 (Central Standard Time),210110.1000000015,058_m_m_n_a.png,I,z,679,6,2,1459.2000000029802,208650.8999999985,8000,NNB,A,5
6,prac,1,0.0,1-Back,1,m,Wed Nov 20 2024 13:33:18 GMT-0600 (Central Standard Time),211643.20000000298,047_o_f_n_a.png,I,m,693,7,2,1526.3999999985099,210116.80000000447,8000,NNB,A,6
6,prac,1,0.0,1-Back,0,m,Wed Nov 20 2024 13:33:18 GMT-0600 (Central Standard Time),213242.6000000015,045_m_m_n_a.png,I,z,792,8,2,1591.7999999970198,211650.80000000447,8000,NNB,A,7
7,prac,1,0.0,1-Back,1,m,Wed Nov 20 2024 13:33:18 GMT-0600 (Central Standard Time),214758.70000000298,050_m_f_n_a.png,I,m,709,9,2,1509.0,213249.70000000298,8000,NNB,A,8
8,prac,1,1.0,1-Back,1,z,Wed Nov 20 2024 13:33:18 GMT-0600 (Central Standard Time),216391.5,050_m_f_n_a.png,I,z,844,10,2,1625.6999999955297,214765.80000000447,8000,NNB,A,9
9,prac,1,0.0,1-Back,1,m,Wed Nov 20 2024 13:33:18 GMT-0600 (Central Standard Time),217841.1000000015,053_o_m_n_a.png,I,m,659,11,2,1442.3999999985099,216398.70000000298,8000,NNB,A,10
10,prac,1,0.0,1-Back,1,m,Wed Nov 20 2024 13:33:18 GMT-0600 (Central Standard Time),219557.5,010_y_f_n_a.png,I,m,877,12,2,1709.0,217848.5,8000,NNB,A,11
0,test,1,0.0,1-Back,,,Wed Nov 20 2024 13:33:18 GMT-0600 (Central Standard Time),219557.5,063_y_f_n_a.png,I,space,13592,1,2,1709.0,217848.5,8000,NNB,A,0
1,test,1,0.0,1-Back,1,m,Wed Nov 20 2024 13:33:18 GMT-0600 (Central Standard Time),245732.20000000298,043_m_f_n_a.png,I,m,1130,2,2,2142.7000000029802,243589.5,8000,NNB,A,1
2,test,1,0.0,1-Back,1,m,Wed Nov 20 2024 13:33:18 GMT-0600 (Central Standard Time),247381.70000000298,010_y_f_n_a.png,I,m,621,3,2,1643.2000000029802,245738.5,8000,NNB,A,2
3,test,1,1.0,1-Back,1,z,Wed Nov 20 2024 13:33:18 GMT-0600 (Central Standard Time),249014.3999999985,010_y_f_n_a.png,I,z,604,4,2,1626.0999999940395,247388.30000000447,8000,NNB,A,3
4,test,1,0.0,1-Back,1,m,Wed Nov 20 2024 13:33:18 GMT-0600 (Central Standard Time),250663.80000000447,043_m_f_n_a.png,I,m,619,5,2,1643.6000000014901,249020.20000000298,8000,NNB,A,4
5,test,1,0.0,1-Back,1,m,Wed Nov 20 2024 13:33:18 GMT-0600 (Central Standard Time),252313.5,053_o_m_n_a.png,I,m,617,6,2,1644.1999999955297,250669.30000000447,8000,NNB,A,5
6,test,1,1.0,1-Back,1,z,Wed Nov 20 2024 13:33:18 GMT-0600 (Central Standard Time),253896.20000000298,053_o_m_n_a.png,I,z,552,7,2,1576.8999999985099,252319.30000000447,8000,NNB,A,6
7,test,1,0.0,1-Back,1,m,Wed Nov 20 2024 13:33:18 GMT-0600 (Central Standard Time),255679.1000000015,058_m_m_n_a.png,I,m,753,8,2,1777.1000000014901,253902.0,8000,NNB,A,7
8,test,1,0.0,1-Back,1,m,Wed Nov 20 2024 13:33:18 GMT-0600 (Central Standard Time),257445.1000000015,047_o_f_n_a.png,I,m,738,9,2,1760.1000000014901,255685.0,8000,NNB,A,8
9,test,1,0.0,1-Back,1,m,Wed Nov 20 2024 13:33:18 GMT-0600 (Central Standard Time),259411.30000000447,058_m_m_n_a.png,I,m,940,10,2,1960.2000000029802,257451.1000000015,8000,NNB,A,9
10,test,1,0.0,1-Back,1,m,Wed Nov 20 2024 13:33:18 GMT-0600 (Central Standard Time),261224.3999999985,041_y_m_n_a.png,I,m,796,11,2,1807.0,259417.3999999985,8000,NNB,A,10
11,test,1,1.0,1-Back,1,z,Wed Nov 20 2024 13:33:18 GMT-0600 (Central Standard Time),262893.3999999985,041_y_m_n_a.png,I,z,646,12,2,1662.6999999955297,261230.70000000298,8000,NNB,A,11
12,test,1,0.0,1-Back,1,m,Wed Nov 20 2024 13:33:18 GMT-0600 (Central Standard Time),264509.700000003,044_o_f_n_a.png,I,m,588,13,2,1609.8999999985099,262899.80000000447,8000,NNB,A,12
13,test,1,1.0,1-Back,1,z,Wed Nov 20 2024 13:33:18 GMT-0600 (Central Standard Time),266159.30000000447,044_o_f_n_a.png,I,z,618,14,2,1643.4000000059605,264515.8999999985,8000,NNB,A,13
14,test,1,0.0,1-Back,1,m,Wed Nov 20 2024 13:33:18 GMT-0600 (Central Standard Time),267741.8999999985,008_y_m_n_a.png,I,m,554,15,2,1576.0,266165.8999999985,8000,NNB,A,14
15,test,1,0.0,1-Back,1,m,Wed Nov 20 2024 13:33:18 GMT-0600 (Central Standard Time),269458.30000000447,050_m_f_n_a.png,I,m,693,16,2,1710.6000000014901,267747.700000003,8000,NNB,A,15
16,test,1,0.0,1-Back,1,m,Wed Nov 20 2024 13:33:18 GMT-0600 (Central Standard Time),271057.80000000447,046_o_m_n_a.png,I,m,575,17,2,1592.4000000059605,269465.3999999985,8000,NNB,A,16
17,test,1,0.0,1-Back,1,m,Wed Nov 20 2024 13:33:18 GMT-0600 (Central Standard Time),272590.30000000447,050_m_f_n_a.png,I,m,512,18,2,1526.1000000014901,271064.200000003,8000,NNB,A,17
0,test,2,0.0,1-Back,,,Wed Nov 20 2024 13:33:18 GMT-0600 (Central Standard Time),272590.30000000447,058_m_m_n_a.png,I,space,3731,1,2,1526.1000000014901,271064.200000003,8000,NNB,A,0
1,test,2,0.0,1-Back,1,m,Wed Nov 20 2024 13:33:18 GMT-0600 (Central Standard Time),280071.200000003,043_m_f_n_a.png,I,m,702,2,2,1726.3999999985099,278344.80000000447,8000,NNB,A,1
2,test,2,1.0,1-Back,1,z,Wed Nov 20 2024 13:33:18 GMT-0600 (Central Standard Time),281787.200000003,043_m_f_n_a.png,I,z,698,3,2,1707.8000000044703,280079.3999999985,8000,NNB,A,2
3,test,2,0.0,1-Back,1,m,Wed Nov 20 2024 13:33:18 GMT-0600 (Central Standard Time),283453.6000000015,058_m_m_n_a.png,I,m,646,4,2,1660.7000000029802,281792.8999999985,8000,NNB,A,3
4,test,2,0.0,1-Back,1,m,Wed Nov 20 2024 13:33:18 GMT-0600 (Central Standard Time),285053.200000003,041_y_m_n_a.png,I,m,572,5,2,1593.3999999985099,283459.80000000447,8000,NNB,A,4
5,test,2,0.0,1-Back,1,m,Wed Nov 20 2024 13:33:18 GMT-0600 (Central Standard Time),286586.0,063_y_f_n_a.png,I,m,509,6,2,1526.6999999955297,285059.30000000447,8000,NNB,A,5
6,test,2,1.0,1-Back,1,z,Wed Nov 20 2024 13:33:18 GMT-0600 (Central Standard Time),288352.30000000447,063_y_f_n_a.png,I,z,735,7,2,1760.1000000014901,286592.200000003,8000,NNB,A,6
7,test,2,0.0,1-Back,1,m,Wed Nov 20 2024 13:33:18 GMT-0600 (Central Standard Time),289951.5,041_y_m_n_a.png,I,m,577,8,2,1593.5,288358.0,8000,NNB,A,7
8,test,2,0.0,1-Back,1,m,Wed Nov 20 2024 13:33:18 GMT-0600 (Central Standard Time),291601.1000000015,044_o_f_n_a.png,I,m,626,9,2,1643.3999999985099,289957.700000003,8000,NNB,A,8
9,test,2,0.0,1-Back,1,m,Wed Nov 20 2024 13:33:18 GMT-0600 (Central Standard Time),293217.6000000015,045_m_m_n_a.png,I,m,584,10,2,1610.5,291607.1000000015,8000,NNB,A,9
10,test,2,1.0,1-Back,1,z,Wed Nov 20 2024 13:33:18 GMT-0600 (Central Standard Time),295066.700000003,045_m_m_n_a.png,I,z,832,11,2,1843.1000000014901,293223.6000000015,8000,NNB,A,10
11,test,2,0.0,1-Back,1,m,Wed Nov 20 2024 13:33:18 GMT-0600 (Central Standard Time),296632.80000000447,044_o_f_n_a.png,I,m,535,12,2,1560.1000000014901,295072.700000003,8000,NNB,A,11
12,test,2,0.0,1-Back,1,m,Wed Nov 20 2024 13:33:18 GMT-0600 (Central Standard Time),298215.80000000447,047_o_f_n_a.png,I,m,552,13,2,1576.9000000059605,296638.8999999985,8000,NNB,A,12
13,test,2,0.0,1-Back,1,m,Wed Nov 20 2024 13:33:18 GMT-0600 (Central Standard Time),299915.3999999985,053_o_m_n_a.png,I,m,667,14,2,1693.0999999940395,298222.30000000447,8000,NNB,A,13
14,test,2,0.0,1-Back,1,m,Wed Nov 20 2024 13:33:18 GMT-0600 (Central Standard Time),301464.700000003,046_o_m_n_a.png,I,m,526,15,2,1543.3000000044703,299921.3999999985,8000,NNB,A,14
15,test,2,1.0,1-Back,1,z,Wed Nov 20 2024 13:33:18 GMT-0600 (Central Standard Time),303081.0,046_o_m_n_a.png,I,z,592,16,2,1609.8999999985099,301471.1000000015,8000,NNB,A,15
16,test,2,0.0,1-Back,1,m,Wed Nov 20 2024 13:33:18 GMT-0600 (Central Standard Time),304830.3999999985,008_y_m_n_a.png,I,m,721,17,2,1743.5,303086.8999999985,8000,NNB,A,16
17,test,2,1.0,1-Back,1,z,Wed Nov 20 2024 13:33:18 GMT-0600 (Central Standard Time),306429.700000003,008_y_m_n_a.png,I,z,579,18,2,1593.5,304836.200000003,8000,NNB,A,17
0,test,3,1.0,1-Back,,,Wed Nov 20 2024 13:33:18 GMT-0600 (Central Standard Time),306429.700000003,010_y_f_n_a.png,I,space,2604,1,2,1593.5,304836.200000003,8000,NNB,A,0
1,test,3,0.0,1-Back,1,m,Wed Nov 20 2024 13:33:18 GMT-0600 (Central Standard Time),312761.200000003,046_o_m_n_a.png,I,m,618,2,2,1643.8000000044703,311117.3999999985,8000,NNB,A,1
2,test,3,1.0,1-Back,1,z,Wed Nov 20 2024 13:33:18 GMT-0600 (Central Standard Time),314393.8999999985,046_o_m_n_a.png,I,z,608,3,2,1626.6999999955297,312767.200000003,8000,NNB,A,2
3,test,3,0.0,1-Back,1,m,Wed Nov 20 2024 13:33:18 GMT-0600 (Central Standard Time),315993.30000000447,050_m_f_n_a.png,I,m,567,4,2,1593.0,314400.30000000447,8000,NNB,A,3
4,test,3,1.0,1-Back,1,z,Wed Nov 20 2024 13:33:18 GMT-0600 (Central Standard Time),317576.30000000447,050_m_f_n_a.png,I,z,560,5,2,1576.8000000044703,315999.5,8000,NNB,A,4
5,test,3,0.0,1-Back,1,m,Wed Nov 20 2024 13:33:18 GMT-0600 (Central Standard Time),319176.0,044_o_f_n_a.png,I,m,577,6,2,1593.1999999955297,317582.80000000447,8000,NNB,A,5
6,test,3,0.0,1-Back,1,m,Wed Nov 20 2024 13:33:18 GMT-0600 (Central Standard Time),320892.1000000015,041_y_m_n_a.png,I,m,689,7,2,1710.1000000014901,319182.0,8000,NNB,A,6
7,test,3,0.0,1-Back,1,m,Wed Nov 20 2024 13:33:18 GMT-0600 (Central Standard Time),322458.200000003,044_o_f_n_a.png,I,m,541,8,2,1560.3999999985099,320897.80000000447,8000,NNB,A,7
8,test,3,0.0,1-Back,1,m,Wed Nov 20 2024 13:33:18 GMT-0600 (Central Standard Time),323974.3999999985,008_y_m_n_a.png,I,m,494,9,2,1509.7999999970198,322464.6000000015,8000,NNB,A,8
9,test,3,1.0,1-Back,1,z,Wed Nov 20 2024 13:33:18 GMT-0600 (Central Standard Time),325623.80000000447,008_y_m_n_a.png,I,z,619,10,2,1643.3000000044703,323980.5,8000,NNB,A,9
10,test,3,0.0,1-Back,1,m,Wed Nov 20 2024 13:33:18 GMT-0600 (Central Standard Time),327189.8999999985,043_m_f_n_a.png,I,m,536,11,2,1560.0999999940395,325629.80000000447,8000,NNB,A,10
11,test,3,0.0,1-Back,1,m,Wed Nov 20 2024 13:33:18 GMT-0600 (Central Standard Time),328739.5,063_y_f_n_a.png,I,m,522,12,2,1543.2999999970198,327196.200000003,8000,NNB,A,11
12,test,3,1.0,1-Back,1,z,Wed Nov 20 2024 13:33:18 GMT-0600 (Central Standard Time),330372.1000000015,063_y_f_n_a.png,I,z,606,13,2,1626.2999999970198,328745.80000000447,8000,NNB,A,12
13,test,3,0.0,1-Back,1,m,Wed Nov 20 2024 13:33:18 GMT-0600 (Central Standard Time),331979.0,043_m_f_n_a.png,I,m,590,14,2,1600.5,330378.5,8000,NNB,A,13
14,test,3,0.0,1-Back,1,m,Wed Nov 20 2024 13:33:18 GMT-0600 (Central Standard Time),333638.0,058_m_m_n_a.png,I,m,637,15,2,1652.5,331985.5,8000,NNB,A,14
15,test,3,1.0,1-Back,1,z,Wed Nov 20 2024 13:33:18 GMT-0600 (Central Standard Time),335204.200000003,058_m_m_n_a.png,I,z,547,16,2,1560.0,333644.200000003,8000,NNB,A,15
16,test,3,0.0,1-Back,1,m,Wed Nov 20 2024 13:33:18 GMT-0600 (Central Standard Time),336786.700000003,047_o_f_n_a.png,I,m,566,17,2,1576.1000000014901,335210.6000000015,8000,NNB,A,16
17,test,3,1.0,1-Back,1,z,Wed Nov 20 2024 13:33:18 GMT-0600 (Central Standard Time),338503.0,047_o_f_n_a.png,I,z,686,18,2,1709.8999999985099,336793.1000000015,8000,NNB,A,17
0,test,4,1.0,1-Back,,,Wed Nov 20 2024 13:33:18 GMT-0600 (Central Standard Time),338503.0,050_m_f_n_a.png,I,space,3306,1,2,1709.8999999985099,336793.1000000015,8000,NNB,A,0
1,test,4,0.0,1-Back,1,m,Wed Nov 20 2024 13:33:18 GMT-0600 (Central Standard Time),345534.3999999985,046_o_m_n_a.png,I,m,679,2,2,1693.3999999985099,343841.0,8000,NNB,A,1
2,test,4,0.0,1-Back,1,m,Wed Nov 20 2024 13:33:18 GMT-0600 (Central Standard Time),347183.6000000015,050_m_f_n_a.png,I,m,619,3,2,1643.1000000014901,345540.5,8000,NNB,A,2
3,test,4,0.0,1-Back,1,m,Wed Nov 20 2024 13:33:18 GMT-0600 (Central Standard Time),348783.200000003,044_o_f_n_a.png,I,m,570,4,2,1593.3999999985099,347189.80000000447,8000,NNB,A,3
4,test,4,1.0,1-Back,1,z,Wed Nov 20 2024 13:33:18 GMT-0600 (Central Standard Time),350282.700000003,044_o_f_n_a.png,I,z,474,5,2,1493.3000000044703,348789.3999999985,8000,NNB,A,4
5,test,4,0.0,1-Back,1,m,Wed Nov 20 2024 13:33:18 GMT-0600 (Central Standard Time),351882.200000003,063_y_f_n_a.png,I,m,574,6,2,1593.8000000044703,350288.3999999985,8000,NNB,A,5
6,test,4,0.0,1-Back,1,m,Wed Nov 20 2024 13:33:18 GMT-0600 (Central Standard Time),353631.80000000447,041_y_m_n_a.png,I,m,719,7,2,1743.7000000029802,351888.1000000015,8000,NNB,A,6
7,test,4,1.0,1-Back,1,z,Wed Nov 20 2024 13:33:18 GMT-0600 (Central Standard Time),355664.3999999985,041_y_m_n_a.png,I,z,1010,8,2,2026.0,353638.3999999985,8000,NNB,A,7
8,test,4,0.0,1-Back,1,m,Wed Nov 20 2024 13:33:18 GMT-0600 (Central Standard Time),357230.6000000015,063_y_f_n_a.png,I,m,546,9,2,1559.7999999970198,355670.80000000447,8000,NNB,A,8
9,test,4,0.0,1-Back,1,m,Wed Nov 20 2024 13:33:18 GMT-0600 (Central Standard Time),358846.6000000015,045_m_m_n_a.png,I,m,595,10,2,1609.8999999985099,357236.700000003,8000,NNB,A,9
9,test,4,1.0,1-Back,0,z,Wed Nov 20 2024 13:33:18 GMT-0600 (Central Standard Time),360445.8999999985,045_m_m_n_a.png,I,m,571,11,2,1592.7999999970198,358853.1000000015,8000,NNB,A,10
10,test,4,0.0,1-Back,1,m,Wed Nov 20 2024 13:33:18 GMT-0600 (Central Standard Time),362045.6000000015,047_o_f_n_a.png,I,m,571,12,2,1593.0,360452.6000000015,8000,NNB,A,11
11,test,4,0.0,1-Back,1,m,Wed Nov 20 2024 13:33:18 GMT-0600 (Central Standard Time),363628.700000003,053_o_m_n_a.png,I,m,556,13,2,1576.7000000029802,362052.0,8000,NNB,A,12
12,test,4,0.0,1-Back,1,m,Wed Nov 20 2024 13:33:18 GMT-0600 (Central Standard Time),365378.1000000015,047_o_f_n_a.png,I,m,717,14,2,1742.7999999970198,363635.30000000447,8000,NNB,A,13
13,test,4,0.0,1-Back,1,m,Wed Nov 20 2024 13:33:18 GMT-0600 (Central Standard Time),367010.80000000447,010_y_f_n_a.png,I,m,607,15,2,1626.5,365384.30000000447,8000,NNB,A,14
14,test,4,1.0,1-Back,1,z,Wed Nov 20 2024 13:33:18 GMT-0600 (Central Standard Time),368577.0,010_y_f_n_a.png,I,z,535,16,2,1560.1000000014901,367016.8999999985,8000,NNB,A,15
15,test,4,0.0,1-Back,1,m,Wed Nov 20 2024 13:33:18 GMT-0600 (Central Standard Time),370159.700000003,043_m_f_n_a.png,I,m,560,17,2,1576.3999999985099,368583.30000000447,8000,NNB,A,16
16,test,4,1.0,1-Back,1,z,Wed Nov 20 2024 13:33:18 GMT-0600 (Central Standard Time),371776.30000000447,043_m_f_n_a.png,I,z,586,18,2,1610.5,370165.80000000447,8000,NNB,A,17
0,test,5,1.0,1-Back,,,Wed Nov 20 2024 13:33:18 GMT-0600 (Central Standard Time),371776.30000000447,053_o_m_n_a.png,I,space,3009,1,2,1610.5,370165.80000000447,8000,NNB,A,0
1,test,5,1.0,1-Back,1,z,Wed Nov 20 2024 13:33:18 GMT-0600 (Central Standard Time),378324.8999999985,053_o_m_n_a.png,I,z,490,2,2,1511.6999999955297,376813.200000003,8000,NNB,A,1
2,test,5,0.0,1-Back,1,m,Wed Nov 20 2024 13:33:18 GMT-0600 (Central Standard Time),380073.3999999985,063_y_f_n_a.png,I,m,726,3,2,1742.1999999955297,378331.200000003,8000,NNB,A,2
3,test,5,0.0,1-Back,1,m,Wed Nov 20 2024 13:33:18 GMT-0600 (Central Standard Time),381756.200000003,041_y_m_n_a.png,I,m,656,4,2,1676.6000000014901,380079.6000000015,8000,NNB,A,3
3,test,5,0.0,1-Back,0,m,Wed Nov 20 2024 13:33:18 GMT-0600 (Central Standard Time),383405.5,063_y_f_n_a.png,I,z,621,5,2,1643.1000000014901,381762.3999999985,8000,NNB,A,4
4,test,5,0.0,1-Back,1,m,Wed Nov 20 2024 13:33:18 GMT-0600 (Central Standard Time),385072.0,058_m_m_n_a.png,I,m,635,6,2,1660.6000000014901,383411.3999999985,8000,NNB,A,5
4,test,5,1.0,1-Back,0,z,Wed Nov 20 2024 13:33:18 GMT-0600 (Central Standard Time),386721.3999999985,058_m_m_n_a.png,I,m,626,7,2,1643.3999999985099,385078.0,8000,NNB,A,6
5,test,5,0.0,1-Back,1,m,Wed Nov 20 2024 13:33:18 GMT-0600 (Central Standard Time),388304.30000000447,010_y_f_n_a.png,I,m,552,8,2,1576.4000000059605,386727.8999999985,8000,NNB,A,7
6,test,5,0.0,1-Back,1,m,Wed Nov 20 2024 13:33:18 GMT-0600 (Central Standard Time),389821.3999999985,008_y_m_n_a.png,I,m,497,9,2,1510.8999999985099,388310.5,8000,NNB,A,8
7,test,5,0.0,1-Back,1,m,Wed Nov 20 2024 13:33:18 GMT-0600 (Central Standard Time),391469.80000000447,010_y_f_n_a.png,I,m,630,10,2,1642.0,389827.80000000447,8000,NNB,A,9
8,test,5,0.0,1-Back,1,m,Wed Nov 20 2024 13:33:18 GMT-0600 (Central Standard Time),392986.0,047_o_f_n_a.png,I,m,491,11,2,1509.8999999985099,391476.1000000015,8000,NNB,A,10
8,test,5,1.0,1-Back,0,z,Wed Nov 20 2024 13:33:18 GMT-0600 (Central Standard Time),394702.1000000015,047_o_f_n_a.png,I,m,695,12,2,1709.7999999970198,392992.30000000447,8000,NNB,A,11
9,test,5,0.0,1-Back,1,m,Wed Nov 20 2024 13:33:18 GMT-0600 (Central Standard Time),396251.5,046_o_m_n_a.png,I,m,523,13,2,1543.3999999985099,394708.1000000015,8000,NNB,A,12
10,test,5,0.0,1-Back,1,m,Wed Nov 20 2024 13:33:18 GMT-0600 (Central Standard Time),397751.200000003,050_m_f_n_a.png,I,m,478,14,2,1493.8999999985099,396257.30000000447,8000,NNB,A,13
11,test,5,1.0,1-Back,1,z,Wed Nov 20 2024 13:33:18 GMT-0600 (Central Standard Time),399318.5,050_m_f_n_a.png,I,z,546,15,2,1561.1999999955297,397757.30000000447,8000,NNB,A,14
12,test,5,0.0,1-Back,1,m,Wed Nov 20 2024 13:33:18 GMT-0600 (Central Standard Time),400916.8999999985,046_o_m_n_a.png,I,m,580,16,2,1592.0,399324.8999999985,8000,NNB,A,15
13,test,5,0.0,1-Back,1,m,Wed Nov 20 2024 13:33:18 GMT-0600 (Central Standard Time),402596.30000000447,043_m_f_n_a.png,I,m,643,17,2,1673.3000000044703,400923.0,8000,NNB,A,16
14,test,5,0.0,1-Back,1,m,Wed Nov 20 2024 13:33:18 GMT-0600 (Central Standard Time),404132.3999999985,045_m_m_n_a.png,I,m,514,18,2,1528.7999999970198,402603.6000000015,8000,NNB,A,17
0,prac,1,0.0,2-Back,,,Wed Nov 20 2024 13:33:18 GMT-0600 (Central Standard Time),404132.3999999985,008_y_m_n_a.png,I,space,10776,1,2,1528.7999999970198,402603.6000000015,8000,NNB,A,0
0,prac,1,0.0,2-Back,,,Wed Nov 20 2024 13:33:18 GMT-0600 (Central Standard Time),404132.3999999985,043_m_f_n_a.png,I,space,10776,2,2,1528.7999999970198,402603.6000000015,8000,NNB,A,0
1,prac,1,1.0,2-Back,1,m,Wed Nov 20 2024 13:33:18 GMT-0600 (Central Standard Time),550820.1000000015,046_o_m_n_a.png,I,m,1116,3,2,1909.6000000014901,548910.5,8000,NNB,A,1
2,prac,1,0.0,2-Back,1,m,Wed Nov 20 2024 13:33:18 GMT-0600 (Central Standard Time),552802.8000000045,047_o_f_n_a.png,I,m,1150,4,2,1975.4000000059605,550827.3999999985,8000,NNB,A,2
3,prac,1,0.0,2-Back,1,z,Wed Nov 20 2024 13:33:18 GMT-0600 (Central Standard Time),554518.6000000015,046_o_m_n_a.png,I,z,935,5,2,1708.1000000014901,552810.5,8000,NNB,A,3
4,prac,1,1.0,2-Back,1,z,Wed Nov 20 2024 13:33:18 GMT-0600 (Central Standard Time),556351.5,047_o_f_n_a.png,I,z,1044,6,2,1825.8999999985099,554525.6000000015,8000,NNB,A,4
5,prac,1,0.0,2-Back,1,m,Wed Nov 20 2024 13:33:18 GMT-0600 (Central Standard Time),558184.200000003,045_m_m_n_a.png,I,m,1020,7,2,1825.6000000014901,556358.6000000015,8000,NNB,A,5
6,prac,1,0.0,2-Back,1,m,Wed Nov 20 2024 13:33:18 GMT-0600 (Central Standard Time),559817.3999999985,053_o_m_n_a.png,I,m,834,8,2,1625.3999999985099,558192.0,8000,NNB,A,6
7,prac,1,0.0,2-Back,1,m,Wed Nov 20 2024 13:33:18 GMT-0600 (Central Standard Time),561516.5,010_y_f_n_a.png,I,m,868,9,2,1691.6000000014901,559824.8999999985,8000,NNB,A,7
7,prac,1,1.0,2-Back,0,z,Wed Nov 20 2024 13:33:18 GMT-0600 (Central Standard Time),564299.200000003,053_o_m_n_a.png,I,None,2009,10,2,2775.10000000149,561524.1000000015,8000,NNB,A,8
7,prac,1,0.0,2-Back,0,m,Wed Nov 20 2024 13:33:18 GMT-0600 (Central Standard Time),567195.200000003,063_y_f_n_a.png,I,None,2009,11,2,2888.7000000029802,564306.5,8000,NNB,A,9
7,prac,1,0.0,2-Back,0,m,Wed Nov 20 2024 13:33:18 GMT-0600 (Central Standard Time),569980.6000000015,045_m_m_n_a.png,I,None,2009,12,2,2775.39999999851,567205.200000003,8000,NNB,A,10
0,test,1,0.0,2-Back,,,Wed Nov 20 2024 13:33:18 GMT-0600 (Central Standard Time),569980.6000000015,041_y_m_n_a.png,I,space,11170,1,2,2775.39999999851,567205.200000003,8000,NNB,A,0
0,test,1,0.0,2-Back,,,Wed Nov 20 2024 13:33:18 GMT-0600 (Central Standard Time),569980.6000000015,041_y_m_n_a.png,I,space,11170,2,2,2775.39999999851,567205.200000003,8000,NNB,A,0
1,test,1,0.0,2-Back,1,m,Wed Nov 20 2024 13:33:18 GMT-0600 (Central Standard Time),598521.5,047_o_f_n_a.png,I,m,851,3,2,1876.2999999970198,596645.200000003,8000,NNB,A,1
2,test,1,0.0,2-Back,1,m,Wed Nov 20 2024 13:33:18 GMT-0600 (Central Standard Time),600287.700000003,058_m_m_n_a.png,I,m,736,4,2,1759.7000000029802,598528.0,8000,NNB,A,2
3,test,1,1.0,2-Back,1,z,Wed Nov 20 2024 13:33:18 GMT-0600 (Central Standard Time),602103.6000000015,047_o_f_n_a.png,I,z,786,5,2,1809.7000000029802,600293.8999999985,8000,NNB,A,3
4,test,1,0.0,2-Back,1,m,Wed Nov 20 2024 13:33:18 GMT-0600 (Central Standard Time),603886.5,063_y_f_n_a.png,I,m,762,6,2,1776.2999999970198,602110.200000003,8000,NNB,A,4
4,test,1,0.0,2-Back,0,m,Wed Nov 20 2024 13:33:18 GMT-0600 (Central Standard Time),605769.3999999985,058_m_m_n_a.png,I,z,859,7,2,1876.7999999970198,603892.6000000015,8000,NNB,A,5
4,test,1,1.0,2-Back,0,z,Wed Nov 20 2024 13:33:18 GMT-0600 (Central Standard Time),608035.1000000015,063_y_f_n_a.png,I,m,1240,8,2,2259.39999999851,605775.700000003,8000,NNB,A,6
5,test,1,0.0,2-Back,1,m,Wed Nov 20 2024 13:33:18 GMT-0600 (Central Standard Time),609801.3999999985,008_y_m_n_a.png,I,m,734,9,2,1760.5,608040.8999999985,8000,NNB,A,7
6,test,1,0.0,2-Back,1,m,Wed Nov 20 2024 13:33:18 GMT-0600 (Central Standard Time),611384.200000003,044_o_f_n_a.png,I,m,559,10,2,1576.3999999985099,609807.8000000045,8000,NNB,A,8
7,test,1,1.0,2-Back,1,z,Wed Nov 20 2024 13:33:18 GMT-0600 (Central Standard Time),613250.200000003,008_y_m_n_a.png,I,z,833,11,2,1860.1000000014901,611390.1000000015,8000,NNB,A,9
8,test,1,0.0,2-Back,1,m,Wed Nov 20 2024 13:33:18 GMT-0600 (Central Standard Time),615349.6000000015,043_m_f_n_a.png,I,m,1067,12,2,2092.7000000029802,613256.8999999985,8000,NNB,A,10
9,test,1,0.0,2-Back,1,m,Wed Nov 20 2024 13:33:18 GMT-0600 (Central Standard Time),617365.5,043_m_f_n_a.png,I,m,988,13,2,2009.3999999985099,615356.1000000015,8000,NNB,A,11
10,test,1,0.0,2-Back,1,m,Wed Nov 20 2024 13:33:18 GMT-0600 (Central Standard Time),619181.8000000045,046_o_m_n_a.png,I,m,796,14,2,1809.5,617372.3000000045,8000,NNB,A,12
11,test,1,0.0,2-Back,1,m,Wed Nov 20 2024 13:33:18 GMT-0600 (Central Standard Time),621231.1000000015,044_o_f_n_a.png,I,m,1020,15,2,2042.8999999985099,619188.200000003,8000,NNB,A,13
12,test,1,1.0,2-Back,1,z,Wed Nov 20 2024 13:33:18 GMT-0600 (Central Standard Time),622963.8000000045,046_o_m_n_a.png,I,z,714,16,2,1726.4000000059605,621237.3999999985,8000,NNB,A,14
13,test,1,0.0,2-Back,1,m,Wed Nov 20 2024 13:33:18 GMT-0600 (Central Standard Time),624746.5,050_m_f_n_a.png,I,m,750,17,2,1776.5,622970.0,8000,NNB,A,15
14,test,1,0.0,2-Back,1,m,Wed Nov 20 2024 13:33:18 GMT-0600 (Central Standard Time),626429.5,045_m_m_n_a.png,I,m,655,18,2,1676.6999999955297,624752.8000000045,8000,NNB,A,16
0,test,2,0.0,2-Back,,,Wed Nov 20 2024 13:33:18 GMT-0600 (Central Standard Time),626429.5,045_m_m_n_a.png,I,space,3460,1,2,1676.6999999955297,624752.8000000045,8000,NNB,A,0
0,test,2,0.0,2-Back,,,Wed Nov 20 2024 13:33:18 GMT-0600 (Central Standard Time),626429.5,010_y_f_n_a.png,I,space,3460,2,2,1676.6999999955297,624752.8000000045,8000,NNB,A,0
1,test,2,1.0,2-Back,1,z,Wed Nov 20 2024 13:33:18 GMT-0600 (Central Standard Time),636626.3999999985,045_m_m_n_a.png,I,z,617,3,2,1643.2999999970198,634983.1000000015,8000,NNB,A,1
2,test,2,0.0,2-Back,1,m,Wed Nov 20 2024 13:33:18 GMT-0600 (Central Standard Time),638592.3000000045,050_m_f_n_a.png,I,m,943,4,2,1959.7000000029802,636632.6000000015,8000,NNB,A,2
2,test,2,0.0,2-Back,0,m,Wed Nov 20 2024 13:33:18 GMT-0600 (Central Standard Time),640608.3000000045,010_y_f_n_a.png,I,z,993,5,2,2009.8000000044703,638598.5,8000,NNB,A,3
3,test,2,0.0,2-Back,1,m,Wed Nov 20 2024 13:33:18 GMT-0600 (Central Standard Time),642441.200000003,046_o_m_n_a.png,I,m,801,6,2,1826.2000000029802,640615.0,8000,NNB,A,4
4,test,2,0.0,2-Back,1,m,Wed Nov 20 2024 13:33:18 GMT-0600 (Central Standard Time),644340.5,063_y_f_n_a.png,I,m,881,7,2,1893.1999999955297,642447.3000000045,8000,NNB,A,5
4,test,2,1.0,2-Back,0,z,Wed Nov 20 2024 13:33:18 GMT-0600 (Central Standard Time),646323.200000003,046_o_m_n_a.png,I,m,957,8,2,1975.8000000044703,644347.3999999985,8000,NNB,A,6
5,test,2,0.0,2-Back,1,m,Wed Nov 20 2024 13:33:18 GMT-0600 (Central Standard Time),648139.1000000015,008_y_m_n_a.png,I,m,798,9,2,1809.5,646329.6000000015,8000,NNB,A,7
6,test,2,0.0,2-Back,1,m,Wed Nov 20 2024 13:33:18 GMT-0600 (Central Standard Time),650121.8999999985,008_y_m_n_a.png,I,m,958,10,2,1976.5999999940395,648145.3000000045,8000,NNB,A,8
7,test,2,0.0,2-Back,1,m,Wed Nov 20 2024 13:33:18 GMT-0600 (Central Standard Time),652004.700000003,043_m_f_n_a.png,I,m,855,11,2,1876.3999999985099,650128.3000000045,8000,NNB,A,9
8,test,2,0.0,2-Back,1,m,Wed Nov 20 2024 13:33:18 GMT-0600 (Central Standard Time),653854.200000003,010_y_f_n_a.png,I,m,829,12,2,1843.1000000014901,652011.1000000015,8000,NNB,A,10
9,test,2,1.0,2-Back,1,z,Wed Nov 20 2024 13:33:18 GMT-0600 (Central Standard Time),655853.3999999985,043_m_f_n_a.png,I,z,971,13,2,1992.8999999985099,653860.5,8000,NNB,A,11
10,test,2,0.0,2-Back,1,m,Wed Nov 20 2024 13:33:18 GMT-0600 (Central Standard Time),657686.200000003,053_o_m_n_a.png,I,m,812,14,2,1826.2000000029802,655860.0,8000,NNB,A,12
11,test,2,0.0,2-Back,1,m,Wed Nov 20 2024 13:33:18 GMT-0600 (Central Standard Time),659668.8000000045,053_o_m_n_a.png,I,m,956,15,2,1976.3000000044703,657692.5,8000,NNB,A,13
12,test,2,0.0,2-Back,1,m,Wed Nov 20 2024 13:33:18 GMT-0600 (Central Standard Time),661501.6000000015,044_o_f_n_a.png,I,m,804,16,2,1827.0,659674.6000000015,8000,NNB,A,14
13,test,2,0.0,2-Back,1,m,Wed Nov 20 2024 13:33:18 GMT-0600 (Central Standard Time),663234.3999999985,058_m_m_n_a.png,I,m,716,17,2,1724.2999999970198,661510.1000000015,8000,NNB,A,15
14,test,2,1.0,2-Back,1,z,Wed Nov 20 2024 13:33:18 GMT-0600 (Central Standard Time),665150.6000000015,044_o_f_n_a.png,I,z,887,18,2,1909.6000000014901,663241.0,8000,NNB,A,16
0,test,3,1.0,2-Back,,,Wed Nov 20 2024 13:33:18 GMT-0600 (Central Standard Time),665150.6000000015,041_y_m_n_a.png,I,space,2235,1,2,1909.6000000014901,663241.0,8000,NNB,A,0
0,test,3,1.0,2-Back,,,Wed Nov 20 2024 13:33:18 GMT-0600 (Central Standard Time),665150.6000000015,041_y_m_n_a.png,I,space,2235,2,2,1909.6000000014901,663241.0,8000,NNB,A,0
1,test,3,0.0,2-Back,1,m,Wed Nov 20 2024 13:33:18 GMT-0600 (Central Standard Time),674131.200000003,044_o_f_n_a.png,I,m,640,3,2,1659.1000000014901,672472.1000000015,8000,NNB,A,1
2,test,3,0.0,2-Back,1,m,Wed Nov 20 2024 13:33:18 GMT-0600 (Central Standard Time),675764.0,045_m_m_n_a.png,I,m,615,4,2,1626.1999999955297,674137.8000000045,8000,NNB,A,2
3,test,3,1.0,2-Back,1,z,Wed Nov 20 2024 13:33:18 GMT-0600 (Central Standard Time),677430.3000000045,044_o_f_n_a.png,I,z,645,5,2,1659.5,675770.8000000045,8000,NNB,A,3
4,test,3,0.0,2-Back,1,m,Wed Nov 20 2024 13:33:18 GMT-0600 (Central Standard Time),679129.5,008_y_m_n_a.png,I,m,675,6,2,1692.7999999970198,677436.700000003,8000,NNB,A,4
4,test,3,0.0,2-Back,0,m,Wed Nov 20 2024 13:33:18 GMT-0600 (Central Standard Time),680995.6000000015,045_m_m_n_a.png,I,z,840,7,2,1859.2999999970198,679136.3000000045,8000,NNB,A,5
4,test,3,1.0,2-Back,0,z,Wed Nov 20 2024 13:33:18 GMT-0600 (Central Standard Time),682878.3000000045,008_y_m_n_a.png,I,m,854,8,2,1876.1000000014901,681002.200000003,8000,NNB,A,6
5,test,3,0.0,2-Back,1,m,Wed Nov 20 2024 13:33:18 GMT-0600 (Central Standard Time),684694.3999999985,010_y_f_n_a.png,I,m,795,9,2,1808.7999999970198,682885.6000000015,8000,NNB,A,7
6,test,3,0.0,2-Back,1,m,Wed Nov 20 2024 13:33:18 GMT-0600 (Central Standard Time),686527.200000003,058_m_m_n_a.png,I,m,811,10,2,1825.8000000044703,684701.3999999985,8000,NNB,A,8
7,test,3,1.0,2-Back,1,z,Wed Nov 20 2024 13:33:18 GMT-0600 (Central Standard Time),688260.0,010_y_f_n_a.png,I,z,714,11,2,1726.0,686534.0,8000,NNB,A,9
7,test,3,1.0,2-Back,0,z,Wed Nov 20 2024 13:33:18 GMT-0600 (Central Standard Time),690076.1000000015,058_m_m_n_a.png,I,m,797,12,2,1810.0,688266.1000000015,8000,NNB,A,10
8,test,3,0.0,2-Back,1,m,Wed Nov 20 2024 13:33:18 GMT-0600 (Central Standard Time),691775.3999999985,044_o_f_n_a.png,I,m,669,13,2,1692.7999999970198,690082.6000000015,8000,NNB,A,11
9,test,3,0.0,2-Back,1,m,Wed Nov 20 2024 13:33:18 GMT-0600 (Central Standard Time),693508.3000000045,050_m_f_n_a.png,I,m,714,14,2,1726.2000000029802,691782.1000000015,8000,NNB,A,12
10,test,3,0.0,2-Back,1,m,Wed Nov 20 2024 13:33:18 GMT-0600 (Central Standard Time),695140.8999999985,046_o_m_n_a.png,I,m,613,15,2,1626.0999999940395,693514.8000000045,8000,NNB,A,13
11,test,3,1.0,2-Back,1,z,Wed Nov 20 2024 13:33:18 GMT-0600 (Central Standard Time),696890.700000003,050_m_f_n_a.png,I,z,732,16,2,1743.2000000029802,695147.5,8000,NNB,A,14
12,test,3,0.0,2-Back,1,m,Wed Nov 20 2024 13:33:18 GMT-0600 (Central Standard Time),698706.8000000045,047_o_f_n_a.png,I,m,799,17,2,1809.4000000059605,696897.3999999985,8000,NNB,A,15
13,test,3,0.0,2-Back,1,m,Wed Nov 20 2024 13:33:18 GMT-0600 (Central Standard Time),700706.1000000015,047_o_f_n_a.png,I,m,975,18,2,1992.7999999970198,698713.3000000045,8000,NNB,A,16
0,test,4,0.0,2-Back,,,Wed Nov 20 2024 13:33:18 GMT-0600 (Central Standard Time),700706.1000000015,053_o_m_n_a.png,I,space,2471,1,2,1992.7999999970198,698713.3000000045,8000,NNB,A,0
0,test,4,0.0,2-Back,,,Wed Nov 20 2024 13:33:18 GMT-0600 (Central Standard Time),700706.1000000015,063_y_f_n_a.png,I,space,2471,2,2,1992.7999999970198,698713.3000000045,8000,NNB,A,0
1,test,4,1.0,2-Back,1,z,Wed Nov 20 2024 13:33:18 GMT-0600 (Central Standard Time),710019.8000000045,053_o_m_n_a.png,I,z,624,3,2,1648.9000000059605,708370.8999999985,8000,NNB,A,1
2,test,4,1.0,2-Back,1,z,Wed Nov 20 2024 13:33:18 GMT-0600 (Central Standard Time),712002.700000003,063_y_f_n_a.png,I,z,966,4,2,1975.8999999985099,710026.8000000045,8000,NNB,A,2
3,test,4,0.0,2-Back,1,m,Wed Nov 20 2024 13:33:18 GMT-0600 (Central Standard Time),713918.700000003,044_o_f_n_a.png,I,m,895,5,2,1908.8999999985099,712009.8000000045,8000,NNB,A,3
4,test,4,0.0,2-Back,1,m,Wed Nov 20 2024 13:33:18 GMT-0600 (Central Standard Time),716451.3000000045,044_o_f_n_a.png,I,m,1515,6,2,2526.4000000059605,713924.8999999985,8000,NNB,A,4
5,test,4,0.0,2-Back,1,m,Wed Nov 20 2024 13:33:18 GMT-0600 (Central Standard Time),718583.8000000045,043_m_f_n_a.png,I,m,1111,7,2,2125.60000000149,716458.200000003,8000,NNB,A,5
6,test,4,0.0,2-Back,1,m,Wed Nov 20 2024 13:33:18 GMT-0600 (Central Standard Time),720383.3999999985,008_y_m_n_a.png,I,m,770,8,2,1793.0999999940395,718590.3000000045,8000,NNB,A,6
7,test,4,1.0,2-Back,1,z,Wed Nov 20 2024 13:33:18 GMT-0600 (Central Standard Time),722166.1000000015,043_m_f_n_a.png,I,z,754,9,2,1776.2000000029802,720389.8999999985,8000,NNB,A,7
8,test,4,0.0,2-Back,1,m,Wed Nov 20 2024 13:33:18 GMT-0600 (Central Standard Time),723965.6000000015,058_m_m_n_a.png,I,m,779,10,2,1793.7000000029802,722171.8999999985,8000,NNB,A,8
9,test,4,0.0,2-Back,1,m,Wed Nov 20 2024 13:33:18 GMT-0600 (Central Standard Time),725931.3000000045,008_y_m_n_a.png,I,m,947,11,2,1958.9000000059605,723972.3999999985,8000,NNB,A,9
10,test,4,0.0,2-Back,1,m,Wed Nov 20 2024 13:33:18 GMT-0600 (Central Standard Time),727764.1000000015,047_o_f_n_a.png,I,m,814,12,2,1826.7000000029802,725937.3999999985,8000,NNB,A,10
11,test,4,0.0,2-Back,1,m,Wed Nov 20 2024 13:33:18 GMT-0600 (Central Standard Time),729563.700000003,041_y_m_n_a.png,I,m,781,13,2,1793.2000000029802,727770.5,8000,NNB,A,11
12,test,4,1.0,2-Back,1,z,Wed Nov 20 2024 13:33:18 GMT-0600 (Central Standard Time),731380.8000000045,047_o_f_n_a.png,I,z,799,14,2,1809.9000000059605,729570.8999999985,8000,NNB,A,12
13,test,4,1.0,2-Back,1,z,Wed Nov 20 2024 13:33:18 GMT-0600 (Central Standard Time),733245.8999999985,041_y_m_n_a.png,I,z,838,15,2,1859.0,731386.8999999985,8000,NNB,A,13
14,test,4,0.0,2-Back,1,m,Wed Nov 20 2024 13:33:18 GMT-0600 (Central Standard Time),734995.1000000015,045_m_m_n_a.png,I,m,731,16,2,1743.0,733252.1000000015,8000,NNB,A,14
15,test,4,0.0,2-Back,1,m,Wed Nov 20 2024 13:33:18 GMT-0600 (Central Standard Time),736761.3999999985,050_m_f_n_a.png,I,m,742,17,2,1759.5999999940395,735001.8000000045,8000,NNB,A,15
16,test,4,1.0,2-Back,1,z,Wed Nov 20 2024 13:33:18 GMT-0600 (Central Standard Time),738427.3999999985,045_m_m_n_a.png,I,z,648,18,2,1659.3999999985099,736768.0,8000,NNB,A,16
0,test,5,1.0,2-Back,,,Wed Nov 20 2024 13:33:18 GMT-0600 (Central Standard Time),738427.3999999985,041_y_m_n_a.png,I,space,3062,1,2,1659.3999999985099,736768.0,8000,NNB,A,0
0,test,5,1.0,2-Back,,,Wed Nov 20 2024 13:33:18 GMT-0600 (Central Standard Time),738427.3999999985,050_m_f_n_a.png,I,space,3062,2,2,1659.3999999985099,736768.0,8000,NNB,A,0
1,test,5,1.0,2-Back,1,z,Wed Nov 20 2024 13:33:18 GMT-0600 (Central Standard Time),748074.5,041_y_m_n_a.png,I,z,508,3,2,1526.6000000014901,746547.8999999985,8000,NNB,A,1
1,test,5,1.0,2-Back,0,z,Wed Nov 20 2024 13:33:18 GMT-0600 (Central Standard Time),749657.3999999985,050_m_f_n_a.png,I,m,551,4,2,1576.0999999940395,748081.3000000045,8000,NNB,A,2
2,test,5,0.0,2-Back,1,m,Wed Nov 20 2024 13:33:18 GMT-0600 (Central Standard Time),751640.200000003,047_o_f_n_a.png,I,m,952,5,2,1976.3000000044703,749663.8999999985,8000,NNB,A,3
3,test,5,0.0,2-Back,1,m,Wed Nov 20 2024 13:33:18 GMT-0600 (Central Standard Time),753539.5,041_y_m_n_a.png,I,m,874,6,2,1892.8999999985099,751646.6000000015,8000,NNB,A,4
4,test,5,0.0,2-Back,1,m,Wed Nov 20 2024 13:33:18 GMT-0600 (Central Standard Time),755655.0,010_y_f_n_a.png,I,m,1088,7,2,2108.89999999851,753546.1000000015,8000,NNB,A,5
5,test,5,0.0,2-Back,1,m,Wed Nov 20 2024 13:33:18 GMT-0600 (Central Standard Time),757938.0,047_o_f_n_a.png,I,m,1258,8,2,2274.0,755664.0,8000,NNB,A,6
6,test,5,1.0,2-Back,1,z,Wed Nov 20 2024 13:33:18 GMT-0600 (Central Standard Time),759720.8999999985,010_y_f_n_a.png,I,z,759,9,2,1776.7999999970198,757944.1000000015,8000,NNB,A,7
7,test,5,0.0,2-Back,1,m,Wed Nov 20 2024 13:33:18 GMT-0600 (Central Standard Time),761437.200000003,046_o_m_n_a.png,I,m,696,10,2,1709.6000000014901,759727.6000000015,8000,NNB,A,8
8,test,5,0.0,2-Back,1,m,Wed Nov 20 2024 13:33:18 GMT-0600 (Central Standard Time),763269.8999999985,043_m_f_n_a.png,I,m,813,11,2,1826.2999999970198,761443.6000000015,8000,NNB,A,9
9,test,5,0.0,2-Back,1,m,Wed Nov 20 2024 13:33:18 GMT-0600 (Central Standard Time),765052.3999999985,058_m_m_n_a.png,I,m,764,12,2,1775.8999999985099,763276.5,8000,NNB,A,10
10,test,5,0.0,2-Back,1,m,Wed Nov 20 2024 13:33:18 GMT-0600 (Central Standard Time),767085.3999999985,046_o_m_n_a.png,I,m,1005,13,2,2026.5,765058.8999999985,8000,NNB,A,11
10,test,5,1.0,2-Back,0,z,Wed Nov 20 2024 13:33:18 GMT-0600 (Central Standard Time),769219.1000000015,058_m_m_n_a.png,I,m,1100,14,2,2127.5,767091.6000000015,8000,NNB,A,12
11,test,5,0.0,2-Back,1,m,Wed Nov 20 2024 13:33:18 GMT-0600 (Central Standard Time),770934.200000003,063_y_f_n_a.png,I,m,695,15,2,1708.8000000044703,769225.3999999985,8000,NNB,A,13
12,test,5,0.0,2-Back,1,m,Wed Nov 20 2024 13:33:18 GMT-0600 (Central Standard Time),772550.1000000015,053_o_m_n_a.png,I,m,595,16,2,1609.2000000029802,770940.8999999985,8000,NNB,A,14
13,test,5,0.0,2-Back,1,m,Wed Nov 20 2024 13:33:18 GMT-0600 (Central Standard Time),774432.8999999985,043_m_f_n_a.png,I,m,851,17,2,1876.3999999985099,772556.5,8000,NNB,A,15
14,test,5,1.0,2-Back,1,z,Wed Nov 20 2024 13:33:18 GMT-0600 (Central Standard Time),776515.6000000015,053_o_m_n_a.png,I,z,1058,18,2,2075.89999999851,774439.700000003,8000,NNB,A,16
