acc_sum,block,block_c,change,condition,correct,correct_response,datetime,endtime,face,project,response,response_time,row_sel,session_number,start_end,starttime,subject_id,task,task_vers,trial
0,prac,1,,1-Back,,,Wed Mar 12 2025 15:28:43 GMT-0500 (Central Daylight Time),,093_m_f_n_a.png,I,space,5745,1,3,,,8000,NNB,C,0
1,prac,1,0.0,1-Back,1,m,Wed Mar 12 2025 15:28:43 GMT-0500 (Central Daylight Time),128562.0,098_y_f_n_a.png,I,m,1274,2,3,2141.3000000000466,126420.69999999995,8000,NNB,C,1
2,prac,1,1.0,1-Back,1,z,Wed Mar 12 2025 15:28:43 GMT-0500 (Central Daylight Time),130394.8999999999,098_y_f_n_a.png,I,z,1048,3,3,1826.6999999999534,128568.19999999995,8000,NNB,C,2
3,prac,1,0.0,1-Back,1,m,Wed Mar 12 2025 15:28:43 GMT-0500 (Central Daylight Time),132127.5,059_o_m_n_a.png,I,m,846,4,3,1725.5,130402.0,8000,NNB,C,3
4,prac,1,0.0,1-Back,1,m,Wed Mar 12 2025 15:28:43 GMT-0500 (Central Daylight Time),133843.59999999986,092_m_m_n_a.png,I,m,845,5,3,1710.1999999999534,132133.3999999999,8000,NNB,C,4
5,prac,1,1.0,1-Back,1,z,Wed Mar 12 2025 15:28:43 GMT-0500 (Central Daylight Time),135209.69999999995,092_m_m_n_a.png,I,z,590,6,3,1358.9000000001397,133850.7999999998,8000,NNB,C,5
6,prac,1,0.0,1-Back,1,m,Wed Mar 12 2025 15:28:43 GMT-0500 (Central Daylight Time),136826.09999999986,130_o_f_n_a.png,I,m,717,7,3,1609.8999999999069,135216.19999999995,8000,NNB,C,6
7,prac,1,0.0,1-Back,1,m,Wed Mar 12 2025 15:28:43 GMT-0500 (Central Daylight Time),138925.5,082_m_m_n_a.png,I,m,1226,8,3,2092.100000000093,136833.3999999999,8000,NNB,C,7
8,prac,1,0.0,1-Back,1,m,Wed Mar 12 2025 15:28:43 GMT-0500 (Central Daylight Time),140375.0,093_m_f_n_a.png,I,m,670,9,3,1443.3000000000466,138931.69999999995,8000,NNB,C,8
9,prac,1,1.0,1-Back,1,z,Wed Mar 12 2025 15:28:43 GMT-0500 (Central Daylight Time),141774.5,093_m_f_n_a.png,I,z,613,10,3,1393.6000000000931,140380.8999999999,8000,NNB,C,9
10,prac,1,0.0,1-Back,1,m,Wed Mar 12 2025 15:28:43 GMT-0500 (Central Daylight Time),143207.5,059_o_m_n_a.png,I,m,652,11,3,1425.6000000000931,141781.8999999999,8000,NNB,C,10
11,prac,1,0.0,1-Back,1,m,Wed Mar 12 2025 15:28:43 GMT-0500 (Central Daylight Time),144823.5,028_y_f_n_a.png,I,m,739,12,3,1607.6000000000931,143215.8999999999,8000,NNB,C,11
0,test,1,0.0,1-Back,,,Wed Mar 12 2025 15:28:43 GMT-0500 (Central Daylight Time),144823.5,098_y_f_n_a.png,I,space,9496,1,3,1607.6000000000931,143215.8999999999,8000,NNB,C,0
0,test,1,0.0,1-Back,0,m,Wed Mar 12 2025 15:28:43 GMT-0500 (Central Daylight Time),165950.2999999998,006_m_f_n_a.png,I,None,2016,2,3,3025.5999999998603,162924.69999999995,8000,NNB,C,1
1,test,1,0.0,1-Back,1,m,Wed Mar 12 2025 15:28:43 GMT-0500 (Central Daylight Time),168666.0,028_y_f_n_a.png,I,m,1691,3,3,2711.600000000093,165954.3999999999,8000,NNB,C,2
2,test,1,1.0,1-Back,1,z,Wed Mar 12 2025 15:28:43 GMT-0500 (Central Daylight Time),170382.2999999998,028_y_f_n_a.png,I,z,687,4,3,1711.8999999999069,168670.3999999999,8000,NNB,C,3
3,test,1,0.0,1-Back,1,m,Wed Mar 12 2025 15:28:43 GMT-0500 (Central Daylight Time),172131.5,006_m_f_n_a.png,I,m,730,5,3,1744.8000000000466,170386.69999999995,8000,NNB,C,4
4,test,1,0.0,1-Back,1,m,Wed Mar 12 2025 15:28:43 GMT-0500 (Central Daylight Time),173831.19999999995,059_o_m_n_a.png,I,m,677,6,3,1694.9000000001397,172136.2999999998,8000,NNB,C,5
5,test,1,1.0,1-Back,1,z,Wed Mar 12 2025 15:28:43 GMT-0500 (Central Daylight Time),175647.19999999995,059_o_m_n_a.png,I,z,785,7,3,1812.0,173835.19999999995,8000,NNB,C,6
6,test,1,0.0,1-Back,1,m,Wed Mar 12 2025 15:28:43 GMT-0500 (Central Daylight Time),177313.3999999999,092_m_m_n_a.png,I,m,633,8,3,1661.5,175651.8999999999,8000,NNB,C,7
7,test,1,0.0,1-Back,1,m,Wed Mar 12 2025 15:28:43 GMT-0500 (Central Daylight Time),178979.5,130_o_f_n_a.png,I,m,639,9,3,1661.3000000000466,177318.19999999995,8000,NNB,C,8
8,test,1,0.0,1-Back,1,m,Wed Mar 12 2025 15:28:43 GMT-0500 (Central Daylight Time),180529.19999999995,092_m_m_n_a.png,I,m,526,10,3,1545.1999999999534,178984.0,8000,NNB,C,9
9,test,1,0.0,1-Back,1,m,Wed Mar 12 2025 15:28:43 GMT-0500 (Central Daylight Time),182145.19999999995,057_y_m_n_a.png,I,m,584,11,3,1612.4000000001397,180532.7999999998,8000,NNB,C,10
10,test,1,1.0,1-Back,1,z,Wed Mar 12 2025 15:28:43 GMT-0500 (Central Daylight Time),183727.7999999998,057_y_m_n_a.png,I,z,552,12,3,1578.0,182149.7999999998,8000,NNB,C,11
11,test,1,0.0,1-Back,1,m,Wed Mar 12 2025 15:28:43 GMT-0500 (Central Daylight Time),185394.19999999995,030_o_f_n_a.png,I,m,641,13,3,1661.1000000000931,183733.09999999986,8000,NNB,C,12
12,test,1,1.0,1-Back,1,z,Wed Mar 12 2025 15:28:43 GMT-0500 (Central Daylight Time),187043.59999999986,030_o_f_n_a.png,I,z,622,14,3,1645.0999999998603,185398.5,8000,NNB,C,13
13,test,1,0.0,1-Back,1,m,Wed Mar 12 2025 15:28:43 GMT-0500 (Central Daylight Time),188759.59999999986,031_y_m_n_a.png,I,m,685,15,3,1712.6999999999534,187046.8999999999,8000,NNB,C,14
14,test,1,0.0,1-Back,1,m,Wed Mar 12 2025 15:28:43 GMT-0500 (Central Daylight Time),190559.19999999995,093_m_f_n_a.png,I,m,767,16,3,1795.1000000000931,188764.09999999986,8000,NNB,C,15
15,test,1,0.0,1-Back,1,m,Wed Mar 12 2025 15:28:43 GMT-0500 (Central Daylight Time),192175.2999999998,146_o_m_n_a.png,I,m,594,17,3,1612.2999999998137,190563.0,8000,NNB,C,16
16,test,1,0.0,1-Back,1,m,Wed Mar 12 2025 15:28:43 GMT-0500 (Central Daylight Time),193958.0,093_m_f_n_a.png,I,m,762,18,3,1778.3000000000466,192179.69999999995,8000,NNB,C,17
0,test,2,0.0,1-Back,,,Wed Mar 12 2025 15:28:43 GMT-0500 (Central Daylight Time),193958.0,092_m_m_n_a.png,I,space,2410,1,3,1778.3000000000466,192179.69999999995,8000,NNB,C,0
1,test,2,0.0,1-Back,1,m,Wed Mar 12 2025 15:28:43 GMT-0500 (Central Daylight Time),200122.8999999999,006_m_f_n_a.png,I,m,715,2,3,1727.6999999999534,198395.19999999995,8000,NNB,C,1
2,test,2,1.0,1-Back,1,z,Wed Mar 12 2025 15:28:43 GMT-0500 (Central Daylight Time),201790.09999999986,006_m_f_n_a.png,I,z,637,3,3,1663.0999999998603,200127.0,8000,NNB,C,2
3,test,2,0.0,1-Back,1,m,Wed Mar 12 2025 15:28:43 GMT-0500 (Central Daylight Time),203455.09999999986,092_m_m_n_a.png,I,m,644,4,3,1660.3999999999069,201794.69999999995,8000,NNB,C,3
4,test,2,0.0,1-Back,1,m,Wed Mar 12 2025 15:28:43 GMT-0500 (Central Daylight Time),205088.19999999995,057_y_m_n_a.png,I,m,610,5,3,1629.5,203458.69999999995,8000,NNB,C,4
5,test,2,0.0,1-Back,1,m,Wed Mar 12 2025 15:28:43 GMT-0500 (Central Daylight Time),206737.5,098_y_f_n_a.png,I,m,625,6,3,1645.4000000001397,205092.09999999986,8000,NNB,C,5
6,test,2,1.0,1-Back,1,z,Wed Mar 12 2025 15:28:43 GMT-0500 (Central Daylight Time),208386.8999999999,098_y_f_n_a.png,I,z,624,7,3,1645.1999999999534,206741.69999999995,8000,NNB,C,6
7,test,2,0.0,1-Back,1,m,Wed Mar 12 2025 15:28:43 GMT-0500 (Central Daylight Time),210102.8999999999,057_y_m_n_a.png,I,m,686,8,3,1712.6000000000931,208390.2999999998,8000,NNB,C,7
8,test,2,0.0,1-Back,1,m,Wed Mar 12 2025 15:28:43 GMT-0500 (Central Daylight Time),211802.59999999986,030_o_f_n_a.png,I,m,674,9,3,1695.1999999999534,210107.3999999999,8000,NNB,C,8
9,test,2,0.0,1-Back,1,m,Wed Mar 12 2025 15:28:43 GMT-0500 (Central Daylight Time),213568.59999999986,082_m_m_n_a.png,I,m,734,10,3,1762.3999999999069,211806.19999999995,8000,NNB,C,9
10,test,2,1.0,1-Back,1,z,Wed Mar 12 2025 15:28:43 GMT-0500 (Central Daylight Time),215201.59999999986,082_m_m_n_a.png,I,z,615,11,3,1629.3000000000466,213572.2999999998,8000,NNB,C,10
11,test,2,0.0,1-Back,1,m,Wed Mar 12 2025 15:28:43 GMT-0500 (Central Daylight Time),216851.0,030_o_f_n_a.png,I,m,624,12,3,1645.2000000001863,215205.7999999998,8000,NNB,C,11
12,test,2,0.0,1-Back,1,m,Wed Mar 12 2025 15:28:43 GMT-0500 (Central Daylight Time),218500.3999999999,130_o_f_n_a.png,I,m,629,13,3,1645.0,216855.3999999999,8000,NNB,C,12
13,test,2,0.0,1-Back,1,m,Wed Mar 12 2025 15:28:43 GMT-0500 (Central Daylight Time),220101.09999999986,059_o_m_n_a.png,I,m,581,14,3,1596.8000000000466,218504.2999999998,8000,NNB,C,13
14,test,2,0.0,1-Back,1,m,Wed Mar 12 2025 15:28:43 GMT-0500 (Central Daylight Time),221699.3999999999,146_o_m_n_a.png,I,m,573,15,3,1593.5,220105.8999999999,8000,NNB,C,14
15,test,2,1.0,1-Back,1,z,Wed Mar 12 2025 15:28:43 GMT-0500 (Central Daylight Time),223332.09999999986,146_o_m_n_a.png,I,z,614,16,3,1628.0,221704.09999999986,8000,NNB,C,15
16,test,2,0.0,1-Back,1,m,Wed Mar 12 2025 15:28:43 GMT-0500 (Central Daylight Time),224981.69999999995,031_y_m_n_a.png,I,m,621,17,3,1645.1000000000931,223336.59999999986,8000,NNB,C,16
17,test,2,1.0,1-Back,1,z,Wed Mar 12 2025 15:28:43 GMT-0500 (Central Daylight Time),226664.59999999986,031_y_m_n_a.png,I,z,650,18,3,1678.3999999999069,224986.19999999995,8000,NNB,C,17
0,test,3,1.0,1-Back,,,Wed Mar 12 2025 15:28:43 GMT-0500 (Central Daylight Time),226664.59999999986,028_y_f_n_a.png,I,space,1609,1,3,1678.3999999999069,224986.19999999995,8000,NNB,C,0
1,test,3,0.0,1-Back,1,m,Wed Mar 12 2025 15:28:43 GMT-0500 (Central Daylight Time),232229.3999999999,146_o_m_n_a.png,I,m,819,1,3,1843.6000000000931,230385.7999999998,8000,NNB,C,1
2,test,3,1.0,1-Back,1,z,Wed Mar 12 2025 15:28:43 GMT-0500 (Central Daylight Time),233929.09999999986,146_o_m_n_a.png,I,z,668,1,3,1696.3999999999069,232232.69999999995,8000,NNB,C,2
3,test,3,0.0,1-Back,1,m,Wed Mar 12 2025 15:28:43 GMT-0500 (Central Daylight Time),235661.7999999998,093_m_f_n_a.png,I,m,704,1,3,1729.1999999999534,233932.59999999986,8000,NNB,C,3
4,test,3,1.0,1-Back,1,z,Wed Mar 12 2025 15:28:43 GMT-0500 (Central Daylight Time),237578.0,093_m_f_n_a.png,I,z,899,1,3,1911.6000000000931,235666.3999999999,8000,NNB,C,4
5,test,3,0.0,1-Back,1,m,Wed Mar 12 2025 15:28:43 GMT-0500 (Central Daylight Time),239460.5,030_o_f_n_a.png,I,m,854,1,3,1878.2000000001863,237582.2999999998,8000,NNB,C,5
6,test,3,0.0,1-Back,1,m,Wed Mar 12 2025 15:28:43 GMT-0500 (Central Daylight Time),241310.0,057_y_m_n_a.png,I,m,696,1,3,1845.6000000000931,239464.3999999999,8000,NNB,C,6
7,test,3,0.0,1-Back,1,m,Wed Mar 12 2025 15:28:43 GMT-0500 (Central Daylight Time),243059.3999999999,030_o_f_n_a.png,I,m,723,1,3,1745.8000000000466,241313.59999999986,8000,NNB,C,7
8,test,3,0.0,1-Back,1,m,Wed Mar 12 2025 15:28:43 GMT-0500 (Central Daylight Time),244758.69999999995,031_y_m_n_a.png,I,m,678,1,3,1694.5,243064.19999999995,8000,NNB,C,8
9,test,3,1.0,1-Back,1,z,Wed Mar 12 2025 15:28:43 GMT-0500 (Central Daylight Time),246325.09999999986,031_y_m_n_a.png,I,z,547,1,3,1561.8999999999069,244763.19999999995,8000,NNB,C,9
10,test,3,0.0,1-Back,1,m,Wed Mar 12 2025 15:28:43 GMT-0500 (Central Daylight Time),247991.19999999995,006_m_f_n_a.png,I,m,644,1,3,1661.4000000001397,246329.7999999998,8000,NNB,C,10
11,test,3,0.0,1-Back,1,m,Wed Mar 12 2025 15:28:43 GMT-0500 (Central Daylight Time),249674.0,098_y_f_n_a.png,I,m,650,1,3,1678.6000000000931,247995.3999999999,8000,NNB,C,11
12,test,3,1.0,1-Back,1,z,Wed Mar 12 2025 15:28:43 GMT-0500 (Central Daylight Time),251323.5,098_y_f_n_a.png,I,z,631,1,3,1645.5,249678.0,8000,NNB,C,12
13,test,3,0.0,1-Back,1,m,Wed Mar 12 2025 15:28:43 GMT-0500 (Central Daylight Time),252890.09999999986,006_m_f_n_a.png,I,m,534,1,3,1562.0,251328.09999999986,8000,NNB,C,13
14,test,3,0.0,1-Back,1,m,Wed Mar 12 2025 15:28:43 GMT-0500 (Central Daylight Time),254506.0,092_m_m_n_a.png,I,m,591,1,3,1611.4000000001397,252894.59999999986,8000,NNB,C,14
15,test,3,1.0,1-Back,1,z,Wed Mar 12 2025 15:28:43 GMT-0500 (Central Daylight Time),256188.8999999999,092_m_m_n_a.png,I,z,656,1,3,1678.6999999999534,254510.19999999995,8000,NNB,C,15
16,test,3,0.0,1-Back,1,m,Wed Mar 12 2025 15:28:43 GMT-0500 (Central Daylight Time),257938.09999999986,130_o_f_n_a.png,I,m,717,1,3,1744.6999999999534,256193.3999999999,8000,NNB,C,16
16,test,3,1.0,1-Back,0,z,Wed Mar 12 2025 15:28:43 GMT-0500 (Central Daylight Time),259537.7999999998,130_o_f_n_a.png,I,m,567,1,3,1596.5,257941.2999999998,8000,NNB,C,17
0,test,4,1.0,1-Back,,,Wed Mar 12 2025 15:28:43 GMT-0500 (Central Daylight Time),259537.7999999998,093_m_f_n_a.png,I,space,1559,1,3,1596.5,257941.2999999998,8000,NNB,C,0
1,test,4,0.0,1-Back,1,m,Wed Mar 12 2025 15:28:43 GMT-0500 (Central Daylight Time),264986.0,146_o_m_n_a.png,I,m,692,2,3,1779.6000000000931,263206.3999999999,8000,NNB,C,1
2,test,4,0.0,1-Back,1,m,Wed Mar 12 2025 15:28:43 GMT-0500 (Central Daylight Time),266618.7999999998,093_m_f_n_a.png,I,m,607,3,3,1628.6999999999534,264990.09999999986,8000,NNB,C,2
3,test,4,0.0,1-Back,1,m,Wed Mar 12 2025 15:28:43 GMT-0500 (Central Daylight Time),268184.8999999999,030_o_f_n_a.png,I,m,534,4,3,1561.8999999999069,266623.0,8000,NNB,C,3
4,test,4,1.0,1-Back,1,z,Wed Mar 12 2025 15:28:43 GMT-0500 (Central Daylight Time),269784.5,030_o_f_n_a.png,I,z,568,5,3,1595.1000000000931,268189.3999999999,8000,NNB,C,4
5,test,4,0.0,1-Back,1,m,Wed Mar 12 2025 15:28:43 GMT-0500 (Central Daylight Time),271383.7999999998,098_y_f_n_a.png,I,m,569,6,3,1595.0999999998603,269788.69999999995,8000,NNB,C,5
6,test,4,0.0,1-Back,1,m,Wed Mar 12 2025 15:28:43 GMT-0500 (Central Daylight Time),273000.09999999986,057_y_m_n_a.png,I,m,584,7,3,1611.8999999999069,271388.19999999995,8000,NNB,C,6
6,test,4,1.0,1-Back,0,z,Wed Mar 12 2025 15:28:43 GMT-0500 (Central Daylight Time),274766.19999999995,057_y_m_n_a.png,I,m,745,8,3,1762.8000000000466,273003.3999999999,8000,NNB,C,7
7,test,4,0.0,1-Back,1,m,Wed Mar 12 2025 15:28:43 GMT-0500 (Central Daylight Time),276298.8999999999,098_y_f_n_a.png,I,m,507,9,3,1529.1999999999534,274769.69999999995,8000,NNB,C,8
8,test,4,0.0,1-Back,1,m,Wed Mar 12 2025 15:28:43 GMT-0500 (Central Daylight Time),277881.8999999999,082_m_m_n_a.png,I,m,566,10,3,1578.1999999999534,276303.69999999995,8000,NNB,C,9
9,test,4,1.0,1-Back,1,z,Wed Mar 12 2025 15:28:43 GMT-0500 (Central Daylight Time),279481.5,082_m_m_n_a.png,I,z,566,11,3,1595.1000000000931,277886.3999999999,8000,NNB,C,10
10,test,4,0.0,1-Back,1,m,Wed Mar 12 2025 15:28:43 GMT-0500 (Central Daylight Time),281014.19999999995,130_o_f_n_a.png,I,m,504,12,3,1528.6999999999534,279485.5,8000,NNB,C,11
11,test,4,0.0,1-Back,1,m,Wed Mar 12 2025 15:28:43 GMT-0500 (Central Daylight Time),282563.8999999999,059_o_m_n_a.png,I,m,531,13,3,1545.1000000000931,281018.7999999998,8000,NNB,C,12
12,test,4,0.0,1-Back,1,m,Wed Mar 12 2025 15:28:43 GMT-0500 (Central Daylight Time),284196.5,130_o_f_n_a.png,I,m,606,14,3,1626.6000000000931,282569.8999999999,8000,NNB,C,13
13,test,4,0.0,1-Back,1,m,Wed Mar 12 2025 15:28:43 GMT-0500 (Central Daylight Time),285746.0,028_y_f_n_a.png,I,m,517,15,3,1545.1000000000931,284200.8999999999,8000,NNB,C,14
14,test,4,1.0,1-Back,1,z,Wed Mar 12 2025 15:28:43 GMT-0500 (Central Daylight Time),287428.7999999998,028_y_f_n_a.png,I,z,662,16,3,1678.1999999999534,285750.59999999986,8000,NNB,C,15
15,test,4,0.0,1-Back,1,m,Wed Mar 12 2025 15:28:43 GMT-0500 (Central Daylight Time),289045.09999999986,006_m_f_n_a.png,I,m,595,17,3,1611.8000000000466,287433.2999999998,8000,NNB,C,16
16,test,4,1.0,1-Back,1,z,Wed Mar 12 2025 15:28:43 GMT-0500 (Central Daylight Time),290728.0,006_m_f_n_a.png,I,z,659,18,3,1678.5,289049.5,8000,NNB,C,17
0,test,5,1.0,1-Back,,,Wed Mar 12 2025 15:28:43 GMT-0500 (Central Daylight Time),290728.0,059_o_m_n_a.png,I,space,2113,1,3,1678.5,289049.5,8000,NNB,C,0
1,test,5,1.0,1-Back,1,z,Wed Mar 12 2025 15:28:43 GMT-0500 (Central Daylight Time),296725.7999999998,059_o_m_n_a.png,I,z,836,2,3,1860.6999999999534,294865.09999999986,8000,NNB,C,1
2,test,5,0.0,1-Back,1,m,Wed Mar 12 2025 15:28:43 GMT-0500 (Central Daylight Time),298358.69999999995,098_y_f_n_a.png,I,m,611,3,3,1629.4000000001397,296729.2999999998,8000,NNB,C,2
3,test,5,0.0,1-Back,1,m,Wed Mar 12 2025 15:28:43 GMT-0500 (Central Daylight Time),300091.59999999986,057_y_m_n_a.png,I,m,714,4,3,1728.8000000000466,298362.7999999998,8000,NNB,C,3
4,test,5,0.0,1-Back,1,m,Wed Mar 12 2025 15:28:43 GMT-0500 (Central Daylight Time),301758.0,098_y_f_n_a.png,I,m,637,5,3,1662.7000000001863,300095.2999999998,8000,NNB,C,4
5,test,5,0.0,1-Back,1,m,Wed Mar 12 2025 15:28:43 GMT-0500 (Central Daylight Time),303390.59999999986,092_m_m_n_a.png,I,m,611,6,3,1628.6999999999534,301761.8999999999,8000,NNB,C,5
6,test,5,1.0,1-Back,1,z,Wed Mar 12 2025 15:28:43 GMT-0500 (Central Daylight Time),305473.2999999998,092_m_m_n_a.png,I,z,1058,7,3,2078.399999999907,303394.8999999999,8000,NNB,C,6
7,test,5,0.0,1-Back,1,m,Wed Mar 12 2025 15:28:43 GMT-0500 (Central Daylight Time),306922.7999999998,028_y_f_n_a.png,I,m,424,8,3,1446.0,305476.7999999998,8000,NNB,C,7
8,test,5,0.0,1-Back,1,m,Wed Mar 12 2025 15:28:43 GMT-0500 (Central Daylight Time),308488.8999999999,031_y_m_n_a.png,I,m,542,9,3,1562.8000000000466,306926.09999999986,8000,NNB,C,8
9,test,5,0.0,1-Back,1,m,Wed Mar 12 2025 15:28:43 GMT-0500 (Central Daylight Time),310038.59999999986,028_y_f_n_a.png,I,m,520,10,3,1544.6999999999534,308493.8999999999,8000,NNB,C,9
10,test,5,0.0,1-Back,1,m,Wed Mar 12 2025 15:28:43 GMT-0500 (Central Daylight Time),311687.8999999999,130_o_f_n_a.png,I,m,619,11,3,1645.1999999999534,310042.69999999995,8000,NNB,C,10
11,test,5,1.0,1-Back,1,z,Wed Mar 12 2025 15:28:43 GMT-0500 (Central Daylight Time),313220.7999999998,130_o_f_n_a.png,I,z,512,12,3,1528.0,311692.7999999998,8000,NNB,C,11
12,test,5,0.0,1-Back,1,m,Wed Mar 12 2025 15:28:43 GMT-0500 (Central Daylight Time),314786.8999999999,146_o_m_n_a.png,I,m,548,13,3,1562.0,313224.8999999999,8000,NNB,C,12
13,test,5,0.0,1-Back,1,m,Wed Mar 12 2025 15:28:43 GMT-0500 (Central Daylight Time),316719.6999999997,093_m_f_n_a.png,I,m,902,14,3,1928.8999999999069,314790.7999999998,8000,NNB,C,13
14,test,5,1.0,1-Back,1,z,Wed Mar 12 2025 15:28:43 GMT-0500 (Central Daylight Time),318419.2999999998,093_m_f_n_a.png,I,z,673,15,3,1695.1999999997206,316724.1000000001,8000,NNB,C,14
15,test,5,0.0,1-Back,1,m,Wed Mar 12 2025 15:28:43 GMT-0500 (Central Daylight Time),320035.6999999997,146_o_m_n_a.png,I,m,590,16,3,1612.7999999998137,318422.8999999999,8000,NNB,C,15
16,test,5,0.0,1-Back,1,m,Wed Mar 12 2025 15:28:43 GMT-0500 (Central Daylight Time),321618.1999999997,006_m_f_n_a.png,I,m,558,17,3,1578.5999999996275,320039.6000000001,8000,NNB,C,16
17,test,5,0.0,1-Back,1,m,Wed Mar 12 2025 15:28:43 GMT-0500 (Central Daylight Time),323234.3999999999,082_m_m_n_a.png,I,m,591,18,3,1613.0,321621.3999999999,8000,NNB,C,17
0,prac,1,0.0,2-Back,,,Wed Mar 12 2025 15:28:43 GMT-0500 (Central Daylight Time),323234.3999999999,031_y_m_n_a.png,I,space,4466,1,3,1613.0,321621.3999999999,8000,NNB,C,0
0,prac,1,0.0,2-Back,,,Wed Mar 12 2025 15:28:43 GMT-0500 (Central Daylight Time),323234.3999999999,006_m_f_n_a.png,I,space,4466,2,3,1613.0,321621.3999999999,8000,NNB,C,0
1,prac,1,1.0,2-Back,1,m,Wed Mar 12 2025 15:28:43 GMT-0500 (Central Daylight Time),432800.1999999997,146_o_m_n_a.png,I,m,974,3,3,1858.6999999997206,430941.5,8000,NNB,C,1
2,prac,1,0.0,2-Back,1,m,Wed Mar 12 2025 15:28:43 GMT-0500 (Central Daylight Time),434816.2999999998,130_o_f_n_a.png,I,m,1113,4,3,2009.1000000000931,432807.1999999997,8000,NNB,C,2
2,prac,1,0.0,2-Back,0,z,Wed Mar 12 2025 15:28:43 GMT-0500 (Central Daylight Time),436499.0,146_o_m_n_a.png,I,m,906,5,3,1675.2000000001863,434823.7999999998,8000,NNB,C,3
3,prac,1,1.0,2-Back,1,z,Wed Mar 12 2025 15:28:43 GMT-0500 (Central Daylight Time),438848.2999999998,130_o_f_n_a.png,I,z,1561,6,3,2344.100000000093,436504.1999999997,8000,NNB,C,4
4,prac,1,0.0,2-Back,1,m,Wed Mar 12 2025 15:28:43 GMT-0500 (Central Daylight Time),440664.3999999999,082_m_m_n_a.png,I,m,1042,7,3,1809.0,438855.3999999999,8000,NNB,C,5
5,prac,1,0.0,2-Back,1,m,Wed Mar 12 2025 15:28:43 GMT-0500 (Central Daylight Time),442430.3999999999,059_o_m_n_a.png,I,m,882,8,3,1758.8999999999069,440671.5,8000,NNB,C,6
6,prac,1,0.0,2-Back,1,m,Wed Mar 12 2025 15:28:43 GMT-0500 (Central Daylight Time),444513.2999999998,028_y_f_n_a.png,I,m,1207,9,3,2077.5,442435.7999999998,8000,NNB,C,7
7,prac,1,1.0,2-Back,1,z,Wed Mar 12 2025 15:28:43 GMT-0500 (Central Daylight Time),446262.7999999998,059_o_m_n_a.png,I,z,970,10,3,1743.6999999997206,444519.1000000001,8000,NNB,C,8
8,prac,1,0.0,2-Back,1,m,Wed Mar 12 2025 15:28:43 GMT-0500 (Central Daylight Time),448412.0,098_y_f_n_a.png,I,m,1283,11,3,2142.399999999907,446269.6000000001,8000,NNB,C,9
8,prac,1,0.0,2-Back,0,m,Wed Mar 12 2025 15:28:43 GMT-0500 (Central Daylight Time),450094.8999999999,082_m_m_n_a.png,I,z,902,12,3,1676.1000000000931,448418.7999999998,8000,NNB,C,10
0,test,1,0.0,2-Back,,,Wed Mar 12 2025 15:28:43 GMT-0500 (Central Daylight Time),450094.8999999999,057_y_m_n_a.png,I,space,6386,1,3,1676.1000000000931,448418.7999999998,8000,NNB,C,0
0,test,1,0.0,2-Back,,,Wed Mar 12 2025 15:28:43 GMT-0500 (Central Daylight Time),450094.8999999999,057_y_m_n_a.png,I,space,6386,2,3,1676.1000000000931,448418.7999999998,8000,NNB,C,0
1,test,1,0.0,2-Back,1,m,Wed Mar 12 2025 15:28:43 GMT-0500 (Central Daylight Time),468772.3999999999,130_o_f_n_a.png,I,m,847,3,3,1862.8999999999069,466909.5,8000,NNB,C,1
2,test,1,0.0,2-Back,1,m,Wed Mar 12 2025 15:28:43 GMT-0500 (Central Daylight Time),470971.6000000001,092_m_m_n_a.png,I,m,1181,4,3,2195.5,468776.1000000001,8000,NNB,C,2
3,test,1,1.0,2-Back,1,z,Wed Mar 12 2025 15:28:43 GMT-0500 (Central Daylight Time),472870.8999999999,130_o_f_n_a.png,I,z,870,5,3,1895.2000000001863,470975.6999999997,8000,NNB,C,3
4,test,1,0.0,2-Back,1,m,Wed Mar 12 2025 15:28:43 GMT-0500 (Central Daylight Time),475220.2999999998,098_y_f_n_a.png,I,m,1322,6,3,2344.6999999997206,472875.6000000001,8000,NNB,C,4
4,test,1,0.0,2-Back,0,m,Wed Mar 12 2025 15:28:43 GMT-0500 (Central Daylight Time),477119.6999999997,092_m_m_n_a.png,I,z,877,7,3,1895.0999999996275,475224.6000000001,8000,NNB,C,5
4,test,1,1.0,2-Back,0,z,Wed Mar 12 2025 15:28:43 GMT-0500 (Central Daylight Time),479252.2999999998,098_y_f_n_a.png,I,m,1106,8,3,2128.399999999907,477123.8999999999,8000,NNB,C,6
5,test,1,0.0,2-Back,1,m,Wed Mar 12 2025 15:28:43 GMT-0500 (Central Daylight Time),480968.3999999999,031_y_m_n_a.png,I,m,685,9,3,1712.5,479255.8999999999,8000,NNB,C,7
6,test,1,0.0,2-Back,1,m,Wed Mar 12 2025 15:28:43 GMT-0500 (Central Daylight Time),482684.5,030_o_f_n_a.png,I,m,689,10,3,1711.6000000000931,480972.8999999999,8000,NNB,C,8
7,test,1,1.0,2-Back,1,z,Wed Mar 12 2025 15:28:43 GMT-0500 (Central Daylight Time),484484.0,031_y_m_n_a.png,I,z,781,11,3,1795.0,482689.0,8000,NNB,C,9
8,test,1,0.0,2-Back,1,m,Wed Mar 12 2025 15:28:43 GMT-0500 (Central Daylight Time),487216.5,006_m_f_n_a.png,I,m,1709,12,3,2728.399999999907,484488.1000000001,8000,NNB,C,10
9,test,1,0.0,2-Back,1,m,Wed Mar 12 2025 15:28:43 GMT-0500 (Central Daylight Time),489217.1000000001,006_m_f_n_a.png,I,m,976,13,3,1996.0,487221.1000000001,8000,NNB,C,11
9,test,1,0.0,2-Back,0,m,Wed Mar 12 2025 15:28:43 GMT-0500 (Central Daylight Time),490948.6999999997,146_o_m_n_a.png,I,z,714,14,3,1727.5,489221.1999999997,8000,NNB,C,12
10,test,1,0.0,2-Back,1,m,Wed Mar 12 2025 15:28:43 GMT-0500 (Central Daylight Time),492766.1000000001,030_o_f_n_a.png,I,m,789,15,3,1814.2000000001863,490951.8999999999,8000,NNB,C,13
10,test,1,1.0,2-Back,0,z,Wed Mar 12 2025 15:28:43 GMT-0500 (Central Daylight Time),494597.6000000001,146_o_m_n_a.png,I,m,811,16,3,1827.5,492770.1000000001,8000,NNB,C,14
11,test,1,0.0,2-Back,1,m,Wed Mar 12 2025 15:28:43 GMT-0500 (Central Daylight Time),496530.7999999998,093_m_f_n_a.png,I,m,916,17,3,1929.6999999997206,494601.1000000001,8000,NNB,C,15
12,test,1,0.0,2-Back,1,m,Wed Mar 12 2025 15:28:43 GMT-0500 (Central Daylight Time),498379.7999999998,082_m_m_n_a.png,I,m,831,18,3,1845.8999999999069,496533.8999999999,8000,NNB,C,16
0,test,2,0.0,2-Back,,,Wed Mar 12 2025 15:28:43 GMT-0500 (Central Daylight Time),498379.7999999998,082_m_m_n_a.png,I,space,1646,1,3,1845.8999999999069,496533.8999999999,8000,NNB,C,0
0,test,2,0.0,2-Back,,,Wed Mar 12 2025 15:28:43 GMT-0500 (Central Daylight Time),498379.7999999998,028_y_f_n_a.png,I,space,1646,2,3,1845.8999999999069,496533.8999999999,8000,NNB,C,0
1,test,2,1.0,2-Back,1,z,Wed Mar 12 2025 15:28:43 GMT-0500 (Central Daylight Time),506876.8999999999,082_m_m_n_a.png,I,z,680,3,3,1695.1000000000931,505181.7999999998,8000,NNB,C,1
2,test,2,0.0,2-Back,1,m,Wed Mar 12 2025 15:28:43 GMT-0500 (Central Daylight Time),509042.8999999999,093_m_f_n_a.png,I,m,1148,4,3,2161.899999999907,506881.0,8000,NNB,C,2
3,test,2,0.0,2-Back,1,m,Wed Mar 12 2025 15:28:43 GMT-0500 (Central Daylight Time),511958.7999999998,028_y_f_n_a.png,I,m,1894,5,3,2911.600000000093,509047.1999999997,8000,NNB,C,3
4,test,2,0.0,2-Back,1,m,Wed Mar 12 2025 15:28:43 GMT-0500 (Central Daylight Time),513658.1999999997,146_o_m_n_a.png,I,m,682,6,3,1695.2999999998137,511962.8999999999,8000,NNB,C,4
5,test,2,0.0,2-Back,1,m,Wed Mar 12 2025 15:28:43 GMT-0500 (Central Daylight Time),515574.2999999998,098_y_f_n_a.png,I,m,895,7,3,1913.0,513661.2999999998,8000,NNB,C,5
5,test,2,1.0,2-Back,0,z,Wed Mar 12 2025 15:28:43 GMT-0500 (Central Daylight Time),517473.8999999999,146_o_m_n_a.png,I,m,867,8,3,1896.2000000001863,515577.6999999997,8000,NNB,C,6
6,test,2,0.0,2-Back,1,m,Wed Mar 12 2025 15:28:43 GMT-0500 (Central Daylight Time),519223.2999999998,031_y_m_n_a.png,I,m,720,9,3,1745.6000000000931,517477.6999999997,8000,NNB,C,7
7,test,2,0.0,2-Back,1,m,Wed Mar 12 2025 15:28:43 GMT-0500 (Central Daylight Time),521172.6000000001,031_y_m_n_a.png,I,m,930,10,3,1945.7000000001863,519226.8999999999,8000,NNB,C,8
8,test,2,0.0,2-Back,1,m,Wed Mar 12 2025 15:28:43 GMT-0500 (Central Daylight Time),523266.5,006_m_f_n_a.png,I,m,1076,11,3,2090.7000000001863,521175.7999999998,8000,NNB,C,9
9,test,2,0.0,2-Back,1,m,Wed Mar 12 2025 15:28:43 GMT-0500 (Central Daylight Time),525121.2999999998,028_y_f_n_a.png,I,m,842,12,3,1850.6000000000931,523270.6999999997,8000,NNB,C,10
10,test,2,1.0,2-Back,1,z,Wed Mar 12 2025 15:28:43 GMT-0500 (Central Daylight Time),526904.1000000001,006_m_f_n_a.png,I,z,760,13,3,1779.2000000001863,525124.8999999999,8000,NNB,C,11
11,test,2,0.0,2-Back,1,m,Wed Mar 12 2025 15:28:43 GMT-0500 (Central Daylight Time),528920.1999999997,059_o_m_n_a.png,I,m,993,14,3,2012.8999999999069,526907.2999999998,8000,NNB,C,12
12,test,2,0.0,2-Back,1,m,Wed Mar 12 2025 15:28:43 GMT-0500 (Central Daylight Time),530886.2999999998,059_o_m_n_a.png,I,m,945,15,3,1962.7999999998137,528923.5,8000,NNB,C,13
13,test,2,0.0,2-Back,1,m,Wed Mar 12 2025 15:28:43 GMT-0500 (Central Daylight Time),532702.6000000001,030_o_f_n_a.png,I,m,787,16,3,1812.8000000002794,530889.7999999998,8000,NNB,C,14
14,test,2,0.0,2-Back,1,m,Wed Mar 12 2025 15:28:43 GMT-0500 (Central Daylight Time),534618.1000000001,092_m_m_n_a.png,I,m,899,17,3,1912.3000000002794,532705.7999999998,8000,NNB,C,15
15,test,2,1.0,2-Back,1,z,Wed Mar 12 2025 15:28:43 GMT-0500 (Central Daylight Time),536551.1000000001,030_o_f_n_a.png,I,z,911,18,3,1929.1000000000931,534622.0,8000,NNB,C,16
0,test,3,1.0,2-Back,,,Wed Mar 12 2025 15:28:43 GMT-0500 (Central Daylight Time),536551.1000000001,057_y_m_n_a.png,I,space,1514,1,3,1929.1000000000931,534622.0,8000,NNB,C,0
0,test,3,1.0,2-Back,,,Wed Mar 12 2025 15:28:43 GMT-0500 (Central Daylight Time),536551.1000000001,057_y_m_n_a.png,I,space,1514,2,3,1929.1000000000931,534622.0,8000,NNB,C,0
1,test,3,0.0,2-Back,1,m,Wed Mar 12 2025 15:28:43 GMT-0500 (Central Daylight Time),544965.1000000001,030_o_f_n_a.png,I,m,722,3,3,1744.9000000003725,543220.1999999997,8000,NNB,C,1
2,test,3,0.0,2-Back,1,m,Wed Mar 12 2025 15:28:43 GMT-0500 (Central Daylight Time),546947.5,082_m_m_n_a.png,I,m,964,4,3,1978.2000000001863,544969.2999999998,8000,NNB,C,2
3,test,3,1.0,2-Back,1,z,Wed Mar 12 2025 15:28:43 GMT-0500 (Central Daylight Time),548697.1999999997,030_o_f_n_a.png,I,z,717,5,3,1745.6999999997206,546951.5,8000,NNB,C,3
4,test,3,0.0,2-Back,1,m,Wed Mar 12 2025 15:28:43 GMT-0500 (Central Daylight Time),550663.2999999998,031_y_m_n_a.png,I,m,944,6,3,1961.8999999999069,548701.3999999999,8000,NNB,C,4
5,test,3,0.0,2-Back,1,m,Wed Mar 12 2025 15:28:43 GMT-0500 (Central Daylight Time),552646.0,082_m_m_n_a.png,I,m,954,7,3,1979.3000000002794,550666.6999999997,8000,NNB,C,5
6,test,3,1.0,2-Back,1,z,Wed Mar 12 2025 15:28:43 GMT-0500 (Central Daylight Time),554495.5,031_y_m_n_a.png,I,z,819,8,3,1845.3000000002794,552650.1999999997,8000,NNB,C,6
7,test,3,0.0,2-Back,1,m,Wed Mar 12 2025 15:28:43 GMT-0500 (Central Daylight Time),556545.0,028_y_f_n_a.png,I,m,1026,9,3,2044.8000000002794,554500.1999999997,8000,NNB,C,7
8,test,3,0.0,2-Back,1,m,Wed Mar 12 2025 15:28:43 GMT-0500 (Central Daylight Time),558344.2999999998,092_m_m_n_a.png,I,m,768,10,3,1796.1000000000931,556548.1999999997,8000,NNB,C,8
9,test,3,1.0,2-Back,1,z,Wed Mar 12 2025 15:28:43 GMT-0500 (Central Daylight Time),560077.0,028_y_f_n_a.png,I,z,712,11,3,1728.5,558348.5,8000,NNB,C,9
10,test,3,1.0,2-Back,1,z,Wed Mar 12 2025 15:28:43 GMT-0500 (Central Daylight Time),562076.3999999999,092_m_m_n_a.png,I,z,972,12,3,1996.1000000000931,560080.2999999998,8000,NNB,C,10
11,test,3,0.0,2-Back,1,m,Wed Mar 12 2025 15:28:43 GMT-0500 (Central Daylight Time),563875.7999999998,030_o_f_n_a.png,I,m,773,13,3,1795.2999999998137,562080.5,8000,NNB,C,11
12,test,3,0.0,2-Back,1,m,Wed Mar 12 2025 15:28:43 GMT-0500 (Central Daylight Time),565758.6000000001,093_m_f_n_a.png,I,m,853,14,3,1879.4000000003725,563879.1999999997,8000,NNB,C,12
13,test,3,0.0,2-Back,1,m,Wed Mar 12 2025 15:28:43 GMT-0500 (Central Daylight Time),567591.3999999999,146_o_m_n_a.png,I,m,802,15,3,1828.6000000000931,565762.7999999998,8000,NNB,C,13
14,test,3,1.0,2-Back,1,z,Wed Mar 12 2025 15:28:43 GMT-0500 (Central Daylight Time),569457.6000000001,093_m_f_n_a.png,I,z,833,16,3,1862.2000000001863,567595.3999999999,8000,NNB,C,14
15,test,3,0.0,2-Back,1,m,Wed Mar 12 2025 15:28:43 GMT-0500 (Central Daylight Time),571256.7999999998,130_o_f_n_a.png,I,m,776,17,3,1795.7999999998137,569461.0,8000,NNB,C,15
16,test,3,0.0,2-Back,1,m,Wed Mar 12 2025 15:28:43 GMT-0500 (Central Daylight Time),573289.3999999999,130_o_f_n_a.png,I,m,1008,18,3,2028.2999999998137,571261.1000000001,8000,NNB,C,16
0,test,4,0.0,2-Back,,,Wed Mar 12 2025 15:28:43 GMT-0500 (Central Daylight Time),573289.3999999999,059_o_m_n_a.png,I,space,1376,1,3,2028.2999999998137,571261.1000000001,8000,NNB,C,0
0,test,4,0.0,2-Back,,,Wed Mar 12 2025 15:28:43 GMT-0500 (Central Daylight Time),573289.3999999999,098_y_f_n_a.png,I,space,1376,2,3,2028.2999999998137,571261.1000000001,8000,NNB,C,0
1,test,4,1.0,2-Back,1,z,Wed Mar 12 2025 15:28:43 GMT-0500 (Central Daylight Time),581587.0,059_o_m_n_a.png,I,z,657,3,3,1678.5,579908.5,8000,NNB,C,1
1,test,4,1.0,2-Back,0,z,Wed Mar 12 2025 15:28:43 GMT-0500 (Central Daylight Time),583386.5,098_y_f_n_a.png,I,m,766,4,3,1794.8000000002794,581591.6999999997,8000,NNB,C,2
2,test,4,0.0,2-Back,1,m,Wed Mar 12 2025 15:28:43 GMT-0500 (Central Daylight Time),585135.7999999998,030_o_f_n_a.png,I,m,719,5,3,1746.0,583389.7999999998,8000,NNB,C,3
2,test,4,0.0,2-Back,0,m,Wed Mar 12 2025 15:28:43 GMT-0500 (Central Daylight Time),587201.8999999999,030_o_f_n_a.png,I,z,1041,6,3,2062.7999999998137,585139.1000000001,8000,NNB,C,4
3,test,4,0.0,2-Back,1,m,Wed Mar 12 2025 15:28:43 GMT-0500 (Central Daylight Time),589384.6000000001,006_m_f_n_a.png,I,m,1159,7,3,2179.0,587205.6000000001,8000,NNB,C,5
4,test,4,0.0,2-Back,1,m,Wed Mar 12 2025 15:28:43 GMT-0500 (Central Daylight Time),591234.1999999997,031_y_m_n_a.png,I,m,825,8,3,1845.5,589388.6999999997,8000,NNB,C,6
4,test,4,1.0,2-Back,0,z,Wed Mar 12 2025 15:28:43 GMT-0500 (Central Daylight Time),593500.1999999997,006_m_f_n_a.png,I,m,1239,9,3,2263.0,591237.1999999997,8000,NNB,C,7
5,test,4,0.0,2-Back,1,m,Wed Mar 12 2025 15:28:43 GMT-0500 (Central Daylight Time),595116.1000000001,092_m_m_n_a.png,I,m,589,10,3,1612.9000000003725,593503.1999999997,8000,NNB,C,8
6,test,4,0.0,2-Back,1,m,Wed Mar 12 2025 15:28:43 GMT-0500 (Central Daylight Time),596998.8999999999,031_y_m_n_a.png,I,m,853,11,3,1879.6000000000931,595119.2999999998,8000,NNB,C,9
7,test,4,0.0,2-Back,1,m,Wed Mar 12 2025 15:28:43 GMT-0500 (Central Daylight Time),598881.7999999998,130_o_f_n_a.png,I,m,849,12,3,1878.5,597003.2999999998,8000,NNB,C,10
8,test,4,0.0,2-Back,1,m,Wed Mar 12 2025 15:28:43 GMT-0500 (Central Daylight Time),600680.8999999999,057_y_m_n_a.png,I,m,776,13,3,1796.2000000001863,598884.6999999997,8000,NNB,C,11
8,test,4,1.0,2-Back,0,z,Wed Mar 12 2025 15:28:43 GMT-0500 (Central Daylight Time),602430.5,130_o_f_n_a.png,I,m,728,14,3,1745.3999999999069,600685.1000000001,8000,NNB,C,12
8,test,4,1.0,2-Back,0,z,Wed Mar 12 2025 15:28:43 GMT-0500 (Central Daylight Time),604246.7999999998,057_y_m_n_a.png,I,m,787,15,3,1812.0,602434.7999999998,8000,NNB,C,13
9,test,4,0.0,2-Back,1,m,Wed Mar 12 2025 15:28:43 GMT-0500 (Central Daylight Time),606046.0,082_m_m_n_a.png,I,m,771,16,3,1796.1000000000931,604249.8999999999,8000,NNB,C,14
10,test,4,0.0,2-Back,1,m,Wed Mar 12 2025 15:28:43 GMT-0500 (Central Daylight Time),607728.7999999998,093_m_f_n_a.png,I,m,659,17,3,1679.0,606049.7999999998,8000,NNB,C,15
10,test,4,1.0,2-Back,0,z,Wed Mar 12 2025 15:28:43 GMT-0500 (Central Daylight Time),609678.1999999997,082_m_m_n_a.png,I,m,920,18,3,1945.5999999996275,607732.6000000001,8000,NNB,C,16
0,test,5,1.0,2-Back,,,Wed Mar 12 2025 15:28:43 GMT-0500 (Central Daylight Time),609678.1999999997,057_y_m_n_a.png,I,space,1259,1,3,1945.5999999996275,607732.6000000001,8000,NNB,C,0
0,test,5,1.0,2-Back,,,Wed Mar 12 2025 15:28:43 GMT-0500 (Central Daylight Time),609678.1999999997,093_m_f_n_a.png,I,space,1259,2,3,1945.5999999996275,607732.6000000001,8000,NNB,C,0
1,test,5,1.0,2-Back,1,z,Wed Mar 12 2025 15:28:43 GMT-0500 (Central Daylight Time),617675.8999999999,057_y_m_n_a.png,I,z,656,3,3,1679.7000000001863,615996.1999999997,8000,NNB,C,1
2,test,5,1.0,2-Back,1,z,Wed Mar 12 2025 15:28:43 GMT-0500 (Central Daylight Time),619542.0,093_m_f_n_a.png,I,z,845,4,3,1862.3000000002794,617679.6999999997,8000,NNB,C,2
3,test,5,0.0,2-Back,1,m,Wed Mar 12 2025 15:28:43 GMT-0500 (Central Daylight Time),621374.6000000001,130_o_f_n_a.png,I,m,811,5,3,1828.7000000001863,619545.8999999999,8000,NNB,C,3
4,test,5,0.0,2-Back,1,m,Wed Mar 12 2025 15:28:43 GMT-0500 (Central Daylight Time),623674.0,057_y_m_n_a.png,I,m,1283,6,3,2296.2000000001863,621377.7999999998,8000,NNB,C,4
5,test,5,0.0,2-Back,1,m,Wed Mar 12 2025 15:28:43 GMT-0500 (Central Daylight Time),625639.7999999998,028_y_f_n_a.png,I,m,935,7,3,1962.1999999997206,623677.6000000001,8000,NNB,C,5
5,test,5,0.0,2-Back,0,m,Wed Mar 12 2025 15:28:43 GMT-0500 (Central Daylight Time),627439.3999999999,130_o_f_n_a.png,I,z,777,8,3,1795.8999999999069,625643.5,8000,NNB,C,6
6,test,5,1.0,2-Back,1,z,Wed Mar 12 2025 15:28:43 GMT-0500 (Central Daylight Time),629555.2999999998,028_y_f_n_a.png,I,z,1090,9,3,2112.2999999998137,627443.0,8000,NNB,C,7
7,test,5,0.0,2-Back,1,m,Wed Mar 12 2025 15:28:43 GMT-0500 (Central Daylight Time),631388.1000000001,146_o_m_n_a.png,I,m,806,10,3,1828.8000000002794,629559.2999999998,8000,NNB,C,8
8,test,5,0.0,2-Back,1,m,Wed Mar 12 2025 15:28:43 GMT-0500 (Central Daylight Time),633204.1000000001,006_m_f_n_a.png,I,m,797,11,3,1811.5,631392.6000000001,8000,NNB,C,9
9,test,5,0.0,2-Back,1,m,Wed Mar 12 2025 15:28:43 GMT-0500 (Central Daylight Time),635320.1999999997,092_m_m_n_a.png,I,m,1085,12,3,2111.7999999998137,633208.3999999999,8000,NNB,C,10
10,test,5,0.0,2-Back,1,m,Wed Mar 12 2025 15:28:43 GMT-0500 (Central Daylight Time),637286.2999999998,146_o_m_n_a.png,I,m,945,13,3,1961.8999999999069,635324.3999999999,8000,NNB,C,11
10,test,5,1.0,2-Back,0,z,Wed Mar 12 2025 15:28:43 GMT-0500 (Central Daylight Time),639735.1999999997,092_m_m_n_a.png,I,m,1426,14,3,2445.5,637289.6999999997,8000,NNB,C,12
11,test,5,0.0,2-Back,1,m,Wed Mar 12 2025 15:28:43 GMT-0500 (Central Daylight Time),641734.8999999999,098_y_f_n_a.png,I,m,888,15,3,1996.0,639738.8999999999,8000,NNB,C,13
12,test,5,0.0,2-Back,1,m,Wed Mar 12 2025 15:28:43 GMT-0500 (Central Daylight Time),643517.6999999997,059_o_m_n_a.png,I,m,762,16,3,1779.0,641738.6999999997,8000,NNB,C,14
13,test,5,0.0,2-Back,1,m,Wed Mar 12 2025 15:28:43 GMT-0500 (Central Daylight Time),645433.6999999997,006_m_f_n_a.png,I,m,884,17,3,1912.0999999996275,643521.6000000001,8000,NNB,C,15
14,test,5,1.0,2-Back,1,z,Wed Mar 12 2025 15:28:43 GMT-0500 (Central Daylight Time),647799.6999999997,059_o_m_n_a.png,I,z,1344,18,3,2362.1999999997206,645437.5,8000,NNB,C,16
