acc_sum,block,block_c,change,condition,correct,correct_response,datetime,endtime,face,project,response,response_time,row_sel,session_number,start_end,starttime,subject_id,task,task_vers,trial
0,prac,1,,1-Back,,,Wed Mar 05 2025 10:20:49 GMT-0600 (Central Standard Time),,097_m_f_n_a.png,O,space,12188,1,1,,,7087,NNB,B,0
1,prac,1,0.0,1-Back,1,m,Wed Mar 05 2025 10:20:49 GMT-0600 (Central Standard Time),140402.89999997616,152_y_f_n_a.png,O,m,874,2,1,1777.3999999761581,138625.5,7087,NNB,B,1
2,prac,1,1.0,1-Back,1,z,Wed Mar 05 2025 10:20:49 GMT-0600 (Central Standard Time),142185.60000002384,152_y_f_n_a.png,O,z,966,3,1,1744.0,140441.60000002384,7087,NNB,B,2
3,prac,1,0.0,1-Back,1,m,Wed Mar 05 2025 10:20:49 GMT-0600 (Central Standard Time),143834.0,176_o_m_n_a.png,O,m,707,4,1,1612.8000000715256,142221.19999992847,7087,NNB,B,3
4,prac,1,0.0,1-Back,1,m,Wed Mar 05 2025 10:20:49 GMT-0600 (Central Standard Time),145700.89999997616,126_m_m_n_a.png,O,m,966,5,1,1860.2000000476837,143840.69999992847,7087,NNB,B,4
5,prac,1,1.0,1-Back,1,z,Wed Mar 05 2025 10:20:49 GMT-0600 (Central Standard Time),147399.79999995232,126_m_m_n_a.png,O,z,884,6,1,1665.6999999284744,145734.10000002384,7087,NNB,B,5
6,prac,1,0.0,1-Back,1,m,Wed Mar 05 2025 10:20:49 GMT-0600 (Central Standard Time),149382.89999997616,086_o_f_n_a.png,O,m,1030,7,1,1966.7000000476837,147416.19999992847,7087,NNB,B,6
6,prac,1,0.0,1-Back,0,m,Wed Mar 05 2025 10:20:49 GMT-0600 (Central Standard Time),151132.19999992847,178_m_m_n_a.png,O,z,796,8,1,1714.5,149417.69999992847,7087,NNB,B,7
7,prac,1,0.0,1-Back,1,m,Wed Mar 05 2025 10:20:49 GMT-0600 (Central Standard Time),153115.29999995232,097_m_f_n_a.png,O,m,1059,9,1,1952.1000000238419,151163.19999992847,7087,NNB,B,8
8,prac,1,1.0,1-Back,1,z,Wed Mar 05 2025 10:20:49 GMT-0600 (Central Standard Time),154781.39999997616,097_m_f_n_a.png,O,z,861,10,1,1630.2999999523163,153151.10000002384,7087,NNB,B,9
9,prac,1,0.0,1-Back,1,m,Wed Mar 05 2025 10:20:49 GMT-0600 (Central Standard Time),156680.5,176_o_m_n_a.png,O,m,958,11,1,1865.8999999761581,154814.60000002384,7087,NNB,B,10
10,prac,1,0.0,1-Back,1,m,Wed Mar 05 2025 10:20:49 GMT-0600 (Central Standard Time),158363.60000002384,173_y_f_n_a.png,O,m,732,12,1,1645.7000000476837,156717.89999997616,7087,NNB,B,11
0,test,1,0.0,1-Back,,,Wed Mar 05 2025 10:20:49 GMT-0600 (Central Standard Time),158363.60000002384,152_y_f_n_a.png,O,space,16303,1,1,1645.7000000476837,156717.89999997616,7087,NNB,B,0
1,test,1,0.0,1-Back,1,m,Wed Mar 05 2025 10:20:49 GMT-0600 (Central Standard Time),185954.29999995232,029_m_f_n_a.png,O,m,809,2,1,1825.6000000238419,184128.69999992847,7087,NNB,B,1
2,test,1,0.0,1-Back,1,m,Wed Mar 05 2025 10:20:49 GMT-0600 (Central Standard Time),187819.69999992847,173_y_f_n_a.png,O,m,815,3,1,1845.6999999284744,185974.0,7087,NNB,B,2
3,test,1,1.0,1-Back,1,z,Wed Mar 05 2025 10:20:49 GMT-0600 (Central Standard Time),189603.10000002384,173_y_f_n_a.png,O,z,749,4,1,1778.3000000715256,187824.79999995232,7087,NNB,B,3
4,test,1,0.0,1-Back,1,m,Wed Mar 05 2025 10:20:49 GMT-0600 (Central Standard Time),191352.5,029_m_f_n_a.png,O,m,703,5,1,1730.3000000715256,189622.19999992847,7087,NNB,B,4
5,test,1,0.0,1-Back,1,m,Wed Mar 05 2025 10:20:49 GMT-0600 (Central Standard Time),193285.19999992847,176_o_m_n_a.png,O,m,890,6,1,1913.0,191372.19999992847,7087,NNB,B,5
6,test,1,1.0,1-Back,1,z,Wed Mar 05 2025 10:20:49 GMT-0600 (Central Standard Time),195101.79999995232,176_o_m_n_a.png,O,z,781,7,1,1798.0,193303.79999995232,7087,NNB,B,6
7,test,1,0.0,1-Back,1,m,Wed Mar 05 2025 10:20:49 GMT-0600 (Central Standard Time),196867.39999997616,126_m_m_n_a.png,O,m,725,8,1,1742.7000000476837,195124.69999992847,7087,NNB,B,7
8,test,1,0.0,1-Back,1,m,Wed Mar 05 2025 10:20:49 GMT-0600 (Central Standard Time),198800.0,086_o_f_n_a.png,O,m,895,9,1,1915.5,196884.5,7087,NNB,B,8
9,test,1,0.0,1-Back,1,m,Wed Mar 05 2025 10:20:49 GMT-0600 (Central Standard Time),200682.69999992847,126_m_m_n_a.png,O,m,842,10,1,1862.0999999046326,198820.60000002384,7087,NNB,B,9
10,test,1,0.0,1-Back,1,m,Wed Mar 05 2025 10:20:49 GMT-0600 (Central Standard Time),202549.5,153_y_m_n_a.png,O,m,832,11,1,1846.2000000476837,200703.29999995232,7087,NNB,B,10
11,test,1,1.0,1-Back,1,z,Wed Mar 05 2025 10:20:49 GMT-0600 (Central Standard Time),204314.89999997616,153_y_m_n_a.png,O,z,718,12,1,1746.2999999523163,202568.60000002384,7087,NNB,B,11
12,test,1,0.0,1-Back,1,m,Wed Mar 05 2025 10:20:49 GMT-0600 (Central Standard Time),206080.19999992847,110_o_f_n_a.png,O,m,726,13,1,1746.0999999046326,204334.10000002384,7087,NNB,B,12
13,test,1,1.0,1-Back,1,z,Wed Mar 05 2025 10:20:49 GMT-0600 (Central Standard Time),207897.10000002384,110_o_f_n_a.png,O,z,793,14,1,1812.1000000238419,206085.0,7087,NNB,B,13
14,test,1,0.0,1-Back,1,m,Wed Mar 05 2025 10:20:49 GMT-0600 (Central Standard Time),209813.60000002384,013_y_m_n_a.png,O,m,882,15,1,1896.9000000953674,207916.69999992847,7087,NNB,B,14
15,test,1,0.0,1-Back,1,m,Wed Mar 05 2025 10:20:49 GMT-0600 (Central Standard Time),211629.89999997616,097_m_f_n_a.png,O,m,781,16,1,1786.1000000238419,209843.79999995232,7087,NNB,B,15
16,test,1,0.0,1-Back,1,m,Wed Mar 05 2025 10:20:49 GMT-0600 (Central Standard Time),213495.29999995232,065_o_m_n_a.png,O,m,822,17,1,1843.3999999761581,211651.89999997616,7087,NNB,B,16
17,test,1,0.0,1-Back,1,m,Wed Mar 05 2025 10:20:49 GMT-0600 (Central Standard Time),215328.10000002384,097_m_f_n_a.png,O,m,787,18,1,1812.5,213515.60000002384,7087,NNB,B,17
0,test,2,0.0,1-Back,,,Wed Mar 05 2025 10:20:49 GMT-0600 (Central Standard Time),215328.10000002384,126_m_m_n_a.png,O,space,4467,1,1,1812.5,213515.60000002384,7087,NNB,B,0
1,test,2,0.0,1-Back,1,m,Wed Mar 05 2025 10:20:49 GMT-0600 (Central Standard Time),223891.69999992847,029_m_f_n_a.png,O,m,892,2,1,1908.0,221983.69999992847,7087,NNB,B,1
2,test,2,1.0,1-Back,1,z,Wed Mar 05 2025 10:20:49 GMT-0600 (Central Standard Time),225607.79999995232,029_m_f_n_a.png,O,z,679,3,1,1695.3999999761581,223912.39999997616,7087,NNB,B,2
3,test,2,0.0,1-Back,1,m,Wed Mar 05 2025 10:20:49 GMT-0600 (Central Standard Time),227274.0,126_m_m_n_a.png,O,m,627,4,1,1648.6000000238419,225625.39999997616,7087,NNB,B,3
4,test,2,0.0,1-Back,1,m,Wed Mar 05 2025 10:20:49 GMT-0600 (Central Standard Time),229157.0,153_y_m_n_a.png,O,m,834,5,1,1860.7000000476837,227296.29999995232,7087,NNB,B,4
5,test,2,0.0,1-Back,1,m,Wed Mar 05 2025 10:20:49 GMT-0600 (Central Standard Time),230939.39999997616,152_y_f_n_a.png,O,m,742,6,1,1761.5,229177.89999997616,7087,NNB,B,5
6,test,2,1.0,1-Back,1,z,Wed Mar 05 2025 10:20:49 GMT-0600 (Central Standard Time),232572.0,152_y_f_n_a.png,O,z,591,7,1,1608.6000000238419,230963.39999997616,7087,NNB,B,6
7,test,2,0.0,1-Back,1,m,Wed Mar 05 2025 10:20:49 GMT-0600 (Central Standard Time),234421.0,153_y_m_n_a.png,O,m,804,8,1,1822.8000000715256,232598.19999992847,7087,NNB,B,7
8,test,2,0.0,1-Back,1,m,Wed Mar 05 2025 10:20:49 GMT-0600 (Central Standard Time),236171.10000002384,110_o_f_n_a.png,O,m,726,9,1,1746.2000000476837,234424.89999997616,7087,NNB,B,8
9,test,2,0.0,1-Back,1,m,Wed Mar 05 2025 10:20:49 GMT-0600 (Central Standard Time),237970.79999995232,178_m_m_n_a.png,O,m,735,10,1,1757.8999999761581,236212.89999997616,7087,NNB,B,9
10,test,2,1.0,1-Back,1,z,Wed Mar 05 2025 10:20:49 GMT-0600 (Central Standard Time),239736.60000002384,178_m_m_n_a.png,O,z,720,11,1,1737.8000000715256,237998.79999995232,7087,NNB,B,10
11,test,2,0.0,1-Back,1,m,Wed Mar 05 2025 10:20:49 GMT-0600 (Central Standard Time),241502.60000002384,110_o_f_n_a.png,O,m,722,12,1,1746.5,239756.10000002384,7087,NNB,B,11
12,test,2,0.0,1-Back,1,m,Wed Mar 05 2025 10:20:49 GMT-0600 (Central Standard Time),243268.5,086_o_f_n_a.png,O,m,716,13,1,1746.3000000715256,241522.19999992847,7087,NNB,B,12
13,test,2,0.0,1-Back,1,m,Wed Mar 05 2025 10:20:49 GMT-0600 (Central Standard Time),245001.60000002384,176_o_m_n_a.png,O,m,686,14,1,1709.0,243292.60000002384,7087,NNB,B,13
14,test,2,0.0,1-Back,1,m,Wed Mar 05 2025 10:20:49 GMT-0600 (Central Standard Time),246734.69999992847,065_o_m_n_a.png,O,m,698,15,1,1712.5999999046326,245022.10000002384,7087,NNB,B,14
15,test,2,1.0,1-Back,1,z,Wed Mar 05 2025 10:20:49 GMT-0600 (Central Standard Time),248320.79999995232,065_o_m_n_a.png,O,z,547,16,1,1562.8999999761581,246757.89999997616,7087,NNB,B,15
16,test,2,0.0,1-Back,1,m,Wed Mar 05 2025 10:20:49 GMT-0600 (Central Standard Time),250065.69999992847,013_y_m_n_a.png,O,m,718,17,1,1738.6999999284744,248327.0,7087,NNB,B,16
17,test,2,1.0,1-Back,1,z,Wed Mar 05 2025 10:20:49 GMT-0600 (Central Standard Time),251717.79999995232,013_y_m_n_a.png,O,z,633,18,1,1647.8999999761581,250069.89999997616,7087,NNB,B,17
0,test,3,1.0,1-Back,,,Wed Mar 05 2025 10:20:49 GMT-0600 (Central Standard Time),251717.79999995232,173_y_f_n_a.png,O,space,4531,1,1,1647.8999999761581,250069.89999997616,7087,NNB,B,0
1,test,3,0.0,1-Back,1,m,Wed Mar 05 2025 10:20:49 GMT-0600 (Central Standard Time),260313.10000002384,065_o_m_n_a.png,O,m,861,1,1,1877.2000000476837,258435.89999997616,7087,NNB,B,1
2,test,3,1.0,1-Back,1,z,Wed Mar 05 2025 10:20:49 GMT-0600 (Central Standard Time),262095.89999997616,065_o_m_n_a.png,O,z,745,1,1,1763.5,260332.39999997616,7087,NNB,B,2
3,test,3,0.0,1-Back,1,m,Wed Mar 05 2025 10:20:49 GMT-0600 (Central Standard Time),263828.60000002384,097_m_f_n_a.png,O,m,691,1,1,1714.0,262114.60000002384,7087,NNB,B,3
4,test,3,1.0,1-Back,1,z,Wed Mar 05 2025 10:20:49 GMT-0600 (Central Standard Time),265511.39999997616,097_m_f_n_a.png,O,z,646,1,1,1662.6000000238419,263848.7999999523,7087,NNB,B,4
5,test,3,0.0,1-Back,1,m,Wed Mar 05 2025 10:20:49 GMT-0600 (Central Standard Time),267210.0,110_o_f_n_a.png,O,m,650,1,1,1678.5,265531.5,7087,NNB,B,5
6,test,3,0.0,1-Back,1,m,Wed Mar 05 2025 10:20:49 GMT-0600 (Central Standard Time),268877.1999999285,153_y_m_n_a.png,O,m,640,1,1,1663.0,267214.1999999285,7087,NNB,B,6
7,test,3,0.0,1-Back,1,m,Wed Mar 05 2025 10:20:49 GMT-0600 (Central Standard Time),270643.0,110_o_f_n_a.png,O,m,726,1,1,1743.7000000476837,268899.2999999523,7087,NNB,B,7
8,test,3,0.0,1-Back,1,m,Wed Mar 05 2025 10:20:49 GMT-0600 (Central Standard Time),272375.7999999523,013_y_m_n_a.png,O,m,695,1,1,1712.6000000238419,270663.1999999285,7087,NNB,B,8
9,test,3,1.0,1-Back,1,z,Wed Mar 05 2025 10:20:49 GMT-0600 (Central Standard Time),274142.10000002384,013_y_m_n_a.png,O,z,724,1,1,1747.5,272394.60000002384,7087,NNB,B,9
10,test,3,0.0,1-Back,1,m,Wed Mar 05 2025 10:20:49 GMT-0600 (Central Standard Time),275791.60000002384,029_m_f_n_a.png,O,m,605,1,1,1630.4000000953674,274161.1999999285,7087,NNB,B,10
11,test,3,0.0,1-Back,1,m,Wed Mar 05 2025 10:20:49 GMT-0600 (Central Standard Time),277557.7999999523,152_y_f_n_a.png,O,m,717,1,1,1744.6000000238419,275813.1999999285,7087,NNB,B,11
12,test,3,1.0,1-Back,1,z,Wed Mar 05 2025 10:20:49 GMT-0600 (Central Standard Time),279223.6999999285,152_y_f_n_a.png,O,z,621,1,1,1641.3999999761581,277582.2999999523,7087,NNB,B,12
13,test,3,0.0,1-Back,1,m,Wed Mar 05 2025 10:20:49 GMT-0600 (Central Standard Time),280906.60000002384,029_m_f_n_a.png,O,m,635,1,1,1659.4000000953674,279247.1999999285,7087,NNB,B,13
14,test,3,0.0,1-Back,1,m,Wed Mar 05 2025 10:20:49 GMT-0600 (Central Standard Time),282622.1999999285,126_m_m_n_a.png,O,m,680,1,1,1694.3999999761581,280927.7999999523,7087,NNB,B,14
15,test,3,1.0,1-Back,1,z,Wed Mar 05 2025 10:20:49 GMT-0600 (Central Standard Time),284222.0,126_m_m_n_a.png,O,z,564,1,1,1580.2000000476837,282641.7999999523,7087,NNB,B,15
16,test,3,0.0,1-Back,1,m,Wed Mar 05 2025 10:20:49 GMT-0600 (Central Standard Time),285904.7999999523,086_o_f_n_a.png,O,m,644,1,1,1662.2999999523163,284242.5,7087,NNB,B,16
17,test,3,1.0,1-Back,1,z,Wed Mar 05 2025 10:20:49 GMT-0600 (Central Standard Time),287620.7999999523,086_o_f_n_a.png,O,z,666,1,1,1697.1000000238419,285923.6999999285,7087,NNB,B,17
0,test,4,1.0,1-Back,,,Wed Mar 05 2025 10:20:49 GMT-0600 (Central Standard Time),287620.7999999523,097_m_f_n_a.png,O,space,3045,1,1,1697.1000000238419,285923.6999999285,7087,NNB,B,0
1,test,4,0.0,1-Back,1,m,Wed Mar 05 2025 10:20:49 GMT-0600 (Central Standard Time),294568.6999999285,065_o_m_n_a.png,O,m,720,2,1,1743.5,292825.1999999285,7087,NNB,B,1
2,test,4,0.0,1-Back,1,m,Wed Mar 05 2025 10:20:49 GMT-0600 (Central Standard Time),296618.10000002384,097_m_f_n_a.png,O,m,1008,3,1,2030.0,294588.10000002384,7087,NNB,B,2
3,test,4,0.0,1-Back,1,m,Wed Mar 05 2025 10:20:49 GMT-0600 (Central Standard Time),298350.89999997616,110_o_f_n_a.png,O,m,689,4,1,1716.1000000238419,296634.7999999523,7087,NNB,B,3
4,test,4,1.0,1-Back,1,z,Wed Mar 05 2025 10:20:49 GMT-0600 (Central Standard Time),299966.89999997616,110_o_f_n_a.png,O,z,572,5,1,1593.7000000476837,298373.1999999285,7087,NNB,B,4
5,test,4,0.0,1-Back,1,m,Wed Mar 05 2025 10:20:49 GMT-0600 (Central Standard Time),301599.6999999285,152_y_f_n_a.png,O,m,596,6,1,1613.7999999523163,299985.89999997616,7087,NNB,B,5
6,test,4,0.0,1-Back,1,m,Wed Mar 05 2025 10:20:49 GMT-0600 (Central Standard Time),303382.39999997616,153_y_m_n_a.png,O,m,739,7,1,1762.7000000476837,301619.6999999285,7087,NNB,B,6
7,test,4,1.0,1-Back,1,z,Wed Mar 05 2025 10:20:49 GMT-0600 (Central Standard Time),305148.5,153_y_m_n_a.png,O,z,724,8,1,1740.5,303408.0,7087,NNB,B,7
8,test,4,0.0,1-Back,1,m,Wed Mar 05 2025 10:20:49 GMT-0600 (Central Standard Time),307130.39999997616,152_y_f_n_a.png,O,m,928,9,1,1960.6000000238419,305169.7999999523,7087,NNB,B,8
9,test,4,0.0,1-Back,1,m,Wed Mar 05 2025 10:20:49 GMT-0600 (Central Standard Time),308846.7999999523,178_m_m_n_a.png,O,m,687,10,1,1712.1999999284744,307134.60000002384,7087,NNB,B,9
10,test,4,1.0,1-Back,1,z,Wed Mar 05 2025 10:20:49 GMT-0600 (Central Standard Time),310529.10000002384,178_m_m_n_a.png,O,z,647,11,1,1674.0,308855.10000002384,7087,NNB,B,10
11,test,4,0.0,1-Back,1,m,Wed Mar 05 2025 10:20:49 GMT-0600 (Central Standard Time),312213.0,086_o_f_n_a.png,O,m,657,12,1,1679.8000000715256,310533.1999999285,7087,NNB,B,11
12,test,4,0.0,1-Back,1,m,Wed Mar 05 2025 10:20:49 GMT-0600 (Central Standard Time),313945.6999999285,176_o_m_n_a.png,O,m,686,13,1,1709.7999999523163,312235.89999997616,7087,NNB,B,12
13,test,4,0.0,1-Back,1,m,Wed Mar 05 2025 10:20:49 GMT-0600 (Central Standard Time),315862.39999997616,086_o_f_n_a.png,O,m,882,14,1,1892.5,313969.89999997616,7087,NNB,B,13
14,test,4,0.0,1-Back,1,m,Wed Mar 05 2025 10:20:49 GMT-0600 (Central Standard Time),317594.5,173_y_f_n_a.png,O,m,685,15,1,1712.1000000238419,315882.39999997616,7087,NNB,B,14
15,test,4,1.0,1-Back,1,z,Wed Mar 05 2025 10:20:49 GMT-0600 (Central Standard Time),319193.89999997616,173_y_f_n_a.png,O,z,560,16,1,1573.1000000238419,317620.7999999523,7087,NNB,B,15
16,test,4,0.0,1-Back,1,m,Wed Mar 05 2025 10:20:49 GMT-0600 (Central Standard Time),320793.10000002384,029_m_f_n_a.png,O,m,562,17,1,1580.6000000238419,319212.5,7087,NNB,B,16
17,test,4,1.0,1-Back,1,z,Wed Mar 05 2025 10:20:49 GMT-0600 (Central Standard Time),322476.2999999523,029_m_f_n_a.png,O,z,634,18,1,1665.3999999761581,320810.89999997616,7087,NNB,B,17
0,test,5,1.0,1-Back,,,Wed Mar 05 2025 10:20:49 GMT-0600 (Central Standard Time),322476.2999999523,176_o_m_n_a.png,O,space,2862,1,1,1665.3999999761581,320810.89999997616,7087,NNB,B,0
1,test,5,1.0,1-Back,1,z,Wed Mar 05 2025 10:20:49 GMT-0600 (Central Standard Time),329157.7999999523,176_o_m_n_a.png,O,z,632,2,1,1663.7999999523163,327494.0,7087,NNB,B,1
2,test,5,0.0,1-Back,1,m,Wed Mar 05 2025 10:20:49 GMT-0600 (Central Standard Time),331040.0,152_y_f_n_a.png,O,m,845,3,1,1863.6000000238419,329176.39999997616,7087,NNB,B,2
3,test,5,0.0,1-Back,1,m,Wed Mar 05 2025 10:20:49 GMT-0600 (Central Standard Time),332806.0,153_y_m_n_a.png,O,m,730,4,1,1748.1000000238419,331057.89999997616,7087,NNB,B,3
4,test,5,0.0,1-Back,1,m,Wed Mar 05 2025 10:20:49 GMT-0600 (Central Standard Time),334555.5,152_y_f_n_a.png,O,m,701,5,1,1721.7000000476837,332833.7999999523,7087,NNB,B,4
5,test,5,0.0,1-Back,1,m,Wed Mar 05 2025 10:20:49 GMT-0600 (Central Standard Time),336421.5,126_m_m_n_a.png,O,m,823,6,1,1847.7000000476837,334573.7999999523,7087,NNB,B,5
6,test,5,1.0,1-Back,1,z,Wed Mar 05 2025 10:20:49 GMT-0600 (Central Standard Time),338020.1999999285,126_m_m_n_a.png,O,z,564,7,1,1578.5999999046326,336441.60000002384,7087,NNB,B,6
7,test,5,0.0,1-Back,1,m,Wed Mar 05 2025 10:20:49 GMT-0600 (Central Standard Time),339770.60000002384,173_y_f_n_a.png,O,m,718,8,1,1744.4000000953674,338026.1999999285,7087,NNB,B,7
8,test,5,0.0,1-Back,1,m,Wed Mar 05 2025 10:20:49 GMT-0600 (Central Standard Time),341503.39999997616,013_y_m_n_a.png,O,m,688,9,1,1709.1000000238419,339794.2999999523,7087,NNB,B,8
9,test,5,0.0,1-Back,1,m,Wed Mar 05 2025 10:20:49 GMT-0600 (Central Standard Time),343252.6999999285,173_y_f_n_a.png,O,m,708,10,1,1723.7999999523163,341528.89999997616,7087,NNB,B,9
10,test,5,0.0,1-Back,1,m,Wed Mar 05 2025 10:20:49 GMT-0600 (Central Standard Time),344902.10000002384,086_o_f_n_a.png,O,m,614,11,1,1628.4000000953674,343273.6999999285,7087,NNB,B,10
11,test,5,1.0,1-Back,1,z,Wed Mar 05 2025 10:20:49 GMT-0600 (Central Standard Time),346435.0,086_o_f_n_a.png,O,z,492,12,1,1514.5,344920.5,7087,NNB,B,11
12,test,5,0.0,1-Back,1,m,Wed Mar 05 2025 10:20:49 GMT-0600 (Central Standard Time),348134.1999999285,065_o_m_n_a.png,O,m,656,13,1,1681.1999999284744,346453.0,7087,NNB,B,12
13,test,5,0.0,1-Back,1,m,Wed Mar 05 2025 10:20:49 GMT-0600 (Central Standard Time),349833.7999999523,097_m_f_n_a.png,O,m,652,14,1,1674.7999999523163,348159.0,7087,NNB,B,13
14,test,5,1.0,1-Back,1,z,Wed Mar 05 2025 10:20:49 GMT-0600 (Central Standard Time),351416.6999999285,097_m_f_n_a.png,O,z,544,15,1,1561.5,349855.1999999285,7087,NNB,B,14
15,test,5,0.0,1-Back,1,m,Wed Mar 05 2025 10:20:49 GMT-0600 (Central Standard Time),353066.1999999285,065_o_m_n_a.png,O,m,610,16,1,1631.1999999284744,351435.0,7087,NNB,B,15
16,test,5,0.0,1-Back,1,m,Wed Mar 05 2025 10:20:49 GMT-0600 (Central Standard Time),354732.5,029_m_f_n_a.png,O,m,617,17,1,1646.1000000238419,353086.39999997616,7087,NNB,B,16
17,test,5,0.0,1-Back,1,m,Wed Mar 05 2025 10:20:49 GMT-0600 (Central Standard Time),356381.7999999523,178_m_m_n_a.png,O,m,607,18,1,1630.7999999523163,354751.0,7087,NNB,B,17
0,prac,1,0.0,2-Back,,,Wed Mar 05 2025 10:20:49 GMT-0600 (Central Standard Time),356381.7999999523,013_y_m_n_a.png,O,space,11370,1,1,1630.7999999523163,354751.0,7087,NNB,B,0
0,prac,1,0.0,2-Back,,,Wed Mar 05 2025 10:20:49 GMT-0600 (Central Standard Time),356381.7999999523,029_m_f_n_a.png,O,space,11370,2,1,1630.7999999523163,354751.0,7087,NNB,B,0
1,prac,1,1.0,2-Back,1,m,Wed Mar 05 2025 10:20:49 GMT-0600 (Central Standard Time),498385.0,065_o_m_n_a.png,O,m,1155,3,1,2070.7000000476837,496314.2999999523,7087,NNB,B,1
2,prac,1,0.0,2-Back,1,m,Wed Mar 05 2025 10:20:49 GMT-0600 (Central Standard Time),500768.0,086_o_f_n_a.png,O,m,1412,4,1,2372.899999976158,498395.10000002384,7087,NNB,B,2
3,prac,1,0.0,2-Back,1,z,Wed Mar 05 2025 10:20:49 GMT-0600 (Central Standard Time),502517.10000002384,065_o_m_n_a.png,O,z,788,5,1,1720.9000000953674,500796.1999999285,7087,NNB,B,3
4,prac,1,1.0,2-Back,1,z,Wed Mar 05 2025 10:20:49 GMT-0600 (Central Standard Time),504868.0,086_o_f_n_a.png,O,z,1375,6,1,2314.2000000476837,502553.7999999523,7087,NNB,B,4
5,prac,1,0.0,2-Back,1,m,Wed Mar 05 2025 10:20:49 GMT-0600 (Central Standard Time),506915.6999999285,178_m_m_n_a.png,O,m,1111,7,1,2021.2999999523163,504894.39999997616,7087,NNB,B,5
6,prac,1,0.0,2-Back,1,m,Wed Mar 05 2025 10:20:49 GMT-0600 (Central Standard Time),508998.6999999285,176_o_m_n_a.png,O,m,1149,8,1,2060.2999999523163,506938.39999997616,7087,NNB,B,6
7,prac,1,0.0,2-Back,1,m,Wed Mar 05 2025 10:20:49 GMT-0600 (Central Standard Time),510964.5,173_y_f_n_a.png,O,m,1036,9,1,1931.1000000238419,509033.39999997616,7087,NNB,B,7
8,prac,1,1.0,2-Back,1,z,Wed Mar 05 2025 10:20:49 GMT-0600 (Central Standard Time),512580.6999999285,176_o_m_n_a.png,O,z,817,10,1,1592.6999999284744,510988.0,7087,NNB,B,8
9,prac,1,0.0,2-Back,1,m,Wed Mar 05 2025 10:20:49 GMT-0600 (Central Standard Time),514631.6999999285,152_y_f_n_a.png,O,m,1122,11,1,2024.2999999523163,512607.39999997616,7087,NNB,B,9
9,prac,1,0.0,2-Back,0,m,Wed Mar 05 2025 10:20:49 GMT-0600 (Central Standard Time),516412.5,178_m_m_n_a.png,O,z,831,12,1,1752.2000000476837,514660.2999999523,7087,NNB,B,10
0,test,1,0.0,2-Back,,,Wed Mar 05 2025 10:20:49 GMT-0600 (Central Standard Time),516412.5,153_y_m_n_a.png,O,space,33082,1,1,1752.2000000476837,514660.2999999523,7087,NNB,B,0
0,test,1,0.0,2-Back,,,Wed Mar 05 2025 10:20:49 GMT-0600 (Central Standard Time),516412.5,153_y_m_n_a.png,O,space,33082,2,1,1752.2000000476837,514660.2999999523,7087,NNB,B,0
1,test,1,0.0,2-Back,1,m,Wed Mar 05 2025 10:20:49 GMT-0600 (Central Standard Time),562979.8999999762,086_o_f_n_a.png,O,m,929,3,1,1963.5,561016.3999999762,7087,NNB,B,1
2,test,1,0.0,2-Back,1,m,Wed Mar 05 2025 10:20:49 GMT-0600 (Central Standard Time),565097.0,126_m_m_n_a.png,O,m,1088,4,1,2112.7000000476837,562984.2999999523,7087,NNB,B,2
3,test,1,1.0,2-Back,1,z,Wed Mar 05 2025 10:20:49 GMT-0600 (Central Standard Time),567129.0,086_o_f_n_a.png,O,z,995,5,1,2013.2000000476837,565115.7999999523,7087,NNB,B,3
4,test,1,0.0,2-Back,1,m,Wed Mar 05 2025 10:20:49 GMT-0600 (Central Standard Time),569228.2999999523,152_y_f_n_a.png,O,m,1074,6,1,2089.1999999284744,567139.1000000238,7087,NNB,B,4
5,test,1,0.0,2-Back,1,m,Wed Mar 05 2025 10:20:49 GMT-0600 (Central Standard Time),571411.5,126_m_m_n_a.png,O,m,1152,7,1,2171.8000000715256,569239.6999999285,7087,NNB,B,5
6,test,1,1.0,2-Back,1,z,Wed Mar 05 2025 10:20:49 GMT-0600 (Central Standard Time),573260.5,152_y_f_n_a.png,O,z,807,8,1,1828.1000000238419,571432.3999999762,7087,NNB,B,6
7,test,1,0.0,2-Back,1,m,Wed Mar 05 2025 10:20:49 GMT-0600 (Central Standard Time),575410.1000000238,013_y_m_n_a.png,O,m,1103,9,1,2128.7000000476837,573281.3999999762,7087,NNB,B,7
8,test,1,0.0,2-Back,1,m,Wed Mar 05 2025 10:20:49 GMT-0600 (Central Standard Time),577509.3999999762,110_o_f_n_a.png,O,m,1058,10,1,2080.600000023842,575428.7999999523,7087,NNB,B,8
9,test,1,1.0,2-Back,1,z,Wed Mar 05 2025 10:20:49 GMT-0600 (Central Standard Time),579575.1000000238,013_y_m_n_a.png,O,z,1029,11,1,2043.5,577531.6000000238,7087,NNB,B,9
10,test,1,0.0,2-Back,1,m,Wed Mar 05 2025 10:20:49 GMT-0600 (Central Standard Time),581741.2999999523,029_m_f_n_a.png,O,m,1124,12,1,2147.399999976158,579593.8999999762,7087,NNB,B,10
11,test,1,0.0,2-Back,1,m,Wed Mar 05 2025 10:20:49 GMT-0600 (Central Standard Time),583940.2999999523,029_m_f_n_a.png,O,m,1158,13,1,2177.100000023842,581763.1999999285,7087,NNB,B,11
12,test,1,0.0,2-Back,1,m,Wed Mar 05 2025 10:20:49 GMT-0600 (Central Standard Time),586240.1000000238,065_o_m_n_a.png,O,m,1254,14,1,2282.600000023842,583957.5,7087,NNB,B,12
13,test,1,0.0,2-Back,1,m,Wed Mar 05 2025 10:20:49 GMT-0600 (Central Standard Time),588289.1999999285,110_o_f_n_a.png,O,m,1012,15,1,2031.1999999284744,586258.0,7087,NNB,B,13
14,test,1,1.0,2-Back,1,z,Wed Mar 05 2025 10:20:49 GMT-0600 (Central Standard Time),590105.0,065_o_m_n_a.png,O,z,762,16,1,1784.8000000715256,588320.1999999285,7087,NNB,B,14
15,test,1,0.0,2-Back,1,m,Wed Mar 05 2025 10:20:49 GMT-0600 (Central Standard Time),592254.5,097_m_f_n_a.png,O,m,1114,17,1,2130.399999976158,590124.1000000238,7087,NNB,B,15
16,test,1,0.0,2-Back,1,m,Wed Mar 05 2025 10:20:49 GMT-0600 (Central Standard Time),594286.2999999523,178_m_m_n_a.png,O,m,988,18,1,2012.2999999523163,592274.0,7087,NNB,B,16
0,test,2,0.0,2-Back,,,Wed Mar 05 2025 10:20:49 GMT-0600 (Central Standard Time),594286.2999999523,178_m_m_n_a.png,O,space,6662,1,1,2012.2999999523163,592274.0,7087,NNB,B,0
0,test,2,0.0,2-Back,,,Wed Mar 05 2025 10:20:49 GMT-0600 (Central Standard Time),594286.2999999523,173_y_f_n_a.png,O,space,6662,2,1,2012.2999999523163,592274.0,7087,NNB,B,0
1,test,2,1.0,2-Back,1,z,Wed Mar 05 2025 10:20:49 GMT-0600 (Central Standard Time),608182.7999999523,178_m_m_n_a.png,O,z,997,3,1,2013.0,606169.7999999523,7087,NNB,B,1
2,test,2,0.0,2-Back,1,m,Wed Mar 05 2025 10:20:49 GMT-0600 (Central Standard Time),610298.6000000238,097_m_f_n_a.png,O,m,1068,4,1,2097.600000023842,608201.0,7087,NNB,B,2
3,test,2,0.0,2-Back,1,m,Wed Mar 05 2025 10:20:49 GMT-0600 (Central Standard Time),612981.0,173_y_f_n_a.png,O,m,1641,5,1,2664.100000023842,610316.8999999762,7087,NNB,B,3
4,test,2,0.0,2-Back,1,m,Wed Mar 05 2025 10:20:49 GMT-0600 (Central Standard Time),615033.1999999285,065_o_m_n_a.png,O,m,1016,6,1,2034.5999999046326,612998.6000000238,7087,NNB,B,4
5,test,2,0.0,2-Back,1,m,Wed Mar 05 2025 10:20:49 GMT-0600 (Central Standard Time),617064.8999999762,152_y_f_n_a.png,O,m,996,7,1,2013.1000000238419,615051.7999999523,7087,NNB,B,5
6,test,2,1.0,2-Back,1,z,Wed Mar 05 2025 10:20:49 GMT-0600 (Central Standard Time),619212.1999999285,065_o_m_n_a.png,O,z,1099,8,1,2119.399999976158,617092.7999999523,7087,NNB,B,6
7,test,2,0.0,2-Back,1,m,Wed Mar 05 2025 10:20:49 GMT-0600 (Central Standard Time),621281.7999999523,013_y_m_n_a.png,O,m,1034,9,1,2042.1999999284744,619239.6000000238,7087,NNB,B,7
8,test,2,0.0,2-Back,1,m,Wed Mar 05 2025 10:20:49 GMT-0600 (Central Standard Time),623527.2999999523,013_y_m_n_a.png,O,m,1213,10,1,2227.100000023842,621300.1999999285,7087,NNB,B,8
8,test,2,0.0,2-Back,0,m,Wed Mar 05 2025 10:20:49 GMT-0600 (Central Standard Time),626578.5,029_m_f_n_a.png,O,None,2014,11,1,3028.3000000715256,623550.1999999285,7087,NNB,B,9
9,test,2,0.0,2-Back,1,m,Wed Mar 05 2025 10:20:49 GMT-0600 (Central Standard Time),628725.6999999285,173_y_f_n_a.png,O,m,1106,12,1,2134.5999999046326,626591.1000000238,7087,NNB,B,10
10,test,2,1.0,2-Back,1,z,Wed Mar 05 2025 10:20:49 GMT-0600 (Central Standard Time),630708.6999999285,029_m_f_n_a.png,O,z,959,13,1,1970.0999999046326,628738.6000000238,7087,NNB,B,11
11,test,2,0.0,2-Back,1,m,Wed Mar 05 2025 10:20:49 GMT-0600 (Central Standard Time),632658.1000000238,176_o_m_n_a.png,O,m,902,14,1,1929.7000000476837,630728.3999999762,7087,NNB,B,12
12,test,2,0.0,2-Back,1,m,Wed Mar 05 2025 10:20:49 GMT-0600 (Central Standard Time),634640.5,176_o_m_n_a.png,O,m,938,15,1,1961.3999999761581,632679.1000000238,7087,NNB,B,13
13,test,2,0.0,2-Back,1,m,Wed Mar 05 2025 10:20:49 GMT-0600 (Central Standard Time),636640.0,110_o_f_n_a.png,O,m,954,16,1,1975.1000000238419,634664.8999999762,7087,NNB,B,14
14,test,2,0.0,2-Back,1,m,Wed Mar 05 2025 10:20:49 GMT-0600 (Central Standard Time),638590.1000000238,126_m_m_n_a.png,O,m,915,17,1,1927.7000000476837,636662.3999999762,7087,NNB,B,15
15,test,2,1.0,2-Back,1,z,Wed Mar 05 2025 10:20:49 GMT-0600 (Central Standard Time),640438.7999999523,110_o_f_n_a.png,O,z,805,18,1,1826.5,638612.2999999523,7087,NNB,B,16
0,test,3,1.0,2-Back,,,Wed Mar 05 2025 10:20:49 GMT-0600 (Central Standard Time),640438.7999999523,153_y_m_n_a.png,O,space,7848,1,1,1826.5,638612.2999999523,7087,NNB,B,0
0,test,3,1.0,2-Back,,,Wed Mar 05 2025 10:20:49 GMT-0600 (Central Standard Time),640438.7999999523,153_y_m_n_a.png,O,space,7848,2,1,1826.5,638612.2999999523,7087,NNB,B,0
1,test,3,0.0,2-Back,1,m,Wed Mar 05 2025 10:20:49 GMT-0600 (Central Standard Time),655450.6000000238,110_o_f_n_a.png,O,m,952,3,1,1977.5,653473.1000000238,7087,NNB,B,1
2,test,3,0.0,2-Back,1,m,Wed Mar 05 2025 10:20:49 GMT-0600 (Central Standard Time),657333.1000000238,178_m_m_n_a.png,O,m,816,4,1,1848.3000000715256,655484.7999999523,7087,NNB,B,2
3,test,3,1.0,2-Back,1,z,Wed Mar 05 2025 10:20:49 GMT-0600 (Central Standard Time),659398.7999999523,110_o_f_n_a.png,O,z,1030,5,1,2046.2999999523163,657352.5,7087,NNB,B,3
4,test,3,0.0,2-Back,1,m,Wed Mar 05 2025 10:20:49 GMT-0600 (Central Standard Time),661481.6999999285,013_y_m_n_a.png,O,m,1060,6,1,2074.899999976158,659406.7999999523,7087,NNB,B,4
5,test,3,0.0,2-Back,1,m,Wed Mar 05 2025 10:20:49 GMT-0600 (Central Standard Time),664014.6999999285,178_m_m_n_a.png,O,m,1498,7,1,2513.7999999523163,661500.8999999762,7087,NNB,B,5
6,test,3,1.0,2-Back,1,z,Wed Mar 05 2025 10:20:49 GMT-0600 (Central Standard Time),665813.6999999285,013_y_m_n_a.png,O,z,749,8,1,1778.7999999523163,664034.8999999762,7087,NNB,B,6
7,test,3,0.0,2-Back,1,m,Wed Mar 05 2025 10:20:49 GMT-0600 (Central Standard Time),667779.6000000238,173_y_f_n_a.png,O,m,917,9,1,1945.9000000953674,665833.6999999285,7087,NNB,B,7
8,test,3,0.0,2-Back,1,m,Wed Mar 05 2025 10:20:49 GMT-0600 (Central Standard Time),669862.3999999762,126_m_m_n_a.png,O,m,1040,10,1,2059.399999976158,667803.0,7087,NNB,B,8
9,test,3,1.0,2-Back,1,z,Wed Mar 05 2025 10:20:49 GMT-0600 (Central Standard Time),671795.1999999285,173_y_f_n_a.png,O,z,884,11,1,1914.0,669881.1999999285,7087,NNB,B,9
9,test,3,1.0,2-Back,0,z,Wed Mar 05 2025 10:20:49 GMT-0600 (Central Standard Time),673677.5,126_m_m_n_a.png,O,m,838,12,1,1863.0,671814.5,7087,NNB,B,10
10,test,3,0.0,2-Back,1,m,Wed Mar 05 2025 10:20:49 GMT-0600 (Central Standard Time),675860.3999999762,110_o_f_n_a.png,O,m,1142,13,1,2165.399999976158,673695.0,7087,NNB,B,11
11,test,3,0.0,2-Back,1,m,Wed Mar 05 2025 10:20:49 GMT-0600 (Central Standard Time),677759.8999999762,097_m_f_n_a.png,O,m,855,14,1,1883.6000000238419,675876.2999999523,7087,NNB,B,12
12,test,3,0.0,2-Back,1,m,Wed Mar 05 2025 10:20:49 GMT-0600 (Central Standard Time),679858.8999999762,065_o_m_n_a.png,O,m,1051,15,1,2078.7000000476837,677780.1999999285,7087,NNB,B,13
13,test,3,1.0,2-Back,1,z,Wed Mar 05 2025 10:20:49 GMT-0600 (Central Standard Time),681841.0,097_m_f_n_a.png,O,z,935,16,1,1960.8000000715256,679880.1999999285,7087,NNB,B,14
14,test,3,0.0,2-Back,1,m,Wed Mar 05 2025 10:20:49 GMT-0600 (Central Standard Time),683824.2999999523,086_o_f_n_a.png,O,m,963,17,1,1977.1999999284744,681847.1000000238,7087,NNB,B,15
15,test,3,0.0,2-Back,1,m,Wed Mar 05 2025 10:20:49 GMT-0600 (Central Standard Time),686040.3999999762,086_o_f_n_a.png,O,m,1179,18,1,2196.0,683844.3999999762,7087,NNB,B,16
0,test,4,0.0,2-Back,,,Wed Mar 05 2025 10:20:49 GMT-0600 (Central Standard Time),686040.3999999762,176_o_m_n_a.png,O,space,4426,1,1,2196.0,683844.3999999762,7087,NNB,B,0
0,test,4,0.0,2-Back,,,Wed Mar 05 2025 10:20:49 GMT-0600 (Central Standard Time),686040.3999999762,152_y_f_n_a.png,O,space,4426,2,1,2196.0,683844.3999999762,7087,NNB,B,0
1,test,4,1.0,2-Back,1,z,Wed Mar 05 2025 10:20:49 GMT-0600 (Central Standard Time),697786.6999999285,176_o_m_n_a.png,O,z,919,3,1,1948.0,695838.6999999285,7087,NNB,B,1
2,test,4,1.0,2-Back,1,z,Wed Mar 05 2025 10:20:49 GMT-0600 (Central Standard Time),699835.7999999523,152_y_f_n_a.png,O,z,1009,4,1,2026.5,697809.2999999523,7087,NNB,B,2
3,test,4,0.0,2-Back,1,m,Wed Mar 05 2025 10:20:49 GMT-0600 (Central Standard Time),701768.6000000238,110_o_f_n_a.png,O,m,887,5,1,1913.3000000715256,699855.2999999523,7087,NNB,B,3
4,test,4,0.0,2-Back,1,m,Wed Mar 05 2025 10:20:49 GMT-0600 (Central Standard Time),704184.5,110_o_f_n_a.png,O,m,1371,6,1,2390.2000000476837,701794.2999999523,7087,NNB,B,4
5,test,4,0.0,2-Back,1,m,Wed Mar 05 2025 10:20:49 GMT-0600 (Central Standard Time),706233.6999999285,029_m_f_n_a.png,O,m,1003,7,1,2028.3999999761581,704205.2999999523,7087,NNB,B,5
6,test,4,0.0,2-Back,1,m,Wed Mar 05 2025 10:20:49 GMT-0600 (Central Standard Time),708466.3999999762,013_y_m_n_a.png,O,m,1186,8,1,2211.7999999523163,706254.6000000238,7087,NNB,B,6
7,test,4,1.0,2-Back,1,z,Wed Mar 05 2025 10:20:49 GMT-0600 (Central Standard Time),710415.2999999523,029_m_f_n_a.png,O,z,912,9,1,1927.5,708487.7999999523,7087,NNB,B,7
8,test,4,0.0,2-Back,1,m,Wed Mar 05 2025 10:20:49 GMT-0600 (Central Standard Time),712365.1999999285,126_m_m_n_a.png,O,m,924,10,1,1940.3999999761581,710424.7999999523,7087,NNB,B,8
9,test,4,0.0,2-Back,1,m,Wed Mar 05 2025 10:20:49 GMT-0600 (Central Standard Time),714481.1999999285,013_y_m_n_a.png,O,m,1078,11,1,2097.5,712383.6999999285,7087,NNB,B,9
10,test,4,0.0,2-Back,1,m,Wed Mar 05 2025 10:20:49 GMT-0600 (Central Standard Time),716580.5,086_o_f_n_a.png,O,m,1056,12,1,2079.399999976158,714501.1000000238,7087,NNB,B,10
11,test,4,0.0,2-Back,1,m,Wed Mar 05 2025 10:20:49 GMT-0600 (Central Standard Time),718496.3999999762,153_y_m_n_a.png,O,m,871,13,1,1894.7999999523163,716601.6000000238,7087,NNB,B,11
12,test,4,1.0,2-Back,1,z,Wed Mar 05 2025 10:20:49 GMT-0600 (Central Standard Time),720179.2999999523,086_o_f_n_a.png,O,z,636,14,1,1662.7999999523163,718516.5,7087,NNB,B,12
13,test,4,1.0,2-Back,1,z,Wed Mar 05 2025 10:20:49 GMT-0600 (Central Standard Time),722162.1000000238,153_y_m_n_a.png,O,z,936,15,1,1964.1000000238419,720198.0,7087,NNB,B,13
14,test,4,0.0,2-Back,1,m,Wed Mar 05 2025 10:20:49 GMT-0600 (Central Standard Time),724110.8999999762,178_m_m_n_a.png,O,m,914,16,1,1931.1000000238419,722179.7999999523,7087,NNB,B,14
15,test,4,0.0,2-Back,1,m,Wed Mar 05 2025 10:20:49 GMT-0600 (Central Standard Time),726077.3999999762,097_m_f_n_a.png,O,m,923,17,1,1949.1000000238419,724128.2999999523,7087,NNB,B,15
16,test,4,1.0,2-Back,1,z,Wed Mar 05 2025 10:20:49 GMT-0600 (Central Standard Time),728026.8999999762,178_m_m_n_a.png,O,z,919,18,1,1939.3999999761581,726087.5,7087,NNB,B,16
0,test,5,1.0,2-Back,,,Wed Mar 05 2025 10:20:49 GMT-0600 (Central Standard Time),728026.8999999762,153_y_m_n_a.png,O,space,4270,1,1,1939.3999999761581,726087.5,7087,NNB,B,0
0,test,5,1.0,2-Back,,,Wed Mar 05 2025 10:20:49 GMT-0600 (Central Standard Time),728026.8999999762,097_m_f_n_a.png,O,space,4270,2,1,1939.3999999761581,726087.5,7087,NNB,B,0
1,test,5,1.0,2-Back,1,z,Wed Mar 05 2025 10:20:49 GMT-0600 (Central Standard Time),739622.8999999762,153_y_m_n_a.png,O,z,930,3,1,1942.1000000238419,737680.7999999523,7087,NNB,B,1
2,test,5,1.0,2-Back,1,z,Wed Mar 05 2025 10:20:49 GMT-0600 (Central Standard Time),741588.7999999523,097_m_f_n_a.png,O,z,925,4,1,1943.3999999761581,739645.3999999762,7087,NNB,B,2
3,test,5,0.0,2-Back,1,m,Wed Mar 05 2025 10:20:49 GMT-0600 (Central Standard Time),743838.1000000238,086_o_f_n_a.png,O,m,1207,5,1,2231.2000000476837,741606.8999999762,7087,NNB,B,3
4,test,5,0.0,2-Back,1,m,Wed Mar 05 2025 10:20:49 GMT-0600 (Central Standard Time),746120.7999999523,153_y_m_n_a.png,O,m,1245,6,1,2262.6999999284744,743858.1000000238,7087,NNB,B,4
5,test,5,0.0,2-Back,1,m,Wed Mar 05 2025 10:20:49 GMT-0600 (Central Standard Time),748053.6000000238,173_y_f_n_a.png,O,m,894,7,1,1913.2000000476837,746140.3999999762,7087,NNB,B,5
5,test,5,0.0,2-Back,0,m,Wed Mar 05 2025 10:20:49 GMT-0600 (Central Standard Time),750602.2999999523,086_o_f_n_a.png,O,z,1501,8,1,2526.1999999284744,748076.1000000238,7087,NNB,B,6
6,test,5,1.0,2-Back,1,z,Wed Mar 05 2025 10:20:49 GMT-0600 (Central Standard Time),752651.8999999762,173_y_f_n_a.png,O,z,1025,9,1,2042.3999999761581,750609.5,7087,NNB,B,7
7,test,5,0.0,2-Back,1,m,Wed Mar 05 2025 10:20:49 GMT-0600 (Central Standard Time),754501.0,065_o_m_n_a.png,O,m,807,10,1,1828.2000000476837,752672.7999999523,7087,NNB,B,8
8,test,5,0.0,2-Back,1,m,Wed Mar 05 2025 10:20:49 GMT-0600 (Central Standard Time),756434.1000000238,029_m_f_n_a.png,O,m,903,11,1,1922.5,754511.6000000238,7087,NNB,B,9
9,test,5,0.0,2-Back,1,m,Wed Mar 05 2025 10:20:49 GMT-0600 (Central Standard Time),758465.7999999523,126_m_m_n_a.png,O,m,983,12,1,2011.5,756454.2999999523,7087,NNB,B,10
10,test,5,0.0,2-Back,1,m,Wed Mar 05 2025 10:20:49 GMT-0600 (Central Standard Time),761299.3999999762,065_o_m_n_a.png,O,m,1802,13,1,2829.7000000476837,758469.6999999285,7087,NNB,B,11
11,test,5,1.0,2-Back,1,z,Wed Mar 05 2025 10:20:49 GMT-0600 (Central Standard Time),763382.3999999762,126_m_m_n_a.png,O,z,1044,14,1,2062.399999976158,761320.0,7087,NNB,B,12
12,test,5,0.0,2-Back,1,m,Wed Mar 05 2025 10:20:49 GMT-0600 (Central Standard Time),765416.6999999285,152_y_f_n_a.png,O,m,1000,15,1,2017.1999999284744,763399.5,7087,NNB,B,13
13,test,5,0.0,2-Back,1,m,Wed Mar 05 2025 10:20:49 GMT-0600 (Central Standard Time),767530.5,176_o_m_n_a.png,O,m,1069,16,1,2094.7000000476837,765435.7999999523,7087,NNB,B,14
14,test,5,0.0,2-Back,1,m,Wed Mar 05 2025 10:20:49 GMT-0600 (Central Standard Time),769396.5,029_m_f_n_a.png,O,m,826,17,1,1844.0,767552.5,7087,NNB,B,15
15,test,5,1.0,2-Back,1,z,Wed Mar 05 2025 10:20:49 GMT-0600 (Central Standard Time),771262.6999999285,176_o_m_n_a.png,O,z,831,18,1,1841.7999999523163,769420.8999999762,7087,NNB,B,16
