acc_sum,block,block_c,condition,correct,correct_response,datetime,endtime,flanker,jitter,project,response,response_test_buffer_response,response_test_target_response,response_time,response_time_test_buffer_response,response_time_test_target_response,row_sel,session_number,start_end,starttime,subject_id,target,task,task_vers,time_test_buffer,time_test_buffer_response,time_test_constants,time_test_flanker,time_test_jitter,time_test_logger,time_test_target,time_test_target_response,time_test_variables,trial
0,prac,1,con,0,z,Thu Mar 27 2025 09:39:47 GMT-0500 (Central Daylight Time),101706.5,elated,800,O,None,,,1799,,,9,1,4934.79999999702,96771.70000000298,7102,elated,AF,A,,,,,,,,,,1
1,prac,1,con,1,m,Thu Mar 27 2025 09:39:47 GMT-0500 (Central Daylight Time),104547.90000000596,step,800,O,m,,,738,,,1,1,2836.2000000029802,101711.70000000298,7102,step,AF,A,,,,,,,,,,2
2,prac,1,con,1,m,Thu Mar 27 2025 09:39:47 GMT-0500 (Central Daylight Time),107296.90000000596,jacket,800,O,m,,,633,,,5,1,2744.2000000029802,104552.70000000298,7102,jacket,AF,A,,,,,,,,,,3
3,prac,1,con,1,z,Thu Mar 27 2025 09:39:47 GMT-0500 (Central Daylight Time),110112.90000000596,brutal,800,O,z,,,700,,,13,1,2811.2000000029802,107301.70000000298,7102,brutal,AF,A,,,,,,,,,,4
4,prac,1,inc,1,m,Thu Mar 27 2025 09:39:47 GMT-0500 (Central Daylight Time),113145.30000000447,brutal,1100,O,m,,,624,,,8,1,3022.89999999851,110122.40000000596,7102,window,AF,A,,,,,,,,,,5
5,prac,1,con,1,z,Thu Mar 27 2025 09:39:47 GMT-0500 (Central Daylight Time),116194.30000000447,love,1000,O,z,,,740,,,11,1,3044.2000000029802,113150.10000000149,7102,love,AF,A,,,,,,,,,,6
6,prac,1,inc,1,z,Thu Mar 27 2025 09:39:47 GMT-0500 (Central Daylight Time),119360.10000000149,napkin,1100,O,z,,,751,,,12,1,3160.89999999851,116199.20000000298,7102,friend,AF,A,,,,,,,,,,7
7,prac,1,inc,1,m,Thu Mar 27 2025 09:39:47 GMT-0500 (Central Daylight Time),122176.0,kind,900,O,m,,,610,,,2,1,2811.0999999940395,119364.90000000596,7102,rock,AF,A,,,,,,,,,,8
8,prac,1,inc,1,m,Thu Mar 27 2025 09:39:47 GMT-0500 (Central Daylight Time),125087.5,elated,900,O,m,,,664,,,6,1,2907.0,122180.5,7102,napkin,AF,A,,,,,,,,,,9
9,prac,1,con,1,m,Thu Mar 27 2025 09:39:47 GMT-0500 (Central Daylight Time),128174.0,remote,1000,O,m,,,777,,,7,1,3081.5999999940395,125092.40000000596,7102,remote,AF,A,,,,,,,,,,10
10,prac,1,con,1,m,Thu Mar 27 2025 09:39:47 GMT-0500 (Central Daylight Time),131106.70000000298,bell,1000,O,m,,,624,,,3,1,2927.60000000149,128179.10000000149,7102,bell,AF,A,,,,,,,,,,11
10,prac,1,con,0,z,Thu Mar 27 2025 09:39:47 GMT-0500 (Central Daylight Time),133988.90000000596,rage,1000,O,m,,,578,,,15,1,2878.10000000149,131110.80000000447,7102,rage,AF,A,,,,,,,,,,12
11,prac,1,inc,1,z,Thu Mar 27 2025 09:39:47 GMT-0500 (Central Daylight Time),137004.6000000015,film,900,O,z,,,813,,,14,1,3011.6999999955297,133992.90000000596,7102,hate,AF,A,,,,,,,,,,13
12,prac,1,inc,1,m,Thu Mar 27 2025 09:39:47 GMT-0500 (Central Daylight Time),140086.90000000596,hate,1100,O,m,,,676,,,4,1,3078.0,137008.90000000596,7102,film,AF,A,,,,,,,,,,14
13,prac,1,inc,1,z,Thu Mar 27 2025 09:39:47 GMT-0500 (Central Daylight Time),143069.40000000596,rock,900,O,z,,,779,,,10,1,2978.0,140091.40000000596,7102,kind,AF,A,,,,,,,,,,15
14,prac,1,inc,1,z,Thu Mar 27 2025 09:39:47 GMT-0500 (Central Daylight Time),146251.70000000298,window,1100,O,z,,,780,,,16,1,3178.10000000149,143073.6000000015,7102,temper,AF,A,,,,,,,,,,16
1,test,1,inc,1,m,Thu Mar 27 2025 09:39:47 GMT-0500 (Central Daylight Time),157164.90000000596,friend,1100,O,m,m,None,623,423.0,200.0,120,1,2262.4000000059605,154902.5,7102,remote,AF,A,149487,149487,147658,148771,147658,149920,149287,149287,149920,1
1,test,1,con,0,m,Thu Mar 27 2025 09:39:47 GMT-0500 (Central Daylight Time),159963.90000000596,jacket,1000,O,z,z,None,1264,1065.0,199.0,99,1,2794.3000000044703,157169.6000000015,7102,jacket,AF,A,151653,151653,149925,150937,149925,152719,151454,151454,152719,2
2,test,1,con,1,m,Thu Mar 27 2025 09:39:47 GMT-0500 (Central Daylight Time),162180.1000000015,window,1100,O,m,m,None,581,381.0,200.0,124,1,2212.0,159968.1000000015,7102,window,AF,A,154552,154553,152723,153836,152724,154935,154352,154352,154935,3
3,test,1,con,1,z,Thu Mar 27 2025 09:39:47 GMT-0500 (Central Daylight Time),164463.0,friend,1100,O,z,z,None,645,446.0,199.0,28,1,2278.5999999940395,162184.40000000596,7102,friend,AF,A,156768,156768,154939,156052,154940,157218,156568,156569,157218,4
4,test,1,con,1,m,Thu Mar 27 2025 09:39:47 GMT-0500 (Central Daylight Time),166728.6000000015,jacket,1100,O,m,m,None,627,427.0,200.0,100,1,2261.5,164467.1000000015,7102,jacket,AF,A,159051,159051,157222,158334,157223,159484,158851,158851,159484,5
5,test,1,con,1,m,Thu Mar 27 2025 09:39:47 GMT-0500 (Central Daylight Time),168894.6000000015,film,1100,O,m,m,None,520,321.0,199.0,92,1,2162.10000000149,166732.5,7102,film,AF,A,161317,161317,159488,160600,159488,161650,161117,161117,161650,6
6,test,1,inc,1,m,Thu Mar 27 2025 09:39:47 GMT-0500 (Central Daylight Time),170927.40000000596,brutal,900,O,m,m,None,595,395.0,200.0,102,1,2028.5,168898.90000000596,7102,jacket,AF,A,163283,163283,161654,162567,161654,163682,163083,163083,163682,7
7,test,1,con,1,m,Thu Mar 27 2025 09:39:47 GMT-0500 (Central Daylight Time),173026.80000000447,step,1100,O,m,m,None,450,251.0,199.0,68,1,2095.3000000044703,170931.5,7102,step,AF,A,165515,165515,163687,164799,163687,165782,165316,165316,165782,8
8,test,1,inc,1,m,Thu Mar 27 2025 09:39:47 GMT-0500 (Central Daylight Time),174992.6000000015,kind,900,O,m,m,None,525,326.0,199.0,94,1,1961.6999999955297,173030.90000000596,7102,film,AF,A,167415,167415,165786,166699,165786,167748,167215,167215,167748,9
9,test,1,inc,1,z,Thu Mar 27 2025 09:39:47 GMT-0500 (Central Daylight Time),177025.6000000015,napkin,900,O,z,z,None,592,393.0,199.0,62,1,2029.1000000014901,174996.5,7102,temper,AF,A,169381,169381,167752,168664,167752,169781,169181,169181,169781,10
10,test,1,inc,1,z,Thu Mar 27 2025 09:39:47 GMT-0500 (Central Daylight Time),179358.0,rock,900,O,z,z,None,895,696.0,199.0,46,1,2327.5,177030.5,7102,hate,AF,A,171414,171414,169786,170697,169786,172113,171214,171214,172113,11
11,test,1,inc,1,z,Thu Mar 27 2025 09:39:47 GMT-0500 (Central Daylight Time),181640.6000000015,bell,1000,O,z,z,None,742,543.0,199.0,15,1,2278.39999999851,179362.20000000298,7102,kind,AF,A,173846,173846,172117,173130,172118,174396,173647,173647,174396,12
12,test,1,con,1,z,Thu Mar 27 2025 09:39:47 GMT-0500 (Central Daylight Time),183939.70000000298,love,1000,O,z,z,None,765,565.0,200.0,19,1,2295.10000000149,181644.6000000015,7102,love,AF,A,176129,176129,174400,175412,174400,176695,175929,175929,176695,13
13,test,1,inc,1,m,Thu Mar 27 2025 09:39:47 GMT-0500 (Central Daylight Time),185822.70000000298,elated,800,O,m,m,None,546,346.0,200.0,125,1,1878.3999999985099,183944.30000000447,7102,window,AF,A,178228,178228,176699,177512,176700,178578,178028,178028,178578,14
14,test,1,inc,1,m,Thu Mar 27 2025 09:39:47 GMT-0500 (Central Daylight Time),187988.70000000298,love,1000,O,m,m,None,631,431.0,200.0,71,1,2161.89999999851,185826.80000000447,7102,step,AF,A,180311,180311,178582,179594,178582,180744,180111,180111,180744,15
15,test,1,con,1,m,Thu Mar 27 2025 09:39:47 GMT-0500 (Central Daylight Time),190204.6000000015,napkin,800,O,m,m,None,873,673.0,200.0,105,1,2211.60000000149,187993.0,7102,napkin,AF,A,182277,182277,180748,181560,180748,182960,182077,182077,182960,16
16,test,1,con,1,m,Thu Mar 27 2025 09:39:47 GMT-0500 (Central Daylight Time),192437.30000000447,jacket,900,O,m,m,None,796,597.0,199.0,98,1,2228.39999999851,190208.90000000596,7102,jacket,AF,A,184593,184593,182964,183876,182964,185192,184393,184393,185192,17
17,test,1,inc,1,z,Thu Mar 27 2025 09:39:47 GMT-0500 (Central Daylight Time),194820.90000000596,bell,1000,O,z,z,None,849,649.0,200.0,55,1,2379.60000000149,192441.30000000447,7102,rage,AF,A,186925,186925,185196,186209,185197,187576,186725,186725,187576,18
18,test,1,con,1,m,Thu Mar 27 2025 09:39:47 GMT-0500 (Central Daylight Time),196969.20000000298,step,1000,O,m,m,None,552,352.0,200.0,67,1,2144.10000000149,194825.1000000015,7102,step,AF,A,189358,189358,187580,188650,187580,189724,189158,189158,189724,19
19,test,1,inc,1,m,Thu Mar 27 2025 09:39:47 GMT-0500 (Central Daylight Time),199185.20000000298,kind,900,O,m,m,None,767,552.0,215.0,78,1,2212.2000000029802,196973.0,7102,rock,AF,A,191374,191374,189728,190641,189728,191940,191159,191159,191940,20
20,test,1,inc,1,z,Thu Mar 27 2025 09:39:47 GMT-0500 (Central Daylight Time),201384.6000000015,jacket,800,O,z,z,None,859,660.0,199.0,61,1,2195.10000000149,199189.5,7102,temper,AF,A,193474,193474,191945,192757,191945,194140,193274,193274,194140,21
21,test,1,con,1,z,Thu Mar 27 2025 09:39:47 GMT-0500 (Central Daylight Time),203650.5,hate,900,O,z,z,None,824,625.0,199.0,42,1,2259.5999999940395,201390.90000000596,7102,hate,AF,A,195773,195773,194146,195056,194147,196406,195573,195573,196405,22
22,test,1,inc,1,z,Thu Mar 27 2025 09:39:47 GMT-0500 (Central Daylight Time),205716.5,step,800,O,z,z,None,729,530.0,199.0,53,1,2062.1999999955297,203654.30000000447,7102,rage,AF,A,197939,197939,196409,197222,196410,198472,197739,197739,198471,23
23,test,1,inc,1,z,Thu Mar 27 2025 09:39:47 GMT-0500 (Central Daylight Time),208148.70000000298,remote,1000,O,z,z,None,888,688.0,200.0,31,1,2428.2000000029802,205720.5,7102,friend,AF,A,200205,200205,198476,199488,198476,200904,200004,200004,200904,24
24,test,1,inc,1,z,Thu Mar 27 2025 09:39:47 GMT-0500 (Central Daylight Time),210464.90000000596,film,1100,O,z,z,None,668,468.0,200.0,48,1,2312.2000000029802,208152.70000000298,7102,hate,AF,A,202737,202737,200908,202022,200908,203220,202537,202537,203220,25
25,test,1,con,1,m,Thu Mar 27 2025 09:39:47 GMT-0500 (Central Daylight Time),212881.20000000298,bell,1000,O,m,m,None,877,677.0,200.0,83,1,2412.10000000149,210469.1000000015,7102,bell,AF,A,204953,204953,203224,204237,203225,205636,204753,204753,205636,26
26,test,1,con,1,m,Thu Mar 27 2025 09:39:47 GMT-0500 (Central Daylight Time),215080.30000000447,remote,1000,O,m,m,None,653,453.0,200.0,115,1,2195.2000000029802,212885.1000000015,7102,remote,AF,A,207369,207369,205640,206653,205640,207835,207169,207169,207835,27
27,test,1,inc,1,z,Thu Mar 27 2025 09:39:47 GMT-0500 (Central Daylight Time),217163.1000000015,step,800,O,z,z,None,740,541.0,199.0,45,1,2078.89999999851,215084.20000000298,7102,hate,AF,A,209368,209368,207839,208652,207839,209918,209169,209169,209918,28
28,test,1,con,1,z,Thu Mar 27 2025 09:39:47 GMT-0500 (Central Daylight Time),219440.1000000015,brutal,900,O,z,z,None,844,644.0,200.0,34,1,2273.10000000149,217167.0,7102,brutal,AF,A,211551,211551,209922,210835,209922,212195,211351,211351,212195,29
29,test,1,inc,1,m,Thu Mar 27 2025 09:39:47 GMT-0500 (Central Daylight Time),221795.0,hate,1100,O,m,m,None,724,524.0,200.0,88,1,2350.0999999940395,219444.90000000596,7102,bell,AF,A,214017,214017,212200,213302,212200,214550,213817,213817,214550,30
30,test,1,inc,1,m,Thu Mar 27 2025 09:39:47 GMT-0500 (Central Daylight Time),223944.20000000298,love,1000,O,m,m,None,611,411.0,200.0,87,1,2145.39999999851,221798.80000000447,7102,bell,AF,A,216283,216283,214554,215566,214554,216699,216083,216083,216699,31
31,test,1,inc,1,m,Thu Mar 27 2025 09:39:47 GMT-0500 (Central Daylight Time),226376.6000000015,friend,1100,O,m,m,None,793,593.0,200.0,112,1,2428.5,223948.1000000015,7102,napkin,AF,A,218532,218532,216703,217816,216704,219132,218332,218332,219131,32
32,test,1,con,1,m,Thu Mar 27 2025 09:39:47 GMT-0500 (Central Daylight Time),228492.6000000015,bell,800,O,m,m,None,772,573.0,199.0,81,1,2111.89999999851,226380.70000000298,7102,bell,AF,A,220665,220665,219136,219948,219136,221248,220465,220465,221248,33
33,test,1,inc,1,z,Thu Mar 27 2025 09:39:47 GMT-0500 (Central Daylight Time),230658.80000000447,remote,1000,O,z,z,None,631,432.0,199.0,39,1,2162.10000000149,228496.70000000298,7102,brutal,AF,A,222981,222981,221252,222264,221252,223414,222781,222781,223414,34
34,test,1,con,1,m,Thu Mar 27 2025 09:39:47 GMT-0500 (Central Daylight Time),232724.70000000298,rock,900,O,m,m,None,623,423.0,200.0,74,1,2062.10000000149,230662.6000000015,7102,rock,AF,A,225047,225047,223418,224330,223418,225480,224847,224847,225480,35
35,test,1,con,1,z,Thu Mar 27 2025 09:39:47 GMT-0500 (Central Daylight Time),235340.6000000015,temper,1000,O,z,z,None,1073,873.0,200.0,59,1,2612.0,232728.6000000015,7102,temper,AF,A,227213,227213,225484,226496,225484,228096,227013,227013,228096,36
36,test,1,con,1,z,Thu Mar 27 2025 09:39:47 GMT-0500 (Central Daylight Time),237723.0,kind,1000,O,z,z,None,841,642.0,199.0,11,1,2378.5,235344.5,7102,kind,AF,A,229828,229828,228100,229112,228100,230478,229629,229629,230478,37
37,test,1,inc,1,z,Thu Mar 27 2025 09:39:47 GMT-0500 (Central Daylight Time),240238.80000000447,window,1100,O,z,z,None,879,679.0,200.0,32,1,2512.0,237726.80000000447,7102,friend,AF,A,232311,232311,230482,231595,230482,232994,232111,232111,232994,38
38,test,1,inc,1,z,Thu Mar 27 2025 09:39:47 GMT-0500 (Central Daylight Time),242438.30000000447,rock,900,O,z,z,None,755,555.0,200.0,22,1,2195.5,240242.80000000447,7102,love,AF,A,234627,234627,232998,233911,232998,235193,234427,234427,235193,39
39,test,1,con,1,m,Thu Mar 27 2025 09:39:47 GMT-0500 (Central Daylight Time),244937.6000000015,step,800,O,m,m,None,1151,951.0,200.0,65,1,2495.0,242442.6000000015,7102,step,AF,A,236726,236726,235198,236010,235198,237693,236526,236526,237692,40
40,test,1,inc,1,m,Thu Mar 27 2025 09:39:47 GMT-0500 (Central Daylight Time),247086.70000000298,love,1000,O,m,m,None,611,412.0,199.0,79,1,2145.39999999851,244941.30000000447,7102,rock,AF,A,239426,239426,237696,238709,237697,239842,239226,239226,239842,41
41,test,1,con,1,z,Thu Mar 27 2025 09:39:47 GMT-0500 (Central Daylight Time),249302.90000000596,love,800,O,z,z,None,871,671.0,200.0,17,1,2212.10000000149,247090.80000000447,7102,love,AF,A,241375,241375,239846,240659,239846,242058,241175,241175,242058,42
42,test,1,inc,1,m,Thu Mar 27 2025 09:39:47 GMT-0500 (Central Daylight Time),251435.5,elated,800,O,m,m,None,791,591.0,200.0,101,1,2127.7999999970198,249307.70000000298,7102,jacket,AF,A,243591,243591,242063,242875,242063,244191,243391,243391,244190,43
43,test,1,inc,1,z,Thu Mar 27 2025 09:39:47 GMT-0500 (Central Daylight Time),253684.5,napkin,900,O,z,z,None,813,614.0,199.0,38,1,2245.0999999940395,251439.40000000596,7102,brutal,AF,A,245823,245824,244194,245107,244195,246440,245624,245624,246440,44
44,test,1,con,1,m,Thu Mar 27 2025 09:39:47 GMT-0500 (Central Daylight Time),256467.30000000447,film,900,O,m,m,None,1341,1141.0,200.0,90,1,2778.89999999851,253688.40000000596,7102,film,AF,A,248073,248073,246443,247356,246444,249222,247873,247873,249222,45
45,test,1,con,1,z,Thu Mar 27 2025 09:39:47 GMT-0500 (Central Daylight Time),258866.6000000015,friend,1000,O,z,z,None,859,659.0,200.0,27,1,2395.60000000149,256471.0,7102,friend,AF,A,250955,250955,249226,250239,249226,251622,250755,250755,251622,46
46,test,1,inc,1,z,Thu Mar 27 2025 09:39:47 GMT-0500 (Central Daylight Time),261082.5,step,800,O,z,z,None,865,666.0,199.0,21,1,2211.6999999955297,258870.80000000447,7102,love,AF,A,253155,253155,251626,252438,251626,253838,252955,252955,253838,47
46,test,1,inc,0,z,Thu Mar 27 2025 09:39:47 GMT-0500 (Central Daylight Time),263898.1000000015,window,1100,O,m,m,None,1175,975.0,200.0,64,1,2811.7999999970198,261086.30000000447,7102,temper,AF,A,255671,255671,253841,254954,253842,256653,255470,255470,256653,48
47,test,1,con,1,z,Thu Mar 27 2025 09:39:47 GMT-0500 (Central Daylight Time),266376.200000003,kind,1100,O,z,z,None,860,645.0,215.0,12,1,2474.2999999970198,263901.90000000596,7102,kind,AF,A,258486,258486,256657,257770,256657,259131,258271,258271,259131,49
48,test,1,con,1,z,Thu Mar 27 2025 09:39:47 GMT-0500 (Central Daylight Time),268446.6000000015,temper,900,O,z,z,None,644,445.0,199.0,58,1,2066.7999999970198,266379.80000000447,7102,temper,AF,A,260752,260752,259135,260036,259135,261202,260553,260553,261202,50
49,test,1,inc,1,m,Thu Mar 27 2025 09:39:47 GMT-0500 (Central Daylight Time),270812.700000003,hate,1100,O,m,m,None,723,523.0,200.0,96,1,2362.0,268450.700000003,7102,film,AF,A,263035,263035,261206,262320,261206,263568,262835,262835,263568,51
50,test,1,inc,1,m,Thu Mar 27 2025 09:39:47 GMT-0500 (Central Daylight Time),273112.0,friend,1100,O,m,m,None,652,453.0,199.0,128,1,2295.5,270816.5,7102,window,AF,A,265401,265401,263572,264684,263572,265867,265201,265201,265867,52
51,test,1,con,1,z,Thu Mar 27 2025 09:39:47 GMT-0500 (Central Daylight Time),275161.40000000596,hate,800,O,z,z,None,702,502.0,200.0,41,1,2045.4000000059605,273116.0,7102,hate,AF,A,267400,267400,265871,266684,265871,267916,267200,267200,267916,53
52,test,1,con,1,z,Thu Mar 27 2025 09:39:47 GMT-0500 (Central Daylight Time),277827.30000000447,love,1100,O,z,z,None,1016,817.0,199.0,20,1,2662.10000000149,275165.200000003,7102,love,AF,A,269749,269749,267920,269033,267921,270582,269550,269550,270582,54
53,test,1,inc,1,m,Thu Mar 27 2025 09:39:47 GMT-0500 (Central Daylight Time),280026.200000003,rage,800,O,m,m,None,857,658.0,199.0,77,1,2194.5,277831.700000003,7102,rock,AF,A,272115,272115,270587,271399,270587,272781,271916,271916,272781,55
54,test,1,con,1,z,Thu Mar 27 2025 09:39:47 GMT-0500 (Central Daylight Time),282725.6000000015,love,900,O,z,z,None,1262,1063.0,199.0,18,1,2695.2999999970198,280030.30000000447,7102,love,AF,A,274415,274415,272785,273699,272786,275481,274215,274215,275481,56
55,test,1,inc,1,z,Thu Mar 27 2025 09:39:47 GMT-0500 (Central Daylight Time),285041.80000000447,remote,1000,O,z,z,None,767,568.0,199.0,63,1,2312.0,282729.80000000447,7102,temper,AF,A,277214,277214,275485,276497,275485,277797,277015,277015,277797,57
56,test,1,con,1,z,Thu Mar 27 2025 09:39:47 GMT-0500 (Central Daylight Time),287307.40000000596,kind,900,O,z,z,None,846,632.0,214.0,10,1,2261.9000000059605,285045.5,7102,kind,AF,A,279430,279430,277801,278713,277801,280062,279215,279215,280062,58
57,test,1,con,1,m,Thu Mar 27 2025 09:39:47 GMT-0500 (Central Daylight Time),289540.30000000447,remote,800,O,m,m,None,889,690.0,199.0,113,1,2228.89999999851,287311.40000000596,7102,remote,AF,A,281596,281596,280066,280881,280067,282295,281396,281396,282295,59
58,test,1,con,1,z,Thu Mar 27 2025 09:39:47 GMT-0500 (Central Daylight Time),291572.90000000596,elated,800,O,z,z,None,697,498.0,199.0,1,1,2028.8000000044703,289544.1000000015,7102,elated,AF,A,283828,283828,282299,283112,282299,284328,283629,283629,284328,60
59,test,1,con,1,m,Thu Mar 27 2025 09:39:47 GMT-0500 (Central Daylight Time),294572.0,napkin,1000,O,m,m,None,1457,1257.0,200.0,107,1,2995.39999999851,291576.6000000015,7102,napkin,AF,A,286061,286061,284332,285345,284332,287327,285861,285861,287327,61
60,test,1,con,1,m,Thu Mar 27 2025 09:39:47 GMT-0500 (Central Daylight Time),296771.0,remote,900,O,m,m,None,765,566.0,199.0,114,1,2194.5999999940395,294576.40000000596,7102,remote,AF,A,288960,288960,287331,288244,287332,289526,288761,288761,289526,62
61,test,1,inc,1,z,Thu Mar 27 2025 09:39:47 GMT-0500 (Central Daylight Time),299087.1000000015,napkin,900,O,z,z,None,878,679.0,199.0,6,1,2312.10000000149,296775.0,7102,elated,AF,A,291159,291159,289530,290443,289530,291842,290960,290960,291842,63
62,test,1,con,1,z,Thu Mar 27 2025 09:39:47 GMT-0500 (Central Daylight Time),301403.30000000447,elated,1000,O,z,z,None,767,567.0,200.0,3,1,2312.3000000044703,299091.0,7102,elated,AF,A,293575,293575,291846,292859,291846,294158,293375,293375,294158,64
63,test,1,con,1,m,Thu Mar 27 2025 09:39:47 GMT-0500 (Central Daylight Time),303519.40000000596,film,800,O,m,m,None,779,579.0,200.0,89,1,2112.4000000059605,301407.0,7102,film,AF,A,295691,295691,294162,294975,294162,296274,295491,295491,296274,65
64,test,1,inc,1,z,Thu Mar 27 2025 09:39:47 GMT-0500 (Central Daylight Time),305801.90000000596,remote,1000,O,z,z,None,743,543.0,200.0,7,1,2278.8000000044703,303523.1000000015,7102,elated,AF,A,298007,298007,296278,297291,296278,298557,297807,297807,298557,66
65,test,1,con,1,z,Thu Mar 27 2025 09:39:47 GMT-0500 (Central Daylight Time),308151.200000003,temper,1100,O,z,z,None,712,512.0,200.0,60,1,2345.2999999970198,305805.90000000596,7102,temper,AF,A,300390,300390,298561,299674,298561,300906,300190,300190,300906,67
66,test,1,inc,1,z,Thu Mar 27 2025 09:39:47 GMT-0500 (Central Daylight Time),310516.90000000596,rock,900,O,z,z,None,931,731.0,200.0,14,1,2362.10000000149,308154.80000000447,7102,kind,AF,A,302539,302539,300910,301823,300910,303272,302339,302339,303272,68
67,test,1,inc,1,m,Thu Mar 27 2025 09:39:47 GMT-0500 (Central Daylight Time),312999.5,rage,800,O,m,m,None,1144,944.0,200.0,93,1,2478.5999999940395,310520.90000000596,7102,film,AF,A,304805,304805,303276,304089,303276,305755,304605,304605,305755,69
68,test,1,inc,1,z,Thu Mar 27 2025 09:39:47 GMT-0500 (Central Daylight Time),314998.80000000447,step,800,O,z,z,None,653,454.0,199.0,13,1,1995.3999999985099,313003.40000000596,7102,kind,AF,A,307288,307288,305758,306571,305759,307754,307088,307088,307754,70
69,test,1,con,1,z,Thu Mar 27 2025 09:39:47 GMT-0500 (Central Daylight Time),317348.200000003,hate,1100,O,z,z,None,707,507.0,200.0,44,1,2345.5,315002.700000003,7102,hate,AF,A,309587,309587,307758,308871,307758,310103,309387,309387,310103,71
70,test,1,con,1,m,Thu Mar 27 2025 09:39:47 GMT-0500 (Central Daylight Time),319380.80000000447,window,800,O,m,m,None,697,497.0,200.0,121,1,2028.6000000014901,317352.200000003,7102,window,AF,A,311636,311636,310107,310920,310108,312136,311436,311436,312136,72
71,test,1,inc,1,z,Thu Mar 27 2025 09:39:47 GMT-0500 (Central Daylight Time),321530.40000000596,rock,900,O,z,z,None,700,500.0,200.0,54,1,2145.7000000029802,319384.700000003,7102,rage,AF,A,313769,313769,312140,313053,312140,314286,313569,313569,314285,73
72,test,1,inc,1,z,Thu Mar 27 2025 09:39:47 GMT-0500 (Central Daylight Time),323862.700000003,film,1100,O,z,z,None,695,496.0,199.0,16,1,2328.39999999851,321534.30000000447,7102,kind,AF,A,316118,316118,314289,315402,314290,316618,315919,315919,316618,74
73,test,1,con,1,z,Thu Mar 27 2025 09:39:47 GMT-0500 (Central Daylight Time),325912.0,kind,800,O,z,z,None,701,502.0,199.0,9,1,2045.6999999955297,323866.30000000447,7102,kind,AF,A,318151,318151,316621,317435,316622,318667,317951,317951,318667,75
74,test,1,inc,1,m,Thu Mar 27 2025 09:39:47 GMT-0500 (Central Daylight Time),328394.90000000596,kind,900,O,m,m,None,1042,842.0,200.0,70,1,2478.7000000029802,325916.200000003,7102,step,AF,A,320300,320300,318671,319584,318672,321150,320100,320100,321150,76
75,test,1,con,1,z,Thu Mar 27 2025 09:39:47 GMT-0500 (Central Daylight Time),330810.90000000596,rage,1100,O,z,z,None,782,583.0,199.0,52,1,2412.0,328398.90000000596,7102,rage,AF,A,322983,322983,321154,322266,321154,323566,322783,322783,323566,77
76,test,1,inc,1,m,Thu Mar 27 2025 09:39:47 GMT-0500 (Central Daylight Time),333359.80000000447,kind,900,O,m,m,None,1103,903.0,200.0,86,1,2545.3000000044703,330814.5,7102,bell,AF,A,325199,325199,323570,324482,323570,326115,324999,324999,326115,78
77,test,1,con,1,m,Thu Mar 27 2025 09:39:47 GMT-0500 (Central Daylight Time),335475.5,napkin,900,O,m,m,None,682,482.0,200.0,106,1,2111.89999999851,333363.6000000015,7102,napkin,AF,A,327748,327748,326119,327032,326119,328231,327548,327548,328231,79
78,test,1,con,1,z,Thu Mar 27 2025 09:39:47 GMT-0500 (Central Daylight Time),337741.90000000596,friend,800,O,z,z,None,799,597.0,202.0,25,1,2262.7000000029802,335479.200000003,7102,friend,AF,A,329897,329897,328234,329047,328235,330497,329695,329695,330497,80
79,test,1,con,1,z,Thu Mar 27 2025 09:39:47 GMT-0500 (Central Daylight Time),340024.5,elated,900,O,z,z,None,835,636.0,199.0,2,1,2278.6999999955297,337745.80000000447,7102,elated,AF,A,332130,332130,330501,331414,330501,332780,331931,331931,332780,81
80,test,1,inc,1,z,Thu Mar 27 2025 09:39:47 GMT-0500 (Central Daylight Time),342190.40000000596,jacket,800,O,z,z,None,820,621.0,199.0,37,1,2161.8000000044703,340028.6000000015,7102,brutal,AF,A,334312,334313,332784,333596,332784,334946,334113,334113,334945,82
81,test,1,con,1,m,Thu Mar 27 2025 09:39:47 GMT-0500 (Central Daylight Time),344206.40000000596,window,1000,O,m,m,None,470,271.0,199.0,123,1,2012.3000000044703,342194.1000000015,7102,window,AF,A,336679,336679,334949,335962,334950,336961,336479,336479,336961,83
82,test,1,con,1,z,Thu Mar 27 2025 09:39:47 GMT-0500 (Central Daylight Time),346539.1000000015,brutal,1000,O,z,z,None,783,584.0,199.0,35,1,2327.10000000149,344212.0,7102,brutal,AF,A,338694,338694,336967,337978,336968,339294,338495,338495,339294,84
83,test,1,inc,1,m,Thu Mar 27 2025 09:39:47 GMT-0500 (Central Daylight Time),348872.700000003,temper,1000,O,m,m,None,786,586.0,200.0,111,1,2329.7000000029802,346543.0,7102,napkin,AF,A,341027,341027,339298,340311,339298,341628,340827,340827,341628,85
84,test,1,inc,1,z,Thu Mar 27 2025 09:39:47 GMT-0500 (Central Daylight Time),351654.30000000447,film,1100,O,z,z,None,1137,938.0,199.0,24,1,2777.7000000029802,348876.6000000015,7102,love,AF,A,343460,343460,341632,342743,341632,344409,343260,343260,344409,86
85,test,1,con,1,m,Thu Mar 27 2025 09:39:47 GMT-0500 (Central Daylight Time),354003.200000003,rock,1000,O,m,m,None,815,616.0,199.0,75,1,2345.2999999970198,351657.90000000596,7102,rock,AF,A,346142,346142,344413,345426,344413,346758,345943,345943,346758,87
86,test,1,inc,1,m,Thu Mar 27 2025 09:39:47 GMT-0500 (Central Daylight Time),356552.80000000447,friend,1100,O,m,m,None,926,711.0,215.0,104,1,2545.89999999851,354006.90000000596,7102,jacket,AF,A,348591,348591,346762,347875,346762,349308,348376,348376,349308,88
87,test,1,con,1,z,Thu Mar 27 2025 09:39:47 GMT-0500 (Central Daylight Time),359118.700000003,friend,900,O,z,z,None,1121,922.0,199.0,26,1,2562.39999999851,356556.30000000447,7102,friend,AF,A,350940,350940,349311,350224,349312,351874,350741,350741,351874,89
88,test,1,inc,1,z,Thu Mar 27 2025 09:39:47 GMT-0500 (Central Daylight Time),361350.90000000596,bell,1000,O,z,z,None,700,495.0,205.0,23,1,2228.60000000149,359122.30000000447,7102,love,AF,A,353607,353607,351877,352890,351878,354106,353401,353401,354106,90
89,test,1,con,1,m,Thu Mar 27 2025 09:39:47 GMT-0500 (Central Daylight Time),363733.6000000015,napkin,1100,O,m,m,None,739,539.0,200.0,108,1,2378.7999999970198,361354.80000000447,7102,napkin,AF,A,355939,355939,354110,355223,354110,356489,355739,355739,356489,91
90,test,1,inc,1,m,Thu Mar 27 2025 09:39:47 GMT-0500 (Central Daylight Time),366132.80000000447,brutal,900,O,m,m,None,955,756.0,199.0,118,1,2395.3000000044703,363737.5,7102,remote,AF,A,358122,358122,356493,357405,356493,358888,357922,357922,358888,92
91,test,1,inc,1,m,Thu Mar 27 2025 09:39:47 GMT-0500 (Central Daylight Time),368482.1000000015,love,1000,O,m,m,None,800,600.0,200.0,95,1,2345.5,366136.6000000015,7102,film,AF,A,360621,360621,358892,359905,358892,361237,360421,360421,361237,93
92,test,1,con,1,m,Thu Mar 27 2025 09:39:47 GMT-0500 (Central Daylight Time),370914.6000000015,rock,1100,O,m,m,None,784,584.0,200.0,76,1,2428.60000000149,368486.0,7102,rock,AF,A,363070,363070,361241,362354,361241,363670,362870,362870,363670,94
93,test,1,inc,1,m,Thu Mar 27 2025 09:39:47 GMT-0500 (Central Daylight Time),373380.700000003,hate,1100,O,m,m,None,823,623.0,200.0,80,1,2462.39999999851,370918.30000000447,7102,rock,AF,A,365503,365503,363673,364786,363674,366136,365303,365303,366136,95
94,test,1,inc,1,z,Thu Mar 27 2025 09:39:47 GMT-0500 (Central Daylight Time),375613.200000003,jacket,800,O,z,z,None,889,689.0,200.0,5,1,2228.2999999970198,373384.90000000596,7102,elated,AF,A,367669,367669,366140,366952,366140,368368,367469,367469,368368,96
95,test,1,con,1,z,Thu Mar 27 2025 09:39:47 GMT-0500 (Central Daylight Time),377679.1000000015,rage,800,O,z,z,None,720,521.0,199.0,49,1,2062.1999999955297,375616.90000000596,7102,rage,AF,A,369901,369901,368372,369186,368372,370434,369702,369702,370434,97
96,test,1,inc,1,m,Thu Mar 27 2025 09:39:47 GMT-0500 (Central Daylight Time),379946.5,hate,1100,O,m,m,None,619,419.0,200.0,72,1,2263.2999999970198,377683.200000003,7102,step,AF,A,372267,372267,370438,371551,370439,372702,372067,372067,372701,98
97,test,1,inc,1,z,Thu Mar 27 2025 09:39:47 GMT-0500 (Central Daylight Time),382294.6000000015,bell,1000,O,z,z,None,803,604.0,199.0,47,1,2344.39999999851,379950.200000003,7102,hate,AF,A,374434,374434,372705,373717,372706,375050,374234,374234,375050,99
98,test,1,inc,1,z,Thu Mar 27 2025 09:39:47 GMT-0500 (Central Daylight Time),384560.6000000015,napkin,900,O,z,z,None,819,539.0,280.0,30,1,2262.1999999955297,382298.40000000596,7102,friend,AF,A,376763,376763,375053,375966,375054,377316,376483,376483,377316,100
99,test,1,inc,1,m,Thu Mar 27 2025 09:39:47 GMT-0500 (Central Daylight Time),386843.200000003,brutal,900,O,m,m,None,832,633.0,199.0,126,1,2278.89999999851,384564.30000000447,7102,window,AF,A,378949,378949,377319,378232,377320,379598,378749,378749,379598,101
100,test,1,inc,1,m,Thu Mar 27 2025 09:39:47 GMT-0500 (Central Daylight Time),389059.0,temper,1000,O,m,m,None,682,483.0,199.0,119,1,2212.1999999955297,386846.80000000447,7102,remote,AF,A,381331,381331,379602,380615,379602,381814,381132,381132,381814,102
101,test,1,con,1,z,Thu Mar 27 2025 09:39:47 GMT-0500 (Central Daylight Time),391358.30000000447,hate,1000,O,z,z,None,755,555.0,200.0,43,1,2295.7000000029802,389062.6000000015,7102,hate,AF,A,383547,383547,381818,382831,381818,384113,383347,383347,384113,103
102,test,1,con,1,m,Thu Mar 27 2025 09:39:47 GMT-0500 (Central Daylight Time),393824.30000000447,film,1000,O,m,m,None,919,720.0,199.0,91,1,2462.2000000029802,391362.1000000015,7102,film,AF,A,385846,385846,384117,385130,384117,386579,385647,385647,386579,104
103,test,1,con,1,m,Thu Mar 27 2025 09:39:47 GMT-0500 (Central Daylight Time),395873.6000000015,jacket,800,O,m,m,None,700,501.0,199.0,97,1,2045.6000000014901,393828.0,7102,jacket,AF,A,388112,388112,386583,387396,386583,388629,387913,387913,388628,105
104,test,1,con,1,m,Thu Mar 27 2025 09:39:47 GMT-0500 (Central Daylight Time),397906.30000000447,rock,800,O,m,m,None,691,492.0,199.0,73,1,2028.8999999985099,395877.40000000596,7102,rock,AF,A,390162,390162,388632,389445,388633,390661,389962,389962,390661,106
105,test,1,inc,1,m,Thu Mar 27 2025 09:39:47 GMT-0500 (Central Daylight Time),399906.80000000447,elated,800,O,m,m,None,649,434.0,215.0,109,1,1996.5,397910.30000000447,7102,napkin,AF,A,392211,392211,390665,391478,390666,392662,391996,391996,392662,107
106,test,1,con,1,m,Thu Mar 27 2025 09:39:47 GMT-0500 (Central Daylight Time),402488.30000000447,remote,1100,O,m,m,None,936,736.0,200.0,116,1,2577.7000000029802,399910.6000000015,7102,remote,AF,A,394494,394494,392666,393777,392666,395243,394294,394294,395243,108
107,test,1,con,1,m,Thu Mar 27 2025 09:39:47 GMT-0500 (Central Daylight Time),404570.80000000447,step,900,O,m,m,None,641,442.0,199.0,66,1,2078.7000000029802,402492.1000000015,7102,step,AF,A,396876,396876,395247,396160,395248,397326,396677,396677,397326,109
107,test,1,inc,0,z,Thu Mar 27 2025 09:39:47 GMT-0500 (Central Daylight Time),407186.700000003,jacket,800,O,m,m,None,1267,1067.0,200.0,29,1,2612.0,404574.700000003,7102,friend,AF,A,398859,398859,397330,398143,397330,399942,398659,398659,399942,110
108,test,1,inc,1,m,Thu Mar 27 2025 09:39:47 GMT-0500 (Central Daylight Time),409452.6000000015,temper,1000,O,m,m,None,731,531.0,200.0,127,1,2261.7999999970198,407190.80000000447,7102,window,AF,A,401675,401675,399946,400958,399946,402208,401475,401475,402208,111
109,test,1,con,1,z,Thu Mar 27 2025 09:39:47 GMT-0500 (Central Daylight Time),411435.5,brutal,800,O,z,z,None,641,441.0,200.0,33,1,1979.2999999970198,409456.200000003,7102,brutal,AF,A,403741,403741,402211,403024,402211,404191,403541,403541,404191,112
110,test,1,con,1,z,Thu Mar 27 2025 09:39:47 GMT-0500 (Central Daylight Time),413836.0,rage,1000,O,z,z,None,850,651.0,199.0,51,1,2396.5999999940395,411439.40000000596,7102,rage,AF,A,405923,405923,404194,405208,404195,406591,405724,405724,406591,113
111,test,1,inc,1,m,Thu Mar 27 2025 09:39:47 GMT-0500 (Central Daylight Time),416000.80000000447,rage,800,O,m,m,None,826,627.0,199.0,85,1,2161.0,413839.80000000447,7102,bell,AF,A,408123,408123,406595,407406,406595,408756,407923,407923,408756,114
112,test,1,inc,1,z,Thu Mar 27 2025 09:39:47 GMT-0500 (Central Daylight Time),418316.40000000596,window,1100,O,z,z,None,673,473.0,200.0,8,1,2312.0,416004.40000000596,7102,elated,AF,A,410589,410589,408759,409872,408760,411072,410389,410389,411071,115
113,test,1,con,1,z,Thu Mar 27 2025 09:39:47 GMT-0500 (Central Daylight Time),421048.90000000596,brutal,1100,O,z,z,None,1084,885.0,199.0,36,1,2728.60000000149,418320.30000000447,7102,brutal,AF,A,412905,412905,411075,412188,411076,413804,412705,412705,413804,116
114,test,1,inc,1,m,Thu Mar 27 2025 09:39:47 GMT-0500 (Central Daylight Time),423598.200000003,temper,1000,O,m,m,None,1005,805.0,200.0,103,1,2544.89999999851,421053.30000000447,7102,jacket,AF,A,415537,415537,413808,414821,413808,416353,415337,415337,416353,117
115,test,1,con,1,z,Thu Mar 27 2025 09:39:47 GMT-0500 (Central Daylight Time),426497.40000000596,elated,1100,O,z,z,None,1260,1060.0,200.0,4,1,2895.5,423601.90000000596,7102,elated,AF,A,418186,418186,416357,417470,416357,419253,417986,417986,419252,118
116,test,1,inc,1,m,Thu Mar 27 2025 09:39:47 GMT-0500 (Central Daylight Time),428680.0,rage,800,O,m,m,None,844,645.0,199.0,69,1,2178.6999999955297,426501.30000000447,7102,step,AF,A,420785,420785,419256,420069,419257,421435,420586,420586,421435,119
117,test,1,inc,1,z,Thu Mar 27 2025 09:39:47 GMT-0500 (Central Daylight Time),431237.5,film,1100,O,z,z,None,778,578.0,200.0,56,1,2553.6999999955297,428683.80000000447,7102,rage,AF,A,423268,423268,421439,422551,421439,423993,423068,423068,423993,120
118,test,1,con,1,z,Thu Mar 27 2025 09:39:47 GMT-0500 (Central Daylight Time),433395.200000003,temper,800,O,z,z,None,832,617.0,215.0,57,1,2153.2999999970198,431241.90000000596,7102,temper,AF,A,425517,425517,423997,424801,423997,426150,425302,425302,426150,121
119,test,1,inc,1,z,Thu Mar 27 2025 09:39:47 GMT-0500 (Central Daylight Time),435611.0,window,1100,O,z,z,None,575,375.0,200.0,40,1,2212.0999999940395,433398.90000000596,7102,brutal,AF,A,427983,427983,426154,427266,426154,428366,427783,427783,428366,122
120,test,1,inc,1,m,Thu Mar 27 2025 09:39:47 GMT-0500 (Central Daylight Time),437693.700000003,brutal,900,O,m,m,None,639,439.0,200.0,110,1,2078.89999999851,435614.80000000447,7102,napkin,AF,A,429999,429999,428370,429283,428370,430449,429799,429799,430449,123
121,test,1,con,1,z,Thu Mar 27 2025 09:39:47 GMT-0500 (Central Daylight Time),439993.0,rage,900,O,z,z,None,852,652.0,200.0,50,1,2295.39999999851,437697.6000000015,7102,rage,AF,A,432082,432082,430453,431366,430453,432748,431882,431882,432748,124
122,test,1,con,1,m,Thu Mar 27 2025 09:39:47 GMT-0500 (Central Daylight Time),442259.200000003,window,900,O,m,m,None,825,625.0,200.0,122,1,2262.10000000149,439997.1000000015,7102,window,AF,A,434381,434381,432752,433665,432752,435014,434181,434181,435014,125
123,test,1,con,1,m,Thu Mar 27 2025 09:39:47 GMT-0500 (Central Daylight Time),444875.80000000447,bell,1100,O,m,m,None,967,767.0,200.0,84,1,2612.89999999851,442262.90000000596,7102,bell,AF,A,436847,436847,435018,436131,435018,437631,436647,436647,437631,126
124,test,1,inc,1,m,Thu Mar 27 2025 09:39:47 GMT-0500 (Central Daylight Time),447140.80000000447,elated,800,O,m,m,None,930,730.0,200.0,117,1,2261.3000000044703,444879.5,7102,remote,AF,A,439163,439163,437635,438446,437635,439896,438963,438963,439896,127
125,test,1,con,1,m,Thu Mar 27 2025 09:39:47 GMT-0500 (Central Daylight Time),449306.90000000596,bell,900,O,m,m,None,733,533.0,200.0,82,1,2162.3000000044703,447144.6000000015,7102,bell,AF,A,441529,441529,439900,440813,439900,442062,441329,441329,442062,128
