block_c,block_dur,condition,countdown,datetime,endtime,list,multichar_response,project,response,response_time,session_number,start_end,starttime,subject_id,task,task_vers,trial
,,,,Fri Feb 21 2025 16:34:47 GMT-0600 (Central Standard Time),,,,O,space,780,1,,,7062,WL,A,
prac,,0,,Fri Feb 21 2025 16:34:47 GMT-0600 (Central Standard Time),,NA,b,O,b,4191,1,,,7062,WL,A,1.0
prac,,0,,Fri Feb 21 2025 16:34:47 GMT-0600 (Central Standard Time),,NA,bo,O,o,316,1,,,7062,WL,A,1.0
prac,,0,,Fri Feb 21 2025 16:34:47 GMT-0600 (Central Standard Time),,NA,boo,O,o,134,1,,,7062,WL,A,1.0
prac,,0,,Fri Feb 21 2025 16:34:47 GMT-0600 (Central Standard Time),,NA,boos,O,s,145,1,,,7062,WL,A,1.0
prac,,0,,Fri Feb 21 2025 16:34:47 GMT-0600 (Central Standard Time),,NA,boost,O,t,195,1,,,7062,WL,A,1.0
prac,,0,,Fri Feb 21 2025 16:34:47 GMT-0600 (Central Standard Time),,NA,boostenter,O,enter,1698,1,,,7062,WL,A,1.0
1,6.749000072479248,learn,53250.99992752075,Fri Feb 21 2025 16:34:47 GMT-0600 (Central Standard Time),157347.80000000075,A,b,O,b,6730,1,6748.0,150599.80000000075,7062,WL,A,1.0
1,7.898000001907349,learn,52101.99999809265,Fri Feb 21 2025 16:34:47 GMT-0600 (Central Standard Time),158497.19999999925,A,bo,O,o,1132,1,7897.39999999851,150599.80000000075,7062,WL,A,1.0
1,8.065000057220459,learn,51934.99994277954,Fri Feb 21 2025 16:34:47 GMT-0600 (Central Standard Time),158663.69999999925,A,boo,O,o,144,1,8063.89999999851,150599.80000000075,7062,WL,A,1.0
1,8.281000137329102,learn,51718.9998626709,Fri Feb 21 2025 16:34:47 GMT-0600 (Central Standard Time),158880.19999999925,A,book,O,k,210,1,8280.39999999851,150599.80000000075,7062,WL,A,1.0
1,8.79800009727478,learn,51201.99990272522,Fri Feb 21 2025 16:34:47 GMT-0600 (Central Standard Time),159397.0,A,bookenter,O,enter,497,1,8797.199999999255,150599.80000000075,7062,WL,A,1.0
1,9.94700002670288,learn,50052.99997329712,Fri Feb 21 2025 16:34:47 GMT-0600 (Central Standard Time),160546.3999999985,A,t,O,t,1141,1,1148.8999999985099,159397.5,7062,WL,A,2.0
1,10.164000034332275,learn,49835.999965667725,Fri Feb 21 2025 16:34:47 GMT-0600 (Central Standard Time),160762.8999999985,A,tr,O,r,207,1,1365.3999999985099,159397.5,7062,WL,A,2.0
1,10.414000034332275,learn,49585.999965667725,Fri Feb 21 2025 16:34:47 GMT-0600 (Central Standard Time),161013.0,A,tra,O,a,239,1,1615.5,159397.5,7062,WL,A,2.0
1,10.597000122070312,learn,49402.99987792969,Fri Feb 21 2025 16:34:47 GMT-0600 (Central Standard Time),161196.19999999925,A,trai,O,i,173,1,1798.699999999255,159397.5,7062,WL,A,2.0
1,10.730999946594238,learn,49269.00005340576,Fri Feb 21 2025 16:34:47 GMT-0600 (Central Standard Time),161329.59999999776,A,train,O,n,125,1,1932.0999999977648,159397.5,7062,WL,A,2.0
1,11.180000066757202,learn,48819.9999332428,Fri Feb 21 2025 16:34:47 GMT-0600 (Central Standard Time),161779.5,A,trainenter,O,enter,439,1,2382.0,159397.5,7062,WL,A,2.0
1,12.11299991607666,learn,47887.00008392334,Fri Feb 21 2025 16:34:47 GMT-0600 (Central Standard Time),162712.3999999985,A,r,O,r,918,1,932.3999999985099,161780.0,7062,WL,A,3.0
1,12.480000019073486,learn,47519.999980926514,Fri Feb 21 2025 16:34:47 GMT-0600 (Central Standard Time),163079.0,A,ru,O,u,345,1,1299.0,161780.0,7062,WL,A,3.0
1,12.713000059127808,learn,47286.99994087219,Fri Feb 21 2025 16:34:47 GMT-0600 (Central Standard Time),163312.19999999925,A,rug,O,g,227,1,1532.199999999255,161780.0,7062,WL,A,3.0
1,13.095999956130981,learn,46904.00004386902,Fri Feb 21 2025 16:34:47 GMT-0600 (Central Standard Time),163695.3999999985,A,rugenter,O,enter,378,1,1915.3999999985099,161780.0,7062,WL,A,3.0
1,13.845999956130981,learn,46154.00004386902,Fri Feb 21 2025 16:34:47 GMT-0600 (Central Standard Time),164445.19999999925,A,f,O,f,738,1,749.5,163695.69999999925,7062,WL,A,4.0
1,14.042999982833862,learn,45957.00001716614,Fri Feb 21 2025 16:34:47 GMT-0600 (Central Standard Time),164642.0,A,fl,O,l,191,1,946.3000000007451,163695.69999999925,7062,WL,A,4.0
1,14.246000051498413,learn,45753.99994850159,Fri Feb 21 2025 16:34:47 GMT-0600 (Central Standard Time),164844.8999999985,A,flo,O,o,183,1,1149.199999999255,163695.69999999925,7062,WL,A,4.0
1,14.463000059127808,learn,45536.99994087219,Fri Feb 21 2025 16:34:47 GMT-0600 (Central Standard Time),165062.09999999776,A,flow,O,w,204,1,1366.3999999985099,163695.69999999925,7062,WL,A,4.0
1,14.663000106811523,learn,45336.99989318848,Fri Feb 21 2025 16:34:47 GMT-0600 (Central Standard Time),165261.8999999985,A,flowe,O,e,187,1,1566.199999999255,163695.69999999925,7062,WL,A,4.0
1,14.845999956130981,learn,45154.00004386902,Fri Feb 21 2025 16:34:47 GMT-0600 (Central Standard Time),165444.8999999985,A,flower,O,r,164,1,1749.199999999255,163695.69999999925,7062,WL,A,4.0
1,15.296000003814697,learn,44703.9999961853,Fri Feb 21 2025 16:34:47 GMT-0600 (Central Standard Time),165894.8999999985,A,flowerenter,O,enter,429,1,2199.199999999255,163695.69999999925,7062,WL,A,4.0
1,15.980000019073486,learn,44019.999980926514,Fri Feb 21 2025 16:34:47 GMT-0600 (Central Standard Time),166579.0,A,k,O,k,666,1,683.6000000014901,165895.3999999985,7062,WL,A,5.0
1,16.312000036239624,learn,43687.999963760376,Fri Feb 21 2025 16:34:47 GMT-0600 (Central Standard Time),166911.30000000075,A,ke,O,e,311,1,1015.9000000022352,165895.3999999985,7062,WL,A,5.0
1,16.644999980926514,learn,43355.000019073486,Fri Feb 21 2025 16:34:47 GMT-0600 (Central Standard Time),167244.30000000075,A,key,O,y,315,1,1348.9000000022352,165895.3999999985,7062,WL,A,5.0
1,18.075999975204468,learn,41924.00002479553,Fri Feb 21 2025 16:34:47 GMT-0600 (Central Standard Time),168677.30000000075,A,keyenter,O,enter,1413,1,2781.900000002235,165895.3999999985,7062,WL,A,5.0
1,19.026000022888184,learn,40973.99997711182,Fri Feb 21 2025 16:34:47 GMT-0600 (Central Standard Time),169627.0,A,m,O,m,932,1,949.1000000014901,168677.8999999985,7062,WL,A,6.0
1,19.325999975204468,learn,40674.00002479553,Fri Feb 21 2025 16:34:47 GMT-0600 (Central Standard Time),169926.80000000075,A,me,O,e,279,1,1248.9000000022352,168677.8999999985,7062,WL,A,6.0
1,19.575999975204468,learn,40424.00002479553,Fri Feb 21 2025 16:34:47 GMT-0600 (Central Standard Time),170176.80000000075,A,mea,O,a,235,1,1498.9000000022352,168677.8999999985,7062,WL,A,6.0
1,20.125,learn,39875.0,Fri Feb 21 2025 16:34:47 GMT-0600 (Central Standard Time),170726.59999999776,A,mead,O,d,537,1,2048.699999999255,168677.8999999985,7062,WL,A,6.0
1,20.358999967575073,learn,39641.00003242493,Fri Feb 21 2025 16:34:47 GMT-0600 (Central Standard Time),170960.0,A,meado,O,o,219,1,2282.10000000149,168677.8999999985,7062,WL,A,6.0
1,20.658999919891357,learn,39341.00008010864,Fri Feb 21 2025 16:34:47 GMT-0600 (Central Standard Time),171259.80000000075,A,meadow,O,w,282,1,2581.900000002235,168677.8999999985,7062,WL,A,6.0
1,23.225000143051147,learn,36774.99985694885,Fri Feb 21 2025 16:34:47 GMT-0600 (Central Standard Time),173825.69999999925,A,meadowenter,O,enter,2558,1,5147.800000000745,168677.8999999985,7062,WL,A,6.0
1,37.437000036239624,learn,22562.999963760376,Fri Feb 21 2025 16:34:47 GMT-0600 (Central Standard Time),188038.0,A,g,O,g,14191,1,14211.900000002235,173826.09999999776,7062,WL,A,7.0
1,37.97000002861023,learn,22029.99997138977,Fri Feb 21 2025 16:34:47 GMT-0600 (Central Standard Time),188571.09999999776,A,go,O,o,522,1,14745.0,173826.09999999776,7062,WL,A,7.0
1,38.22000002861023,learn,21779.99997138977,Fri Feb 21 2025 16:34:47 GMT-0600 (Central Standard Time),188821.0,A,gol,O,l,231,1,14994.900000002235,173826.09999999776,7062,WL,A,7.0
1,38.62000012397766,learn,21379.99987602234,Fri Feb 21 2025 16:34:47 GMT-0600 (Central Standard Time),189220.8999999985,A,gold,O,d,381,1,15394.800000000745,173826.09999999776,7062,WL,A,7.0
1,38.97000002861023,learn,21029.99997138977,Fri Feb 21 2025 16:34:47 GMT-0600 (Central Standard Time),189570.69999999925,A,goldenter,O,enter,333,1,15744.60000000149,173826.09999999776,7062,WL,A,7.0
1,60.01300001144409,learn,-13.000011444091797,Fri Feb 21 2025 16:34:47 GMT-0600 (Central Standard Time),210614.09999999776,A,None,O,None,21038,1,21043.0,189571.09999999776,7062,WL,A,8.0
2,1.2990000247955322,learn,58700.99997520447,Fri Feb 21 2025 16:34:47 GMT-0600 (Central Standard Time),281725.09999999776,A,a,O,a,1281,1,1298.8999999985099,280426.19999999925,7062,WL,A,1.0
2,1.7160000801086426,learn,58283.99991989136,Fri Feb 21 2025 16:34:47 GMT-0600 (Central Standard Time),282141.80000000075,A,ap,O,p,396,1,1715.6000000014901,280426.19999999925,7062,WL,A,1.0
2,1.9790000915527344,learn,58020.999908447266,Fri Feb 21 2025 16:34:47 GMT-0600 (Central Standard Time),282405.30000000075,A,app,O,p,257,1,1979.1000000014901,280426.19999999925,7062,WL,A,1.0
2,2.127000093460083,learn,57872.99990653992,Fri Feb 21 2025 16:34:47 GMT-0600 (Central Standard Time),282553.5,A,appl,O,l,142,1,2127.300000000745,280426.19999999925,7062,WL,A,1.0
2,2.3320000171661377,learn,57667.99998283386,Fri Feb 21 2025 16:34:47 GMT-0600 (Central Standard Time),282758.09999999776,A,apple,O,e,183,1,2331.89999999851,280426.19999999925,7062,WL,A,1.0
2,4.131999969482422,learn,55868.00003051758,Fri Feb 21 2025 16:34:47 GMT-0600 (Central Standard Time),284557.80000000075,A,appleenter,O,enter,1780,1,4131.60000000149,280426.19999999925,7062,WL,A,1.0
2,5.164999961853027,learn,54835.00003814697,Fri Feb 21 2025 16:34:47 GMT-0600 (Central Standard Time),285591.0,A,s,O,s,1012,1,1032.699999999255,284558.30000000075,7062,WL,A,2.0
2,5.364000082015991,learn,54635.99991798401,Fri Feb 21 2025 16:34:47 GMT-0600 (Central Standard Time),285790.59999999776,A,sa,O,a,179,1,1232.2999999970198,284558.30000000075,7062,WL,A,2.0
2,5.514000177383423,learn,54485.99982261658,Fri Feb 21 2025 16:34:47 GMT-0600 (Central Standard Time),285940.69999999925,A,sal,O,l,140,1,1382.3999999985099,284558.30000000075,7062,WL,A,2.0
2,5.781000137329102,learn,54218.9998626709,Fri Feb 21 2025 16:34:47 GMT-0600 (Central Standard Time),286207.3999999985,A,salt,O,t,253,1,1649.0999999977648,284558.30000000075,7062,WL,A,2.0
2,6.264000177383423,learn,53735.99982261658,Fri Feb 21 2025 16:34:47 GMT-0600 (Central Standard Time),286690.30000000075,A,saltc,O,c,475,1,2132.0,284558.30000000075,7062,WL,A,2.0
2,6.498000144958496,learn,53501.999855041504,Fri Feb 21 2025 16:34:47 GMT-0600 (Central Standard Time),286923.8999999985,A,saltch,O,h,224,1,2365.599999997765,284558.30000000075,7062,WL,A,2.0
2,7.446000099182129,learn,52553.99990081787,Fri Feb 21 2025 16:34:47 GMT-0600 (Central Standard Time),287873.3999999985,A,saltc,O,backspace,934,1,3315.099999997765,284558.30000000075,7062,WL,A,2.0
2,8.045000076293945,learn,51954.999923706055,Fri Feb 21 2025 16:34:47 GMT-0600 (Central Standard Time),288473.19999999925,A,salt,O,backspace,592,1,3914.89999999851,284558.30000000075,7062,WL,A,2.0
2,8.828999996185303,learn,51171.0000038147,Fri Feb 21 2025 16:34:47 GMT-0600 (Central Standard Time),289256.59999999776,A,saltenter,O,enter,769,1,4698.29999999702,284558.30000000075,7062,WL,A,2.0
2,10.07800006866455,learn,49921.99993133545,Fri Feb 21 2025 16:34:47 GMT-0600 (Central Standard Time),290505.8999999985,A,c,O,c,1242,1,1249.0,289256.8999999985,7062,WL,A,3.0
2,10.261000156402588,learn,49738.99984359741,Fri Feb 21 2025 16:34:47 GMT-0600 (Central Standard Time),290689.09999999776,A,ch,O,h,176,1,1432.199999999255,289256.8999999985,7062,WL,A,3.0
2,10.628000020980835,learn,49371.999979019165,Fri Feb 21 2025 16:34:47 GMT-0600 (Central Standard Time),291055.69999999925,A,chi,O,i,353,1,1798.800000000745,289256.8999999985,7062,WL,A,3.0
2,10.811000108718872,learn,49188.99989128113,Fri Feb 21 2025 16:34:47 GMT-0600 (Central Standard Time),291239.19999999925,A,chim,O,m,179,1,1982.300000000745,289256.8999999985,7062,WL,A,3.0
2,11.226999998092651,learn,48773.00000190735,Fri Feb 21 2025 16:34:47 GMT-0600 (Central Standard Time),291655.30000000075,A,chimn,O,n,411,1,2398.400000002235,289256.8999999985,7062,WL,A,3.0
2,11.444000005722046,learn,48555.999994277954,Fri Feb 21 2025 16:34:47 GMT-0600 (Central Standard Time),291872.09999999776,A,chimne,O,e,203,1,2615.199999999255,289256.8999999985,7062,WL,A,3.0
2,11.611000061035156,learn,48388.999938964844,Fri Feb 21 2025 16:34:47 GMT-0600 (Central Standard Time),292038.59999999776,A,chimney,O,y,154,1,2781.699999999255,289256.8999999985,7062,WL,A,3.0
2,12.16100001335144,learn,47838.99998664856,Fri Feb 21 2025 16:34:47 GMT-0600 (Central Standard Time),292588.59999999776,A,chimneyenter,O,enter,540,1,3331.699999999255,289256.8999999985,7062,WL,A,3.0
2,13.327000141143799,learn,46672.9998588562,Fri Feb 21 2025 16:34:47 GMT-0600 (Central Standard Time),293754.8999999985,A,l,O,l,1150,1,1165.8999999985099,292589.0,7062,WL,A,4.0
2,13.544000148773193,learn,46455.99985122681,Fri Feb 21 2025 16:34:47 GMT-0600 (Central Standard Time),293971.59999999776,A,lo,O,o,207,1,1382.5999999977648,292589.0,7062,WL,A,4.0
2,13.910000085830688,learn,46089.99991416931,Fri Feb 21 2025 16:34:47 GMT-0600 (Central Standard Time),294337.80000000075,A,log,O,g,350,1,1748.800000000745,292589.0,7062,WL,A,4.0
2,14.226999998092651,learn,45773.00000190735,Fri Feb 21 2025 16:34:47 GMT-0600 (Central Standard Time),294654.59999999776,A,logenter,O,enter,296,1,2065.599999997765,292589.0,7062,WL,A,4.0
2,16.64300012588501,learn,43356.99987411499,Fri Feb 21 2025 16:34:47 GMT-0600 (Central Standard Time),297070.3999999985,A,b,O,b,2396,1,2415.39999999851,294655.0,7062,WL,A,5.0
2,16.89300012588501,learn,43106.99987411499,Fri Feb 21 2025 16:34:47 GMT-0600 (Central Standard Time),297320.59999999776,A,bo,O,o,236,1,2665.599999997765,294655.0,7062,WL,A,5.0
2,17.075999975204468,learn,42924.00002479553,Fri Feb 21 2025 16:34:47 GMT-0600 (Central Standard Time),297503.59999999776,A,boo,O,o,162,1,2848.599999997765,294655.0,7062,WL,A,5.0
2,17.243000030517578,learn,42756.99996948242,Fri Feb 21 2025 16:34:47 GMT-0600 (Central Standard Time),297670.59999999776,A,book,O,k,147,1,3015.599999997765,294655.0,7062,WL,A,5.0
2,17.64300012588501,learn,42356.99987411499,Fri Feb 21 2025 16:34:47 GMT-0600 (Central Standard Time),298070.59999999776,A,bookenter,O,enter,379,1,3415.599999997765,294655.0,7062,WL,A,5.0
2,18.242000102996826,learn,41757.999897003174,Fri Feb 21 2025 16:34:47 GMT-0600 (Central Standard Time),298670.09999999776,A,f,O,f,587,1,599.0999999977648,298071.0,7062,WL,A,6.0
2,18.409000158309937,learn,41590.99984169006,Fri Feb 21 2025 16:34:47 GMT-0600 (Central Standard Time),298836.5,A,fl,O,l,148,1,765.5,298071.0,7062,WL,A,6.0
2,18.625,learn,41375.0,Fri Feb 21 2025 16:34:47 GMT-0600 (Central Standard Time),299053.30000000075,A,flo,O,o,198,1,982.3000000007451,298071.0,7062,WL,A,6.0
2,18.875,learn,41125.0,Fri Feb 21 2025 16:34:47 GMT-0600 (Central Standard Time),299303.0,A,flow,O,w,237,1,1232.0,298071.0,7062,WL,A,6.0
2,19.075000047683716,learn,40924.999952316284,Fri Feb 21 2025 16:34:47 GMT-0600 (Central Standard Time),299503.09999999776,A,flowe,O,e,187,1,1432.0999999977648,298071.0,7062,WL,A,6.0
2,19.225000143051147,learn,40774.99985694885,Fri Feb 21 2025 16:34:47 GMT-0600 (Central Standard Time),299653.09999999776,A,flower,O,r,139,1,1582.0999999977648,298071.0,7062,WL,A,6.0
2,19.742000102996826,learn,40257.999897003174,Fri Feb 21 2025 16:34:47 GMT-0600 (Central Standard Time),300169.5,A,flowerenter,O,enter,509,1,2098.5,298071.0,7062,WL,A,6.0
2,20.475000143051147,learn,39524.99985694885,Fri Feb 21 2025 16:34:47 GMT-0600 (Central Standard Time),300902.59999999776,A,r,O,r,720,1,732.6999999992549,300169.8999999985,7062,WL,A,7.0
2,20.808000087738037,learn,39191.99991226196,Fri Feb 21 2025 16:34:47 GMT-0600 (Central Standard Time),301236.19999999925,A,ru,O,u,316,1,1066.300000000745,300169.8999999985,7062,WL,A,7.0
2,21.223999977111816,learn,38776.00002288818,Fri Feb 21 2025 16:34:47 GMT-0600 (Central Standard Time),301652.19999999925,A,rug,O,g,406,1,1482.300000000745,300169.8999999985,7062,WL,A,7.0
2,21.95800018310547,learn,38041.99981689453,Fri Feb 21 2025 16:34:47 GMT-0600 (Central Standard Time),302385.3999999985,A,rugenter,O,enter,718,1,2215.5,300169.8999999985,7062,WL,A,7.0
2,22.957000017166138,learn,37042.99998283386,Fri Feb 21 2025 16:34:47 GMT-0600 (Central Standard Time),303385.30000000075,A,s,O,s,993,1,999.6000000014901,302385.69999999925,7062,WL,A,8.0
2,23.141000032424927,learn,36858.99996757507,Fri Feb 21 2025 16:34:47 GMT-0600 (Central Standard Time),303568.59999999776,A,sa,O,a,177,1,1182.8999999985099,302385.69999999925,7062,WL,A,8.0
2,23.374000072479248,learn,36625.99992752075,Fri Feb 21 2025 16:34:47 GMT-0600 (Central Standard Time),303801.80000000075,A,sal,O,l,218,1,1416.1000000014901,302385.69999999925,7062,WL,A,8.0
2,23.64199995994568,learn,36358.00004005432,Fri Feb 21 2025 16:34:47 GMT-0600 (Central Standard Time),304069.3999999985,A,salt,O,t,248,1,1683.699999999255,302385.69999999925,7062,WL,A,8.0
2,23.85700011253357,learn,36142.99988746643,Fri Feb 21 2025 16:34:47 GMT-0600 (Central Standard Time),304284.8999999985,A,saltenter,O,enter,197,1,1899.199999999255,302385.69999999925,7062,WL,A,8.0
2,27.223000049591064,learn,32776.999950408936,Fri Feb 21 2025 16:34:47 GMT-0600 (Central Standard Time),307650.59999999776,A,g,O,g,3357,1,3365.2999999970198,304285.30000000075,7062,WL,A,9.0
2,27.42300009727478,learn,32576.99990272522,Fri Feb 21 2025 16:34:47 GMT-0600 (Central Standard Time),307850.59999999776,A,go,O,o,192,1,3565.2999999970198,304285.30000000075,7062,WL,A,9.0
2,27.6560001373291,learn,32343.9998626709,Fri Feb 21 2025 16:34:47 GMT-0600 (Central Standard Time),308083.8999999985,A,gol,O,l,215,1,3798.599999997765,304285.30000000075,7062,WL,A,9.0
2,27.823000192642212,learn,32176.999807357788,Fri Feb 21 2025 16:34:47 GMT-0600 (Central Standard Time),308250.5,A,gold,O,d,158,1,3965.199999999255,304285.30000000075,7062,WL,A,9.0
2,28.289000034332275,learn,31710.999965667725,Fri Feb 21 2025 16:34:47 GMT-0600 (Central Standard Time),308716.8999999985,A,goldenter,O,enter,455,1,4431.599999997765,304285.30000000075,7062,WL,A,9.0
2,29.57200002670288,learn,30427.99997329712,Fri Feb 21 2025 16:34:47 GMT-0600 (Central Standard Time),309999.8999999985,A,k,O,k,1269,1,1282.5999999977648,308717.30000000075,7062,WL,A,10.0
2,29.888000011444092,learn,30111.99998855591,Fri Feb 21 2025 16:34:47 GMT-0600 (Central Standard Time),310316.30000000075,A,ke,O,e,298,1,1599.0,308717.30000000075,7062,WL,A,10.0
2,30.105000019073486,learn,29894.999980926514,Fri Feb 21 2025 16:34:47 GMT-0600 (Central Standard Time),310533.0,A,key,O,y,206,1,1815.699999999255,308717.30000000075,7062,WL,A,10.0
2,30.65499997138977,learn,29345.00002861023,Fri Feb 21 2025 16:34:47 GMT-0600 (Central Standard Time),311082.69999999925,A,keyenter,O,enter,533,1,2365.39999999851,308717.30000000075,7062,WL,A,10.0
2,32.08800005912781,learn,27911.999940872192,Fri Feb 21 2025 16:34:47 GMT-0600 (Central Standard Time),312515.8999999985,A,f,O,f,1423,1,1432.699999999255,311083.19999999925,7062,WL,A,11.0
2,32.22100019454956,learn,27778.99980545044,Fri Feb 21 2025 16:34:47 GMT-0600 (Central Standard Time),312648.80000000075,A,fi,O,i,126,1,1565.6000000014901,311083.19999999925,7062,WL,A,11.0
2,32.37100005149841,learn,27628.999948501587,Fri Feb 21 2025 16:34:47 GMT-0600 (Central Standard Time),312799.09999999776,A,fin,O,n,146,1,1715.8999999985099,311083.19999999925,7062,WL,A,11.0
2,32.57100009918213,learn,27428.99990081787,Fri Feb 21 2025 16:34:47 GMT-0600 (Central Standard Time),312999.0,A,fing,O,g,187,1,1915.800000000745,311083.19999999925,7062,WL,A,11.0
2,32.73800015449524,learn,27261.99984550476,Fri Feb 21 2025 16:34:47 GMT-0600 (Central Standard Time),313165.3999999985,A,finge,O,e,147,1,2082.199999999255,311083.19999999925,7062,WL,A,11.0
2,32.854000091552734,learn,27145.999908447266,Fri Feb 21 2025 16:34:47 GMT-0600 (Central Standard Time),313282.09999999776,A,finger,O,r,101,1,2198.89999999851,311083.19999999925,7062,WL,A,11.0
2,32.87100005149841,learn,27128.999948501587,Fri Feb 21 2025 16:34:47 GMT-0600 (Central Standard Time),313298.80000000075,A,fingert,O,t,8,1,2215.60000000149,311083.19999999925,7062,WL,A,11.0
2,33.754000186920166,learn,26245.999813079834,Fri Feb 21 2025 16:34:47 GMT-0600 (Central Standard Time),314181.80000000075,A,finger,O,backspace,872,1,3098.60000000149,311083.19999999925,7062,WL,A,11.0
2,34.7039999961853,learn,25296.000003814697,Fri Feb 21 2025 16:34:47 GMT-0600 (Central Standard Time),315131.3999999985,A,fingerenter,O,enter,940,1,4048.199999999255,311083.19999999925,7062,WL,A,11.0
2,42.41799998283386,learn,17582.000017166138,Fri Feb 21 2025 16:34:47 GMT-0600 (Central Standard Time),322845.59999999776,A,f,O,f,7695,1,7713.89999999851,315131.69999999925,7062,WL,A,12.0
2,43.25100016593933,learn,16748.99983406067,Fri Feb 21 2025 16:34:47 GMT-0600 (Central Standard Time),323678.8999999985,A,fl,O,l,812,1,8547.199999999255,315131.69999999925,7062,WL,A,12.0
2,43.43500018119812,learn,16564.99981880188,Fri Feb 21 2025 16:34:47 GMT-0600 (Central Standard Time),323863.09999999776,A,flo,O,o,163,1,8731.39999999851,315131.69999999925,7062,WL,A,12.0
2,43.66799998283386,learn,16332.000017166138,Fri Feb 21 2025 16:34:47 GMT-0600 (Central Standard Time),324095.5,A,flow,O,w,219,1,8963.800000000745,315131.69999999925,7062,WL,A,12.0
2,43.8510000705719,learn,16148.9999294281,Fri Feb 21 2025 16:34:47 GMT-0600 (Central Standard Time),324278.59999999776,A,flowe,O,e,163,1,9146.89999999851,315131.69999999925,7062,WL,A,12.0
2,44.00100016593933,learn,15998.999834060669,Fri Feb 21 2025 16:34:47 GMT-0600 (Central Standard Time),324428.69999999925,A,flower,O,r,140,1,9297.0,315131.69999999925,7062,WL,A,12.0
2,44.26699995994568,learn,15733.000040054321,Fri Feb 21 2025 16:34:47 GMT-0600 (Central Standard Time),324694.8999999985,A,flowerenter,O,enter,261,1,9563.199999999255,315131.69999999925,7062,WL,A,12.0
2,50.46500015258789,learn,9534.99984741211,Fri Feb 21 2025 16:34:47 GMT-0600 (Central Standard Time),330893.0,A,k,O,k,6187,1,6197.800000000745,324695.19999999925,7062,WL,A,13.0
2,50.765000104904175,learn,9234.999895095825,Fri Feb 21 2025 16:34:47 GMT-0600 (Central Standard Time),331193.3999999985,A,ke,O,e,292,1,6498.199999999255,324695.19999999925,7062,WL,A,13.0
2,50.98200011253357,learn,9017.99988746643,Fri Feb 21 2025 16:34:47 GMT-0600 (Central Standard Time),331409.80000000075,A,key,O,y,201,1,6714.60000000149,324695.19999999925,7062,WL,A,13.0
2,51.44800019264221,learn,8551.999807357788,Fri Feb 21 2025 16:34:47 GMT-0600 (Central Standard Time),331876.19999999925,A,keyenter,O,enter,448,1,7181.0,324695.19999999925,7062,WL,A,13.0
2,60.01300001144409,learn,-13.000011444091797,Fri Feb 21 2025 16:34:47 GMT-0600 (Central Standard Time),340440.3999999985,A,None,O,None,8559,1,8563.800000000745,331876.59999999776,7062,WL,A,14.0
3,1.1489999294281006,learn,58851.0000705719,Fri Feb 21 2025 16:34:47 GMT-0600 (Central Standard Time),409119.19999999925,A,r,O,r,1144,1,1148.699999999255,407970.5,7062,WL,A,1.0
3,1.3989999294281006,learn,58601.0000705719,Fri Feb 21 2025 16:34:47 GMT-0600 (Central Standard Time),409368.80000000075,A,ra,O,a,243,1,1398.300000000745,407970.5,7062,WL,A,1.0
3,1.7150001525878906,learn,58284.99984741211,Fri Feb 21 2025 16:34:47 GMT-0600 (Central Standard Time),409685.09999999776,A,rat,O,t,306,1,1714.5999999977648,407970.5,7062,WL,A,1.0
3,1.8489999771118164,learn,58151.00002288818,Fri Feb 21 2025 16:34:47 GMT-0600 (Central Standard Time),409818.59999999776,A,ratt,O,t,125,1,1848.0999999977648,407970.5,7062,WL,A,1.0
3,1.999000072479248,learn,58000.99992752075,Fri Feb 21 2025 16:34:47 GMT-0600 (Central Standard Time),409968.59999999776,A,rattl,O,l,144,1,1998.0999999977648,407970.5,7062,WL,A,1.0
3,2.131999969482422,learn,57868.00003051758,Fri Feb 21 2025 16:34:47 GMT-0600 (Central Standard Time),410101.8999999985,A,rattle,O,e,121,1,2131.39999999851,407970.5,7062,WL,A,1.0
3,2.5480000972747803,learn,57451.99990272522,Fri Feb 21 2025 16:34:47 GMT-0600 (Central Standard Time),410518.30000000075,A,rattleenter,O,enter,404,1,2547.800000000745,407970.5,7062,WL,A,1.0
3,3.615000009536743,learn,56384.99999046326,Fri Feb 21 2025 16:34:47 GMT-0600 (Central Standard Time),411584.80000000075,A,b,O,b,1060,1,1066.2000000029802,410518.59999999776,7062,WL,A,2.0
3,3.9650001525878906,learn,56034.99984741211,Fri Feb 21 2025 16:34:47 GMT-0600 (Central Standard Time),411934.5,A,bo,O,o,337,1,1415.9000000022352,410518.59999999776,7062,WL,A,2.0
3,4.13100004196167,learn,55868.99995803833,Fri Feb 21 2025 16:34:47 GMT-0600 (Central Standard Time),412101.19999999925,A,boo,O,o,156,1,1582.6000000014901,410518.59999999776,7062,WL,A,2.0
3,4.315000057220459,learn,55684.99994277954,Fri Feb 21 2025 16:34:47 GMT-0600 (Central Standard Time),412284.3999999985,A,book,O,k,173,1,1765.800000000745,410518.59999999776,7062,WL,A,2.0
3,4.680999994277954,learn,55319.000005722046,Fri Feb 21 2025 16:34:47 GMT-0600 (Central Standard Time),412651.19999999925,A,bookenter,O,enter,358,1,2132.60000000149,410518.59999999776,7062,WL,A,2.0
3,5.46399998664856,learn,54536.00001335144,Fri Feb 21 2025 16:34:47 GMT-0600 (Central Standard Time),413434.30000000075,A,c,O,c,775,1,782.7000000029802,412651.59999999776,7062,WL,A,3.0
3,5.614000082015991,learn,54385.99991798401,Fri Feb 21 2025 16:34:47 GMT-0600 (Central Standard Time),413584.19999999925,A,ch,O,h,136,1,932.6000000014901,412651.59999999776,7062,WL,A,3.0
3,5.814000129699707,learn,54185.99987030029,Fri Feb 21 2025 16:34:47 GMT-0600 (Central Standard Time),413783.80000000075,A,chu,O,u,194,1,1132.2000000029802,412651.59999999776,7062,WL,A,3.0
3,5.831000089645386,learn,54168.999910354614,Fri Feb 21 2025 16:34:47 GMT-0600 (Central Standard Time),413800.69999999925,A,chui,O,i,11,1,1149.1000000014901,412651.59999999776,7062,WL,A,3.0
3,6.5970001220703125,learn,53402.99987792969,Fri Feb 21 2025 16:34:47 GMT-0600 (Central Standard Time),414567.09999999776,A,chu,O,backspace,746,1,1915.5,412651.59999999776,7062,WL,A,3.0
3,7.0970001220703125,learn,52902.99987792969,Fri Feb 21 2025 16:34:47 GMT-0600 (Central Standard Time),415067.09999999776,A,ch,O,backspace,483,1,2415.5,412651.59999999776,7062,WL,A,3.0
3,7.897000074386597,learn,52102.9999256134,Fri Feb 21 2025 16:34:47 GMT-0600 (Central Standard Time),415866.69999999925,A,chi,O,i,783,1,3215.10000000149,412651.59999999776,7062,WL,A,3.0
3,8.080000162124634,learn,51919.999837875366,Fri Feb 21 2025 16:34:47 GMT-0600 (Central Standard Time),416050.09999999776,A,chim,O,m,176,1,3398.5,412651.59999999776,7062,WL,A,3.0
3,8.54699993133545,learn,51453.00006866455,Fri Feb 21 2025 16:34:47 GMT-0600 (Central Standard Time),416516.5,A,chimn,O,n,456,1,3864.900000002235,412651.59999999776,7062,WL,A,3.0
3,8.830000162124634,learn,51169.999837875366,Fri Feb 21 2025 16:34:47 GMT-0600 (Central Standard Time),416799.80000000075,A,chimne,O,e,262,1,4148.20000000298,412651.59999999776,7062,WL,A,3.0
3,8.963000059127808,learn,51036.99994087219,Fri Feb 21 2025 16:34:47 GMT-0600 (Central Standard Time),416933.09999999776,A,chimney,O,y,122,1,4281.5,412651.59999999776,7062,WL,A,3.0
3,9.480000019073486,learn,50519.999980926514,Fri Feb 21 2025 16:34:47 GMT-0600 (Central Standard Time),417449.5,A,chimneyenter,O,enter,501,1,4797.900000002235,412651.59999999776,7062,WL,A,3.0
3,10.296000003814697,learn,49703.9999961853,Fri Feb 21 2025 16:34:47 GMT-0600 (Central Standard Time),418266.0,A,g,O,g,809,1,816.3000000007451,417449.69999999925,7062,WL,A,4.0
3,10.463000059127808,learn,49536.99994087219,Fri Feb 21 2025 16:34:47 GMT-0600 (Central Standard Time),418432.5,A,go,O,o,152,1,982.8000000007451,417449.69999999925,7062,WL,A,4.0
3,10.696000099182129,learn,49303.99990081787,Fri Feb 21 2025 16:34:47 GMT-0600 (Central Standard Time),418665.8999999985,A,gol,O,l,218,1,1216.199999999255,417449.69999999925,7062,WL,A,4.0
3,10.828999996185303,learn,49171.0000038147,Fri Feb 21 2025 16:34:47 GMT-0600 (Central Standard Time),418799.19999999925,A,gold,O,d,121,1,1349.5,417449.69999999925,7062,WL,A,4.0
3,11.128999948501587,learn,48871.00005149841,Fri Feb 21 2025 16:34:47 GMT-0600 (Central Standard Time),419099.30000000075,A,goldenter,O,enter,283,1,1649.6000000014901,417449.69999999925,7062,WL,A,4.0
3,11.779000043869019,learn,48220.99995613098,Fri Feb 21 2025 16:34:47 GMT-0600 (Central Standard Time),419748.8999999985,A,k,O,k,639,1,649.3999999985099,419099.5,7062,WL,A,5.0
3,12.062000036239624,learn,47937.999963760376,Fri Feb 21 2025 16:34:47 GMT-0600 (Central Standard Time),420031.8999999985,A,ke,O,e,269,1,932.3999999985099,419099.5,7062,WL,A,5.0
3,12.295000076293945,learn,47704.999923706055,Fri Feb 21 2025 16:34:47 GMT-0600 (Central Standard Time),420265.30000000075,A,key,O,y,218,1,1165.800000000745,419099.5,7062,WL,A,5.0
3,12.92900013923645,learn,47070.99986076355,Fri Feb 21 2025 16:34:47 GMT-0600 (Central Standard Time),420898.5,A,keyenter,O,enter,617,1,1799.0,419099.5,7062,WL,A,5.0
3,14.07800006866455,learn,45921.99993133545,Fri Feb 21 2025 16:34:47 GMT-0600 (Central Standard Time),422048.0,A,m,O,m,1144,1,1149.199999999255,420898.80000000075,7062,WL,A,6.0
3,14.26200008392334,learn,45737.99991607666,Fri Feb 21 2025 16:34:47 GMT-0600 (Central Standard Time),422231.59999999776,A,me,O,e,178,1,1332.7999999970198,420898.80000000075,7062,WL,A,6.0
3,14.462000131607056,learn,45537.999868392944,Fri Feb 21 2025 16:34:47 GMT-0600 (Central Standard Time),422431.80000000075,A,mea,O,a,194,1,1533.0,420898.80000000075,7062,WL,A,6.0
3,14.727999925613403,learn,45272.0000743866,Fri Feb 21 2025 16:34:47 GMT-0600 (Central Standard Time),422698.0,A,mead,O,d,250,1,1799.199999999255,420898.80000000075,7062,WL,A,6.0
3,14.944999933242798,learn,45055.0000667572,Fri Feb 21 2025 16:34:47 GMT-0600 (Central Standard Time),422914.69999999925,A,meado,O,o,200,1,2015.8999999985099,420898.80000000075,7062,WL,A,6.0
3,15.24399995803833,learn,44756.00004196167,Fri Feb 21 2025 16:34:47 GMT-0600 (Central Standard Time),423214.3999999985,A,meadow,O,w,280,1,2315.599999997765,420898.80000000075,7062,WL,A,6.0
3,15.855999946594238,learn,44144.00005340576,Fri Feb 21 2025 16:34:47 GMT-0600 (Central Standard Time),423825.59999999776,A,meadowenter,O,enter,606,1,2926.7999999970198,420898.80000000075,7062,WL,A,6.0
3,16.91100001335144,learn,43088.99998664856,Fri Feb 21 2025 16:34:47 GMT-0600 (Central Standard Time),424880.5,A,b,O,b,1048,1,1054.6000000014901,423825.8999999985,7062,WL,A,7.0
3,17.194000005722046,learn,42805.999994277954,Fri Feb 21 2025 16:34:47 GMT-0600 (Central Standard Time),425163.8999999985,A,bo,O,o,266,1,1338.0,423825.8999999985,7062,WL,A,7.0
3,17.360000133514404,learn,42639.999866485596,Fri Feb 21 2025 16:34:47 GMT-0600 (Central Standard Time),425330.3999999985,A,boo,O,o,150,1,1504.5,423825.8999999985,7062,WL,A,7.0
3,17.509999990463257,learn,42490.00000953674,Fri Feb 21 2025 16:34:47 GMT-0600 (Central Standard Time),425480.19999999925,A,book,O,k,144,1,1654.300000000745,423825.8999999985,7062,WL,A,7.0
3,17.776999950408936,learn,42223.000049591064,Fri Feb 21 2025 16:34:47 GMT-0600 (Central Standard Time),425747.0,A,bookenter,O,enter,258,1,1921.1000000014901,423825.8999999985,7062,WL,A,7.0
3,19.3270001411438,learn,40672.9998588562,Fri Feb 21 2025 16:34:47 GMT-0600 (Central Standard Time),427296.59999999776,A,t,O,t,1543,1,1549.199999999255,425747.3999999985,7062,WL,A,8.0
3,19.493000030517578,learn,40506.99996948242,Fri Feb 21 2025 16:34:47 GMT-0600 (Central Standard Time),427463.19999999925,A,tr,O,r,145,1,1715.800000000745,425747.3999999985,7062,WL,A,8.0
3,19.710000038146973,learn,40289.99996185303,Fri Feb 21 2025 16:34:47 GMT-0600 (Central Standard Time),427679.59999999776,A,tra,O,a,211,1,1932.199999999255,425747.3999999985,7062,WL,A,8.0
3,19.842999935150146,learn,40157.00006484985,Fri Feb 21 2025 16:34:47 GMT-0600 (Central Standard Time),427813.0,A,trai,O,i,115,1,2065.60000000149,425747.3999999985,7062,WL,A,8.0
3,19.9760000705719,learn,40023.9999294281,Fri Feb 21 2025 16:34:47 GMT-0600 (Central Standard Time),427946.3999999985,A,train,O,n,118,1,2199.0,425747.3999999985,7062,WL,A,8.0
3,20.375999927520752,learn,39624.00007247925,Fri Feb 21 2025 16:34:47 GMT-0600 (Central Standard Time),428346.3999999985,A,trainenter,O,enter,384,1,2599.0,425747.3999999985,7062,WL,A,8.0
3,24.907999992370605,learn,35092.000007629395,Fri Feb 21 2025 16:34:47 GMT-0600 (Central Standard Time),432878.30000000075,A,f,O,f,4520,1,4531.60000000149,428346.69999999925,7062,WL,A,9.0
3,25.075000047683716,learn,34924.999952316284,Fri Feb 21 2025 16:34:47 GMT-0600 (Central Standard Time),433044.80000000075,A,fl,O,l,148,1,4698.10000000149,428346.69999999925,7062,WL,A,9.0
3,25.27500009536743,learn,34724.99990463257,Fri Feb 21 2025 16:34:47 GMT-0600 (Central Standard Time),433244.59999999776,A,flo,O,o,182,1,4897.89999999851,428346.69999999925,7062,WL,A,9.0
3,25.44099998474121,learn,34559.00001525879,Fri Feb 21 2025 16:34:47 GMT-0600 (Central Standard Time),433411.09999999776,A,flow,O,w,158,1,5064.39999999851,428346.69999999925,7062,WL,A,9.0
3,25.625,learn,34375.0,Fri Feb 21 2025 16:34:47 GMT-0600 (Central Standard Time),433594.5,A,flowe,O,e,175,1,5247.800000000745,428346.69999999925,7062,WL,A,9.0
3,25.79100012779236,learn,34208.99987220764,Fri Feb 21 2025 16:34:47 GMT-0600 (Central Standard Time),433761.19999999925,A,flower,O,r,152,1,5414.5,428346.69999999925,7062,WL,A,9.0
3,26.176000118255615,learn,33823.999881744385,Fri Feb 21 2025 16:34:47 GMT-0600 (Central Standard Time),434145.5,A,flowerenter,O,enter,377,1,5798.800000000745,428346.69999999925,7062,WL,A,9.0
3,27.20799994468689,learn,32792.00005531311,Fri Feb 21 2025 16:34:47 GMT-0600 (Central Standard Time),435177.3999999985,A,f,O,f,1025,1,1031.5999999977648,434145.80000000075,7062,WL,A,10.0
3,27.391000032424927,learn,32608.999967575073,Fri Feb 21 2025 16:34:47 GMT-0600 (Central Standard Time),435360.59999999776,A,fi,O,i,169,1,1214.7999999970198,434145.80000000075,7062,WL,A,10.0
3,27.557000160217285,learn,32442.999839782715,Fri Feb 21 2025 16:34:47 GMT-0600 (Central Standard Time),435527.3999999985,A,fin,O,n,162,1,1381.5999999977648,434145.80000000075,7062,WL,A,10.0
3,27.874000072479248,learn,32125.999927520752,Fri Feb 21 2025 16:34:47 GMT-0600 (Central Standard Time),435843.8999999985,A,fing,O,g,299,1,1698.0999999977648,434145.80000000075,7062,WL,A,10.0
3,28.039999961853027,learn,31960.000038146973,Fri Feb 21 2025 16:34:47 GMT-0600 (Central Standard Time),436010.3999999985,A,finge,O,e,158,1,1864.5999999977648,434145.80000000075,7062,WL,A,10.0
3,28.19099998474121,learn,31809.00001525879,Fri Feb 21 2025 16:34:47 GMT-0600 (Central Standard Time),436160.5,A,finger,O,r,136,1,2014.699999999255,434145.80000000075,7062,WL,A,10.0
3,28.574000120162964,learn,31425.999879837036,Fri Feb 21 2025 16:34:47 GMT-0600 (Central Standard Time),436543.69999999925,A,fingerenter,O,enter,370,1,2397.89999999851,434145.80000000075,7062,WL,A,10.0
3,29.807000160217285,learn,30192.999839782715,Fri Feb 21 2025 16:34:47 GMT-0600 (Central Standard Time),437776.5,A,r,O,r,1227,1,1232.5,436544.0,7062,WL,A,11.0
3,30.09000015258789,learn,29909.99984741211,Fri Feb 21 2025 16:34:47 GMT-0600 (Central Standard Time),438059.80000000075,A,ru,O,u,274,1,1515.800000000745,436544.0,7062,WL,A,11.0
3,30.373000144958496,learn,29626.999855041504,Fri Feb 21 2025 16:34:47 GMT-0600 (Central Standard Time),438343.0,A,rug,O,g,263,1,1799.0,436544.0,7062,WL,A,11.0
3,30.623000144958496,learn,29376.999855041504,Fri Feb 21 2025 16:34:47 GMT-0600 (Central Standard Time),438593.09999999776,A,rugenter,O,enter,243,1,2049.099999997765,436544.0,7062,WL,A,11.0
3,38.854000091552734,learn,21145.999908447266,Fri Feb 21 2025 16:34:47 GMT-0600 (Central Standard Time),446823.59999999776,A,s,O,s,8209,1,8230.199999999255,438593.3999999985,7062,WL,A,12.0
3,39.05400013923645,learn,20945.99986076355,Fri Feb 21 2025 16:34:47 GMT-0600 (Central Standard Time),447023.5,A,sa,O,a,186,1,8430.10000000149,438593.3999999985,7062,WL,A,12.0
3,39.23900008201599,learn,20760.99991798401,Fri Feb 21 2025 16:34:47 GMT-0600 (Central Standard Time),447209.30000000075,A,sal,O,l,180,1,8615.900000002235,438593.3999999985,7062,WL,A,12.0
3,39.48699998855591,learn,20513.00001144409,Fri Feb 21 2025 16:34:47 GMT-0600 (Central Standard Time),447456.5,A,salt,O,t,233,1,8863.10000000149,438593.3999999985,7062,WL,A,12.0
3,40.05299997329712,learn,19947.00002670288,Fri Feb 21 2025 16:34:47 GMT-0600 (Central Standard Time),448023.30000000075,A,saltenter,O,enter,543,1,9429.900000002235,438593.3999999985,7062,WL,A,12.0
3,42.30200004577637,learn,17697.999954223633,Fri Feb 21 2025 16:34:47 GMT-0600 (Central Standard Time),450272.3999999985,A,m,O,m,2243,1,2248.800000000745,448023.59999999776,7062,WL,A,13.0
3,42.569000005722046,learn,17430.999994277954,Fri Feb 21 2025 16:34:47 GMT-0600 (Central Standard Time),450539.09999999776,A,me,O,e,250,1,2515.5,448023.59999999776,7062,WL,A,13.0
3,42.78600001335144,learn,17213.99998664856,Fri Feb 21 2025 16:34:47 GMT-0600 (Central Standard Time),450756.0,A,mea,O,a,199,1,2732.400000002235,448023.59999999776,7062,WL,A,13.0
3,42.96900010108948,learn,17030.999898910522,Fri Feb 21 2025 16:34:47 GMT-0600 (Central Standard Time),450938.8999999985,A,mead,O,d,166,1,2915.300000000745,448023.59999999776,7062,WL,A,13.0
3,43.13600015640259,learn,16863.999843597412,Fri Feb 21 2025 16:34:47 GMT-0600 (Central Standard Time),451105.8999999985,A,meado,O,o,159,1,3082.300000000745,448023.59999999776,7062,WL,A,13.0
3,43.28600001335144,learn,16713.99998664856,Fri Feb 21 2025 16:34:47 GMT-0600 (Central Standard Time),451255.59999999776,A,meadow,O,w,144,1,3232.0,448023.59999999776,7062,WL,A,13.0
3,43.569000005722046,learn,16430.999994277954,Fri Feb 21 2025 16:34:47 GMT-0600 (Central Standard Time),451539.0,A,meadowenter,O,enter,267,1,3515.400000002235,448023.59999999776,7062,WL,A,13.0
3,60.01200008392334,learn,-12.000083923339844,Fri Feb 21 2025 16:34:47 GMT-0600 (Central Standard Time),467983.69999999925,A,None,O,None,16441,1,16444.300000000745,451539.3999999985,7062,WL,A,14.0
4,1.9819998741149902,learn,58018.00012588501,Fri Feb 21 2025 16:34:47 GMT-0600 (Central Standard Time),536862.3999999985,A,g,O,g,1963,1,1982.699999999255,534879.6999999993,7062,WL,A,1.0
4,2.2990000247955322,learn,57700.99997520447,Fri Feb 21 2025 16:34:47 GMT-0600 (Central Standard Time),537178.8000000007,A,go,O,o,307,1,2299.10000000149,534879.6999999993,7062,WL,A,1.0
4,2.5149998664855957,learn,57485.000133514404,Fri Feb 21 2025 16:34:47 GMT-0600 (Central Standard Time),537395.3999999985,A,gol,O,l,199,1,2515.699999999255,534879.6999999993,7062,WL,A,1.0
4,2.749000072479248,learn,57250.99992752075,Fri Feb 21 2025 16:34:47 GMT-0600 (Central Standard Time),537628.6999999993,A,gold,O,d,223,1,2749.0,534879.6999999993,7062,WL,A,1.0
4,3.065000057220459,learn,56934.99994277954,Fri Feb 21 2025 16:34:47 GMT-0600 (Central Standard Time),537945.3000000007,A,goldenter,O,enter,310,1,3065.60000000149,534879.6999999993,7062,WL,A,1.0
4,3.8980000019073486,learn,56101.99999809265,Fri Feb 21 2025 16:34:47 GMT-0600 (Central Standard Time),538778.3999999985,A,h,O,h,817,1,832.6999999992549,537945.6999999993,7062,WL,A,2.0
4,4.131999969482422,learn,55868.00003051758,Fri Feb 21 2025 16:34:47 GMT-0600 (Central Standard Time),539011.5,A,ha,O,a,216,1,1065.800000000745,537945.6999999993,7062,WL,A,2.0
4,4.414999961853027,learn,55585.00003814697,Fri Feb 21 2025 16:34:47 GMT-0600 (Central Standard Time),539294.8999999985,A,har,O,r,263,1,1349.199999999255,537945.6999999993,7062,WL,A,2.0
4,4.648000001907349,learn,55351.99999809265,Fri Feb 21 2025 16:34:47 GMT-0600 (Central Standard Time),539528.0999999978,A,harp,O,p,227,1,1582.3999999985099,537945.6999999993,7062,WL,A,2.0
4,5.04800009727478,learn,54951.99990272522,Fri Feb 21 2025 16:34:47 GMT-0600 (Central Standard Time),539928.0999999978,A,harpenter,O,enter,378,1,1982.3999999985099,537945.6999999993,7062,WL,A,2.0
4,5.831000089645386,learn,54168.999910354614,Fri Feb 21 2025 16:34:47 GMT-0600 (Central Standard Time),540711.0999999978,A,a,O,a,770,1,782.5999999977648,539928.5,7062,WL,A,3.0
4,6.164999961853027,learn,53835.00003814697,Fri Feb 21 2025 16:34:47 GMT-0600 (Central Standard Time),541044.5999999978,A,ap,O,p,315,1,1116.0999999977648,539928.5,7062,WL,A,3.0
4,6.3480000495910645,learn,53651.999950408936,Fri Feb 21 2025 16:34:47 GMT-0600 (Central Standard Time),541227.5999999978,A,app,O,p,173,1,1299.0999999977648,539928.5,7062,WL,A,3.0
4,6.693000078201294,learn,53306.999921798706,Fri Feb 21 2025 16:34:47 GMT-0600 (Central Standard Time),541572.5,A,appl,O,l,194,1,1644.0,539928.5,7062,WL,A,3.0
4,6.71399998664856,learn,53286.00001335144,Fri Feb 21 2025 16:34:47 GMT-0600 (Central Standard Time),541593.8999999985,A,apple,O,e,5,1,1665.3999999985099,539928.5,7062,WL,A,3.0
4,7.0309998989105225,learn,52969.00010108948,Fri Feb 21 2025 16:34:47 GMT-0600 (Central Standard Time),541910.6999999993,A,appleenter,O,enter,305,1,1982.199999999255,539928.5,7062,WL,A,3.0
4,7.647000074386597,learn,52352.9999256134,Fri Feb 21 2025 16:34:47 GMT-0600 (Central Standard Time),542527.0999999978,A,b,O,b,604,1,616.0999999977648,541911.0,7062,WL,A,4.0
4,7.914000034332275,learn,52085.999965667725,Fri Feb 21 2025 16:34:47 GMT-0600 (Central Standard Time),542793.5999999978,A,bu,O,u,251,1,882.5999999977648,541911.0,7062,WL,A,4.0
4,8.346999883651733,learn,51653.00011634827,Fri Feb 21 2025 16:34:47 GMT-0600 (Central Standard Time),543227.0,A,but,O,t,417,1,1316.0,541911.0,7062,WL,A,4.0
4,8.480999946594238,learn,51519.00005340576,Fri Feb 21 2025 16:34:47 GMT-0600 (Central Standard Time),543361.3000000007,A,butt,O,t,127,1,1450.300000000745,541911.0,7062,WL,A,4.0
4,8.61299991607666,learn,51387.00008392334,Fri Feb 21 2025 16:34:47 GMT-0600 (Central Standard Time),543493.5,A,butto,O,o,121,1,1582.5,541911.0,7062,WL,A,4.0
4,9.062999963760376,learn,50937.000036239624,Fri Feb 21 2025 16:34:47 GMT-0600 (Central Standard Time),543943.0999999978,A,button,O,n,429,1,2032.0999999977648,541911.0,7062,WL,A,4.0
4,9.563999891281128,learn,50436.00010871887,Fri Feb 21 2025 16:34:47 GMT-0600 (Central Standard Time),544443.5999999978,A,buttonenter,O,enter,483,1,2532.599999997765,541911.0,7062,WL,A,4.0
4,10.345999956130981,learn,49654.00004386902,Fri Feb 21 2025 16:34:47 GMT-0600 (Central Standard Time),545226.3000000007,A,r,O,r,766,1,782.3000000007451,544444.0,7062,WL,A,5.0
4,10.546000003814697,learn,49453.9999961853,Fri Feb 21 2025 16:34:47 GMT-0600 (Central Standard Time),545426.0999999978,A,ra,O,a,184,1,982.0999999977648,544444.0,7062,WL,A,5.0
4,10.812999963760376,learn,49187.000036239624,Fri Feb 21 2025 16:34:47 GMT-0600 (Central Standard Time),545692.8999999985,A,rat,O,t,248,1,1248.8999999985099,544444.0,7062,WL,A,5.0
4,10.94599986076355,learn,49054.00013923645,Fri Feb 21 2025 16:34:47 GMT-0600 (Central Standard Time),545826.1999999993,A,ratt,O,t,125,1,1382.199999999255,544444.0,7062,WL,A,5.0
4,11.178999900817871,learn,48821.00009918213,Fri Feb 21 2025 16:34:47 GMT-0600 (Central Standard Time),546059.3000000007,A,rattl,O,l,224,1,1615.300000000745,544444.0,7062,WL,A,5.0
4,11.428999900817871,learn,48571.00009918213,Fri Feb 21 2025 16:34:47 GMT-0600 (Central Standard Time),546309.5,A,rattle,O,e,231,1,1865.5,544444.0,7062,WL,A,5.0
4,11.828999996185303,learn,48171.0000038147,Fri Feb 21 2025 16:34:47 GMT-0600 (Central Standard Time),546709.3000000007,A,rattleenter,O,enter,381,1,2265.300000000745,544444.0,7062,WL,A,5.0
4,13.26200008392334,learn,46737.99991607666,Fri Feb 21 2025 16:34:47 GMT-0600 (Central Standard Time),548142.1999999993,A,t,O,t,1413,1,1432.5,546709.6999999993,7062,WL,A,6.0
4,13.428999900817871,learn,46571.00009918213,Fri Feb 21 2025 16:34:47 GMT-0600 (Central Standard Time),548308.5999999978,A,tr,O,r,148,1,1598.8999999985099,546709.6999999993,7062,WL,A,6.0
4,13.678999900817871,learn,46321.00009918213,Fri Feb 21 2025 16:34:47 GMT-0600 (Central Standard Time),548558.5999999978,A,tra,O,a,230,1,1848.8999999985099,546709.6999999993,7062,WL,A,6.0
4,13.812000036239624,learn,46187.999963760376,Fri Feb 21 2025 16:34:47 GMT-0600 (Central Standard Time),548692.0999999978,A,trai,O,i,116,1,1982.3999999985099,546709.6999999993,7062,WL,A,6.0
4,13.92799997329712,learn,46072.00002670288,Fri Feb 21 2025 16:34:47 GMT-0600 (Central Standard Time),548808.5,A,train,O,n,110,1,2098.800000000745,546709.6999999993,7062,WL,A,6.0
4,14.361999988555908,learn,45638.00001144409,Fri Feb 21 2025 16:34:47 GMT-0600 (Central Standard Time),549241.5999999978,A,trainenter,O,enter,418,1,2531.89999999851,546709.6999999993,7062,WL,A,6.0
4,15.41100001335144,learn,44588.99998664856,Fri Feb 21 2025 16:34:47 GMT-0600 (Central Standard Time),550291.3000000007,A,r,O,r,1033,1,1049.4000000022352,549241.8999999985,7062,WL,A,7.0
4,15.644999980926514,learn,44355.000019073486,Fri Feb 21 2025 16:34:47 GMT-0600 (Central Standard Time),550524.6999999993,A,ru,O,u,215,1,1282.800000000745,549241.8999999985,7062,WL,A,7.0
4,15.92799997329712,learn,44072.00002670288,Fri Feb 21 2025 16:34:47 GMT-0600 (Central Standard Time),550807.6999999993,A,rug,O,g,278,1,1565.800000000745,549241.8999999985,7062,WL,A,7.0
4,16.310999870300293,learn,43689.00012969971,Fri Feb 21 2025 16:34:47 GMT-0600 (Central Standard Time),551191.1999999993,A,rugenter,O,enter,379,1,1949.300000000745,549241.8999999985,7062,WL,A,7.0
4,19.32699990272522,learn,40673.00009727478,Fri Feb 21 2025 16:34:47 GMT-0600 (Central Standard Time),554207.0,A,k,O,k,2996,1,3015.699999999255,551191.3000000007,7062,WL,A,8.0
4,19.66000008583069,learn,40339.99991416931,Fri Feb 21 2025 16:34:47 GMT-0600 (Central Standard Time),554540.1999999993,A,ke,O,e,323,1,3348.89999999851,551191.3000000007,7062,WL,A,8.0
4,19.927000045776367,learn,40072.99995422363,Fri Feb 21 2025 16:34:47 GMT-0600 (Central Standard Time),554806.6999999993,A,key,O,y,246,1,3615.39999999851,551191.3000000007,7062,WL,A,8.0
4,20.443000078201294,learn,39556.999921798706,Fri Feb 21 2025 16:34:47 GMT-0600 (Central Standard Time),555323.0,A,keyenter,O,enter,500,1,4131.699999999255,551191.3000000007,7062,WL,A,8.0
4,21.592999935150146,learn,38407.00006484985,Fri Feb 21 2025 16:34:47 GMT-0600 (Central Standard Time),556472.5999999978,A,f,O,f,1135,1,1149.2999999970198,555323.3000000007,7062,WL,A,9.0
4,21.759000062942505,learn,38240.999937057495,Fri Feb 21 2025 16:34:47 GMT-0600 (Central Standard Time),556639.3999999985,A,fi,O,i,153,1,1316.0999999977648,555323.3000000007,7062,WL,A,9.0
4,21.925999879837036,learn,38074.000120162964,Fri Feb 21 2025 16:34:47 GMT-0600 (Central Standard Time),556805.8999999985,A,fin,O,n,146,1,1482.5999999977648,555323.3000000007,7062,WL,A,9.0
4,22.241999864578247,learn,37758.00013542175,Fri Feb 21 2025 16:34:47 GMT-0600 (Central Standard Time),557122.3000000007,A,fing,O,g,307,1,1799.0,555323.3000000007,7062,WL,A,9.0
4,22.425999879837036,learn,37574.000120162964,Fri Feb 21 2025 16:34:47 GMT-0600 (Central Standard Time),557305.6999999993,A,finge,O,e,168,1,1982.3999999985099,555323.3000000007,7062,WL,A,9.0
4,22.55900001525879,learn,37440.99998474121,Fri Feb 21 2025 16:34:47 GMT-0600 (Central Standard Time),557438.8999999985,A,finger,O,r,113,1,2115.599999997765,555323.3000000007,7062,WL,A,9.0
4,22.991999864578247,learn,37008.00013542175,Fri Feb 21 2025 16:34:47 GMT-0600 (Central Standard Time),557872.0,A,fingerenter,O,enter,426,1,2548.699999999255,555323.3000000007,7062,WL,A,9.0
4,24.191999912261963,learn,35808.00008773804,Fri Feb 21 2025 16:34:47 GMT-0600 (Central Standard Time),559072.1999999993,A,m,O,m,1186,1,1199.8999999985099,557872.3000000007,7062,WL,A,10.0
4,24.441999912261963,learn,35558.00008773804,Fri Feb 21 2025 16:34:47 GMT-0600 (Central Standard Time),559322.0,A,me,O,e,242,1,1449.699999999255,557872.3000000007,7062,WL,A,10.0
4,24.658999919891357,learn,35341.00008010864,Fri Feb 21 2025 16:34:47 GMT-0600 (Central Standard Time),559538.5,A,mea,O,a,200,1,1666.199999999255,557872.3000000007,7062,WL,A,10.0
4,24.85800004005432,learn,35141.99995994568,Fri Feb 21 2025 16:34:47 GMT-0600 (Central Standard Time),559738.3000000007,A,mead,O,d,184,1,1866.0,557872.3000000007,7062,WL,A,10.0
4,25.075000047683716,learn,34924.999952316284,Fri Feb 21 2025 16:34:47 GMT-0600 (Central Standard Time),559955.0999999978,A,meado,O,o,208,1,2082.7999999970198,557872.3000000007,7062,WL,A,10.0
4,25.342000007629395,learn,34657.999992370605,Fri Feb 21 2025 16:34:47 GMT-0600 (Central Standard Time),560221.5999999978,A,meadow,O,w,247,1,2349.2999999970198,557872.3000000007,7062,WL,A,10.0
4,26.157999992370605,learn,33842.000007629395,Fri Feb 21 2025 16:34:47 GMT-0600 (Central Standard Time),561038.3000000007,A,meadowenter,O,enter,805,1,3166.0,557872.3000000007,7062,WL,A,10.0
4,27.424000024795532,learn,32575.999975204468,Fri Feb 21 2025 16:34:47 GMT-0600 (Central Standard Time),562304.3000000007,A,m,O,m,1252,1,1265.800000000745,561038.5,7062,WL,A,11.0
4,27.60800004005432,learn,32391.99995994568,Fri Feb 21 2025 16:34:47 GMT-0600 (Central Standard Time),562487.6999999993,A,me,O,e,162,1,1449.199999999255,561038.5,7062,WL,A,11.0
4,27.808000087738037,learn,32191.999912261963,Fri Feb 21 2025 16:34:47 GMT-0600 (Central Standard Time),562687.5999999978,A,mea,O,a,180,1,1649.0999999977648,561038.5,7062,WL,A,11.0
4,28.007999897003174,learn,31992.000102996826,Fri Feb 21 2025 16:34:47 GMT-0600 (Central Standard Time),562887.5,A,mead,O,d,180,1,1849.0,561038.5,7062,WL,A,11.0
4,28.141000032424927,learn,31858.999967575073,Fri Feb 21 2025 16:34:47 GMT-0600 (Central Standard Time),563020.8000000007,A,meado,O,o,115,1,1982.300000000745,561038.5,7062,WL,A,11.0
4,28.35800004005432,learn,31641.99995994568,Fri Feb 21 2025 16:34:47 GMT-0600 (Central Standard Time),563238.3000000007,A,meadow,O,w,197,1,2199.800000000745,561038.5,7062,WL,A,11.0
4,28.591000080108643,learn,31408.999919891357,Fri Feb 21 2025 16:34:47 GMT-0600 (Central Standard Time),563470.5999999978,A,meadowenter,O,enter,220,1,2432.099999997765,561038.5,7062,WL,A,11.0
4,44.53600001335144,learn,15463.99998664856,Fri Feb 21 2025 16:34:47 GMT-0600 (Central Standard Time),579415.8999999985,A,b,O,b,15925,1,15945.0,563470.8999999985,7062,WL,A,12.0
4,44.901999950408936,learn,15098.000049591064,Fri Feb 21 2025 16:34:47 GMT-0600 (Central Standard Time),579782.0999999978,A,bo,O,o,346,1,16311.199999999255,563470.8999999985,7062,WL,A,12.0
4,45.05200004577637,learn,14947.999954223633,Fri Feb 21 2025 16:34:47 GMT-0600 (Central Standard Time),579932.1999999993,A,boo,O,o,140,1,16461.300000000745,563470.8999999985,7062,WL,A,12.0
4,45.28500008583069,learn,14714.999914169312,Fri Feb 21 2025 16:34:47 GMT-0600 (Central Standard Time),580165.3999999985,A,book,O,k,214,1,16694.5,563470.8999999985,7062,WL,A,12.0
4,45.918999910354614,learn,14081.000089645386,Fri Feb 21 2025 16:34:47 GMT-0600 (Central Standard Time),580798.8000000007,A,bookenter,O,enter,621,1,17327.900000002235,563470.8999999985,7062,WL,A,12.0
4,55.53099989891052,learn,4469.0001010894775,Fri Feb 21 2025 16:34:47 GMT-0600 (Central Standard Time),590412.3000000007,A,c,O,c,9604,1,9613.300000000745,580799.0,7062,WL,A,13.0
4,55.69799995422363,learn,4302.000045776367,Fri Feb 21 2025 16:34:47 GMT-0600 (Central Standard Time),590578.8999999985,A,ch,O,h,150,1,9779.89999999851,580799.0,7062,WL,A,13.0
4,56.180999994277954,learn,3819.000005722046,Fri Feb 21 2025 16:34:47 GMT-0600 (Central Standard Time),591062.0,A,chi,O,i,463,1,10263.0,580799.0,7062,WL,A,13.0
4,56.414000034332275,learn,3585.9999656677246,Fri Feb 21 2025 16:34:47 GMT-0600 (Central Standard Time),591295.3000000007,A,chim,O,m,212,1,10496.300000000745,580799.0,7062,WL,A,13.0
4,57.3970000743866,learn,2602.9999256134033,Fri Feb 21 2025 16:34:47 GMT-0600 (Central Standard Time),592278.3999999985,A,chimn,O,n,963,1,11479.39999999851,580799.0,7062,WL,A,13.0
4,57.62999987602234,learn,2370.000123977661,Fri Feb 21 2025 16:34:47 GMT-0600 (Central Standard Time),592511.5999999978,A,chimne,O,e,220,1,11712.599999997765,580799.0,7062,WL,A,13.0
4,57.81399989128113,learn,2186.000108718872,Fri Feb 21 2025 16:34:47 GMT-0600 (Central Standard Time),592694.8000000007,A,chimney,O,y,171,1,11895.800000000745,580799.0,7062,WL,A,13.0
4,58.29699993133545,learn,1703.0000686645508,Fri Feb 21 2025 16:34:47 GMT-0600 (Central Standard Time),593178.0999999978,A,chimneyenter,O,enter,476,1,12379.099999997765,580799.0,7062,WL,A,13.0
4,58.79699993133545,learn,1203.0000686645508,Fri Feb 21 2025 16:34:47 GMT-0600 (Central Standard Time),593677.8000000007,A,l,O,l,480,1,499.4000000022352,593178.3999999985,7062,WL,A,14.0
4,58.96300005912781,learn,1036.9999408721924,Fri Feb 21 2025 16:34:47 GMT-0600 (Central Standard Time),593844.5,A,lo,O,o,157,1,666.1000000014901,593178.3999999985,7062,WL,A,14.0
4,59.44599986076355,learn,554.0001392364502,Fri Feb 21 2025 16:34:47 GMT-0600 (Central Standard Time),594327.6999999993,A,log,O,g,478,1,1149.300000000745,593178.3999999985,7062,WL,A,14.0
4,59.74600005149841,learn,253.9999485015869,Fri Feb 21 2025 16:34:47 GMT-0600 (Central Standard Time),594627.3999999985,A,logenter,O,enter,283,1,1449.0,593178.3999999985,7062,WL,A,14.0
4,60.01300001144409,learn,-13.000011444091797,Fri Feb 21 2025 16:34:47 GMT-0600 (Central Standard Time),594894.1999999993,A,None,O,None,262,1,266.3999999985099,594627.8000000007,7062,WL,A,15.0
5,1.1160001754760742,learn,60000.0,Fri Feb 21 2025 16:34:47 GMT-0600 (Central Standard Time),665855.5999999978,A,b,O,b,1112,1,1116.2999999970198,664739.3000000007,7062,WL,A,1.0
5,1.4170000553131104,learn,60000.0,Fri Feb 21 2025 16:34:47 GMT-0600 (Central Standard Time),666156.6999999993,A,bu,O,u,282,1,1417.3999999985099,664739.3000000007,7062,WL,A,1.0
5,1.9490001201629639,learn,60000.0,Fri Feb 21 2025 16:34:47 GMT-0600 (Central Standard Time),666688.1999999993,A,but,O,t,525,1,1948.8999999985099,664739.3000000007,7062,WL,A,1.0
5,2.0990002155303955,learn,60000.0,Fri Feb 21 2025 16:34:47 GMT-0600 (Central Standard Time),666838.3000000007,A,butt,O,t,138,1,2099.0,664739.3000000007,7062,WL,A,1.0
5,2.4660000801086426,learn,60000.0,Fri Feb 21 2025 16:34:47 GMT-0600 (Central Standard Time),667204.8000000007,A,butto,O,o,356,1,2465.5,664739.3000000007,7062,WL,A,1.0
5,2.7150001525878906,learn,60000.0,Fri Feb 21 2025 16:34:47 GMT-0600 (Central Standard Time),667454.8000000007,A,button,O,n,237,1,2715.5,664739.3000000007,7062,WL,A,1.0
5,3.0820000171661377,learn,60000.0,Fri Feb 21 2025 16:34:47 GMT-0600 (Central Standard Time),667821.3000000007,A,buttonenter,O,enter,347,1,3082.0,664739.3000000007,7062,WL,A,1.0
5,3.5980000495910645,learn,60000.0,Fri Feb 21 2025 16:34:47 GMT-0600 (Central Standard Time),668337.6999999993,A,k,O,k,501,1,516.1000000014901,667821.5999999978,7062,WL,A,2.0
5,4.065000057220459,learn,60000.0,Fri Feb 21 2025 16:34:47 GMT-0600 (Central Standard Time),668804.5,A,ke,O,e,449,1,982.9000000022352,667821.5999999978,7062,WL,A,2.0
5,4.248000144958496,learn,60000.0,Fri Feb 21 2025 16:34:47 GMT-0600 (Central Standard Time),668987.5,A,key,O,y,166,1,1165.9000000022352,667821.5999999978,7062,WL,A,2.0
5,4.63100004196167,learn,60000.0,Fri Feb 21 2025 16:34:47 GMT-0600 (Central Standard Time),669370.6999999993,A,keyenter,O,enter,367,1,1549.1000000014901,667821.5999999978,7062,WL,A,2.0
5,5.531000137329102,learn,60000.0,Fri Feb 21 2025 16:34:47 GMT-0600 (Central Standard Time),670270.6999999993,A,r,O,r,880,1,899.8000000007451,669370.8999999985,7062,WL,A,3.0
5,5.831000089645386,learn,60000.0,Fri Feb 21 2025 16:34:47 GMT-0600 (Central Standard Time),670570.3999999985,A,ra,O,a,293,1,1199.5,669370.8999999985,7062,WL,A,3.0
5,6.21399998664856,learn,60000.0,Fri Feb 21 2025 16:34:47 GMT-0600 (Central Standard Time),670953.8000000007,A,rat,O,t,376,1,1582.9000000022352,669370.8999999985,7062,WL,A,3.0
5,6.38100004196167,learn,60000.0,Fri Feb 21 2025 16:34:47 GMT-0600 (Central Standard Time),671120.8000000007,A,ratt,O,t,153,1,1749.9000000022352,669370.8999999985,7062,WL,A,3.0
5,6.54800009727478,learn,60000.0,Fri Feb 21 2025 16:34:47 GMT-0600 (Central Standard Time),671287.1999999993,A,rattl,O,l,145,1,1916.300000000745,669370.8999999985,7062,WL,A,3.0
5,6.748000144958496,learn,60000.0,Fri Feb 21 2025 16:34:47 GMT-0600 (Central Standard Time),671487.0999999978,A,rattle,O,e,179,1,2116.199999999255,669370.8999999985,7062,WL,A,3.0
5,7.115000009536743,learn,60000.0,Fri Feb 21 2025 16:34:47 GMT-0600 (Central Standard Time),671854.5999999978,A,rattleenter,O,enter,347,1,2483.699999999255,669370.8999999985,7062,WL,A,3.0
5,7.781000137329102,learn,60000.0,Fri Feb 21 2025 16:34:47 GMT-0600 (Central Standard Time),672519.8999999985,A,k,O,k,645,1,665.0,671854.8999999985,7062,WL,A,4.0
5,8.080000162124634,learn,60000.0,Fri Feb 21 2025 16:34:47 GMT-0600 (Central Standard Time),672819.8000000007,A,ke,O,e,283,1,964.9000000022352,671854.8999999985,7062,WL,A,4.0
5,8.297000169754028,learn,60000.0,Fri Feb 21 2025 16:34:47 GMT-0600 (Central Standard Time),673036.3999999985,A,key,O,y,207,1,1181.5,671854.8999999985,7062,WL,A,4.0
5,8.96399998664856,learn,60000.0,Fri Feb 21 2025 16:34:47 GMT-0600 (Central Standard Time),673702.8999999985,A,keyl,O,l,654,1,1848.0,671854.8999999985,7062,WL,A,4.0
5,9.164000034332275,learn,60000.0,Fri Feb 21 2025 16:34:47 GMT-0600 (Central Standard Time),673902.8999999985,A,keylo,O,o,180,1,2048.0,671854.8999999985,7062,WL,A,4.0
5,9.397000074386597,learn,60000.0,Fri Feb 21 2025 16:34:47 GMT-0600 (Central Standard Time),674136.0999999978,A,keylog,O,g,219,1,2281.199999999255,671854.8999999985,7062,WL,A,4.0
5,11.046000003814697,learn,60000.0,Fri Feb 21 2025 16:34:47 GMT-0600 (Central Standard Time),675785.5999999978,A,keylo,O,backspace,1634,1,3930.699999999255,671854.8999999985,7062,WL,A,4.0
5,11.246000051498413,learn,60000.0,Fri Feb 21 2025 16:34:47 GMT-0600 (Central Standard Time),675985.3999999985,A,keyl,O,backspace,185,1,4130.5,671854.8999999985,7062,WL,A,4.0
5,11.396000146865845,learn,60000.0,Fri Feb 21 2025 16:34:47 GMT-0600 (Central Standard Time),676135.5,A,key,O,backspace,145,1,4280.60000000149,671854.8999999985,7062,WL,A,4.0
5,12.229000091552734,learn,60000.0,Fri Feb 21 2025 16:34:47 GMT-0600 (Central Standard Time),676968.3999999985,A,keyenter,O,enter,819,1,5113.5,671854.8999999985,7062,WL,A,4.0
5,12.84600019454956,learn,60000.0,Fri Feb 21 2025 16:34:47 GMT-0600 (Central Standard Time),677585.0,A,l,O,l,602,1,616.3000000007451,676968.6999999993,7062,WL,A,5.0
5,13.029000043869019,learn,60000.0,Fri Feb 21 2025 16:34:47 GMT-0600 (Central Standard Time),677768.0,A,lo,O,o,177,1,799.3000000007451,676968.6999999993,7062,WL,A,5.0
5,13.246000051498413,learn,60000.0,Fri Feb 21 2025 16:34:47 GMT-0600 (Central Standard Time),677984.8000000007,A,log,O,g,202,1,1016.1000000014901,676968.6999999993,7062,WL,A,5.0
5,13.712000131607056,learn,60000.0,Fri Feb 21 2025 16:34:47 GMT-0600 (Central Standard Time),678451.3999999985,A,logenter,O,enter,449,1,1482.699999999255,676968.6999999993,7062,WL,A,5.0
5,14.92900013923645,learn,60000.0,Fri Feb 21 2025 16:34:47 GMT-0600 (Central Standard Time),679667.8999999985,A,t,O,t,1207,1,1216.0999999977648,678451.8000000007,7062,WL,A,6.0
5,15.07800006866455,learn,60000.0,Fri Feb 21 2025 16:34:47 GMT-0600 (Central Standard Time),679817.6999999993,A,tr,O,r,142,1,1365.8999999985099,678451.8000000007,7062,WL,A,6.0
5,15.312000036239624,learn,60000.0,Fri Feb 21 2025 16:34:47 GMT-0600 (Central Standard Time),680051.0,A,tra,O,a,216,1,1599.199999999255,678451.8000000007,7062,WL,A,6.0
5,15.461000204086304,learn,60000.0,Fri Feb 21 2025 16:34:47 GMT-0600 (Central Standard Time),680200.6999999993,A,trai,O,i,143,1,1748.8999999985099,678451.8000000007,7062,WL,A,6.0
5,15.611000061035156,learn,60000.0,Fri Feb 21 2025 16:34:47 GMT-0600 (Central Standard Time),680350.6999999993,A,train,O,n,129,1,1898.8999999985099,678451.8000000007,7062,WL,A,6.0
5,16.028000116348267,learn,60000.0,Fri Feb 21 2025 16:34:47 GMT-0600 (Central Standard Time),680767.5,A,trainenter,O,enter,412,1,2315.699999999255,678451.8000000007,7062,WL,A,6.0
5,16.794000148773193,learn,60000.0,Fri Feb 21 2025 16:34:47 GMT-0600 (Central Standard Time),681533.6999999993,A,r,O,r,747,1,765.8999999985099,680767.8000000007,7062,WL,A,7.0
5,17.128000020980835,learn,60000.0,Fri Feb 21 2025 16:34:47 GMT-0600 (Central Standard Time),681866.8999999985,A,ru,O,u,325,1,1099.0999999977648,680767.8000000007,7062,WL,A,7.0
5,17.361000061035156,learn,60000.0,Fri Feb 21 2025 16:34:47 GMT-0600 (Central Standard Time),682100.3999999985,A,rug,O,g,223,1,1332.5999999977648,680767.8000000007,7062,WL,A,7.0
5,17.795000076293945,learn,60000.0,Fri Feb 21 2025 16:34:47 GMT-0600 (Central Standard Time),682534.5999999978,A,rugenter,O,enter,422,1,1766.7999999970198,680767.8000000007,7062,WL,A,7.0
5,19.444000005722046,learn,60000.0,Fri Feb 21 2025 16:34:47 GMT-0600 (Central Standard Time),684182.8999999985,A,n,O,n,1628,1,1647.8999999985099,682535.0,7062,WL,A,8.0
5,19.89300012588501,learn,60000.0,Fri Feb 21 2025 16:34:47 GMT-0600 (Central Standard Time),684632.6999999993,A,,O,backspace,435,1,2097.699999999255,682535.0,7062,WL,A,8.0
5,20.193000078201294,learn,60000.0,Fri Feb 21 2025 16:34:47 GMT-0600 (Central Standard Time),684932.6999999993,A,b,O,b,290,1,2397.699999999255,682535.0,7062,WL,A,8.0
5,20.527000188827515,learn,60000.0,Fri Feb 21 2025 16:34:47 GMT-0600 (Central Standard Time),685265.8999999985,A,bo,O,o,326,1,2730.89999999851,682535.0,7062,WL,A,8.0
5,20.693000078201294,learn,60000.0,Fri Feb 21 2025 16:34:47 GMT-0600 (Central Standard Time),685432.5,A,boo,O,o,153,1,2897.5,682535.0,7062,WL,A,8.0
5,20.826000213623047,learn,60000.0,Fri Feb 21 2025 16:34:47 GMT-0600 (Central Standard Time),685565.8000000007,A,book,O,k,122,1,3030.800000000745,682535.0,7062,WL,A,8.0
5,21.24400019645691,learn,60000.0,Fri Feb 21 2025 16:34:47 GMT-0600 (Central Standard Time),685983.5999999978,A,bookenter,O,enter,396,1,3448.599999997765,682535.0,7062,WL,A,8.0
5,22.659000158309937,learn,60000.0,Fri Feb 21 2025 16:34:47 GMT-0600 (Central Standard Time),687398.5999999978,A,m,O,m,1395,1,1414.5999999977648,685984.0,7062,WL,A,9.0
5,22.926000118255615,learn,60000.0,Fri Feb 21 2025 16:34:47 GMT-0600 (Central Standard Time),687665.1999999993,A,me,O,e,252,1,1681.199999999255,685984.0,7062,WL,A,9.0
5,23.142000198364258,learn,60000.0,Fri Feb 21 2025 16:34:47 GMT-0600 (Central Standard Time),687881.5999999978,A,mea,O,a,201,1,1897.5999999977648,685984.0,7062,WL,A,9.0
5,23.30900001525879,learn,60000.0,Fri Feb 21 2025 16:34:47 GMT-0600 (Central Standard Time),688048.3000000007,A,mead,O,d,153,1,2064.300000000745,685984.0,7062,WL,A,9.0
5,23.592000007629395,learn,60000.0,Fri Feb 21 2025 16:34:47 GMT-0600 (Central Standard Time),688331.6999999993,A,meadw,O,w,266,1,2347.699999999255,685984.0,7062,WL,A,9.0
5,24.009000062942505,learn,60000.0,Fri Feb 21 2025 16:34:47 GMT-0600 (Central Standard Time),688748.3999999985,A,mead,O,backspace,407,1,2764.39999999851,685984.0,7062,WL,A,9.0
5,24.359000205993652,learn,60000.0,Fri Feb 21 2025 16:34:47 GMT-0600 (Central Standard Time),689098.0999999978,A,meado,O,o,334,1,3114.099999997765,685984.0,7062,WL,A,9.0
5,24.55900001525879,learn,60000.0,Fri Feb 21 2025 16:34:47 GMT-0600 (Central Standard Time),689298.1999999993,A,meadow,O,w,184,1,3314.199999999255,685984.0,7062,WL,A,9.0
5,25.392000198364258,learn,60000.0,Fri Feb 21 2025 16:34:47 GMT-0600 (Central Standard Time),690131.1999999993,A,meadowenter,O,enter,824,1,4147.199999999255,685984.0,7062,WL,A,9.0
5,27.574000120162964,learn,60000.0,Fri Feb 21 2025 16:34:47 GMT-0600 (Central Standard Time),692313.6999999993,A,f,O,f,2175,1,2182.300000000745,690131.3999999985,7062,WL,A,10.0
5,27.758000135421753,learn,60000.0,Fri Feb 21 2025 16:34:47 GMT-0600 (Central Standard Time),692497.0999999978,A,fi,O,i,177,1,2365.699999999255,690131.3999999985,7062,WL,A,10.0
5,27.924000024795532,learn,60000.0,Fri Feb 21 2025 16:34:47 GMT-0600 (Central Standard Time),692663.8000000007,A,fin,O,n,153,1,2532.400000002235,690131.3999999985,7062,WL,A,10.0
5,28.20800018310547,learn,60000.0,Fri Feb 21 2025 16:34:47 GMT-0600 (Central Standard Time),692946.8999999985,A,fing,O,g,267,1,2815.5,690131.3999999985,7062,WL,A,10.0
5,28.424000024795532,learn,60000.0,Fri Feb 21 2025 16:34:47 GMT-0600 (Central Standard Time),693163.3999999985,A,finge,O,e,200,1,3032.0,690131.3999999985,7062,WL,A,10.0
5,28.52400016784668,learn,60000.0,Fri Feb 21 2025 16:34:47 GMT-0600 (Central Standard Time),693263.5,A,finger,O,r,95,1,3132.10000000149,690131.3999999985,7062,WL,A,10.0
5,29.557000160217285,learn,60000.0,Fri Feb 21 2025 16:34:47 GMT-0600 (Central Standard Time),694296.3999999985,A,fingerenter,O,enter,1019,1,4165.0,690131.3999999985,7062,WL,A,10.0
5,33.52300000190735,learn,60000.0,Fri Feb 21 2025 16:34:47 GMT-0600 (Central Standard Time),698262.0,A,c,O,c,3946,1,3965.400000002235,694296.5999999978,7062,WL,A,11.0
5,33.6560001373291,learn,60000.0,Fri Feb 21 2025 16:34:47 GMT-0600 (Central Standard Time),698395.1999999993,A,ch,O,h,124,1,4098.60000000149,694296.5999999978,7062,WL,A,11.0
5,34.13900017738342,learn,60000.0,Fri Feb 21 2025 16:34:47 GMT-0600 (Central Standard Time),698878.5,A,chi,O,i,471,1,4581.900000002235,694296.5999999978,7062,WL,A,11.0
5,34.33899998664856,learn,60000.0,Fri Feb 21 2025 16:34:47 GMT-0600 (Central Standard Time),699078.3000000007,A,chim,O,m,180,1,4781.70000000298,694296.5999999978,7062,WL,A,11.0
5,34.73900008201599,learn,60000.0,Fri Feb 21 2025 16:34:47 GMT-0600 (Central Standard Time),699478.3000000007,A,chimn,O,n,388,1,5181.70000000298,694296.5999999978,7062,WL,A,11.0
5,35.07200002670288,learn,60000.0,Fri Feb 21 2025 16:34:47 GMT-0600 (Central Standard Time),699811.3999999985,A,chimne,O,e,316,1,5514.800000000745,694296.5999999978,7062,WL,A,11.0
5,35.25500011444092,learn,60000.0,Fri Feb 21 2025 16:34:47 GMT-0600 (Central Standard Time),699994.6999999993,A,chimney,O,y,167,1,5698.10000000149,694296.5999999978,7062,WL,A,11.0
5,35.2720000743866,learn,60000.0,Fri Feb 21 2025 16:34:47 GMT-0600 (Central Standard Time),700011.3999999985,A,chimneyt,O,t,1,1,5714.800000000745,694296.5999999978,7062,WL,A,11.0
5,36.2720000743866,learn,60000.0,Fri Feb 21 2025 16:34:47 GMT-0600 (Central Standard Time),701011.0999999978,A,chimney,O,backspace,984,1,6714.5,694296.5999999978,7062,WL,A,11.0
5,37.1710000038147,learn,60000.0,Fri Feb 21 2025 16:34:47 GMT-0600 (Central Standard Time),701910.6999999993,A,chimneyenter,O,enter,887,1,7614.10000000149,694296.5999999978,7062,WL,A,11.0
5,45.801000118255615,learn,60000.0,Fri Feb 21 2025 16:34:47 GMT-0600 (Central Standard Time),710541.3000000007,A,h,O,h,8612,1,8630.300000000745,701911.0,7062,WL,A,12.0
5,46.08400011062622,learn,60000.0,Fri Feb 21 2025 16:34:47 GMT-0600 (Central Standard Time),710824.5,A,ha,O,a,268,1,8913.5,701911.0,7062,WL,A,12.0
5,46.384000062942505,learn,60000.0,Fri Feb 21 2025 16:34:47 GMT-0600 (Central Standard Time),711124.3999999985,A,har,O,r,282,1,9213.39999999851,701911.0,7062,WL,A,12.0
5,46.717000007629395,learn,60000.0,Fri Feb 21 2025 16:34:47 GMT-0600 (Central Standard Time),711457.8000000007,A,harp,O,p,326,1,9546.800000000745,701911.0,7062,WL,A,12.0
5,47.28400015830994,learn,60000.0,Fri Feb 21 2025 16:34:47 GMT-0600 (Central Standard Time),712024.0999999978,A,harpenter,O,enter,561,1,10113.099999997765,701911.0,7062,WL,A,12.0
5,107.29700016975403,learn,60000.0,Fri Feb 21 2025 16:34:47 GMT-0600 (Central Standard Time),772038.8000000007,A,None,O,None,60011,1,60014.5,712024.3000000007,7062,WL,A,13.0
6,1.6499998569488525,distr,58350.00014305115,Fri Feb 21 2025 16:34:47 GMT-0600 (Central Standard Time),840850.6999999993,B,b,O,b,1642,1,1649.6000000014901,839201.0999999978,7062,WL,A,1.0
6,1.8829998970031738,distr,58117.000102996826,Fri Feb 21 2025 16:34:47 GMT-0600 (Central Standard Time),841083.8999999985,B,bo,O,o,223,1,1882.800000000745,839201.0999999978,7062,WL,A,1.0
6,2.2330000400543213,distr,57766.99995994568,Fri Feb 21 2025 16:34:47 GMT-0600 (Central Standard Time),841433.8000000007,B,bot,O,t,336,1,2232.7000000029802,839201.0999999978,7062,WL,A,1.0
6,2.365999937057495,distr,57634.000062942505,Fri Feb 21 2025 16:34:47 GMT-0600 (Central Standard Time),841567.0,B,bott,O,t,122,1,2365.900000002235,839201.0999999978,7062,WL,A,1.0
6,2.5160000324249268,distr,57483.99996757507,Fri Feb 21 2025 16:34:47 GMT-0600 (Central Standard Time),841716.8999999985,B,bottl,O,l,132,1,2515.800000000745,839201.0999999978,7062,WL,A,1.0
6,2.6499998569488525,distr,57350.00014305115,Fri Feb 21 2025 16:34:47 GMT-0600 (Central Standard Time),841850.3999999985,B,bottle,O,e,118,1,2649.300000000745,839201.0999999978,7062,WL,A,1.0
6,4.615999937057495,distr,55384.000062942505,Fri Feb 21 2025 16:34:47 GMT-0600 (Central Standard Time),843816.5,B,bottleenter,O,enter,1952,1,4615.400000002235,839201.0999999978,7062,WL,A,1.0
6,5.365999937057495,distr,54634.000062942505,Fri Feb 21 2025 16:34:47 GMT-0600 (Central Standard Time),844566.3000000007,B,m,O,m,729,1,749.4000000022352,843816.8999999985,7062,WL,A,2.0
6,5.615000009536743,distr,54384.99999046326,Fri Feb 21 2025 16:34:47 GMT-0600 (Central Standard Time),844815.8000000007,B,me,O,e,244,1,998.9000000022352,843816.8999999985,7062,WL,A,2.0
6,5.832000017166138,distr,54167.99998283386,Fri Feb 21 2025 16:34:47 GMT-0600 (Central Standard Time),845032.5999999978,B,mea,O,a,203,1,1215.699999999255,843816.8999999985,7062,WL,A,2.0
6,6.049000024795532,distr,53950.99997520447,Fri Feb 21 2025 16:34:47 GMT-0600 (Central Standard Time),845249.5,B,meal,O,l,203,1,1432.6000000014901,843816.8999999985,7062,WL,A,2.0
6,6.431999921798706,distr,53568.000078201294,Fri Feb 21 2025 16:34:47 GMT-0600 (Central Standard Time),845632.1999999993,B,mealenter,O,enter,377,1,1815.300000000745,843816.8999999985,7062,WL,A,2.0
6,7.097999811172485,distr,52902.000188827515,Fri Feb 21 2025 16:34:47 GMT-0600 (Central Standard Time),846298.8000000007,B,s,O,s,659,1,666.2000000029802,845632.5999999978,7062,WL,A,3.0
6,7.365000009536743,distr,52634.99999046326,Fri Feb 21 2025 16:34:47 GMT-0600 (Central Standard Time),846565.6999999993,B,se,O,e,247,1,933.1000000014901,845632.5999999978,7062,WL,A,3.0
6,7.497999906539917,distr,52502.00009346008,Fri Feb 21 2025 16:34:47 GMT-0600 (Central Standard Time),846698.5,B,see,O,e,125,1,1065.9000000022352,845632.5999999978,7062,WL,A,3.0
6,7.648000001907349,distr,52351.99999809265,Fri Feb 21 2025 16:34:47 GMT-0600 (Central Standard Time),846848.3000000007,B,seed,O,d,144,1,1215.7000000029802,845632.5999999978,7062,WL,A,3.0
6,8.542999982833862,distr,51457.00001716614,Fri Feb 21 2025 16:34:47 GMT-0600 (Central Standard Time),847743.3999999985,B,see,O,backspace,890,1,2110.800000000745,845632.5999999978,7062,WL,A,3.0
6,9.929999828338623,distr,50070.00017166138,Fri Feb 21 2025 16:34:47 GMT-0600 (Central Standard Time),849131.0,B,seed,O,d,1369,1,3498.400000002235,845632.5999999978,7062,WL,A,3.0
6,10.69700002670288,distr,49302.99997329712,Fri Feb 21 2025 16:34:47 GMT-0600 (Central Standard Time),849897.3000000007,B,seedenter,O,enter,751,1,4264.70000000298,845632.5999999978,7062,WL,A,3.0
6,11.329999923706055,distr,48670.000076293945,Fri Feb 21 2025 16:34:47 GMT-0600 (Central Standard Time),850530.8999999985,B,c,O,c,617,1,633.3999999985099,849897.5,7062,WL,A,4.0
6,11.61299991607666,distr,48387.00008392334,Fri Feb 21 2025 16:34:47 GMT-0600 (Central Standard Time),850814.0999999978,B,co,O,o,263,1,916.5999999977648,849897.5,7062,WL,A,4.0
6,11.879999876022339,distr,48120.00012397766,Fri Feb 21 2025 16:34:47 GMT-0600 (Central Standard Time),851080.5,B,coa,O,a,252,1,1183.0,849897.5,7062,WL,A,4.0
6,12.162999868392944,distr,47837.000131607056,Fri Feb 21 2025 16:34:47 GMT-0600 (Central Standard Time),851363.5999999978,B,coat,O,t,265,1,1466.0999999977648,849897.5,7062,WL,A,4.0
6,12.480000019073486,distr,47519.999980926514,Fri Feb 21 2025 16:34:47 GMT-0600 (Central Standard Time),851680.5999999978,B,coatenter,O,enter,303,1,1783.0999999977648,849897.5,7062,WL,A,4.0
6,13.245999813079834,distr,46754.000186920166,Fri Feb 21 2025 16:34:47 GMT-0600 (Central Standard Time),852447.0,B,b,O,b,755,1,765.9000000022352,851681.0999999978,7062,WL,A,5.0
6,13.478999853134155,distr,46521.000146865845,Fri Feb 21 2025 16:34:47 GMT-0600 (Central Standard Time),852680.0999999978,B,bo,O,o,227,1,999.0,851681.0999999978,7062,WL,A,5.0
6,13.745999813079834,distr,46254.000186920166,Fri Feb 21 2025 16:34:47 GMT-0600 (Central Standard Time),852947.0,B,bow,O,w,258,1,1265.9000000022352,851681.0999999978,7062,WL,A,5.0
6,13.879999876022339,distr,46120.00012397766,Fri Feb 21 2025 16:34:47 GMT-0600 (Central Standard Time),853080.5,B,bowl,O,l,120,1,1399.4000000022352,851681.0999999978,7062,WL,A,5.0
6,14.94599986076355,distr,45054.00013923645,Fri Feb 21 2025 16:34:47 GMT-0600 (Central Standard Time),854146.5999999978,B,bow,O,backspace,1058,1,2465.5,851681.0999999978,7062,WL,A,5.0
6,15.378999948501587,distr,44621.00005149841,Fri Feb 21 2025 16:34:47 GMT-0600 (Central Standard Time),854579.5999999978,B,bowenter,O,enter,416,1,2898.5,851681.0999999978,7062,WL,A,5.0
6,16.494999885559082,distr,43505.00011444092,Fri Feb 21 2025 16:34:47 GMT-0600 (Central Standard Time),855695.8999999985,B,j,O,j,1096,1,1116.0,854579.8999999985,7062,WL,A,6.0
6,16.67899990081787,distr,43321.00009918213,Fri Feb 21 2025 16:34:47 GMT-0600 (Central Standard Time),855879.5,B,ju,O,u,179,1,1299.6000000014901,854579.8999999985,7062,WL,A,6.0
6,16.944999933242798,distr,43055.0000667572,Fri Feb 21 2025 16:34:47 GMT-0600 (Central Standard Time),856145.8000000007,B,jud,O,d,251,1,1565.9000000022352,854579.8999999985,7062,WL,A,6.0
6,17.294999837875366,distr,42705.000162124634,Fri Feb 21 2025 16:34:47 GMT-0600 (Central Standard Time),856495.3999999985,B,judg,O,g,337,1,1915.5,854579.8999999985,7062,WL,A,6.0
6,17.461999893188477,distr,42538.00010681152,Fri Feb 21 2025 16:34:47 GMT-0600 (Central Standard Time),856662.3000000007,B,judge,O,e,147,1,2082.400000002235,854579.8999999985,7062,WL,A,6.0
6,17.994999885559082,distr,42005.00011444092,Fri Feb 21 2025 16:34:47 GMT-0600 (Central Standard Time),857195.8000000007,B,judgeenter,O,enter,523,1,2615.900000002235,854579.8999999985,7062,WL,A,6.0
6,41.80399990081787,distr,18196.00009918213,Fri Feb 21 2025 16:34:47 GMT-0600 (Central Standard Time),881004.8999999985,B,d,O,d,23791,1,23808.699999999255,857196.1999999993,7062,WL,A,7.0
6,42.05399990081787,distr,17946.00009918213,Fri Feb 21 2025 16:34:47 GMT-0600 (Central Standard Time),881254.8000000007,B,da,O,a,229,1,24058.60000000149,857196.1999999993,7062,WL,A,7.0
6,42.30399990081787,distr,17696.00009918213,Fri Feb 21 2025 16:34:47 GMT-0600 (Central Standard Time),881504.3999999985,B,daw,O,w,243,1,24308.199999999255,857196.1999999993,7062,WL,A,7.0
6,42.61999988555908,distr,17380.000114440918,Fri Feb 21 2025 16:34:47 GMT-0600 (Central Standard Time),881821.0999999978,B,dawn,O,n,298,1,24624.89999999851,857196.1999999993,7062,WL,A,7.0
6,43.03699994087219,distr,16963.000059127808,Fri Feb 21 2025 16:34:47 GMT-0600 (Central Standard Time),882237.8999999985,B,dawnenter,O,enter,397,1,25041.699999999255,857196.1999999993,7062,WL,A,7.0
6,60.013999938964844,distr,-13.99993896484375,Fri Feb 21 2025 16:34:47 GMT-0600 (Central Standard Time),899215.6999999993,B,None,O,None,16974,1,16977.5,882238.1999999993,7062,WL,A,8.0
7,1.1669998168945312,immed,58833.00018310547,Fri Feb 21 2025 16:34:47 GMT-0600 (Central Standard Time),917743.3000000007,A,t,O,t,1146,1,1166.1000000014901,916577.1999999993,7062,WL,A,1.0
7,1.3829998970031738,immed,58617.000102996826,Fri Feb 21 2025 16:34:47 GMT-0600 (Central Standard Time),917959.8999999985,A,tr,O,r,204,1,1382.699999999255,916577.1999999993,7062,WL,A,1.0
7,1.7609999179840088,immed,58239.00008201599,Fri Feb 21 2025 16:34:47 GMT-0600 (Central Standard Time),918337.8999999985,A,tra,O,a,374,1,1760.699999999255,916577.1999999993,7062,WL,A,1.0
7,1.8499999046325684,immed,58150.00009536743,Fri Feb 21 2025 16:34:47 GMT-0600 (Central Standard Time),918426.0999999978,A,trai,O,i,72,1,1848.8999999985099,916577.1999999993,7062,WL,A,1.0
7,2.0,immed,58000.0,Fri Feb 21 2025 16:34:47 GMT-0600 (Central Standard Time),918576.3000000007,A,train,O,n,137,1,1999.1000000014901,916577.1999999993,7062,WL,A,1.0
7,2.5329999923706055,immed,57467.000007629395,Fri Feb 21 2025 16:34:47 GMT-0600 (Central Standard Time),919109.5999999978,A,trainenter,O,enter,522,1,2532.39999999851,916577.1999999993,7062,WL,A,1.0
7,3.8329999446868896,immed,56167.00005531311,Fri Feb 21 2025 16:34:47 GMT-0600 (Central Standard Time),920409.0999999978,A,r,O,r,1293,1,1299.199999999255,919109.8999999985,7062,WL,A,2.0
7,4.198999881744385,immed,55801.000118255615,Fri Feb 21 2025 16:34:47 GMT-0600 (Central Standard Time),920775.8000000007,A,ru,O,u,361,1,1665.9000000022352,919109.8999999985,7062,WL,A,2.0
7,4.582000017166138,immed,55417.99998283386,Fri Feb 21 2025 16:34:47 GMT-0600 (Central Standard Time),921158.6999999993,A,rug,O,g,371,1,2048.800000000745,919109.8999999985,7062,WL,A,2.0
7,4.865000009536743,immed,55134.99999046326,Fri Feb 21 2025 16:34:47 GMT-0600 (Central Standard Time),921441.8999999985,A,rugenter,O,enter,277,1,2332.0,919109.8999999985,7062,WL,A,2.0
7,5.664999961853027,immed,54335.00003814697,Fri Feb 21 2025 16:34:47 GMT-0600 (Central Standard Time),922241.8000000007,A,b,O,b,785,1,799.7000000029802,921442.0999999978,7062,WL,A,3.0
7,5.9649999141693115,immed,54035.00008583069,Fri Feb 21 2025 16:34:47 GMT-0600 (Central Standard Time),922541.6999999993,A,bo,O,o,290,1,1099.6000000014901,921442.0999999978,7062,WL,A,3.0
7,6.148000001907349,immed,53851.99999809265,Fri Feb 21 2025 16:34:47 GMT-0600 (Central Standard Time),922725.0999999978,A,boo,O,o,164,1,1283.0,921442.0999999978,7062,WL,A,3.0
7,6.332000017166138,immed,53667.99998283386,Fri Feb 21 2025 16:34:47 GMT-0600 (Central Standard Time),922908.3000000007,A,book,O,k,173,1,1466.2000000029802,921442.0999999978,7062,WL,A,3.0
7,6.781999826431274,immed,53218.000173568726,Fri Feb 21 2025 16:34:47 GMT-0600 (Central Standard Time),923358.1999999993,A,bookenter,O,enter,430,1,1916.1000000014901,921442.0999999978,7062,WL,A,3.0
7,7.365000009536743,immed,52634.99999046326,Fri Feb 21 2025 16:34:47 GMT-0600 (Central Standard Time),923941.3999999985,A,m,O,m,564,1,582.8000000007451,923358.5999999978,7062,WL,A,4.0
7,7.630999803543091,immed,52369.00019645691,Fri Feb 21 2025 16:34:47 GMT-0600 (Central Standard Time),924207.8000000007,A,me,O,e,262,1,849.2000000029802,923358.5999999978,7062,WL,A,4.0
7,7.847999811172485,immed,52152.000188827515,Fri Feb 21 2025 16:34:47 GMT-0600 (Central Standard Time),924424.5999999978,A,mea,O,a,203,1,1066.0,923358.5999999978,7062,WL,A,4.0
7,8.030999898910522,immed,51969.00010108948,Fri Feb 21 2025 16:34:47 GMT-0600 (Central Standard Time),924607.8000000007,A,mead,O,d,178,1,1249.2000000029802,923358.5999999978,7062,WL,A,4.0
7,8.197999954223633,immed,51802.00004577637,Fri Feb 21 2025 16:34:47 GMT-0600 (Central Standard Time),924774.5,A,meado,O,o,147,1,1415.9000000022352,923358.5999999978,7062,WL,A,4.0
7,8.398000001907349,immed,51601.99999809265,Fri Feb 21 2025 16:34:47 GMT-0600 (Central Standard Time),924974.3999999985,A,meadow,O,w,188,1,1615.800000000745,923358.5999999978,7062,WL,A,4.0
7,8.914000034332275,immed,51085.999965667725,Fri Feb 21 2025 16:34:47 GMT-0600 (Central Standard Time),925490.6999999993,A,meadowenter,O,enter,500,1,2132.10000000149,923358.5999999978,7062,WL,A,4.0
7,9.846999883651733,immed,50153.00011634827,Fri Feb 21 2025 16:34:47 GMT-0600 (Central Standard Time),926424.0999999978,A,c,O,c,921,1,933.0999999977648,925491.0,7062,WL,A,5.0
7,9.996999979019165,immed,50003.000020980835,Fri Feb 21 2025 16:34:47 GMT-0600 (Central Standard Time),926573.8999999985,A,ch,O,h,139,1,1082.8999999985099,925491.0,7062,WL,A,5.0
7,10.263999938964844,immed,49736.000061035156,Fri Feb 21 2025 16:34:47 GMT-0600 (Central Standard Time),926840.1999999993,A,chi,O,i,260,1,1349.199999999255,925491.0,7062,WL,A,5.0
7,10.46399998664856,immed,49536.00001335144,Fri Feb 21 2025 16:34:47 GMT-0600 (Central Standard Time),927040.5,A,chim,O,m,187,1,1549.5,925491.0,7062,WL,A,5.0
7,10.680999994277954,immed,49319.000005722046,Fri Feb 21 2025 16:34:47 GMT-0600 (Central Standard Time),927258.0,A,chimn,O,n,211,1,1767.0,925491.0,7062,WL,A,5.0
7,10.896999835968018,immed,49103.00016403198,Fri Feb 21 2025 16:34:47 GMT-0600 (Central Standard Time),927473.5,A,chimne,O,e,208,1,1982.5,925491.0,7062,WL,A,5.0
7,11.062999963760376,immed,48937.000036239624,Fri Feb 21 2025 16:34:47 GMT-0600 (Central Standard Time),927639.8999999985,A,chimney,O,y,161,1,2148.89999999851,925491.0,7062,WL,A,5.0
7,11.579999923706055,immed,48420.000076293945,Fri Feb 21 2025 16:34:47 GMT-0600 (Central Standard Time),928156.5,A,chimneyenter,O,enter,508,1,2665.5,925491.0,7062,WL,A,5.0
7,12.27999997138977,immed,47720.00002861023,Fri Feb 21 2025 16:34:47 GMT-0600 (Central Standard Time),928856.6999999993,A,k,O,k,686,1,699.8999999985099,928156.8000000007,7062,WL,A,6.0
7,12.562999963760376,immed,47437.000036239624,Fri Feb 21 2025 16:34:47 GMT-0600 (Central Standard Time),929139.6999999993,A,ke,O,e,275,1,982.8999999985099,928156.8000000007,7062,WL,A,6.0
7,12.812999963760376,immed,47187.000036239624,Fri Feb 21 2025 16:34:47 GMT-0600 (Central Standard Time),929389.5,A,key,O,y,231,1,1232.699999999255,928156.8000000007,7062,WL,A,6.0
7,13.312999963760376,immed,46687.000036239624,Fri Feb 21 2025 16:34:47 GMT-0600 (Central Standard Time),929889.5999999978,A,keyenter,O,enter,485,1,1732.7999999970198,928156.8000000007,7062,WL,A,6.0
7,13.796000003814697,immed,46203.9999961853,Fri Feb 21 2025 16:34:47 GMT-0600 (Central Standard Time),930372.6999999993,A,l,O,l,464,1,482.80000000074506,929889.8999999985,7062,WL,A,7.0
7,13.962999820709229,immed,46037.00017929077,Fri Feb 21 2025 16:34:47 GMT-0600 (Central Standard Time),930539.5,A,lo,O,o,158,1,649.6000000014901,929889.8999999985,7062,WL,A,7.0
7,14.263000011444092,immed,45736.99998855591,Fri Feb 21 2025 16:34:47 GMT-0600 (Central Standard Time),930839.1999999993,A,log,O,g,287,1,949.3000000007451,929889.8999999985,7062,WL,A,7.0
7,14.546000003814697,immed,45453.9999961853,Fri Feb 21 2025 16:34:47 GMT-0600 (Central Standard Time),931122.5,A,logenter,O,enter,275,1,1232.6000000014901,929889.8999999985,7062,WL,A,7.0
7,15.02899980545044,immed,44971.00019454956,Fri Feb 21 2025 16:34:47 GMT-0600 (Central Standard Time),931605.8000000007,A,h,O,h,472,1,483.0,931122.8000000007,7062,WL,A,8.0
7,15.26199984550476,immed,44738.00015449524,Fri Feb 21 2025 16:34:47 GMT-0600 (Central Standard Time),931838.8999999985,A,ha,O,a,212,1,716.0999999977648,931122.8000000007,7062,WL,A,8.0
7,15.562000036239624,immed,44437.999963760376,Fri Feb 21 2025 16:34:47 GMT-0600 (Central Standard Time),932138.8999999985,A,har,O,r,291,1,1016.0999999977648,931122.8000000007,7062,WL,A,8.0
7,15.794999837875366,immed,44205.000162124634,Fri Feb 21 2025 16:34:47 GMT-0600 (Central Standard Time),932372.0,A,harp,O,p,216,1,1249.199999999255,931122.8000000007,7062,WL,A,8.0
7,16.394999980926514,immed,43605.000019073486,Fri Feb 21 2025 16:34:47 GMT-0600 (Central Standard Time),932971.8999999985,A,harpenter,O,enter,591,1,1849.0999999977648,931122.8000000007,7062,WL,A,8.0
7,17.562000036239624,immed,42437.999963760376,Fri Feb 21 2025 16:34:47 GMT-0600 (Central Standard Time),934138.1999999993,A,g,O,g,1160,1,1166.0,932972.1999999993,7062,WL,A,9.0
7,17.744999885559082,immed,42255.00011444092,Fri Feb 21 2025 16:34:47 GMT-0600 (Central Standard Time),934321.3999999985,A,go,O,o,176,1,1349.199999999255,932972.1999999993,7062,WL,A,9.0
7,18.060999870300293,immed,41939.00012969971,Fri Feb 21 2025 16:34:47 GMT-0600 (Central Standard Time),934638.0,A,gol,O,l,305,1,1665.800000000745,932972.1999999993,7062,WL,A,9.0
7,18.477999925613403,immed,41522.0000743866,Fri Feb 21 2025 16:34:47 GMT-0600 (Central Standard Time),935054.5,A,gold,O,d,396,1,2082.300000000745,932972.1999999993,7062,WL,A,9.0
7,18.727999925613403,immed,41272.0000743866,Fri Feb 21 2025 16:34:47 GMT-0600 (Central Standard Time),935304.5999999978,A,goldenter,O,enter,237,1,2332.39999999851,932972.1999999993,7062,WL,A,9.0
7,19.710999965667725,immed,40289.000034332275,Fri Feb 21 2025 16:34:47 GMT-0600 (Central Standard Time),936287.5,A,f,O,f,970,1,982.6999999992549,935304.8000000007,7062,WL,A,10.0
7,19.876999855041504,immed,40123.000144958496,Fri Feb 21 2025 16:34:47 GMT-0600 (Central Standard Time),936454.0999999978,A,fi,O,i,147,1,1149.2999999970198,935304.8000000007,7062,WL,A,10.0
7,20.026999950408936,immed,39973.000049591064,Fri Feb 21 2025 16:34:47 GMT-0600 (Central Standard Time),936604.0999999978,A,fin,O,n,141,1,1299.2999999970198,935304.8000000007,7062,WL,A,10.0
7,21.376999855041504,immed,38623.000144958496,Fri Feb 21 2025 16:34:47 GMT-0600 (Central Standard Time),937953.5,A,fing,O,g,1335,1,2648.699999999255,935304.8000000007,7062,WL,A,10.0
7,21.55999994277954,immed,38440.00005722046,Fri Feb 21 2025 16:34:47 GMT-0600 (Central Standard Time),938136.5999999978,A,finge,O,e,177,1,2831.7999999970198,935304.8000000007,7062,WL,A,10.0
7,21.710000038146973,immed,38289.99996185303,Fri Feb 21 2025 16:34:47 GMT-0600 (Central Standard Time),938287.0,A,finger,O,r,130,1,2982.199999999255,935304.8000000007,7062,WL,A,10.0
7,22.359999895095825,immed,37640.000104904175,Fri Feb 21 2025 16:34:47 GMT-0600 (Central Standard Time),938936.5,A,fingerenter,O,enter,643,1,3631.699999999255,935304.8000000007,7062,WL,A,10.0
7,26.70899987220764,immed,33291.00012779236,Fri Feb 21 2025 16:34:47 GMT-0600 (Central Standard Time),943285.3000000007,A,r,O,r,4330,1,4348.5,938936.8000000007,7062,WL,A,11.0
7,26.908999919891357,immed,33091.00008010864,Fri Feb 21 2025 16:34:47 GMT-0600 (Central Standard Time),943485.3000000007,A,ru,O,u,181,1,4548.5,938936.8000000007,7062,WL,A,11.0
7,27.14199995994568,immed,32858.00004005432,Fri Feb 21 2025 16:34:47 GMT-0600 (Central Standard Time),943718.5999999978,A,rug,O,g,221,1,4781.79999999702,938936.8000000007,7062,WL,A,11.0
7,28.641000032424927,immed,31358.999967575073,Fri Feb 21 2025 16:34:47 GMT-0600 (Central Standard Time),945218.0999999978,A,rugenter,O,enter,1485,1,6281.29999999702,938936.8000000007,7062,WL,A,11.0
7,35.52199983596802,immed,24478.000164031982,Fri Feb 21 2025 16:34:47 GMT-0600 (Central Standard Time),952099.0999999978,A,g,O,g,6866,1,6880.79999999702,945218.3000000007,7062,WL,A,12.0
7,35.605000019073486,immed,24394.999980926514,Fri Feb 21 2025 16:34:47 GMT-0600 (Central Standard Time),952182.5999999978,A,go,O,o,63,1,6964.29999999702,945218.3000000007,7062,WL,A,12.0
7,35.787999868392944,immed,24212.000131607056,Fri Feb 21 2025 16:34:47 GMT-0600 (Central Standard Time),952366.0,A,gol,O,l,165,1,7147.699999999255,945218.3000000007,7062,WL,A,12.0
7,35.88800001144409,immed,24111.99998855591,Fri Feb 21 2025 16:34:47 GMT-0600 (Central Standard Time),952465.8999999985,A,gold,O,d,93,1,7247.599999997765,945218.3000000007,7062,WL,A,12.0
7,39.437000036239624,immed,20562.999963760376,Fri Feb 21 2025 16:34:47 GMT-0600 (Central Standard Time),956014.5,A,goldenter,O,enter,3529,1,10796.199999999255,945218.3000000007,7062,WL,A,12.0
7,52.81599998474121,immed,7184.000015258789,Fri Feb 21 2025 16:34:47 GMT-0600 (Central Standard Time),969394.0,A,enter,O,enter,13373,1,13379.10000000149,956014.8999999985,7062,WL,A,13.0
7,57.014999866485596,immed,2985.0001335144043,Fri Feb 21 2025 16:34:47 GMT-0600 (Central Standard Time),973592.5,A,enter,O,enter,4184,1,4198.199999999255,969394.3000000007,7062,WL,A,14.0
7,59.930999994277954,immed,69.0000057220459,Fri Feb 21 2025 16:34:47 GMT-0600 (Central Standard Time),976508.3000000007,A,enter,O,enter,2907,1,2915.400000002235,973592.8999999985,7062,WL,A,15.0
