acc_sum,block,block_c,condition,correct,correct_response,datetime,endtime,flanker,jitter,project,response,response_test_buffer_response,response_test_target_response,response_time,response_time_test_buffer_response,response_time_test_target_response,row_sel,session_number,start_end,starttime,subject_id,target,task,task_vers,time_test_buffer,time_test_buffer_response,time_test_constants,time_test_flanker,time_test_jitter,time_test_logger,time_test_target,time_test_target_response,time_test_variables,trial
1,prac,1,con,1,m,Thu Dec 12 2024 16:40:24 GMT-0600 (Central Standard Time),96442.40000000037,jacket,800,I,m,,,538,,,5,2,2644.300000000745,93798.09999999963,8006,jacket,AF,A,,,,,,,,,,1
2,prac,1,inc,1,z,Thu Dec 12 2024 16:40:24 GMT-0600 (Central Standard Time),99075.0,rock,900,I,z,,,421,,,10,2,2628.0,96447.0,8006,kind,AF,A,,,,,,,,,,2
3,prac,1,inc,1,m,Thu Dec 12 2024 16:40:24 GMT-0600 (Central Standard Time),101790.79999999981,elated,900,I,m,,,501,,,6,2,2711.399999999441,99079.40000000037,8006,napkin,AF,A,,,,,,,,,,3
4,prac,1,inc,1,z,Thu Dec 12 2024 16:40:24 GMT-0600 (Central Standard Time),104506.59999999963,film,900,I,z,,,504,,,14,2,2711.399999999441,101795.20000000019,8006,hate,AF,A,,,,,,,,,,4
5,prac,1,inc,1,m,Thu Dec 12 2024 16:40:24 GMT-0600 (Central Standard Time),107155.90000000037,kind,900,I,m,,,445,,,2,2,2644.9000000003725,104511.0,8006,rock,AF,A,,,,,,,,,,5
6,prac,1,inc,1,z,Thu Dec 12 2024 16:40:24 GMT-0600 (Central Standard Time),110021.5,napkin,1100,I,z,,,460,,,12,2,2861.2999999998137,107160.20000000019,8006,friend,AF,A,,,,,,,,,,6
6,prac,1,con,0,z,Thu Dec 12 2024 16:40:24 GMT-0600 (Central Standard Time),112853.90000000037,rage,1000,I,m,,,526,,,15,2,2828.2000000001863,110025.70000000019,8006,rage,AF,A,,,,,,,,,,7
7,prac,1,inc,1,m,Thu Dec 12 2024 16:40:24 GMT-0600 (Central Standard Time),115852.90000000037,hate,1100,I,m,,,599,,,4,2,2993.300000000745,112859.59999999963,8006,film,AF,A,,,,,,,,,,8
7,prac,1,con,0,z,Thu Dec 12 2024 16:40:24 GMT-0600 (Central Standard Time),118568.59999999963,brutal,800,I,m,,,599,,,13,2,2711.399999999441,115857.20000000019,8006,brutal,AF,A,,,,,,,,,,9
8,prac,1,inc,1,z,Thu Dec 12 2024 16:40:24 GMT-0600 (Central Standard Time),121567.90000000037,window,1100,I,z,,,582,,,16,2,2994.7000000001863,118573.20000000019,8006,temper,AF,A,,,,,,,,,,10
9,prac,1,con,1,m,Thu Dec 12 2024 16:40:24 GMT-0600 (Central Standard Time),124467.09999999963,bell,1000,I,m,,,588,,,3,2,2894.0999999996275,121573.0,8006,bell,AF,A,,,,,,,,,,11
10,prac,1,inc,1,m,Thu Dec 12 2024 16:40:24 GMT-0600 (Central Standard Time),127415.90000000037,brutal,1100,I,m,,,533,,,8,2,2944.4000000003725,124471.5,8006,window,AF,A,,,,,,,,,,12
11,prac,1,con,1,m,Thu Dec 12 2024 16:40:24 GMT-0600 (Central Standard Time),130265.20000000019,remote,1000,I,m,,,540,,,7,2,2845.100000000559,127420.09999999963,8006,remote,AF,A,,,,,,,,,,13
12,prac,1,con,1,z,Thu Dec 12 2024 16:40:24 GMT-0600 (Central Standard Time),132914.0,elated,800,I,z,,,547,,,9,2,2645.0,130269.0,8006,elated,AF,A,,,,,,,,,,14
13,prac,1,con,1,z,Thu Dec 12 2024 16:40:24 GMT-0600 (Central Standard Time),135580.0,love,1000,I,z,,,362,,,11,2,2661.4000000003725,132918.59999999963,8006,love,AF,A,,,,,,,,,,15
14,prac,1,con,1,m,Thu Dec 12 2024 16:40:24 GMT-0600 (Central Standard Time),138229.5,step,800,I,m,,,536,,,1,2,2644.9000000003725,135584.59999999963,8006,step,AF,A,,,,,,,,,,16
1,test,1,inc,1,m,Thu Dec 12 2024 16:40:24 GMT-0600 (Central Standard Time),143460.90000000037,rage,800,I,m,m,None,453,239.0,214.0,77,2,1795.7000000001863,141665.2000000002,8006,rock,AF,A,141432,141432,139886,140700,139888,141682,141218,141218,141682,1
2,test,1,inc,1,m,Thu Dec 12 2024 16:40:24 GMT-0600 (Central Standard Time),145360.40000000037,kind,900,I,m,m,None,459,260.0,199.0,94,2,1894.7000000001863,143465.7000000002,8006,film,AF,A,143315,143315,141687,142599,141688,143581,143116,143116,143581,2
3,test,1,con,1,z,Thu Dec 12 2024 16:40:24 GMT-0600 (Central Standard Time),147193.0,brutal,900,I,z,z,None,392,193.0,199.0,34,2,1828.2000000001863,145364.7999999998,8006,brutal,AF,A,145214,145214,143586,144499,143587,145414,145015,145015,145414,3
4,test,1,con,1,m,Thu Dec 12 2024 16:40:24 GMT-0600 (Central Standard Time),149092.40000000037,step,1000,I,m,m,None,355,156.0,199.0,67,2,1895.5,147196.90000000037,8006,step,AF,A,147147,147147,145418,146431,145420,147314,146948,146948,147313,4
5,test,1,inc,1,m,Thu Dec 12 2024 16:40:24 GMT-0600 (Central Standard Time),150908.5,rage,800,I,m,m,None,479,264.0,215.0,69,2,1812.2000000001863,149096.2999999998,8006,step,AF,A,148863,148863,147317,148131,147319,149130,148648,148648,149130,5
6,test,1,inc,1,m,Thu Dec 12 2024 16:40:24 GMT-0600 (Central Standard Time),152892.2999999998,love,1000,I,m,m,None,447,232.0,215.0,95,2,1980.0,150912.2999999998,8006,film,AF,A,150879,150879,149133,150147,149135,151113,150664,150664,151113,6
7,test,1,con,1,m,Thu Dec 12 2024 16:40:24 GMT-0600 (Central Standard Time),154690.7999999998,jacket,900,I,m,m,None,357,158.0,199.0,98,2,1794.5999999996275,152896.2000000002,8006,jacket,AF,A,152745,152745,151117,152030,151119,152912,152546,152546,152912,7
8,test,1,con,1,m,Thu Dec 12 2024 16:40:24 GMT-0600 (Central Standard Time),156406.90000000037,rock,800,I,m,m,None,377,178.0,199.0,73,2,1712.2000000001863,154694.7000000002,8006,rock,AF,A,154445,154445,152916,153729,152917,154628,154246,154246,154628,8
9,test,1,con,1,z,Thu Dec 12 2024 16:40:24 GMT-0600 (Central Standard Time),158190.0,kind,900,I,z,z,None,337,138.0,199.0,10,2,1779.4000000003725,156410.59999999963,8006,kind,AF,A,156261,156261,154632,155545,154633,156411,156062,156062,156411,9
10,test,1,con,1,z,Thu Dec 12 2024 16:40:24 GMT-0600 (Central Standard Time),159956.09999999963,temper,900,I,z,z,None,321,106.0,215.0,58,2,1762.0999999996275,158194.0,8006,temper,AF,A,158061,158061,156415,157328,156416,158177,157845,157845,158177,10
11,test,1,inc,1,m,Thu Dec 12 2024 16:40:24 GMT-0600 (Central Standard Time),161922.0,kind,900,I,m,m,None,421,217.0,204.0,70,2,1961.7000000001863,159960.2999999998,8006,step,AF,A,159910,159910,158181,159094,158183,160143,159705,159705,160143,11
12,test,1,con,1,z,Thu Dec 12 2024 16:40:24 GMT-0600 (Central Standard Time),164037.7000000002,friend,1100,I,z,z,None,478,279.0,199.0,28,2,2111.5,161926.2000000002,8006,friend,AF,A,161976,161976,160147,161260,160148,162259,161777,161777,162259,12
13,test,1,con,1,z,Thu Dec 12 2024 16:40:24 GMT-0600 (Central Standard Time),165903.5,friend,1000,I,z,z,None,318,119.0,199.0,27,2,1862.0,164041.5,8006,friend,AF,A,163992,163992,162263,163276,162264,164125,163792,163792,164125,13
14,test,1,con,1,z,Thu Dec 12 2024 16:40:24 GMT-0600 (Central Standard Time),167586.7999999998,love,800,I,z,z,None,340,141.0,199.0,17,2,1679.0999999996275,165907.7000000002,8006,love,AF,A,165658,165658,164129,164943,164130,165808,165459,165459,165808,14
15,test,1,inc,1,m,Thu Dec 12 2024 16:40:24 GMT-0600 (Central Standard Time),169369.5,elated,800,I,m,m,None,433,234.0,199.0,125,2,1778.7999999998137,167590.7000000002,8006,window,AF,A,167341,167341,165812,166625,165813,167591,167142,167142,167590,15
16,test,1,inc,1,z,Thu Dec 12 2024 16:40:24 GMT-0600 (Central Standard Time),171385.5,napkin,900,I,z,z,None,575,375.0,200.0,38,2,2012.0,169373.5,8006,brutal,AF,A,169224,169224,167594,168508,167596,169607,169024,169024,169607,16
17,test,1,con,1,z,Thu Dec 12 2024 16:40:24 GMT-0600 (Central Standard Time),173085.09999999963,rage,800,I,z,z,None,353,138.0,215.0,49,2,1695.699999999255,171389.40000000037,8006,rage,AF,A,171157,171157,169610,170424,169612,171306,170941,170941,171306,17
18,test,1,con,1,z,Thu Dec 12 2024 16:40:24 GMT-0600 (Central Standard Time),174951.2000000002,elated,1000,I,z,z,None,319,120.0,199.0,3,2,1862.5,173088.7000000002,8006,elated,AF,A,173039,173039,171310,172323,171311,173172,172840,172840,173172,18
19,test,1,con,1,m,Thu Dec 12 2024 16:40:24 GMT-0600 (Central Standard Time),176733.90000000037,step,900,I,m,m,None,336,121.0,215.0,66,2,1779.1000000005588,174954.7999999998,8006,step,AF,A,174822,174822,173176,174089,173177,174955,174607,174607,174955,19
20,test,1,con,1,m,Thu Dec 12 2024 16:40:24 GMT-0600 (Central Standard Time),178766.40000000037,rock,1100,I,m,m,None,394,195.0,199.0,76,2,2028.800000000745,176737.59999999963,8006,rock,AF,A,176788,176788,174959,176072,174960,176987,176589,176589,176987,20
21,test,1,inc,1,z,Thu Dec 12 2024 16:40:24 GMT-0600 (Central Standard Time),180566.0,jacket,800,I,z,z,None,461,246.0,215.0,37,2,1795.7000000001863,178770.2999999998,8006,brutal,AF,A,178537,178537,176991,177804,176993,178787,178322,178322,178787,21
22,test,1,inc,1,z,Thu Dec 12 2024 16:40:24 GMT-0600 (Central Standard Time),182548.7000000002,bell,1000,I,z,z,None,446,246.0,200.0,23,2,1977.0,180571.7000000002,8006,love,AF,A,180521,180521,178793,179804,178794,180770,180321,180321,180770,22
23,test,1,inc,1,m,Thu Dec 12 2024 16:40:24 GMT-0600 (Central Standard Time),184631.40000000037,friend,1100,I,m,m,None,443,244.0,199.0,128,2,2077.9000000003725,182553.5,8006,window,AF,A,182603,182603,180774,181887,180776,182852,182404,182404,182852,23
24,test,1,inc,1,m,Thu Dec 12 2024 16:40:24 GMT-0600 (Central Standard Time),186530.7000000002,kind,900,I,m,m,None,464,265.0,199.0,86,2,1895.5,184635.2000000002,8006,bell,AF,A,184485,184486,182856,183770,182858,184752,184286,184286,184752,24
25,test,1,con,1,z,Thu Dec 12 2024 16:40:24 GMT-0600 (Central Standard Time),188413.5,brutal,800,I,z,z,None,537,338.0,199.0,33,2,1879.0999999996275,186534.40000000037,8006,brutal,AF,A,186285,186285,184755,185569,184757,186635,186086,186086,186635,25
26,test,1,inc,1,z,Thu Dec 12 2024 16:40:24 GMT-0600 (Central Standard Time),190213.0,step,800,I,z,z,None,462,263.0,199.0,53,2,1795.7000000001863,188417.2999999998,8006,rage,AF,A,188167,188168,186638,187451,186640,188434,187968,187968,188434,26
27,test,1,con,1,m,Thu Dec 12 2024 16:40:24 GMT-0600 (Central Standard Time),192279.0,window,1100,I,m,m,None,427,228.0,199.0,124,2,2062.0999999996275,190216.90000000037,8006,window,AF,A,190267,190267,188438,189551,188439,190500,190068,190068,190500,27
28,test,1,inc,1,z,Thu Dec 12 2024 16:40:24 GMT-0600 (Central Standard Time),194311.59999999963,remote,1000,I,z,z,None,493,293.0,200.0,31,2,2028.5999999996275,192283.0,8006,friend,AF,A,192234,192234,190504,191517,190505,192533,192034,192034,192533,28
29,test,1,con,1,m,Thu Dec 12 2024 16:40:24 GMT-0600 (Central Standard Time),196161.2999999998,napkin,900,I,m,m,None,399,184.0,215.0,106,2,1845.8999999994412,194315.40000000037,8006,napkin,AF,A,194183,194183,192536,193450,192538,194382,193967,193967,194382,29
30,test,1,con,1,m,Thu Dec 12 2024 16:40:24 GMT-0600 (Central Standard Time),197994.09999999963,bell,900,I,m,m,None,382,183.0,199.0,82,2,1829.2999999998137,196164.7999999998,8006,bell,AF,A,196016,196016,194386,195299,194387,196215,195817,195817,196215,30
31,test,1,inc,1,m,Thu Dec 12 2024 16:40:24 GMT-0600 (Central Standard Time),200126.40000000037,friend,1100,I,m,m,None,494,295.0,199.0,104,2,2128.7000000001863,197997.7000000002,8006,jacket,AF,A,198048,198048,196219,197332,196220,198348,197849,197849,198347,31
32,test,1,inc,1,m,Thu Dec 12 2024 16:40:24 GMT-0600 (Central Standard Time),201909.2999999998,rage,800,I,m,m,None,444,229.0,215.0,85,2,1779.0,200130.2999999998,8006,bell,AF,A,199898,199898,198351,199165,198353,200130,199682,199682,200130,32
33,test,1,inc,1,z,Thu Dec 12 2024 16:40:24 GMT-0600 (Central Standard Time),203841.90000000037,bell,1000,I,z,z,None,390,191.0,199.0,55,2,1929.0,201912.90000000037,8006,rage,AF,A,201864,201864,200134,201147,200135,202063,201664,201664,202063,33
34,test,1,inc,1,m,Thu Dec 12 2024 16:40:24 GMT-0600 (Central Standard Time),205574.90000000037,rage,800,I,m,m,None,386,187.0,199.0,93,2,1729.4000000003725,203845.5,8006,film,AF,A,203596,203596,202067,202880,202068,203796,203397,203397,203796,34
35,test,1,inc,1,z,Thu Dec 12 2024 16:40:24 GMT-0600 (Central Standard Time),207424.40000000037,napkin,900,I,z,z,None,401,202.0,199.0,30,2,1845.9000000003725,205578.5,8006,friend,AF,A,205429,205429,203800,204713,203801,205645,205230,205230,205645,35
36,test,1,inc,1,z,Thu Dec 12 2024 16:40:24 GMT-0600 (Central Standard Time),209206.90000000037,step,800,I,z,z,None,435,236.0,199.0,13,2,1778.800000000745,207428.09999999963,8006,kind,AF,A,207179,207179,205649,206463,205650,207428,206979,206979,207428,36
37,test,1,con,1,m,Thu Dec 12 2024 16:40:24 GMT-0600 (Central Standard Time),211056.2999999998,remote,900,I,m,m,None,401,202.0,199.0,114,2,1845.7000000001863,209210.59999999963,8006,remote,AF,A,209061,209061,207432,208345,207433,209277,208862,208862,209277,37
37,test,1,inc,0,m,Thu Dec 12 2024 16:40:24 GMT-0600 (Central Standard Time),213089.09999999963,friend,1100,I,z,z,None,391,192.0,199.0,120,2,2029.0999999996275,211060.0,8006,remote,AF,A,211111,211111,209281,210395,209282,211310,210911,210911,211310,38
38,test,1,con,1,z,Thu Dec 12 2024 16:40:24 GMT-0600 (Central Standard Time),214788.59999999963,kind,800,I,z,z,None,355,156.0,199.0,9,2,1695.5999999996275,213093.0,8006,kind,AF,A,212843,212843,211314,212127,211315,213010,212644,212644,213010,39
39,test,1,con,1,m,Thu Dec 12 2024 16:40:24 GMT-0600 (Central Standard Time),216788.0,napkin,1100,I,m,m,None,363,148.0,215.0,108,2,1995.5999999996275,214792.40000000037,8006,napkin,AF,A,214859,214859,213013,214127,213015,215009,214644,214644,215009,40
40,test,1,inc,1,m,Thu Dec 12 2024 16:40:24 GMT-0600 (Central Standard Time),218570.59999999963,elated,800,I,m,m,None,448,249.0,199.0,101,2,1779.0999999996275,216791.5,8006,jacket,AF,A,216542,216542,215013,215826,215014,216792,216343,216343,216792,41
41,test,1,inc,1,m,Thu Dec 12 2024 16:40:24 GMT-0600 (Central Standard Time),220753.7000000002,hate,1100,I,m,m,None,533,334.0,199.0,88,2,2179.600000000559,218574.09999999963,8006,bell,AF,A,218625,218625,216795,217909,216796,218975,218426,218426,218975,42
42,test,1,inc,1,m,Thu Dec 12 2024 16:40:24 GMT-0600 (Central Standard Time),222736.09999999963,temper,1000,I,m,m,None,434,219.0,215.0,111,2,1978.7999999998137,220757.2999999998,8006,napkin,AF,A,220724,220724,218978,219992,218980,220957,220509,220509,220957,43
43,test,1,inc,1,z,Thu Dec 12 2024 16:40:24 GMT-0600 (Central Standard Time),224802.2000000002,remote,1000,I,z,z,None,516,317.0,199.0,63,2,2062.4000000003725,222739.7999999998,8006,temper,AF,A,222690,222690,220961,221974,220962,223023,222491,222491,223023,44
44,test,1,con,1,z,Thu Dec 12 2024 16:40:24 GMT-0600 (Central Standard Time),226685.0,temper,800,I,z,z,None,546,347.0,199.0,57,2,1879.0999999996275,224805.90000000037,8006,temper,AF,A,224556,224556,223027,223840,223028,224906,224357,224357,224906,45
45,test,1,con,1,m,Thu Dec 12 2024 16:40:24 GMT-0600 (Central Standard Time),228467.7000000002,film,900,I,m,m,None,347,148.0,199.0,90,2,1779.0,226688.7000000002,8006,film,AF,A,226539,226539,224910,225823,224911,226689,226340,226340,226689,46
46,test,1,inc,1,z,Thu Dec 12 2024 16:40:24 GMT-0600 (Central Standard Time),230333.90000000037,rock,900,I,z,z,None,419,204.0,215.0,46,2,1862.4000000003725,228471.5,8006,hate,AF,A,228339,228339,226693,227606,226694,228555,228123,228123,228555,47
47,test,1,con,1,z,Thu Dec 12 2024 16:40:24 GMT-0600 (Central Standard Time),232416.2000000002,love,1100,I,z,z,None,373,169.0,204.0,20,2,2078.7999999998137,230337.40000000037,8006,love,AF,A,230454,230454,228558,229672,228560,230637,230250,230250,230637,48
48,test,1,inc,1,z,Thu Dec 12 2024 16:40:24 GMT-0600 (Central Standard Time),234482.40000000037,window,1100,I,z,z,None,432,233.0,199.0,40,2,2062.600000000559,232419.7999999998,8006,brutal,AF,A,232470,232470,230641,231755,230642,232704,232271,232271,232703,49
49,test,1,con,1,z,Thu Dec 12 2024 16:40:24 GMT-0600 (Central Standard Time),236365.0,rage,1000,I,z,z,None,338,139.0,199.0,51,2,1879.2000000001863,234485.7999999998,8006,rage,AF,A,234436,234436,232707,233721,232708,234586,234237,234237,234586,50
50,test,1,con,1,z,Thu Dec 12 2024 16:40:24 GMT-0600 (Central Standard Time),238381.2000000002,rage,1100,I,z,z,None,379,180.0,199.0,52,2,2012.2999999998137,236368.90000000037,8006,rage,AF,A,236419,236419,234590,235703,234591,236602,236220,236220,236602,51
51,test,1,con,1,m,Thu Dec 12 2024 16:40:24 GMT-0600 (Central Standard Time),240197.2999999998,film,800,I,m,m,None,470,271.0,199.0,89,2,1812.5999999996275,238384.7000000002,8006,film,AF,A,238135,238136,236606,237420,236607,238418,237936,237936,238418,52
52,test,1,con,1,z,Thu Dec 12 2024 16:40:24 GMT-0600 (Central Standard Time),242230.09999999963,love,1000,I,z,z,None,486,287.0,199.0,19,2,2028.699999999255,240201.40000000037,8006,love,AF,A,240152,240152,238422,239436,238424,240451,239952,239952,240451,53
53,test,1,inc,1,m,Thu Dec 12 2024 16:40:24 GMT-0600 (Central Standard Time),244162.59999999963,kind,900,I,m,m,None,498,299.0,199.0,78,2,1929.0,242233.59999999963,8006,rock,AF,A,242084,242084,240455,241369,240456,242384,241885,241885,242384,54
54,test,1,inc,1,z,Thu Dec 12 2024 16:40:24 GMT-0600 (Central Standard Time),246295.5,film,1100,I,z,z,None,485,286.0,199.0,48,2,2129.0,244166.5,8006,hate,AF,A,244217,244217,242388,243501,242389,244517,244018,244018,244517,55
55,test,1,con,1,z,Thu Dec 12 2024 16:40:24 GMT-0600 (Central Standard Time),248527.7999999998,temper,1100,I,z,z,None,593,394.0,199.0,60,2,2228.2000000001863,246299.59999999963,8006,temper,AF,A,246349,246349,244521,245634,244522,246749,246150,246150,246749,56
56,test,1,inc,1,m,Thu Dec 12 2024 16:40:24 GMT-0600 (Central Standard Time),250394.2999999998,brutal,900,I,m,m,None,432,233.0,199.0,126,2,1862.7000000001863,248531.59999999963,8006,window,AF,A,248382,248382,246753,247666,246754,248615,248183,248183,248615,57
57,test,1,con,1,m,Thu Dec 12 2024 16:40:24 GMT-0600 (Central Standard Time),252410.0,rock,900,I,m,m,None,567,368.0,199.0,74,2,2012.2999999998137,250397.7000000002,8006,rock,AF,A,250248,250248,248619,249532,248620,250631,250049,250049,250631,58
58,test,1,inc,1,z,Thu Dec 12 2024 16:40:24 GMT-0600 (Central Standard Time),254309.5,napkin,900,I,z,z,None,454,255.0,199.0,62,2,1896.0999999996275,252413.40000000037,8006,temper,AF,A,252264,252264,250634,251549,250636,252531,252065,252065,252531,59
59,test,1,con,1,m,Thu Dec 12 2024 16:40:24 GMT-0600 (Central Standard Time),256092.2999999998,napkin,800,I,m,m,None,436,223.0,213.0,105,2,1779.2000000001863,254313.09999999963,8006,napkin,AF,A,254080,254080,252534,253348,252535,254313,253867,253867,254313,60
60,test,1,inc,1,z,Thu Dec 12 2024 16:40:24 GMT-0600 (Central Standard Time),257991.7999999998,step,800,I,z,z,None,552,353.0,199.0,45,2,1895.8999999994412,256095.90000000037,8006,hate,AF,A,255846,255846,254317,255130,254318,256213,255647,255647,256213,61
61,test,1,con,1,z,Thu Dec 12 2024 16:40:24 GMT-0600 (Central Standard Time),259741.2000000002,friend,900,I,z,z,None,312,113.0,199.0,26,2,1745.6000000005588,257995.59999999963,8006,friend,AF,A,257846,257846,256217,257130,256218,257962,257647,257647,257962,62
62,test,1,inc,1,m,Thu Dec 12 2024 16:40:24 GMT-0600 (Central Standard Time),261690.40000000037,love,1000,I,m,m,None,415,215.0,200.0,71,2,1945.6000000005588,259744.7999999998,8006,step,AF,A,259696,259696,257966,258979,257967,259911,259496,259496,259911,63
62,test,1,inc,0,z,Thu Dec 12 2024 16:40:24 GMT-0600 (Central Standard Time),263556.7000000002,napkin,900,I,m,m,None,429,230.0,199.0,6,2,1862.9000000003725,261693.7999999998,8006,elated,AF,A,261545,261545,259915,260829,259916,261778,261346,261346,261778,64
63,test,1,inc,1,m,Thu Dec 12 2024 16:40:24 GMT-0600 (Central Standard Time),265672.7000000002,hate,1100,I,m,m,None,467,252.0,215.0,96,2,2112.2999999998137,263560.4000000004,8006,film,AF,A,263627,263627,261781,262895,261783,263894,263412,263412,263894,65
64,test,1,inc,1,m,Thu Dec 12 2024 16:40:24 GMT-0600 (Central Standard Time),267638.9000000004,temper,1000,I,m,m,None,427,228.0,199.0,103,2,1962.5,265676.4000000004,8006,jacket,AF,A,265627,265627,263897,264911,263899,265860,265428,265428,265860,66
65,test,1,inc,1,m,Thu Dec 12 2024 16:40:24 GMT-0600 (Central Standard Time),269638.2999999998,brutal,900,I,m,m,None,559,345.0,214.0,102,2,1995.2999999998137,267643.0,8006,jacket,AF,A,267510,267510,265864,266777,265865,267859,267295,267295,267859,67
66,test,1,con,1,m,Thu Dec 12 2024 16:40:24 GMT-0600 (Central Standard Time),271904.0,step,1100,I,m,m,None,626,427.0,199.0,68,2,2261.7999999998137,269642.2000000002,8006,step,AF,A,269692,269692,267863,268976,267865,270125,269493,269493,270125,68
67,test,1,inc,1,z,Thu Dec 12 2024 16:40:24 GMT-0600 (Central Standard Time),273953.5,film,1100,I,z,z,None,400,201.0,199.0,56,2,2045.7000000001863,271907.7999999998,8006,rage,AF,A,271958,271958,270129,271242,270130,272175,271759,271759,272174,69
68,test,1,con,1,z,Thu Dec 12 2024 16:40:24 GMT-0600 (Central Standard Time),275986.0999999996,love,900,I,z,z,None,582,367.0,215.0,18,2,2028.8999999994412,273957.2000000002,8006,love,AF,A,273824,273824,272178,273092,272180,274207,273609,273609,274207,70
69,test,1,con,1,m,Thu Dec 12 2024 16:40:24 GMT-0600 (Central Standard Time),278002.2999999998,film,1100,I,m,m,None,382,183.0,199.0,92,2,2012.5,275989.7999999998,8006,film,AF,A,276040,276040,274211,275324,274212,276223,275841,275841,276223,71
70,test,1,inc,1,m,Thu Dec 12 2024 16:40:24 GMT-0600 (Central Standard Time),280001.5,temper,1000,I,m,m,None,450,251.0,199.0,127,2,1995.7999999998137,278005.7000000002,8006,window,AF,A,277956,277956,276227,277247,276228,278223,277757,277757,278223,72
71,test,1,con,1,m,Thu Dec 12 2024 16:40:24 GMT-0600 (Central Standard Time),282150.7000000002,remote,1100,I,m,m,None,510,295.0,215.0,116,2,2145.7000000001863,280005.0,8006,remote,AF,A,280072,280072,278226,279341,278227,280372,279856,279857,280372,73
72,test,1,inc,1,m,Thu Dec 12 2024 16:40:24 GMT-0600 (Central Standard Time),284117.0,love,1000,I,m,m,None,429,230.0,199.0,79,2,1962.9000000003725,282154.0999999996,8006,rock,AF,A,282105,282105,280375,281389,280376,282338,281906,281906,282338,74
73,test,1,inc,1,z,Thu Dec 12 2024 16:40:24 GMT-0600 (Central Standard Time),285899.5,step,800,I,z,z,None,447,248.0,199.0,21,2,1779.0,284120.5,8006,love,AF,A,283871,283871,282342,283155,282343,284121,283672,283672,284121,75
74,test,1,inc,1,z,Thu Dec 12 2024 16:40:24 GMT-0600 (Central Standard Time),287915.7000000002,bell,1000,I,z,z,None,472,257.0,215.0,15,2,2012.2000000001863,285903.5,8006,kind,AF,A,285870,285870,284125,285138,284126,286137,285655,285655,286137,76
75,test,1,con,1,z,Thu Dec 12 2024 16:40:24 GMT-0600 (Central Standard Time),289765.0999999996,elated,800,I,z,z,None,504,305.0,199.0,1,2,1845.5999999996275,287919.5,8006,elated,AF,A,287670,287670,286141,286954,286142,287986,287471,287471,287986,77
76,test,1,con,1,z,Thu Dec 12 2024 16:40:24 GMT-0600 (Central Standard Time),291581.2000000002,elated,900,I,z,z,None,379,180.0,199.0,2,2,1812.1000000005588,289769.0999999996,8006,elated,AF,A,289619,289619,287990,288903,287991,289802,289420,289420,289802,78
77,test,1,con,1,z,Thu Dec 12 2024 16:40:24 GMT-0600 (Central Standard Time),293547.2000000002,brutal,1100,I,z,z,None,331,132.0,199.0,36,2,1962.2000000001863,291585.0,8006,brutal,AF,A,291635,291635,289806,290920,289807,291768,291436,291436,291768,79
78,test,1,con,1,m,Thu Dec 12 2024 16:40:24 GMT-0600 (Central Standard Time),295480.0999999996,film,1000,I,m,m,None,384,185.0,199.0,91,2,1929.2999999998137,293550.7999999998,8006,film,AF,A,293502,293502,291772,292786,291773,293701,293302,293302,293701,80
79,test,1,inc,1,m,Thu Dec 12 2024 16:40:24 GMT-0600 (Central Standard Time),297329.4000000004,brutal,900,I,m,m,None,408,209.0,199.0,110,2,1845.6000000005588,295483.7999999998,8006,napkin,AF,A,295334,295334,293705,294618,293706,295550,295135,295135,295550,81
80,test,1,inc,1,m,Thu Dec 12 2024 16:40:24 GMT-0600 (Central Standard Time),299245.5,brutal,900,I,m,m,None,471,271.0,200.0,118,2,1912.2999999998137,297333.2000000002,8006,remote,AF,A,297184,297184,295554,296468,295556,297467,296984,296984,297466,82
81,test,1,con,1,z,Thu Dec 12 2024 16:40:24 GMT-0600 (Central Standard Time),301146.0,hate,900,I,z,z,None,450,235.0,215.0,42,2,1896.7999999998137,299249.2000000002,8006,hate,AF,A,299116,299116,297470,298384,297472,299367,298901,298901,299367,83
82,test,1,inc,1,z,Thu Dec 12 2024 16:40:24 GMT-0600 (Central Standard Time),303211.0,remote,1000,I,z,z,None,530,324.0,206.0,39,2,2061.2000000001863,301149.7999999998,8006,brutal,AF,A,301099,301099,299371,300383,299372,301432,300893,300893,301432,84
83,test,1,inc,1,m,Thu Dec 12 2024 16:40:24 GMT-0600 (Central Standard Time),305327.0999999996,hate,1100,I,m,m,None,477,278.0,199.0,72,2,2112.2999999998137,303214.7999999998,8006,step,AF,A,303265,303265,301436,302550,301437,303548,303066,303066,303548,85
84,test,1,inc,1,z,Thu Dec 12 2024 16:40:24 GMT-0600 (Central Standard Time),307276.2999999998,rock,900,I,z,z,None,505,306.0,199.0,54,2,1945.7000000001863,305330.5999999996,8006,rage,AF,A,305181,305181,303552,304465,303553,305497,304982,304982,305497,86
85,test,1,con,1,m,Thu Dec 12 2024 16:40:24 GMT-0600 (Central Standard Time),309275.5999999996,napkin,1000,I,m,m,None,463,264.0,199.0,107,2,1995.5999999996275,307280.0,8006,napkin,AF,A,307231,307231,305501,306515,305502,307497,307031,307031,307497,87
86,test,1,con,1,m,Thu Dec 12 2024 16:40:24 GMT-0600 (Central Standard Time),311225.4000000004,bell,1000,I,m,m,None,407,192.0,215.0,83,2,1946.2000000001863,309279.2000000002,8006,bell,AF,A,309247,309247,307500,308514,307502,309446,309031,309031,309446,88
87,test,1,con,1,m,Thu Dec 12 2024 16:40:24 GMT-0600 (Central Standard Time),313174.5,remote,1000,I,m,m,None,403,204.0,199.0,115,2,1945.4000000003725,311229.0999999996,8006,remote,AF,A,311179,311179,309450,310463,309451,311396,310980,310980,311395,89
88,test,1,con,1,z,Thu Dec 12 2024 16:40:24 GMT-0600 (Central Standard Time),315057.2000000002,rage,900,I,z,z,None,433,218.0,215.0,50,2,1879.2000000001863,313178.0,8006,rage,AF,A,313045,313045,311399,312313,311400,313278,312830,312830,313278,90
89,test,1,inc,1,z,Thu Dec 12 2024 16:40:24 GMT-0600 (Central Standard Time),316923.2000000002,jacket,800,I,z,z,None,531,332.0,199.0,5,2,1862.5,315060.7000000002,8006,elated,AF,A,314811,314811,313282,314096,313283,315144,314612,314612,315144,91
90,test,1,inc,1,z,Thu Dec 12 2024 16:40:24 GMT-0600 (Central Standard Time),318939.4000000004,remote,1000,I,z,z,None,473,273.0,200.0,7,2,2012.5,316926.9000000004,8006,elated,AF,A,316878,316878,315148,316162,315149,317160,316678,316678,317160,92
91,test,1,con,1,m,Thu Dec 12 2024 16:40:24 GMT-0600 (Central Standard Time),320972.0,jacket,1100,I,m,m,None,397,198.0,199.0,100,2,2029.0,318943.0,8006,jacket,AF,A,318993,318993,317164,318277,317165,319193,318794,318794,319193,93
92,test,1,con,1,m,Thu Dec 12 2024 16:40:24 GMT-0600 (Central Standard Time),323021.4000000004,bell,1100,I,m,m,None,412,213.0,199.0,84,2,2045.800000000745,320975.5999999996,8006,bell,AF,A,321026,321026,319197,320310,319198,321242,320827,320827,321242,94
93,test,1,con,1,z,Thu Dec 12 2024 16:40:24 GMT-0600 (Central Standard Time),324937.7000000002,hate,1000,I,z,z,None,367,168.0,199.0,43,2,1912.6000000005588,323025.0999999996,8006,hate,AF,A,322975,322975,321246,322260,321247,323159,322776,322776,323159,95
94,test,1,inc,1,m,Thu Dec 12 2024 16:40:24 GMT-0600 (Central Standard Time),327003.4000000004,hate,1100,I,m,m,None,406,207.0,199.0,80,2,2062.0,324941.4000000004,8006,rock,AF,A,325008,325008,323162,324306,323164,325225,324809,324809,325224,96
95,test,1,inc,1,m,Thu Dec 12 2024 16:40:24 GMT-0600 (Central Standard Time),328969.5,love,1000,I,m,m,None,424,209.0,215.0,87,2,1962.5999999996275,327006.9000000004,8006,bell,AF,A,326974,326974,325228,326242,325229,327191,326759,326759,327190,97
96,test,1,con,1,z,Thu Dec 12 2024 16:40:24 GMT-0600 (Central Standard Time),330652.4000000004,friend,800,I,z,z,None,346,147.0,199.0,25,2,1679.5,328972.9000000004,8006,friend,AF,A,328724,328724,327194,328008,327195,328873,328525,328525,328873,98
97,test,1,con,1,z,Thu Dec 12 2024 16:40:24 GMT-0600 (Central Standard Time),332535.0999999996,brutal,1000,I,z,z,None,343,128.0,215.0,35,2,1878.8999999994412,330656.2000000002,8006,brutal,AF,A,330623,330623,328877,329891,328878,330756,330408,330408,330756,99
98,test,1,con,1,m,Thu Dec 12 2024 16:40:24 GMT-0600 (Central Standard Time),334268.0,jacket,800,I,m,m,None,389,190.0,199.0,97,2,1729.0999999996275,332538.9000000004,8006,jacket,AF,A,332289,332289,330760,331573,330761,332489,332090,332090,332489,100
99,test,1,con,1,z,Thu Dec 12 2024 16:40:24 GMT-0600 (Central Standard Time),336234.0,kind,1100,I,z,z,None,324,125.0,199.0,12,2,1962.5999999996275,334271.4000000004,8006,kind,AF,A,334322,334322,332492,333606,332494,334455,334123,334123,334455,101
100,test,1,inc,1,z,Thu Dec 12 2024 16:40:24 GMT-0600 (Central Standard Time),338316.5,film,1100,I,z,z,None,438,239.0,199.0,24,2,2078.7999999998137,336237.7000000002,8006,love,AF,A,336288,336288,334459,335572,334460,336538,336089,336089,336538,102
101,test,1,inc,1,z,Thu Dec 12 2024 16:40:24 GMT-0600 (Central Standard Time),340466.0999999996,window,1100,I,z,z,None,499,300.0,199.0,8,2,2145.7999999998137,338320.2999999998,8006,elated,AF,A,338371,338371,336541,337655,336543,338687,338171,338171,338687,103
102,test,1,con,1,z,Thu Dec 12 2024 16:40:24 GMT-0600 (Central Standard Time),342448.7000000002,elated,1100,I,z,z,None,342,143.0,199.0,4,2,1979.0,340469.7000000002,8006,elated,AF,A,340520,340520,338691,339804,338692,340670,340321,340321,340670,104
103,test,1,con,1,m,Thu Dec 12 2024 16:40:24 GMT-0600 (Central Standard Time),344314.7000000002,window,900,I,m,m,None,423,208.0,215.0,122,2,1862.2000000001863,342452.5,8006,window,AF,A,342319,342319,340673,341587,340675,342536,342104,342104,342536,105
104,test,1,inc,1,z,Thu Dec 12 2024 16:40:24 GMT-0600 (Central Standard Time),346164.0,jacket,800,I,z,z,None,505,306.0,199.0,29,2,1845.5999999996275,344318.4000000004,8006,friend,AF,A,344069,344069,342539,343353,342541,344385,343870,343870,344385,106
105,test,1,con,1,z,Thu Dec 12 2024 16:40:24 GMT-0600 (Central Standard Time),348263.4000000004,hate,1100,I,z,z,None,452,253.0,199.0,44,2,2095.600000000559,346167.7999999998,8006,hate,AF,A,346218,346218,344389,345504,344390,346484,346019,346019,346484,107
106,test,1,inc,1,m,Thu Dec 12 2024 16:40:24 GMT-0600 (Central Standard Time),350313.0,friend,1100,I,m,m,None,407,193.0,214.0,112,2,2045.7000000001863,348267.2999999998,8006,napkin,AF,A,348334,348334,346488,347602,346490,348534,348120,348120,348534,108
107,test,1,inc,1,z,Thu Dec 12 2024 16:40:24 GMT-0600 (Central Standard Time),352462.2999999998,window,1100,I,z,z,None,503,304.0,199.0,64,2,2145.7000000001863,350316.5999999996,8006,temper,AF,A,350367,350367,348538,349651,348539,350683,350168,350168,350683,109
108,test,1,con,1,z,Thu Dec 12 2024 16:40:24 GMT-0600 (Central Standard Time),354378.4000000004,kind,1000,I,z,z,None,382,183.0,199.0,11,2,1912.4000000003725,352466.0,8006,kind,AF,A,352416,352416,350687,351700,350688,352599,352217,352217,352599,110
109,test,1,con,1,z,Thu Dec 12 2024 16:40:24 GMT-0600 (Central Standard Time),356277.7000000002,temper,1000,I,z,z,None,362,163.0,199.0,59,2,1895.6000000005588,354382.0999999996,8006,temper,AF,A,354332,354332,352603,353616,352605,354499,354133,354133,354499,111
110,test,1,con,1,m,Thu Dec 12 2024 16:40:24 GMT-0600 (Central Standard Time),358260.2999999998,jacket,1000,I,m,m,None,438,223.0,215.0,99,2,1979.0,356281.2999999998,8006,jacket,AF,A,356248,356248,354502,355516,354504,356481,356033,356033,356481,112
111,test,1,inc,1,m,Thu Dec 12 2024 16:40:24 GMT-0600 (Central Standard Time),360026.7999999998,elated,800,I,m,m,None,415,200.0,215.0,117,2,1762.7999999998137,358264.0,8006,remote,AF,A,358031,358031,356485,357299,356486,358248,357816,357816,358248,113
112,test,1,inc,1,z,Thu Dec 12 2024 16:40:24 GMT-0600 (Central Standard Time),362042.5,film,1100,I,z,z,None,381,166.0,215.0,16,2,2012.2999999998137,360030.2000000002,8006,kind,AF,A,360097,360097,358251,359365,358252,360264,359881,359882,360263,114
113,test,1,con,1,m,Thu Dec 12 2024 16:40:24 GMT-0600 (Central Standard Time),363825.0999999996,remote,800,I,m,m,None,434,219.0,215.0,113,2,1779.199999999255,362045.9000000004,8006,remote,AF,A,361813,361813,360267,361081,360268,362046,361598,361598,362046,115
114,test,1,con,1,m,Thu Dec 12 2024 16:40:24 GMT-0600 (Central Standard Time),365759.2999999998,window,1000,I,m,m,None,395,196.0,199.0,123,2,1930.5,363828.7999999998,8006,window,AF,A,363779,363779,362050,363063,362051,363980,363580,363580,363980,116
115,test,1,inc,1,z,Thu Dec 12 2024 16:40:24 GMT-0600 (Central Standard Time),367774.0,window,1100,I,z,z,None,370,171.0,199.0,32,2,2010.7999999998137,365763.2000000002,8006,friend,AF,A,365812,365812,363984,365096,363986,365995,365613,365613,365995,117
116,test,1,inc,1,z,Thu Dec 12 2024 16:40:24 GMT-0600 (Central Standard Time),369607.0,jacket,800,I,z,z,None,486,287.0,199.0,61,2,1829.2999999998137,367777.7000000002,8006,temper,AF,A,367528,367528,365999,366812,366000,367828,367329,367329,367828,118
117,test,1,inc,1,m,Thu Dec 12 2024 16:40:24 GMT-0600 (Central Standard Time),371606.2000000002,temper,1000,I,m,m,None,453,253.0,200.0,119,2,1995.6000000005588,369610.5999999996,8006,remote,AF,A,369562,369562,367832,368845,367833,369827,369362,369362,369827,119
118,test,1,inc,1,z,Thu Dec 12 2024 16:40:24 GMT-0600 (Central Standard Time),373538.9000000004,bell,1000,I,z,z,None,375,174.0,201.0,47,2,1929.2000000001863,371609.7000000002,8006,hate,AF,A,371577,371577,369831,370844,369832,371760,371375,371375,371760,120
119,test,1,con,1,m,Thu Dec 12 2024 16:40:24 GMT-0600 (Central Standard Time),375288.4000000004,step,800,I,m,m,None,409,210.0,199.0,65,2,1746.1000000005588,373542.2999999998,8006,step,AF,A,373293,373293,371763,372577,371765,373509,373094,373094,373509,121
120,test,1,con,1,m,Thu Dec 12 2024 16:40:24 GMT-0600 (Central Standard Time),377354.2999999998,rock,1000,I,m,m,None,523,308.0,215.0,75,2,2062.399999999441,375291.9000000004,8006,rock,AF,A,375259,375259,373513,374527,373514,375575,375044,375044,375575,122
121,test,1,inc,1,z,Thu Dec 12 2024 16:40:24 GMT-0600 (Central Standard Time),379153.9000000004,rock,900,I,z,z,None,349,134.0,215.0,22,2,1795.9000000003725,377358.0,8006,love,AF,A,377225,377225,375579,376493,375580,377375,377010,377010,377375,123
122,test,1,con,1,m,Thu Dec 12 2024 16:40:24 GMT-0600 (Central Standard Time),380903.2000000002,window,800,I,m,m,None,410,210.0,200.0,121,2,1745.7999999998137,379157.4000000004,8006,window,AF,A,378909,378909,377378,378192,377380,379124,378709,378709,379124,124
123,test,1,con,1,z,Thu Dec 12 2024 16:40:24 GMT-0600 (Central Standard Time),382802.5999999996,hate,800,I,z,z,None,565,366.0,199.0,41,2,1895.5999999996275,380907.0,8006,hate,AF,A,380657,380657,379128,379942,379129,381024,380458,380458,381024,125
124,test,1,con,1,m,Thu Dec 12 2024 16:40:24 GMT-0600 (Central Standard Time),384568.9000000004,bell,800,I,m,m,None,425,226.0,199.0,81,2,1762.800000000745,382806.0999999996,8006,bell,AF,A,382557,382557,381027,381841,381028,382790,382358,382358,382790,126
125,test,1,inc,1,z,Thu Dec 12 2024 16:40:24 GMT-0600 (Central Standard Time),386385.0,rock,900,I,z,z,None,375,176.0,199.0,14,2,1812.5999999996275,384572.4000000004,8006,kind,AF,A,384423,384423,382793,383707,382795,384606,384224,384224,384606,127
126,test,1,inc,1,m,Thu Dec 12 2024 16:40:24 GMT-0600 (Central Standard Time),388201.2000000002,elated,800,I,m,m,None,475,276.0,199.0,109,2,1812.6000000005588,386388.5999999996,8006,napkin,AF,A,386139,386139,384610,385423,384611,386422,385940,385940,386422,128
