acc_sum,block,block_c,change,condition,correct,correct_response,datetime,endtime,face,project,response,response_time,row_sel,session_number,start_end,starttime,subject_id,task,task_vers,trial
0,prac,1,,1-Back,,,Mon Apr 07 2025 08:58:05 GMT-0500 (Central Daylight Time),,050_m_f_n_a.png,O,space,22235,1,1,,,7118,NNB,A,0
1,prac,1,0.0,1-Back,1,m,Mon Apr 07 2025 08:58:05 GMT-0500 (Central Daylight Time),132482.60000002384,063_y_f_n_a.png,O,m,787,2,1,1629.3999999761581,130853.20000004768,7118,NNB,A,1
2,prac,1,1.0,1-Back,1,z,Mon Apr 07 2025 08:58:05 GMT-0500 (Central Daylight Time),135131.90000009537,063_y_f_n_a.png,O,z,1833,3,1,2611.2000000476837,132520.70000004768,7118,NNB,A,2
3,prac,1,0.0,1-Back,1,m,Mon Apr 07 2025 08:58:05 GMT-0500 (Central Daylight Time),136981.0,053_o_m_n_a.png,O,m,973,4,1,1813.5999999046326,135167.40000009537,7118,NNB,A,3
3,prac,1,0.0,1-Back,0,m,Mon Apr 07 2025 08:58:05 GMT-0500 (Central Daylight Time),138996.60000002384,058_m_m_n_a.png,O,z,1139,5,1,1978.5,137018.10000002384,7118,NNB,A,4
3,prac,1,1.0,1-Back,0,z,Mon Apr 07 2025 08:58:05 GMT-0500 (Central Daylight Time),141029.5,058_m_m_n_a.png,O,m,1138,6,1,1995.8999999761581,139033.60000002384,7118,NNB,A,5
3,prac,1,0.0,1-Back,0,m,Mon Apr 07 2025 08:58:05 GMT-0500 (Central Daylight Time),143945.0,047_o_f_n_a.png,O,None,2009,7,1,2871.399999976158,141073.60000002384,7118,NNB,A,6
3,prac,1,0.0,1-Back,0,m,Mon Apr 07 2025 08:58:05 GMT-0500 (Central Daylight Time),146827.40000009537,045_m_m_n_a.png,O,None,2001,8,1,2843.2000000476837,143984.20000004768,7118,NNB,A,7
3,prac,1,0.0,1-Back,0,m,Mon Apr 07 2025 08:58:05 GMT-0500 (Central Daylight Time),148977.0,050_m_f_n_a.png,O,z,1294,9,1,2112.5999999046326,146864.40000009537,7118,NNB,A,8
4,prac,1,1.0,1-Back,1,z,Mon Apr 07 2025 08:58:05 GMT-0500 (Central Daylight Time),150843.0,050_m_f_n_a.png,O,z,999,10,1,1840.8999999761581,149002.10000002384,7118,NNB,A,9
5,prac,1,0.0,1-Back,1,m,Mon Apr 07 2025 08:58:05 GMT-0500 (Central Daylight Time),153375.30000007153,053_o_m_n_a.png,O,m,1663,11,1,2493.600000023842,150881.70000004768,7118,NNB,A,10
6,prac,1,0.0,1-Back,1,m,Mon Apr 07 2025 08:58:05 GMT-0500 (Central Daylight Time),155708.20000004768,010_y_f_n_a.png,O,m,1415,12,1,2297.100000023842,153411.10000002384,7118,NNB,A,11
0,prac,2,0.0,1-Back,,,Mon Apr 07 2025 08:58:05 GMT-0500 (Central Daylight Time),155708.20000004768,050_m_f_n_a.png,O,a,7191,1,1,2297.100000023842,153411.10000002384,7118,NNB,A,0
1,prac,2,0.0,1-Back,1,m,Mon Apr 07 2025 08:58:05 GMT-0500 (Central Daylight Time),168070.90000009537,063_y_f_n_a.png,O,m,1227,2,1,2065.9000000953674,166005.0,7118,NNB,A,1
2,prac,2,1.0,1-Back,1,z,Mon Apr 07 2025 08:58:05 GMT-0500 (Central Daylight Time),169836.60000002384,063_y_f_n_a.png,O,z,953,3,1,1730.3999999761581,168106.20000004768,7118,NNB,A,2
3,prac,2,0.0,1-Back,1,m,Mon Apr 07 2025 08:58:05 GMT-0500 (Central Daylight Time),171336.30000007153,053_o_m_n_a.png,O,m,629,4,1,1462.1000000238419,169874.20000004768,7118,NNB,A,3
3,prac,2,0.0,1-Back,0,m,Mon Apr 07 2025 08:58:05 GMT-0500 (Central Daylight Time),173302.0,058_m_m_n_a.png,O,z,1101,5,1,1928.5,171373.5,7118,NNB,A,4
3,prac,2,1.0,1-Back,0,z,Mon Apr 07 2025 08:58:05 GMT-0500 (Central Daylight Time),175251.5,058_m_m_n_a.png,O,m,1146,6,1,1921.8999999761581,173329.60000002384,7118,NNB,A,5
3,prac,2,0.0,1-Back,0,m,Mon Apr 07 2025 08:58:05 GMT-0500 (Central Daylight Time),178134.10000002384,047_o_f_n_a.png,O,None,2001,7,1,2854.399999976158,175279.70000004768,7118,NNB,A,6
4,prac,2,0.0,1-Back,1,m,Mon Apr 07 2025 08:58:05 GMT-0500 (Central Daylight Time),180949.60000002384,045_m_m_n_a.png,O,m,1961,8,1,2783.6999999284744,178165.90000009537,7118,NNB,A,7
4,prac,2,0.0,1-Back,0,m,Mon Apr 07 2025 08:58:05 GMT-0500 (Central Daylight Time),182999.0,050_m_f_n_a.png,O,z,1180,9,1,2020.2999999523163,180978.70000004768,7118,NNB,A,8
5,prac,2,1.0,1-Back,1,z,Mon Apr 07 2025 08:58:05 GMT-0500 (Central Daylight Time),184898.40000009537,050_m_f_n_a.png,O,z,1081,10,1,1857.2000000476837,183041.20000004768,7118,NNB,A,9
6,prac,2,0.0,1-Back,1,m,Mon Apr 07 2025 08:58:05 GMT-0500 (Central Daylight Time),187016.40000009537,053_o_m_n_a.png,O,m,1258,11,1,2081.8000000715256,184934.60000002384,7118,NNB,A,10
7,prac,2,0.0,1-Back,1,m,Mon Apr 07 2025 08:58:05 GMT-0500 (Central Daylight Time),189880.20000004768,010_y_f_n_a.png,O,m,1981,12,1,2839.100000023842,187041.10000002384,7118,NNB,A,11
0,test,1,0.0,1-Back,,,Mon Apr 07 2025 08:58:05 GMT-0500 (Central Daylight Time),189880.20000004768,063_y_f_n_a.png,O,space,7791,1,1,2839.100000023842,187041.10000002384,7118,NNB,A,0
1,test,1,0.0,1-Back,1,m,Mon Apr 07 2025 08:58:05 GMT-0500 (Central Daylight Time),209623.80000007153,043_m_f_n_a.png,O,m,1894,2,1,2907.2000000476837,206716.60000002384,7118,NNB,A,1
2,test,1,0.0,1-Back,1,m,Mon Apr 07 2025 08:58:05 GMT-0500 (Central Daylight Time),212372.5,010_y_f_n_a.png,O,m,1706,3,1,2719.0999999046326,209653.40000009537,7118,NNB,A,2
3,test,1,1.0,1-Back,1,z,Mon Apr 07 2025 08:58:05 GMT-0500 (Central Daylight Time),214288.80000007153,010_y_f_n_a.png,O,z,877,4,1,1894.6000000238419,212394.20000004768,7118,NNB,A,3
4,test,1,0.0,1-Back,1,m,Mon Apr 07 2025 08:58:05 GMT-0500 (Central Daylight Time),216587.80000007153,043_m_f_n_a.png,O,m,1257,5,1,2267.8000000715256,214320.0,7118,NNB,A,4
5,test,1,0.0,1-Back,1,m,Mon Apr 07 2025 08:58:05 GMT-0500 (Central Daylight Time),219453.70000004768,053_o_m_n_a.png,O,m,1822,6,1,2838.5,216615.20000004768,7118,NNB,A,5
6,test,1,1.0,1-Back,1,z,Mon Apr 07 2025 08:58:05 GMT-0500 (Central Daylight Time),221586.10000002384,053_o_m_n_a.png,O,z,1068,7,1,2099.100000023842,219487.0,7118,NNB,A,6
6,test,1,0.0,1-Back,0,m,Mon Apr 07 2025 08:58:05 GMT-0500 (Central Daylight Time),224652.10000002384,058_m_m_n_a.png,O,None,2015,8,1,3034.2999999523163,221617.80000007153,7118,NNB,A,7
7,test,1,0.0,1-Back,1,m,Mon Apr 07 2025 08:58:05 GMT-0500 (Central Daylight Time),227134.5,047_o_f_n_a.png,O,m,1421,9,1,2450.6999999284744,224683.80000007153,7118,NNB,A,8
8,test,1,0.0,1-Back,1,m,Mon Apr 07 2025 08:58:05 GMT-0500 (Central Daylight Time),229800.10000002384,058_m_m_n_a.png,O,m,1610,10,1,2634.399999976158,227165.70000004768,7118,NNB,A,9
9,test,1,0.0,1-Back,1,m,Mon Apr 07 2025 08:58:05 GMT-0500 (Central Daylight Time),231932.5,041_y_m_n_a.png,O,m,1073,11,1,2097.2999999523163,229835.20000004768,7118,NNB,A,10
10,test,1,1.0,1-Back,1,z,Mon Apr 07 2025 08:58:05 GMT-0500 (Central Daylight Time),233749.0,041_y_m_n_a.png,O,z,772,12,1,1798.0999999046326,231950.90000009537,7118,NNB,A,11
11,test,1,0.0,1-Back,1,m,Mon Apr 07 2025 08:58:05 GMT-0500 (Central Daylight Time),236064.70000004768,044_o_f_n_a.png,O,m,1277,13,1,2288.5,233776.20000004768,7118,NNB,A,12
12,test,1,1.0,1-Back,1,z,Mon Apr 07 2025 08:58:05 GMT-0500 (Central Daylight Time),238097.5,044_o_f_n_a.png,O,z,985,14,1,2007.3999999761581,236090.10000002384,7118,NNB,A,13
13,test,1,0.0,1-Back,1,m,Mon Apr 07 2025 08:58:05 GMT-0500 (Central Daylight Time),239981.30000007153,008_y_m_n_a.png,O,m,848,15,1,1855.8000000715256,238125.5,7118,NNB,A,14
13,test,1,0.0,1-Back,0,m,Mon Apr 07 2025 08:58:05 GMT-0500 (Central Daylight Time),241979.40000009537,050_m_f_n_a.png,O,z,937,16,1,1966.3000000715256,240013.10000002384,7118,NNB,A,15
14,test,1,0.0,1-Back,1,m,Mon Apr 07 2025 08:58:05 GMT-0500 (Central Daylight Time),244128.80000007153,046_o_m_n_a.png,O,m,1102,17,1,2128.5,242000.30000007153,7118,NNB,A,16
15,test,1,0.0,1-Back,1,m,Mon Apr 07 2025 08:58:05 GMT-0500 (Central Daylight Time),246828.0,050_m_f_n_a.png,O,m,1656,18,1,2672.399999976158,244155.60000002384,7118,NNB,A,17
0,test,2,0.0,1-Back,,,Mon Apr 07 2025 08:58:05 GMT-0500 (Central Daylight Time),246828.0,058_m_m_n_a.png,O,space,2110,1,1,2672.399999976158,244155.60000002384,7118,NNB,A,0
1,test,2,0.0,1-Back,1,m,Mon Apr 07 2025 08:58:05 GMT-0500 (Central Daylight Time),253809.40000009537,043_m_f_n_a.png,O,m,1705,2,1,2732.600000023842,251076.80000007153,7118,NNB,A,1
2,test,2,1.0,1-Back,1,z,Mon Apr 07 2025 08:58:05 GMT-0500 (Central Daylight Time),255924.20000004768,043_m_f_n_a.png,O,z,1071,3,1,2096.5,253827.70000004768,7118,NNB,A,2
3,test,2,0.0,1-Back,1,m,Mon Apr 07 2025 08:58:05 GMT-0500 (Central Daylight Time),258124.30000007153,058_m_m_n_a.png,O,m,1166,4,1,2186.3000000715256,255938.0,7118,NNB,A,3
4,test,2,0.0,1-Back,1,m,Mon Apr 07 2025 08:58:05 GMT-0500 (Central Daylight Time),260757.20000004768,041_y_m_n_a.png,O,m,1598,5,1,2611.5,258145.70000004768,7118,NNB,A,4
5,test,2,0.0,1-Back,1,m,Mon Apr 07 2025 08:58:05 GMT-0500 (Central Daylight Time),263055.7000000477,063_y_f_n_a.png,O,m,1262,6,1,2276.7000000476837,260779.0,7118,NNB,A,5
6,test,2,1.0,1-Back,1,z,Mon Apr 07 2025 08:58:05 GMT-0500 (Central Daylight Time),264988.0,063_y_f_n_a.png,O,z,889,7,1,1903.3999999761581,263084.60000002384,7118,NNB,A,6
7,test,2,0.0,1-Back,1,m,Mon Apr 07 2025 08:58:05 GMT-0500 (Central Daylight Time),267287.8000000715,041_y_m_n_a.png,O,m,1278,8,1,2290.399999976158,264997.40000009537,7118,NNB,A,7
8,test,2,0.0,1-Back,1,m,Mon Apr 07 2025 08:58:05 GMT-0500 (Central Daylight Time),269520.10000002384,044_o_f_n_a.png,O,m,1193,9,1,2205.100000023842,267315.0,7118,NNB,A,8
9,test,2,0.0,1-Back,1,m,Mon Apr 07 2025 08:58:05 GMT-0500 (Central Daylight Time),271669.60000002384,045_m_m_n_a.png,O,m,1128,10,1,2133.1999999284744,269536.40000009537,7118,NNB,A,9
10,test,2,1.0,1-Back,1,z,Mon Apr 07 2025 08:58:05 GMT-0500 (Central Daylight Time),273453.60000002384,045_m_m_n_a.png,O,z,748,11,1,1757.7999999523163,271695.8000000715,7118,NNB,A,10
11,test,2,0.0,1-Back,1,m,Mon Apr 07 2025 08:58:05 GMT-0500 (Central Daylight Time),275669.10000002384,044_o_f_n_a.png,O,m,1157,12,1,2183.1999999284744,273485.90000009537,7118,NNB,A,11
12,test,2,0.0,1-Back,1,m,Mon Apr 07 2025 08:58:05 GMT-0500 (Central Daylight Time),277833.60000002384,047_o_f_n_a.png,O,m,1124,13,1,2141.0,275692.60000002384,7118,NNB,A,12
13,test,2,0.0,1-Back,1,m,Mon Apr 07 2025 08:58:05 GMT-0500 (Central Daylight Time),280000.40000009537,053_o_m_n_a.png,O,m,1138,14,1,2154.9000000953674,277845.5,7118,NNB,A,13
14,test,2,0.0,1-Back,1,m,Mon Apr 07 2025 08:58:05 GMT-0500 (Central Daylight Time),282066.5,046_o_m_n_a.png,O,m,1025,15,1,2035.0999999046326,280031.40000009537,7118,NNB,A,14
15,test,2,1.0,1-Back,1,z,Mon Apr 07 2025 08:58:05 GMT-0500 (Central Daylight Time),284032.5,046_o_m_n_a.png,O,z,928,16,1,1935.0,282097.5,7118,NNB,A,15
16,test,2,0.0,1-Back,1,m,Mon Apr 07 2025 08:58:05 GMT-0500 (Central Daylight Time),286065.3000000715,008_y_m_n_a.png,O,m,985,17,1,2006.2000000476837,284059.10000002384,7118,NNB,A,16
17,test,2,1.0,1-Back,1,z,Mon Apr 07 2025 08:58:05 GMT-0500 (Central Daylight Time),287964.60000002384,008_y_m_n_a.png,O,z,857,18,1,1870.6999999284744,286093.90000009537,7118,NNB,A,17
0,test,3,1.0,1-Back,,,Mon Apr 07 2025 08:58:05 GMT-0500 (Central Daylight Time),287964.60000002384,010_y_f_n_a.png,O,space,1390,1,1,1870.6999999284744,286093.90000009537,7118,NNB,A,0
1,test,3,0.0,1-Back,1,m,Mon Apr 07 2025 08:58:05 GMT-0500 (Central Daylight Time),293479.5,046_o_m_n_a.png,O,m,953,2,1,1968.6999999284744,291510.8000000715,7118,NNB,A,1
2,test,3,1.0,1-Back,1,z,Mon Apr 07 2025 08:58:05 GMT-0500 (Central Daylight Time),295412.10000002384,046_o_m_n_a.png,O,z,891,3,1,1905.6999999284744,293506.40000009537,7118,NNB,A,2
3,test,3,0.0,1-Back,1,m,Mon Apr 07 2025 08:58:05 GMT-0500 (Central Daylight Time),297661.40000009537,050_m_f_n_a.png,O,m,1190,4,1,2214.100000023842,295447.3000000715,7118,NNB,A,3
4,test,3,1.0,1-Back,1,z,Mon Apr 07 2025 08:58:05 GMT-0500 (Central Daylight Time),299660.7000000477,050_m_f_n_a.png,O,z,957,5,1,1977.7000000476837,297683.0,7118,NNB,A,4
5,test,3,0.0,1-Back,1,m,Mon Apr 07 2025 08:58:05 GMT-0500 (Central Daylight Time),301660.0,044_o_f_n_a.png,O,m,949,6,1,1972.1999999284744,299687.8000000715,7118,NNB,A,5
6,test,3,0.0,1-Back,1,m,Mon Apr 07 2025 08:58:05 GMT-0500 (Central Daylight Time),303726.10000002384,041_y_m_n_a.png,O,m,1005,7,1,2034.0,301692.10000002384,7118,NNB,A,6
7,test,3,0.0,1-Back,1,m,Mon Apr 07 2025 08:58:05 GMT-0500 (Central Daylight Time),305958.8000000715,044_o_f_n_a.png,O,m,1172,8,1,2201.3000000715256,303757.5,7118,NNB,A,7
8,test,3,0.0,1-Back,1,m,Mon Apr 07 2025 08:58:05 GMT-0500 (Central Daylight Time),307991.3000000715,008_y_m_n_a.png,O,m,996,9,1,2003.2000000476837,305988.10000002384,7118,NNB,A,8
9,test,3,1.0,1-Back,1,z,Mon Apr 07 2025 08:58:05 GMT-0500 (Central Daylight Time),309690.7000000477,008_y_m_n_a.png,O,z,633,10,1,1667.3999999761581,308023.3000000715,7118,NNB,A,9
10,test,3,0.0,1-Back,1,m,Mon Apr 07 2025 08:58:05 GMT-0500 (Central Daylight Time),311839.90000009537,043_m_f_n_a.png,O,m,1104,11,1,2119.100000023842,309720.8000000715,7118,NNB,A,10
11,test,3,0.0,1-Back,1,m,Mon Apr 07 2025 08:58:05 GMT-0500 (Central Daylight Time),314272.60000002384,063_y_f_n_a.png,O,m,1393,12,1,2406.899999976158,311865.7000000477,7118,NNB,A,11
12,test,3,1.0,1-Back,1,z,Mon Apr 07 2025 08:58:05 GMT-0500 (Central Daylight Time),316105.2000000477,063_y_f_n_a.png,O,z,794,13,1,1807.0,314298.2000000477,7118,NNB,A,12
13,test,3,0.0,1-Back,1,m,Mon Apr 07 2025 08:58:05 GMT-0500 (Central Daylight Time),318021.10000002384,043_m_f_n_a.png,O,m,873,14,1,1891.2999999523163,316129.8000000715,7118,NNB,A,13
14,test,3,0.0,1-Back,1,m,Mon Apr 07 2025 08:58:05 GMT-0500 (Central Daylight Time),320221.5,058_m_m_n_a.png,O,m,1165,15,1,2173.5999999046326,318047.90000009537,7118,NNB,A,14
15,test,3,1.0,1-Back,1,z,Mon Apr 07 2025 08:58:05 GMT-0500 (Central Daylight Time),322136.60000002384,058_m_m_n_a.png,O,z,861,16,1,1884.7999999523163,320251.8000000715,7118,NNB,A,15
16,test,3,0.0,1-Back,1,m,Mon Apr 07 2025 08:58:05 GMT-0500 (Central Daylight Time),324171.2000000477,047_o_f_n_a.png,O,m,985,17,1,2011.6000000238419,322159.60000002384,7118,NNB,A,16
17,test,3,1.0,1-Back,1,z,Mon Apr 07 2025 08:58:05 GMT-0500 (Central Daylight Time),326035.3000000715,047_o_f_n_a.png,O,z,825,18,1,1838.8000000715256,324196.5,7118,NNB,A,17
0,test,4,1.0,1-Back,,,Mon Apr 07 2025 08:58:05 GMT-0500 (Central Daylight Time),326035.3000000715,050_m_f_n_a.png,O,space,1191,1,1,1838.8000000715256,324196.5,7118,NNB,A,0
1,test,4,0.0,1-Back,1,m,Mon Apr 07 2025 08:58:05 GMT-0500 (Central Daylight Time),331350.10000002384,046_o_m_n_a.png,O,m,980,2,1,1989.7999999523163,329360.3000000715,7118,NNB,A,1
2,test,4,0.0,1-Back,1,m,Mon Apr 07 2025 08:58:05 GMT-0500 (Central Daylight Time),333467.3000000715,050_m_f_n_a.png,O,m,1051,3,1,2084.399999976158,331382.90000009537,7118,NNB,A,2
3,test,4,0.0,1-Back,1,m,Mon Apr 07 2025 08:58:05 GMT-0500 (Central Daylight Time),336031.90000009537,044_o_f_n_a.png,O,m,1519,4,1,2536.9000000953674,333495.0,7118,NNB,A,3
4,test,4,1.0,1-Back,1,z,Mon Apr 07 2025 08:58:05 GMT-0500 (Central Daylight Time),337698.0,044_o_f_n_a.png,O,z,601,5,1,1633.5,336064.5,7118,NNB,A,4
5,test,4,0.0,1-Back,1,m,Mon Apr 07 2025 08:58:05 GMT-0500 (Central Daylight Time),339664.5,063_y_f_n_a.png,O,m,918,6,1,1938.8999999761581,337725.60000002384,7118,NNB,A,5
6,test,4,0.0,1-Back,1,m,Mon Apr 07 2025 08:58:05 GMT-0500 (Central Daylight Time),341480.3000000715,041_y_m_n_a.png,O,m,753,7,1,1784.2000000476837,339696.10000002384,7118,NNB,A,6
7,test,4,1.0,1-Back,1,z,Mon Apr 07 2025 08:58:05 GMT-0500 (Central Daylight Time),343046.10000002384,041_y_m_n_a.png,O,z,530,8,1,1538.6999999284744,341507.40000009537,7118,NNB,A,7
8,test,4,0.0,1-Back,1,m,Mon Apr 07 2025 08:58:05 GMT-0500 (Central Daylight Time),344762.60000002384,063_y_f_n_a.png,O,m,676,9,1,1693.6000000238419,343069.0,7118,NNB,A,8
9,test,4,0.0,1-Back,1,m,Mon Apr 07 2025 08:58:05 GMT-0500 (Central Daylight Time),346711.8000000715,045_m_m_n_a.png,O,m,911,10,1,1918.6000000238419,344793.2000000477,7118,NNB,A,9
10,test,4,1.0,1-Back,1,z,Mon Apr 07 2025 08:58:05 GMT-0500 (Central Daylight Time),348511.60000002384,045_m_m_n_a.png,O,z,755,11,1,1769.1999999284744,346742.40000009537,7118,NNB,A,10
11,test,4,0.0,1-Back,1,m,Mon Apr 07 2025 08:58:05 GMT-0500 (Central Daylight Time),350627.40000009537,047_o_f_n_a.png,O,m,1050,12,1,2074.3000000715256,348553.10000002384,7118,NNB,A,11
12,test,4,0.0,1-Back,1,m,Mon Apr 07 2025 08:58:05 GMT-0500 (Central Daylight Time),352859.8000000715,053_o_m_n_a.png,O,m,1191,13,1,2204.8000000715256,350655.0,7118,NNB,A,12
13,test,4,0.0,1-Back,1,m,Mon Apr 07 2025 08:58:05 GMT-0500 (Central Daylight Time),355076.2000000477,047_o_f_n_a.png,O,m,1166,14,1,2185.399999976158,352890.8000000715,7118,NNB,A,13
14,test,4,0.0,1-Back,1,m,Mon Apr 07 2025 08:58:05 GMT-0500 (Central Daylight Time),357091.7000000477,010_y_f_n_a.png,O,m,966,15,1,1992.6000000238419,355099.10000002384,7118,NNB,A,14
15,test,4,1.0,1-Back,1,z,Mon Apr 07 2025 08:58:05 GMT-0500 (Central Daylight Time),358958.2000000477,010_y_f_n_a.png,O,z,806,16,1,1834.7000000476837,357123.5,7118,NNB,A,15
16,test,4,0.0,1-Back,1,m,Mon Apr 07 2025 08:58:05 GMT-0500 (Central Daylight Time),360907.3000000715,043_m_f_n_a.png,O,m,909,17,1,1918.3000000715256,358989.0,7118,NNB,A,16
16,test,4,1.0,1-Back,0,z,Mon Apr 07 2025 08:58:05 GMT-0500 (Central Daylight Time),363973.3000000715,043_m_f_n_a.png,O,None,2015,18,1,3034.600000023842,360938.7000000477,7118,NNB,A,17
0,test,5,1.0,1-Back,,,Mon Apr 07 2025 08:58:05 GMT-0500 (Central Daylight Time),363973.3000000715,053_o_m_n_a.png,O,space,1533,1,1,3034.600000023842,360938.7000000477,7118,NNB,A,0
1,test,5,1.0,1-Back,1,z,Mon Apr 07 2025 08:58:05 GMT-0500 (Central Daylight Time),369703.5,053_o_m_n_a.png,O,z,1043,2,1,2064.6999999284744,367638.8000000715,7118,NNB,A,1
2,test,5,0.0,1-Back,1,m,Mon Apr 07 2025 08:58:05 GMT-0500 (Central Daylight Time),371752.90000009537,063_y_f_n_a.png,O,m,1017,3,1,2037.7000000476837,369715.2000000477,7118,NNB,A,2
3,test,5,0.0,1-Back,1,m,Mon Apr 07 2025 08:58:05 GMT-0500 (Central Daylight Time),373519.8000000715,041_y_m_n_a.png,O,m,738,4,1,1754.3000000715256,371765.5,7118,NNB,A,3
4,test,5,0.0,1-Back,1,m,Mon Apr 07 2025 08:58:05 GMT-0500 (Central Daylight Time),375535.8000000715,063_y_f_n_a.png,O,m,979,5,1,1989.6000000238419,373546.2000000477,7118,NNB,A,4
5,test,5,0.0,1-Back,1,m,Mon Apr 07 2025 08:58:05 GMT-0500 (Central Daylight Time),377434.90000009537,058_m_m_n_a.png,O,m,858,6,1,1875.8000000715256,375559.10000002384,7118,NNB,A,5
6,test,5,1.0,1-Back,1,z,Mon Apr 07 2025 08:58:05 GMT-0500 (Central Daylight Time),379284.60000002384,058_m_m_n_a.png,O,z,782,7,1,1812.8999999761581,377471.7000000477,7118,NNB,A,6
7,test,5,0.0,1-Back,1,m,Mon Apr 07 2025 08:58:05 GMT-0500 (Central Daylight Time),381317.3000000715,010_y_f_n_a.png,O,m,989,8,1,2009.1000000238419,379308.2000000477,7118,NNB,A,7
8,test,5,0.0,1-Back,1,m,Mon Apr 07 2025 08:58:05 GMT-0500 (Central Daylight Time),383682.60000002384,008_y_m_n_a.png,O,m,1316,9,1,2337.5,381345.10000002384,7118,NNB,A,8
9,test,5,0.0,1-Back,1,m,Mon Apr 07 2025 08:58:05 GMT-0500 (Central Daylight Time),385549.10000002384,010_y_f_n_a.png,O,m,809,10,1,1832.6999999284744,383716.40000009537,7118,NNB,A,9
10,test,5,0.0,1-Back,1,m,Mon Apr 07 2025 08:58:05 GMT-0500 (Central Daylight Time),387531.8000000715,047_o_f_n_a.png,O,m,942,11,1,1955.5,385576.3000000715,7118,NNB,A,10
11,test,5,1.0,1-Back,1,z,Mon Apr 07 2025 08:58:05 GMT-0500 (Central Daylight Time),389165.5,047_o_f_n_a.png,O,z,582,12,1,1602.5999999046326,387562.90000009537,7118,NNB,A,11
12,test,5,0.0,1-Back,1,m,Mon Apr 07 2025 08:58:05 GMT-0500 (Central Daylight Time),390964.2000000477,046_o_m_n_a.png,O,m,753,13,1,1772.5,389191.7000000477,7118,NNB,A,12
13,test,5,0.0,1-Back,1,m,Mon Apr 07 2025 08:58:05 GMT-0500 (Central Daylight Time),393013.40000009537,050_m_f_n_a.png,O,m,1007,14,1,2021.5,390991.90000009537,7118,NNB,A,13
14,test,5,1.0,1-Back,1,z,Mon Apr 07 2025 08:58:05 GMT-0500 (Central Daylight Time),394612.90000009537,050_m_f_n_a.png,O,z,557,15,1,1574.9000000953674,393038.0,7118,NNB,A,14
15,test,5,0.0,1-Back,1,m,Mon Apr 07 2025 08:58:05 GMT-0500 (Central Daylight Time),396580.0,046_o_m_n_a.png,O,m,909,16,1,1930.7999999523163,394649.2000000477,7118,NNB,A,15
16,test,5,0.0,1-Back,1,m,Mon Apr 07 2025 08:58:05 GMT-0500 (Central Daylight Time),398561.60000002384,043_m_f_n_a.png,O,m,944,17,1,1955.1999999284744,396606.40000009537,7118,NNB,A,16
17,test,5,0.0,1-Back,1,m,Mon Apr 07 2025 08:58:05 GMT-0500 (Central Daylight Time),400377.8000000715,045_m_m_n_a.png,O,m,777,18,1,1792.3999999761581,398585.40000009537,7118,NNB,A,17
0,prac,1,0.0,2-Back,,,Mon Apr 07 2025 08:58:05 GMT-0500 (Central Daylight Time),400377.8000000715,008_y_m_n_a.png,O,space,3038,1,1,1792.3999999761581,398585.40000009537,7118,NNB,A,0
0,prac,1,0.0,2-Back,,,Mon Apr 07 2025 08:58:05 GMT-0500 (Central Daylight Time),400377.8000000715,043_m_f_n_a.png,O,space,3038,2,1,1792.3999999761581,398585.40000009537,7118,NNB,A,0
1,prac,1,1.0,2-Back,1,m,Mon Apr 07 2025 08:58:05 GMT-0500 (Central Daylight Time),502544.5,046_o_m_n_a.png,O,m,1415,3,1,2256.6999999284744,500287.8000000715,7118,NNB,A,1
2,prac,1,0.0,2-Back,1,m,Mon Apr 07 2025 08:58:05 GMT-0500 (Central Daylight Time),504710.2000000477,047_o_f_n_a.png,O,m,1251,4,1,2140.100000023842,502570.10000002384,7118,NNB,A,2
3,prac,1,0.0,2-Back,1,z,Mon Apr 07 2025 08:58:05 GMT-0500 (Central Daylight Time),506692.90000009537,046_o_m_n_a.png,O,z,1108,5,1,1942.5,504750.40000009537,7118,NNB,A,3
4,prac,1,1.0,2-Back,1,z,Mon Apr 07 2025 08:58:05 GMT-0500 (Central Daylight Time),508508.90000009537,047_o_f_n_a.png,O,z,925,6,1,1777.8000000715256,506731.10000002384,7118,NNB,A,4
5,prac,1,0.0,2-Back,1,m,Mon Apr 07 2025 08:58:05 GMT-0500 (Central Daylight Time),511191.3000000715,045_m_m_n_a.png,O,m,1840,7,1,2654.600000023842,508536.7000000477,7118,NNB,A,5
6,prac,1,0.0,2-Back,1,m,Mon Apr 07 2025 08:58:05 GMT-0500 (Central Daylight Time),513407.2000000477,053_o_m_n_a.png,O,m,1321,8,1,2177.5,511229.7000000477,7118,NNB,A,6
7,prac,1,0.0,2-Back,1,m,Mon Apr 07 2025 08:58:05 GMT-0500 (Central Daylight Time),515273.2000000477,010_y_f_n_a.png,O,m,965,9,1,1827.1000000238419,513446.10000002384,7118,NNB,A,7
8,prac,1,1.0,2-Back,1,z,Mon Apr 07 2025 08:58:05 GMT-0500 (Central Daylight Time),517089.3000000715,053_o_m_n_a.png,O,z,998,10,1,1778.8999999761581,515310.40000009537,7118,NNB,A,8
8,prac,1,0.0,2-Back,0,m,Mon Apr 07 2025 08:58:05 GMT-0500 (Central Daylight Time),519388.7000000477,063_y_f_n_a.png,O,z,1435,11,1,2271.0,517117.7000000477,7118,NNB,A,9
8,prac,1,0.0,2-Back,0,m,Mon Apr 07 2025 08:58:05 GMT-0500 (Central Daylight Time),522254.3000000715,045_m_m_n_a.png,O,None,2002,12,1,2831.0,519423.3000000715,7118,NNB,A,10
0,test,1,0.0,2-Back,,,Mon Apr 07 2025 08:58:05 GMT-0500 (Central Daylight Time),522254.3000000715,041_y_m_n_a.png,O,space,7236,1,1,2831.0,519423.3000000715,7118,NNB,A,0
0,test,1,0.0,2-Back,,,Mon Apr 07 2025 08:58:05 GMT-0500 (Central Daylight Time),522254.3000000715,041_y_m_n_a.png,O,space,7236,2,1,2831.0,519423.3000000715,7118,NNB,A,0
1,test,1,0.0,2-Back,1,m,Mon Apr 07 2025 08:58:05 GMT-0500 (Central Daylight Time),542280.8000000715,047_o_f_n_a.png,O,m,1029,3,1,2043.8999999761581,540236.9000000954,7118,NNB,A,1
2,test,1,0.0,2-Back,1,m,Mon Apr 07 2025 08:58:05 GMT-0500 (Central Daylight Time),544431.1000000238,058_m_m_n_a.png,O,m,1116,4,1,2131.6999999284744,542299.4000000954,7118,NNB,A,2
3,test,1,1.0,2-Back,1,z,Mon Apr 07 2025 08:58:05 GMT-0500 (Central Daylight Time),546046.2000000477,047_o_f_n_a.png,O,z,564,5,1,1577.0,544469.2000000477,7118,NNB,A,3
4,test,1,0.0,2-Back,1,m,Mon Apr 07 2025 08:58:05 GMT-0500 (Central Daylight Time),548162.5,063_y_f_n_a.png,O,m,1060,6,1,2082.2999999523163,546080.2000000477,7118,NNB,A,4
4,test,1,0.0,2-Back,0,m,Mon Apr 07 2025 08:58:05 GMT-0500 (Central Daylight Time),550445.5,058_m_m_n_a.png,O,z,1248,7,1,2253.6999999284744,548191.8000000715,7118,NNB,A,5
5,test,1,1.0,2-Back,1,z,Mon Apr 07 2025 08:58:05 GMT-0500 (Central Daylight Time),552644.3000000715,063_y_f_n_a.png,O,z,1157,8,1,2171.100000023842,550473.2000000477,7118,NNB,A,6
6,test,1,0.0,2-Back,1,m,Mon Apr 07 2025 08:58:05 GMT-0500 (Central Daylight Time),554660.8000000715,008_y_m_n_a.png,O,m,965,9,1,1983.2000000476837,552677.6000000238,7118,NNB,A,7
7,test,1,0.0,2-Back,1,m,Mon Apr 07 2025 08:58:05 GMT-0500 (Central Daylight Time),556493.9000000954,044_o_f_n_a.png,O,m,782,10,1,1798.6000000238419,554695.3000000715,7118,NNB,A,8
8,test,1,1.0,2-Back,1,z,Mon Apr 07 2025 08:58:05 GMT-0500 (Central Daylight Time),558709.0,008_y_m_n_a.png,O,z,1149,11,1,2180.2999999523163,556528.7000000477,7118,NNB,A,9
9,test,1,0.0,2-Back,1,m,Mon Apr 07 2025 08:58:05 GMT-0500 (Central Daylight Time),560775.0,043_m_f_n_a.png,O,m,1013,12,1,2029.0999999046326,558745.9000000954,7118,NNB,A,10
10,test,1,0.0,2-Back,1,m,Mon Apr 07 2025 08:58:05 GMT-0500 (Central Daylight Time),562541.8000000715,043_m_f_n_a.png,O,m,715,13,1,1732.3999999761581,560809.4000000954,7118,NNB,A,11
11,test,1,0.0,2-Back,1,m,Mon Apr 07 2025 08:58:05 GMT-0500 (Central Daylight Time),564740.4000000954,046_o_m_n_a.png,O,m,1158,14,1,2174.2000000476837,562566.2000000477,7118,NNB,A,12
12,test,1,0.0,2-Back,1,m,Mon Apr 07 2025 08:58:05 GMT-0500 (Central Daylight Time),567056.4000000954,044_o_f_n_a.png,O,m,1261,15,1,2282.3000000715256,564774.1000000238,7118,NNB,A,13
13,test,1,1.0,2-Back,1,z,Mon Apr 07 2025 08:58:05 GMT-0500 (Central Daylight Time),568638.9000000954,046_o_m_n_a.png,O,z,537,16,1,1563.6000000238419,567075.3000000715,7118,NNB,A,14
14,test,1,0.0,2-Back,1,m,Mon Apr 07 2025 08:58:05 GMT-0500 (Central Daylight Time),570704.6000000238,050_m_f_n_a.png,O,m,1019,17,1,2044.6999999284744,568659.9000000954,7118,NNB,A,15
15,test,1,0.0,2-Back,1,m,Mon Apr 07 2025 08:58:05 GMT-0500 (Central Daylight Time),573720.8000000715,045_m_m_n_a.png,O,m,1994,18,1,3001.0,570719.8000000715,7118,NNB,A,16
0,test,2,0.0,2-Back,,,Mon Apr 07 2025 08:58:05 GMT-0500 (Central Daylight Time),573720.8000000715,045_m_m_n_a.png,O,space,1378,1,1,3001.0,570719.8000000715,7118,NNB,A,0
0,test,2,0.0,2-Back,,,Mon Apr 07 2025 08:58:05 GMT-0500 (Central Daylight Time),573720.8000000715,010_y_f_n_a.png,O,space,1378,2,1,3001.0,570719.8000000715,7118,NNB,A,0
1,test,2,1.0,2-Back,1,z,Mon Apr 07 2025 08:58:05 GMT-0500 (Central Daylight Time),582067.4000000954,045_m_m_n_a.png,O,z,797,3,1,1804.9000000953674,580262.5,7118,NNB,A,1
2,test,2,0.0,2-Back,1,m,Mon Apr 07 2025 08:58:05 GMT-0500 (Central Daylight Time),584149.8000000715,050_m_f_n_a.png,O,m,1059,4,1,2073.100000023842,582076.7000000477,7118,NNB,A,2
2,test,2,0.0,2-Back,0,m,Mon Apr 07 2025 08:58:05 GMT-0500 (Central Daylight Time),586650.1000000238,010_y_f_n_a.png,O,z,1476,5,1,2491.0,584159.1000000238,7118,NNB,A,3
3,test,2,0.0,2-Back,1,m,Mon Apr 07 2025 08:58:05 GMT-0500 (Central Daylight Time),588949.3000000715,046_o_m_n_a.png,O,m,1249,6,1,2268.600000023842,586680.7000000477,7118,NNB,A,4
3,test,2,0.0,2-Back,0,m,Mon Apr 07 2025 08:58:05 GMT-0500 (Central Daylight Time),592015.1000000238,063_y_f_n_a.png,O,None,2015,7,1,3031.6999999284744,588983.4000000954,7118,NNB,A,5
4,test,2,1.0,2-Back,1,z,Mon Apr 07 2025 08:58:05 GMT-0500 (Central Daylight Time),593947.3000000715,046_o_m_n_a.png,O,z,875,8,1,1898.0,592049.3000000715,7118,NNB,A,6
5,test,2,0.0,2-Back,1,m,Mon Apr 07 2025 08:58:05 GMT-0500 (Central Daylight Time),596146.6000000238,008_y_m_n_a.png,O,m,1152,9,1,2171.600000023842,593975.0,7118,NNB,A,7
6,test,2,0.0,2-Back,1,m,Mon Apr 07 2025 08:58:05 GMT-0500 (Central Daylight Time),598329.4000000954,008_y_m_n_a.png,O,m,1144,10,1,2156.600000023842,596172.8000000715,7118,NNB,A,8
7,test,2,0.0,2-Back,1,m,Mon Apr 07 2025 08:58:05 GMT-0500 (Central Daylight Time),600395.4000000954,043_m_f_n_a.png,O,m,1025,11,1,2039.5,598355.9000000954,7118,NNB,A,9
8,test,2,0.0,2-Back,1,m,Mon Apr 07 2025 08:58:05 GMT-0500 (Central Daylight Time),602377.3000000715,010_y_f_n_a.png,O,m,934,12,1,1951.3999999761581,600425.9000000954,7118,NNB,A,10
9,test,2,1.0,2-Back,1,z,Mon Apr 07 2025 08:58:05 GMT-0500 (Central Daylight Time),604976.4000000954,043_m_f_n_a.png,O,z,1569,13,1,2585.0,602391.4000000954,7118,NNB,A,11
10,test,2,0.0,2-Back,1,m,Mon Apr 07 2025 08:58:05 GMT-0500 (Central Daylight Time),606976.4000000954,053_o_m_n_a.png,O,m,978,14,1,1990.5,604985.9000000954,7118,NNB,A,12
11,test,2,0.0,2-Back,1,m,Mon Apr 07 2025 08:58:05 GMT-0500 (Central Daylight Time),609358.1000000238,053_o_m_n_a.png,O,m,1327,15,1,2347.399999976158,607010.7000000477,7118,NNB,A,13
12,test,2,0.0,2-Back,1,m,Mon Apr 07 2025 08:58:05 GMT-0500 (Central Daylight Time),611525.0,044_o_f_n_a.png,O,m,1142,16,1,2158.0999999046326,609366.9000000954,7118,NNB,A,14
13,test,2,0.0,2-Back,1,m,Mon Apr 07 2025 08:58:05 GMT-0500 (Central Daylight Time),613941.1000000238,058_m_m_n_a.png,O,m,1374,17,1,2388.7999999523163,611552.3000000715,7118,NNB,A,15
14,test,2,1.0,2-Back,1,z,Mon Apr 07 2025 08:58:05 GMT-0500 (Central Daylight Time),615923.6000000238,044_o_f_n_a.png,O,z,916,18,1,1949.6000000238419,613974.0,7118,NNB,A,16
0,test,3,1.0,2-Back,,,Mon Apr 07 2025 08:58:05 GMT-0500 (Central Daylight Time),615923.6000000238,041_y_m_n_a.png,O,space,1191,1,1,1949.6000000238419,613974.0,7118,NNB,A,0
0,test,3,1.0,2-Back,,,Mon Apr 07 2025 08:58:05 GMT-0500 (Central Daylight Time),615923.6000000238,041_y_m_n_a.png,O,space,1191,2,1,1949.6000000238419,613974.0,7118,NNB,A,0
1,test,3,0.0,2-Back,1,m,Mon Apr 07 2025 08:58:05 GMT-0500 (Central Daylight Time),624787.4000000954,044_o_f_n_a.png,O,m,1475,3,1,2499.4000000953674,622288.0,7118,NNB,A,1
2,test,3,0.0,2-Back,1,m,Mon Apr 07 2025 08:58:05 GMT-0500 (Central Daylight Time),627103.1000000238,045_m_m_n_a.png,O,m,1279,4,1,2288.100000023842,624815.0,7118,NNB,A,2
3,test,3,1.0,2-Back,1,z,Mon Apr 07 2025 08:58:05 GMT-0500 (Central Daylight Time),628652.7000000477,044_o_f_n_a.png,O,z,483,5,1,1512.7000000476837,627140.0,7118,NNB,A,3
3,test,3,0.0,2-Back,0,m,Mon Apr 07 2025 08:58:05 GMT-0500 (Central Daylight Time),631184.5,008_y_m_n_a.png,O,z,1484,6,1,2503.0,628681.5,7118,NNB,A,4
4,test,3,0.0,2-Back,1,m,Mon Apr 07 2025 08:58:05 GMT-0500 (Central Daylight Time),633967.7000000477,045_m_m_n_a.png,O,m,1754,7,1,2768.2999999523163,631199.4000000954,7118,NNB,A,5
4,test,3,1.0,2-Back,0,z,Mon Apr 07 2025 08:58:05 GMT-0500 (Central Daylight Time),637018.8000000715,008_y_m_n_a.png,O,None,2016,8,1,3024.3000000715256,633994.5,7118,NNB,A,6
5,test,3,0.0,2-Back,1,m,Mon Apr 07 2025 08:58:05 GMT-0500 (Central Daylight Time),639265.9000000954,010_y_f_n_a.png,O,m,1186,9,1,2215.600000023842,637050.3000000715,7118,NNB,A,7
6,test,3,0.0,2-Back,1,m,Mon Apr 07 2025 08:58:05 GMT-0500 (Central Daylight Time),641981.6000000238,058_m_m_n_a.png,O,m,1656,10,1,2682.399999976158,639299.2000000477,7118,NNB,A,8
7,test,3,1.0,2-Back,1,z,Mon Apr 07 2025 08:58:05 GMT-0500 (Central Daylight Time),644097.7000000477,010_y_f_n_a.png,O,z,1077,11,1,2091.899999976158,642005.8000000715,7118,NNB,A,9
8,test,3,1.0,2-Back,1,z,Mon Apr 07 2025 08:58:05 GMT-0500 (Central Daylight Time),646396.9000000954,058_m_m_n_a.png,O,z,1240,12,1,2267.2000000476837,644129.7000000477,7118,NNB,A,10
9,test,3,0.0,2-Back,1,m,Mon Apr 07 2025 08:58:05 GMT-0500 (Central Daylight Time),648546.5,044_o_f_n_a.png,O,m,1084,13,1,2117.2999999523163,646429.2000000477,7118,NNB,A,11
10,test,3,0.0,2-Back,1,m,Mon Apr 07 2025 08:58:05 GMT-0500 (Central Daylight Time),650812.3000000715,050_m_f_n_a.png,O,m,1225,14,1,2238.899999976158,648573.4000000954,7118,NNB,A,12
11,test,3,0.0,2-Back,1,m,Mon Apr 07 2025 08:58:05 GMT-0500 (Central Daylight Time),652677.6000000238,046_o_m_n_a.png,O,m,814,15,1,1831.3999999761581,650846.2000000477,7118,NNB,A,13
12,test,3,1.0,2-Back,1,z,Mon Apr 07 2025 08:58:05 GMT-0500 (Central Daylight Time),654678.3000000715,050_m_f_n_a.png,O,z,966,16,1,1969.5,652708.8000000715,7118,NNB,A,14
13,test,3,0.0,2-Back,1,m,Mon Apr 07 2025 08:58:05 GMT-0500 (Central Daylight Time),656760.3000000715,047_o_f_n_a.png,O,m,1021,17,1,2046.7000000476837,654713.6000000238,7118,NNB,A,15
14,test,3,0.0,2-Back,1,m,Mon Apr 07 2025 08:58:05 GMT-0500 (Central Daylight Time),659442.7000000477,047_o_f_n_a.png,O,m,1634,18,1,2652.100000023842,656790.6000000238,7118,NNB,A,16
0,test,4,0.0,2-Back,,,Mon Apr 07 2025 08:58:05 GMT-0500 (Central Daylight Time),659442.7000000477,053_o_m_n_a.png,O,space,1150,1,1,2652.100000023842,656790.6000000238,7118,NNB,A,0
0,test,4,0.0,2-Back,,,Mon Apr 07 2025 08:58:05 GMT-0500 (Central Daylight Time),659442.7000000477,063_y_f_n_a.png,O,space,1150,2,1,2652.100000023842,656790.6000000238,7118,NNB,A,0
1,test,4,1.0,2-Back,1,z,Mon Apr 07 2025 08:58:05 GMT-0500 (Central Daylight Time),667640.0,053_o_m_n_a.png,O,z,779,3,1,1797.1999999284744,665842.8000000715,7118,NNB,A,1
1,test,4,1.0,2-Back,0,z,Mon Apr 07 2025 08:58:05 GMT-0500 (Central Daylight Time),669489.5,063_y_f_n_a.png,O,m,786,4,1,1815.7999999523163,667673.7000000477,7118,NNB,A,2
2,test,4,0.0,2-Back,1,m,Mon Apr 07 2025 08:58:05 GMT-0500 (Central Daylight Time),671888.4000000954,044_o_f_n_a.png,O,m,1144,5,1,2373.9000000953674,669514.5,7118,NNB,A,3
3,test,4,0.0,2-Back,1,m,Mon Apr 07 2025 08:58:05 GMT-0500 (Central Daylight Time),674904.1000000238,044_o_f_n_a.png,O,m,1970,6,1,2987.6999999284744,671916.4000000954,7118,NNB,A,4
4,test,4,0.0,2-Back,1,m,Mon Apr 07 2025 08:58:05 GMT-0500 (Central Daylight Time),676920.5,043_m_f_n_a.png,O,m,954,7,1,1982.2999999523163,674938.2000000477,7118,NNB,A,5
5,test,4,0.0,2-Back,1,m,Mon Apr 07 2025 08:58:05 GMT-0500 (Central Daylight Time),678769.5,008_y_m_n_a.png,O,m,811,8,1,1819.0,676950.5,7118,NNB,A,6
6,test,4,1.0,2-Back,1,z,Mon Apr 07 2025 08:58:05 GMT-0500 (Central Daylight Time),680351.5,043_m_f_n_a.png,O,z,518,9,1,1549.5,678802.0,7118,NNB,A,7
7,test,4,0.0,2-Back,1,m,Mon Apr 07 2025 08:58:05 GMT-0500 (Central Daylight Time),682568.4000000954,058_m_m_n_a.png,O,m,1187,10,1,2208.100000023842,680360.3000000715,7118,NNB,A,8
8,test,4,0.0,2-Back,1,m,Mon Apr 07 2025 08:58:05 GMT-0500 (Central Daylight Time),685400.7000000477,008_y_m_n_a.png,O,m,1786,11,1,2806.399999976158,682594.3000000715,7118,NNB,A,9
8,test,4,0.0,2-Back,0,m,Mon Apr 07 2025 08:58:05 GMT-0500 (Central Daylight Time),687550.1000000238,047_o_f_n_a.png,O,z,1089,12,1,2113.6999999284744,685436.4000000954,7118,NNB,A,10
9,test,4,0.0,2-Back,1,m,Mon Apr 07 2025 08:58:05 GMT-0500 (Central Daylight Time),689715.5,041_y_m_n_a.png,O,m,1124,13,1,2138.1999999284744,687577.3000000715,7118,NNB,A,11
10,test,4,1.0,2-Back,1,z,Mon Apr 07 2025 08:58:05 GMT-0500 (Central Daylight Time),691815.1000000238,047_o_f_n_a.png,O,z,1055,14,1,2080.600000023842,689734.5,7118,NNB,A,12
11,test,4,1.0,2-Back,1,z,Mon Apr 07 2025 08:58:05 GMT-0500 (Central Daylight Time),693948.1000000238,041_y_m_n_a.png,O,z,1074,15,1,2098.899999976158,691849.2000000477,7118,NNB,A,13
12,test,4,0.0,2-Back,1,m,Mon Apr 07 2025 08:58:05 GMT-0500 (Central Daylight Time),696147.3000000715,045_m_m_n_a.png,O,m,1151,16,1,2175.7000000476837,693971.6000000238,7118,NNB,A,14
13,test,4,0.0,2-Back,1,m,Mon Apr 07 2025 08:58:05 GMT-0500 (Central Daylight Time),698196.7000000477,050_m_f_n_a.png,O,m,991,17,1,2016.7999999523163,696179.9000000954,7118,NNB,A,15
14,test,4,1.0,2-Back,1,z,Mon Apr 07 2025 08:58:05 GMT-0500 (Central Daylight Time),700129.3000000715,045_m_m_n_a.png,O,z,886,18,1,1904.1000000238419,698225.2000000477,7118,NNB,A,16
0,test,5,1.0,2-Back,,,Mon Apr 07 2025 08:58:05 GMT-0500 (Central Daylight Time),700129.3000000715,041_y_m_n_a.png,O,space,1169,1,1,1904.1000000238419,698225.2000000477,7118,NNB,A,0
0,test,5,1.0,2-Back,,,Mon Apr 07 2025 08:58:05 GMT-0500 (Central Daylight Time),700129.3000000715,050_m_f_n_a.png,O,space,1169,2,1,1904.1000000238419,698225.2000000477,7118,NNB,A,0
1,test,5,1.0,2-Back,1,z,Mon Apr 07 2025 08:58:05 GMT-0500 (Central Daylight Time),708643.3000000715,041_y_m_n_a.png,O,z,1150,3,1,2180.100000023842,706463.2000000477,7118,NNB,A,1
2,test,5,1.0,2-Back,1,z,Mon Apr 07 2025 08:58:05 GMT-0500 (Central Daylight Time),710459.5,050_m_f_n_a.png,O,z,751,4,1,1781.5,708678.0,7118,NNB,A,2
3,test,5,0.0,2-Back,1,m,Mon Apr 07 2025 08:58:05 GMT-0500 (Central Daylight Time),712308.9000000954,047_o_f_n_a.png,O,m,785,5,1,1818.5,710490.4000000954,7118,NNB,A,3
4,test,5,0.0,2-Back,1,m,Mon Apr 07 2025 08:58:05 GMT-0500 (Central Daylight Time),714241.5,041_y_m_n_a.png,O,m,740,6,1,1897.7999999523163,712343.7000000477,7118,NNB,A,4
5,test,5,0.0,2-Back,1,m,Mon Apr 07 2025 08:58:05 GMT-0500 (Central Daylight Time),716873.5,010_y_f_n_a.png,O,m,1569,7,1,2599.2999999523163,714274.2000000477,7118,NNB,A,5
6,test,5,0.0,2-Back,1,m,Mon Apr 07 2025 08:58:05 GMT-0500 (Central Daylight Time),719822.6000000238,047_o_f_n_a.png,O,m,1912,8,1,2931.1999999284744,716891.4000000954,7118,NNB,A,6
7,test,5,1.0,2-Back,1,z,Mon Apr 07 2025 08:58:05 GMT-0500 (Central Daylight Time),722038.8000000715,010_y_f_n_a.png,O,z,1172,9,1,2188.0,719850.8000000715,7118,NNB,A,7
8,test,5,0.0,2-Back,1,m,Mon Apr 07 2025 08:58:05 GMT-0500 (Central Daylight Time),724071.1000000238,046_o_m_n_a.png,O,m,996,10,1,2001.2999999523163,722069.8000000715,7118,NNB,A,8
9,test,5,0.0,2-Back,1,m,Mon Apr 07 2025 08:58:05 GMT-0500 (Central Daylight Time),726253.8000000715,043_m_f_n_a.png,O,m,1132,11,1,2149.600000023842,724104.2000000477,7118,NNB,A,9
10,test,5,0.0,2-Back,1,m,Mon Apr 07 2025 08:58:05 GMT-0500 (Central Daylight Time),728169.1000000238,058_m_m_n_a.png,O,m,875,12,1,1893.2999999523163,726275.8000000715,7118,NNB,A,10
11,test,5,0.0,2-Back,1,m,Mon Apr 07 2025 08:58:05 GMT-0500 (Central Daylight Time),730752.5,046_o_m_n_a.png,O,m,1553,13,1,2574.0,728178.5,7118,NNB,A,11
12,test,5,1.0,2-Back,1,z,Mon Apr 07 2025 08:58:05 GMT-0500 (Central Daylight Time),733418.1000000238,058_m_m_n_a.png,O,z,1618,14,1,2639.6999999284744,730778.4000000954,7118,NNB,A,12
13,test,5,0.0,2-Back,1,m,Mon Apr 07 2025 08:58:05 GMT-0500 (Central Daylight Time),735567.7000000477,063_y_f_n_a.png,O,m,1112,15,1,2123.399999976158,733444.3000000715,7118,NNB,A,13
14,test,5,0.0,2-Back,1,m,Mon Apr 07 2025 08:58:05 GMT-0500 (Central Daylight Time),737983.6000000238,053_o_m_n_a.png,O,m,1371,16,1,2384.899999976158,735598.7000000477,7118,NNB,A,14
15,test,5,0.0,2-Back,1,m,Mon Apr 07 2025 08:58:05 GMT-0500 (Central Daylight Time),739816.1000000238,043_m_f_n_a.png,O,m,788,17,1,1807.6000000238419,738008.5,7118,NNB,A,15
16,test,5,1.0,2-Back,1,z,Mon Apr 07 2025 08:58:05 GMT-0500 (Central Daylight Time),741865.7000000477,053_o_m_n_a.png,O,z,994,18,1,2014.2999999523163,739851.4000000954,7118,NNB,A,16
