Number,acc_sum,block,block_c,block_cond,con_img,correct,correct_response,datetime,endtime,jitter,project,response,response_time,row_sel,session_number,start_end,starttime,subject_id,task,task_vers,trial
2,1,prac,1,A,circle.png,1,z,Fri Apr 25 2025 14:51:28 GMT-0500 (Central Daylight Time),57790.29999999888,2000,I,z,1151,2,1,3943.5999999996275,53846.699999999255,8038,NTS,B,1
9,2,prac,1,A,circle.png,1,m,Fri Apr 25 2025 14:51:28 GMT-0500 (Central Daylight Time),60806.199999999255,1500,I,m,727,8,1,3009.9000000003725,57796.29999999888,8038,NTS,B,2
9,3,prac,1,A,circle.png,1,m,Fri Apr 25 2025 14:51:28 GMT-0500 (Central Daylight Time),63605.0,1500,I,m,512,8,1,2793.300000000745,60811.699999999255,8038,NTS,B,3
8,4,prac,1,A,circle.png,1,m,Fri Apr 25 2025 14:51:28 GMT-0500 (Central Daylight Time),66537.5,1600,I,m,548,7,1,2926.800000000745,63610.699999999255,8038,NTS,B,4
3,5,prac,1,A,circle.png,1,z,Fri Apr 25 2025 14:51:28 GMT-0500 (Central Daylight Time),69120.19999999925,1200,I,z,584,3,1,2577.0999999996275,66543.09999999963,8038,NTS,B,5
2,6,prac,1,A,circle.png,1,z,Fri Apr 25 2025 14:51:28 GMT-0500 (Central Daylight Time),72535.79999999888,2000,I,z,618,2,1,3410.0,69125.79999999888,8038,NTS,B,6
3,7,prac,1,A,circle.png,1,z,Fri Apr 25 2025 14:51:28 GMT-0500 (Central Daylight Time),75151.59999999963,1200,I,z,626,3,1,2610.800000000745,72540.79999999888,8038,NTS,B,7
6,8,prac,1,A,circle.png,1,m,Fri Apr 25 2025 14:51:28 GMT-0500 (Central Daylight Time),78517.09999999963,1900,I,m,671,5,1,3359.5,75157.59999999963,8038,NTS,B,8
1,9,prac,1,A,circle.png,1,z,Fri Apr 25 2025 14:51:28 GMT-0500 (Central Daylight Time),80849.89999999851,1000,I,z,533,1,1,2327.2999999988824,78522.59999999963,8038,NTS,B,9
4,10,prac,1,A,circle.png,1,z,Fri Apr 25 2025 14:51:28 GMT-0500 (Central Daylight Time),83715.5,1400,I,z,672,4,1,2860.10000000149,80855.39999999851,8038,NTS,B,10
7,11,prac,1,A,circle.png,1,m,Fri Apr 25 2025 14:51:28 GMT-0500 (Central Daylight Time),86781.39999999851,1700,I,m,579,6,1,3060.39999999851,83721.0,8038,NTS,B,11
4,12,prac,1,A,circle.png,1,z,Fri Apr 25 2025 14:51:28 GMT-0500 (Central Daylight Time),89563.89999999851,1400,I,z,589,4,1,2777.5999999996275,86786.29999999888,8038,NTS,B,12
4,1,prac,1,B,triangle.png,1,m,Fri Apr 25 2025 14:51:28 GMT-0500 (Central Daylight Time),114156.09999999963,1500,I,m,1039,4,1,3328.0999999996275,110828.0,8038,NTS,B,1
2,2,prac,1,B,triangle.png,1,m,Fri Apr 25 2025 14:51:28 GMT-0500 (Central Daylight Time),117188.29999999888,1700,I,m,546,2,1,3026.7999999988824,114161.5,8038,NTS,B,2
8,3,prac,1,B,triangle.png,1,m,Fri Apr 25 2025 14:51:28 GMT-0500 (Central Daylight Time),119704.29999999888,1200,I,m,526,7,1,2510.7999999988824,117193.5,8038,NTS,B,3
6,4,prac,1,B,triangle.png,1,m,Fri Apr 25 2025 14:51:28 GMT-0500 (Central Daylight Time),121970.19999999925,1000,I,m,474,5,1,2261.199999999255,119709.0,8038,NTS,B,4
1,5,prac,1,B,triangle.png,1,z,Fri Apr 25 2025 14:51:28 GMT-0500 (Central Daylight Time),125136.0,1900,I,z,476,1,1,3160.4000000003725,121975.59999999963,8038,NTS,B,5
6,6,prac,1,B,triangle.png,1,m,Fri Apr 25 2025 14:51:28 GMT-0500 (Central Daylight Time),127368.59999999963,1000,I,m,434,5,1,2227.5,125141.09999999963,8038,NTS,B,6
9,6,prac,1,B,triangle.png,0,z,Fri Apr 25 2025 14:51:28 GMT-0500 (Central Daylight Time),130117.59999999963,1400,I,m,541,8,1,2743.7000000011176,127373.89999999851,8038,NTS,B,7
3,7,prac,1,B,triangle.png,1,z,Fri Apr 25 2025 14:51:28 GMT-0500 (Central Daylight Time),133333.69999999925,1600,I,z,820,3,1,3211.4000000003725,130122.29999999888,8038,NTS,B,8
9,8,prac,1,B,triangle.png,1,z,Fri Apr 25 2025 14:51:28 GMT-0500 (Central Daylight Time),136365.59999999963,1400,I,z,845,8,1,3027.300000000745,133338.29999999888,8038,NTS,B,9
7,9,prac,1,B,triangle.png,1,z,Fri Apr 25 2025 14:51:28 GMT-0500 (Central Daylight Time),139731.29999999888,2000,I,z,573,6,1,3360.699999999255,136370.59999999963,8038,NTS,B,10
8,10,prac,1,B,triangle.png,1,m,Fri Apr 25 2025 14:51:28 GMT-0500 (Central Daylight Time),142230.3999999985,1200,I,m,503,7,1,2494.0,139736.3999999985,8038,NTS,B,11
3,11,prac,1,B,triangle.png,1,z,Fri Apr 25 2025 14:51:28 GMT-0500 (Central Daylight Time),145079.8999999985,1600,I,z,460,3,1,2844.7999999988824,142235.09999999963,8038,NTS,B,12
1,1,test,1,A,circle.png,1,z,Fri Apr 25 2025 14:51:28 GMT-0500 (Central Daylight Time),166489.69999999925,1000,I,z,951,1,1,1979.5,164510.19999999925,8038,NTS,B,1
4,2,test,1,A,circle.png,1,z,Fri Apr 25 2025 14:51:28 GMT-0500 (Central Daylight Time),168688.8999999985,1400,I,z,768,4,1,2194.699999999255,166494.19999999925,8038,NTS,B,2
9,3,test,1,A,circle.png,1,m,Fri Apr 25 2025 14:51:28 GMT-0500 (Central Daylight Time),170705.0,1500,I,m,493,8,1,2012.300000000745,168692.69999999925,8038,NTS,B,3
8,4,test,1,A,circle.png,1,m,Fri Apr 25 2025 14:51:28 GMT-0500 (Central Daylight Time),172837.69999999925,1600,I,m,513,7,1,2128.800000000745,170708.8999999985,8038,NTS,B,4
6,5,test,1,A,circle.png,1,m,Fri Apr 25 2025 14:51:28 GMT-0500 (Central Daylight Time),175353.5,1900,I,m,585,5,1,2512.2000000011176,172841.29999999888,8038,NTS,B,5
3,6,test,1,A,circle.png,1,z,Fri Apr 25 2025 14:51:28 GMT-0500 (Central Daylight Time),177136.29999999888,1200,I,z,560,3,1,1778.9000000003725,175357.3999999985,8038,NTS,B,6
1,7,test,1,A,circle.png,1,z,Fri Apr 25 2025 14:51:28 GMT-0500 (Central Daylight Time),178735.8999999985,1000,I,z,570,1,1,1595.699999999255,177140.19999999925,8038,NTS,B,7
8,8,test,1,A,circle.png,1,m,Fri Apr 25 2025 14:51:28 GMT-0500 (Central Daylight Time),180901.79999999888,1600,I,m,538,7,1,2162.0,178739.79999999888,8038,NTS,B,8
7,9,test,1,A,circle.png,1,m,Fri Apr 25 2025 14:51:28 GMT-0500 (Central Daylight Time),183434.19999999925,1700,I,m,800,6,1,2529.0,180905.19999999925,8038,NTS,B,9
2,10,test,1,A,circle.png,1,z,Fri Apr 25 2025 14:51:28 GMT-0500 (Central Daylight Time),186016.8999999985,2000,I,z,552,2,1,2578.89999999851,183438.0,8038,NTS,B,10
8,11,test,1,A,circle.png,1,m,Fri Apr 25 2025 14:51:28 GMT-0500 (Central Daylight Time),188166.09999999963,1600,I,m,521,7,1,2145.5999999996275,186020.5,8038,NTS,B,11
6,12,test,1,A,circle.png,1,m,Fri Apr 25 2025 14:51:28 GMT-0500 (Central Daylight Time),190682.09999999963,1900,I,m,584,5,1,2512.2000000011176,188169.8999999985,8038,NTS,B,12
4,13,test,1,A,circle.png,1,z,Fri Apr 25 2025 14:51:28 GMT-0500 (Central Daylight Time),192731.59999999963,1400,I,z,632,4,1,2045.7000000011176,190685.8999999985,8038,NTS,B,13
6,14,test,1,A,circle.png,1,m,Fri Apr 25 2025 14:51:28 GMT-0500 (Central Daylight Time),195230.59999999963,1900,I,m,571,5,1,2495.0999999996275,192735.5,8038,NTS,B,14
2,15,test,1,A,circle.png,1,z,Fri Apr 25 2025 14:51:28 GMT-0500 (Central Daylight Time),197679.8999999985,2000,I,z,419,2,1,2445.699999999255,195234.19999999925,8038,NTS,B,15
9,16,test,1,A,circle.png,1,m,Fri Apr 25 2025 14:51:28 GMT-0500 (Central Daylight Time),199812.3999999985,1500,I,m,606,8,1,2128.699999999255,197683.69999999925,8038,NTS,B,16
9,17,test,1,A,circle.png,1,m,Fri Apr 25 2025 14:51:28 GMT-0500 (Central Daylight Time),201845.09999999963,1500,I,m,514,8,1,2028.7000000011176,199816.3999999985,8038,NTS,B,17
7,18,test,1,A,circle.png,1,m,Fri Apr 25 2025 14:51:28 GMT-0500 (Central Daylight Time),204161.0,1700,I,m,593,6,1,2312.0,201849.0,8038,NTS,B,18
6,19,test,1,A,circle.png,1,m,Fri Apr 25 2025 14:51:28 GMT-0500 (Central Daylight Time),206593.69999999925,1900,I,m,501,5,1,2428.9000000003725,204164.79999999888,8038,NTS,B,19
4,20,test,1,A,circle.png,1,z,Fri Apr 25 2025 14:51:28 GMT-0500 (Central Daylight Time),208626.3999999985,1400,I,z,600,4,1,2029.199999999255,206597.19999999925,8038,NTS,B,20
3,21,test,1,A,circle.png,1,z,Fri Apr 25 2025 14:51:28 GMT-0500 (Central Daylight Time),210292.69999999925,1200,I,z,440,3,1,1662.699999999255,208630.0,8038,NTS,B,21
4,22,test,1,A,circle.png,1,z,Fri Apr 25 2025 14:51:28 GMT-0500 (Central Daylight Time),212275.3999999985,1400,I,z,550,4,1,1979.0,210296.3999999985,8038,NTS,B,22
1,23,test,1,A,circle.png,1,z,Fri Apr 25 2025 14:51:28 GMT-0500 (Central Daylight Time),213874.79999999888,1000,I,z,575,1,1,1595.9000000003725,212278.8999999985,8038,NTS,B,23
3,24,test,1,A,circle.png,1,z,Fri Apr 25 2025 14:51:28 GMT-0500 (Central Daylight Time),215607.5,1200,I,z,511,3,1,1729.2000000011176,213878.29999999888,8038,NTS,B,24
9,1,test,1,B,triangle.png,1,z,Fri Apr 25 2025 14:51:28 GMT-0500 (Central Daylight Time),231969.09999999963,1400,I,z,1018,8,1,2446.5,229522.59999999963,8038,NTS,B,1
9,2,test,1,B,triangle.png,1,z,Fri Apr 25 2025 14:51:28 GMT-0500 (Central Daylight Time),233935.09999999963,1400,I,z,537,8,1,1962.0999999996275,231973.0,8038,NTS,B,2
6,3,test,1,B,triangle.png,1,m,Fri Apr 25 2025 14:51:28 GMT-0500 (Central Daylight Time),235501.19999999925,1000,I,m,547,5,1,1562.300000000745,233938.8999999985,8038,NTS,B,3
2,4,test,1,B,triangle.png,1,m,Fri Apr 25 2025 14:51:28 GMT-0500 (Central Daylight Time),237767.19999999925,1700,I,m,545,2,1,2262.5,235504.69999999925,8038,NTS,B,4
1,5,test,1,B,triangle.png,1,z,Fri Apr 25 2025 14:51:28 GMT-0500 (Central Daylight Time),240316.3999999985,1900,I,z,623,1,1,2545.5,237770.8999999985,8038,NTS,B,5
2,6,test,1,B,triangle.png,1,m,Fri Apr 25 2025 14:51:28 GMT-0500 (Central Daylight Time),242749.09999999963,1700,I,m,714,2,1,2429.300000000745,240319.79999999888,8038,NTS,B,6
9,6,test,1,B,triangle.png,0,z,Fri Apr 25 2025 14:51:28 GMT-0500 (Central Daylight Time),245298.19999999925,1900,I,m,617,16,1,2545.300000000745,242752.8999999985,8038,NTS,B,7
4,7,test,1,B,triangle.png,1,m,Fri Apr 25 2025 14:51:28 GMT-0500 (Central Daylight Time),247597.19999999925,1500,I,m,778,4,1,2295.300000000745,245301.8999999985,8038,NTS,B,8
3,8,test,1,B,triangle.png,1,z,Fri Apr 25 2025 14:51:28 GMT-0500 (Central Daylight Time),250147.0,2000,I,z,525,11,1,2546.0,247601.0,8038,NTS,B,9
7,9,test,1,B,triangle.png,1,z,Fri Apr 25 2025 14:51:28 GMT-0500 (Central Daylight Time),252829.09999999963,2000,I,z,656,6,1,2678.800000000745,250150.29999999888,8038,NTS,B,10
7,10,test,1,B,triangle.png,1,z,Fri Apr 25 2025 14:51:28 GMT-0500 (Central Daylight Time),255361.59999999963,2000,I,z,509,6,1,2528.5999999996275,252833.0,8038,NTS,B,11
3,11,test,1,B,triangle.png,1,z,Fri Apr 25 2025 14:51:28 GMT-0500 (Central Daylight Time),257461.19999999925,1600,I,z,481,3,1,2095.9000000003725,255365.29999999888,8038,NTS,B,12
3,12,test,1,B,triangle.png,1,z,Fri Apr 25 2025 14:51:28 GMT-0500 (Central Daylight Time),259610.29999999888,1600,I,z,517,3,1,2145.5999999996275,257464.69999999925,8038,NTS,B,13
4,13,test,1,B,triangle.png,1,m,Fri Apr 25 2025 14:51:28 GMT-0500 (Central Daylight Time),261126.5,1000,I,m,496,12,1,1512.6000000014901,259613.8999999985,8038,NTS,B,14
1,14,test,1,B,triangle.png,1,z,Fri Apr 25 2025 14:51:28 GMT-0500 (Central Daylight Time),263642.69999999925,1900,I,z,584,1,1,2512.300000000745,261130.3999999985,8038,NTS,B,15
8,15,test,1,B,triangle.png,1,m,Fri Apr 25 2025 14:51:28 GMT-0500 (Central Daylight Time),265891.7999999989,1700,I,m,524,15,1,2244.7999999988824,263647.0,8038,NTS,B,16
2,16,test,1,B,triangle.png,1,m,Fri Apr 25 2025 14:51:28 GMT-0500 (Central Daylight Time),267774.69999999925,1200,I,m,654,10,1,1879.4000000003725,265895.2999999989,8038,NTS,B,17
1,17,test,1,B,triangle.png,1,z,Fri Apr 25 2025 14:51:28 GMT-0500 (Central Daylight Time),269774.0,1400,I,z,580,9,1,1995.7000000011176,267778.2999999989,8038,NTS,B,18
9,18,test,1,B,triangle.png,1,z,Fri Apr 25 2025 14:51:28 GMT-0500 (Central Daylight Time),272539.5999999996,1900,I,z,831,16,1,2762.0,269777.5999999996,8038,NTS,B,19
1,19,test,1,B,triangle.png,1,z,Fri Apr 25 2025 14:51:28 GMT-0500 (Central Daylight Time),274555.5999999996,1400,I,z,598,9,1,2012.300000000745,272543.2999999989,8038,NTS,B,20
7,20,test,1,B,triangle.png,1,z,Fri Apr 25 2025 14:51:28 GMT-0500 (Central Daylight Time),276721.7999999989,1600,I,z,543,14,1,2162.699999999255,274559.0999999996,8038,NTS,B,21
4,21,test,1,B,triangle.png,1,m,Fri Apr 25 2025 14:51:28 GMT-0500 (Central Daylight Time),278404.7999999989,1000,I,m,657,12,1,1679.5,276725.2999999989,8038,NTS,B,22
8,22,test,1,B,triangle.png,1,m,Fri Apr 25 2025 14:51:28 GMT-0500 (Central Daylight Time),280070.5999999996,1200,I,m,446,7,1,1661.800000000745,278408.7999999989,8038,NTS,B,23
6,23,test,1,B,triangle.png,1,m,Fri Apr 25 2025 14:51:28 GMT-0500 (Central Daylight Time),282220.0,1500,I,m,616,13,1,2146.0,280074.0,8038,NTS,B,24
1,1,prac,1,C,circle.png,1,z,Fri Apr 25 2025 14:51:28 GMT-0500 (Central Daylight Time),316776.0,1700,I,z,1309,1,1,3794.300000000745,312981.69999999925,8038,NTS,B,1
3,2,prac,1,C,triangle.png,1,z,Fri Apr 25 2025 14:51:28 GMT-0500 (Central Daylight Time),320324.8999999985,1500,I,z,1262,3,1,3543.89999999851,316781.0,8038,NTS,B,2
1,3,prac,1,C,circle.png,1,z,Fri Apr 25 2025 14:51:28 GMT-0500 (Central Daylight Time),323423.7999999989,1700,I,z,609,1,1,3094.2999999988824,320329.5,8038,NTS,B,3
6,3,prac,1,C,circle.png,0,m,Fri Apr 25 2025 14:51:28 GMT-0500 (Central Daylight Time),327722.3999999985,2000,I,None,1516,5,1,4293.39999999851,323429.0,8038,NTS,B,4
8,4,prac,1,C,triangle.png,1,m,Fri Apr 25 2025 14:51:28 GMT-0500 (Central Daylight Time),330954.7999999989,1400,I,m,1040,7,1,3224.2999999988824,327730.5,8038,NTS,B,5
8,5,prac,1,C,triangle.png,1,m,Fri Apr 25 2025 14:51:28 GMT-0500 (Central Daylight Time),333754.0999999996,1400,I,m,615,7,1,2794.4000000003725,330959.69999999925,8038,NTS,B,6
9,5,prac,1,C,circle.png,0,m,Fri Apr 25 2025 14:51:28 GMT-0500 (Central Daylight Time),337752.7999999989,1900,I,z,1309,8,1,3993.0999999996275,333759.69999999925,8038,NTS,B,7
7,6,prac,1,C,triangle.png,1,z,Fri Apr 25 2025 14:51:28 GMT-0500 (Central Daylight Time),340618.3999999985,1200,I,z,881,6,1,2860.89999999851,337757.5,8038,NTS,B,8
7,7,prac,1,C,triangle.png,1,z,Fri Apr 25 2025 14:51:28 GMT-0500 (Central Daylight Time),343151.0,1200,I,z,544,6,1,2527.800000000745,340623.19999999925,8038,NTS,B,9
9,8,prac,1,C,circle.png,1,m,Fri Apr 25 2025 14:51:28 GMT-0500 (Central Daylight Time),346483.2999999989,1900,I,m,640,8,1,3327.4000000003725,343155.8999999985,8038,NTS,B,10
4,9,prac,1,C,circle.png,1,z,Fri Apr 25 2025 14:51:28 GMT-0500 (Central Daylight Time),349249.19999999925,1000,I,z,975,4,1,2760.9000000003725,346488.2999999989,8038,NTS,B,11
2,10,prac,1,C,triangle.png,1,m,Fri Apr 25 2025 14:51:28 GMT-0500 (Central Daylight Time),352997.8999999985,1600,I,m,1361,2,1,3743.89999999851,349254.0,8038,NTS,B,12
4,1,test,1,C,triangle.png,1,m,Fri Apr 25 2025 14:51:28 GMT-0500 (Central Daylight Time),370292.2999999989,1500,I,m,864,12,1,2379.199999999255,367913.0999999996,8038,NTS,B,1
6,2,test,1,C,circle.png,1,m,Fri Apr 25 2025 14:51:28 GMT-0500 (Central Daylight Time),373074.7999999989,1900,I,m,858,21,1,2778.5,370296.2999999989,8038,NTS,B,2
2,3,test,1,C,circle.png,1,z,Fri Apr 25 2025 14:51:28 GMT-0500 (Central Daylight Time),375723.69999999925,1700,I,z,931,10,1,2645.0,373078.69999999925,8038,NTS,B,3
9,4,test,1,C,triangle.png,1,z,Fri Apr 25 2025 14:51:28 GMT-0500 (Central Daylight Time),378139.8999999985,1400,I,z,999,16,1,2412.2999999988824,375727.5999999996,8038,NTS,B,4
9,5,test,1,C,circle.png,1,m,Fri Apr 25 2025 14:51:28 GMT-0500 (Central Daylight Time),381072.5,1500,I,m,1402,24,1,2926.7000000011176,378145.7999999989,8038,NTS,B,5
8,6,test,1,C,circle.png,1,m,Fri Apr 25 2025 14:51:28 GMT-0500 (Central Daylight Time),383188.2999999989,1200,I,m,890,15,1,2111.5999999996275,381076.69999999925,8038,NTS,B,6
7,7,test,1,C,circle.png,1,m,Fri Apr 25 2025 14:51:28 GMT-0500 (Central Daylight Time),386654.0,2000,I,m,1438,14,1,3461.800000000745,383192.19999999925,8038,NTS,B,7
8,8,test,1,C,triangle.png,1,m,Fri Apr 25 2025 14:51:28 GMT-0500 (Central Daylight Time),389319.8999999985,1600,I,m,1036,23,1,2662.2999999988824,386657.5999999996,8038,NTS,B,8
8,9,test,1,C,triangle.png,1,m,Fri Apr 25 2025 14:51:28 GMT-0500 (Central Daylight Time),391868.8999999985,1600,I,m,922,7,1,2545.5,389323.3999999985,8038,NTS,B,9
7,10,test,1,C,triangle.png,1,z,Fri Apr 25 2025 14:51:28 GMT-0500 (Central Daylight Time),394235.0,1700,I,z,641,22,1,2362.4000000003725,391872.5999999996,8038,NTS,B,10
9,11,test,1,C,circle.png,1,m,Fri Apr 25 2025 14:51:28 GMT-0500 (Central Daylight Time),396434.0999999996,1500,I,m,675,8,1,2195.5,394238.5999999996,8038,NTS,B,11
3,12,test,1,C,circle.png,1,z,Fri Apr 25 2025 14:51:28 GMT-0500 (Central Daylight Time),399083.5999999996,1600,I,z,1024,19,1,2646.0,396437.5999999996,8038,NTS,B,12
4,13,test,1,C,circle.png,1,z,Fri Apr 25 2025 14:51:28 GMT-0500 (Central Daylight Time),401366.0,1400,I,z,863,4,1,2279.0,399087.0,8038,NTS,B,13
4,14,test,1,C,triangle.png,1,m,Fri Apr 25 2025 14:51:28 GMT-0500 (Central Daylight Time),403548.69999999925,1500,I,m,664,20,1,2179.199999999255,401369.5,8038,NTS,B,14
6,15,test,1,C,circle.png,1,m,Fri Apr 25 2025 14:51:28 GMT-0500 (Central Daylight Time),406581.0,1900,I,m,1106,5,1,3028.60000000149,403552.3999999985,8038,NTS,B,15
7,16,test,1,C,triangle.png,1,z,Fri Apr 25 2025 14:51:28 GMT-0500 (Central Daylight Time),409246.8999999985,1700,I,z,945,6,1,2661.89999999851,406585.0,8038,NTS,B,16
3,17,test,1,C,triangle.png,1,z,Fri Apr 25 2025 14:51:28 GMT-0500 (Central Daylight Time),411405.8999999985,1200,I,z,941,3,1,2155.199999999255,409250.69999999925,8038,NTS,B,17
2,18,test,1,C,circle.png,1,z,Fri Apr 25 2025 14:51:28 GMT-0500 (Central Daylight Time),414345.19999999925,1700,I,z,1226,18,1,2935.199999999255,411410.0,8038,NTS,B,18
2,19,test,1,C,triangle.png,1,m,Fri Apr 25 2025 14:51:28 GMT-0500 (Central Daylight Time),417827.3999999985,2000,I,m,1450,2,1,3478.5999999996275,414348.7999999989,8038,NTS,B,19
6,20,test,1,C,triangle.png,1,m,Fri Apr 25 2025 14:51:28 GMT-0500 (Central Daylight Time),419593.69999999925,1000,I,m,735,13,1,1762.4000000003725,417831.2999999989,8038,NTS,B,20
1,20,test,1,C,triangle.png,0,z,Fri Apr 25 2025 14:51:28 GMT-0500 (Central Daylight Time),423025.8999999985,1900,I,None,1516,17,1,3428.7999999988824,419597.0999999996,8038,NTS,B,21
3,21,test,1,C,circle.png,1,z,Fri Apr 25 2025 14:51:28 GMT-0500 (Central Daylight Time),425558.3999999985,1600,I,z,904,11,1,2528.89999999851,423029.5,8038,NTS,B,22
1,22,test,1,C,circle.png,1,z,Fri Apr 25 2025 14:51:28 GMT-0500 (Central Daylight Time),427224.69999999925,1000,I,z,636,1,1,1659.9000000003725,425564.7999999989,8038,NTS,B,23
1,23,test,1,C,triangle.png,1,z,Fri Apr 25 2025 14:51:28 GMT-0500 (Central Daylight Time),429740.19999999925,1900,I,z,598,9,1,2511.800000000745,427228.3999999985,8038,NTS,B,24
4,1,test,2,C,triangle.png,1,m,Fri Apr 25 2025 14:51:28 GMT-0500 (Central Daylight Time),438171.3999999985,1500,I,m,999,12,1,2512.7999999988824,435658.5999999996,8038,NTS,B,1
4,2,test,2,C,triangle.png,1,m,Fri Apr 25 2025 14:51:28 GMT-0500 (Central Daylight Time),440953.7999999989,1500,I,m,1250,20,1,2778.5,438175.2999999989,8038,NTS,B,2
6,3,test,2,C,circle.png,1,m,Fri Apr 25 2025 14:51:28 GMT-0500 (Central Daylight Time),443552.8999999985,1900,I,m,677,5,1,2595.2999999988824,440957.5999999996,8038,NTS,B,3
3,4,test,2,C,circle.png,1,z,Fri Apr 25 2025 14:51:28 GMT-0500 (Central Daylight Time),445885.19999999925,1600,I,z,705,19,1,2328.300000000745,443556.8999999985,8038,NTS,B,4
2,5,test,2,C,circle.png,1,z,Fri Apr 25 2025 14:51:28 GMT-0500 (Central Daylight Time),448301.19999999925,1700,I,z,697,18,1,2412.300000000745,445888.8999999985,8038,NTS,B,5
3,6,test,2,C,triangle.png,1,z,Fri Apr 25 2025 14:51:28 GMT-0500 (Central Daylight Time),450583.8999999985,1200,I,z,1053,3,1,2279.0999999996275,448304.7999999989,8038,NTS,B,6
9,7,test,2,C,circle.png,1,m,Fri Apr 25 2025 14:51:28 GMT-0500 (Central Daylight Time),452850.0,1500,I,m,742,8,1,2262.5,450587.5,8038,NTS,B,7
9,8,test,2,C,triangle.png,1,z,Fri Apr 25 2025 14:51:28 GMT-0500 (Central Daylight Time),455365.7999999989,1400,I,z,1096,16,1,2512.0,452853.7999999989,8038,NTS,B,8
6,9,test,2,C,triangle.png,1,m,Fri Apr 25 2025 14:51:28 GMT-0500 (Central Daylight Time),457098.5,1000,I,m,708,13,1,1729.300000000745,455369.19999999925,8038,NTS,B,9
7,10,test,2,C,triangle.png,1,z,Fri Apr 25 2025 14:51:28 GMT-0500 (Central Daylight Time),460097.3999999985,1700,I,z,1268,6,1,2994.7999999988824,457102.5999999996,8038,NTS,B,10
7,11,test,2,C,circle.png,1,m,Fri Apr 25 2025 14:51:28 GMT-0500 (Central Daylight Time),463130.0,2000,I,m,1009,14,1,3028.9000000003725,460101.0999999996,8038,NTS,B,11
6,12,test,2,C,triangle.png,1,m,Fri Apr 25 2025 14:51:28 GMT-0500 (Central Daylight Time),465146.0,1000,I,m,992,21,1,2012.1000000014901,463133.8999999985,8038,NTS,B,12
1,13,test,2,C,circle.png,1,z,Fri Apr 25 2025 14:51:28 GMT-0500 (Central Daylight Time),466762.2999999989,1000,I,z,584,1,1,1612.5,465149.7999999989,8038,NTS,B,13
8,14,test,2,C,circle.png,1,m,Fri Apr 25 2025 14:51:28 GMT-0500 (Central Daylight Time),468778.3999999985,1200,I,m,783,15,1,2012.699999999255,466765.69999999925,8038,NTS,B,14
7,15,test,2,C,circle.png,1,m,Fri Apr 25 2025 14:51:28 GMT-0500 (Central Daylight Time),471727.19999999925,2000,I,m,928,22,1,2945.300000000745,468781.8999999985,8038,NTS,B,15
8,16,test,2,C,triangle.png,1,m,Fri Apr 25 2025 14:51:28 GMT-0500 (Central Daylight Time),474059.8999999985,1600,I,m,707,7,1,2326.2999999988824,471733.5999999996,8038,NTS,B,16
2,17,test,2,C,circle.png,1,z,Fri Apr 25 2025 14:51:28 GMT-0500 (Central Daylight Time),476509.0,1700,I,z,723,10,1,2445.10000000149,474063.8999999985,8038,NTS,B,17
1,18,test,2,C,triangle.png,1,z,Fri Apr 25 2025 14:51:28 GMT-0500 (Central Daylight Time),479108.0999999996,1900,I,z,681,9,1,2595.5999999996275,476512.5,8038,NTS,B,18
1,19,test,2,C,triangle.png,1,z,Fri Apr 25 2025 14:51:28 GMT-0500 (Central Daylight Time),481624.0999999996,1900,I,z,586,17,1,2512.300000000745,479111.7999999989,8038,NTS,B,19
8,20,test,2,C,circle.png,1,m,Fri Apr 25 2025 14:51:28 GMT-0500 (Central Daylight Time),483573.5,1200,I,m,730,23,1,1945.6000000014901,481627.8999999985,8038,NTS,B,20
2,21,test,2,C,triangle.png,1,m,Fri Apr 25 2025 14:51:28 GMT-0500 (Central Daylight Time),486639.19999999925,2000,I,m,1045,2,1,3061.800000000745,483577.3999999985,8038,NTS,B,21
3,22,test,2,C,circle.png,1,z,Fri Apr 25 2025 14:51:28 GMT-0500 (Central Daylight Time),489121.8999999985,1600,I,z,859,11,1,2478.89999999851,486643.0,8038,NTS,B,22
9,23,test,2,C,triangle.png,1,z,Fri Apr 25 2025 14:51:28 GMT-0500 (Central Daylight Time),491521.0,1400,I,z,968,24,1,2395.4000000003725,489125.5999999996,8038,NTS,B,23
4,23,test,2,C,circle.png,0,z,Fri Apr 25 2025 14:51:28 GMT-0500 (Central Daylight Time),494003.7999999989,1400,I,m,1050,4,1,2478.7999999988824,491525.0,8038,NTS,B,24
3,0,test,3,C,triangle.png,0,z,Fri Apr 25 2025 14:51:28 GMT-0500 (Central Daylight Time),498485.5999999996,1200,I,m,872,3,1,2096.4000000003725,496389.19999999925,8038,NTS,B,1
2,1,test,3,C,triangle.png,1,m,Fri Apr 25 2025 14:51:28 GMT-0500 (Central Daylight Time),501568.0999999996,2000,I,m,1061,18,1,3078.800000000745,498489.2999999989,8038,NTS,B,2
7,2,test,3,C,circle.png,1,m,Fri Apr 25 2025 14:51:28 GMT-0500 (Central Daylight Time),504483.69999999925,2000,I,m,890,14,1,2912.0999999996275,501571.5999999996,8038,NTS,B,3
7,3,test,3,C,triangle.png,1,z,Fri Apr 25 2025 14:51:28 GMT-0500 (Central Daylight Time),507316.0999999996,1700,I,z,1107,6,1,2828.7000000011176,504487.3999999985,8038,NTS,B,4
2,4,test,3,C,triangle.png,1,m,Fri Apr 25 2025 14:51:28 GMT-0500 (Central Daylight Time),510298.5999999996,2000,I,m,958,2,1,2979.0,507319.5999999996,8038,NTS,B,5
4,5,test,3,C,triangle.png,1,m,Fri Apr 25 2025 14:51:28 GMT-0500 (Central Daylight Time),512714.3999999985,1500,I,m,884,12,1,2411.7999999988824,510302.5999999996,8038,NTS,B,6
8,6,test,3,C,triangle.png,1,m,Fri Apr 25 2025 14:51:28 GMT-0500 (Central Daylight Time),515147.0999999996,1600,I,m,800,7,1,2428.7000000011176,512718.3999999985,8038,NTS,B,7
1,7,test,3,C,triangle.png,1,z,Fri Apr 25 2025 14:51:28 GMT-0500 (Central Daylight Time),518196.19999999925,1900,I,z,1123,9,1,3045.800000000745,515150.3999999985,8038,NTS,B,8
4,8,test,3,C,circle.png,1,z,Fri Apr 25 2025 14:51:28 GMT-0500 (Central Daylight Time),520529.8999999985,1400,I,z,910,4,1,2329.7999999988824,518200.0999999996,8038,NTS,B,9
8,9,test,3,C,circle.png,1,m,Fri Apr 25 2025 14:51:28 GMT-0500 (Central Daylight Time),522894.69999999925,1200,I,m,1137,15,1,2358.800000000745,520535.8999999985,8038,NTS,B,10
1,10,test,3,C,circle.png,1,z,Fri Apr 25 2025 14:51:28 GMT-0500 (Central Daylight Time),524660.6999999993,1000,I,z,740,17,1,1761.699999999255,522899.0,8038,NTS,B,11
9,11,test,3,C,circle.png,1,m,Fri Apr 25 2025 14:51:28 GMT-0500 (Central Daylight Time),527026.5,1500,I,m,833,24,1,2362.2000000011176,524664.2999999989,8038,NTS,B,12
7,12,test,3,C,triangle.png,1,z,Fri Apr 25 2025 14:51:28 GMT-0500 (Central Daylight Time),529475.7999999989,1700,I,z,724,22,1,2446.0,527029.7999999989,8038,NTS,B,13
2,13,test,3,C,circle.png,1,z,Fri Apr 25 2025 14:51:28 GMT-0500 (Central Daylight Time),532358.3999999985,1700,I,z,1155,10,1,2878.89999999851,529479.5,8038,NTS,B,14
4,14,test,3,C,circle.png,1,z,Fri Apr 25 2025 14:51:28 GMT-0500 (Central Daylight Time),534507.5999999996,1400,I,z,716,20,1,2145.0,532362.5999999996,8038,NTS,B,15
8,15,test,3,C,triangle.png,1,m,Fri Apr 25 2025 14:51:28 GMT-0500 (Central Daylight Time),537156.8999999985,1600,I,m,1031,23,1,2645.699999999255,534511.1999999993,8038,NTS,B,16
6,16,test,3,C,circle.png,1,m,Fri Apr 25 2025 14:51:28 GMT-0500 (Central Daylight Time),540123.7999999989,1900,I,m,1042,5,1,2963.4000000003725,537160.3999999985,8038,NTS,B,17
6,17,test,3,C,circle.png,1,m,Fri Apr 25 2025 14:51:28 GMT-0500 (Central Daylight Time),542938.2999999989,1900,I,m,884,21,1,2810.9000000003725,540127.3999999985,8038,NTS,B,18
6,18,test,3,C,triangle.png,1,m,Fri Apr 25 2025 14:51:28 GMT-0500 (Central Daylight Time),545004.2999999989,1000,I,m,1048,13,1,2062.0,542942.2999999989,8038,NTS,B,19
3,19,test,3,C,circle.png,1,z,Fri Apr 25 2025 14:51:28 GMT-0500 (Central Daylight Time),547387.0,1600,I,z,750,11,1,2379.2000000011176,545007.7999999989,8038,NTS,B,20
1,20,test,3,C,circle.png,1,z,Fri Apr 25 2025 14:51:28 GMT-0500 (Central Daylight Time),548969.7999999989,1000,I,z,551,1,1,1579.199999999255,547390.5999999996,8038,NTS,B,21
9,21,test,3,C,triangle.png,1,z,Fri Apr 25 2025 14:51:28 GMT-0500 (Central Daylight Time),551002.5,1400,I,z,600,16,1,2028.800000000745,548973.6999999993,8038,NTS,B,22
9,22,test,3,C,circle.png,1,m,Fri Apr 25 2025 14:51:28 GMT-0500 (Central Daylight Time),553285.0,1500,I,m,756,8,1,2278.60000000149,551006.3999999985,8038,NTS,B,23
3,23,test,3,C,triangle.png,1,z,Fri Apr 25 2025 14:51:28 GMT-0500 (Central Daylight Time),555184.3999999985,1200,I,z,669,19,1,1895.5,553288.8999999985,8038,NTS,B,24
6,0,test,4,C,circle.png,0,m,Fri Apr 25 2025 14:51:28 GMT-0500 (Central Daylight Time),561016.1999999993,1900,I,None,1516,21,1,3429.300000000745,557586.8999999985,8038,NTS,B,1
6,1,test,4,C,triangle.png,1,m,Fri Apr 25 2025 14:51:28 GMT-0500 (Central Daylight Time),562882.0,1000,I,m,834,13,1,1861.800000000745,561020.1999999993,8038,NTS,B,2
2,2,test,4,C,triangle.png,1,m,Fri Apr 25 2025 14:51:28 GMT-0500 (Central Daylight Time),565997.6999999993,2000,I,m,1088,2,1,3111.9000000003725,562885.7999999989,8038,NTS,B,3
1,3,test,4,C,triangle.png,1,z,Fri Apr 25 2025 14:51:28 GMT-0500 (Central Daylight Time),568563.5,1900,I,z,633,9,1,2562.2000000011176,566001.2999999989,8038,NTS,B,4
7,4,test,4,C,circle.png,1,m,Fri Apr 25 2025 14:51:28 GMT-0500 (Central Daylight Time),571829.0,2000,I,m,1239,14,1,3262.0,568567.0,8038,NTS,B,5
8,5,test,4,C,circle.png,1,m,Fri Apr 25 2025 14:51:28 GMT-0500 (Central Daylight Time),573745.1999999993,1200,I,m,685,15,1,1912.9000000003725,571832.2999999989,8038,NTS,B,6
4,6,test,4,C,triangle.png,1,m,Fri Apr 25 2025 14:51:28 GMT-0500 (Central Daylight Time),575861.2999999989,1500,I,m,597,12,1,2112.5,573748.7999999989,8038,NTS,B,7
9,6,test,4,C,triangle.png,0,z,Fri Apr 25 2025 14:51:28 GMT-0500 (Central Daylight Time),578127.3999999985,1400,I,m,837,16,1,2262.39999999851,575865.0,8038,NTS,B,8
3,7,test,4,C,circle.png,1,z,Fri Apr 25 2025 14:51:28 GMT-0500 (Central Daylight Time),580559.8999999985,1600,I,z,811,11,1,2428.89999999851,578131.0,8038,NTS,B,9
2,8,test,4,C,circle.png,1,z,Fri Apr 25 2025 14:51:28 GMT-0500 (Central Daylight Time),583259.1999999993,1700,I,z,982,10,1,2692.5999999996275,580566.5999999996,8038,NTS,B,10
8,9,test,4,C,triangle.png,1,m,Fri Apr 25 2025 14:51:28 GMT-0500 (Central Daylight Time),585425.0999999996,1600,I,m,543,7,1,2161.9000000003725,583263.1999999993,8038,NTS,B,11
3,10,test,4,C,triangle.png,1,z,Fri Apr 25 2025 14:51:28 GMT-0500 (Central Daylight Time),587407.5999999996,1200,I,z,753,19,1,1979.0,585428.5999999996,8038,NTS,B,12
3,11,test,4,C,triangle.png,1,z,Fri Apr 25 2025 14:51:28 GMT-0500 (Central Daylight Time),589190.3999999985,1200,I,z,555,3,1,1778.7999999988824,587411.5999999996,8038,NTS,B,13
6,12,test,4,C,circle.png,1,m,Fri Apr 25 2025 14:51:28 GMT-0500 (Central Daylight Time),592489.3999999985,1900,I,m,1376,5,1,3295.0,589194.3999999985,8038,NTS,B,14
7,13,test,4,C,triangle.png,1,z,Fri Apr 25 2025 14:51:28 GMT-0500 (Central Daylight Time),595055.0999999996,1700,I,z,837,22,1,2560.0,592495.0999999996,8038,NTS,B,15
8,14,test,4,C,triangle.png,1,m,Fri Apr 25 2025 14:51:28 GMT-0500 (Central Daylight Time),597621.2999999989,1600,I,m,947,23,1,2561.9000000003725,595059.3999999985,8038,NTS,B,16
9,15,test,4,C,circle.png,1,m,Fri Apr 25 2025 14:51:28 GMT-0500 (Central Daylight Time),600005.6999999993,1500,I,m,868,24,1,2380.9000000003725,597624.7999999989,8038,NTS,B,17
1,16,test,4,C,circle.png,1,z,Fri Apr 25 2025 14:51:28 GMT-0500 (Central Daylight Time),602303.0999999996,1000,I,z,1270,1,1,2293.800000000745,600009.2999999989,8038,NTS,B,18
7,17,test,4,C,triangle.png,1,z,Fri Apr 25 2025 14:51:28 GMT-0500 (Central Daylight Time),605152.0999999996,1700,I,z,1127,6,1,2845.5,602306.5999999996,8038,NTS,B,19
4,18,test,4,C,circle.png,1,z,Fri Apr 25 2025 14:51:28 GMT-0500 (Central Daylight Time),607418.1999999993,1400,I,z,842,4,1,2262.800000000745,605155.3999999985,8038,NTS,B,20
2,19,test,4,C,triangle.png,1,m,Fri Apr 25 2025 14:51:28 GMT-0500 (Central Daylight Time),610317.1999999993,2000,I,m,880,18,1,2895.5,607421.6999999993,8038,NTS,B,21
4,20,test,4,C,circle.png,1,z,Fri Apr 25 2025 14:51:28 GMT-0500 (Central Daylight Time),612483.2999999989,1400,I,z,749,20,1,2162.2999999988824,610321.0,8038,NTS,B,22
1,21,test,4,C,circle.png,1,z,Fri Apr 25 2025 14:51:28 GMT-0500 (Central Daylight Time),614099.5,1000,I,z,599,17,1,1612.7000000011176,612486.7999999989,8038,NTS,B,23
9,22,test,4,C,circle.png,1,m,Fri Apr 25 2025 14:51:28 GMT-0500 (Central Daylight Time),616565.2999999989,1500,I,m,939,8,1,2462.2999999988824,614103.0,8038,NTS,B,24
