block_c,block_dur,condition,countdown,datetime,endtime,list,multichar_response,project,response,response_time,session_number,start_end,starttime,subject_id,task,task_vers,trial
,,,,Fri Feb 07 2025 16:19:00 GMT-0600 (Central Standard Time),,,,O,space,1170,1,,,7040,WL,A,
prac,,0,,Fri Feb 07 2025 16:19:00 GMT-0600 (Central Standard Time),,NA,b,O,b,7833,1,,,7040,WL,A,1.0
prac,,0,,Fri Feb 07 2025 16:19:00 GMT-0600 (Central Standard Time),,NA,bo,O,o,636,1,,,7040,WL,A,1.0
prac,,0,,Fri Feb 07 2025 16:19:00 GMT-0600 (Central Standard Time),,NA,boo,O,o,178,1,,,7040,WL,A,1.0
prac,,0,,Fri Feb 07 2025 16:19:00 GMT-0600 (Central Standard Time),,NA,boos,O,s,162,1,,,7040,WL,A,1.0
prac,,0,,Fri Feb 07 2025 16:19:00 GMT-0600 (Central Standard Time),,NA,boost,O,t,131,1,,,7040,WL,A,1.0
prac,,0,,Fri Feb 07 2025 16:19:00 GMT-0600 (Central Standard Time),,NA,boostenter,O,enter,1925,1,,,7040,WL,A,1.0
1,0.8999998569488525,learn,59100.00014305115,Fri Feb 07 2025 16:19:00 GMT-0600 (Central Standard Time),176037.80000000447,A,b,O,b,879,1,899.3000000044703,175138.5,7040,WL,A,1.0
1,1.1659998893737793,learn,58834.00011062622,Fri Feb 07 2025 16:19:00 GMT-0600 (Central Standard Time),176304.1000000015,A,bo,O,o,245,1,1165.6000000014901,175138.5,7040,WL,A,1.0
1,1.3329999446868896,learn,58667.00005531311,Fri Feb 07 2025 16:19:00 GMT-0600 (Central Standard Time),176471.1000000015,A,boo,O,o,145,1,1332.6000000014901,175138.5,7040,WL,A,1.0
1,1.565999984741211,learn,58434.00001525879,Fri Feb 07 2025 16:19:00 GMT-0600 (Central Standard Time),176704.5,A,book,O,k,219,1,1566.0,175138.5,7040,WL,A,1.0
1,1.9659998416900635,learn,58034.00015830994,Fri Feb 07 2025 16:19:00 GMT-0600 (Central Standard Time),177104.20000000298,A,bookenter,O,enter,386,1,1965.7000000029802,175138.5,7040,WL,A,1.0
1,2.498999834060669,learn,57501.00016593933,Fri Feb 07 2025 16:19:00 GMT-0600 (Central Standard Time),177637.40000000596,A,f,O,f,515,1,532.7000000029802,177104.70000000298,7040,WL,A,2.0
1,2.565999984741211,learn,57434.00001525879,Fri Feb 07 2025 16:19:00 GMT-0600 (Central Standard Time),177704.1000000015,A,fl,O,l,44,1,599.3999999985099,177104.70000000298,7040,WL,A,2.0
1,2.7319998741149902,learn,57268.00012588501,Fri Feb 07 2025 16:19:00 GMT-0600 (Central Standard Time),177870.5,A,flo,O,o,154,1,765.7999999970198,177104.70000000298,7040,WL,A,2.0
1,2.8489999771118164,learn,57151.00002288818,Fri Feb 07 2025 16:19:00 GMT-0600 (Central Standard Time),177987.0,A,flow,O,w,108,1,882.2999999970198,177104.70000000298,7040,WL,A,2.0
1,3.0829999446868896,learn,56917.00005531311,Fri Feb 07 2025 16:19:00 GMT-0600 (Central Standard Time),178220.90000000596,A,flowe,O,e,215,1,1116.2000000029802,177104.70000000298,7040,WL,A,2.0
1,3.1989998817443848,learn,56801.000118255615,Fri Feb 07 2025 16:19:00 GMT-0600 (Central Standard Time),178337.1000000015,A,flower,O,r,100,1,1232.3999999985099,177104.70000000298,7040,WL,A,2.0
1,3.4649999141693115,learn,56535.00008583069,Fri Feb 07 2025 16:19:00 GMT-0600 (Central Standard Time),178603.5,A,flowerenter,O,enter,257,1,1498.7999999970198,177104.70000000298,7040,WL,A,2.0
1,3.798999786376953,learn,56201.00021362305,Fri Feb 07 2025 16:19:00 GMT-0600 (Central Standard Time),178936.90000000596,A,t,O,t,311,1,333.0,178603.90000000596,7040,WL,A,3.0
1,3.9819998741149902,learn,56018.00012588501,Fri Feb 07 2025 16:19:00 GMT-0600 (Central Standard Time),179120.40000000596,A,tr,O,r,171,1,516.5,178603.90000000596,7040,WL,A,3.0
1,4.115000009536743,learn,55884.99999046326,Fri Feb 07 2025 16:19:00 GMT-0600 (Central Standard Time),179253.40000000596,A,tra,O,a,122,1,649.5,178603.90000000596,7040,WL,A,3.0
1,4.148999929428101,learn,55851.0000705719,Fri Feb 07 2025 16:19:00 GMT-0600 (Central Standard Time),179286.70000000298,A,trai,O,i,21,1,682.7999999970198,178603.90000000596,7040,WL,A,3.0
1,4.381999969482422,learn,55618.00003051758,Fri Feb 07 2025 16:19:00 GMT-0600 (Central Standard Time),179520.1000000015,A,train,O,n,212,1,916.1999999955297,178603.90000000596,7040,WL,A,3.0
1,4.615000009536743,learn,55384.99999046326,Fri Feb 07 2025 16:19:00 GMT-0600 (Central Standard Time),179753.5,A,trainenter,O,enter,210,1,1149.5999999940395,178603.90000000596,7040,WL,A,3.0
1,4.914999961853027,learn,55085.00003814697,Fri Feb 07 2025 16:19:00 GMT-0600 (Central Standard Time),180052.90000000596,A,u,O,u,288,1,299.0,179753.90000000596,7040,WL,A,4.0
1,5.48199987411499,learn,54518.00012588501,Fri Feb 07 2025 16:19:00 GMT-0600 (Central Standard Time),180619.90000000596,A,ur,O,r,550,1,866.0,179753.90000000596,7040,WL,A,4.0
1,5.847999811172485,learn,54152.000188827515,Fri Feb 07 2025 16:19:00 GMT-0600 (Central Standard Time),180986.40000000596,A,u,O,backspace,350,1,1232.5,179753.90000000596,7040,WL,A,4.0
1,6.014999866485596,learn,53985.000133514404,Fri Feb 07 2025 16:19:00 GMT-0600 (Central Standard Time),181152.90000000596,A,,O,backspace,143,1,1399.0,179753.90000000596,7040,WL,A,4.0
1,6.131999969482422,learn,53868.00003051758,Fri Feb 07 2025 16:19:00 GMT-0600 (Central Standard Time),181269.6000000015,A,r,O,r,106,1,1515.6999999955297,179753.90000000596,7040,WL,A,4.0
1,6.247999906539917,learn,53752.00009346008,Fri Feb 07 2025 16:19:00 GMT-0600 (Central Standard Time),181386.1000000015,A,ri,O,i,93,1,1632.1999999955297,179753.90000000596,7040,WL,A,4.0
1,6.4649999141693115,learn,53535.00008583069,Fri Feb 07 2025 16:19:00 GMT-0600 (Central Standard Time),181602.80000000447,A,rib,O,b,200,1,1848.8999999985099,179753.90000000596,7040,WL,A,4.0
1,7.047999858856201,learn,52952.0001411438,Fri Feb 07 2025 16:19:00 GMT-0600 (Central Standard Time),182186.0,A,ri,O,backspace,559,1,2432.0999999940395,179753.90000000596,7040,WL,A,4.0
1,7.197999954223633,learn,52802.00004577637,Fri Feb 07 2025 16:19:00 GMT-0600 (Central Standard Time),182335.90000000596,A,r,O,backspace,128,1,2582.0,179753.90000000596,7040,WL,A,4.0
1,7.947999954223633,learn,52052.00004577637,Fri Feb 07 2025 16:19:00 GMT-0600 (Central Standard Time),183085.70000000298,A,ru,O,u,731,1,3331.7999999970198,179753.90000000596,7040,WL,A,4.0
1,8.148000001907349,learn,51851.99999809265,Fri Feb 07 2025 16:19:00 GMT-0600 (Central Standard Time),183285.80000000447,A,rug,O,g,180,1,3531.89999999851,179753.90000000596,7040,WL,A,4.0
1,8.38099980354309,learn,51619.00019645691,Fri Feb 07 2025 16:19:00 GMT-0600 (Central Standard Time),183518.80000000447,A,rugenter,O,enter,221,1,3764.89999999851,179753.90000000596,7040,WL,A,4.0
1,8.646999835968018,learn,51353.00016403198,Fri Feb 07 2025 16:19:00 GMT-0600 (Central Standard Time),183785.40000000596,A,k,O,k,252,1,266.30000000447035,183519.1000000015,7040,WL,A,5.0
1,8.780999898910522,learn,51219.00010108948,Fri Feb 07 2025 16:19:00 GMT-0600 (Central Standard Time),183918.70000000298,A,ke,O,e,121,1,399.6000000014901,183519.1000000015,7040,WL,A,5.0
1,8.980999946594238,learn,51019.00005340576,Fri Feb 07 2025 16:19:00 GMT-0600 (Central Standard Time),184118.6000000015,A,key,O,y,180,1,599.5,183519.1000000015,7040,WL,A,5.0
1,9.480999946594238,learn,50519.00005340576,Fri Feb 07 2025 16:19:00 GMT-0600 (Central Standard Time),184618.6000000015,A,keyenter,O,enter,476,1,1099.5,183519.1000000015,7040,WL,A,5.0
1,11.04699993133545,learn,48953.00006866455,Fri Feb 07 2025 16:19:00 GMT-0600 (Central Standard Time),186184.6000000015,A,m,O,m,1542,1,1565.5,184619.1000000015,7040,WL,A,6.0
1,11.11299991607666,learn,48887.00008392334,Fri Feb 07 2025 16:19:00 GMT-0600 (Central Standard Time),186251.6000000015,A,me,O,e,50,1,1632.5,184619.1000000015,7040,WL,A,6.0
1,11.245999813079834,learn,48754.000186920166,Fri Feb 07 2025 16:19:00 GMT-0600 (Central Standard Time),186384.5,A,mea,O,a,118,1,1765.3999999985099,184619.1000000015,7040,WL,A,6.0
1,11.52999997138977,learn,48470.00002861023,Fri Feb 07 2025 16:19:00 GMT-0600 (Central Standard Time),186668.1000000015,A,mead,O,d,266,1,2049.0,184619.1000000015,7040,WL,A,6.0
1,11.61299991607666,learn,48387.00008392334,Fri Feb 07 2025 16:19:00 GMT-0600 (Central Standard Time),186751.30000000447,A,meado,O,o,62,1,2132.2000000029802,184619.1000000015,7040,WL,A,6.0
1,11.763000011444092,learn,48236.99998855591,Fri Feb 07 2025 16:19:00 GMT-0600 (Central Standard Time),186901.30000000447,A,meadow,O,w,131,1,2282.2000000029802,184619.1000000015,7040,WL,A,6.0
1,11.912999868392944,learn,48087.000131607056,Fri Feb 07 2025 16:19:00 GMT-0600 (Central Standard Time),187051.20000000298,A,meadowenter,O,enter,133,1,2432.10000000149,184619.1000000015,7040,WL,A,6.0
1,18.805999994277954,learn,41194.000005722046,Fri Feb 07 2025 16:19:00 GMT-0600 (Central Standard Time),193943.80000000447,A,l,O,l,6884,1,6892.20000000298,187051.6000000015,7040,WL,A,7.0
1,18.911999940872192,learn,41088.00005912781,Fri Feb 07 2025 16:19:00 GMT-0600 (Central Standard Time),194049.70000000298,A,lo,O,o,79,1,6998.10000000149,187051.6000000015,7040,WL,A,7.0
1,19.027999877929688,learn,40972.00012207031,Fri Feb 07 2025 16:19:00 GMT-0600 (Central Standard Time),194165.5,A,loc,O,c,105,1,7113.89999999851,187051.6000000015,7040,WL,A,7.0
1,19.176999807357788,learn,40823.00019264221,Fri Feb 07 2025 16:19:00 GMT-0600 (Central Standard Time),194315.40000000596,A,lock,O,k,141,1,7263.80000000447,187051.6000000015,7040,WL,A,7.0
1,19.526999950408936,learn,40473.000049591064,Fri Feb 07 2025 16:19:00 GMT-0600 (Central Standard Time),194665.40000000596,A,loc,O,backspace,335,1,7613.80000000447,187051.6000000015,7040,WL,A,7.0
1,19.676999807357788,learn,40323.00019264221,Fri Feb 07 2025 16:19:00 GMT-0600 (Central Standard Time),194815.40000000596,A,lo,O,backspace,137,1,7763.80000000447,187051.6000000015,7040,WL,A,7.0
1,19.80999994277954,learn,40190.00005722046,Fri Feb 07 2025 16:19:00 GMT-0600 (Central Standard Time),194948.30000000447,A,l,O,backspace,123,1,7896.70000000298,187051.6000000015,7040,WL,A,7.0
1,19.97699999809265,learn,40023.00000190735,Fri Feb 07 2025 16:19:00 GMT-0600 (Central Standard Time),195115.0,A,,O,backspace,159,1,8063.39999999851,187051.6000000015,7040,WL,A,7.0
1,20.143999814987183,learn,39856.00018501282,Fri Feb 07 2025 16:19:00 GMT-0600 (Central Standard Time),195281.70000000298,A,,O,backspace,152,1,8230.10000000149,187051.6000000015,7040,WL,A,7.0
1,20.209999799728394,learn,39790.00020027161,Fri Feb 07 2025 16:19:00 GMT-0600 (Central Standard Time),195348.40000000596,A,b,O,b,49,1,8296.80000000447,187051.6000000015,7040,WL,A,7.0
1,20.40999984741211,learn,39590.00015258789,Fri Feb 07 2025 16:19:00 GMT-0600 (Central Standard Time),195548.5,A,bl,O,l,183,1,8496.89999999851,187051.6000000015,7040,WL,A,7.0
1,20.90999984741211,learn,39090.00015258789,Fri Feb 07 2025 16:19:00 GMT-0600 (Central Standard Time),196048.40000000596,A,blc,O,c,478,1,8996.80000000447,187051.6000000015,7040,WL,A,7.0
1,21.259999990463257,learn,38740.00000953674,Fri Feb 07 2025 16:19:00 GMT-0600 (Central Standard Time),196398.30000000447,A,bl,O,backspace,331,1,9346.70000000298,187051.6000000015,7040,WL,A,7.0
1,21.459999799728394,learn,38540.00020027161,Fri Feb 07 2025 16:19:00 GMT-0600 (Central Standard Time),196598.1000000015,A,blo,O,o,188,1,9546.5,187051.6000000015,7040,WL,A,7.0
1,21.57699990272522,learn,38423.00009727478,Fri Feb 07 2025 16:19:00 GMT-0600 (Central Standard Time),196714.80000000447,A,bloc,O,c,110,1,9663.20000000298,187051.6000000015,7040,WL,A,7.0
1,21.72699999809265,learn,38273.00000190735,Fri Feb 07 2025 16:19:00 GMT-0600 (Central Standard Time),196864.6000000015,A,block,O,k,128,1,9813.0,187051.6000000015,7040,WL,A,7.0
1,21.942999839782715,learn,38057.000160217285,Fri Feb 07 2025 16:19:00 GMT-0600 (Central Standard Time),197081.30000000447,A,blockenter,O,enter,202,1,10029.70000000298,187051.6000000015,7040,WL,A,7.0
1,29.723999977111816,learn,30276.000022888184,Fri Feb 07 2025 16:19:00 GMT-0600 (Central Standard Time),204862.20000000298,A,g,O,g,7762,1,7780.5,197081.70000000298,7040,WL,A,8.0
1,29.823999881744385,learn,30176.000118255615,Fri Feb 07 2025 16:19:00 GMT-0600 (Central Standard Time),204962.1000000015,A,go,O,o,76,1,7880.39999999851,197081.70000000298,7040,WL,A,8.0
1,30.0239999294281,learn,29976.0000705719,Fri Feb 07 2025 16:19:00 GMT-0600 (Central Standard Time),205162.1000000015,A,gol,O,l,176,1,8080.39999999851,197081.70000000298,7040,WL,A,8.0
1,30.140999794006348,learn,29859.000205993652,Fri Feb 07 2025 16:19:00 GMT-0600 (Central Standard Time),205278.6000000015,A,golf,O,f,105,1,8196.89999999851,197081.70000000298,7040,WL,A,8.0
1,30.7739999294281,learn,29226.0000705719,Fri Feb 07 2025 16:19:00 GMT-0600 (Central Standard Time),205911.80000000447,A,gol,O,backspace,612,1,8830.10000000149,197081.70000000298,7040,WL,A,8.0
1,30.889999866485596,learn,29110.000133514404,Fri Feb 07 2025 16:19:00 GMT-0600 (Central Standard Time),206028.40000000596,A,gold,O,d,100,1,8946.70000000298,197081.70000000298,7040,WL,A,8.0
1,31.04099988937378,learn,28959.00011062622,Fri Feb 07 2025 16:19:00 GMT-0600 (Central Standard Time),206178.5,A,goldenter,O,enter,125,1,9096.79999999702,197081.70000000298,7040,WL,A,8.0
1,38.520999908447266,learn,21479.000091552734,Fri Feb 07 2025 16:19:00 GMT-0600 (Central Standard Time),213659.0,A,enter,O,enter,7464,1,7480.0,206179.0,7040,WL,A,9.0
1,39.370999813079834,learn,20629.000186920166,Fri Feb 07 2025 16:19:00 GMT-0600 (Central Standard Time),214508.90000000596,A,enter,O,enter,832,1,849.6000000014901,213659.30000000447,7040,WL,A,10.0
1,40.936999797821045,learn,19063.000202178955,Fri Feb 07 2025 16:19:00 GMT-0600 (Central Standard Time),216075.20000000298,A,enter,O,enter,1549,1,1566.1000000014901,214509.1000000015,7040,WL,A,11.0
1,41.30399990081787,learn,18696.00009918213,Fri Feb 07 2025 16:19:00 GMT-0600 (Central Standard Time),216441.70000000298,A,enter,O,enter,351,1,366.20000000298023,216075.5,7040,WL,A,12.0
1,41.669999837875366,learn,18330.000162124634,Fri Feb 07 2025 16:19:00 GMT-0600 (Central Standard Time),216808.0,A,enter,O,enter,345,1,366.09999999403954,216441.90000000596,7040,WL,A,13.0
1,42.00399994850159,learn,17996.000051498413,Fri Feb 07 2025 16:19:00 GMT-0600 (Central Standard Time),217141.70000000298,A,enter,O,enter,323,1,333.29999999701977,216808.40000000596,7040,WL,A,14.0
1,42.58699989318848,learn,17413.000106811523,Fri Feb 07 2025 16:19:00 GMT-0600 (Central Standard Time),217724.80000000447,A,enter,O,enter,573,1,582.6000000014901,217142.20000000298,7040,WL,A,15.0
2,0.9170000553131104,learn,59082.99994468689,Fri Feb 07 2025 16:19:00 GMT-0600 (Central Standard Time),289535.80000000447,A,k,O,k,905,1,916.1000000014901,288619.700000003,7040,WL,A,1.0
2,1.0329999923706055,learn,58967.000007629395,Fri Feb 07 2025 16:19:00 GMT-0600 (Central Standard Time),289652.6000000015,A,ke,O,e,99,1,1032.8999999985099,288619.700000003,7040,WL,A,1.0
2,1.9159998893737793,learn,58084.00011062622,Fri Feb 07 2025 16:19:00 GMT-0600 (Central Standard Time),290535.30000000447,A,key,O,y,864,1,1915.6000000014901,288619.700000003,7040,WL,A,1.0
2,2.200000047683716,learn,57799.999952316284,Fri Feb 07 2025 16:19:00 GMT-0600 (Central Standard Time),290818.80000000447,A,keyenter,O,enter,260,1,2199.10000000149,288619.700000003,7040,WL,A,1.0
2,2.4159998893737793,learn,57584.00011062622,Fri Feb 07 2025 16:19:00 GMT-0600 (Central Standard Time),291035.1000000015,A,r,O,r,208,1,216.0,290819.1000000015,7040,WL,A,2.0
2,2.6489999294281006,learn,57351.0000705719,Fri Feb 07 2025 16:19:00 GMT-0600 (Central Standard Time),291268.40000000596,A,ra,O,a,215,1,449.30000000447035,290819.1000000015,7040,WL,A,2.0
2,2.865999937057495,learn,57134.000062942505,Fri Feb 07 2025 16:19:00 GMT-0600 (Central Standard Time),291485.1000000015,A,rat,O,t,198,1,666.0,290819.1000000015,7040,WL,A,2.0
2,3.0160000324249268,learn,56983.99996757507,Fri Feb 07 2025 16:19:00 GMT-0600 (Central Standard Time),291634.90000000596,A,ratt,O,t,126,1,815.8000000044703,290819.1000000015,7040,WL,A,2.0
2,3.2159998416900635,learn,56784.00015830994,Fri Feb 07 2025 16:19:00 GMT-0600 (Central Standard Time),291834.90000000596,A,rattl,O,l,176,1,1015.8000000044703,290819.1000000015,7040,WL,A,2.0
2,3.365999937057495,learn,56634.000062942505,Fri Feb 07 2025 16:19:00 GMT-0600 (Central Standard Time),291985.1000000015,A,rattle,O,e,127,1,1166.0,290819.1000000015,7040,WL,A,2.0
2,3.499000072479248,learn,56500.99992752075,Fri Feb 07 2025 16:19:00 GMT-0600 (Central Standard Time),292118.40000000596,A,rattleenter,O,enter,114,1,1299.3000000044703,290819.1000000015,7040,WL,A,2.0
2,3.7660000324249268,learn,56233.99996757507,Fri Feb 07 2025 16:19:00 GMT-0600 (Central Standard Time),292384.90000000596,A,g,O,g,244,1,266.20000000298023,292118.700000003,7040,WL,A,3.0
2,3.815999984741211,learn,56184.00001525879,Fri Feb 07 2025 16:19:00 GMT-0600 (Central Standard Time),292435.0,A,go,O,o,43,1,316.29999999701977,292118.700000003,7040,WL,A,3.0
2,4.016000032424927,learn,55983.99996757507,Fri Feb 07 2025 16:19:00 GMT-0600 (Central Standard Time),292634.90000000596,A,gol,O,l,193,1,516.2000000029802,292118.700000003,7040,WL,A,3.0
2,4.499000072479248,learn,55500.99992752075,Fri Feb 07 2025 16:19:00 GMT-0600 (Central Standard Time),293117.80000000447,A,gold,O,d,473,1,999.1000000014901,292118.700000003,7040,WL,A,3.0
2,4.7820000648498535,learn,55217.99993515015,Fri Feb 07 2025 16:19:00 GMT-0600 (Central Standard Time),293401.200000003,A,goldenter,O,enter,269,1,1282.5,292118.700000003,7040,WL,A,3.0
2,5.249000072479248,learn,54750.99992752075,Fri Feb 07 2025 16:19:00 GMT-0600 (Central Standard Time),293867.90000000596,A,h,O,h,450,1,466.40000000596046,293401.5,7040,WL,A,4.0
2,5.315000057220459,learn,54684.99994277954,Fri Feb 07 2025 16:19:00 GMT-0600 (Central Standard Time),293934.30000000447,A,ha,O,a,46,1,532.8000000044703,293401.5,7040,WL,A,4.0
2,5.414999961853027,learn,54585.00003814697,Fri Feb 07 2025 16:19:00 GMT-0600 (Central Standard Time),294034.40000000596,A,har,O,r,86,1,632.9000000059605,293401.5,7040,WL,A,4.0
2,5.997999906539917,learn,54002.00009346008,Fri Feb 07 2025 16:19:00 GMT-0600 (Central Standard Time),294617.5,A,harp,O,p,560,1,1216.0,293401.5,7040,WL,A,4.0
2,6.264999866485596,learn,53735.000133514404,Fri Feb 07 2025 16:19:00 GMT-0600 (Central Standard Time),294884.0,A,harpenter,O,enter,249,1,1482.5,293401.5,7040,WL,A,4.0
2,6.547999858856201,learn,53452.0001411438,Fri Feb 07 2025 16:19:00 GMT-0600 (Central Standard Time),295167.40000000596,A,b,O,b,263,1,283.1000000014901,294884.30000000447,7040,WL,A,5.0
2,6.631999969482422,learn,53368.00003051758,Fri Feb 07 2025 16:19:00 GMT-0600 (Central Standard Time),295250.90000000596,A,bo,O,o,60,1,366.6000000014901,294884.30000000447,7040,WL,A,5.0
2,6.7809998989105225,learn,53219.00010108948,Fri Feb 07 2025 16:19:00 GMT-0600 (Central Standard Time),295400.6000000015,A,boo,O,o,128,1,516.2999999970198,294884.30000000447,7040,WL,A,5.0
2,6.997999906539917,learn,53002.00009346008,Fri Feb 07 2025 16:19:00 GMT-0600 (Central Standard Time),295617.200000003,A,book,O,k,202,1,732.8999999985099,294884.30000000447,7040,WL,A,5.0
2,7.230999946594238,learn,52769.00005340576,Fri Feb 07 2025 16:19:00 GMT-0600 (Central Standard Time),295850.5,A,bookenter,O,enter,217,1,966.1999999955297,294884.30000000447,7040,WL,A,5.0
2,7.563999891281128,learn,52436.00010871887,Fri Feb 07 2025 16:19:00 GMT-0600 (Central Standard Time),296183.6000000015,A,f,O,f,313,1,332.79999999701977,295850.80000000447,7040,WL,A,6.0
2,7.596999883651733,learn,52403.00011634827,Fri Feb 07 2025 16:19:00 GMT-0600 (Central Standard Time),296216.80000000447,A,fl,O,l,20,1,366.0,295850.80000000447,7040,WL,A,6.0
2,7.796999931335449,learn,52203.00006866455,Fri Feb 07 2025 16:19:00 GMT-0600 (Central Standard Time),296416.90000000596,A,flo,O,o,178,1,566.1000000014901,295850.80000000447,7040,WL,A,6.0
2,7.897000074386597,learn,52102.9999256134,Fri Feb 07 2025 16:19:00 GMT-0600 (Central Standard Time),296516.80000000447,A,flow,O,w,81,1,666.0,295850.80000000447,7040,WL,A,6.0
2,8.063999891281128,learn,51936.00010871887,Fri Feb 07 2025 16:19:00 GMT-0600 (Central Standard Time),296683.6000000015,A,flowe,O,e,149,1,832.7999999970198,295850.80000000447,7040,WL,A,6.0
2,8.180999994277954,learn,51819.000005722046,Fri Feb 07 2025 16:19:00 GMT-0600 (Central Standard Time),296800.1000000015,A,flower,O,r,103,1,949.2999999970198,295850.80000000447,7040,WL,A,6.0
2,8.530999898910522,learn,51469.00010108948,Fri Feb 07 2025 16:19:00 GMT-0600 (Central Standard Time),297150.0,A,flowerenter,O,enter,338,1,1299.1999999955297,295850.80000000447,7040,WL,A,6.0
2,9.930000066757202,learn,50069.9999332428,Fri Feb 07 2025 16:19:00 GMT-0600 (Central Standard Time),298549.6000000015,A,r,O,r,1381,1,1399.1999999955297,297150.40000000596,7040,WL,A,7.0
2,10.063999891281128,learn,49936.00010871887,Fri Feb 07 2025 16:19:00 GMT-0600 (Central Standard Time),298683.0,A,ru,O,u,110,1,1532.5999999940395,297150.40000000596,7040,WL,A,7.0
2,10.263000011444092,learn,49736.99998855591,Fri Feb 07 2025 16:19:00 GMT-0600 (Central Standard Time),298883.200000003,A,rug,O,g,176,1,1732.7999999970198,297150.40000000596,7040,WL,A,7.0
2,10.44700002670288,learn,49552.99997329712,Fri Feb 07 2025 16:19:00 GMT-0600 (Central Standard Time),299066.0,A,rugenter,O,enter,168,1,1915.5999999940395,297150.40000000596,7040,WL,A,7.0
2,10.845999956130981,learn,49154.00004386902,Fri Feb 07 2025 16:19:00 GMT-0600 (Central Standard Time),299465.80000000447,A,t,O,t,376,1,399.3999999985099,299066.40000000596,7040,WL,A,8.0
2,11.02999997138977,learn,48970.00002861023,Fri Feb 07 2025 16:19:00 GMT-0600 (Central Standard Time),299649.30000000447,A,tr,O,r,161,1,582.8999999985099,299066.40000000596,7040,WL,A,8.0
2,11.11299991607666,learn,48887.00008392334,Fri Feb 07 2025 16:19:00 GMT-0600 (Central Standard Time),299732.6000000015,A,tra,O,a,73,1,666.1999999955297,299066.40000000596,7040,WL,A,8.0
2,11.19599986076355,learn,48804.00013923645,Fri Feb 07 2025 16:19:00 GMT-0600 (Central Standard Time),299815.80000000447,A,trai,O,i,71,1,749.3999999985099,299066.40000000596,7040,WL,A,8.0
2,11.395999908447266,learn,48604.000091552734,Fri Feb 07 2025 16:19:00 GMT-0600 (Central Standard Time),300015.90000000596,A,train,O,n,179,1,949.5,299066.40000000596,7040,WL,A,8.0
2,11.595999956130981,learn,48404.00004386902,Fri Feb 07 2025 16:19:00 GMT-0600 (Central Standard Time),300215.80000000447,A,trainenter,O,enter,187,1,1149.3999999985099,299066.40000000596,7040,WL,A,8.0
2,11.845999956130981,learn,48154.00004386902,Fri Feb 07 2025 16:19:00 GMT-0600 (Central Standard Time),300465.700000003,A,s,O,s,227,1,249.60000000149012,300216.1000000015,7040,WL,A,9.0
2,11.996000051498413,learn,48003.99994850159,Fri Feb 07 2025 16:19:00 GMT-0600 (Central Standard Time),300615.6000000015,A,sa,O,a,137,1,399.5,300216.1000000015,7040,WL,A,9.0
2,12.095999956130981,learn,47904.00004386902,Fri Feb 07 2025 16:19:00 GMT-0600 (Central Standard Time),300715.40000000596,A,sal,O,l,91,1,499.30000000447035,300216.1000000015,7040,WL,A,9.0
2,12.395999908447266,learn,47604.000091552734,Fri Feb 07 2025 16:19:00 GMT-0600 (Central Standard Time),301015.5,A,salt,O,t,279,1,799.3999999985099,300216.1000000015,7040,WL,A,9.0
2,12.662999868392944,learn,47337.000131607056,Fri Feb 07 2025 16:19:00 GMT-0600 (Central Standard Time),301282.1000000015,A,saltenter,O,enter,251,1,1066.0,300216.1000000015,7040,WL,A,9.0
2,16.227999925613403,learn,43772.0000743866,Fri Feb 07 2025 16:19:00 GMT-0600 (Central Standard Time),304847.80000000447,A,c,O,c,3554,1,3565.3000000044703,301282.5,7040,WL,A,10.0
2,16.277999877929688,learn,43722.00012207031,Fri Feb 07 2025 16:19:00 GMT-0600 (Central Standard Time),304897.6000000015,A,ch,O,h,35,1,3615.10000000149,301282.5,7040,WL,A,10.0
2,16.444999933242798,learn,43555.0000667572,Fri Feb 07 2025 16:19:00 GMT-0600 (Central Standard Time),305064.30000000447,A,chi,O,i,153,1,3781.8000000044703,301282.5,7040,WL,A,10.0
2,16.661999940872192,learn,43338.00005912781,Fri Feb 07 2025 16:19:00 GMT-0600 (Central Standard Time),305281.1000000015,A,chim,O,m,202,1,3998.60000000149,301282.5,7040,WL,A,10.0
2,17.07800006866455,learn,42921.99993133545,Fri Feb 07 2025 16:19:00 GMT-0600 (Central Standard Time),305697.30000000447,A,chimn,O,n,403,1,4414.80000000447,301282.5,7040,WL,A,10.0
2,17.17799997329712,learn,42822.00002670288,Fri Feb 07 2025 16:19:00 GMT-0600 (Central Standard Time),305797.40000000596,A,chimne,O,e,90,1,4514.9000000059605,301282.5,7040,WL,A,10.0
2,17.361000061035156,learn,42638.999938964844,Fri Feb 07 2025 16:19:00 GMT-0600 (Central Standard Time),305980.700000003,A,chimney,O,y,166,1,4698.20000000298,301282.5,7040,WL,A,10.0
2,17.611000061035156,learn,42388.999938964844,Fri Feb 07 2025 16:19:00 GMT-0600 (Central Standard Time),306230.6000000015,A,chimneyenter,O,enter,230,1,4948.10000000149,301282.5,7040,WL,A,10.0
2,18.310999870300293,learn,41689.00012969971,Fri Feb 07 2025 16:19:00 GMT-0600 (Central Standard Time),306930.30000000447,A,g,O,g,684,1,699.2000000029802,306231.1000000015,7040,WL,A,11.0
2,18.41100001335144,learn,41588.99998664856,Fri Feb 07 2025 16:19:00 GMT-0600 (Central Standard Time),307030.200000003,A,go,O,o,82,1,799.1000000014901,306231.1000000015,7040,WL,A,11.0
2,18.5939998626709,learn,41406.0001373291,Fri Feb 07 2025 16:19:00 GMT-0600 (Central Standard Time),307213.6000000015,A,gol,O,l,164,1,982.5,306231.1000000015,7040,WL,A,11.0
2,18.694000005722046,learn,41305.999994277954,Fri Feb 07 2025 16:19:00 GMT-0600 (Central Standard Time),307313.6000000015,A,gold,O,d,77,1,1082.5,306231.1000000015,7040,WL,A,11.0
2,18.861000061035156,learn,41138.999938964844,Fri Feb 07 2025 16:19:00 GMT-0600 (Central Standard Time),307479.90000000596,A,goldenter,O,enter,145,1,1248.8000000044703,306231.1000000015,7040,WL,A,11.0
2,24.941999912261963,learn,35058.00008773804,Fri Feb 07 2025 16:19:00 GMT-0600 (Central Standard Time),313561.700000003,A,m,O,m,6060,1,6081.5,307480.200000003,7040,WL,A,12.0
2,24.97499990463257,learn,35025.00009536743,Fri Feb 07 2025 16:19:00 GMT-0600 (Central Standard Time),313595.0,A,me,O,e,25,1,6114.79999999702,307480.200000003,7040,WL,A,12.0
2,25.158999919891357,learn,34841.00008010864,Fri Feb 07 2025 16:19:00 GMT-0600 (Central Standard Time),313778.200000003,A,mea,O,a,161,1,6298.0,307480.200000003,7040,WL,A,12.0
2,25.358999967575073,learn,34641.00003242493,Fri Feb 07 2025 16:19:00 GMT-0600 (Central Standard Time),313978.200000003,A,mead,O,d,176,1,6498.0,307480.200000003,7040,WL,A,12.0
2,25.424999952316284,learn,34575.000047683716,Fri Feb 07 2025 16:19:00 GMT-0600 (Central Standard Time),314044.80000000447,A,meado,O,o,48,1,6564.60000000149,307480.200000003,7040,WL,A,12.0
2,25.575999975204468,learn,34424.00002479553,Fri Feb 07 2025 16:19:00 GMT-0600 (Central Standard Time),314195.0,A,meadow,O,w,135,1,6714.79999999702,307480.200000003,7040,WL,A,12.0
2,25.70899987220764,learn,34291.00012779236,Fri Feb 07 2025 16:19:00 GMT-0600 (Central Standard Time),314328.200000003,A,meadowenter,O,enter,111,1,6848.0,307480.200000003,7040,WL,A,12.0
2,29.556999921798706,learn,30443.000078201294,Fri Feb 07 2025 16:19:00 GMT-0600 (Central Standard Time),318176.80000000447,A,enter,O,enter,3827,1,3848.3000000044703,314328.5,7040,WL,A,13.0
2,29.823999881744385,learn,30176.000118255615,Fri Feb 07 2025 16:19:00 GMT-0600 (Central Standard Time),318443.200000003,A,enter,O,enter,259,1,266.0,318177.200000003,7040,WL,A,14.0
2,30.207000017166138,learn,29792.999982833862,Fri Feb 07 2025 16:19:00 GMT-0600 (Central Standard Time),318826.90000000596,A,enter,O,enter,361,1,383.40000000596046,318443.5,7040,WL,A,15.0
3,0.5490000247955322,learn,59450.99997520447,Fri Feb 07 2025 16:19:00 GMT-0600 (Central Standard Time),385922.30000000447,A,a,O,a,534,1,548.6000000014901,385373.700000003,7040,WL,A,1.0
3,0.8480000495910645,learn,59151.999950408936,Fri Feb 07 2025 16:19:00 GMT-0600 (Central Standard Time),386222.200000003,A,ap,O,p,281,1,848.5,385373.700000003,7040,WL,A,1.0
3,0.997999906539917,learn,59002.00009346008,Fri Feb 07 2025 16:19:00 GMT-0600 (Central Standard Time),386372.200000003,A,app,O,p,132,1,998.5,385373.700000003,7040,WL,A,1.0
3,1.2149999141693115,learn,58785.00008583069,Fri Feb 07 2025 16:19:00 GMT-0600 (Central Standard Time),386588.80000000447,A,appl,O,l,206,1,1215.1000000014901,385373.700000003,7040,WL,A,1.0
3,1.4649999141693115,learn,58535.00008583069,Fri Feb 07 2025 16:19:00 GMT-0600 (Central Standard Time),386838.5,A,apple,O,e,230,1,1464.7999999970198,385373.700000003,7040,WL,A,1.0
3,1.5980000495910645,learn,58401.999950408936,Fri Feb 07 2025 16:19:00 GMT-0600 (Central Standard Time),386971.700000003,A,appleenter,O,enter,125,1,1598.0,385373.700000003,7040,WL,A,1.0
3,1.8480000495910645,learn,58151.999950408936,Fri Feb 07 2025 16:19:00 GMT-0600 (Central Standard Time),387221.90000000596,A,l,O,l,231,1,249.90000000596046,386972.0,7040,WL,A,2.0
3,2.0480000972747803,learn,57951.99990272522,Fri Feb 07 2025 16:19:00 GMT-0600 (Central Standard Time),387421.80000000447,A,lo,O,o,182,1,449.80000000447035,386972.0,7040,WL,A,2.0
3,2.1649999618530273,learn,57835.00003814697,Fri Feb 07 2025 16:19:00 GMT-0600 (Central Standard Time),387538.700000003,A,log,O,g,109,1,566.7000000029802,386972.0,7040,WL,A,2.0
3,2.5309998989105225,learn,57469.00010108948,Fri Feb 07 2025 16:19:00 GMT-0600 (Central Standard Time),387905.0,A,logk,O,k,344,1,933.0,386972.0,7040,WL,A,2.0
3,2.615000009536743,learn,57384.99999046326,Fri Feb 07 2025 16:19:00 GMT-0600 (Central Standard Time),387988.5,A,logke,O,e,73,1,1016.5,386972.0,7040,WL,A,2.0
3,3.0309998989105225,learn,56969.00010108948,Fri Feb 07 2025 16:19:00 GMT-0600 (Central Standard Time),388404.80000000447,A,logk,O,backspace,398,1,1432.8000000044703,386972.0,7040,WL,A,2.0
3,3.2139999866485596,learn,56786.00001335144,Fri Feb 07 2025 16:19:00 GMT-0600 (Central Standard Time),388588.0,A,log,O,backspace,167,1,1616.0,386972.0,7040,WL,A,2.0
3,3.4140000343322754,learn,56585.999965667725,Fri Feb 07 2025 16:19:00 GMT-0600 (Central Standard Time),388787.80000000447,A,logenter,O,enter,192,1,1815.8000000044703,386972.0,7040,WL,A,2.0
3,3.7980000972747803,learn,56201.99990272522,Fri Feb 07 2025 16:19:00 GMT-0600 (Central Standard Time),389171.40000000596,A,k,O,k,361,1,383.30000000447035,388788.1000000015,7040,WL,A,3.0
3,3.9809999465942383,learn,56019.00005340576,Fri Feb 07 2025 16:19:00 GMT-0600 (Central Standard Time),389354.6000000015,A,ke,O,e,159,1,566.5,388788.1000000015,7040,WL,A,3.0
3,4.0970001220703125,learn,55902.99987792969,Fri Feb 07 2025 16:19:00 GMT-0600 (Central Standard Time),389471.1000000015,A,key,O,y,97,1,683.0,388788.1000000015,7040,WL,A,3.0
3,4.496999979019165,learn,55503.000020980835,Fri Feb 07 2025 16:19:00 GMT-0600 (Central Standard Time),389871.0,A,keyenter,O,enter,387,1,1082.8999999985099,388788.1000000015,7040,WL,A,3.0
3,4.8470001220703125,learn,55152.99987792969,Fri Feb 07 2025 16:19:00 GMT-0600 (Central Standard Time),390220.90000000596,A,r,O,r,341,1,349.6000000014901,389871.30000000447,7040,WL,A,4.0
3,4.996999979019165,learn,55003.000020980835,Fri Feb 07 2025 16:19:00 GMT-0600 (Central Standard Time),390370.90000000596,A,ra,O,a,135,1,499.6000000014901,389871.30000000447,7040,WL,A,4.0
3,5.114000082015991,learn,54885.99991798401,Fri Feb 07 2025 16:19:00 GMT-0600 (Central Standard Time),390487.700000003,A,rat,O,t,104,1,616.3999999985099,389871.30000000447,7040,WL,A,4.0
3,5.329999923706055,learn,54670.000076293945,Fri Feb 07 2025 16:19:00 GMT-0600 (Central Standard Time),390704.0,A,ratt,O,t,204,1,832.6999999955297,389871.30000000447,7040,WL,A,4.0
3,5.430000066757202,learn,54569.9999332428,Fri Feb 07 2025 16:19:00 GMT-0600 (Central Standard Time),390804.0,A,rattl,O,l,91,1,932.6999999955297,389871.30000000447,7040,WL,A,4.0
3,5.614000082015991,learn,54385.99991798401,Fri Feb 07 2025 16:19:00 GMT-0600 (Central Standard Time),390987.5,A,rattle,O,e,168,1,1116.1999999955297,389871.30000000447,7040,WL,A,4.0
3,5.913000106811523,learn,54086.99989318848,Fri Feb 07 2025 16:19:00 GMT-0600 (Central Standard Time),391287.200000003,A,rattleenter,O,enter,280,1,1415.8999999985099,389871.30000000447,7040,WL,A,4.0
3,7.0970001220703125,learn,52902.99987792969,Fri Feb 07 2025 16:19:00 GMT-0600 (Central Standard Time),392470.30000000447,A,h,O,h,1164,1,1182.8000000044703,391287.5,7040,WL,A,5.0
3,7.197000026702881,learn,52802.99997329712,Fri Feb 07 2025 16:19:00 GMT-0600 (Central Standard Time),392570.200000003,A,ha,O,a,76,1,1282.7000000029802,391287.5,7040,WL,A,5.0
3,7.296000003814697,learn,52703.9999961853,Fri Feb 07 2025 16:19:00 GMT-0600 (Central Standard Time),392670.1000000015,A,har,O,r,82,1,1382.6000000014901,391287.5,7040,WL,A,5.0
3,7.829999923706055,learn,52170.000076293945,Fri Feb 07 2025 16:19:00 GMT-0600 (Central Standard Time),393203.40000000596,A,harp,O,p,518,1,1915.9000000059605,391287.5,7040,WL,A,5.0
3,8.095999956130981,learn,51904.00004386902,Fri Feb 07 2025 16:19:00 GMT-0600 (Central Standard Time),393470.0,A,harpenter,O,enter,255,1,2182.5,391287.5,7040,WL,A,5.0
3,8.378999948501587,learn,51621.00005149841,Fri Feb 07 2025 16:19:00 GMT-0600 (Central Standard Time),393753.1000000015,A,s,O,s,262,1,282.79999999701977,393470.30000000447,7040,WL,A,6.0
3,8.562999963760376,learn,51437.000036239624,Fri Feb 07 2025 16:19:00 GMT-0600 (Central Standard Time),393936.6000000015,A,sa,O,a,162,1,466.29999999701977,393470.30000000447,7040,WL,A,6.0
3,8.628999948501587,learn,51371.00005149841,Fri Feb 07 2025 16:19:00 GMT-0600 (Central Standard Time),394003.1000000015,A,sal,O,l,43,1,532.7999999970198,393470.30000000447,7040,WL,A,6.0
3,8.963000059127808,learn,51036.99994087219,Fri Feb 07 2025 16:19:00 GMT-0600 (Central Standard Time),394336.5,A,salt,O,t,311,1,866.1999999955297,393470.30000000447,7040,WL,A,6.0
3,9.229000091552734,learn,50770.999908447266,Fri Feb 07 2025 16:19:00 GMT-0600 (Central Standard Time),394602.90000000596,A,saltenter,O,enter,259,1,1132.6000000014901,393470.30000000447,7040,WL,A,6.0
3,9.645999908447266,learn,50354.000091552734,Fri Feb 07 2025 16:19:00 GMT-0600 (Central Standard Time),395019.200000003,A,b,O,b,401,1,416.1000000014901,394603.1000000015,7040,WL,A,7.0
3,9.79699993133545,learn,50203.00006866455,Fri Feb 07 2025 16:19:00 GMT-0600 (Central Standard Time),395170.30000000447,A,bo,O,o,128,1,567.2000000029802,394603.1000000015,7040,WL,A,7.0
3,9.928999900817871,learn,50071.00009918213,Fri Feb 07 2025 16:19:00 GMT-0600 (Central Standard Time),395302.6000000015,A,boo,O,o,120,1,699.5,394603.1000000015,7040,WL,A,7.0
3,10.078999996185303,learn,49921.0000038147,Fri Feb 07 2025 16:19:00 GMT-0600 (Central Standard Time),395452.700000003,A,book,O,k,141,1,849.6000000014901,394603.1000000015,7040,WL,A,7.0
3,10.312000036239624,learn,49687.999963760376,Fri Feb 07 2025 16:19:00 GMT-0600 (Central Standard Time),395685.90000000596,A,bookenter,O,enter,223,1,1082.8000000044703,394603.1000000015,7040,WL,A,7.0
3,10.812000036239624,learn,49187.999963760376,Fri Feb 07 2025 16:19:00 GMT-0600 (Central Standard Time),396185.5,A,f,O,f,485,1,499.19999999552965,395686.30000000447,7040,WL,A,8.0
3,10.894999980926514,learn,49105.000019073486,Fri Feb 07 2025 16:19:00 GMT-0600 (Central Standard Time),396268.80000000447,A,fl,O,l,73,1,582.5,395686.30000000447,7040,WL,A,8.0
3,11.062000036239624,learn,48937.999963760376,Fri Feb 07 2025 16:19:00 GMT-0600 (Central Standard Time),396435.40000000596,A,flo,O,o,160,1,749.1000000014901,395686.30000000447,7040,WL,A,8.0
3,11.147000074386597,learn,48852.9999256134,Fri Feb 07 2025 16:19:00 GMT-0600 (Central Standard Time),396520.200000003,A,flow,O,w,65,1,833.8999999985099,395686.30000000447,7040,WL,A,8.0
3,11.26200008392334,learn,48737.99991607666,Fri Feb 07 2025 16:19:00 GMT-0600 (Central Standard Time),396635.5,A,flowe,O,e,107,1,949.1999999955297,395686.30000000447,7040,WL,A,8.0
3,11.411999940872192,learn,48588.00005912781,Fri Feb 07 2025 16:19:00 GMT-0600 (Central Standard Time),396785.6000000015,A,flower,O,r,127,1,1099.2999999970198,395686.30000000447,7040,WL,A,8.0
3,11.611999988555908,learn,48388.00001144409,Fri Feb 07 2025 16:19:00 GMT-0600 (Central Standard Time),396985.5,A,flowerenter,O,enter,185,1,1299.1999999955297,395686.30000000447,7040,WL,A,8.0
3,11.84500002861023,learn,48154.99997138977,Fri Feb 07 2025 16:19:00 GMT-0600 (Central Standard Time),397218.700000003,A,m,O,m,226,1,232.79999999701977,396985.90000000596,7040,WL,A,9.0
3,11.94700002670288,learn,48052.99997329712,Fri Feb 07 2025 16:19:00 GMT-0600 (Central Standard Time),397320.6000000015,A,me,O,e,88,1,334.69999999552965,396985.90000000596,7040,WL,A,9.0
3,12.045000076293945,learn,47954.999923706055,Fri Feb 07 2025 16:19:00 GMT-0600 (Central Standard Time),397418.700000003,A,mea,O,a,90,1,432.79999999701977,396985.90000000596,7040,WL,A,9.0
3,12.245000123977661,learn,47754.99987602234,Fri Feb 07 2025 16:19:00 GMT-0600 (Central Standard Time),397618.80000000447,A,meao,O,o,185,1,632.8999999985099,396985.90000000596,7040,WL,A,9.0
3,12.361999988555908,learn,47638.00001144409,Fri Feb 07 2025 16:19:00 GMT-0600 (Central Standard Time),397735.30000000447,A,meaod,O,d,97,1,749.3999999985099,396985.90000000596,7040,WL,A,9.0
3,12.57800006866455,learn,47421.99993133545,Fri Feb 07 2025 16:19:00 GMT-0600 (Central Standard Time),397952.0,A,meaodw,O,w,203,1,966.0999999940395,396985.90000000596,7040,WL,A,9.0
3,12.795000076293945,learn,47204.999923706055,Fri Feb 07 2025 16:19:00 GMT-0600 (Central Standard Time),398168.6000000015,A,meaodwenter,O,enter,204,1,1182.6999999955297,396985.90000000596,7040,WL,A,9.0
3,13.727999925613403,learn,46272.0000743866,Fri Feb 07 2025 16:19:00 GMT-0600 (Central Standard Time),399101.40000000596,A,m,O,m,915,1,932.4000000059605,398169.0,7040,WL,A,10.0
3,14.111000061035156,learn,45888.999938964844,Fri Feb 07 2025 16:19:00 GMT-0600 (Central Standard Time),399484.700000003,A,me,O,e,366,1,1315.7000000029802,398169.0,7040,WL,A,10.0
3,14.26200008392334,learn,45737.99991607666,Fri Feb 07 2025 16:19:00 GMT-0600 (Central Standard Time),399636.0,A,mea,O,a,135,1,1467.0,398169.0,7040,WL,A,10.0
3,14.611000061035156,learn,45388.999938964844,Fri Feb 07 2025 16:19:00 GMT-0600 (Central Standard Time),399984.6000000015,A,mead,O,d,326,1,1815.6000000014901,398169.0,7040,WL,A,10.0
3,14.677000045776367,learn,45322.99995422363,Fri Feb 07 2025 16:19:00 GMT-0600 (Central Standard Time),400051.1000000015,A,meado,O,o,43,1,1882.1000000014901,398169.0,7040,WL,A,10.0
3,14.82800006866455,learn,45171.99993133545,Fri Feb 07 2025 16:19:00 GMT-0600 (Central Standard Time),400201.30000000447,A,meadow,O,w,129,1,2032.3000000044703,398169.0,7040,WL,A,10.0
3,14.99399995803833,learn,45006.00004196167,Fri Feb 07 2025 16:19:00 GMT-0600 (Central Standard Time),400367.80000000447,A,meadowenter,O,enter,154,1,2198.8000000044703,398169.0,7040,WL,A,10.0
3,17.193000078201294,learn,42806.999921798706,Fri Feb 07 2025 16:19:00 GMT-0600 (Central Standard Time),402566.90000000596,A,c,O,c,2180,1,2198.8000000044703,400368.1000000015,7040,WL,A,11.0
3,17.292999982833862,learn,42707.00001716614,Fri Feb 07 2025 16:19:00 GMT-0600 (Central Standard Time),402667.0,A,ch,O,h,76,1,2298.89999999851,400368.1000000015,7040,WL,A,11.0
3,17.377000093460083,learn,42622.99990653992,Fri Feb 07 2025 16:19:00 GMT-0600 (Central Standard Time),402750.40000000596,A,chi,O,i,63,1,2382.3000000044703,400368.1000000015,7040,WL,A,11.0
3,17.609999895095825,learn,42390.000104904175,Fri Feb 07 2025 16:19:00 GMT-0600 (Central Standard Time),402983.6000000015,A,chim,O,m,214,1,2615.5,400368.1000000015,7040,WL,A,11.0
3,17.960000038146973,learn,42039.99996185303,Fri Feb 07 2025 16:19:00 GMT-0600 (Central Standard Time),403333.700000003,A,chimn,O,n,332,1,2965.60000000149,400368.1000000015,7040,WL,A,11.0
3,18.092999935150146,learn,41907.00006484985,Fri Feb 07 2025 16:19:00 GMT-0600 (Central Standard Time),403466.90000000596,A,chimne,O,e,110,1,3098.8000000044703,400368.1000000015,7040,WL,A,11.0
3,18.210000038146973,learn,41789.99996185303,Fri Feb 07 2025 16:19:00 GMT-0600 (Central Standard Time),403583.5,A,chimney,O,y,103,1,3215.39999999851,400368.1000000015,7040,WL,A,11.0
3,18.443000078201294,learn,41556.999921798706,Fri Feb 07 2025 16:19:00 GMT-0600 (Central Standard Time),403816.700000003,A,chimneyenter,O,enter,220,1,3448.60000000149,400368.1000000015,7040,WL,A,11.0
3,21.009000062942505,learn,38990.999937057495,Fri Feb 07 2025 16:19:00 GMT-0600 (Central Standard Time),406382.6000000015,A,b,O,b,2547,1,2565.39999999851,403817.200000003,7040,WL,A,12.0
3,21.092000007629395,learn,38907.999992370605,Fri Feb 07 2025 16:19:00 GMT-0600 (Central Standard Time),406465.90000000596,A,bu,O,u,69,1,2648.7000000029802,403817.200000003,7040,WL,A,12.0
3,21.242000102996826,learn,38757.999897003174,Fri Feb 07 2025 16:19:00 GMT-0600 (Central Standard Time),406615.80000000447,A,but,O,t,137,1,2798.60000000149,403817.200000003,7040,WL,A,12.0
3,21.39199995994568,learn,38608.00004005432,Fri Feb 07 2025 16:19:00 GMT-0600 (Central Standard Time),406765.5,A,butt,O,t,132,1,2948.2999999970198,403817.200000003,7040,WL,A,12.0
3,21.441999912261963,learn,38558.00008773804,Fri Feb 07 2025 16:19:00 GMT-0600 (Central Standard Time),406815.6000000015,A,butto,O,o,37,1,2998.39999999851,403817.200000003,7040,WL,A,12.0
3,21.55900001525879,learn,38440.99998474121,Fri Feb 07 2025 16:19:00 GMT-0600 (Central Standard Time),406932.5,A,button,O,n,107,1,3115.2999999970198,403817.200000003,7040,WL,A,12.0
3,21.80900001525879,learn,38190.99998474121,Fri Feb 07 2025 16:19:00 GMT-0600 (Central Standard Time),407182.40000000596,A,buttonenter,O,enter,239,1,3365.2000000029802,403817.200000003,7040,WL,A,12.0
3,25.69099998474121,learn,34309.00001525879,Fri Feb 07 2025 16:19:00 GMT-0600 (Central Standard Time),411064.40000000596,A,t,O,t,3870,1,3881.60000000149,407182.80000000447,7040,WL,A,13.0
3,25.874000072479248,learn,34125.99992752075,Fri Feb 07 2025 16:19:00 GMT-0600 (Central Standard Time),411247.80000000447,A,tr,O,r,171,1,4065.0,407182.80000000447,7040,WL,A,13.0
3,25.957000017166138,learn,34042.99998283386,Fri Feb 07 2025 16:19:00 GMT-0600 (Central Standard Time),411330.80000000447,A,tra,O,a,68,1,4148.0,407182.80000000447,7040,WL,A,13.0
3,26.0239999294281,learn,33976.0000705719,Fri Feb 07 2025 16:19:00 GMT-0600 (Central Standard Time),411398.1000000015,A,trai,O,i,50,1,4215.29999999702,407182.80000000447,7040,WL,A,13.0
3,26.5239999294281,learn,33476.0000705719,Fri Feb 07 2025 16:19:00 GMT-0600 (Central Standard Time),411897.5,A,train,O,n,477,1,4714.69999999553,407182.80000000447,7040,WL,A,13.0
3,26.756999969482422,learn,33243.00003051758,Fri Feb 07 2025 16:19:00 GMT-0600 (Central Standard Time),412130.700000003,A,trainenter,O,enter,225,1,4947.89999999851,407182.80000000447,7040,WL,A,13.0
3,30.98900008201599,learn,29010.99991798401,Fri Feb 07 2025 16:19:00 GMT-0600 (Central Standard Time),416362.80000000447,A,f,O,f,4209,1,4231.89999999851,412130.90000000596,7040,WL,A,14.0
3,31.10599994659424,learn,28894.00005340576,Fri Feb 07 2025 16:19:00 GMT-0600 (Central Standard Time),416479.5,A,fi,O,i,96,1,4348.5999999940395,412130.90000000596,7040,WL,A,14.0
3,31.289000034332275,learn,28710.999965667725,Fri Feb 07 2025 16:19:00 GMT-0600 (Central Standard Time),416662.6000000015,A,fin,O,n,171,1,4531.69999999553,412130.90000000596,7040,WL,A,14.0
3,31.48900008201599,learn,28510.99991798401,Fri Feb 07 2025 16:19:00 GMT-0600 (Central Standard Time),416862.5,A,fing,O,g,180,1,4731.5999999940395,412130.90000000596,7040,WL,A,14.0
3,31.67199993133545,learn,28328.00006866455,Fri Feb 07 2025 16:19:00 GMT-0600 (Central Standard Time),417045.80000000447,A,finge,O,e,173,1,4914.89999999851,412130.90000000596,7040,WL,A,14.0
3,31.755000114440918,learn,28244.999885559082,Fri Feb 07 2025 16:19:00 GMT-0600 (Central Standard Time),417129.1000000015,A,finger,O,r,61,1,4998.19999999553,412130.90000000596,7040,WL,A,14.0
3,31.90499997138977,learn,28095.00002861023,Fri Feb 07 2025 16:19:00 GMT-0600 (Central Standard Time),417279.1000000015,A,fingerenter,O,enter,130,1,5148.19999999553,412130.90000000596,7040,WL,A,14.0
3,32.50600004196167,learn,27493.99995803833,Fri Feb 07 2025 16:19:00 GMT-0600 (Central Standard Time),417880.30000000447,A,enter,O,enter,588,1,600.8000000044703,417279.5,7040,WL,A,15.0
4,0.49900007247924805,learn,59500.99992752075,Fri Feb 07 2025 16:19:00 GMT-0600 (Central Standard Time),483991.700000003,A,b,O,b,487,1,498.70000000298023,483493.0,7040,WL,A,1.0
4,0.6989998817443848,learn,59301.000118255615,Fri Feb 07 2025 16:19:00 GMT-0600 (Central Standard Time),484191.700000003,A,bu,O,u,188,1,698.7000000029802,483493.0,7040,WL,A,1.0
4,0.8320000171661377,learn,59167.99998283386,Fri Feb 07 2025 16:19:00 GMT-0600 (Central Standard Time),484324.90000000596,A,but,O,t,124,1,831.9000000059605,483493.0,7040,WL,A,1.0
4,0.9819998741149902,learn,59018.00012588501,Fri Feb 07 2025 16:19:00 GMT-0600 (Central Standard Time),484474.80000000447,A,butt,O,t,135,1,981.8000000044703,483493.0,7040,WL,A,1.0
4,1.0989999771118164,learn,58901.00002288818,Fri Feb 07 2025 16:19:00 GMT-0600 (Central Standard Time),484591.5,A,butto,O,o,105,1,1098.5,483493.0,7040,WL,A,1.0
4,1.2649998664855957,learn,58735.000133514404,Fri Feb 07 2025 16:19:00 GMT-0600 (Central Standard Time),484758.1000000015,A,button,O,n,156,1,1265.1000000014901,483493.0,7040,WL,A,1.0
4,1.5490000247955322,learn,58450.99997520447,Fri Feb 07 2025 16:19:00 GMT-0600 (Central Standard Time),485041.40000000596,A,buttonenter,O,enter,269,1,1548.4000000059605,483493.0,7040,WL,A,1.0
4,1.7980000972747803,learn,58201.99990272522,Fri Feb 07 2025 16:19:00 GMT-0600 (Central Standard Time),485291.1000000015,A,l,O,l,235,1,249.29999999701977,485041.80000000447,7040,WL,A,2.0
4,1.997999906539917,learn,58002.00009346008,Fri Feb 07 2025 16:19:00 GMT-0600 (Central Standard Time),485491.200000003,A,lo,O,o,184,1,449.3999999985099,485041.80000000447,7040,WL,A,2.0
4,2.115000009536743,learn,57884.99999046326,Fri Feb 07 2025 16:19:00 GMT-0600 (Central Standard Time),485607.80000000447,A,log,O,g,104,1,566.0,485041.80000000447,7040,WL,A,2.0
4,2.3980000019073486,learn,57601.99999809265,Fri Feb 07 2025 16:19:00 GMT-0600 (Central Standard Time),485891.0,A,logk,O,k,275,1,849.1999999955297,485041.80000000447,7040,WL,A,2.0
4,2.5149998664855957,learn,57485.000133514404,Fri Feb 07 2025 16:19:00 GMT-0600 (Central Standard Time),486007.700000003,A,logke,O,e,105,1,965.8999999985099,485041.80000000447,7040,WL,A,2.0
4,2.681999921798706,learn,57318.000078201294,Fri Feb 07 2025 16:19:00 GMT-0600 (Central Standard Time),486174.40000000596,A,logkey,O,y,148,1,1132.6000000014901,485041.80000000447,7040,WL,A,2.0
4,3.0149998664855957,learn,56985.000133514404,Fri Feb 07 2025 16:19:00 GMT-0600 (Central Standard Time),486507.30000000447,A,logke,O,backspace,325,1,1465.5,485041.80000000447,7040,WL,A,2.0
4,3.197999954223633,learn,56802.00004577637,Fri Feb 07 2025 16:19:00 GMT-0600 (Central Standard Time),486690.700000003,A,logk,O,backspace,169,1,1648.8999999985099,485041.80000000447,7040,WL,A,2.0
4,3.365000009536743,learn,56634.99999046326,Fri Feb 07 2025 16:19:00 GMT-0600 (Central Standard Time),486857.5,A,log,O,backspace,153,1,1815.6999999955297,485041.80000000447,7040,WL,A,2.0
4,3.6480000019073486,learn,56351.99999809265,Fri Feb 07 2025 16:19:00 GMT-0600 (Central Standard Time),487140.80000000447,A,logenter,O,enter,274,1,2099.0,485041.80000000447,7040,WL,A,2.0
4,3.9140000343322754,learn,56085.999965667725,Fri Feb 07 2025 16:19:00 GMT-0600 (Central Standard Time),487407.200000003,A,k,O,k,247,1,266.20000000298023,487141.0,7040,WL,A,3.0
4,4.065000057220459,learn,55934.99994277954,Fri Feb 07 2025 16:19:00 GMT-0600 (Central Standard Time),487557.30000000447,A,ke,O,e,139,1,416.30000000447035,487141.0,7040,WL,A,3.0
4,4.21399998664856,learn,55786.00001335144,Fri Feb 07 2025 16:19:00 GMT-0600 (Central Standard Time),487707.1000000015,A,key,O,y,126,1,566.1000000014901,487141.0,7040,WL,A,3.0
4,4.480999946594238,learn,55519.00005340576,Fri Feb 07 2025 16:19:00 GMT-0600 (Central Standard Time),487973.80000000447,A,keyenter,O,enter,256,1,832.8000000044703,487141.0,7040,WL,A,3.0
4,4.813999891281128,learn,55186.00010871887,Fri Feb 07 2025 16:19:00 GMT-0600 (Central Standard Time),488307.0,A,r,O,r,310,1,332.79999999701977,487974.200000003,7040,WL,A,4.0
4,4.996999979019165,learn,55003.000020980835,Fri Feb 07 2025 16:19:00 GMT-0600 (Central Standard Time),488490.1000000015,A,ra,O,a,169,1,515.8999999985099,487974.200000003,7040,WL,A,4.0
4,5.049000024795532,learn,54950.99997520447,Fri Feb 07 2025 16:19:00 GMT-0600 (Central Standard Time),488541.30000000447,A,rat,O,t,43,1,567.1000000014901,487974.200000003,7040,WL,A,4.0
4,5.246999979019165,learn,54753.000020980835,Fri Feb 07 2025 16:19:00 GMT-0600 (Central Standard Time),488740.200000003,A,ratt,O,t,182,1,766.0,487974.200000003,7040,WL,A,4.0
4,5.397000074386597,learn,54602.9999256134,Fri Feb 07 2025 16:19:00 GMT-0600 (Central Standard Time),488890.30000000447,A,rattl,O,l,135,1,916.1000000014901,487974.200000003,7040,WL,A,4.0
4,5.5309998989105225,learn,54469.00010108948,Fri Feb 07 2025 16:19:00 GMT-0600 (Central Standard Time),489023.6000000015,A,rattle,O,e,114,1,1049.3999999985099,487974.200000003,7040,WL,A,4.0
4,5.664000034332275,learn,54335.999965667725,Fri Feb 07 2025 16:19:00 GMT-0600 (Central Standard Time),489156.80000000447,A,rattleenter,O,enter,116,1,1182.6000000014901,487974.200000003,7040,WL,A,4.0
4,5.897000074386597,learn,54102.9999256134,Fri Feb 07 2025 16:19:00 GMT-0600 (Central Standard Time),489389.90000000596,A,g,O,g,223,1,232.90000000596046,489157.0,7040,WL,A,5.0
4,5.996999979019165,learn,54003.000020980835,Fri Feb 07 2025 16:19:00 GMT-0600 (Central Standard Time),489489.80000000447,A,go,O,o,77,1,332.80000000447035,489157.0,7040,WL,A,5.0
4,6.197000026702881,learn,53802.99997329712,Fri Feb 07 2025 16:19:00 GMT-0600 (Central Standard Time),489690.0,A,gol,O,l,186,1,533.0,489157.0,7040,WL,A,5.0
4,6.329999923706055,learn,53670.000076293945,Fri Feb 07 2025 16:19:00 GMT-0600 (Central Standard Time),489823.1000000015,A,gold,O,d,113,1,666.1000000014901,489157.0,7040,WL,A,5.0
4,6.614000082015991,learn,53385.99991798401,Fri Feb 07 2025 16:19:00 GMT-0600 (Central Standard Time),490106.5,A,goldenter,O,enter,259,1,949.5,489157.0,7040,WL,A,5.0
4,6.897000074386597,learn,53102.9999256134,Fri Feb 07 2025 16:19:00 GMT-0600 (Central Standard Time),490389.6000000015,A,b,O,b,266,1,282.8999999985099,490106.700000003,7040,WL,A,6.0
4,7.096999883651733,learn,52903.00011634827,Fri Feb 07 2025 16:19:00 GMT-0600 (Central Standard Time),490589.5,A,bo,O,o,189,1,482.79999999701977,490106.700000003,7040,WL,A,6.0
4,7.263000011444092,learn,52736.99998855591,Fri Feb 07 2025 16:19:00 GMT-0600 (Central Standard Time),490756.0,A,boo,O,o,150,1,649.2999999970198,490106.700000003,7040,WL,A,6.0
4,7.430000066757202,learn,52569.9999332428,Fri Feb 07 2025 16:19:00 GMT-0600 (Central Standard Time),490922.80000000447,A,book,O,k,159,1,816.1000000014901,490106.700000003,7040,WL,A,6.0
4,7.730000019073486,learn,52269.999980926514,Fri Feb 07 2025 16:19:00 GMT-0600 (Central Standard Time),491222.80000000447,A,bookenter,O,enter,289,1,1116.1000000014901,490106.700000003,7040,WL,A,6.0
4,9.645999908447266,learn,50354.000091552734,Fri Feb 07 2025 16:19:00 GMT-0600 (Central Standard Time),493138.80000000447,A,m,O,m,1901,1,1915.7000000029802,491223.1000000015,7040,WL,A,7.0
4,9.713000059127808,learn,50286.99994087219,Fri Feb 07 2025 16:19:00 GMT-0600 (Central Standard Time),493205.5,A,me,O,e,57,1,1982.3999999985099,491223.1000000015,7040,WL,A,7.0
4,9.86299991607666,learn,50137.00008392334,Fri Feb 07 2025 16:19:00 GMT-0600 (Central Standard Time),493355.5,A,mea,O,a,127,1,2132.39999999851,491223.1000000015,7040,WL,A,7.0
4,10.095999956130981,learn,49904.00004386902,Fri Feb 07 2025 16:19:00 GMT-0600 (Central Standard Time),493588.80000000447,A,meao,O,o,224,1,2365.7000000029802,491223.1000000015,7040,WL,A,7.0
4,10.463000059127808,learn,49536.99994087219,Fri Feb 07 2025 16:19:00 GMT-0600 (Central Standard Time),493955.700000003,A,mea,O,backspace,350,1,2732.60000000149,491223.1000000015,7040,WL,A,7.0
4,10.645999908447266,learn,49354.000091552734,Fri Feb 07 2025 16:19:00 GMT-0600 (Central Standard Time),494138.6000000015,A,me,O,backspace,160,1,2915.5,491223.1000000015,7040,WL,A,7.0
4,11.812000036239624,learn,48187.999963760376,Fri Feb 07 2025 16:19:00 GMT-0600 (Central Standard Time),495304.80000000447,A,mea,O,a,1145,1,4081.7000000029802,491223.1000000015,7040,WL,A,7.0
4,12.09500002861023,learn,47904.99997138977,Fri Feb 07 2025 16:19:00 GMT-0600 (Central Standard Time),495588.0,A,mead,O,d,266,1,4364.89999999851,491223.1000000015,7040,WL,A,7.0
4,12.229000091552734,learn,47770.999908447266,Fri Feb 07 2025 16:19:00 GMT-0600 (Central Standard Time),495721.5,A,meado,O,o,120,1,4498.39999999851,491223.1000000015,7040,WL,A,7.0
4,12.444999933242798,learn,47555.0000667572,Fri Feb 07 2025 16:19:00 GMT-0600 (Central Standard Time),495937.700000003,A,meadow,O,w,194,1,4714.60000000149,491223.1000000015,7040,WL,A,7.0
4,12.678999900817871,learn,47321.00009918213,Fri Feb 07 2025 16:19:00 GMT-0600 (Central Standard Time),496171.5,A,meadowenter,O,enter,210,1,4948.39999999851,491223.1000000015,7040,WL,A,7.0
4,12.961999893188477,learn,47038.00010681152,Fri Feb 07 2025 16:19:00 GMT-0600 (Central Standard Time),496454.40000000596,A,r,O,r,272,1,282.5,496171.90000000596,7040,WL,A,8.0
4,13.295000076293945,learn,46704.999923706055,Fri Feb 07 2025 16:19:00 GMT-0600 (Central Standard Time),496787.700000003,A,ru,O,u,316,1,615.7999999970198,496171.90000000596,7040,WL,A,8.0
4,13.91100001335144,learn,46088.99998664856,Fri Feb 07 2025 16:19:00 GMT-0600 (Central Standard Time),497403.90000000596,A,rug,O,g,601,1,1232.0,496171.90000000596,7040,WL,A,8.0
4,14.144999980926514,learn,45855.000019073486,Fri Feb 07 2025 16:19:00 GMT-0600 (Central Standard Time),497637.40000000596,A,rugenter,O,enter,216,1,1465.5,496171.90000000596,7040,WL,A,8.0
4,14.32800006866455,learn,45671.99993133545,Fri Feb 07 2025 16:19:00 GMT-0600 (Central Standard Time),497820.6000000015,A,t,O,t,166,1,182.89999999850988,497637.700000003,7040,WL,A,9.0
4,14.560999870300293,learn,45439.00012969971,Fri Feb 07 2025 16:19:00 GMT-0600 (Central Standard Time),498053.90000000596,A,tr,O,r,215,1,416.20000000298023,497637.700000003,7040,WL,A,9.0
4,14.694000005722046,learn,45305.999994277954,Fri Feb 07 2025 16:19:00 GMT-0600 (Central Standard Time),498187.1000000015,A,tra,O,a,126,1,549.3999999985099,497637.700000003,7040,WL,A,9.0
4,14.843999862670898,learn,45156.0001373291,Fri Feb 07 2025 16:19:00 GMT-0600 (Central Standard Time),498337.0,A,trai,O,i,129,1,699.2999999970198,497637.700000003,7040,WL,A,9.0
4,15.07800006866455,learn,44921.99993133545,Fri Feb 07 2025 16:19:00 GMT-0600 (Central Standard Time),498570.5,A,train,O,n,209,1,932.7999999970198,497637.700000003,7040,WL,A,9.0
4,15.293999910354614,learn,44706.000089645386,Fri Feb 07 2025 16:19:00 GMT-0600 (Central Standard Time),498786.90000000596,A,trainenter,O,enter,200,1,1149.2000000029802,497637.700000003,7040,WL,A,9.0
4,15.477999925613403,learn,44522.0000743866,Fri Feb 07 2025 16:19:00 GMT-0600 (Central Standard Time),498970.30000000447,A,c,O,c,160,1,183.0,498787.30000000447,7040,WL,A,10.0
4,15.543999910354614,learn,44456.000089645386,Fri Feb 07 2025 16:19:00 GMT-0600 (Central Standard Time),499036.90000000596,A,ch,O,h,49,1,249.60000000149012,498787.30000000447,7040,WL,A,10.0
4,15.67799997329712,learn,44322.00002670288,Fri Feb 07 2025 16:19:00 GMT-0600 (Central Standard Time),499170.40000000596,A,chi,O,i,118,1,383.1000000014901,498787.30000000447,7040,WL,A,10.0
4,15.91100001335144,learn,44088.99998664856,Fri Feb 07 2025 16:19:00 GMT-0600 (Central Standard Time),499403.40000000596,A,chim,O,m,226,1,616.1000000014901,498787.30000000447,7040,WL,A,10.0
4,16.3439998626709,learn,43656.0001373291,Fri Feb 07 2025 16:19:00 GMT-0600 (Central Standard Time),499836.5,A,chimn,O,n,424,1,1049.1999999955297,498787.30000000447,7040,WL,A,10.0
4,16.486999988555908,learn,43513.00001144409,Fri Feb 07 2025 16:19:00 GMT-0600 (Central Standard Time),499979.30000000447,A,chimne,O,e,135,1,1192.0,498787.30000000447,7040,WL,A,10.0
4,16.66000008583069,learn,43339.99991416931,Fri Feb 07 2025 16:19:00 GMT-0600 (Central Standard Time),500153.200000003,A,chimney,O,y,157,1,1365.8999999985099,498787.30000000447,7040,WL,A,10.0
4,16.944000005722046,learn,43055.999994277954,Fri Feb 07 2025 16:19:00 GMT-0600 (Central Standard Time),500436.5,A,chimneyenter,O,enter,267,1,1649.1999999955297,498787.30000000447,7040,WL,A,10.0
4,20.776000022888184,learn,39223.99997711182,Fri Feb 07 2025 16:19:00 GMT-0600 (Central Standard Time),504268.700000003,A,s,O,s,3823,1,3831.89999999851,500436.80000000447,7040,WL,A,11.0
4,20.941999912261963,learn,39058.00008773804,Fri Feb 07 2025 16:19:00 GMT-0600 (Central Standard Time),504435.1000000015,A,sa,O,a,143,1,3998.2999999970198,500436.80000000447,7040,WL,A,11.0
4,21.075999975204468,learn,38924.00002479553,Fri Feb 07 2025 16:19:00 GMT-0600 (Central Standard Time),504568.5,A,sal,O,l,113,1,4131.69999999553,500436.80000000447,7040,WL,A,11.0
4,21.375999927520752,learn,38624.00007247925,Fri Feb 07 2025 16:19:00 GMT-0600 (Central Standard Time),504868.40000000596,A,salt,O,t,282,1,4431.60000000149,500436.80000000447,7040,WL,A,11.0
4,21.592000007629395,learn,38407.999992370605,Fri Feb 07 2025 16:19:00 GMT-0600 (Central Standard Time),505085.1000000015,A,saltenter,O,enter,199,1,4648.29999999702,500436.80000000447,7040,WL,A,11.0
4,21.80900001525879,learn,38190.99998474121,Fri Feb 07 2025 16:19:00 GMT-0600 (Central Standard Time),505301.700000003,A,h,O,h,207,1,216.29999999701977,505085.40000000596,7040,WL,A,12.0
4,21.875999927520752,learn,38124.00007247925,Fri Feb 07 2025 16:19:00 GMT-0600 (Central Standard Time),505368.30000000447,A,ha,O,a,46,1,282.8999999985099,505085.40000000596,7040,WL,A,12.0
4,21.95899987220764,learn,38041.00012779236,Fri Feb 07 2025 16:19:00 GMT-0600 (Central Standard Time),505451.30000000447,A,har,O,r,74,1,365.8999999985099,505085.40000000596,7040,WL,A,12.0
4,22.14199995994568,learn,37858.00004005432,Fri Feb 07 2025 16:19:00 GMT-0600 (Central Standard Time),505634.80000000447,A,harp,O,p,168,1,549.3999999985099,505085.40000000596,7040,WL,A,12.0
4,22.408999919891357,learn,37591.00008010864,Fri Feb 07 2025 16:19:00 GMT-0600 (Central Standard Time),505901.5,A,harpenter,O,enter,249,1,816.0999999940395,505085.40000000596,7040,WL,A,12.0
4,25.257999897003174,learn,34742.000102996826,Fri Feb 07 2025 16:19:00 GMT-0600 (Central Standard Time),508750.40000000596,A,g,O,g,2838,1,2848.5,505901.90000000596,7040,WL,A,13.0
4,25.323999881744385,learn,34676.000118255615,Fri Feb 07 2025 16:19:00 GMT-0600 (Central Standard Time),508817.1000000015,A,go,O,o,53,1,2915.1999999955297,505901.90000000596,7040,WL,A,13.0
4,25.5239999294281,learn,34476.0000705719,Fri Feb 07 2025 16:19:00 GMT-0600 (Central Standard Time),509017.200000003,A,gol,O,l,179,1,3115.2999999970198,505901.90000000596,7040,WL,A,13.0
4,25.624000072479248,learn,34375.99992752075,Fri Feb 07 2025 16:19:00 GMT-0600 (Central Standard Time),509117.30000000447,A,gold,O,d,83,1,3215.39999999851,505901.90000000596,7040,WL,A,13.0
4,25.808000087738037,learn,34191.99991226196,Fri Feb 07 2025 16:19:00 GMT-0600 (Central Standard Time),509300.5,A,goldenter,O,enter,166,1,3398.5999999940395,505901.90000000596,7040,WL,A,13.0
4,28.407000064849854,learn,31592.999935150146,Fri Feb 07 2025 16:19:00 GMT-0600 (Central Standard Time),511899.700000003,A,enter,O,enter,2583,1,2598.7999999970198,509300.90000000596,7040,WL,A,14.0
4,30.289999961853027,learn,29710.000038146973,Fri Feb 07 2025 16:19:00 GMT-0600 (Central Standard Time),513782.5,A,enter,O,enter,1872,1,1882.5,511900.0,7040,WL,A,15.0
5,0.49899983406066895,learn,60000.0,Fri Feb 07 2025 16:19:00 GMT-0600 (Central Standard Time),581744.700000003,A,g,O,g,487,1,498.79999999701977,581245.900000006,7040,WL,A,1.0
5,0.681999921798706,learn,60000.0,Fri Feb 07 2025 16:19:00 GMT-0600 (Central Standard Time),581927.900000006,A,go,O,o,162,1,682.0,581245.900000006,7040,WL,A,1.0
5,0.931999921798706,learn,60000.0,Fri Feb 07 2025 16:19:00 GMT-0600 (Central Standard Time),582177.700000003,A,gol,O,l,236,1,931.7999999970198,581245.900000006,7040,WL,A,1.0
5,1.114999771118164,learn,60000.0,Fri Feb 07 2025 16:19:00 GMT-0600 (Central Standard Time),582360.8000000045,A,golf,O,f,169,1,1114.8999999985099,581245.900000006,7040,WL,A,1.0
5,1.364999771118164,learn,60000.0,Fri Feb 07 2025 16:19:00 GMT-0600 (Central Standard Time),582610.900000006,A,golfenter,O,enter,226,1,1365.0,581245.900000006,7040,WL,A,1.0
5,2.297999858856201,learn,60000.0,Fri Feb 07 2025 16:19:00 GMT-0600 (Central Standard Time),583543.900000006,A,g,O,g,921,1,932.6000000014901,582611.3000000045,7040,WL,A,2.0
5,2.3980000019073486,learn,60000.0,Fri Feb 07 2025 16:19:00 GMT-0600 (Central Standard Time),583644.0,A,go,O,o,83,1,1032.6999999955297,582611.3000000045,7040,WL,A,2.0
5,2.5809998512268066,learn,60000.0,Fri Feb 07 2025 16:19:00 GMT-0600 (Central Standard Time),583827.200000003,A,gol,O,l,176,1,1215.8999999985099,582611.3000000045,7040,WL,A,2.0
5,2.863999843597412,learn,60000.0,Fri Feb 07 2025 16:19:00 GMT-0600 (Central Standard Time),584110.400000006,A,gold,O,d,272,1,1499.1000000014901,582611.3000000045,7040,WL,A,2.0
5,3.0979998111724854,learn,60000.0,Fri Feb 07 2025 16:19:00 GMT-0600 (Central Standard Time),584343.700000003,A,goldenter,O,enter,213,1,1732.3999999985099,582611.3000000045,7040,WL,A,2.0
5,3.3479998111724854,learn,60000.0,Fri Feb 07 2025 16:19:00 GMT-0600 (Central Standard Time),584593.700000003,A,b,O,b,229,1,249.70000000298023,584344.0,7040,WL,A,3.0
5,3.4639999866485596,learn,60000.0,Fri Feb 07 2025 16:19:00 GMT-0600 (Central Standard Time),584710.3000000045,A,bu,O,u,106,1,366.30000000447035,584344.0,7040,WL,A,3.0
5,3.613999843597412,learn,60000.0,Fri Feb 07 2025 16:19:00 GMT-0600 (Central Standard Time),584860.200000003,A,but,O,t,134,1,516.2000000029802,584344.0,7040,WL,A,3.0
5,3.7309999465942383,learn,60000.0,Fri Feb 07 2025 16:19:00 GMT-0600 (Central Standard Time),584976.8000000045,A,butt,O,t,96,1,632.8000000044703,584344.0,7040,WL,A,3.0
5,3.863999843597412,learn,60000.0,Fri Feb 07 2025 16:19:00 GMT-0600 (Central Standard Time),585110.200000003,A,butto,O,o,113,1,766.2000000029802,584344.0,7040,WL,A,3.0
5,3.9649999141693115,learn,60000.0,Fri Feb 07 2025 16:19:00 GMT-0600 (Central Standard Time),585210.700000003,A,button,O,n,92,1,866.7000000029802,584344.0,7040,WL,A,3.0
5,4.263999938964844,learn,60000.0,Fri Feb 07 2025 16:19:00 GMT-0600 (Central Standard Time),585509.6000000015,A,buttonenter,O,enter,289,1,1165.6000000014901,584344.0,7040,WL,A,3.0
5,4.929999828338623,learn,60000.0,Fri Feb 07 2025 16:19:00 GMT-0600 (Central Standard Time),586176.3000000045,A,f,O,f,653,1,666.3000000044703,585510.0,7040,WL,A,4.0
5,4.996999979019165,learn,60000.0,Fri Feb 07 2025 16:19:00 GMT-0600 (Central Standard Time),586243.200000003,A,fi,O,i,51,1,733.2000000029802,585510.0,7040,WL,A,4.0
5,5.179999828338623,learn,60000.0,Fri Feb 07 2025 16:19:00 GMT-0600 (Central Standard Time),586426.200000003,A,fin,O,n,168,1,916.2000000029802,585510.0,7040,WL,A,4.0
5,5.579999923706055,learn,60000.0,Fri Feb 07 2025 16:19:00 GMT-0600 (Central Standard Time),586826.3000000045,A,fing,O,g,377,1,1316.3000000044703,585510.0,7040,WL,A,4.0
5,5.812999963760376,learn,60000.0,Fri Feb 07 2025 16:19:00 GMT-0600 (Central Standard Time),587059.5,A,finge,O,e,218,1,1549.5,585510.0,7040,WL,A,4.0
5,5.864999771118164,learn,60000.0,Fri Feb 07 2025 16:19:00 GMT-0600 (Central Standard Time),587110.700000003,A,finger,O,r,41,1,1600.7000000029802,585510.0,7040,WL,A,4.0
5,6.296999931335449,learn,60000.0,Fri Feb 07 2025 16:19:00 GMT-0600 (Central Standard Time),587542.700000003,A,fingerenter,O,enter,421,1,2032.7000000029802,585510.0,7040,WL,A,4.0
5,6.662999868392944,learn,60000.0,Fri Feb 07 2025 16:19:00 GMT-0600 (Central Standard Time),587909.0,A,b,O,b,349,1,366.0,587543.0,7040,WL,A,5.0
5,6.812999963760376,learn,60000.0,Fri Feb 07 2025 16:19:00 GMT-0600 (Central Standard Time),588059.1000000015,A,bo,O,o,127,1,516.1000000014901,587543.0,7040,WL,A,5.0
5,6.9629998207092285,learn,60000.0,Fri Feb 07 2025 16:19:00 GMT-0600 (Central Standard Time),588209.1000000015,A,boo,O,o,137,1,666.1000000014901,587543.0,7040,WL,A,5.0
5,7.128999948501587,learn,60000.0,Fri Feb 07 2025 16:19:00 GMT-0600 (Central Standard Time),588375.6000000015,A,book,O,k,146,1,832.6000000014901,587543.0,7040,WL,A,5.0
5,7.395999908447266,learn,60000.0,Fri Feb 07 2025 16:19:00 GMT-0600 (Central Standard Time),588642.5,A,bookenter,O,enter,244,1,1099.5,587543.0,7040,WL,A,5.0
5,7.61299991607666,learn,60000.0,Fri Feb 07 2025 16:19:00 GMT-0600 (Central Standard Time),588859.0,A,h,O,h,193,1,216.09999999403954,588642.900000006,7040,WL,A,6.0
5,7.678999900817871,learn,60000.0,Fri Feb 07 2025 16:19:00 GMT-0600 (Central Standard Time),588925.6000000015,A,ha,O,a,49,1,282.69999999552965,588642.900000006,7040,WL,A,6.0
5,7.796000003814697,learn,60000.0,Fri Feb 07 2025 16:19:00 GMT-0600 (Central Standard Time),589042.3000000045,A,har,O,r,93,1,399.3999999985099,588642.900000006,7040,WL,A,6.0
5,8.128999948501587,learn,60000.0,Fri Feb 07 2025 16:19:00 GMT-0600 (Central Standard Time),589375.5,A,harp,O,p,313,1,732.5999999940395,588642.900000006,7040,WL,A,6.0
5,8.428999900817871,learn,60000.0,Fri Feb 07 2025 16:19:00 GMT-0600 (Central Standard Time),589675.200000003,A,harpenter,O,enter,292,1,1032.2999999970198,588642.900000006,7040,WL,A,6.0
5,8.628999948501587,learn,60000.0,Fri Feb 07 2025 16:19:00 GMT-0600 (Central Standard Time),589875.3000000045,A,s,O,s,184,1,199.89999999850988,589675.400000006,7040,WL,A,7.0
5,8.77899980545044,learn,60000.0,Fri Feb 07 2025 16:19:00 GMT-0600 (Central Standard Time),590025.1000000015,A,sa,O,a,128,1,349.69999999552965,589675.400000006,7040,WL,A,7.0
5,8.86299991607666,learn,60000.0,Fri Feb 07 2025 16:19:00 GMT-0600 (Central Standard Time),590108.6000000015,A,sal,O,l,75,1,433.19999999552965,589675.400000006,7040,WL,A,7.0
5,9.19599986076355,learn,60000.0,Fri Feb 07 2025 16:19:00 GMT-0600 (Central Standard Time),590441.8000000045,A,salt,O,t,311,1,766.3999999985099,589675.400000006,7040,WL,A,7.0
5,9.478999853134155,learn,60000.0,Fri Feb 07 2025 16:19:00 GMT-0600 (Central Standard Time),590724.8000000045,A,saltenter,O,enter,274,1,1049.3999999985099,589675.400000006,7040,WL,A,7.0
5,11.227999925613403,learn,60000.0,Fri Feb 07 2025 16:19:00 GMT-0600 (Central Standard Time),592474.400000006,A,f,O,f,1735,1,1749.3000000044703,590725.1000000015,7040,WL,A,8.0
5,11.327999830245972,learn,60000.0,Fri Feb 07 2025 16:19:00 GMT-0600 (Central Standard Time),592574.400000006,A,fl,O,l,89,1,1849.3000000044703,590725.1000000015,7040,WL,A,8.0
5,11.460999965667725,learn,60000.0,Fri Feb 07 2025 16:19:00 GMT-0600 (Central Standard Time),592707.5,A,flo,O,o,118,1,1982.3999999985099,590725.1000000015,7040,WL,A,8.0
5,11.577999830245972,learn,60000.0,Fri Feb 07 2025 16:19:00 GMT-0600 (Central Standard Time),592824.400000006,A,flow,O,w,105,1,2099.3000000044703,590725.1000000015,7040,WL,A,8.0
5,11.694999933242798,learn,60000.0,Fri Feb 07 2025 16:19:00 GMT-0600 (Central Standard Time),592941.0,A,flowe,O,e,99,1,2215.89999999851,590725.1000000015,7040,WL,A,8.0
5,11.777999877929688,learn,60000.0,Fri Feb 07 2025 16:19:00 GMT-0600 (Central Standard Time),593024.200000003,A,flower,O,r,70,1,2299.10000000149,590725.1000000015,7040,WL,A,8.0
5,12.160999774932861,learn,60000.0,Fri Feb 07 2025 16:19:00 GMT-0600 (Central Standard Time),593407.6000000015,A,flowerenter,O,enter,371,1,2682.5,590725.1000000015,7040,WL,A,8.0
5,13.527999877929688,learn,60000.0,Fri Feb 07 2025 16:19:00 GMT-0600 (Central Standard Time),594773.8000000045,A,r,O,r,1348,1,1365.8999999985099,593407.900000006,7040,WL,A,9.0
5,13.860999822616577,learn,60000.0,Fri Feb 07 2025 16:19:00 GMT-0600 (Central Standard Time),595107.200000003,A,,O,backspace,326,1,1699.2999999970198,593407.900000006,7040,WL,A,9.0
5,13.910999774932861,learn,60000.0,Fri Feb 07 2025 16:19:00 GMT-0600 (Central Standard Time),595156.8000000045,A,t,O,t,41,1,1748.8999999985099,593407.900000006,7040,WL,A,9.0
5,14.126999855041504,learn,60000.0,Fri Feb 07 2025 16:19:00 GMT-0600 (Central Standard Time),595373.6000000015,A,tr,O,r,207,1,1965.6999999955297,593407.900000006,7040,WL,A,9.0
5,14.226999998092651,learn,60000.0,Fri Feb 07 2025 16:19:00 GMT-0600 (Central Standard Time),595473.6000000015,A,tra,O,a,77,1,2065.6999999955297,593407.900000006,7040,WL,A,9.0
5,14.293999910354614,learn,60000.0,Fri Feb 07 2025 16:19:00 GMT-0600 (Central Standard Time),595540.0,A,trai,O,i,58,1,2132.0999999940395,593407.900000006,7040,WL,A,9.0
5,14.526999950408936,learn,60000.0,Fri Feb 07 2025 16:19:00 GMT-0600 (Central Standard Time),595773.400000006,A,train,O,n,224,1,2365.5,593407.900000006,7040,WL,A,9.0
5,14.775999784469604,learn,60000.0,Fri Feb 07 2025 16:19:00 GMT-0600 (Central Standard Time),596023.3000000045,A,trainenter,O,enter,231,1,2615.39999999851,593407.900000006,7040,WL,A,9.0
5,14.97599983215332,learn,60000.0,Fri Feb 07 2025 16:19:00 GMT-0600 (Central Standard Time),596223.200000003,A,r,O,r,189,1,199.60000000149012,596023.6000000015,7040,WL,A,10.0
5,15.075999975204468,learn,60000.0,Fri Feb 07 2025 16:19:00 GMT-0600 (Central Standard Time),596323.0,A,ru,O,u,92,1,299.3999999985099,596023.6000000015,7040,WL,A,10.0
5,15.258999824523926,learn,60000.0,Fri Feb 07 2025 16:19:00 GMT-0600 (Central Standard Time),596506.400000006,A,rug,O,g,161,1,482.80000000447035,596023.6000000015,7040,WL,A,10.0
5,15.641999959945679,learn,60000.0,Fri Feb 07 2025 16:19:00 GMT-0600 (Central Standard Time),596890.0,A,rugenter,O,enter,370,1,866.3999999985099,596023.6000000015,7040,WL,A,10.0
5,16.109999895095825,learn,60000.0,Fri Feb 07 2025 16:19:00 GMT-0600 (Central Standard Time),597357.3000000045,A,r,O,r,458,1,467.1000000014901,596890.200000003,7040,WL,A,11.0
5,16.29199981689453,learn,60000.0,Fri Feb 07 2025 16:19:00 GMT-0600 (Central Standard Time),597539.6000000015,A,ra,O,a,159,1,649.3999999985099,596890.200000003,7040,WL,A,11.0
5,16.341999769210815,learn,60000.0,Fri Feb 07 2025 16:19:00 GMT-0600 (Central Standard Time),597589.400000006,A,rat,O,t,40,1,699.2000000029802,596890.200000003,7040,WL,A,11.0
5,16.54199981689453,learn,60000.0,Fri Feb 07 2025 16:19:00 GMT-0600 (Central Standard Time),597789.400000006,A,ratt,O,t,190,1,899.2000000029802,596890.200000003,7040,WL,A,11.0
5,16.658999919891357,learn,60000.0,Fri Feb 07 2025 16:19:00 GMT-0600 (Central Standard Time),597906.1000000015,A,rattl,O,l,93,1,1015.8999999985099,596890.200000003,7040,WL,A,11.0
5,16.758999824523926,learn,60000.0,Fri Feb 07 2025 16:19:00 GMT-0600 (Central Standard Time),598006.0,A,rattle,O,e,89,1,1115.7999999970198,596890.200000003,7040,WL,A,11.0
5,16.875,learn,60000.0,Fri Feb 07 2025 16:19:00 GMT-0600 (Central Standard Time),598122.700000003,A,rattleenter,O,enter,102,1,1232.5,596890.200000003,7040,WL,A,11.0
5,19.157999992370605,learn,60000.0,Fri Feb 07 2025 16:19:00 GMT-0600 (Central Standard Time),600405.1000000015,A,g,O,g,2265,1,2282.10000000149,598123.0,7040,WL,A,12.0
5,19.257999897003174,learn,60000.0,Fri Feb 07 2025 16:19:00 GMT-0600 (Central Standard Time),600505.3000000045,A,go,O,o,79,1,2382.3000000044703,598123.0,7040,WL,A,12.0
5,19.44099998474121,learn,60000.0,Fri Feb 07 2025 16:19:00 GMT-0600 (Central Standard Time),600688.700000003,A,gol,O,l,163,1,2565.7000000029802,598123.0,7040,WL,A,12.0
5,19.62399983406067,learn,60000.0,Fri Feb 07 2025 16:19:00 GMT-0600 (Central Standard Time),600871.8000000045,A,gold,O,d,172,1,2748.8000000044703,598123.0,7040,WL,A,12.0
5,19.907999992370605,learn,60000.0,Fri Feb 07 2025 16:19:00 GMT-0600 (Central Standard Time),601155.1000000015,A,goldenter,O,enter,260,1,3032.10000000149,598123.0,7040,WL,A,12.0
5,20.95699977874756,learn,60000.0,Fri Feb 07 2025 16:19:00 GMT-0600 (Central Standard Time),602204.700000003,A,s,O,s,1033,1,1049.2999999970198,601155.400000006,7040,WL,A,13.0
5,21.073999881744385,learn,60000.0,Fri Feb 07 2025 16:19:00 GMT-0600 (Central Standard Time),602321.5,A,sa,O,a,104,1,1166.0999999940395,601155.400000006,7040,WL,A,13.0
5,21.20699977874756,learn,60000.0,Fri Feb 07 2025 16:19:00 GMT-0600 (Central Standard Time),602454.8000000045,A,sal,O,l,122,1,1299.3999999985099,601155.400000006,7040,WL,A,13.0
5,21.389999866485596,learn,60000.0,Fri Feb 07 2025 16:19:00 GMT-0600 (Central Standard Time),602637.900000006,A,salt,O,t,165,1,1482.5,601155.400000006,7040,WL,A,13.0
5,21.54099988937378,learn,60000.0,Fri Feb 07 2025 16:19:00 GMT-0600 (Central Standard Time),602788.1000000015,A,saltenter,O,enter,134,1,1632.6999999955297,601155.400000006,7040,WL,A,13.0
5,24.239999771118164,learn,60000.0,Fri Feb 07 2025 16:19:00 GMT-0600 (Central Standard Time),605487.0,A,m,O,m,2688,1,2698.5999999940395,602788.400000006,7040,WL,A,14.0
5,24.33999991416931,learn,60000.0,Fri Feb 07 2025 16:19:00 GMT-0600 (Central Standard Time),605586.900000006,A,me,O,e,76,1,2798.5,602788.400000006,7040,WL,A,14.0
5,24.4229998588562,learn,60000.0,Fri Feb 07 2025 16:19:00 GMT-0600 (Central Standard Time),605670.400000006,A,mea,O,a,65,1,2882.0,602788.400000006,7040,WL,A,14.0
5,24.62399983406067,learn,60000.0,Fri Feb 07 2025 16:19:00 GMT-0600 (Central Standard Time),605871.400000006,A,mead,O,d,181,1,3083.0,602788.400000006,7040,WL,A,14.0
5,24.6729998588562,learn,60000.0,Fri Feb 07 2025 16:19:00 GMT-0600 (Central Standard Time),605920.3000000045,A,meado,O,o,36,1,3131.89999999851,602788.400000006,7040,WL,A,14.0
5,24.822999954223633,learn,60000.0,Fri Feb 07 2025 16:19:00 GMT-0600 (Central Standard Time),606070.200000003,A,meadow,O,w,132,1,3281.7999999970198,602788.400000006,7040,WL,A,14.0
5,24.9229998588562,learn,60000.0,Fri Feb 07 2025 16:19:00 GMT-0600 (Central Standard Time),606170.0,A,meadowenter,O,enter,85,1,3381.5999999940395,602788.400000006,7040,WL,A,14.0
5,28.287999868392944,learn,60000.0,Fri Feb 07 2025 16:19:00 GMT-0600 (Central Standard Time),609535.8000000045,A,enter,O,enter,3354,1,3365.60000000149,606170.200000003,7040,WL,A,15.0
6,0.6830000877380371,distr,59316.99991226196,Fri Feb 07 2025 16:19:00 GMT-0600 (Central Standard Time),693243.0,B,c,O,c,661,1,682.7999999970198,692560.200000003,7040,WL,A,1.0
6,0.8329999446868896,distr,59167.00005531311,Fri Feb 07 2025 16:19:00 GMT-0600 (Central Standard Time),693392.900000006,B,co,O,o,136,1,832.7000000029802,692560.200000003,7040,WL,A,1.0
6,0.9830000400543213,distr,59016.99995994568,Fri Feb 07 2025 16:19:00 GMT-0600 (Central Standard Time),693542.8000000045,B,coa,O,a,139,1,982.6000000014901,692560.200000003,7040,WL,A,1.0
6,1.1329998970031738,distr,58867.000102996826,Fri Feb 07 2025 16:19:00 GMT-0600 (Central Standard Time),693692.8000000045,B,coat,O,t,133,1,1132.6000000014901,692560.200000003,7040,WL,A,1.0
6,1.2990000247955322,distr,58700.99997520447,Fri Feb 07 2025 16:19:00 GMT-0600 (Central Standard Time),693859.200000003,B,coatenter,O,enter,159,1,1299.0,692560.200000003,7040,WL,A,1.0
6,1.6500000953674316,distr,58349.99990463257,Fri Feb 07 2025 16:19:00 GMT-0600 (Central Standard Time),694209.3000000045,B,b,O,b,337,1,349.80000000447035,693859.5,7040,WL,A,2.0
6,1.7000000476837158,distr,58299.999952316284,Fri Feb 07 2025 16:19:00 GMT-0600 (Central Standard Time),694259.5,B,bo,O,o,43,1,400.0,693859.5,7040,WL,A,2.0
6,1.8659999370574951,distr,58134.000062942505,Fri Feb 07 2025 16:19:00 GMT-0600 (Central Standard Time),694425.900000006,B,bot,O,t,153,1,566.4000000059605,693859.5,7040,WL,A,2.0
6,1.999000072479248,distr,58000.99992752075,Fri Feb 07 2025 16:19:00 GMT-0600 (Central Standard Time),694559.1000000015,B,bott,O,t,114,1,699.6000000014901,693859.5,7040,WL,A,2.0
6,2.0989999771118164,distr,57901.00002288818,Fri Feb 07 2025 16:19:00 GMT-0600 (Central Standard Time),694659.1000000015,B,bottl,O,l,85,1,799.6000000014901,693859.5,7040,WL,A,2.0
6,2.249000072479248,distr,57750.99992752075,Fri Feb 07 2025 16:19:00 GMT-0600 (Central Standard Time),694809.3000000045,B,bottle,O,e,128,1,949.8000000044703,693859.5,7040,WL,A,2.0
6,2.382999897003174,distr,57617.000102996826,Fri Feb 07 2025 16:19:00 GMT-0600 (Central Standard Time),694942.3000000045,B,bottleenter,O,enter,122,1,1082.8000000044703,693859.5,7040,WL,A,2.0
6,2.6660001277923584,distr,57333.99987220764,Fri Feb 07 2025 16:19:00 GMT-0600 (Central Standard Time),695225.900000006,B,p,O,p,262,1,283.1000000014901,694942.8000000045,7040,WL,A,3.0
6,2.7660000324249268,distr,57233.99996757507,Fri Feb 07 2025 16:19:00 GMT-0600 (Central Standard Time),695325.5,B,pe,O,e,82,1,382.69999999552965,694942.8000000045,7040,WL,A,3.0
6,2.8489999771118164,distr,57151.00002288818,Fri Feb 07 2025 16:19:00 GMT-0600 (Central Standard Time),695409.1000000015,B,pea,O,a,62,1,466.29999999701977,694942.8000000045,7040,WL,A,3.0
6,3.0490000247955322,distr,56950.99997520447,Fri Feb 07 2025 16:19:00 GMT-0600 (Central Standard Time),695608.900000006,B,peac,O,c,179,1,666.1000000014901,694942.8000000045,7040,WL,A,3.0
6,3.131999969482422,distr,56868.00003051758,Fri Feb 07 2025 16:19:00 GMT-0600 (Central Standard Time),695692.1000000015,B,peach,O,h,75,1,749.2999999970198,694942.8000000045,7040,WL,A,3.0
6,3.699000120162964,distr,56300.999879837036,Fri Feb 07 2025 16:19:00 GMT-0600 (Central Standard Time),696258.6000000015,B,peachenter,O,enter,543,1,1315.7999999970198,694942.8000000045,7040,WL,A,3.0
6,4.098999977111816,distr,55901.00002288818,Fri Feb 07 2025 16:19:00 GMT-0600 (Central Standard Time),696658.6000000015,B,c,O,c,377,1,399.69999999552965,696258.900000006,7040,WL,A,4.0
6,4.199000120162964,distr,55800.999879837036,Fri Feb 07 2025 16:19:00 GMT-0600 (Central Standard Time),696758.5,B,ch,O,h,89,1,499.59999999403954,696258.900000006,7040,WL,A,4.0
6,4.315000057220459,distr,55684.99994277954,Fri Feb 07 2025 16:19:00 GMT-0600 (Central Standard Time),696875.0,B,cha,O,a,93,1,616.0999999940395,696258.900000006,7040,WL,A,4.0
6,4.431999921798706,distr,55568.000078201294,Fri Feb 07 2025 16:19:00 GMT-0600 (Central Standard Time),696991.900000006,B,chai,O,i,97,1,733.0,696258.900000006,7040,WL,A,4.0
6,4.54800009727478,distr,55451.99990272522,Fri Feb 07 2025 16:19:00 GMT-0600 (Central Standard Time),697108.200000003,B,chair,O,r,108,1,849.2999999970198,696258.900000006,7040,WL,A,4.0
6,4.865000009536743,distr,55134.99999046326,Fri Feb 07 2025 16:19:00 GMT-0600 (Central Standard Time),697424.8000000045,B,chairenter,O,enter,303,1,1165.8999999985099,696258.900000006,7040,WL,A,4.0
6,13.76200008392334,distr,46237.99991607666,Fri Feb 07 2025 16:19:00 GMT-0600 (Central Standard Time),706322.1000000015,B,s,O,s,8882,1,8897.0,697425.1000000015,7040,WL,A,5.0
6,14.078999996185303,distr,45921.0000038147,Fri Feb 07 2025 16:19:00 GMT-0600 (Central Standard Time),706638.8000000045,B,sh,O,h,297,1,9213.70000000298,697425.1000000015,7040,WL,A,5.0
6,14.245000123977661,distr,45754.99987602234,Fri Feb 07 2025 16:19:00 GMT-0600 (Central Standard Time),706805.200000003,B,she,O,e,149,1,9380.10000000149,697425.1000000015,7040,WL,A,5.0
6,14.361999988555908,distr,45638.00001144409,Fri Feb 07 2025 16:19:00 GMT-0600 (Central Standard Time),706921.8000000045,B,shee,O,e,94,1,9496.70000000298,697425.1000000015,7040,WL,A,5.0
6,14.611999988555908,distr,45388.00001144409,Fri Feb 07 2025 16:19:00 GMT-0600 (Central Standard Time),707171.700000003,B,sheep,O,p,242,1,9746.60000000149,697425.1000000015,7040,WL,A,5.0
6,14.812000036239624,distr,45187.999963760376,Fri Feb 07 2025 16:19:00 GMT-0600 (Central Standard Time),707371.6000000015,B,sheepenter,O,enter,192,1,9946.5,697425.1000000015,7040,WL,A,5.0
6,40.335999965667725,distr,19664.000034332275,Fri Feb 07 2025 16:19:00 GMT-0600 (Central Standard Time),732897.200000003,B,c,O,c,25512,1,25525.39999999851,707371.8000000045,7040,WL,A,6.0
6,40.45300006866455,distr,19546.99993133545,Fri Feb 07 2025 16:19:00 GMT-0600 (Central Standard Time),733013.8000000045,B,co,O,o,106,1,25642.0,707371.8000000045,7040,WL,A,6.0
6,40.736000061035156,distr,19263.999938964844,Fri Feb 07 2025 16:19:00 GMT-0600 (Central Standard Time),733296.8000000045,B,con,O,n,270,1,25925.0,707371.8000000045,7040,WL,A,6.0
6,41.168999910354614,distr,18831.000089645386,Fri Feb 07 2025 16:19:00 GMT-0600 (Central Standard Time),733730.5,B,co,O,backspace,410,1,26358.69999999553,707371.8000000045,7040,WL,A,6.0
6,41.38599991798401,distr,18614.00008201599,Fri Feb 07 2025 16:19:00 GMT-0600 (Central Standard Time),733946.900000006,B,cou,O,u,210,1,26575.10000000149,707371.8000000045,7040,WL,A,6.0
6,41.60199999809265,distr,18398.00000190735,Fri Feb 07 2025 16:19:00 GMT-0600 (Central Standard Time),734163.3000000045,B,coun,O,n,193,1,26791.5,707371.8000000045,7040,WL,A,6.0
6,41.68600010871887,distr,18313.999891281128,Fri Feb 07 2025 16:19:00 GMT-0600 (Central Standard Time),734246.8000000045,B,count,O,t,64,1,26875.0,707371.8000000045,7040,WL,A,6.0
6,42.00200009346008,distr,17997.999906539917,Fri Feb 07 2025 16:19:00 GMT-0600 (Central Standard Time),734563.3000000045,B,countenter,O,enter,293,1,27191.5,707371.8000000045,7040,WL,A,6.0
6,43.95199990272522,distr,16048.00009727478,Fri Feb 07 2025 16:19:00 GMT-0600 (Central Standard Time),736512.700000003,B,enter,O,enter,1937,1,1949.1000000014901,734563.6000000015,7040,WL,A,7.0
6,44.26800012588501,distr,15731.99987411499,Fri Feb 07 2025 16:19:00 GMT-0600 (Central Standard Time),736829.3000000045,B,enter,O,enter,308,1,316.1000000014901,736513.200000003,7040,WL,A,8.0
6,44.58500003814697,distr,15414.999961853027,Fri Feb 07 2025 16:19:00 GMT-0600 (Central Standard Time),737145.900000006,B,enter,O,enter,294,1,316.30000000447035,736829.6000000015,7040,WL,A,9.0
6,44.901000022888184,distr,15098.999977111816,Fri Feb 07 2025 16:19:00 GMT-0600 (Central Standard Time),737462.400000006,B,enter,O,enter,306,1,316.20000000298023,737146.200000003,7040,WL,A,10.0
6,45.3510000705719,distr,14648.9999294281,Fri Feb 07 2025 16:19:00 GMT-0600 (Central Standard Time),737912.400000006,B,enter,O,enter,430,1,449.6000000014901,737462.8000000045,7040,WL,A,11.0
6,46.08400011062622,distr,13915.99988937378,Fri Feb 07 2025 16:19:00 GMT-0600 (Central Standard Time),738645.3000000045,B,enter,O,enter,723,1,732.5,737912.8000000045,7040,WL,A,12.0
6,46.50099992752075,distr,13499.000072479248,Fri Feb 07 2025 16:19:00 GMT-0600 (Central Standard Time),739062.0,B,enter,O,enter,399,1,416.19999999552965,738645.8000000045,7040,WL,A,13.0
6,46.801000118255615,distr,13198.999881744385,Fri Feb 07 2025 16:19:00 GMT-0600 (Central Standard Time),739362.0,B,enter,O,enter,286,1,299.69999999552965,739062.3000000045,7040,WL,A,14.0
6,47.16700005531311,distr,12832.99994468689,Fri Feb 07 2025 16:19:00 GMT-0600 (Central Standard Time),739728.400000006,B,enter,O,enter,346,1,366.0,739362.400000006,7040,WL,A,15.0
7,0.38299989700317383,immed,59617.000102996826,Fri Feb 07 2025 16:19:00 GMT-0600 (Central Standard Time),765937.0,A,b,O,b,371,1,382.8999999985099,765554.1000000015,7040,WL,A,1.0
7,0.5659999847412109,immed,59434.00001525879,Fri Feb 07 2025 16:19:00 GMT-0600 (Central Standard Time),766120.1000000015,A,bo,O,o,170,1,566.0,765554.1000000015,7040,WL,A,1.0
7,0.7330000400543213,immed,59266.99995994568,Fri Feb 07 2025 16:19:00 GMT-0600 (Central Standard Time),766286.8000000045,A,boo,O,o,147,1,732.7000000029802,765554.1000000015,7040,WL,A,1.0
7,0.9159998893737793,immed,59084.00011062622,Fri Feb 07 2025 16:19:00 GMT-0600 (Central Standard Time),766470.0,A,book,O,k,165,1,915.8999999985099,765554.1000000015,7040,WL,A,1.0
7,1.1489999294281006,immed,58851.0000705719,Fri Feb 07 2025 16:19:00 GMT-0600 (Central Standard Time),766703.200000003,A,bookenter,O,enter,214,1,1149.1000000014901,765554.1000000015,7040,WL,A,1.0
7,1.3489999771118164,immed,58651.00002288818,Fri Feb 07 2025 16:19:00 GMT-0600 (Central Standard Time),766903.200000003,A,f,O,f,189,1,199.60000000149012,766703.6000000015,7040,WL,A,2.0
7,1.4159998893737793,immed,58584.00011062622,Fri Feb 07 2025 16:19:00 GMT-0600 (Central Standard Time),766969.900000006,A,fl,O,l,53,1,266.30000000447035,766703.6000000015,7040,WL,A,2.0
7,1.6319999694824219,immed,58368.00003051758,Fri Feb 07 2025 16:19:00 GMT-0600 (Central Standard Time),767186.6000000015,A,flo,O,o,194,1,483.0,766703.6000000015,7040,WL,A,2.0
7,1.7160000801086426,immed,58283.99991989136,Fri Feb 07 2025 16:19:00 GMT-0600 (Central Standard Time),767269.700000003,A,flow,O,w,65,1,566.1000000014901,766703.6000000015,7040,WL,A,2.0
7,1.8989999294281006,immed,58101.0000705719,Fri Feb 07 2025 16:19:00 GMT-0600 (Central Standard Time),767453.1000000015,A,flowe,O,e,166,1,749.5,766703.6000000015,7040,WL,A,2.0
7,1.999000072479248,immed,58000.99992752075,Fri Feb 07 2025 16:19:00 GMT-0600 (Central Standard Time),767553.0,A,flower,O,r,79,1,849.3999999985099,766703.6000000015,7040,WL,A,2.0
7,2.381999969482422,immed,57618.00003051758,Fri Feb 07 2025 16:19:00 GMT-0600 (Central Standard Time),767936.400000006,A,flowerenter,O,enter,371,1,1232.8000000044703,766703.6000000015,7040,WL,A,2.0
7,3.2319998741149902,immed,56768.00012588501,Fri Feb 07 2025 16:19:00 GMT-0600 (Central Standard Time),768785.900000006,A,t,O,t,835,1,849.2000000029802,767936.700000003,7040,WL,A,3.0
7,3.747999906539917,immed,56252.00009346008,Fri Feb 07 2025 16:19:00 GMT-0600 (Central Standard Time),769302.6000000015,A,,O,backspace,506,1,1365.8999999985099,767936.700000003,7040,WL,A,3.0
7,4.38100004196167,immed,55618.99995803833,Fri Feb 07 2025 16:19:00 GMT-0600 (Central Standard Time),769935.6000000015,A,r,O,r,621,1,1998.8999999985099,767936.700000003,7040,WL,A,3.0
7,4.914999961853027,immed,55085.00003814697,Fri Feb 07 2025 16:19:00 GMT-0600 (Central Standard Time),770468.700000003,A,ru,O,u,524,1,2532.0,767936.700000003,7040,WL,A,3.0
7,5.197999954223633,immed,54802.00004577637,Fri Feb 07 2025 16:19:00 GMT-0600 (Central Standard Time),770752.0,A,rug,O,g,263,1,2815.2999999970198,767936.700000003,7040,WL,A,3.0
7,5.331000089645386,immed,54668.999910354614,Fri Feb 07 2025 16:19:00 GMT-0600 (Central Standard Time),770885.3000000045,A,rugenter,O,enter,123,1,2948.60000000149,767936.700000003,7040,WL,A,3.0
7,5.4649999141693115,immed,54535.00008583069,Fri Feb 07 2025 16:19:00 GMT-0600 (Central Standard Time),771018.700000003,A,t,O,t,118,1,133.0,770885.700000003,7040,WL,A,4.0
7,5.680999994277954,immed,54319.000005722046,Fri Feb 07 2025 16:19:00 GMT-0600 (Central Standard Time),771235.3000000045,A,tr,O,r,193,1,349.6000000014901,770885.700000003,7040,WL,A,4.0
7,5.79800009727478,immed,54201.99990272522,Fri Feb 07 2025 16:19:00 GMT-0600 (Central Standard Time),771351.900000006,A,tra,O,a,97,1,466.20000000298023,770885.700000003,7040,WL,A,4.0
7,5.813999891281128,immed,54186.00010871887,Fri Feb 07 2025 16:19:00 GMT-0600 (Central Standard Time),771368.3000000045,A,trai,O,i,1,1,482.6000000014901,770885.700000003,7040,WL,A,4.0
7,6.114000082015991,immed,53885.99991798401,Fri Feb 07 2025 16:19:00 GMT-0600 (Central Standard Time),771668.3000000045,A,train,O,n,293,1,782.6000000014901,770885.700000003,7040,WL,A,4.0
7,6.813999891281128,immed,53186.00010871887,Fri Feb 07 2025 16:19:00 GMT-0600 (Central Standard Time),772368.400000006,A,trainenter,O,enter,680,1,1482.7000000029802,770885.700000003,7040,WL,A,4.0
7,7.246999979019165,immed,52753.000020980835,Fri Feb 07 2025 16:19:00 GMT-0600 (Central Standard Time),772801.3000000045,A,k,O,k,420,1,432.6000000014901,772368.700000003,7040,WL,A,5.0
7,7.331000089645386,immed,52668.999910354614,Fri Feb 07 2025 16:19:00 GMT-0600 (Central Standard Time),772884.900000006,A,ke,O,e,67,1,516.2000000029802,772368.700000003,7040,WL,A,5.0
7,7.480999946594238,immed,52519.00005340576,Fri Feb 07 2025 16:19:00 GMT-0600 (Central Standard Time),773034.700000003,A,key,O,y,135,1,666.0,772368.700000003,7040,WL,A,5.0
7,7.730000019073486,immed,52269.999980926514,Fri Feb 07 2025 16:19:00 GMT-0600 (Central Standard Time),773284.400000006,A,keyenter,O,enter,241,1,915.7000000029802,772368.700000003,7040,WL,A,5.0
7,9.513999938964844,immed,50486.000061035156,Fri Feb 07 2025 16:19:00 GMT-0600 (Central Standard Time),775067.8000000045,A,g,O,g,1759,1,1783.2000000029802,773284.6000000015,7040,WL,A,6.0
7,9.562999963760376,immed,50437.000036239624,Fri Feb 07 2025 16:19:00 GMT-0600 (Central Standard Time),775117.5,A,go,O,o,32,1,1832.8999999985099,773284.6000000015,7040,WL,A,6.0
7,9.763000011444092,immed,50236.99998855591,Fri Feb 07 2025 16:19:00 GMT-0600 (Central Standard Time),775317.3000000045,A,gol,O,l,182,1,2032.7000000029802,773284.6000000015,7040,WL,A,6.0
7,9.912999868392944,immed,50087.000131607056,Fri Feb 07 2025 16:19:00 GMT-0600 (Central Standard Time),775467.5,A,gold,O,d,126,1,2182.89999999851,773284.6000000015,7040,WL,A,6.0
7,10.145999908447266,immed,49854.000091552734,Fri Feb 07 2025 16:19:00 GMT-0600 (Central Standard Time),775700.400000006,A,goldenter,O,enter,216,1,2415.8000000044703,773284.6000000015,7040,WL,A,6.0
7,10.59500002861023,immed,49404.99997138977,Fri Feb 07 2025 16:19:00 GMT-0600 (Central Standard Time),776150.400000006,A,s,O,s,440,1,449.80000000447035,775700.6000000015,7040,WL,A,7.0
7,10.744999885559082,immed,49255.00011444092,Fri Feb 07 2025 16:19:00 GMT-0600 (Central Standard Time),776300.1000000015,A,sa,O,a,133,1,599.5,775700.6000000015,7040,WL,A,7.0
7,10.84500002861023,immed,49154.99997138977,Fri Feb 07 2025 16:19:00 GMT-0600 (Central Standard Time),776400.3000000045,A,sal,O,l,80,1,699.7000000029802,775700.6000000015,7040,WL,A,7.0
7,11.045000076293945,immed,48954.999923706055,Fri Feb 07 2025 16:19:00 GMT-0600 (Central Standard Time),776600.1000000015,A,salt,O,t,179,1,899.5,775700.6000000015,7040,WL,A,7.0
7,11.211999893188477,immed,48788.00010681152,Fri Feb 07 2025 16:19:00 GMT-0600 (Central Standard Time),776766.8000000045,A,saltenter,O,enter,156,1,1066.2000000029802,775700.6000000015,7040,WL,A,7.0
7,11.57800006866455,immed,48421.99993133545,Fri Feb 07 2025 16:19:00 GMT-0600 (Central Standard Time),777133.3000000045,A,h,O,h,349,1,366.20000000298023,776767.1000000015,7040,WL,A,8.0
7,11.694999933242798,immed,48305.0000667572,Fri Feb 07 2025 16:19:00 GMT-0600 (Central Standard Time),777250.0,A,ha,O,a,94,1,482.8999999985099,776767.1000000015,7040,WL,A,8.0
7,11.777999877929688,immed,48222.00012207031,Fri Feb 07 2025 16:19:00 GMT-0600 (Central Standard Time),777333.3000000045,A,har,O,r,66,1,566.2000000029802,776767.1000000015,7040,WL,A,8.0
7,11.944999933242798,immed,48055.0000667572,Fri Feb 07 2025 16:19:00 GMT-0600 (Central Standard Time),777499.8000000045,A,hart,O,t,158,1,732.7000000029802,776767.1000000015,7040,WL,A,8.0
7,12.310999870300293,immed,47689.00012969971,Fri Feb 07 2025 16:19:00 GMT-0600 (Central Standard Time),777866.5,A,har,O,backspace,344,1,1099.3999999985099,776767.1000000015,7040,WL,A,8.0
7,12.545000076293945,immed,47454.999923706055,Fri Feb 07 2025 16:19:00 GMT-0600 (Central Standard Time),778099.900000006,A,harp,O,p,217,1,1332.8000000044703,776767.1000000015,7040,WL,A,8.0
7,13.111000061035156,immed,46888.999938964844,Fri Feb 07 2025 16:19:00 GMT-0600 (Central Standard Time),778666.200000003,A,harpenter,O,enter,544,1,1899.1000000014901,776767.1000000015,7040,WL,A,8.0
7,15.611000061035156,immed,44388.999938964844,Fri Feb 07 2025 16:19:00 GMT-0600 (Central Standard Time),781166.6000000015,A,t,O,t,2482,1,2500.10000000149,778666.5,7040,WL,A,9.0
7,15.793999910354614,immed,44206.000089645386,Fri Feb 07 2025 16:19:00 GMT-0600 (Central Standard Time),781348.8000000045,A,tr,O,r,165,1,2682.3000000044703,778666.5,7040,WL,A,9.0
7,15.877000093460083,immed,44122.99990653992,Fri Feb 07 2025 16:19:00 GMT-0600 (Central Standard Time),781432.200000003,A,tra,O,a,64,1,2765.7000000029802,778666.5,7040,WL,A,9.0
7,15.960000038146973,immed,44039.99996185303,Fri Feb 07 2025 16:19:00 GMT-0600 (Central Standard Time),781515.200000003,A,trai,O,i,60,1,2848.7000000029802,778666.5,7040,WL,A,9.0
7,16.07699990272522,immed,43923.00009727478,Fri Feb 07 2025 16:19:00 GMT-0600 (Central Standard Time),781632.1000000015,A,train,O,n,97,1,2965.60000000149,778666.5,7040,WL,A,9.0
7,16.32699990272522,immed,43673.00009727478,Fri Feb 07 2025 16:19:00 GMT-0600 (Central Standard Time),781881.900000006,A,trainenter,O,enter,228,1,3215.4000000059605,778666.5,7040,WL,A,9.0
7,19.992000102996826,immed,40007.999897003174,Fri Feb 07 2025 16:19:00 GMT-0600 (Central Standard Time),785547.3000000045,A,r,O,r,3658,1,3665.0,781882.3000000045,7040,WL,A,10.0
7,20.191999912261963,immed,39808.00008773804,Fri Feb 07 2025 16:19:00 GMT-0600 (Central Standard Time),785747.200000003,A,ra,O,a,185,1,3864.89999999851,781882.3000000045,7040,WL,A,10.0
7,20.27500009536743,immed,39724.99990463257,Fri Feb 07 2025 16:19:00 GMT-0600 (Central Standard Time),785830.700000003,A,rat,O,t,65,1,3948.39999999851,781882.3000000045,7040,WL,A,10.0
7,20.45899987220764,immed,39541.00012779236,Fri Feb 07 2025 16:19:00 GMT-0600 (Central Standard Time),786014.0,A,ratt,O,t,165,1,4131.69999999553,781882.3000000045,7040,WL,A,10.0
7,20.54200005531311,immed,39457.99994468689,Fri Feb 07 2025 16:19:00 GMT-0600 (Central Standard Time),786097.1000000015,A,rattl,O,l,62,1,4214.79999999702,781882.3000000045,7040,WL,A,10.0
7,20.658999919891357,immed,39341.00008010864,Fri Feb 07 2025 16:19:00 GMT-0600 (Central Standard Time),786214.0,A,rattle,O,e,106,1,4331.69999999553,781882.3000000045,7040,WL,A,10.0
7,20.759000062942505,immed,39240.999937057495,Fri Feb 07 2025 16:19:00 GMT-0600 (Central Standard Time),786313.900000006,A,rattleenter,O,enter,78,1,4431.60000000149,781882.3000000045,7040,WL,A,10.0
7,22.990999937057495,immed,37009.000062942505,Fri Feb 07 2025 16:19:00 GMT-0600 (Central Standard Time),788546.400000006,A,h,O,h,2210,1,2232.3000000044703,786314.1000000015,7040,WL,A,11.0
7,23.058000087738037,immed,36941.99991226196,Fri Feb 07 2025 16:19:00 GMT-0600 (Central Standard Time),788613.1000000015,A,ha,O,a,57,1,2299.0,786314.1000000015,7040,WL,A,11.0
7,23.174999952316284,immed,36825.000047683716,Fri Feb 07 2025 16:19:00 GMT-0600 (Central Standard Time),788729.900000006,A,har,O,r,102,1,2415.8000000044703,786314.1000000015,7040,WL,A,11.0
7,23.325000047683716,immed,36674.999952316284,Fri Feb 07 2025 16:19:00 GMT-0600 (Central Standard Time),788879.8000000045,A,harp,O,p,138,1,2565.7000000029802,786314.1000000015,7040,WL,A,11.0
7,23.558000087738037,immed,36441.99991226196,Fri Feb 07 2025 16:19:00 GMT-0600 (Central Standard Time),789113.200000003,A,harpenter,O,enter,212,1,2799.10000000149,786314.1000000015,7040,WL,A,11.0
7,42.05200004577637,immed,17947.999954223633,Fri Feb 07 2025 16:19:00 GMT-0600 (Central Standard Time),807607.1000000015,A,enter,O,enter,18483,1,18493.39999999851,789113.700000003,7040,WL,A,12.0
7,42.43499994277954,immed,17565.00005722046,Fri Feb 07 2025 16:19:00 GMT-0600 (Central Standard Time),807990.3000000045,A,enter,O,enter,373,1,382.80000000447035,807607.5,7040,WL,A,13.0
7,42.76799988746643,immed,17232.00011253357,Fri Feb 07 2025 16:19:00 GMT-0600 (Central Standard Time),808323.700000003,A,enter,O,enter,318,1,333.1000000014901,807990.6000000015,7040,WL,A,14.0
7,43.18499994277954,immed,16815.00005722046,Fri Feb 07 2025 16:19:00 GMT-0600 (Central Standard Time),808740.0,A,enter,O,enter,401,1,416.0,808324.0,7040,WL,A,15.0
