acc_sum,block,block_c,change,condition,correct,correct_response,datetime,endtime,face,project,response,response_time,row_sel,session_number,start_end,starttime,subject_id,task,task_vers,trial
0,prac,1,,1-Back,,,Tue Sep 24 2024 17:01:41 GMT-0500 (Central Daylight Time),,012_o_f_d_a.png,O,space,14536,1,1,,,7019,VNB,C,0
1,prac,1,0.0,1-Back,1,m,Tue Sep 24 2024 17:01:41 GMT-0500 (Central Daylight Time),145963.39999997616,022_y_f_n_a.png,O,m,681,2,1,1575.0,144388.39999997616,7019,VNB,C,1
2,prac,1,0.0,1-Back,1,m,Tue Sep 24 2024 17:01:41 GMT-0500 (Central Daylight Time),148012.89999997616,014_m_m_h_a.png,O,m,1167,3,1,2043.300000011921,145969.59999996424,7019,VNB,C,2
2,prac,1,0.0,1-Back,0,m,Tue Sep 24 2024 17:01:41 GMT-0500 (Central Daylight Time),149745.59999996424,025_y_m_d_a.png,O,z,860,4,1,1726.8999999761581,148018.69999998808,7019,VNB,C,3
2,prac,1,0.0,1-Back,0,m,Tue Sep 24 2024 17:01:41 GMT-0500 (Central Daylight Time),151661.59999996424,012_o_f_n_a.png,O,z,1027,5,1,1910.3999999761581,149751.19999998808,7019,VNB,C,4
2,prac,1,1.0,1-Back,0,z,Tue Sep 24 2024 17:01:41 GMT-0500 (Central Daylight Time),153728.59999996424,025_y_m_n_a.png,O,m,1212,6,1,2061.300000011921,151667.29999995232,7019,VNB,C,5
2,prac,1,0.0,1-Back,0,m,Tue Sep 24 2024 17:01:41 GMT-0500 (Central Daylight Time),155843.5,015_o_m_h_a.png,O,z,1211,7,1,2108.7000000476837,153734.79999995232,7019,VNB,C,6
2,prac,1,0.0,1-Back,0,m,Tue Sep 24 2024 17:01:41 GMT-0500 (Central Daylight Time),158742.59999996424,019_m_f_d_a.png,O,None,2008,8,1,2893.0,155849.59999996424,7019,VNB,C,7
2,prac,1,1.0,1-Back,0,z,Tue Sep 24 2024 17:01:41 GMT-0500 (Central Daylight Time),161641.69999998808,022_y_f_d_a.png,O,None,2010,9,1,2893.5,158748.19999998808,7019,VNB,C,8
2,prac,1,0.0,1-Back,0,m,Tue Sep 24 2024 17:01:41 GMT-0500 (Central Daylight Time),163474.5,014_m_m_n_a.png,O,z,964,10,1,1827.6000000238419,161646.89999997616,7019,VNB,C,9
2,prac,1,0.0,1-Back,0,m,Tue Sep 24 2024 17:01:41 GMT-0500 (Central Daylight Time),166373.5,012_o_f_h_a.png,O,None,2016,11,1,2893.7000000476837,163479.79999995232,7019,VNB,C,10
2,prac,1,0.0,1-Back,0,m,Tue Sep 24 2024 17:01:41 GMT-0500 (Central Daylight Time),169239.29999995232,025_y_m_d_a.png,O,None,2001,12,1,2860.2999999523163,166379.0,7019,VNB,C,11
0,prac,2,0.0,1-Back,,,Tue Sep 24 2024 17:01:41 GMT-0500 (Central Daylight Time),169239.29999995232,012_o_f_d_a.png,O,a,5640,1,1,2860.2999999523163,166379.0,7019,VNB,C,0
1,prac,2,0.0,1-Back,1,m,Tue Sep 24 2024 17:01:41 GMT-0500 (Central Daylight Time),179619.39999997616,022_y_f_n_a.png,O,m,807,2,1,1693.5,177925.89999997616,7019,VNB,C,1
2,prac,2,0.0,1-Back,1,m,Tue Sep 24 2024 17:01:41 GMT-0500 (Central Daylight Time),182218.59999996424,014_m_m_h_a.png,O,m,1720,3,1,2593.199999988079,179625.39999997616,7019,VNB,C,2
2,prac,2,0.0,1-Back,0,m,Tue Sep 24 2024 17:01:41 GMT-0500 (Central Daylight Time),183851.29999995232,025_y_m_d_a.png,O,z,858,4,1,1627.2999999523163,182224.0,7019,VNB,C,3
2,prac,2,0.0,1-Back,0,m,Tue Sep 24 2024 17:01:41 GMT-0500 (Central Daylight Time),186750.39999997616,012_o_f_n_a.png,O,None,2001,5,1,2891.699999988079,183858.69999998808,7019,VNB,C,4
2,prac,2,1.0,1-Back,0,z,Tue Sep 24 2024 17:01:41 GMT-0500 (Central Daylight Time),189399.79999995232,025_y_m_n_a.png,O,m,1777,6,1,2643.5,186756.29999995232,7019,VNB,C,5
2,prac,2,0.0,1-Back,0,m,Tue Sep 24 2024 17:01:41 GMT-0500 (Central Daylight Time),191765.59999996424,015_o_m_h_a.png,O,z,1471,7,1,2360.099999964237,189405.5,7019,VNB,C,6
2,prac,2,0.0,1-Back,0,m,Tue Sep 24 2024 17:01:41 GMT-0500 (Central Daylight Time),194708.5,019_m_f_d_a.png,O,None,2009,8,1,2937.7000000476837,191770.79999995232,7019,VNB,C,7
2,prac,2,1.0,1-Back,0,z,Tue Sep 24 2024 17:01:41 GMT-0500 (Central Daylight Time),197647.0,022_y_f_d_a.png,O,None,2013,9,1,2931.100000023842,194715.89999997616,7019,VNB,C,8
2,prac,2,0.0,1-Back,0,m,Tue Sep 24 2024 17:01:41 GMT-0500 (Central Daylight Time),200529.39999997616,014_m_m_n_a.png,O,None,2016,10,1,2876.899999976158,197652.5,7019,VNB,C,9
3,prac,2,0.0,1-Back,1,m,Tue Sep 24 2024 17:01:41 GMT-0500 (Central Daylight Time),202878.79999995232,012_o_f_h_a.png,O,m,1461,11,1,2344.199999988079,200534.59999996424,7019,VNB,C,10
3,prac,2,0.0,1-Back,0,m,Tue Sep 24 2024 17:01:41 GMT-0500 (Central Daylight Time),205094.89999997616,025_y_m_d_a.png,O,z,1346,12,1,2210.800000011921,202884.09999996424,7019,VNB,C,11
0,test,1,0.0,1-Back,,,Tue Sep 24 2024 17:01:41 GMT-0500 (Central Daylight Time),205094.89999997616,022_y_f_d_a.png,O,space,20913,1,1,2210.800000011921,202884.09999996424,7019,VNB,C,0
1,test,1,0.0,1-Back,1,m,Tue Sep 24 2024 17:01:41 GMT-0500 (Central Daylight Time),238450.79999995232,019_m_f_n_a.png,O,m,758,2,1,1778.3999999761581,236672.39999997616,7019,VNB,C,1
1,test,1,0.0,1-Back,0,m,Tue Sep 24 2024 17:01:41 GMT-0500 (Central Daylight Time),240500.29999995232,015_o_m_h_a.png,O,z,1030,3,1,2045.7999999523163,238454.5,7019,VNB,C,2
2,test,1,1.0,1-Back,1,z,Tue Sep 24 2024 17:01:41 GMT-0500 (Central Daylight Time),242616.39999997616,014_m_m_h_a.png,O,z,976,4,1,2112.300000011921,240504.09999996424,7019,VNB,C,3
3,test,1,0.0,1-Back,1,m,Tue Sep 24 2024 17:01:41 GMT-0500 (Central Daylight Time),244565.69999998808,012_o_f_n_a.png,O,m,888,5,1,1945.699999988079,242620.0,7019,VNB,C,4
3,test,1,0.0,1-Back,0,m,Tue Sep 24 2024 17:01:41 GMT-0500 (Central Daylight Time),247614.59999996424,025_y_m_d_a.png,O,z,1986,6,1,3044.899999976158,244569.69999998808,7019,VNB,C,5
3,test,1,1.0,1-Back,0,z,Tue Sep 24 2024 17:01:41 GMT-0500 (Central Daylight Time),250682.29999995232,019_m_f_d_a.png,O,None,2017,7,1,3063.2999999523163,247619.0,7019,VNB,C,6
4,test,1,0.0,1-Back,1,m,Tue Sep 24 2024 17:01:41 GMT-0500 (Central Daylight Time),252496.5,022_y_f_h_a.png,O,m,760,8,1,1810.6000000238419,250685.89999997616,7019,VNB,C,7
5,test,1,0.0,1-Back,1,m,Tue Sep 24 2024 17:01:41 GMT-0500 (Central Daylight Time),255062.39999997616,015_o_m_n_a.png,O,m,1505,9,1,2562.0,252500.39999997616,7019,VNB,C,8
6,test,1,0.0,1-Back,1,m,Tue Sep 24 2024 17:01:41 GMT-0500 (Central Daylight Time),257294.79999995232,025_y_m_h_a.png,O,m,1178,10,1,2228.5,255066.29999995232,7019,VNB,C,9
7,test,1,0.0,1-Back,1,m,Tue Sep 24 2024 17:01:41 GMT-0500 (Central Daylight Time),260060.5,015_o_m_d_a.png,O,m,1713,11,1,2761.900000035763,257298.59999996424,7019,VNB,C,10
8,test,1,1.0,1-Back,1,z,Tue Sep 24 2024 17:01:41 GMT-0500 (Central Daylight Time),262210.0,012_o_f_d_a.png,O,z,1082,12,1,2145.900000035763,260064.09999996424,7019,VNB,C,11
9,test,1,0.0,1-Back,1,m,Tue Sep 24 2024 17:01:41 GMT-0500 (Central Daylight Time),264975.7999999523,014_m_m_n_a.png,O,m,1702,13,1,2761.7999999523163,262214.0,7019,VNB,C,12
10,test,1,1.0,1-Back,1,z,Tue Sep 24 2024 17:01:41 GMT-0500 (Central Daylight Time),267258.5,022_y_f_n_a.png,O,z,1217,14,1,2278.600000023842,264979.89999997616,7019,VNB,C,13
11,test,1,0.0,1-Back,1,m,Tue Sep 24 2024 17:01:41 GMT-0500 (Central Daylight Time),269724.2999999523,019_m_f_h_a.png,O,m,1406,15,1,2462.599999964237,267261.6999999881,7019,VNB,C,14
12,test,1,0.0,1-Back,1,m,Tue Sep 24 2024 17:01:41 GMT-0500 (Central Daylight Time),272423.39999997616,014_m_m_d_a.png,O,m,1645,16,1,2695.600000023842,269727.7999999523,7019,VNB,C,15
13,test,1,0.0,1-Back,1,m,Tue Sep 24 2024 17:01:41 GMT-0500 (Central Daylight Time),274639.5,025_y_m_n_a.png,O,m,1152,17,1,2211.900000035763,272427.59999996424,7019,VNB,C,16
14,test,1,0.0,1-Back,1,m,Tue Sep 24 2024 17:01:41 GMT-0500 (Central Daylight Time),276638.7999999523,012_o_f_h_a.png,O,m,945,18,1,1995.2999999523163,274643.5,7019,VNB,C,17
0,test,2,0.0,1-Back,,,Tue Sep 24 2024 17:01:41 GMT-0500 (Central Daylight Time),276638.7999999523,025_y_m_n_a.png,O,space,2195,1,1,1995.2999999523163,274643.5,7019,VNB,C,0
1,test,2,0.0,1-Back,1,m,Tue Sep 24 2024 17:01:41 GMT-0500 (Central Daylight Time),282870.1999999881,022_y_f_h_a.png,O,m,995,2,1,2012.300000011921,280857.89999997616,7019,VNB,C,1
2,test,2,1.0,1-Back,1,m,Tue Sep 24 2024 17:01:41 GMT-0500 (Central Daylight Time),284953.0,015_o_m_n_a.png,O,m,1059,3,1,2078.7000000476837,282874.2999999523,7019,VNB,C,2
3,test,2,0.0,1-Back,1,m,Tue Sep 24 2024 17:01:41 GMT-0500 (Central Daylight Time),286918.89999997616,019_m_f_d_a.png,O,m,936,4,1,1962.1000000238419,284956.7999999523,7019,VNB,C,3
4,test,2,0.0,1-Back,1,z,Tue Sep 24 2024 17:01:41 GMT-0500 (Central Daylight Time),288919.2999999523,014_m_m_d_a.png,O,z,971,5,1,1997.0999999642372,286922.1999999881,7019,VNB,C,4
5,test,2,0.0,1-Back,1,m,Tue Sep 24 2024 17:01:41 GMT-0500 (Central Daylight Time),290784.59999996424,025_y_m_h_a.png,O,m,844,6,1,1861.5999999642372,288923.0,7019,VNB,C,5
6,test,2,1.0,1-Back,1,z,Tue Sep 24 2024 17:01:41 GMT-0500 (Central Daylight Time),293100.5,012_o_f_h_a.png,O,z,1297,7,1,2312.7000000476837,290787.7999999523,7019,VNB,C,6
7,test,2,0.0,1-Back,1,m,Tue Sep 24 2024 17:01:41 GMT-0500 (Central Daylight Time),294832.89999997616,019_m_f_n_a.png,O,m,709,8,1,1728.3999999761581,293104.5,7019,VNB,C,7
7,test,2,0.0,1-Back,0,m,Tue Sep 24 2024 17:01:41 GMT-0500 (Central Daylight Time),297865.59999996424,022_y_f_d_a.png,O,None,2014,9,1,3028.099999964237,294837.5,7019,VNB,C,8
8,test,2,0.0,1-Back,1,m,Tue Sep 24 2024 17:01:41 GMT-0500 (Central Daylight Time),300181.5,014_m_m_n_a.png,O,m,1289,10,1,2312.100000023842,297869.39999997616,7019,VNB,C,9
9,test,2,1.0,1-Back,1,m,Tue Sep 24 2024 17:01:41 GMT-0500 (Central Daylight Time),302414.09999996424,019_m_f_h_a.png,O,m,1204,11,1,2228.5,300185.59999996424,7019,VNB,C,10
10,test,2,0.0,1-Back,1,z,Tue Sep 24 2024 17:01:41 GMT-0500 (Central Daylight Time),304213.6999999881,015_o_m_h_a.png,O,z,738,12,1,1795.9000000357628,302417.7999999523,7019,VNB,C,11
11,test,2,0.0,1-Back,1,m,Tue Sep 24 2024 17:01:41 GMT-0500 (Central Daylight Time),305997.39999997616,025_y_m_d_a.png,O,m,730,13,1,1779.699999988079,304217.6999999881,7019,VNB,C,12
12,test,2,0.0,1-Back,1,m,Tue Sep 24 2024 17:01:41 GMT-0500 (Central Daylight Time),307728.7999999523,012_o_f_n_a.png,O,m,676,14,1,1727.5999999642372,306001.1999999881,7019,VNB,C,13
12,test,2,0.0,1-Back,0,z,Tue Sep 24 2024 17:01:41 GMT-0500 (Central Daylight Time),310795.09999996424,022_y_f_n_a.png,O,None,2016,15,1,3061.699999988079,307733.39999997616,7019,VNB,C,14
13,test,2,1.0,1-Back,1,m,Tue Sep 24 2024 17:01:41 GMT-0500 (Central Daylight Time),312827.59999996424,014_m_m_h_a.png,O,m,973,16,1,2028.699999988079,310798.89999997616,7019,VNB,C,15
14,test,2,0.0,1-Back,1,m,Tue Sep 24 2024 17:01:41 GMT-0500 (Central Daylight Time),314827.0,012_o_f_d_a.png,O,m,934,17,1,1995.9000000357628,312831.09999996424,7019,VNB,C,16
14,test,2,1.0,1-Back,0,z,Tue Sep 24 2024 17:01:41 GMT-0500 (Central Daylight Time),317042.59999996424,015_o_m_d_a.png,O,m,1165,18,1,2212.399999976158,314830.1999999881,7019,VNB,C,17
0,test,3,1.0,1-Back,,,Tue Sep 24 2024 17:01:41 GMT-0500 (Central Daylight Time),317042.59999996424,012_o_f_h_a.png,O,space,1407,1,1,2212.399999976158,314830.1999999881,7019,VNB,C,0
1,test,3,0.0,1-Back,1,m,Tue Sep 24 2024 17:01:41 GMT-0500 (Central Daylight Time),322424.5,019_m_f_d_a.png,O,m,793,2,1,1846.0,320578.5,7019,VNB,C,1
1,test,3,1.0,1-Back,0,m,Tue Sep 24 2024 17:01:41 GMT-0500 (Central Daylight Time),325490.1999999881,014_m_m_n_a.png,O,None,2015,3,1,3061.699999988079,322428.5,7019,VNB,C,2
1,test,3,0.0,1-Back,0,z,Tue Sep 24 2024 17:01:41 GMT-0500 (Central Daylight Time),328556.0,012_o_f_n_a.png,O,None,2016,4,1,3062.0,325494.0,7019,VNB,C,3
1,test,3,1.0,1-Back,0,m,Tue Sep 24 2024 17:01:41 GMT-0500 (Central Daylight Time),331621.5,015_o_m_d_a.png,O,None,2015,5,1,3062.2000000476837,328559.2999999523,7019,VNB,C,4
2,test,3,0.0,1-Back,1,m,Tue Sep 24 2024 17:01:41 GMT-0500 (Central Daylight Time),333987.39999997616,022_y_f_h_a.png,O,m,1307,6,1,2361.699999988079,331625.6999999881,7019,VNB,C,5
2,test,3,0.0,1-Back,0,z,Tue Sep 24 2024 17:01:41 GMT-0500 (Central Daylight Time),336553.1999999881,025_y_m_h_a.png,O,m,1500,7,1,2560.5,333992.6999999881,7019,VNB,C,6
3,test,3,0.0,1-Back,1,m,Tue Sep 24 2024 17:01:41 GMT-0500 (Central Daylight Time),339069.39999997616,019_m_f_n_a.png,O,m,1455,8,1,2512.399999976158,336557.0,7019,VNB,C,7
4,test,3,0.0,1-Back,1,m,Tue Sep 24 2024 17:01:41 GMT-0500 (Central Daylight Time),341185.2999999523,022_y_f_d_a.png,O,m,1059,9,1,2112.099999964237,339073.1999999881,7019,VNB,C,8
5,test,3,1.0,1-Back,1,m,Tue Sep 24 2024 17:01:41 GMT-0500 (Central Daylight Time),343051.39999997616,015_o_m_n_a.png,O,m,807,10,1,1862.1000000238419,341189.2999999523,7019,VNB,C,9
6,test,3,0.0,1-Back,1,m,Tue Sep 24 2024 17:01:41 GMT-0500 (Central Daylight Time),345500.6999999881,014_m_m_h_a.png,O,m,1397,11,1,2445.600000023842,343055.09999996424,7019,VNB,C,10
7,test,3,0.0,1-Back,1,z,Tue Sep 24 2024 17:01:41 GMT-0500 (Central Daylight Time),347333.1999999881,019_m_f_h_a.png,O,z,781,12,1,1828.9000000357628,345504.2999999523,7019,VNB,C,11
8,test,3,1.0,1-Back,1,m,Tue Sep 24 2024 17:01:41 GMT-0500 (Central Daylight Time),349016.0,012_o_f_d_a.png,O,m,628,13,1,1678.9000000357628,347337.09999996424,7019,VNB,C,12
9,test,3,0.0,1-Back,1,z,Tue Sep 24 2024 17:01:41 GMT-0500 (Central Daylight Time),351282.1999999881,014_m_m_d_a.png,O,z,1200,14,1,2262.5,349019.6999999881,7019,VNB,C,13
10,test,3,0.0,1-Back,1,m,Tue Sep 24 2024 17:01:41 GMT-0500 (Central Daylight Time),353332.1999999881,025_y_m_n_a.png,O,m,991,15,1,2046.300000011921,351285.89999997616,7019,VNB,C,14
11,test,3,1.0,1-Back,1,m,Tue Sep 24 2024 17:01:41 GMT-0500 (Central Daylight Time),355347.2999999523,015_o_m_h_a.png,O,m,990,16,1,2011.699999988079,353335.59999996424,7019,VNB,C,15
12,test,3,0.0,1-Back,1,m,Tue Sep 24 2024 17:01:41 GMT-0500 (Central Daylight Time),357196.7999999523,025_y_m_d_a.png,O,m,789,17,1,1845.7999999523163,355351.0,7019,VNB,C,16
13,test,3,1.0,1-Back,1,m,Tue Sep 24 2024 17:01:41 GMT-0500 (Central Daylight Time),359445.7999999523,022_y_f_n_a.png,O,m,1195,18,1,2245.699999988079,357200.09999996424,7019,VNB,C,17
0,test,4,1.0,1-Back,,,Tue Sep 24 2024 17:01:41 GMT-0500 (Central Daylight Time),359445.7999999523,014_m_m_d_a.png,O,space,1244,1,1,2245.699999988079,357200.09999996424,7019,VNB,C,0
1,test,4,0.0,1-Back,1,z,Tue Sep 24 2024 17:01:41 GMT-0500 (Central Daylight Time),364728.0,015_o_m_d_a.png,O,z,886,2,1,1912.5,362815.5,7019,VNB,C,1
2,test,4,0.0,1-Back,1,m,Tue Sep 24 2024 17:01:41 GMT-0500 (Central Daylight Time),366827.2999999523,025_y_m_h_a.png,O,m,1067,3,1,2094.699999988079,364732.59999996424,7019,VNB,C,2
3,test,4,0.0,1-Back,1,m,Tue Sep 24 2024 17:01:41 GMT-0500 (Central Daylight Time),368860.0,019_m_f_n_a.png,O,m,1014,4,1,2029.0,366831.0,7019,VNB,C,3
4,test,4,1.0,1-Back,1,m,Tue Sep 24 2024 17:01:41 GMT-0500 (Central Daylight Time),370609.39999997616,012_o_f_h_a.png,O,m,726,5,1,1745.3999999761581,368864.0,7019,VNB,C,4
5,test,4,0.0,1-Back,1,m,Tue Sep 24 2024 17:01:41 GMT-0500 (Central Daylight Time),372325.5,014_m_m_n_a.png,O,m,663,6,1,1712.4000000357628,370613.09999996424,7019,VNB,C,5
6,test,4,0.0,1-Back,1,m,Tue Sep 24 2024 17:01:41 GMT-0500 (Central Daylight Time),374558.0,025_y_m_d_a.png,O,m,1212,7,1,2228.800000011921,372329.1999999881,7019,VNB,C,6
7,test,4,1.0,1-Back,1,z,Tue Sep 24 2024 17:01:41 GMT-0500 (Central Daylight Time),376490.7999999523,022_y_f_d_a.png,O,z,874,8,1,1929.5,374561.2999999523,7019,VNB,C,7
8,test,4,0.0,1-Back,1,m,Tue Sep 24 2024 17:01:41 GMT-0500 (Central Daylight Time),378223.6999999881,019_m_f_h_a.png,O,m,661,9,1,1729.1000000238419,376494.59999996424,7019,VNB,C,8
9,test,4,0.0,1-Back,1,z,Tue Sep 24 2024 17:01:41 GMT-0500 (Central Daylight Time),380089.6999999881,015_o_m_h_a.png,O,z,808,10,1,1862.1000000238419,378227.59999996424,7019,VNB,C,9
10,test,4,1.0,1-Back,1,m,Tue Sep 24 2024 17:01:41 GMT-0500 (Central Daylight Time),382339.09999996424,012_o_f_n_a.png,O,m,1190,11,1,2245.899999976158,380093.1999999881,7019,VNB,C,10
11,test,4,0.0,1-Back,1,m,Tue Sep 24 2024 17:01:41 GMT-0500 (Central Daylight Time),384238.2999999523,019_m_f_d_a.png,O,m,837,12,1,1895.5,382342.7999999523,7019,VNB,C,11
12,test,4,0.0,1-Back,1,m,Tue Sep 24 2024 17:01:41 GMT-0500 (Central Daylight Time),386054.5,022_y_f_n_a.png,O,m,763,13,1,1813.2000000476837,384241.2999999523,7019,VNB,C,12
13,test,4,0.0,1-Back,1,m,Tue Sep 24 2024 17:01:41 GMT-0500 (Central Daylight Time),387903.7999999523,012_o_f_d_a.png,O,m,787,14,1,1845.5999999642372,386058.1999999881,7019,VNB,C,13
13,test,4,0.0,1-Back,0,m,Tue Sep 24 2024 17:01:41 GMT-0500 (Central Daylight Time),389853.2999999523,022_y_f_h_a.png,O,z,888,15,1,1945.3999999761581,387907.89999997616,7019,VNB,C,14
14,test,4,1.0,1-Back,1,z,Tue Sep 24 2024 17:01:41 GMT-0500 (Central Daylight Time),391802.59999996424,014_m_m_h_a.png,O,z,892,16,1,1945.3999999761581,389857.1999999881,7019,VNB,C,15
15,test,4,0.0,1-Back,1,m,Tue Sep 24 2024 17:01:41 GMT-0500 (Central Daylight Time),393418.7999999523,015_o_m_n_a.png,O,m,559,17,1,1612.699999988079,391806.09999996424,7019,VNB,C,16
15,test,4,1.0,1-Back,0,z,Tue Sep 24 2024 17:01:41 GMT-0500 (Central Daylight Time),395168.2999999523,025_y_m_n_a.png,O,m,684,18,1,1745.3999999761581,393422.89999997616,7019,VNB,C,17
0,test,5,1.0,1-Back,,,Tue Sep 24 2024 17:01:41 GMT-0500 (Central Daylight Time),395168.2999999523,015_o_m_n_a.png,O,space,1194,1,1,1745.3999999761581,393422.89999997616,7019,VNB,C,0
0,test,5,1.0,1-Back,0,m,Tue Sep 24 2024 17:01:41 GMT-0500 (Central Daylight Time),401416.2999999523,012_o_f_h_a.png,O,None,2015,2,1,3028.5,398387.7999999523,7019,VNB,C,1
0,test,5,0.0,1-Back,0,m,Tue Sep 24 2024 17:01:41 GMT-0500 (Central Daylight Time),404449.89999997616,025_y_m_d_a.png,O,None,2017,3,1,3030.300000011921,401419.59999996424,7019,VNB,C,2
1,test,5,0.0,1-Back,1,z,Tue Sep 24 2024 17:01:41 GMT-0500 (Central Daylight Time),407081.1999999881,015_o_m_d_a.png,O,z,1600,4,1,2627.600000023842,404453.59999996424,7019,VNB,C,3
2,test,5,0.0,1-Back,1,m,Tue Sep 24 2024 17:01:41 GMT-0500 (Central Daylight Time),408813.89999997616,019_m_f_h_a.png,O,m,712,5,1,1729.0,407084.89999997616,7019,VNB,C,4
3,test,5,0.0,1-Back,1,m,Tue Sep 24 2024 17:01:41 GMT-0500 (Central Daylight Time),410980.0,022_y_f_n_a.png,O,m,1139,6,1,2162.800000011921,408817.1999999881,7019,VNB,C,5
4,test,5,1.0,1-Back,1,z,Tue Sep 24 2024 17:01:41 GMT-0500 (Central Daylight Time),413512.5,012_o_f_n_a.png,O,z,1509,7,1,2529.0,410983.5,7019,VNB,C,6
5,test,5,0.0,1-Back,1,m,Tue Sep 24 2024 17:01:41 GMT-0500 (Central Daylight Time),415745.09999996424,019_m_f_d_a.png,O,m,1209,8,1,2229.5,413515.59999996424,7019,VNB,C,7
6,test,5,0.0,1-Back,1,m,Tue Sep 24 2024 17:01:41 GMT-0500 (Central Daylight Time),417794.39999997616,025_y_m_h_a.png,O,m,1018,9,1,2046.199999988079,415748.1999999881,7019,VNB,C,8
7,test,5,0.0,1-Back,1,m,Tue Sep 24 2024 17:01:41 GMT-0500 (Central Daylight Time),419760.5,022_y_f_d_a.png,O,m,944,10,1,1962.6000000238419,417797.89999997616,7019,VNB,C,9
8,test,5,0.0,1-Back,1,m,Tue Sep 24 2024 17:01:41 GMT-0500 (Central Daylight Time),422676.39999997616,014_m_m_n_a.png,O,m,1897,11,1,2912.0,419764.39999997616,7019,VNB,C,10
9,test,5,1.0,1-Back,1,z,Tue Sep 24 2024 17:01:41 GMT-0500 (Central Daylight Time),424642.5,019_m_f_n_a.png,O,z,933,12,1,1962.6000000238419,422679.89999997616,7019,VNB,C,11
10,test,5,0.0,1-Back,1,m,Tue Sep 24 2024 17:01:41 GMT-0500 (Central Daylight Time),426442.0,015_o_m_h_a.png,O,m,767,13,1,1796.5,424645.5,7019,VNB,C,12
11,test,5,0.0,1-Back,1,z,Tue Sep 24 2024 17:01:41 GMT-0500 (Central Daylight Time),428474.2999999523,014_m_m_h_a.png,O,z,1001,14,1,2029.0,426445.2999999523,7019,VNB,C,13
12,test,5,1.0,1-Back,1,m,Tue Sep 24 2024 17:01:41 GMT-0500 (Central Daylight Time),430176.89999997616,012_o_f_d_a.png,O,m,679,15,1,1699.300000011921,428477.59999996424,7019,VNB,C,14
13,test,5,0.0,1-Back,1,m,Tue Sep 24 2024 17:01:41 GMT-0500 (Central Daylight Time),432239.7999999523,025_y_m_n_a.png,O,m,1035,16,1,2059.199999988079,430180.59999996424,7019,VNB,C,15
14,test,5,0.0,1-Back,1,m,Tue Sep 24 2024 17:01:41 GMT-0500 (Central Daylight Time),434355.89999997616,022_y_f_h_a.png,O,m,1097,17,1,2112.399999976158,432243.5,7019,VNB,C,16
15,test,5,0.0,1-Back,1,m,Tue Sep 24 2024 17:01:41 GMT-0500 (Central Daylight Time),436172.1999999881,014_m_m_d_a.png,O,m,797,18,1,1812.6000000238419,434359.59999996424,7019,VNB,C,17
0,prac,1,0.0,2-Back,,,Tue Sep 24 2024 17:01:41 GMT-0500 (Central Daylight Time),436172.1999999881,019_m_f_n_a.png,O,space,11464,1,1,1812.6000000238419,434359.59999996424,7019,VNB,C,0
0,prac,1,0.0,2-Back,,,Tue Sep 24 2024 17:01:41 GMT-0500 (Central Daylight Time),436172.1999999881,012_o_f_h_a.png,O,space,11464,2,1,1812.6000000238419,434359.59999996424,7019,VNB,C,0
1,prac,1,0.0,2-Back,1,m,Tue Sep 24 2024 17:01:41 GMT-0500 (Central Daylight Time),551919.3999999762,015_o_m_d_a.png,O,m,1102,3,1,1993.699999988079,549925.6999999881,7019,VNB,C,1
1,prac,1,1.0,2-Back,0,z,Tue Sep 24 2024 17:01:41 GMT-0500 (Central Daylight Time),554802.0999999642,014_m_m_h_a.png,O,None,2014,4,1,2877.800000011921,551924.2999999523,7019,VNB,C,2
2,prac,1,0.0,2-Back,1,m,Tue Sep 24 2024 17:01:41 GMT-0500 (Central Daylight Time),557217.3999999762,022_y_f_n_a.png,O,m,1511,5,1,2410.300000011921,554807.0999999642,7019,VNB,C,3
2,prac,1,1.0,2-Back,0,z,Tue Sep 24 2024 17:01:41 GMT-0500 (Central Daylight Time),559900.0,015_o_m_h_a.png,O,m,1780,6,1,2677.600000023842,557222.3999999762,7019,VNB,C,4
2,prac,1,1.0,2-Back,0,z,Tue Sep 24 2024 17:01:41 GMT-0500 (Central Daylight Time),562149.1999999881,025_y_m_n_a.png,O,m,1373,7,1,2244.199999988079,559905.0,7019,VNB,C,5
3,prac,1,0.0,2-Back,1,m,Tue Sep 24 2024 17:01:41 GMT-0500 (Central Daylight Time),563732.1999999881,019_m_f_d_a.png,O,m,678,8,1,1577.699999988079,562154.5,7019,VNB,C,6
4,prac,1,0.0,2-Back,1,m,Tue Sep 24 2024 17:01:41 GMT-0500 (Central Daylight Time),565314.7999999523,012_o_f_d_a.png,O,m,684,9,1,1577.0,563737.7999999523,7019,VNB,C,7
5,prac,1,0.0,2-Back,1,m,Tue Sep 24 2024 17:01:41 GMT-0500 (Central Daylight Time),567132.0999999642,014_m_m_h_a.png,O,m,1042,10,1,1812.199999988079,565319.8999999762,7019,VNB,C,8
5,prac,1,1.0,2-Back,0,z,Tue Sep 24 2024 17:01:41 GMT-0500 (Central Daylight Time),568663.7999999523,022_y_f_d_a.png,O,m,628,11,1,1525.5999999642372,567138.1999999881,7019,VNB,C,9
6,prac,1,0.0,2-Back,1,m,Tue Sep 24 2024 17:01:41 GMT-0500 (Central Daylight Time),570680.0,015_o_m_n_a.png,O,m,1119,12,1,2011.0,568669.0,7019,VNB,C,10
0,prac,2,0.0,2-Back,,,Tue Sep 24 2024 17:01:41 GMT-0500 (Central Daylight Time),570680.0,019_m_f_n_a.png,O,a,5519,1,1,2011.0,568669.0,7019,VNB,C,0
0,prac,2,0.0,2-Back,,,Tue Sep 24 2024 17:01:41 GMT-0500 (Central Daylight Time),570680.0,012_o_f_h_a.png,O,a,5519,2,1,2011.0,568669.0,7019,VNB,C,0
1,prac,2,0.0,2-Back,1,m,Tue Sep 24 2024 17:01:41 GMT-0500 (Central Daylight Time),583509.1999999881,015_o_m_d_a.png,O,m,1155,3,1,2044.0,581465.1999999881,7019,VNB,C,1
1,prac,2,1.0,2-Back,0,z,Tue Sep 24 2024 17:01:41 GMT-0500 (Central Daylight Time),585058.5,014_m_m_h_a.png,O,m,767,4,1,1544.2000000476837,583514.2999999523,7019,VNB,C,2
2,prac,2,0.0,2-Back,1,m,Tue Sep 24 2024 17:01:41 GMT-0500 (Central Daylight Time),587757.7999999523,022_y_f_n_a.png,O,m,1807,5,1,2693.7999999523163,585064.0,7019,VNB,C,3
2,prac,2,1.0,2-Back,0,z,Tue Sep 24 2024 17:01:41 GMT-0500 (Central Daylight Time),589990.5,015_o_m_h_a.png,O,m,1328,6,1,2227.400000035763,587763.0999999642,7019,VNB,C,4
2,prac,2,1.0,2-Back,0,z,Tue Sep 24 2024 17:01:41 GMT-0500 (Central Daylight Time),591789.7999999523,025_y_m_n_a.png,O,m,925,7,1,1793.0999999642372,589996.6999999881,7019,VNB,C,5
3,prac,2,0.0,2-Back,1,m,Tue Sep 24 2024 17:01:41 GMT-0500 (Central Daylight Time),593473.0,019_m_f_d_a.png,O,m,776,8,1,1677.7000000476837,591795.2999999523,7019,VNB,C,6
4,prac,2,0.0,2-Back,1,m,Tue Sep 24 2024 17:01:41 GMT-0500 (Central Daylight Time),595855.3999999762,012_o_f_d_a.png,O,m,1492,9,1,2377.0,593478.3999999762,7019,VNB,C,7
5,prac,2,0.0,2-Back,1,m,Tue Sep 24 2024 17:01:41 GMT-0500 (Central Daylight Time),597738.0999999642,014_m_m_h_a.png,O,m,1101,10,1,1877.300000011921,595860.7999999523,7019,VNB,C,8
5,prac,2,1.0,2-Back,0,z,Tue Sep 24 2024 17:01:41 GMT-0500 (Central Daylight Time),599587.3999999762,022_y_f_d_a.png,O,m,947,11,1,1843.6000000238419,597743.7999999523,7019,VNB,C,9
6,prac,2,0.0,2-Back,1,m,Tue Sep 24 2024 17:01:41 GMT-0500 (Central Daylight Time),601153.5999999642,015_o_m_n_a.png,O,m,668,12,1,1561.0,599592.5999999642,7019,VNB,C,10
0,test,1,0.0,2-Back,,,Tue Sep 24 2024 17:01:41 GMT-0500 (Central Daylight Time),601153.5999999642,025_y_m_h_a.png,O,space,14157,1,1,1561.0,599592.5999999642,7019,VNB,C,0
0,test,1,0.0,2-Back,,,Tue Sep 24 2024 17:01:41 GMT-0500 (Central Daylight Time),601153.5999999642,012_o_f_n_a.png,O,space,14157,2,1,1561.0,599592.5999999642,7019,VNB,C,0
1,test,1,0.0,2-Back,1,z,Tue Sep 24 2024 17:01:41 GMT-0500 (Central Daylight Time),630844.2999999523,015_o_m_h_a.png,O,z,922,3,1,1945.7999999523163,628898.5,7019,VNB,C,1
2,test,1,0.0,2-Back,1,m,Tue Sep 24 2024 17:01:41 GMT-0500 (Central Daylight Time),633143.5999999642,019_m_f_d_a.png,O,m,1236,4,1,2296.199999988079,630847.3999999762,7019,VNB,C,2
2,test,1,1.0,2-Back,0,m,Tue Sep 24 2024 17:01:41 GMT-0500 (Central Daylight Time),636209.1999999881,025_y_m_n_a.png,O,None,2015,5,1,3061.900000035763,633147.2999999523,7019,VNB,C,3
2,test,1,0.0,2-Back,0,z,Tue Sep 24 2024 17:01:41 GMT-0500 (Central Daylight Time),638808.5,022_y_f_d_a.png,O,m,1535,6,1,2595.800000011921,636212.6999999881,7019,VNB,C,4
3,test,1,0.0,2-Back,1,m,Tue Sep 24 2024 17:01:41 GMT-0500 (Central Daylight Time),641174.5999999642,014_m_m_h_a.png,O,m,1311,7,1,2362.599999964237,638812.0,7019,VNB,C,5
4,test,1,1.0,2-Back,1,m,Tue Sep 24 2024 17:01:41 GMT-0500 (Central Daylight Time),642723.8999999762,022_y_f_n_a.png,O,m,498,8,1,1546.199999988079,641177.6999999881,7019,VNB,C,6
4,test,1,0.0,2-Back,0,z,Tue Sep 24 2024 17:01:41 GMT-0500 (Central Daylight Time),644373.3999999762,012_o_f_h_a.png,O,m,588,9,1,1645.3999999761581,642728.0,7019,VNB,C,7
5,test,1,0.0,2-Back,1,m,Tue Sep 24 2024 17:01:41 GMT-0500 (Central Daylight Time),646106.0,015_o_m_d_a.png,O,m,674,10,1,1728.7000000476837,644377.2999999523,7019,VNB,C,8
6,test,1,1.0,2-Back,1,m,Tue Sep 24 2024 17:01:41 GMT-0500 (Central Daylight Time),647588.8999999762,014_m_m_d_a.png,O,m,430,11,1,1479.300000011921,646109.5999999642,7019,VNB,C,9
7,test,1,0.0,2-Back,1,m,Tue Sep 24 2024 17:01:41 GMT-0500 (Central Daylight Time),649221.8999999762,019_m_f_n_a.png,O,m,571,12,1,1629.1000000238419,647592.7999999523,7019,VNB,C,10
8,test,1,0.0,2-Back,1,m,Tue Sep 24 2024 17:01:41 GMT-0500 (Central Daylight Time),650687.8999999762,022_y_f_h_a.png,O,m,410,13,1,1462.6000000238419,649225.2999999523,7019,VNB,C,11
8,test,1,0.0,2-Back,0,z,Tue Sep 24 2024 17:01:41 GMT-0500 (Central Daylight Time),652154.0999999642,014_m_m_n_a.png,O,m,441,14,1,1462.800000011921,650691.2999999523,7019,VNB,C,12
9,test,1,0.0,2-Back,1,m,Tue Sep 24 2024 17:01:41 GMT-0500 (Central Daylight Time),653620.5,025_y_m_d_a.png,O,m,414,15,1,1462.800000011921,652157.6999999881,7019,VNB,C,13
10,test,1,1.0,2-Back,1,m,Tue Sep 24 2024 17:01:41 GMT-0500 (Central Daylight Time),655253.1999999881,019_m_f_h_a.png,O,m,580,16,1,1628.9000000357628,653624.2999999523,7019,VNB,C,14
10,test,1,0.0,2-Back,0,z,Tue Sep 24 2024 17:01:41 GMT-0500 (Central Daylight Time),656819.5,012_o_f_d_a.png,O,m,540,17,1,1562.6000000238419,655256.8999999762,7019,VNB,C,15
11,test,1,0.0,2-Back,1,m,Tue Sep 24 2024 17:01:41 GMT-0500 (Central Daylight Time),658485.1999999881,015_o_m_n_a.png,O,m,613,18,1,1662.0,656823.1999999881,7019,VNB,C,16
0,test,2,0.0,2-Back,,,Tue Sep 24 2024 17:01:41 GMT-0500 (Central Daylight Time),658485.1999999881,014_m_m_h_a.png,O,space,1860,1,1,1662.0,656823.1999999881,7019,VNB,C,0
0,test,2,0.0,2-Back,,,Tue Sep 24 2024 17:01:41 GMT-0500 (Central Daylight Time),658485.1999999881,022_y_f_n_a.png,O,space,1860,2,1,1662.0,656823.1999999881,7019,VNB,C,0
1,test,2,1.0,2-Back,1,z,Tue Sep 24 2024 17:01:41 GMT-0500 (Central Daylight Time),667382.5999999642,012_o_f_h_a.png,O,z,761,3,1,1778.8999999761581,665603.6999999881,7019,VNB,C,1
1,test,2,0.0,2-Back,0,m,Tue Sep 24 2024 17:01:41 GMT-0500 (Central Daylight Time),669815.3999999762,015_o_m_d_a.png,O,z,1411,4,1,2429.399999976158,667386.0,7019,VNB,C,2
2,test,2,0.0,2-Back,1,m,Tue Sep 24 2024 17:01:41 GMT-0500 (Central Daylight Time),672497.8999999762,019_m_f_d_a.png,O,m,1658,5,1,2678.800000011921,669819.0999999642,7019,VNB,C,3
3,test,2,0.0,2-Back,1,m,Tue Sep 24 2024 17:01:41 GMT-0500 (Central Daylight Time),674330.3999999762,025_y_m_h_a.png,O,m,801,6,1,1828.800000011921,672501.5999999642,7019,VNB,C,4
4,test,2,0.0,2-Back,1,m,Tue Sep 24 2024 17:01:41 GMT-0500 (Central Daylight Time),675946.5999999642,012_o_f_n_a.png,O,m,591,7,1,1612.5,674334.0999999642,7019,VNB,C,5
4,test,2,1.0,2-Back,0,z,Tue Sep 24 2024 17:01:41 GMT-0500 (Central Daylight Time),677595.7999999523,015_o_m_h_a.png,O,m,623,8,1,1646.0,675949.7999999523,7019,VNB,C,6
5,test,2,0.0,2-Back,1,m,Tue Sep 24 2024 17:01:41 GMT-0500 (Central Daylight Time),679362.2999999523,022_y_f_d_a.png,O,m,733,9,1,1762.8999999761581,677599.3999999762,7019,VNB,C,7
6,test,2,0.0,2-Back,1,m,Tue Sep 24 2024 17:01:41 GMT-0500 (Central Daylight Time),680961.7999999523,025_y_m_d_a.png,O,m,575,10,1,1596.3999999761581,679365.3999999762,7019,VNB,C,8
7,test,2,0.0,2-Back,1,m,Tue Sep 24 2024 17:01:41 GMT-0500 (Central Daylight Time),682544.5999999642,014_m_m_n_a.png,O,m,559,11,1,1579.199999988079,680965.3999999762,7019,VNB,C,9
8,test,2,0.0,2-Back,1,m,Tue Sep 24 2024 17:01:41 GMT-0500 (Central Daylight Time),684160.8999999762,019_m_f_h_a.png,O,m,585,12,1,1612.699999988079,682548.1999999881,7019,VNB,C,10
8,test,2,1.0,2-Back,0,z,Tue Sep 24 2024 17:01:41 GMT-0500 (Central Daylight Time),685660.5,015_o_m_n_a.png,O,m,480,13,1,1496.0,684164.5,7019,VNB,C,11
9,test,2,0.0,2-Back,1,m,Tue Sep 24 2024 17:01:41 GMT-0500 (Central Daylight Time),687126.5,012_o_f_d_a.png,O,m,445,14,1,1462.4000000357628,685664.0999999642,7019,VNB,C,12
10,test,2,0.0,2-Back,1,m,Tue Sep 24 2024 17:01:41 GMT-0500 (Central Daylight Time),688542.6999999881,022_y_f_h_a.png,O,m,387,15,1,1412.5,687130.1999999881,7019,VNB,C,13
10,test,2,0.0,2-Back,0,z,Tue Sep 24 2024 17:01:41 GMT-0500 (Central Daylight Time),689975.5999999642,014_m_m_d_a.png,O,m,403,16,1,1429.0999999642372,688546.5,7019,VNB,C,14
11,test,2,0.0,2-Back,1,m,Tue Sep 24 2024 17:01:41 GMT-0500 (Central Daylight Time),691408.5,025_y_m_n_a.png,O,m,411,17,1,1429.6000000238419,689978.8999999762,7019,VNB,C,15
12,test,2,1.0,2-Back,1,m,Tue Sep 24 2024 17:01:41 GMT-0500 (Central Daylight Time),692941.5,019_m_f_n_a.png,O,m,514,18,1,1528.6000000238419,691412.8999999762,7019,VNB,C,16
0,test,3,1.0,2-Back,,,Tue Sep 24 2024 17:01:41 GMT-0500 (Central Daylight Time),692941.5,015_o_m_n_a.png,O,space,1204,1,1,1528.6000000238419,691412.8999999762,7019,VNB,C,0
0,test,3,1.0,2-Back,,,Tue Sep 24 2024 17:01:41 GMT-0500 (Central Daylight Time),692941.5,012_o_f_d_a.png,O,space,1204,2,1,1528.6000000238419,691412.8999999762,7019,VNB,C,0
1,test,3,0.0,2-Back,1,m,Tue Sep 24 2024 17:01:41 GMT-0500 (Central Daylight Time),701705.2999999523,022_y_f_h_a.png,O,m,1317,3,1,2378.899999976158,699326.3999999762,7019,VNB,C,1
2,test,3,0.0,2-Back,1,z,Tue Sep 24 2024 17:01:41 GMT-0500 (Central Daylight Time),704354.3999999762,019_m_f_d_a.png,O,z,1584,4,1,2645.300000011921,701709.0999999642,7019,VNB,C,2
2,test,3,1.0,2-Back,0,m,Tue Sep 24 2024 17:01:41 GMT-0500 (Central Daylight Time),706853.7999999523,025_y_m_n_a.png,O,z,1480,5,1,2496.399999976158,704357.3999999762,7019,VNB,C,3
2,test,3,0.0,2-Back,0,m,Tue Sep 24 2024 17:01:41 GMT-0500 (Central Daylight Time),709019.3999999762,015_o_m_h_a.png,O,z,1107,6,1,2162.0,706857.3999999762,7019,VNB,C,4
2,test,3,0.0,2-Back,0,z,Tue Sep 24 2024 17:01:41 GMT-0500 (Central Daylight Time),710852.5,022_y_f_n_a.png,O,m,747,7,1,1829.0,709023.5,7019,VNB,C,5
3,test,3,1.0,2-Back,1,m,Tue Sep 24 2024 17:01:41 GMT-0500 (Central Daylight Time),712620.7999999523,014_m_m_d_a.png,O,m,733,8,1,1765.2999999523163,710855.5,7019,VNB,C,6
4,test,3,0.0,2-Back,1,m,Tue Sep 24 2024 17:01:41 GMT-0500 (Central Daylight Time),714567.6999999881,025_y_m_d_a.png,O,m,877,9,1,1942.800000011921,712624.8999999762,7019,VNB,C,7
5,test,3,0.0,2-Back,1,m,Tue Sep 24 2024 17:01:41 GMT-0500 (Central Daylight Time),716234.0999999642,012_o_f_h_a.png,O,m,641,10,1,1663.0,714571.0999999642,7019,VNB,C,8
6,test,3,1.0,2-Back,1,m,Tue Sep 24 2024 17:01:41 GMT-0500 (Central Daylight Time),717933.0999999642,019_m_f_n_a.png,O,m,646,11,1,1695.3999999761581,716237.6999999881,7019,VNB,C,9
6,test,3,1.0,2-Back,0,z,Tue Sep 24 2024 17:01:41 GMT-0500 (Central Daylight Time),719566.0999999642,014_m_m_h_a.png,O,m,604,12,1,1629.300000011921,717936.7999999523,7019,VNB,C,10
7,test,3,0.0,2-Back,1,m,Tue Sep 24 2024 17:01:41 GMT-0500 (Central Daylight Time),721049.0,022_y_f_d_a.png,O,m,409,13,1,1478.9000000357628,719570.0999999642,7019,VNB,C,11
8,test,3,0.0,2-Back,1,m,Tue Sep 24 2024 17:01:41 GMT-0500 (Central Daylight Time),722498.2999999523,012_o_f_n_a.png,O,m,399,14,1,1445.7999999523163,721052.5,7019,VNB,C,12
8,test,3,0.0,2-Back,0,z,Tue Sep 24 2024 17:01:41 GMT-0500 (Central Daylight Time),723931.2999999523,015_o_m_d_a.png,O,m,374,15,1,1428.699999988079,722502.5999999642,7019,VNB,C,13
9,test,3,1.0,2-Back,1,m,Tue Sep 24 2024 17:01:41 GMT-0500 (Central Daylight Time),725380.8999999762,019_m_f_h_a.png,O,m,389,16,1,1445.8999999761581,723935.0,7019,VNB,C,14
10,test,3,0.0,2-Back,1,m,Tue Sep 24 2024 17:01:41 GMT-0500 (Central Daylight Time),726897.0999999642,014_m_m_n_a.png,O,m,459,17,1,1512.5,725384.5999999642,7019,VNB,C,15
10,test,3,0.0,2-Back,0,z,Tue Sep 24 2024 17:01:41 GMT-0500 (Central Daylight Time),728313.0999999642,025_y_m_h_a.png,O,m,351,18,1,1412.300000011921,726900.7999999523,7019,VNB,C,16
0,test,4,0.0,2-Back,,,Tue Sep 24 2024 17:01:41 GMT-0500 (Central Daylight Time),728313.0999999642,019_m_f_n_a.png,O,space,1144,1,1,1412.300000011921,726900.7999999523,7019,VNB,C,0
0,test,4,0.0,2-Back,,,Tue Sep 24 2024 17:01:41 GMT-0500 (Central Daylight Time),728313.0999999642,015_o_m_n_a.png,O,space,1144,2,1,1412.300000011921,726900.7999999523,7019,VNB,C,0
1,test,4,1.0,2-Back,1,m,Tue Sep 24 2024 17:01:41 GMT-0500 (Central Daylight Time),736610.6999999881,025_y_m_h_a.png,O,m,791,3,1,1812.6000000238419,734798.0999999642,7019,VNB,C,1
1,test,4,1.0,2-Back,0,m,Tue Sep 24 2024 17:01:41 GMT-0500 (Central Daylight Time),739009.7999999523,012_o_f_d_a.png,O,z,1367,4,1,2394.399999976158,736615.3999999762,7019,VNB,C,2
2,test,4,0.0,2-Back,1,z,Tue Sep 24 2024 17:01:41 GMT-0500 (Central Daylight Time),741675.6999999881,015_o_m_h_a.png,O,z,1638,5,1,2662.0,739013.6999999881,7019,VNB,C,3
3,test,4,0.0,2-Back,1,m,Tue Sep 24 2024 17:01:41 GMT-0500 (Central Daylight Time),743891.6999999881,014_m_m_n_a.png,O,m,1198,6,1,2211.699999988079,741680.0,7019,VNB,C,4
4,test,4,0.0,2-Back,1,m,Tue Sep 24 2024 17:01:41 GMT-0500 (Central Daylight Time),745941.2999999523,019_m_f_d_a.png,O,m,1022,7,1,2045.7999999523163,743895.5,7019,VNB,C,5
4,test,4,0.0,2-Back,0,z,Tue Sep 24 2024 17:01:41 GMT-0500 (Central Daylight Time),747724.0,022_y_f_n_a.png,O,m,756,8,1,1778.7000000476837,745945.2999999523,7019,VNB,C,6
5,test,4,1.0,2-Back,1,m,Tue Sep 24 2024 17:01:41 GMT-0500 (Central Daylight Time),749256.7999999523,012_o_f_h_a.png,O,m,501,9,1,1529.0,747727.7999999523,7019,VNB,C,7
6,test,4,0.0,2-Back,1,m,Tue Sep 24 2024 17:01:41 GMT-0500 (Central Daylight Time),750772.7999999523,014_m_m_h_a.png,O,m,496,10,1,1511.3999999761581,749261.3999999762,7019,VNB,C,8
7,test,4,0.0,2-Back,1,m,Tue Sep 24 2024 17:01:41 GMT-0500 (Central Daylight Time),752272.3999999762,022_y_f_d_a.png,O,m,468,11,1,1495.8999999761581,750776.5,7019,VNB,C,9
8,test,4,0.0,2-Back,1,m,Tue Sep 24 2024 17:01:41 GMT-0500 (Central Daylight Time),753755.2999999523,025_y_m_n_a.png,O,m,457,12,1,1478.5999999642372,752276.6999999881,7019,VNB,C,10
8,test,4,0.0,2-Back,0,z,Tue Sep 24 2024 17:01:41 GMT-0500 (Central Daylight Time),755154.7999999523,015_o_m_d_a.png,O,m,382,13,1,1395.5,753759.2999999523,7019,VNB,C,11
9,test,4,1.0,2-Back,1,m,Tue Sep 24 2024 17:01:41 GMT-0500 (Central Daylight Time),756537.6999999881,019_m_f_h_a.png,O,m,358,14,1,1379.0,755158.6999999881,7019,VNB,C,12
10,test,4,1.0,2-Back,1,m,Tue Sep 24 2024 17:01:41 GMT-0500 (Central Daylight Time),757920.7999999523,022_y_f_h_a.png,O,m,302,15,1,1379.199999988079,756541.5999999642,7019,VNB,C,13
11,test,4,0.0,2-Back,1,m,Tue Sep 24 2024 17:01:41 GMT-0500 (Central Daylight Time),759287.0,012_o_f_n_a.png,O,m,311,16,1,1362.800000011921,757924.1999999881,7019,VNB,C,14
12,test,4,0.0,2-Back,1,m,Tue Sep 24 2024 17:01:41 GMT-0500 (Central Daylight Time),760603.2999999523,025_y_m_d_a.png,O,m,290,17,1,1313.0,759290.2999999523,7019,VNB,C,15
13,test,4,1.0,2-Back,1,m,Tue Sep 24 2024 17:01:41 GMT-0500 (Central Daylight Time),761969.3999999762,014_m_m_d_a.png,O,m,301,18,1,1362.3999999761581,760607.0,7019,VNB,C,16
0,test,5,1.0,2-Back,,,Tue Sep 24 2024 17:01:41 GMT-0500 (Central Daylight Time),761969.3999999762,022_y_f_d_a.png,O,space,1064,1,1,1362.3999999761581,760607.0,7019,VNB,C,0
0,test,5,1.0,2-Back,,,Tue Sep 24 2024 17:01:41 GMT-0500 (Central Daylight Time),761969.3999999762,012_o_f_h_a.png,O,space,1064,2,1,1362.3999999761581,760607.0,7019,VNB,C,0
1,test,5,1.0,2-Back,1,z,Tue Sep 24 2024 17:01:41 GMT-0500 (Central Daylight Time),770466.7999999523,015_o_m_d_a.png,O,z,1082,3,1,2145.2999999523163,768321.5,7019,VNB,C,1
2,test,5,1.0,2-Back,1,m,Tue Sep 24 2024 17:01:41 GMT-0500 (Central Daylight Time),773032.6999999881,019_m_f_n_a.png,O,m,1501,4,1,2561.900000035763,770470.7999999523,7019,VNB,C,2
3,test,5,0.0,2-Back,1,m,Tue Sep 24 2024 17:01:41 GMT-0500 (Central Daylight Time),775298.5,014_m_m_h_a.png,O,m,1249,5,1,2262.2000000476837,773036.2999999523,7019,VNB,C,3
3,test,5,0.0,2-Back,0,z,Tue Sep 24 2024 17:01:41 GMT-0500 (Central Daylight Time),777064.6999999881,022_y_f_n_a.png,O,m,701,6,1,1762.4000000357628,775302.2999999523,7019,VNB,C,4
4,test,5,0.0,2-Back,1,m,Tue Sep 24 2024 17:01:41 GMT-0500 (Central Daylight Time),778580.8999999762,012_o_f_d_a.png,O,m,455,7,1,1512.199999988079,777068.6999999881,7019,VNB,C,5
5,test,5,0.0,2-Back,1,m,Tue Sep 24 2024 17:01:41 GMT-0500 (Central Daylight Time),779947.1999999881,015_o_m_h_a.png,O,m,315,8,1,1362.199999988079,778585.0,7019,VNB,C,6
5,test,5,1.0,2-Back,0,z,Tue Sep 24 2024 17:01:41 GMT-0500 (Central Daylight Time),781346.8999999762,019_m_f_d_a.png,O,m,333,9,1,1395.6000000238419,779951.2999999523,7019,VNB,C,7
6,test,5,0.0,2-Back,1,m,Tue Sep 24 2024 17:01:41 GMT-0500 (Central Daylight Time),782679.7999999523,025_y_m_n_a.png,O,m,269,10,1,1329.0999999642372,781350.6999999881,7019,VNB,C,8
7,test,5,0.0,2-Back,1,m,Tue Sep 24 2024 17:01:41 GMT-0500 (Central Daylight Time),784062.8999999762,014_m_m_n_a.png,O,m,303,11,1,1379.1000000238419,782683.7999999523,7019,VNB,C,9
8,test,5,0.0,2-Back,1,m,Tue Sep 24 2024 17:01:41 GMT-0500 (Central Daylight Time),785412.3999999762,022_y_f_h_a.png,O,m,289,12,1,1345.8999999761581,784066.5,7019,VNB,C,10
9,test,5,0.0,2-Back,1,m,Tue Sep 24 2024 17:01:41 GMT-0500 (Central Daylight Time),786761.8999999762,025_y_m_d_a.png,O,m,275,13,1,1345.3999999761581,785416.5,7019,VNB,C,11
9,test,5,1.0,2-Back,0,z,Tue Sep 24 2024 17:01:41 GMT-0500 (Central Daylight Time),788194.8999999762,019_m_f_h_a.png,O,m,367,14,1,1429.8999999761581,786765.0,7019,VNB,C,12
10,test,5,0.0,2-Back,1,m,Tue Sep 24 2024 17:01:41 GMT-0500 (Central Daylight Time),789577.7999999523,015_o_m_n_a.png,O,m,317,15,1,1379.199999988079,788198.5999999642,7019,VNB,C,13
11,test,5,0.0,2-Back,1,m,Tue Sep 24 2024 17:01:41 GMT-0500 (Central Daylight Time),790927.2999999523,014_m_m_d_a.png,O,m,294,16,1,1345.699999988079,789581.5999999642,7019,VNB,C,14
11,test,5,0.0,2-Back,0,z,Tue Sep 24 2024 17:01:41 GMT-0500 (Central Daylight Time),792293.2999999523,012_o_f_n_a.png,O,m,346,17,1,1362.3999999761581,790930.8999999762,7019,VNB,C,15
12,test,5,1.0,2-Back,1,m,Tue Sep 24 2024 17:01:41 GMT-0500 (Central Daylight Time),793709.5999999642,025_y_m_h_a.png,O,m,388,18,1,1412.3999999761581,792297.1999999881,7019,VNB,C,16
