block_c,block_dur,condition,countdown,datetime,endtime,list,multichar_response,project,response,response_time,session_number,start_end,starttime,subject_id,task,task_vers,trial
,,,,Thu Mar 13 2025 17:23:57 GMT-0500 (Central Daylight Time),,,,O,space,516,1,,,7108,WL,C,
prac,,0,,Thu Mar 13 2025 17:23:57 GMT-0500 (Central Daylight Time),,NA,b,O,b,1466,1,,,7108,WL,C,1.0
prac,,0,,Thu Mar 13 2025 17:23:57 GMT-0500 (Central Daylight Time),,NA,bo,O,o,164,1,,,7108,WL,C,1.0
prac,,0,,Thu Mar 13 2025 17:23:57 GMT-0500 (Central Daylight Time),,NA,boo,O,o,125,1,,,7108,WL,C,1.0
prac,,0,,Thu Mar 13 2025 17:23:57 GMT-0500 (Central Daylight Time),,NA,boos,O,s,89,1,,,7108,WL,C,1.0
prac,,0,,Thu Mar 13 2025 17:23:57 GMT-0500 (Central Daylight Time),,NA,boost,O,t,162,1,,,7108,WL,C,1.0
prac,,0,,Thu Mar 13 2025 17:23:57 GMT-0500 (Central Daylight Time),,NA,boostenter,O,enter,3543,1,,,7108,WL,C,1.0
1,1.5839998722076416,learn,58416.00012779236,Thu Mar 13 2025 17:23:57 GMT-0500 (Central Daylight Time),149483.10000000056,A,t,O,t,1569,1,1584.2000000001863,147898.90000000037,7108,WL,C,1.0
1,2.0329999923706055,learn,57967.000007629395,Thu Mar 13 2025 17:23:57 GMT-0500 (Central Daylight Time),149932.2000000002,A,to,O,o,433,1,2033.2999999998137,147898.90000000037,7108,WL,C,1.0
1,2.4010000228881836,learn,57598.99997711182,Thu Mar 13 2025 17:23:57 GMT-0500 (Central Daylight Time),150300.10000000056,A,tow,O,w,361,1,2401.2000000001863,147898.90000000037,7108,WL,C,1.0
1,2.634000062942505,learn,57365.999937057495,Thu Mar 13 2025 17:23:57 GMT-0500 (Central Daylight Time),150532.90000000037,A,towe,O,e,224,1,2634.0,147898.90000000037,7108,WL,C,1.0
1,2.7839999198913574,learn,57216.00008010864,Thu Mar 13 2025 17:23:57 GMT-0500 (Central Daylight Time),150682.60000000056,A,tower,O,r,134,1,2783.7000000001863,147898.90000000037,7108,WL,C,1.0
1,3.115999937057495,learn,56884.000062942505,Thu Mar 13 2025 17:23:57 GMT-0500 (Central Daylight Time),151014.60000000056,A,towerenter,O,enter,321,1,3115.7000000001863,147898.90000000037,7108,WL,C,1.0
1,3.7660000324249268,learn,56233.99996757507,Thu Mar 13 2025 17:23:57 GMT-0500 (Central Daylight Time),151664.7999999998,A,w,O,w,638,1,649.6999999992549,151015.10000000056,7108,WL,C,2.0
1,4.098999977111816,learn,55901.00002288818,Thu Mar 13 2025 17:23:57 GMT-0500 (Central Daylight Time),151998.2000000002,A,wh,O,h,323,1,983.0999999996275,151015.10000000056,7108,WL,C,2.0
1,4.348999977111816,learn,55651.00002288818,Thu Mar 13 2025 17:23:57 GMT-0500 (Central Daylight Time),152247.7999999998,A,whe,O,e,237,1,1232.699999999255,151015.10000000056,7108,WL,C,2.0
1,4.783999919891357,learn,55216.00008010864,Thu Mar 13 2025 17:23:57 GMT-0500 (Central Daylight Time),152682.5,A,whea,O,a,428,1,1667.3999999994412,151015.10000000056,7108,WL,C,2.0
1,4.9649999141693115,learn,55035.00008583069,Thu Mar 13 2025 17:23:57 GMT-0500 (Central Daylight Time),152864.2000000002,A,wheat,O,t,159,1,1849.0999999996275,151015.10000000056,7108,WL,C,2.0
1,5.264999866485596,learn,54735.000133514404,Thu Mar 13 2025 17:23:57 GMT-0500 (Central Daylight Time),153163.5,A,wheatenter,O,enter,292,1,2148.399999999441,151015.10000000056,7108,WL,C,2.0
1,5.898000001907349,learn,54101.99999809265,Thu Mar 13 2025 17:23:57 GMT-0500 (Central Daylight Time),153797.2999999998,A,s,O,s,617,1,633.3999999994412,153163.90000000037,7108,WL,C,3.0
1,6.065000057220459,learn,53934.99994277954,Thu Mar 13 2025 17:23:57 GMT-0500 (Central Daylight Time),153964.0,A,su,O,u,145,1,800.0999999996275,153163.90000000037,7108,WL,C,3.0
1,6.434000015258789,learn,53565.99998474121,Thu Mar 13 2025 17:23:57 GMT-0500 (Central Daylight Time),154332.5,A,sug,O,g,360,1,1168.5999999996275,153163.90000000037,7108,WL,C,3.0
1,6.631999969482422,learn,53368.00003051758,Thu Mar 13 2025 17:23:57 GMT-0500 (Central Daylight Time),154531.10000000056,A,suga,O,a,191,1,1367.2000000001863,153163.90000000037,7108,WL,C,3.0
1,6.764999866485596,learn,53235.000133514404,Thu Mar 13 2025 17:23:57 GMT-0500 (Central Daylight Time),154663.7999999998,A,sugar,O,r,120,1,1499.8999999994412,153163.90000000037,7108,WL,C,3.0
1,11.432999849319458,learn,48567.00015068054,Thu Mar 13 2025 17:23:57 GMT-0500 (Central Daylight Time),159331.60000000056,A,sugarenter,O,enter,4645,1,6167.700000000186,153163.90000000037,7108,WL,C,3.0
1,12.779000043869019,learn,47220.99995613098,Thu Mar 13 2025 17:23:57 GMT-0500 (Central Daylight Time),160677.90000000037,A,b,O,b,1338,1,1345.7000000001863,159332.2000000002,7108,WL,C,4.0
1,12.94599986076355,learn,47054.00013923645,Thu Mar 13 2025 17:23:57 GMT-0500 (Central Daylight Time),160844.90000000037,A,bo,O,o,161,1,1512.7000000001863,159332.2000000002,7108,WL,C,4.0
1,13.11299991607666,learn,46887.00008392334,Thu Mar 13 2025 17:23:57 GMT-0500 (Central Daylight Time),161012.0,A,boy,O,y,149,1,1679.7999999998137,159332.2000000002,7108,WL,C,4.0
1,13.480000019073486,learn,46519.999980926514,Thu Mar 13 2025 17:23:57 GMT-0500 (Central Daylight Time),161378.60000000056,A,boyenter,O,enter,351,1,2046.4000000003725,159332.2000000002,7108,WL,C,4.0
1,14.444999933242798,learn,45555.0000667572,Thu Mar 13 2025 17:23:57 GMT-0500 (Central Daylight Time),162344.2999999998,A,h,O,h,944,1,965.2999999998137,161379.0,7108,WL,C,5.0
1,14.579999923706055,learn,45420.000076293945,Thu Mar 13 2025 17:23:57 GMT-0500 (Central Daylight Time),162479.2000000002,A,ho,O,o,123,1,1100.2000000001863,161379.0,7108,WL,C,5.0
1,14.76199984550476,learn,45238.00015449524,Thu Mar 13 2025 17:23:57 GMT-0500 (Central Daylight Time),162660.90000000037,A,hom,O,m,176,1,1281.9000000003725,161379.0,7108,WL,C,5.0
1,14.944000005722046,learn,45055.999994277954,Thu Mar 13 2025 17:23:57 GMT-0500 (Central Daylight Time),162843.5,A,home,O,e,166,1,1464.5,161379.0,7108,WL,C,5.0
1,15.294999837875366,learn,44705.000162124634,Thu Mar 13 2025 17:23:57 GMT-0500 (Central Daylight Time),163194.5,A,homeenter,O,enter,336,1,1815.5,161379.0,7108,WL,C,5.0
1,23.57699990272522,learn,36423.00009727478,Thu Mar 13 2025 17:23:57 GMT-0500 (Central Daylight Time),171476.0,A,c,O,c,8276,1,8281.200000000186,163194.7999999998,7108,WL,C,6.0
1,23.777999877929688,learn,36222.00012207031,Thu Mar 13 2025 17:23:57 GMT-0500 (Central Daylight Time),171676.60000000056,A,ca,O,a,194,1,8481.800000000745,163194.7999999998,7108,WL,C,6.0
1,24.191999912261963,learn,35808.00008773804,Thu Mar 13 2025 17:23:57 GMT-0500 (Central Daylight Time),172090.90000000037,A,cat,O,t,398,1,8896.100000000559,163194.7999999998,7108,WL,C,6.0
1,24.342999935150146,learn,35657.00006484985,Thu Mar 13 2025 17:23:57 GMT-0500 (Central Daylight Time),172241.5,A,catt,O,t,135,1,9046.700000000186,163194.7999999998,7108,WL,C,6.0
1,24.792999982833862,learn,35207.00001716614,Thu Mar 13 2025 17:23:57 GMT-0500 (Central Daylight Time),172691.5,A,cattl,O,l,434,1,9496.700000000186,163194.7999999998,7108,WL,C,6.0
1,25.177000045776367,learn,34822.99995422363,Thu Mar 13 2025 17:23:57 GMT-0500 (Central Daylight Time),173076.2999999998,A,cattle,O,e,378,1,9881.5,163194.7999999998,7108,WL,C,6.0
1,27.955999851226807,learn,32044.000148773193,Thu Mar 13 2025 17:23:57 GMT-0500 (Central Daylight Time),175855.2000000002,A,cattleenter,O,enter,2768,1,12660.400000000373,163194.7999999998,7108,WL,C,6.0
1,28.907000064849854,learn,31092.999935150146,Thu Mar 13 2025 17:23:57 GMT-0500 (Central Daylight Time),176806.0,A,b,O,b,942,1,950.5999999996275,175855.40000000037,7108,WL,C,7.0
1,29.0239999294281,learn,30976.0000705719,Thu Mar 13 2025 17:23:57 GMT-0500 (Central Daylight Time),176923.2000000002,A,bo,O,o,103,1,1067.7999999998137,175855.40000000037,7108,WL,C,7.0
1,29.506999969482422,learn,30493.000030517578,Thu Mar 13 2025 17:23:57 GMT-0500 (Central Daylight Time),177405.7999999998,A,boy,O,y,471,1,1550.3999999994412,175855.40000000037,7108,WL,C,7.0
1,30.27300000190735,learn,29726.99999809265,Thu Mar 13 2025 17:23:57 GMT-0500 (Central Daylight Time),178172.5,A,boyenter,O,enter,751,1,2317.0999999996275,175855.40000000037,7108,WL,C,7.0
1,51.11800003051758,learn,8881.999969482422,Thu Mar 13 2025 17:23:57 GMT-0500 (Central Daylight Time),199016.90000000037,A,enter,O,enter,20823,1,20843.900000000373,178173.0,7108,WL,C,8.0
1,60.01699995994568,learn,-16.99995994567871,Thu Mar 13 2025 17:23:57 GMT-0500 (Central Daylight Time),207915.7999999998,A,None,O,None,8892,1,8898.5,199017.2999999998,7108,WL,C,9.0
2,1.1669998168945312,learn,58833.00018310547,Thu Mar 13 2025 17:23:57 GMT-0500 (Central Daylight Time),281174.2999999998,A,t,O,t,1148,1,1166.0999999996275,280008.2000000002,7108,WL,C,1.0
2,1.25,learn,58750.0,Thu Mar 13 2025 17:23:57 GMT-0500 (Central Daylight Time),281257.7999999998,A,to,O,o,77,1,1249.5999999996275,280008.2000000002,7108,WL,C,1.0
2,1.4169998168945312,learn,58583.00018310547,Thu Mar 13 2025 17:23:57 GMT-0500 (Central Daylight Time),281424.0,A,tow,O,w,144,1,1415.7999999998137,280008.2000000002,7108,WL,C,1.0
2,1.6159999370574951,learn,58384.000062942505,Thu Mar 13 2025 17:23:57 GMT-0500 (Central Daylight Time),281623.0,A,towe,O,e,188,1,1614.7999999998137,280008.2000000002,7108,WL,C,1.0
2,1.7339999675750732,learn,58266.00003242493,Thu Mar 13 2025 17:23:57 GMT-0500 (Central Daylight Time),281741.0,A,tower,O,r,103,1,1732.7999999998137,280008.2000000002,7108,WL,C,1.0
2,2.299999952316284,learn,57700.000047683716,Thu Mar 13 2025 17:23:57 GMT-0500 (Central Daylight Time),282307.60000000056,A,towerenter,O,enter,560,1,2299.4000000003725,280008.2000000002,7108,WL,C,1.0
2,2.868000030517578,learn,57131.99996948242,Thu Mar 13 2025 17:23:57 GMT-0500 (Central Daylight Time),282875.4000000004,A,w,O,w,562,1,567.6000000005588,282307.7999999998,7108,WL,C,2.0
2,3.0149998664855957,learn,56985.000133514404,Thu Mar 13 2025 17:23:57 GMT-0500 (Central Daylight Time),283022.2999999998,A,wh,O,h,138,1,714.5,282307.7999999998,7108,WL,C,2.0
2,3.181999921798706,learn,56818.000078201294,Thu Mar 13 2025 17:23:57 GMT-0500 (Central Daylight Time),283189.60000000056,A,whe,O,e,150,1,881.8000000007451,282307.7999999998,7108,WL,C,2.0
2,3.5329999923706055,learn,56467.000007629395,Thu Mar 13 2025 17:23:57 GMT-0500 (Central Daylight Time),283540.9000000004,A,whea,O,a,342,1,1233.1000000005588,282307.7999999998,7108,WL,C,2.0
2,3.7170000076293945,learn,56282.999992370605,Thu Mar 13 2025 17:23:57 GMT-0500 (Central Daylight Time),283724.0,A,wheat,O,t,175,1,1416.2000000001863,282307.7999999998,7108,WL,C,2.0
2,4.015999794006348,learn,55984.00020599365,Thu Mar 13 2025 17:23:57 GMT-0500 (Central Daylight Time),284023.0,A,wheatenter,O,enter,279,1,1715.2000000001863,282307.7999999998,7108,WL,C,2.0
2,5.06499981880188,learn,54935.00018119812,Thu Mar 13 2025 17:23:57 GMT-0500 (Central Daylight Time),285072.4000000004,A,q,O,q,1037,1,1049.1000000005588,284023.2999999998,7108,WL,C,3.0
2,5.281999826431274,learn,54718.000173568726,Thu Mar 13 2025 17:23:57 GMT-0500 (Central Daylight Time),285289.5,A,qu,O,u,194,1,1266.2000000001863,284023.2999999998,7108,WL,C,3.0
2,5.514999866485596,learn,54485.000133514404,Thu Mar 13 2025 17:23:57 GMT-0500 (Central Daylight Time),285522.2999999998,A,que,O,e,216,1,1499.0,284023.2999999998,7108,WL,C,3.0
2,5.646999835968018,learn,54353.00016403198,Thu Mar 13 2025 17:23:57 GMT-0500 (Central Daylight Time),285655.0,A,quee,O,e,112,1,1631.7000000001863,284023.2999999998,7108,WL,C,3.0
2,5.797999858856201,learn,54202.0001411438,Thu Mar 13 2025 17:23:57 GMT-0500 (Central Daylight Time),285805.5,A,queen,O,n,131,1,1782.2000000001863,284023.2999999998,7108,WL,C,3.0
2,6.031999826431274,learn,53968.000173568726,Thu Mar 13 2025 17:23:57 GMT-0500 (Central Daylight Time),286039.9000000004,A,queenenter,O,enter,222,1,2016.6000000005588,284023.2999999998,7108,WL,C,3.0
2,6.563999891281128,learn,53436.00010871887,Thu Mar 13 2025 17:23:57 GMT-0500 (Central Daylight Time),286571.10000000056,A,s,O,s,517,1,530.9000000003725,286040.2000000002,7108,WL,C,4.0
2,7.131999969482422,learn,52868.00003051758,Thu Mar 13 2025 17:23:57 GMT-0500 (Central Daylight Time),287139.2000000002,A,su,O,u,560,1,1099.0,286040.2000000002,7108,WL,C,4.0
2,7.413999795913696,learn,52586.000204086304,Thu Mar 13 2025 17:23:57 GMT-0500 (Central Daylight Time),287421.60000000056,A,sug,O,g,274,1,1381.4000000003725,286040.2000000002,7108,WL,C,4.0
2,7.531999826431274,learn,52468.000173568726,Thu Mar 13 2025 17:23:57 GMT-0500 (Central Daylight Time),287539.7000000002,A,suga,O,a,111,1,1499.5,286040.2000000002,7108,WL,C,4.0
2,7.697000026702881,learn,52302.99997329712,Thu Mar 13 2025 17:23:57 GMT-0500 (Central Daylight Time),287704.9000000004,A,sugar,O,r,142,1,1664.7000000001863,286040.2000000002,7108,WL,C,4.0
2,8.413999795913696,learn,51586.000204086304,Thu Mar 13 2025 17:23:57 GMT-0500 (Central Daylight Time),288421.0,A,sugarenter,O,enter,705,1,2380.7999999998137,286040.2000000002,7108,WL,C,4.0
2,8.96399998664856,learn,51036.00001335144,Thu Mar 13 2025 17:23:57 GMT-0500 (Central Daylight Time),288971.10000000056,A,b,O,b,543,1,549.8000000007451,288421.2999999998,7108,WL,C,5.0
2,9.096999883651733,learn,50903.00011634827,Thu Mar 13 2025 17:23:57 GMT-0500 (Central Daylight Time),289104.60000000056,A,bo,O,o,110,1,683.3000000007451,288421.2999999998,7108,WL,C,5.0
2,9.480000019073486,learn,50519.999980926514,Thu Mar 13 2025 17:23:57 GMT-0500 (Central Daylight Time),289487.7999999998,A,boy,O,y,368,1,1066.5,288421.2999999998,7108,WL,C,5.0
2,10.745999813079834,learn,49254.000186920166,Thu Mar 13 2025 17:23:57 GMT-0500 (Central Daylight Time),290753.5,A,boyenter,O,enter,1244,1,2332.2000000001863,288421.2999999998,7108,WL,C,5.0
2,11.513999938964844,learn,48486.000061035156,Thu Mar 13 2025 17:23:57 GMT-0500 (Central Daylight Time),291521.60000000056,A,d,O,d,746,1,767.8000000007451,290753.7999999998,7108,WL,C,6.0
2,11.578999996185303,learn,48421.0000038147,Thu Mar 13 2025 17:23:57 GMT-0500 (Central Daylight Time),291586.10000000056,A,do,O,o,56,1,832.3000000007451,290753.7999999998,7108,WL,C,6.0
2,11.845999956130981,learn,48154.00004386902,Thu Mar 13 2025 17:23:57 GMT-0500 (Central Daylight Time),291853.5,A,doc,O,c,258,1,1099.7000000001863,290753.7999999998,7108,WL,C,6.0
2,12.11299991607666,learn,47887.00008392334,Thu Mar 13 2025 17:23:57 GMT-0500 (Central Daylight Time),292120.10000000056,A,doct,O,t,245,1,1366.300000000745,290753.7999999998,7108,WL,C,6.0
2,12.263000011444092,learn,47736.99998855591,Thu Mar 13 2025 17:23:57 GMT-0500 (Central Daylight Time),292270.5,A,docto,O,o,130,1,1516.7000000001863,290753.7999999998,7108,WL,C,6.0
2,12.429999828338623,learn,47570.00017166138,Thu Mar 13 2025 17:23:57 GMT-0500 (Central Daylight Time),292437.2999999998,A,doctor,O,r,160,1,1683.5,290753.7999999998,7108,WL,C,6.0
2,13.36299991607666,learn,46637.00008392334,Thu Mar 13 2025 17:23:57 GMT-0500 (Central Daylight Time),293370.7000000002,A,doctorenter,O,enter,925,1,2616.9000000003725,290753.7999999998,7108,WL,C,6.0
2,14.263000011444092,learn,45736.99998855591,Thu Mar 13 2025 17:23:57 GMT-0500 (Central Daylight Time),294270.4000000004,A,c,O,c,882,1,899.4000000003725,293371.0,7108,WL,C,7.0
2,14.378999948501587,learn,45621.00005149841,Thu Mar 13 2025 17:23:57 GMT-0500 (Central Daylight Time),294386.9000000004,A,ca,O,a,92,1,1015.9000000003725,293371.0,7108,WL,C,7.0
2,14.628999948501587,learn,45371.00005149841,Thu Mar 13 2025 17:23:57 GMT-0500 (Central Daylight Time),294636.4000000004,A,cat,O,t,242,1,1265.4000000003725,293371.0,7108,WL,C,7.0
2,14.763999938964844,learn,45236.000061035156,Thu Mar 13 2025 17:23:57 GMT-0500 (Central Daylight Time),294771.10000000056,A,catt,O,t,128,1,1400.1000000005588,293371.0,7108,WL,C,7.0
2,14.994999885559082,learn,45005.00011444092,Thu Mar 13 2025 17:23:57 GMT-0500 (Central Daylight Time),295002.7999999998,A,cattl,O,l,215,1,1631.7999999998137,293371.0,7108,WL,C,7.0
2,15.145999908447266,learn,44854.000091552734,Thu Mar 13 2025 17:23:57 GMT-0500 (Central Daylight Time),295153.10000000056,A,cattle,O,e,128,1,1782.1000000005588,293371.0,7108,WL,C,7.0
2,15.577999830245972,learn,44422.00016975403,Thu Mar 13 2025 17:23:57 GMT-0500 (Central Daylight Time),295585.60000000056,A,cattleenter,O,enter,419,1,2214.600000000559,293371.0,7108,WL,C,7.0
2,16.07799983024597,learn,43922.00016975403,Thu Mar 13 2025 17:23:57 GMT-0500 (Central Daylight Time),296085.4000000004,A,l,O,l,491,1,499.6000000005588,295585.7999999998,7108,WL,C,8.0
2,16.211999893188477,learn,43788.00010681152,Thu Mar 13 2025 17:23:57 GMT-0500 (Central Daylight Time),296219.5,A,la,O,a,116,1,633.7000000001863,295585.7999999998,7108,WL,C,8.0
2,16.609999895095825,learn,43390.000104904175,Thu Mar 13 2025 17:23:57 GMT-0500 (Central Daylight Time),296617.60000000056,A,l,O,backspace,391,1,1031.800000000745,295585.7999999998,7108,WL,C,8.0
2,16.84500002861023,learn,43154.99997138977,Thu Mar 13 2025 17:23:57 GMT-0500 (Central Daylight Time),296852.7000000002,A,le,O,e,220,1,1266.9000000003725,295585.7999999998,7108,WL,C,8.0
2,17.07799983024597,learn,42922.00016975403,Thu Mar 13 2025 17:23:57 GMT-0500 (Central Daylight Time),297085.7000000002,A,let,O,t,214,1,1499.9000000003725,295585.7999999998,7108,WL,C,8.0
2,17.19599986076355,learn,42804.00013923645,Thu Mar 13 2025 17:23:57 GMT-0500 (Central Daylight Time),297203.60000000056,A,lett,O,t,111,1,1617.800000000745,295585.7999999998,7108,WL,C,8.0
2,17.36299991607666,learn,42637.00008392334,Thu Mar 13 2025 17:23:57 GMT-0500 (Central Daylight Time),297370.2000000002,A,lette,O,e,152,1,1784.4000000003725,295585.7999999998,7108,WL,C,8.0
2,17.460999965667725,learn,42539.000034332275,Thu Mar 13 2025 17:23:57 GMT-0500 (Central Daylight Time),297468.7999999998,A,letter,O,r,82,1,1883.0,295585.7999999998,7108,WL,C,8.0
2,17.776999950408936,learn,42223.000049591064,Thu Mar 13 2025 17:23:57 GMT-0500 (Central Daylight Time),297784.5,A,letterenter,O,enter,295,1,2198.7000000001863,295585.7999999998,7108,WL,C,8.0
2,18.294999837875366,learn,41705.000162124634,Thu Mar 13 2025 17:23:57 GMT-0500 (Central Daylight Time),298302.2000000002,A,n,O,n,500,1,517.5,297784.7000000002,7108,WL,C,9.0
2,18.460999965667725,learn,41539.000034332275,Thu Mar 13 2025 17:23:57 GMT-0500 (Central Daylight Time),298468.4000000004,A,na,O,a,149,1,683.7000000001863,297784.7000000002,7108,WL,C,9.0
2,18.560999870300293,learn,41439.00012969971,Thu Mar 13 2025 17:23:57 GMT-0500 (Central Daylight Time),298569.0,A,nai,O,i,87,1,784.2999999998137,297784.7000000002,7108,WL,C,9.0
2,18.777999877929688,learn,41222.00012207031,Thu Mar 13 2025 17:23:57 GMT-0500 (Central Daylight Time),298785.2999999998,A,nail,O,l,196,1,1000.5999999996275,297784.7000000002,7108,WL,C,9.0
2,19.026999950408936,learn,40973.000049591064,Thu Mar 13 2025 17:23:57 GMT-0500 (Central Daylight Time),299034.5,A,nailenter,O,enter,234,1,1249.7999999998137,297784.7000000002,7108,WL,C,9.0
2,21.824999809265137,learn,38175.00019073486,Thu Mar 13 2025 17:23:57 GMT-0500 (Central Daylight Time),301832.7999999998,A,s,O,s,2785,1,2798.0,299034.7999999998,7108,WL,C,10.0
2,21.94099998474121,learn,38059.00001525879,Thu Mar 13 2025 17:23:57 GMT-0500 (Central Daylight Time),301949.0,A,sh,O,h,101,1,2914.2000000001863,299034.7999999998,7108,WL,C,10.0
2,22.073999881744385,learn,37926.000118255615,Thu Mar 13 2025 17:23:57 GMT-0500 (Central Daylight Time),302081.2999999998,A,sho,O,o,128,1,3046.5,299034.7999999998,7108,WL,C,10.0
2,22.20799994468689,learn,37792.00005531311,Thu Mar 13 2025 17:23:57 GMT-0500 (Central Daylight Time),302215.7999999998,A,shor,O,r,122,1,3181.0,299034.7999999998,7108,WL,C,10.0
2,22.323999881744385,learn,37676.000118255615,Thu Mar 13 2025 17:23:57 GMT-0500 (Central Daylight Time),302332.0,A,shore,O,e,110,1,3297.2000000001863,299034.7999999998,7108,WL,C,10.0
2,22.858999967575073,learn,37141.00003242493,Thu Mar 13 2025 17:23:57 GMT-0500 (Central Daylight Time),302867.10000000056,A,shoreenter,O,enter,522,1,3832.300000000745,299034.7999999998,7108,WL,C,10.0
2,34.92199993133545,learn,25078.00006866455,Thu Mar 13 2025 17:23:57 GMT-0500 (Central Daylight Time),314929.2999999998,A,l,O,l,12049,1,12062.0,302867.2999999998,7108,WL,C,11.0
2,35.15599989891052,learn,24844.000101089478,Thu Mar 13 2025 17:23:57 GMT-0500 (Central Daylight Time),315163.2999999998,A,le,O,e,216,1,12296.0,302867.2999999998,7108,WL,C,11.0
2,35.388999938964844,learn,24611.000061035156,Thu Mar 13 2025 17:23:57 GMT-0500 (Central Daylight Time),315396.2000000002,A,let,O,t,225,1,12528.900000000373,302867.2999999998,7108,WL,C,11.0
2,35.53999996185303,learn,24460.000038146973,Thu Mar 13 2025 17:23:57 GMT-0500 (Central Daylight Time),315547.2999999998,A,lett,O,t,143,1,12680.0,302867.2999999998,7108,WL,C,11.0
2,35.70700001716614,learn,24292.999982833862,Thu Mar 13 2025 17:23:57 GMT-0500 (Central Daylight Time),315714.4000000004,A,lette,O,e,159,1,12847.100000000559,302867.2999999998,7108,WL,C,11.0
2,35.805999994277954,learn,24194.000005722046,Thu Mar 13 2025 17:23:57 GMT-0500 (Central Daylight Time),315813.2999999998,A,letter,O,r,82,1,12946.0,302867.2999999998,7108,WL,C,11.0
2,37.05499982833862,learn,22945.000171661377,Thu Mar 13 2025 17:23:57 GMT-0500 (Central Daylight Time),317062.9000000004,A,letterenter,O,enter,1236,1,14195.600000000559,302867.2999999998,7108,WL,C,11.0
2,41.88699984550476,learn,18113.00015449524,Thu Mar 13 2025 17:23:57 GMT-0500 (Central Daylight Time),321894.60000000056,A,h,O,h,4813,1,4831.4000000003725,317063.2000000002,7108,WL,C,12.0
2,42.02199983596802,learn,17978.000164031982,Thu Mar 13 2025 17:23:57 GMT-0500 (Central Daylight Time),322030.10000000056,A,ho,O,o,117,1,4966.9000000003725,317063.2000000002,7108,WL,C,12.0
2,42.169999837875366,learn,17830.000162124634,Thu Mar 13 2025 17:23:57 GMT-0500 (Central Daylight Time),322177.2000000002,A,hom,O,m,134,1,5114.0,317063.2000000002,7108,WL,C,12.0
2,42.33699989318848,learn,17663.000106811523,Thu Mar 13 2025 17:23:57 GMT-0500 (Central Daylight Time),322344.10000000056,A,home,O,e,150,1,5280.9000000003725,317063.2000000002,7108,WL,C,12.0
2,42.61899995803833,learn,17381.00004196167,Thu Mar 13 2025 17:23:57 GMT-0500 (Central Daylight Time),322627.0,A,homeenter,O,enter,262,1,5563.799999999814,317063.2000000002,7108,WL,C,12.0
2,60.014999866485596,learn,-14.999866485595703,Thu Mar 13 2025 17:23:57 GMT-0500 (Central Daylight Time),340022.5,A,None,O,None,17390,1,17395.200000000186,322627.2999999998,7108,WL,C,13.0
3,0.500999927520752,learn,59499.00007247925,Thu Mar 13 2025 17:23:57 GMT-0500 (Central Daylight Time),408851.0,A,t,O,t,494,1,501.0,408350.0,7108,WL,C,1.0
3,0.6339998245239258,learn,59366.000175476074,Thu Mar 13 2025 17:23:57 GMT-0500 (Central Daylight Time),408983.2999999998,A,to,O,o,112,1,633.2999999998137,408350.0,7108,WL,C,1.0
3,0.9019999504089355,learn,59098.000049591064,Thu Mar 13 2025 17:23:57 GMT-0500 (Central Daylight Time),409251.7999999998,A,tow,O,w,246,1,901.7999999998137,408350.0,7108,WL,C,1.0
3,1.1019999980926514,learn,58898.00000190735,Thu Mar 13 2025 17:23:57 GMT-0500 (Central Daylight Time),409452.2999999998,A,towe,O,e,183,1,1102.2999999998137,408350.0,7108,WL,C,1.0
3,1.1999998092651367,learn,58800.00019073486,Thu Mar 13 2025 17:23:57 GMT-0500 (Central Daylight Time),409550.0,A,tower,O,r,78,1,1200.0,408350.0,7108,WL,C,1.0
3,1.4809999465942383,learn,58519.00005340576,Thu Mar 13 2025 17:23:57 GMT-0500 (Central Daylight Time),409831.10000000056,A,towerenter,O,enter,264,1,1481.1000000005588,408350.0,7108,WL,C,1.0
3,2.497999906539917,learn,57502.00009346008,Thu Mar 13 2025 17:23:57 GMT-0500 (Central Daylight Time),410848.0,A,w,O,w,997,1,1016.5,409831.5,7108,WL,C,2.0
3,2.6659998893737793,learn,57334.00011062622,Thu Mar 13 2025 17:23:57 GMT-0500 (Central Daylight Time),411016.0,A,wh,O,h,157,1,1184.5,409831.5,7108,WL,C,2.0
3,2.932999849319458,learn,57067.00015068054,Thu Mar 13 2025 17:23:57 GMT-0500 (Central Daylight Time),411282.7000000002,A,whe,O,e,251,1,1451.2000000001863,409831.5,7108,WL,C,2.0
3,3.25,learn,56750.0,Thu Mar 13 2025 17:23:57 GMT-0500 (Central Daylight Time),411599.60000000056,A,whea,O,a,306,1,1768.1000000005588,409831.5,7108,WL,C,2.0
3,3.4159998893737793,learn,56584.00011062622,Thu Mar 13 2025 17:23:57 GMT-0500 (Central Daylight Time),411766.0,A,wheat,O,t,156,1,1934.5,409831.5,7108,WL,C,2.0
3,3.6969997882843018,learn,56303.0002117157,Thu Mar 13 2025 17:23:57 GMT-0500 (Central Daylight Time),412046.7000000002,A,wheatenter,O,enter,271,1,2215.2000000001863,409831.5,7108,WL,C,2.0
3,4.815999984741211,learn,55184.00001525879,Thu Mar 13 2025 17:23:57 GMT-0500 (Central Daylight Time),413165.4000000004,A,q,O,q,1112,1,1118.6000000005588,412046.7999999998,7108,WL,C,3.0
3,4.997999906539917,learn,55002.00009346008,Thu Mar 13 2025 17:23:57 GMT-0500 (Central Daylight Time),413347.7999999998,A,qu,O,u,174,1,1301.0,412046.7999999998,7108,WL,C,3.0
3,5.23199987411499,learn,54768.00012588501,Thu Mar 13 2025 17:23:57 GMT-0500 (Central Daylight Time),413581.7999999998,A,que,O,e,224,1,1535.0,412046.7999999998,7108,WL,C,3.0
3,5.380999803543091,learn,54619.00019645691,Thu Mar 13 2025 17:23:57 GMT-0500 (Central Daylight Time),413731.0,A,quee,O,e,134,1,1684.2000000001863,412046.7999999998,7108,WL,C,3.0
3,5.497999906539917,learn,54502.00009346008,Thu Mar 13 2025 17:23:57 GMT-0500 (Central Daylight Time),413848.2999999998,A,queen,O,n,104,1,1801.5,412046.7999999998,7108,WL,C,3.0
3,5.73199987411499,learn,54268.00012588501,Thu Mar 13 2025 17:23:57 GMT-0500 (Central Daylight Time),414082.10000000056,A,queenenter,O,enter,220,1,2035.300000000745,412046.7999999998,7108,WL,C,3.0
3,6.130999803543091,learn,53869.00019645691,Thu Mar 13 2025 17:23:57 GMT-0500 (Central Daylight Time),414480.7000000002,A,s,O,s,385,1,398.29999999981374,414082.4000000004,7108,WL,C,4.0
3,6.2799999713897705,learn,53720.00002861023,Thu Mar 13 2025 17:23:57 GMT-0500 (Central Daylight Time),414629.7999999998,A,su,O,u,131,1,547.3999999994412,414082.4000000004,7108,WL,C,4.0
3,7.013999938964844,learn,52986.000061035156,Thu Mar 13 2025 17:23:57 GMT-0500 (Central Daylight Time),415363.7000000002,A,sug,O,g,717,1,1281.2999999998137,414082.4000000004,7108,WL,C,4.0
3,7.2799999713897705,learn,52720.00002861023,Thu Mar 13 2025 17:23:57 GMT-0500 (Central Daylight Time),415629.7999999998,A,suga,O,a,249,1,1547.3999999994412,414082.4000000004,7108,WL,C,4.0
3,7.414999961853027,learn,52585.00003814697,Thu Mar 13 2025 17:23:57 GMT-0500 (Central Daylight Time),415764.5,A,sugar,O,r,128,1,1682.0999999996275,414082.4000000004,7108,WL,C,4.0
3,7.745999813079834,learn,52254.000186920166,Thu Mar 13 2025 17:23:57 GMT-0500 (Central Daylight Time),416095.4000000004,A,sugarenter,O,enter,309,1,2013.0,414082.4000000004,7108,WL,C,4.0
3,8.730000019073486,learn,51269.999980926514,Thu Mar 13 2025 17:23:57 GMT-0500 (Central Daylight Time),417080.2000000002,A,b,O,b,966,1,984.5,416095.7000000002,7108,WL,C,5.0
3,8.830999851226807,learn,51169.00014877319,Thu Mar 13 2025 17:23:57 GMT-0500 (Central Daylight Time),417180.7999999998,A,bo,O,o,87,1,1085.0999999996275,416095.7000000002,7108,WL,C,5.0
3,9.23199987411499,learn,50768.00012588501,Thu Mar 13 2025 17:23:57 GMT-0500 (Central Daylight Time),417581.9000000004,A,boy,O,y,390,1,1486.2000000001863,416095.7000000002,7108,WL,C,5.0
3,9.52999997138977,learn,50470.00002861023,Thu Mar 13 2025 17:23:57 GMT-0500 (Central Daylight Time),417879.9000000004,A,boyenter,O,enter,288,1,1784.2000000001863,416095.7000000002,7108,WL,C,5.0
3,10.02999997138977,learn,49970.00002861023,Thu Mar 13 2025 17:23:57 GMT-0500 (Central Daylight Time),418379.7000000002,A,d,O,d,493,1,499.59999999962747,417880.10000000056,7108,WL,C,6.0
3,10.11299991607666,learn,49887.00008392334,Thu Mar 13 2025 17:23:57 GMT-0500 (Central Daylight Time),418462.7000000002,A,do,O,o,63,1,582.5999999996275,417880.10000000056,7108,WL,C,6.0
3,10.312999963760376,learn,49687.000036239624,Thu Mar 13 2025 17:23:57 GMT-0500 (Central Daylight Time),418663.2999999998,A,doc,O,c,180,1,783.1999999992549,417880.10000000056,7108,WL,C,6.0
3,10.51199984550476,learn,49488.00015449524,Thu Mar 13 2025 17:23:57 GMT-0500 (Central Daylight Time),418862.2000000002,A,doct,O,t,189,1,982.0999999996275,417880.10000000056,7108,WL,C,6.0
3,10.63099980354309,learn,49369.00019645691,Thu Mar 13 2025 17:23:57 GMT-0500 (Central Daylight Time),418980.5,A,docto,O,o,112,1,1100.3999999994412,417880.10000000056,7108,WL,C,6.0
3,10.980000019073486,learn,49019.999980926514,Thu Mar 13 2025 17:23:57 GMT-0500 (Central Daylight Time),419330.2999999998,A,doctor,O,r,335,1,1450.199999999255,417880.10000000056,7108,WL,C,6.0
3,11.263000011444092,learn,48736.99998855591,Thu Mar 13 2025 17:23:57 GMT-0500 (Central Daylight Time),419612.7999999998,A,doctorenter,O,enter,265,1,1732.699999999255,417880.10000000056,7108,WL,C,6.0
3,11.928999900817871,learn,48071.00009918213,Thu Mar 13 2025 17:23:57 GMT-0500 (Central Daylight Time),420279.10000000056,A,c,O,c,656,1,666.0,419613.10000000056,7108,WL,C,7.0
3,12.063999891281128,learn,47936.00010871887,Thu Mar 13 2025 17:23:57 GMT-0500 (Central Daylight Time),420413.5,A,ca,O,a,111,1,800.3999999994412,419613.10000000056,7108,WL,C,7.0
3,12.21399998664856,learn,47786.00001335144,Thu Mar 13 2025 17:23:57 GMT-0500 (Central Daylight Time),420563.60000000056,A,cam,O,m,142,1,950.5,419613.10000000056,7108,WL,C,7.0
3,12.429999828338623,learn,47570.00017166138,Thu Mar 13 2025 17:23:57 GMT-0500 (Central Daylight Time),420779.60000000056,A,camp,O,p,200,1,1166.5,419613.10000000056,7108,WL,C,7.0
3,12.710999965667725,learn,47289.000034332275,Thu Mar 13 2025 17:23:57 GMT-0500 (Central Daylight Time),421061.2999999998,A,campenter,O,enter,264,1,1448.199999999255,419613.10000000056,7108,WL,C,7.0
3,13.162999868392944,learn,46837.000131607056,Thu Mar 13 2025 17:23:57 GMT-0500 (Central Daylight Time),421512.5,A,n,O,n,438,1,450.79999999981374,421061.7000000002,7108,WL,C,8.0
3,13.296000003814697,learn,46703.9999961853,Thu Mar 13 2025 17:23:57 GMT-0500 (Central Daylight Time),421645.60000000056,A,na,O,a,123,1,583.9000000003725,421061.7000000002,7108,WL,C,8.0
3,13.396999835968018,learn,46603.00016403198,Thu Mar 13 2025 17:23:57 GMT-0500 (Central Daylight Time),421747.2999999998,A,nai,O,i,77,1,685.5999999996275,421061.7000000002,7108,WL,C,8.0
3,13.561999797821045,learn,46438.000202178955,Thu Mar 13 2025 17:23:57 GMT-0500 (Central Daylight Time),421912.4000000004,A,nail,O,l,144,1,850.7000000001863,421061.7000000002,7108,WL,C,8.0
3,13.828999996185303,learn,46171.0000038147,Thu Mar 13 2025 17:23:57 GMT-0500 (Central Daylight Time),422178.7000000002,A,nailenter,O,enter,252,1,1117.0,421061.7000000002,7108,WL,C,8.0
3,14.277999877929688,learn,45722.00012207031,Thu Mar 13 2025 17:23:57 GMT-0500 (Central Daylight Time),422628.0,A,c,O,c,443,1,449.09999999962747,422178.9000000004,7108,WL,C,9.0
3,14.396999835968018,learn,45603.00016403198,Thu Mar 13 2025 17:23:57 GMT-0500 (Central Daylight Time),422746.5,A,ca,O,a,105,1,567.5999999996275,422178.9000000004,7108,WL,C,9.0
3,14.629999876022339,learn,45370.00012397766,Thu Mar 13 2025 17:23:57 GMT-0500 (Central Daylight Time),422979.9000000004,A,cat,O,t,210,1,801.0,422178.9000000004,7108,WL,C,9.0
3,14.763000011444092,learn,45236.99998855591,Thu Mar 13 2025 17:23:57 GMT-0500 (Central Daylight Time),423112.5,A,catt,O,t,111,1,933.5999999996275,422178.9000000004,7108,WL,C,9.0
3,14.928999900817871,learn,45071.00009918213,Thu Mar 13 2025 17:23:57 GMT-0500 (Central Daylight Time),423278.60000000056,A,cattl,O,l,146,1,1099.7000000001863,422178.9000000004,7108,WL,C,9.0
3,15.162999868392944,learn,44837.000131607056,Thu Mar 13 2025 17:23:57 GMT-0500 (Central Daylight Time),423513.10000000056,A,cattle,O,e,212,1,1334.2000000001863,422178.9000000004,7108,WL,C,9.0
3,15.345999956130981,learn,44654.00004386902,Thu Mar 13 2025 17:23:57 GMT-0500 (Central Daylight Time),423695.7999999998,A,cattleenter,O,enter,171,1,1516.8999999994412,422178.9000000004,7108,WL,C,9.0
3,15.763000011444092,learn,44236.99998855591,Thu Mar 13 2025 17:23:57 GMT-0500 (Central Daylight Time),424112.4000000004,A,l,O,l,396,1,416.29999999981374,423696.10000000056,7108,WL,C,10.0
3,15.928999900817871,learn,44071.00009918213,Thu Mar 13 2025 17:23:57 GMT-0500 (Central Daylight Time),424278.9000000004,A,le,O,e,148,1,582.7999999998137,423696.10000000056,7108,WL,C,10.0
3,16.09499979019165,learn,43905.00020980835,Thu Mar 13 2025 17:23:57 GMT-0500 (Central Daylight Time),424444.9000000004,A,let,O,t,157,1,748.7999999998137,423696.10000000056,7108,WL,C,10.0
3,16.227999925613403,learn,43772.0000743866,Thu Mar 13 2025 17:23:57 GMT-0500 (Central Daylight Time),424577.7999999998,A,lett,O,t,117,1,881.6999999992549,423696.10000000056,7108,WL,C,10.0
3,16.36299991607666,learn,43637.00008392334,Thu Mar 13 2025 17:23:57 GMT-0500 (Central Daylight Time),424712.7000000002,A,lette,O,e,121,1,1016.5999999996275,423696.10000000056,7108,WL,C,10.0
3,16.426999807357788,learn,43573.00019264221,Thu Mar 13 2025 17:23:57 GMT-0500 (Central Daylight Time),424777.10000000056,A,letter,O,r,42,1,1081.0,423696.10000000056,7108,WL,C,10.0
3,17.860999822616577,learn,42139.00017738342,Thu Mar 13 2025 17:23:57 GMT-0500 (Central Daylight Time),426211.10000000056,A,letterenter,O,enter,1428,1,2515.0,423696.10000000056,7108,WL,C,10.0
3,19.5939998626709,learn,40406.0001373291,Thu Mar 13 2025 17:23:57 GMT-0500 (Central Daylight Time),427944.5,A,f,O,f,1722,1,1733.0999999996275,426211.4000000004,7108,WL,C,11.0
3,19.691999912261963,learn,40308.00008773804,Thu Mar 13 2025 17:23:57 GMT-0500 (Central Daylight Time),428042.2999999998,A,fl,O,l,80,1,1830.8999999994412,426211.4000000004,7108,WL,C,11.0
3,19.793999910354614,learn,40206.000089645386,Thu Mar 13 2025 17:23:57 GMT-0500 (Central Daylight Time),428144.2000000002,A,fla,O,a,80,1,1932.7999999998137,426211.4000000004,7108,WL,C,11.0
3,19.99399995803833,learn,40006.00004196167,Thu Mar 13 2025 17:23:57 GMT-0500 (Central Daylight Time),428344.2999999998,A,flag,O,g,187,1,2132.899999999441,426211.4000000004,7108,WL,C,11.0
3,21.276999950408936,learn,38723.000049591064,Thu Mar 13 2025 17:23:57 GMT-0500 (Central Daylight Time),429627.10000000056,A,flagenter,O,enter,1267,1,3415.7000000001863,426211.4000000004,7108,WL,C,11.0
3,24.759999990463257,learn,35240.00000953674,Thu Mar 13 2025 17:23:57 GMT-0500 (Central Daylight Time),433109.5,A,b,O,b,3467,1,3482.2000000001863,429627.2999999998,7108,WL,C,12.0
3,24.824999809265137,learn,35175.00019073486,Thu Mar 13 2025 17:23:57 GMT-0500 (Central Daylight Time),433174.4000000004,A,bo,O,o,53,1,3547.100000000559,429627.2999999998,7108,WL,C,12.0
3,25.007999897003174,learn,34992.000102996826,Thu Mar 13 2025 17:23:57 GMT-0500 (Central Daylight Time),433358.2000000002,A,bod,O,d,173,1,3730.9000000003725,429627.2999999998,7108,WL,C,12.0
3,25.14199995994568,learn,34858.00004005432,Thu Mar 13 2025 17:23:57 GMT-0500 (Central Daylight Time),433491.60000000056,A,body,O,y,115,1,3864.300000000745,429627.2999999998,7108,WL,C,12.0
3,25.39199995994568,learn,34608.00004005432,Thu Mar 13 2025 17:23:57 GMT-0500 (Central Daylight Time),433741.60000000056,A,bodyenter,O,enter,226,1,4114.300000000745,429627.2999999998,7108,WL,C,12.0
3,33.02300000190735,learn,26976.99999809265,Thu Mar 13 2025 17:23:57 GMT-0500 (Central Daylight Time),441372.7000000002,A,l,O,l,7615,1,7630.799999999814,433741.9000000004,7108,WL,C,13.0
3,34.57299995422363,learn,25427.000045776367,Thu Mar 13 2025 17:23:57 GMT-0500 (Central Daylight Time),442922.7999999998,A,le,O,e,1534,1,9180.899999999441,433741.9000000004,7108,WL,C,13.0
3,36.870999813079834,learn,23129.000186920166,Thu Mar 13 2025 17:23:57 GMT-0500 (Central Daylight Time),445220.9000000004,A,let,O,t,2277,1,11479.0,433741.9000000004,7108,WL,C,13.0
3,37.306999921798706,learn,22693.000078201294,Thu Mar 13 2025 17:23:57 GMT-0500 (Central Daylight Time),445656.7000000002,A,lett,O,t,417,1,11914.799999999814,433741.9000000004,7108,WL,C,13.0
3,39.30399990081787,learn,20696.00009918213,Thu Mar 13 2025 17:23:57 GMT-0500 (Central Daylight Time),447654.5,A,lette,O,e,1985,1,13912.599999999627,433741.9000000004,7108,WL,C,13.0
3,40.98899984359741,learn,19011.000156402588,Thu Mar 13 2025 17:23:57 GMT-0500 (Central Daylight Time),449338.9000000004,A,lett,O,backspace,1667,1,15597.0,433741.9000000004,7108,WL,C,13.0
3,41.33899998664856,learn,18661.00001335144,Thu Mar 13 2025 17:23:57 GMT-0500 (Central Daylight Time),449688.5,A,let,O,backspace,325,1,15946.599999999627,433741.9000000004,7108,WL,C,13.0
3,41.6729998588562,learn,18327.0001411438,Thu Mar 13 2025 17:23:57 GMT-0500 (Central Daylight Time),450022.4000000004,A,le,O,backspace,317,1,16280.5,433741.9000000004,7108,WL,C,13.0
3,42.020999908447266,learn,17979.000091552734,Thu Mar 13 2025 17:23:57 GMT-0500 (Central Daylight Time),450370.9000000004,A,l,O,backspace,323,1,16629.0,433741.9000000004,7108,WL,C,13.0
3,43.76899981498718,learn,16231.000185012817,Thu Mar 13 2025 17:23:57 GMT-0500 (Central Daylight Time),452118.7999999998,A,,O,backspace,1729,1,18376.89999999944,433741.9000000004,7108,WL,C,13.0
3,46.28699994087219,learn,13713.000059127808,Thu Mar 13 2025 17:23:57 GMT-0500 (Central Daylight Time),454637.2000000002,A,n,O,n,2498,1,20895.299999999814,433741.9000000004,7108,WL,C,13.0
3,47.03600001335144,learn,12963.99998664856,Thu Mar 13 2025 17:23:57 GMT-0500 (Central Daylight Time),455386.0,A,na,O,a,729,1,21644.099999999627,433741.9000000004,7108,WL,C,13.0
3,48.085999965667725,learn,11914.000034332275,Thu Mar 13 2025 17:23:57 GMT-0500 (Central Daylight Time),456435.7999999998,A,nai,O,i,1043,1,22693.89999999944,433741.9000000004,7108,WL,C,13.0
3,48.984999895095825,learn,11015.000104904175,Thu Mar 13 2025 17:23:57 GMT-0500 (Central Daylight Time),457335.2999999998,A,nail,O,l,884,1,23593.39999999944,433741.9000000004,7108,WL,C,13.0
3,53.8989999294281,learn,6101.000070571899,Thu Mar 13 2025 17:23:57 GMT-0500 (Central Daylight Time),462248.7999999998,A,nailenter,O,enter,4893,1,28506.89999999944,433741.9000000004,7108,WL,C,13.0
3,59.31499981880188,learn,685.0001811981201,Thu Mar 13 2025 17:23:57 GMT-0500 (Central Daylight Time),467664.9000000004,A,h,O,h,5404,1,5415.9000000003725,462249.0,7108,WL,C,14.0
3,59.44799995422363,learn,552.0000457763672,Thu Mar 13 2025 17:23:57 GMT-0500 (Central Daylight Time),467797.7000000002,A,ho,O,o,123,1,5548.700000000186,462249.0,7108,WL,C,14.0
3,59.63099980354309,learn,369.0001964569092,Thu Mar 13 2025 17:23:57 GMT-0500 (Central Daylight Time),467981.5,A,hom,O,m,167,1,5732.5,462249.0,7108,WL,C,14.0
3,59.782999992370605,learn,217.00000762939453,Thu Mar 13 2025 17:23:57 GMT-0500 (Central Daylight Time),468132.60000000056,A,home,O,e,144,1,5883.600000000559,462249.0,7108,WL,C,14.0
3,60.013999938964844,learn,-13.99993896484375,Thu Mar 13 2025 17:23:57 GMT-0500 (Central Daylight Time),468364.2000000002,A,homeNone,O,None,226,1,6115.200000000186,462249.0,7108,WL,C,14.0
4,0.5669999122619629,learn,59433.00008773804,Thu Mar 13 2025 17:23:57 GMT-0500 (Central Daylight Time),536826.5,A,t,O,t,554,1,567.2000000001863,536259.2999999998,7108,WL,C,1.0
4,0.682999849319458,learn,59317.00015068054,Thu Mar 13 2025 17:23:57 GMT-0500 (Central Daylight Time),536942.2999999998,A,to,O,o,105,1,683.0,536259.2999999998,7108,WL,C,1.0
4,0.934999942779541,learn,59065.00005722046,Thu Mar 13 2025 17:23:57 GMT-0500 (Central Daylight Time),537194.0,A,tow,O,w,246,1,934.7000000001863,536259.2999999998,7108,WL,C,1.0
4,1.1669998168945312,learn,58833.00018310547,Thu Mar 13 2025 17:23:57 GMT-0500 (Central Daylight Time),537426.7999999998,A,towe,O,e,227,1,1167.5,536259.2999999998,7108,WL,C,1.0
4,1.316999912261963,learn,58683.00008773804,Thu Mar 13 2025 17:23:57 GMT-0500 (Central Daylight Time),537576.7000000002,A,tower,O,r,126,1,1317.4000000003725,536259.2999999998,7108,WL,C,1.0
4,1.616999864578247,learn,58383.00013542175,Thu Mar 13 2025 17:23:57 GMT-0500 (Central Daylight Time),537876.0,A,towerenter,O,enter,291,1,1616.7000000001863,536259.2999999998,7108,WL,C,1.0
4,4.747999906539917,learn,55252.00009346008,Thu Mar 13 2025 17:23:57 GMT-0500 (Central Daylight Time),541006.9000000004,A,w,O,w,3121,1,3130.7000000001863,537876.2000000002,7108,WL,C,2.0
4,5.013999938964844,learn,54986.000061035156,Thu Mar 13 2025 17:23:57 GMT-0500 (Central Daylight Time),541273.2999999998,A,wh,O,h,251,1,3397.0999999996275,537876.2000000002,7108,WL,C,2.0
4,5.198999881744385,learn,54801.000118255615,Thu Mar 13 2025 17:23:57 GMT-0500 (Central Daylight Time),541458.2999999998,A,whe,O,e,171,1,3582.0999999996275,537876.2000000002,7108,WL,C,2.0
4,5.415999889373779,learn,54584.00011062622,Thu Mar 13 2025 17:23:57 GMT-0500 (Central Daylight Time),541675.5,A,whea,O,a,212,1,3799.2999999998137,537876.2000000002,7108,WL,C,2.0
4,5.546999931335449,learn,54453.00006866455,Thu Mar 13 2025 17:23:57 GMT-0500 (Central Daylight Time),541806.2999999998,A,wheat,O,t,119,1,3930.0999999996275,537876.2000000002,7108,WL,C,2.0
4,5.8459999561309814,learn,54154.00004386902,Thu Mar 13 2025 17:23:57 GMT-0500 (Central Daylight Time),542105.2999999998,A,wheatenter,O,enter,295,1,4229.0999999996275,537876.2000000002,7108,WL,C,2.0
4,7.832000017166138,learn,52167.99998283386,Thu Mar 13 2025 17:23:57 GMT-0500 (Central Daylight Time),544090.9000000004,A,q,O,q,1963,1,1985.4000000003725,542105.5,7108,WL,C,3.0
4,7.98199987411499,learn,52018.00012588501,Thu Mar 13 2025 17:23:57 GMT-0500 (Central Daylight Time),544241.0,A,qu,O,u,136,1,2135.5,542105.5,7108,WL,C,3.0
4,8.096999883651733,learn,51903.00011634827,Thu Mar 13 2025 17:23:57 GMT-0500 (Central Daylight Time),544356.2000000002,A,que,O,e,97,1,2250.7000000001863,542105.5,7108,WL,C,3.0
4,8.230000019073486,learn,51769.999980926514,Thu Mar 13 2025 17:23:57 GMT-0500 (Central Daylight Time),544489.2999999998,A,quee,O,e,120,1,2383.7999999998137,542105.5,7108,WL,C,3.0
4,8.38099980354309,learn,51619.00019645691,Thu Mar 13 2025 17:23:57 GMT-0500 (Central Daylight Time),544640.7999999998,A,queen,O,n,130,1,2535.2999999998137,542105.5,7108,WL,C,3.0
4,8.580999851226807,learn,51419.00014877319,Thu Mar 13 2025 17:23:57 GMT-0500 (Central Daylight Time),544840.4000000004,A,queenenter,O,enter,187,1,2734.9000000003725,542105.5,7108,WL,C,3.0
4,9.180999994277954,learn,50819.000005722046,Thu Mar 13 2025 17:23:57 GMT-0500 (Central Daylight Time),545440.4000000004,A,s,O,s,588,1,599.7000000001863,544840.7000000002,7108,WL,C,4.0
4,9.280999898910522,learn,50719.00010108948,Thu Mar 13 2025 17:23:57 GMT-0500 (Central Daylight Time),545540.0,A,sh,O,h,85,1,699.2999999998137,544840.7000000002,7108,WL,C,4.0
4,9.495999813079834,learn,50504.000186920166,Thu Mar 13 2025 17:23:57 GMT-0500 (Central Daylight Time),545755.6000000006,A,shu,O,u,200,1,914.9000000003725,544840.7000000002,7108,WL,C,4.0
4,9.878999948501587,learn,50121.00005149841,Thu Mar 13 2025 17:23:57 GMT-0500 (Central Daylight Time),546138.7999999998,A,sh,O,backspace,368,1,1298.0999999996275,544840.7000000002,7108,WL,C,4.0
4,10.04699993133545,learn,49953.00006866455,Thu Mar 13 2025 17:23:57 GMT-0500 (Central Daylight Time),546306.2999999998,A,s,O,backspace,152,1,1465.5999999996275,544840.7000000002,7108,WL,C,4.0
4,10.34500002861023,learn,49654.99997138977,Thu Mar 13 2025 17:23:57 GMT-0500 (Central Daylight Time),546604.7000000002,A,su,O,u,282,1,1764.0,544840.7000000002,7108,WL,C,4.0
4,10.846999883651733,learn,49153.00011634827,Thu Mar 13 2025 17:23:57 GMT-0500 (Central Daylight Time),547106.1000000006,A,sug,O,g,487,1,2265.4000000003725,544840.7000000002,7108,WL,C,4.0
4,11.013999938964844,learn,48986.000061035156,Thu Mar 13 2025 17:23:57 GMT-0500 (Central Daylight Time),547273.6000000006,A,suga,O,a,155,1,2432.9000000003725,544840.7000000002,7108,WL,C,4.0
4,11.128999948501587,learn,48871.00005149841,Thu Mar 13 2025 17:23:57 GMT-0500 (Central Daylight Time),547388.6000000006,A,sugar,O,r,98,1,2547.9000000003725,544840.7000000002,7108,WL,C,4.0
4,11.411999940872192,learn,48588.00005912781,Thu Mar 13 2025 17:23:57 GMT-0500 (Central Daylight Time),547671.7999999998,A,sugarenter,O,enter,263,1,2831.0999999996275,544840.7000000002,7108,WL,C,4.0
4,12.061999797821045,learn,47938.000202178955,Thu Mar 13 2025 17:23:57 GMT-0500 (Central Daylight Time),548321.6000000006,A,h,O,h,637,1,649.6000000005588,547672.0,7108,WL,C,5.0
4,12.19599986076355,learn,47804.00013923645,Thu Mar 13 2025 17:23:57 GMT-0500 (Central Daylight Time),548455.6000000006,A,ho,O,o,123,1,783.6000000005588,547672.0,7108,WL,C,5.0
4,12.36299991607666,learn,47637.00008392334,Thu Mar 13 2025 17:23:57 GMT-0500 (Central Daylight Time),548621.9000000004,A,hom,O,m,149,1,949.9000000003725,547672.0,7108,WL,C,5.0
4,12.51199984550476,learn,47488.00015449524,Thu Mar 13 2025 17:23:57 GMT-0500 (Central Daylight Time),548771.6000000006,A,home,O,e,133,1,1099.6000000005588,547672.0,7108,WL,C,5.0
4,12.878999948501587,learn,47121.00005149841,Thu Mar 13 2025 17:23:57 GMT-0500 (Central Daylight Time),549138.0,A,homeenter,O,enter,353,1,1466.0,547672.0,7108,WL,C,5.0
4,13.462999820709229,learn,46537.00017929077,Thu Mar 13 2025 17:23:57 GMT-0500 (Central Daylight Time),549722.6000000006,A,b,O,b,571,1,584.4000000003725,549138.2000000002,7108,WL,C,6.0
4,13.544999837875366,learn,46455.000162124634,Thu Mar 13 2025 17:23:57 GMT-0500 (Central Daylight Time),549804.7000000002,A,bo,O,o,61,1,666.5,549138.2000000002,7108,WL,C,6.0
4,14.04699993133545,learn,45953.00006866455,Thu Mar 13 2025 17:23:57 GMT-0500 (Central Daylight Time),550306.5,A,boy,O,y,495,1,1168.2999999998137,549138.2000000002,7108,WL,C,6.0
4,14.828999996185303,learn,45171.0000038147,Thu Mar 13 2025 17:23:57 GMT-0500 (Central Daylight Time),551088.0,A,boyenter,O,enter,759,1,1949.7999999998137,549138.2000000002,7108,WL,C,6.0
4,15.361999988555908,learn,44638.00001144409,Thu Mar 13 2025 17:23:57 GMT-0500 (Central Daylight Time),551621.2999999998,A,d,O,d,528,1,533.0999999996275,551088.2000000002,7108,WL,C,7.0
4,15.476999998092651,learn,44523.00000190735,Thu Mar 13 2025 17:23:57 GMT-0500 (Central Daylight Time),551736.2999999998,A,do,O,o,94,1,648.0999999996275,551088.2000000002,7108,WL,C,7.0
4,15.828999996185303,learn,44171.0000038147,Thu Mar 13 2025 17:23:57 GMT-0500 (Central Daylight Time),552088.1000000006,A,doc,O,c,332,1,999.9000000003725,551088.2000000002,7108,WL,C,7.0
4,16.046000003814697,learn,43953.9999961853,Thu Mar 13 2025 17:23:57 GMT-0500 (Central Daylight Time),552305.4000000004,A,doct,O,t,213,1,1217.2000000001863,551088.2000000002,7108,WL,C,7.0
4,16.211999893188477,learn,43788.00010681152,Thu Mar 13 2025 17:23:57 GMT-0500 (Central Daylight Time),552472.1000000006,A,docto,O,o,146,1,1383.9000000003725,551088.2000000002,7108,WL,C,7.0
4,16.611999988555908,learn,43388.00001144409,Thu Mar 13 2025 17:23:57 GMT-0500 (Central Daylight Time),552871.6000000006,A,doctor,O,r,378,1,1783.4000000003725,551088.2000000002,7108,WL,C,7.0
4,18.91100001335144,learn,41088.99998664856,Thu Mar 13 2025 17:23:57 GMT-0500 (Central Daylight Time),555170.4000000004,A,doctorenter,O,enter,2276,1,4082.2000000001863,551088.2000000002,7108,WL,C,7.0
4,19.776999950408936,learn,40223.000049591064,Thu Mar 13 2025 17:23:57 GMT-0500 (Central Daylight Time),556036.0,A,c,O,c,858,1,865.3999999994412,555170.6000000006,7108,WL,C,8.0
4,19.911999940872192,learn,40088.00005912781,Thu Mar 13 2025 17:23:57 GMT-0500 (Central Daylight Time),556171.7000000002,A,ca,O,a,120,1,1001.0999999996275,555170.6000000006,7108,WL,C,8.0
4,20.07799983024597,learn,39922.00016975403,Thu Mar 13 2025 17:23:57 GMT-0500 (Central Daylight Time),556337.6000000006,A,cam,O,m,144,1,1167.0,555170.6000000006,7108,WL,C,8.0
4,20.259999990463257,learn,39740.00000953674,Thu Mar 13 2025 17:23:57 GMT-0500 (Central Daylight Time),556519.7999999998,A,camp,O,p,170,1,1349.199999999255,555170.6000000006,7108,WL,C,8.0
4,20.557999849319458,learn,39442.00015068054,Thu Mar 13 2025 17:23:57 GMT-0500 (Central Daylight Time),556817.1000000006,A,campenter,O,enter,291,1,1646.5,555170.6000000006,7108,WL,C,8.0
4,21.074999809265137,learn,38925.00019073486,Thu Mar 13 2025 17:23:57 GMT-0500 (Central Daylight Time),557334.4000000004,A,f,O,f,500,1,517.1000000005588,556817.2999999998,7108,WL,C,9.0
4,21.157999992370605,learn,38842.000007629395,Thu Mar 13 2025 17:23:57 GMT-0500 (Central Daylight Time),557417.4000000004,A,fl,O,l,79,1,600.1000000005588,556817.2999999998,7108,WL,C,9.0
4,21.293999910354614,learn,38706.000089645386,Thu Mar 13 2025 17:23:57 GMT-0500 (Central Daylight Time),557553.2000000002,A,fla,O,a,124,1,735.9000000003725,556817.2999999998,7108,WL,C,9.0
4,21.509999990463257,learn,38490.00000953674,Thu Mar 13 2025 17:23:57 GMT-0500 (Central Daylight Time),557769.7000000002,A,flag,O,g,195,1,952.4000000003725,556817.2999999998,7108,WL,C,9.0
4,23.694999933242798,learn,36305.0000667572,Thu Mar 13 2025 17:23:57 GMT-0500 (Central Daylight Time),559953.9000000004,A,flagenter,O,enter,2177,1,3136.600000000559,556817.2999999998,7108,WL,C,9.0
4,25.825999975204468,learn,34174.00002479553,Thu Mar 13 2025 17:23:57 GMT-0500 (Central Daylight Time),562085.4000000004,A,c,O,c,2116,1,2131.2000000001863,559954.2000000002,7108,WL,C,10.0
4,25.944000005722046,learn,34055.999994277954,Thu Mar 13 2025 17:23:57 GMT-0500 (Central Daylight Time),562202.9000000004,A,co,O,o,102,1,2248.7000000001863,559954.2000000002,7108,WL,C,10.0
4,26.108999967575073,learn,33891.00003242493,Thu Mar 13 2025 17:23:57 GMT-0500 (Central Daylight Time),562368.7000000002,A,cor,O,r,153,1,2414.5,559954.2000000002,7108,WL,C,10.0
4,26.274999856948853,learn,33725.00014305115,Thu Mar 13 2025 17:23:57 GMT-0500 (Central Daylight Time),562534.2000000002,A,corn,O,n,153,1,2580.0,559954.2000000002,7108,WL,C,10.0
4,26.556999921798706,learn,33443.000078201294,Thu Mar 13 2025 17:23:57 GMT-0500 (Central Daylight Time),562816.2999999998,A,cornenter,O,enter,271,1,2862.0999999996275,559954.2000000002,7108,WL,C,10.0
4,27.375999927520752,learn,32624.000072479248,Thu Mar 13 2025 17:23:57 GMT-0500 (Central Daylight Time),563635.0,A,n,O,n,814,1,818.3999999994412,562816.6000000006,7108,WL,C,11.0
4,27.506999969482422,learn,32493.000030517578,Thu Mar 13 2025 17:23:57 GMT-0500 (Central Daylight Time),563766.0,A,na,O,a,112,1,949.3999999994412,562816.6000000006,7108,WL,C,11.0
4,27.574999809265137,learn,32425.000190734863,Thu Mar 13 2025 17:23:57 GMT-0500 (Central Daylight Time),563833.9000000004,A,nai,O,i,51,1,1017.2999999998137,562816.6000000006,7108,WL,C,11.0
4,27.741999864578247,learn,32258.000135421753,Thu Mar 13 2025 17:23:57 GMT-0500 (Central Daylight Time),564001.2000000002,A,nail,O,l,153,1,1184.5999999996275,562816.6000000006,7108,WL,C,11.0
4,27.973999977111816,learn,32026.000022888184,Thu Mar 13 2025 17:23:57 GMT-0500 (Central Daylight Time),564233.7000000002,A,nailenter,O,enter,226,1,1417.0999999996275,562816.6000000006,7108,WL,C,11.0
4,29.057999849319458,learn,30942.000150680542,Thu Mar 13 2025 17:23:57 GMT-0500 (Central Daylight Time),565317.2000000002,A,c,O,c,1075,1,1083.2000000001863,564234.0,7108,WL,C,12.0
4,29.174000024795532,learn,30825.999975204468,Thu Mar 13 2025 17:23:57 GMT-0500 (Central Daylight Time),565433.7000000002,A,ca,O,a,109,1,1199.7000000001863,564234.0,7108,WL,C,12.0
4,29.424000024795532,learn,30575.999975204468,Thu Mar 13 2025 17:23:57 GMT-0500 (Central Daylight Time),565683.5,A,cat,O,t,243,1,1449.5,564234.0,7108,WL,C,12.0
4,29.55900001525879,learn,30440.99998474121,Thu Mar 13 2025 17:23:57 GMT-0500 (Central Daylight Time),565818.6000000006,A,catt,O,t,128,1,1584.6000000005588,564234.0,7108,WL,C,12.0
4,29.740999937057495,learn,30259.000062942505,Thu Mar 13 2025 17:23:57 GMT-0500 (Central Daylight Time),566000.2000000002,A,cattl,O,l,157,1,1766.2000000001863,564234.0,7108,WL,C,12.0
4,29.9229998588562,learn,30077.0001411438,Thu Mar 13 2025 17:23:57 GMT-0500 (Central Daylight Time),566182.6000000006,A,cattle,O,e,163,1,1948.6000000005588,564234.0,7108,WL,C,12.0
4,32.0239999294281,learn,27976.0000705719,Thu Mar 13 2025 17:23:57 GMT-0500 (Central Daylight Time),568283.1000000006,A,cattleenter,O,enter,2093,1,4049.100000000559,564234.0,7108,WL,C,12.0
4,33.37299990653992,learn,26627.000093460083,Thu Mar 13 2025 17:23:57 GMT-0500 (Central Daylight Time),569632.9000000004,A,b,O,b,1337,1,1349.5,568283.4000000004,7108,WL,C,13.0
4,33.48899984359741,learn,26511.000156402588,Thu Mar 13 2025 17:23:57 GMT-0500 (Central Daylight Time),569748.9000000004,A,bo,O,o,99,1,1465.5,568283.4000000004,7108,WL,C,13.0
4,33.722999811172485,learn,26277.000188827515,Thu Mar 13 2025 17:23:57 GMT-0500 (Central Daylight Time),569982.9000000004,A,bod,O,d,214,1,1699.5,568283.4000000004,7108,WL,C,13.0
4,33.82200002670288,learn,26177.99997329712,Thu Mar 13 2025 17:23:57 GMT-0500 (Central Daylight Time),570081.7000000002,A,body,O,y,85,1,1798.2999999998137,568283.4000000004,7108,WL,C,13.0
4,34.59099984169006,learn,25409.000158309937,Thu Mar 13 2025 17:23:57 GMT-0500 (Central Daylight Time),570850.2999999998,A,bodyenter,O,enter,764,1,2566.899999999441,568283.4000000004,7108,WL,C,13.0
4,36.805999994277954,learn,23194.000005722046,Thu Mar 13 2025 17:23:57 GMT-0500 (Central Daylight Time),573065.0,A,s,O,s,2203,1,2214.5999999996275,570850.4000000004,7108,WL,C,14.0
4,36.9210000038147,learn,23078.999996185303,Thu Mar 13 2025 17:23:57 GMT-0500 (Central Daylight Time),573180.5,A,sh,O,h,109,1,2330.0999999996275,570850.4000000004,7108,WL,C,14.0
4,37.07299995422363,learn,22927.000045776367,Thu Mar 13 2025 17:23:57 GMT-0500 (Central Daylight Time),573332.2000000002,A,sho,O,o,134,1,2481.7999999998137,570850.4000000004,7108,WL,C,14.0
4,38.187999963760376,learn,21812.000036239624,Thu Mar 13 2025 17:23:57 GMT-0500 (Central Daylight Time),574447.4000000004,A,shor,O,r,1100,1,3597.0,570850.4000000004,7108,WL,C,14.0
4,38.30499982833862,learn,21695.000171661377,Thu Mar 13 2025 17:23:57 GMT-0500 (Central Daylight Time),574564.1000000006,A,shore,O,e,110,1,3713.7000000001863,570850.4000000004,7108,WL,C,14.0
4,39.61999988555908,learn,20380.000114440918,Thu Mar 13 2025 17:23:57 GMT-0500 (Central Daylight Time),575879.2000000002,A,shoreenter,O,enter,1293,1,5028.799999999814,570850.4000000004,7108,WL,C,14.0
4,45.15299987792969,learn,14847.000122070312,Thu Mar 13 2025 17:23:57 GMT-0500 (Central Daylight Time),581412.0,A,f,O,f,5512,1,5532.5999999996275,575879.4000000004,7108,WL,C,15.0
4,47.20199990272522,learn,12798.00009727478,Thu Mar 13 2025 17:23:57 GMT-0500 (Central Daylight Time),583461.0,A,,O,backspace,2030,1,7581.5999999996275,575879.4000000004,7108,WL,C,15.0
4,49.800999879837036,learn,10199.000120162964,Thu Mar 13 2025 17:23:57 GMT-0500 (Central Daylight Time),586060.6000000006,A,c,O,c,2585,1,10181.200000000186,575879.4000000004,7108,WL,C,15.0
4,50.001999855041504,learn,9998.000144958496,Thu Mar 13 2025 17:23:57 GMT-0500 (Central Daylight Time),586260.9000000004,A,co,O,o,194,1,10381.5,575879.4000000004,7108,WL,C,15.0
4,50.30199980735779,learn,9698.000192642212,Thu Mar 13 2025 17:23:57 GMT-0500 (Central Daylight Time),586561.4000000004,A,cor,O,r,280,1,10682.0,575879.4000000004,7108,WL,C,15.0
4,50.50099992752075,learn,9499.000072479248,Thu Mar 13 2025 17:23:57 GMT-0500 (Central Daylight Time),586760.2000000002,A,corn,O,n,177,1,10880.799999999814,575879.4000000004,7108,WL,C,15.0
4,54.88199996948242,learn,5118.000030517578,Thu Mar 13 2025 17:23:57 GMT-0500 (Central Daylight Time),591141.7000000002,A,cornenter,O,enter,4364,1,15262.299999999814,575879.4000000004,7108,WL,C,15.0
5,0.5199999809265137,learn,60000.0,Thu Mar 13 2025 17:23:57 GMT-0500 (Central Daylight Time),666854.1000000006,A,t,O,t,512,1,520.0,666334.1000000006,7108,WL,C,1.0
5,0.6669998168945312,learn,60000.0,Thu Mar 13 2025 17:23:57 GMT-0500 (Central Daylight Time),667001.1000000006,A,to,O,o,133,1,667.0,666334.1000000006,7108,WL,C,1.0
5,0.8839998245239258,learn,60000.0,Thu Mar 13 2025 17:23:57 GMT-0500 (Central Daylight Time),667217.7000000002,A,tow,O,w,203,1,883.5999999996275,666334.1000000006,7108,WL,C,1.0
5,1.0329999923706055,learn,60000.0,Thu Mar 13 2025 17:23:57 GMT-0500 (Central Daylight Time),667366.7000000002,A,towe,O,e,139,1,1032.5999999996275,666334.1000000006,7108,WL,C,1.0
5,1.1659998893737793,learn,60000.0,Thu Mar 13 2025 17:23:57 GMT-0500 (Central Daylight Time),667499.7999999998,A,tower,O,r,112,1,1165.699999999255,666334.1000000006,7108,WL,C,1.0
5,1.4829998016357422,learn,60000.0,Thu Mar 13 2025 17:23:57 GMT-0500 (Central Daylight Time),667817.1000000006,A,towerenter,O,enter,294,1,1483.0,666334.1000000006,7108,WL,C,1.0
5,3.1659998893737793,learn,60000.0,Thu Mar 13 2025 17:23:57 GMT-0500 (Central Daylight Time),669499.5,A,w,O,w,1668,1,1682.2000000001863,667817.2999999998,7108,WL,C,2.0
5,3.366999864578247,learn,60000.0,Thu Mar 13 2025 17:23:57 GMT-0500 (Central Daylight Time),669701.0,A,wh,O,h,183,1,1883.7000000001863,667817.2999999998,7108,WL,C,2.0
5,3.5,learn,60000.0,Thu Mar 13 2025 17:23:57 GMT-0500 (Central Daylight Time),669834.1000000006,A,whe,O,e,108,1,2016.800000000745,667817.2999999998,7108,WL,C,2.0
5,3.750999927520752,learn,60000.0,Thu Mar 13 2025 17:23:57 GMT-0500 (Central Daylight Time),670084.2000000002,A,whea,O,a,234,1,2266.9000000003725,667817.2999999998,7108,WL,C,2.0
5,3.883999824523926,learn,60000.0,Thu Mar 13 2025 17:23:57 GMT-0500 (Central Daylight Time),670217.2000000002,A,wheat,O,t,118,1,2399.9000000003725,667817.2999999998,7108,WL,C,2.0
5,4.132999897003174,learn,60000.0,Thu Mar 13 2025 17:23:57 GMT-0500 (Central Daylight Time),670466.5,A,wheatenter,O,enter,242,1,2649.2000000001863,667817.2999999998,7108,WL,C,2.0
5,5.5329999923706055,learn,60000.0,Thu Mar 13 2025 17:23:57 GMT-0500 (Central Daylight Time),671866.2999999998,A,q,O,q,1387,1,1399.5,670466.7999999998,7108,WL,C,3.0
5,5.765999794006348,learn,60000.0,Thu Mar 13 2025 17:23:57 GMT-0500 (Central Daylight Time),672099.4000000004,A,qu,O,u,217,1,1632.6000000005588,670466.7999999998,7108,WL,C,3.0
5,5.984999895095825,learn,60000.0,Thu Mar 13 2025 17:23:57 GMT-0500 (Central Daylight Time),672318.1000000006,A,que,O,e,211,1,1851.300000000745,670466.7999999998,7108,WL,C,3.0
5,6.148999929428101,learn,60000.0,Thu Mar 13 2025 17:23:57 GMT-0500 (Central Daylight Time),672482.4000000004,A,quee,O,e,156,1,2015.6000000005588,670466.7999999998,7108,WL,C,3.0
5,6.298999786376953,learn,60000.0,Thu Mar 13 2025 17:23:57 GMT-0500 (Central Daylight Time),672632.2999999998,A,queen,O,n,130,1,2165.5,670466.7999999998,7108,WL,C,3.0
5,6.515999794006348,learn,60000.0,Thu Mar 13 2025 17:23:57 GMT-0500 (Central Daylight Time),672849.1000000006,A,queenenter,O,enter,197,1,2382.300000000745,670466.7999999998,7108,WL,C,3.0
5,6.914999961853027,learn,60000.0,Thu Mar 13 2025 17:23:57 GMT-0500 (Central Daylight Time),673248.7999999998,A,s,O,s,388,1,399.3999999994412,672849.4000000004,7108,WL,C,4.0
5,7.031999826431274,learn,60000.0,Thu Mar 13 2025 17:23:57 GMT-0500 (Central Daylight Time),673366.1000000006,A,su,O,u,106,1,516.7000000001863,672849.4000000004,7108,WL,C,4.0
5,7.430999994277954,learn,60000.0,Thu Mar 13 2025 17:23:57 GMT-0500 (Central Daylight Time),673764.6000000006,A,sug,O,g,381,1,915.2000000001863,672849.4000000004,7108,WL,C,4.0
5,7.580999851226807,learn,60000.0,Thu Mar 13 2025 17:23:57 GMT-0500 (Central Daylight Time),673914.7000000002,A,suga,O,a,136,1,1065.2999999998137,672849.4000000004,7108,WL,C,4.0
5,7.680999994277954,learn,60000.0,Thu Mar 13 2025 17:23:57 GMT-0500 (Central Daylight Time),674014.6000000006,A,sugar,O,r,78,1,1165.2000000001863,672849.4000000004,7108,WL,C,4.0
5,7.98199987411499,learn,60000.0,Thu Mar 13 2025 17:23:57 GMT-0500 (Central Daylight Time),674315.7999999998,A,sugarenter,O,enter,295,1,1466.3999999994412,672849.4000000004,7108,WL,C,4.0
5,9.280999898910522,learn,60000.0,Thu Mar 13 2025 17:23:57 GMT-0500 (Central Daylight Time),675614.7000000002,A,h,O,h,1280,1,1298.7000000001863,674316.0,7108,WL,C,5.0
5,9.41599988937378,learn,60000.0,Thu Mar 13 2025 17:23:57 GMT-0500 (Central Daylight Time),675749.1000000006,A,ho,O,o,116,1,1433.1000000005588,674316.0,7108,WL,C,5.0
5,9.566999912261963,learn,60000.0,Thu Mar 13 2025 17:23:57 GMT-0500 (Central Daylight Time),675900.6000000006,A,hom,O,m,136,1,1584.6000000005588,674316.0,7108,WL,C,5.0
5,9.748999834060669,learn,60000.0,Thu Mar 13 2025 17:23:57 GMT-0500 (Central Daylight Time),676082.9000000004,A,home,O,e,163,1,1766.9000000003725,674316.0,7108,WL,C,5.0
5,9.912999868392944,learn,60000.0,Thu Mar 13 2025 17:23:57 GMT-0500 (Central Daylight Time),676246.7000000002,A,homeenter,O,enter,153,1,1930.7000000001863,674316.0,7108,WL,C,5.0
5,10.512999773025513,learn,60000.0,Thu Mar 13 2025 17:23:57 GMT-0500 (Central Daylight Time),676846.9000000004,A,b,O,b,591,1,600.0,676246.9000000004,7108,WL,C,6.0
5,10.629999876022339,learn,60000.0,Thu Mar 13 2025 17:23:57 GMT-0500 (Central Daylight Time),676963.9000000004,A,bo,O,o,97,1,717.0,676246.9000000004,7108,WL,C,6.0
5,10.864999771118164,learn,60000.0,Thu Mar 13 2025 17:23:57 GMT-0500 (Central Daylight Time),677198.4000000004,A,boy,O,y,213,1,951.5,676246.9000000004,7108,WL,C,6.0
5,11.163999795913696,learn,60000.0,Thu Mar 13 2025 17:23:57 GMT-0500 (Central Daylight Time),677498.0,A,boyenter,O,enter,281,1,1251.0999999996275,676246.9000000004,7108,WL,C,6.0
5,11.597999811172485,learn,60000.0,Thu Mar 13 2025 17:23:57 GMT-0500 (Central Daylight Time),677931.9000000004,A,d,O,d,429,1,433.5,677498.4000000004,7108,WL,C,7.0
5,11.699999809265137,learn,60000.0,Thu Mar 13 2025 17:23:57 GMT-0500 (Central Daylight Time),678033.2000000002,A,do,O,o,87,1,534.7999999998137,677498.4000000004,7108,WL,C,7.0
5,11.912999868392944,learn,60000.0,Thu Mar 13 2025 17:23:57 GMT-0500 (Central Daylight Time),678246.4000000004,A,doc,O,c,202,1,748.0,677498.4000000004,7108,WL,C,7.0
5,12.116999864578247,learn,60000.0,Thu Mar 13 2025 17:23:57 GMT-0500 (Central Daylight Time),678450.1000000006,A,doct,O,t,189,1,951.7000000001863,677498.4000000004,7108,WL,C,7.0
5,12.263999938964844,learn,60000.0,Thu Mar 13 2025 17:23:57 GMT-0500 (Central Daylight Time),678597.5,A,docto,O,o,141,1,1099.0999999996275,677498.4000000004,7108,WL,C,7.0
5,12.648000001907349,learn,60000.0,Thu Mar 13 2025 17:23:57 GMT-0500 (Central Daylight Time),678981.4000000004,A,doctor,O,r,374,1,1483.0,677498.4000000004,7108,WL,C,7.0
5,13.996999979019165,learn,60000.0,Thu Mar 13 2025 17:23:57 GMT-0500 (Central Daylight Time),680330.4000000004,A,doctorenter,O,enter,1335,1,2832.0,677498.4000000004,7108,WL,C,7.0
5,15.479999780654907,learn,60000.0,Thu Mar 13 2025 17:23:57 GMT-0500 (Central Daylight Time),681814.0,A,c,O,c,1467,1,1483.2999999998137,680330.7000000002,7108,WL,C,8.0
5,15.629999876022339,learn,60000.0,Thu Mar 13 2025 17:23:57 GMT-0500 (Central Daylight Time),681963.5,A,ca,O,a,135,1,1632.7999999998137,680330.7000000002,7108,WL,C,8.0
5,15.797999858856201,learn,60000.0,Thu Mar 13 2025 17:23:57 GMT-0500 (Central Daylight Time),682132.1000000006,A,cam,O,m,144,1,1801.4000000003725,680330.7000000002,7108,WL,C,8.0
5,15.997999906539917,learn,60000.0,Thu Mar 13 2025 17:23:57 GMT-0500 (Central Daylight Time),682331.2000000002,A,camp,O,p,194,1,2000.5,680330.7000000002,7108,WL,C,8.0
5,16.296000003814697,learn,60000.0,Thu Mar 13 2025 17:23:57 GMT-0500 (Central Daylight Time),682629.1000000006,A,campenter,O,enter,281,1,2298.4000000003725,680330.7000000002,7108,WL,C,8.0
5,17.078999996185303,learn,60000.0,Thu Mar 13 2025 17:23:57 GMT-0500 (Central Daylight Time),683412.1000000006,A,f,O,f,762,1,782.7000000001863,682629.4000000004,7108,WL,C,9.0
5,17.19599986076355,learn,60000.0,Thu Mar 13 2025 17:23:57 GMT-0500 (Central Daylight Time),683529.1000000006,A,fl,O,l,106,1,899.7000000001863,682629.4000000004,7108,WL,C,9.0
5,17.328999996185303,learn,60000.0,Thu Mar 13 2025 17:23:57 GMT-0500 (Central Daylight Time),683663.0,A,fla,O,a,114,1,1033.5999999996275,682629.4000000004,7108,WL,C,9.0
5,17.563999891281128,learn,60000.0,Thu Mar 13 2025 17:23:57 GMT-0500 (Central Daylight Time),683897.9000000004,A,flag,O,g,229,1,1268.5,682629.4000000004,7108,WL,C,9.0
5,19.0939998626709,learn,60000.0,Thu Mar 13 2025 17:23:57 GMT-0500 (Central Daylight Time),685427.7999999998,A,flagenter,O,enter,1524,1,2798.399999999441,682629.4000000004,7108,WL,C,9.0
5,19.877999782562256,learn,60000.0,Thu Mar 13 2025 17:23:57 GMT-0500 (Central Daylight Time),686211.6000000006,A,l,O,l,776,1,783.6000000005588,685428.0,7108,WL,C,10.0
5,20.027999877929688,learn,60000.0,Thu Mar 13 2025 17:23:57 GMT-0500 (Central Daylight Time),686361.7000000002,A,le,O,e,139,1,933.7000000001863,685428.0,7108,WL,C,10.0
5,20.244999885559082,learn,60000.0,Thu Mar 13 2025 17:23:57 GMT-0500 (Central Daylight Time),686578.4000000004,A,let,O,t,211,1,1150.4000000003725,685428.0,7108,WL,C,10.0
5,20.394999980926514,learn,60000.0,Thu Mar 13 2025 17:23:57 GMT-0500 (Central Daylight Time),686728.2999999998,A,lett,O,t,129,1,1300.2999999998137,685428.0,7108,WL,C,10.0
5,20.560999870300293,learn,60000.0,Thu Mar 13 2025 17:23:57 GMT-0500 (Central Daylight Time),686895.0,A,lette,O,e,148,1,1467.0,685428.0,7108,WL,C,10.0
5,20.643999814987183,learn,60000.0,Thu Mar 13 2025 17:23:57 GMT-0500 (Central Daylight Time),686977.2999999998,A,letter,O,r,61,1,1549.2999999998137,685428.0,7108,WL,C,10.0
5,22.176999807357788,learn,60000.0,Thu Mar 13 2025 17:23:57 GMT-0500 (Central Daylight Time),688510.5,A,letterenter,O,enter,1513,1,3082.5,685428.0,7108,WL,C,10.0
5,22.861999988555908,learn,60000.0,Thu Mar 13 2025 17:23:57 GMT-0500 (Central Daylight Time),689195.7999999998,A,c,O,c,670,1,685.0,688510.7999999998,7108,WL,C,11.0
5,22.97699999809265,learn,60000.0,Thu Mar 13 2025 17:23:57 GMT-0500 (Central Daylight Time),689310.9000000004,A,co,O,o,102,1,800.1000000005588,688510.7999999998,7108,WL,C,11.0
5,23.227999925613403,learn,60000.0,Thu Mar 13 2025 17:23:57 GMT-0500 (Central Daylight Time),689561.2999999998,A,cor,O,r,236,1,1050.5,688510.7999999998,7108,WL,C,11.0
5,23.359999895095825,learn,60000.0,Thu Mar 13 2025 17:23:57 GMT-0500 (Central Daylight Time),689693.6000000006,A,corm,O,m,122,1,1182.800000000745,688510.7999999998,7108,WL,C,11.0
5,24.043999910354614,learn,60000.0,Thu Mar 13 2025 17:23:57 GMT-0500 (Central Daylight Time),690377.7999999998,A,cor,O,backspace,671,1,1867.0,688510.7999999998,7108,WL,C,11.0
5,24.775999784469604,learn,60000.0,Thu Mar 13 2025 17:23:57 GMT-0500 (Central Daylight Time),691109.7000000002,A,corn,O,n,723,1,2598.9000000003725,688510.7999999998,7108,WL,C,11.0
5,25.526999950408936,learn,60000.0,Thu Mar 13 2025 17:23:57 GMT-0500 (Central Daylight Time),691860.4000000004,A,cornenter,O,enter,734,1,3349.600000000559,688510.7999999998,7108,WL,C,11.0
5,26.241999864578247,learn,60000.0,Thu Mar 13 2025 17:23:57 GMT-0500 (Central Daylight Time),692575.5,A,n,O,n,696,1,714.7999999998137,691860.7000000002,7108,WL,C,12.0
5,26.408999919891357,learn,60000.0,Thu Mar 13 2025 17:23:57 GMT-0500 (Central Daylight Time),692742.4000000004,A,na,O,a,157,1,881.7000000001863,691860.7000000002,7108,WL,C,12.0
5,26.49399995803833,learn,60000.0,Thu Mar 13 2025 17:23:57 GMT-0500 (Central Daylight Time),692827.7000000002,A,nai,O,i,67,1,967.0,691860.7000000002,7108,WL,C,12.0
5,26.66099977493286,learn,60000.0,Thu Mar 13 2025 17:23:57 GMT-0500 (Central Daylight Time),692994.7000000002,A,nail,O,l,159,1,1134.0,691860.7000000002,7108,WL,C,12.0
5,27.22599983215332,learn,60000.0,Thu Mar 13 2025 17:23:57 GMT-0500 (Central Daylight Time),693560.0,A,nailenter,O,enter,555,1,1699.2999999998137,691860.7000000002,7108,WL,C,12.0
5,29.51199984550476,learn,60000.0,Thu Mar 13 2025 17:23:57 GMT-0500 (Central Daylight Time),695845.2000000002,A,l,O,l,2280,1,2284.9000000003725,693560.2999999998,7108,WL,C,13.0
5,29.675999879837036,learn,60000.0,Thu Mar 13 2025 17:23:57 GMT-0500 (Central Daylight Time),696009.2999999998,A,le,O,e,151,1,2449.0,693560.2999999998,7108,WL,C,13.0
5,29.906999826431274,learn,60000.0,Thu Mar 13 2025 17:23:57 GMT-0500 (Central Daylight Time),696240.9000000004,A,let,O,t,216,1,2680.600000000559,693560.2999999998,7108,WL,C,13.0
5,30.04199981689453,learn,60000.0,Thu Mar 13 2025 17:23:57 GMT-0500 (Central Daylight Time),696375.2999999998,A,lett,O,t,123,1,2815.0,693560.2999999998,7108,WL,C,13.0
5,30.20899987220764,learn,60000.0,Thu Mar 13 2025 17:23:57 GMT-0500 (Central Daylight Time),696542.2000000002,A,lette,O,e,157,1,2981.9000000003725,693560.2999999998,7108,WL,C,13.0
5,30.29199981689453,learn,60000.0,Thu Mar 13 2025 17:23:57 GMT-0500 (Central Daylight Time),696626.1000000006,A,letter,O,r,79,1,3065.800000000745,693560.2999999998,7108,WL,C,13.0
5,30.941999912261963,learn,60000.0,Thu Mar 13 2025 17:23:57 GMT-0500 (Central Daylight Time),697275.1000000006,A,letterenter,O,enter,626,1,3714.800000000745,693560.2999999998,7108,WL,C,13.0
5,31.390999794006348,learn,60000.0,Thu Mar 13 2025 17:23:57 GMT-0500 (Central Daylight Time),697724.6000000006,A,s,O,s,442,1,449.30000000074506,697275.2999999998,7108,WL,C,14.0
5,31.45799994468689,learn,60000.0,Thu Mar 13 2025 17:23:57 GMT-0500 (Central Daylight Time),697792.1000000006,A,sh,O,h,48,1,516.8000000007451,697275.2999999998,7108,WL,C,14.0
5,31.58999991416931,learn,60000.0,Thu Mar 13 2025 17:23:57 GMT-0500 (Central Daylight Time),697923.7000000002,A,sho,O,o,123,1,648.4000000003725,697275.2999999998,7108,WL,C,14.0
5,31.758999824523926,learn,60000.0,Thu Mar 13 2025 17:23:57 GMT-0500 (Central Daylight Time),698092.2999999998,A,shor,O,r,151,1,817.0,697275.2999999998,7108,WL,C,14.0
5,31.906999826431274,learn,60000.0,Thu Mar 13 2025 17:23:57 GMT-0500 (Central Daylight Time),698240.6000000006,A,shore,O,e,126,1,965.3000000007451,697275.2999999998,7108,WL,C,14.0
5,33.073999881744385,learn,60000.0,Thu Mar 13 2025 17:23:57 GMT-0500 (Central Daylight Time),699407.7000000002,A,shoreenter,O,enter,1156,1,2132.4000000003725,697275.2999999998,7108,WL,C,14.0
5,33.60699987411499,learn,60000.0,Thu Mar 13 2025 17:23:57 GMT-0500 (Central Daylight Time),699940.5,A,b,O,b,529,1,532.5,699408.0,7108,WL,C,15.0
5,33.69099998474121,learn,60000.0,Thu Mar 13 2025 17:23:57 GMT-0500 (Central Daylight Time),700025.0,A,bo,O,o,64,1,617.0,699408.0,7108,WL,C,15.0
5,33.907999992370605,learn,60000.0,Thu Mar 13 2025 17:23:57 GMT-0500 (Central Daylight Time),700241.2000000002,A,bod,O,d,195,1,833.2000000001863,699408.0,7108,WL,C,15.0
5,34.04199981689453,learn,60000.0,Thu Mar 13 2025 17:23:57 GMT-0500 (Central Daylight Time),700375.9000000004,A,body,O,y,115,1,967.9000000003725,699408.0,7108,WL,C,15.0
5,34.639999866485596,learn,60000.0,Thu Mar 13 2025 17:23:57 GMT-0500 (Central Daylight Time),700973.2999999998,A,bodyenter,O,enter,589,1,1565.2999999998137,699408.0,7108,WL,C,15.0
6,0.9649999141693115,distr,59035.00008583069,Thu Mar 13 2025 17:23:57 GMT-0500 (Central Daylight Time),786779.1000000006,B,c,O,c,943,1,965.1000000005588,785814.0,7108,WL,C,1.0
6,1.0999999046325684,distr,58900.00009536743,Thu Mar 13 2025 17:23:57 GMT-0500 (Central Daylight Time),786913.7000000002,B,ch,O,h,109,1,1099.7000000001863,785814.0,7108,WL,C,1.0
6,1.2829999923706055,distr,58717.000007629395,Thu Mar 13 2025 17:23:57 GMT-0500 (Central Daylight Time),787096.6000000006,B,chr,O,r,161,1,1282.6000000005588,785814.0,7108,WL,C,1.0
6,1.4010000228881836,distr,58598.99997711182,Thu Mar 13 2025 17:23:57 GMT-0500 (Central Daylight Time),787214.2999999998,B,chri,O,i,94,1,1400.2999999998137,785814.0,7108,WL,C,1.0
6,1.5339999198913574,distr,58466.00008010864,Thu Mar 13 2025 17:23:57 GMT-0500 (Central Daylight Time),787347.2999999998,B,chris,O,s,126,1,1533.2999999998137,785814.0,7108,WL,C,1.0
6,1.6989998817443848,distr,58301.000118255615,Thu Mar 13 2025 17:23:57 GMT-0500 (Central Daylight Time),787513.2999999998,B,christ,O,t,150,1,1699.2999999998137,785814.0,7108,WL,C,1.0
6,1.8659999370574951,distr,58134.000062942505,Thu Mar 13 2025 17:23:57 GMT-0500 (Central Daylight Time),787680.0,B,christm,O,m,154,1,1866.0,785814.0,7108,WL,C,1.0
6,2.065999984741211,distr,57934.00001525879,Thu Mar 13 2025 17:23:57 GMT-0500 (Central Daylight Time),787879.4000000004,B,christma,O,a,179,1,2065.4000000003725,785814.0,7108,WL,C,1.0
6,2.3329999446868896,distr,57667.00005531311,Thu Mar 13 2025 17:23:57 GMT-0500 (Central Daylight Time),788146.6000000006,B,christmas,O,s,253,1,2332.600000000559,785814.0,7108,WL,C,1.0
6,3.047999858856201,distr,56952.0001411438,Thu Mar 13 2025 17:23:57 GMT-0500 (Central Daylight Time),788862.1000000006,B,christmasenter,O,enter,704,1,3048.100000000559,785814.0,7108,WL,C,1.0
6,3.931999921798706,distr,56068.000078201294,Thu Mar 13 2025 17:23:57 GMT-0500 (Central Daylight Time),789745.6000000006,B,m,O,m,870,1,883.3000000007451,788862.2999999998,7108,WL,C,2.0
6,5.0309998989105225,distr,54969.00010108948,Thu Mar 13 2025 17:23:57 GMT-0500 (Central Daylight Time),790844.6000000006,B,me,O,e,1083,1,1982.300000000745,788862.2999999998,7108,WL,C,2.0
6,5.2149999141693115,distr,54785.00008583069,Thu Mar 13 2025 17:23:57 GMT-0500 (Central Daylight Time),791028.6000000006,B,mea,O,a,178,1,2166.300000000745,788862.2999999998,7108,WL,C,2.0
6,5.397000074386597,distr,54602.9999256134,Thu Mar 13 2025 17:23:57 GMT-0500 (Central Daylight Time),791211.2000000002,B,meat,O,t,167,1,2348.9000000003725,788862.2999999998,7108,WL,C,2.0
6,8.397000074386597,distr,51602.9999256134,Thu Mar 13 2025 17:23:57 GMT-0500 (Central Daylight Time),794210.6000000006,B,meatenter,O,enter,2983,1,5348.300000000745,788862.2999999998,7108,WL,C,2.0
6,9.11299991607666,distr,50887.00008392334,Thu Mar 13 2025 17:23:57 GMT-0500 (Central Daylight Time),794927.0,B,t,O,t,706,1,716.2000000001863,794210.7999999998,7108,WL,C,3.0
6,9.29699993133545,distr,50703.00006866455,Thu Mar 13 2025 17:23:57 GMT-0500 (Central Daylight Time),795110.2999999998,B,to,O,o,159,1,899.5,794210.7999999998,7108,WL,C,3.0
6,9.447999954223633,distr,50552.00004577637,Thu Mar 13 2025 17:23:57 GMT-0500 (Central Daylight Time),795261.5,B,too,O,o,131,1,1050.7000000001863,794210.7999999998,7108,WL,C,3.0
6,9.680000066757202,distr,50319.9999332428,Thu Mar 13 2025 17:23:57 GMT-0500 (Central Daylight Time),795493.7000000002,B,tool,O,l,210,1,1282.9000000003725,794210.7999999998,7108,WL,C,3.0
6,9.996000051498413,distr,50003.99994850159,Thu Mar 13 2025 17:23:57 GMT-0500 (Central Daylight Time),795809.7999999998,B,toolenter,O,enter,293,1,1599.0,794210.7999999998,7108,WL,C,3.0
6,11.145999908447266,distr,48854.000091552734,Thu Mar 13 2025 17:23:57 GMT-0500 (Central Daylight Time),796959.9000000004,B,m,O,m,1140,1,1149.7999999998137,795810.1000000006,7108,WL,C,4.0
6,11.29699993133545,distr,48703.00006866455,Thu Mar 13 2025 17:23:57 GMT-0500 (Central Daylight Time),797110.4000000004,B,mo,O,o,129,1,1300.2999999998137,795810.1000000006,7108,WL,C,4.0
6,11.414000034332275,distr,48585.999965667725,Thu Mar 13 2025 17:23:57 GMT-0500 (Central Daylight Time),797227.7999999998,B,mon,O,n,111,1,1417.699999999255,795810.1000000006,7108,WL,C,4.0
6,11.549000024795532,distr,48450.99997520447,Thu Mar 13 2025 17:23:57 GMT-0500 (Central Daylight Time),797362.2000000002,B,mone,O,e,128,1,1552.0999999996275,795810.1000000006,7108,WL,C,4.0
6,11.71399998664856,distr,48286.00001335144,Thu Mar 13 2025 17:23:57 GMT-0500 (Central Daylight Time),797527.6000000006,B,money,O,y,143,1,1717.5,795810.1000000006,7108,WL,C,4.0
6,12.029000043869019,distr,47970.99995613098,Thu Mar 13 2025 17:23:57 GMT-0500 (Central Daylight Time),797843.1000000006,B,moneyenter,O,enter,298,1,2033.0,795810.1000000006,7108,WL,C,4.0
6,13.397000074386597,distr,46602.9999256134,Thu Mar 13 2025 17:23:57 GMT-0500 (Central Daylight Time),799210.6000000006,B,s,O,s,1344,1,1367.300000000745,797843.2999999998,7108,WL,C,5.0
6,13.477999925613403,distr,46522.0000743866,Thu Mar 13 2025 17:23:57 GMT-0500 (Central Daylight Time),799291.2999999998,B,sk,O,k,65,1,1448.0,797843.2999999998,7108,WL,C,5.0
6,13.711999893188477,distr,46288.00010681152,Thu Mar 13 2025 17:23:57 GMT-0500 (Central Daylight Time),799526.0,B,sky,O,y,223,1,1682.7000000001863,797843.2999999998,7108,WL,C,5.0
6,14.027999877929688,distr,45972.00012207031,Thu Mar 13 2025 17:23:57 GMT-0500 (Central Daylight Time),799841.7000000002,B,skyenter,O,enter,288,1,1998.4000000003725,797843.2999999998,7108,WL,C,5.0
6,16.293999910354614,distr,43706.000089645386,Thu Mar 13 2025 17:23:57 GMT-0500 (Central Daylight Time),802108.0,B,d,O,d,2251,1,2266.0,799842.0,7108,WL,C,6.0
6,16.40999984741211,distr,43590.00015258789,Thu Mar 13 2025 17:23:57 GMT-0500 (Central Daylight Time),802223.7000000002,B,do,O,o,98,1,2381.7000000001863,799842.0,7108,WL,C,6.0
6,16.741999864578247,distr,43258.00013542175,Thu Mar 13 2025 17:23:57 GMT-0500 (Central Daylight Time),802555.7000000002,B,dol,O,l,322,1,2713.7000000001863,799842.0,7108,WL,C,6.0
6,16.89400005340576,distr,43105.99994659424,Thu Mar 13 2025 17:23:57 GMT-0500 (Central Daylight Time),802707.9000000004,B,doll,O,l,134,1,2865.9000000003725,799842.0,7108,WL,C,6.0
6,17.075999975204468,distr,42924.00002479553,Thu Mar 13 2025 17:23:57 GMT-0500 (Central Daylight Time),802889.9000000004,B,dolla,O,a,166,1,3047.9000000003725,799842.0,7108,WL,C,6.0
6,17.211999893188477,distr,42788.00010681152,Thu Mar 13 2025 17:23:57 GMT-0500 (Central Daylight Time),803025.2999999998,B,dollar,O,r,115,1,3183.2999999998137,799842.0,7108,WL,C,6.0
6,17.694000005722046,distr,42305.999994277954,Thu Mar 13 2025 17:23:57 GMT-0500 (Central Daylight Time),803507.9000000004,B,dollarenter,O,enter,462,1,3665.9000000003725,799842.0,7108,WL,C,6.0
6,19.3439998626709,distr,40656.0001373291,Thu Mar 13 2025 17:23:57 GMT-0500 (Central Daylight Time),805157.6000000006,B,v,O,v,1644,1,1649.4000000003725,803508.2000000002,7108,WL,C,7.0
6,19.478999853134155,distr,40521.000146865845,Thu Mar 13 2025 17:23:57 GMT-0500 (Central Daylight Time),805292.6000000006,B,va,O,a,127,1,1784.4000000003725,803508.2000000002,7108,WL,C,7.0
6,19.62999987602234,distr,40370.00012397766,Thu Mar 13 2025 17:23:57 GMT-0500 (Central Daylight Time),805443.7999999998,B,val,O,l,143,1,1935.5999999996275,803508.2000000002,7108,WL,C,7.0
6,19.776000022888184,distr,40223.99997711182,Thu Mar 13 2025 17:23:57 GMT-0500 (Central Daylight Time),805589.7000000002,B,vall,O,l,133,1,2081.5,803508.2000000002,7108,WL,C,7.0
6,19.91100001335144,distr,40088.99998664856,Thu Mar 13 2025 17:23:57 GMT-0500 (Central Daylight Time),805724.7999999998,B,valle,O,e,119,1,2216.5999999996275,803508.2000000002,7108,WL,C,7.0
6,20.060999870300293,distr,39939.00012969971,Thu Mar 13 2025 17:23:57 GMT-0500 (Central Daylight Time),805874.9000000004,B,valley,O,y,124,1,2366.7000000001863,803508.2000000002,7108,WL,C,7.0
6,20.460000038146973,distr,39539.99996185303,Thu Mar 13 2025 17:23:57 GMT-0500 (Central Daylight Time),806273.7000000002,B,valleyenter,O,enter,390,1,2765.5,803508.2000000002,7108,WL,C,7.0
6,28.44099998474121,distr,31559.00001525879,Thu Mar 13 2025 17:23:57 GMT-0500 (Central Daylight Time),814255.1000000006,B,m,O,m,7963,1,7981.200000000186,806273.9000000004,7108,WL,C,8.0
6,28.590999841690063,distr,31409.000158309937,Thu Mar 13 2025 17:23:57 GMT-0500 (Central Daylight Time),814404.7999999998,B,mo,O,o,141,1,8130.899999999441,806273.9000000004,7108,WL,C,8.0
6,28.723999977111816,distr,31276.000022888184,Thu Mar 13 2025 17:23:57 GMT-0500 (Central Daylight Time),814537.5,B,mon,O,n,117,1,8263.599999999627,806273.9000000004,7108,WL,C,8.0
6,28.875,distr,31125.0,Thu Mar 13 2025 17:23:57 GMT-0500 (Central Daylight Time),814688.5,B,mone,O,e,136,1,8414.599999999627,806273.9000000004,7108,WL,C,8.0
6,29.057999849319458,distr,30942.000150680542,Thu Mar 13 2025 17:23:57 GMT-0500 (Central Daylight Time),814871.7000000002,B,money,O,y,160,1,8597.799999999814,806273.9000000004,7108,WL,C,8.0
6,30.740999937057495,distr,29259.000062942505,Thu Mar 13 2025 17:23:57 GMT-0500 (Central Daylight Time),816554.6000000006,B,moneyenter,O,enter,1668,1,10280.700000000186,806273.9000000004,7108,WL,C,8.0
6,45.13599991798401,distr,14864.000082015991,Thu Mar 13 2025 17:23:57 GMT-0500 (Central Daylight Time),830949.2999999998,B,d,O,d,14387,1,14394.399999999441,816554.9000000004,7108,WL,C,9.0
6,45.418999910354614,distr,14581.000089645386,Thu Mar 13 2025 17:23:57 GMT-0500 (Central Daylight Time),831232.4000000004,B,do,O,o,271,1,14677.5,816554.9000000004,7108,WL,C,9.0
6,45.734999895095825,distr,14265.000104904175,Thu Mar 13 2025 17:23:57 GMT-0500 (Central Daylight Time),831548.7000000002,B,dol,O,l,309,1,14993.799999999814,816554.9000000004,7108,WL,C,9.0
6,45.90299987792969,distr,14097.000122070312,Thu Mar 13 2025 17:23:57 GMT-0500 (Central Daylight Time),831716.4000000004,B,doll,O,l,163,1,15161.5,816554.9000000004,7108,WL,C,9.0
6,46.001999855041504,distr,13998.000144958496,Thu Mar 13 2025 17:23:57 GMT-0500 (Central Daylight Time),831816.1000000006,B,dolla,O,a,87,1,15261.200000000186,816554.9000000004,7108,WL,C,9.0
6,46.16799998283386,distr,13832.000017166138,Thu Mar 13 2025 17:23:57 GMT-0500 (Central Daylight Time),831981.5,B,dollar,O,r,147,1,15426.599999999627,816554.9000000004,7108,WL,C,9.0
6,46.437000036239624,distr,13562.999963760376,Thu Mar 13 2025 17:23:57 GMT-0500 (Central Daylight Time),832250.4000000004,B,dollarenter,O,enter,264,1,15695.5,816554.9000000004,7108,WL,C,9.0
6,60.013999938964844,distr,-13.99993896484375,Thu Mar 13 2025 17:23:57 GMT-0500 (Central Daylight Time),845828.6000000006,B,None,O,None,13573,1,13577.900000000373,832250.7000000002,7108,WL,C,10.0
7,0.818000078201294,immed,59181.999921798706,Thu Mar 13 2025 17:23:57 GMT-0500 (Central Daylight Time),866038.0,A,t,O,t,801,1,818.0,865220.0,7108,WL,C,1.0
7,1.2170000076293945,immed,58782.999992370605,Thu Mar 13 2025 17:23:57 GMT-0500 (Central Daylight Time),866437.7000000002,A,to,O,o,393,1,1217.7000000001863,865220.0,7108,WL,C,1.0
7,1.499000072479248,immed,58500.99992752075,Thu Mar 13 2025 17:23:57 GMT-0500 (Central Daylight Time),866718.7000000002,A,tow,O,w,261,1,1498.7000000001863,865220.0,7108,WL,C,1.0
7,1.7009999752044678,immed,58299.00002479553,Thu Mar 13 2025 17:23:57 GMT-0500 (Central Daylight Time),866920.7999999998,A,towe,O,e,199,1,1700.7999999998137,865220.0,7108,WL,C,1.0
7,1.8500001430511475,immed,58149.99985694885,Thu Mar 13 2025 17:23:57 GMT-0500 (Central Daylight Time),867070.1000000006,A,tower,O,r,134,1,1850.1000000005588,865220.0,7108,WL,C,1.0
7,2.115000009536743,immed,57884.99999046326,Thu Mar 13 2025 17:23:57 GMT-0500 (Central Daylight Time),867335.5,A,towerenter,O,enter,252,1,2115.5,865220.0,7108,WL,C,1.0
7,2.5190000534057617,immed,57480.99994659424,Thu Mar 13 2025 17:23:57 GMT-0500 (Central Daylight Time),867738.7999999998,A,w,O,w,383,1,403.09999999962747,867335.7000000002,7108,WL,C,2.0
7,2.6670000553131104,immed,57332.99994468689,Thu Mar 13 2025 17:23:57 GMT-0500 (Central Daylight Time),867886.7000000002,A,wh,O,h,136,1,551.0,867335.7000000002,7108,WL,C,2.0
7,2.7829999923706055,immed,57217.000007629395,Thu Mar 13 2025 17:23:57 GMT-0500 (Central Daylight Time),868003.2999999998,A,whe,O,e,95,1,667.5999999996275,867335.7000000002,7108,WL,C,2.0
7,2.9850001335144043,immed,57014.999866485596,Thu Mar 13 2025 17:23:57 GMT-0500 (Central Daylight Time),868204.9000000004,A,whea,O,a,183,1,869.2000000001863,867335.7000000002,7108,WL,C,2.0
7,3.134999990463257,immed,56865.00000953674,Thu Mar 13 2025 17:23:57 GMT-0500 (Central Daylight Time),868354.9000000004,A,wheat,O,t,143,1,1019.2000000001863,867335.7000000002,7108,WL,C,2.0
7,3.499000072479248,immed,56500.99992752075,Thu Mar 13 2025 17:23:57 GMT-0500 (Central Daylight Time),868719.5,A,wheatenter,O,enter,344,1,1383.7999999998137,867335.7000000002,7108,WL,C,2.0
7,4.4670000076293945,immed,55532.999992370605,Thu Mar 13 2025 17:23:57 GMT-0500 (Central Daylight Time),869687.2999999998,A,q,O,q,950,1,967.6999999992549,868719.6000000006,7108,WL,C,3.0
7,4.633000135421753,immed,55366.99986457825,Thu Mar 13 2025 17:23:57 GMT-0500 (Central Daylight Time),869852.9000000004,A,qu,O,u,159,1,1133.2999999998137,868719.6000000006,7108,WL,C,3.0
7,4.8500001430511475,immed,55149.99985694885,Thu Mar 13 2025 17:23:57 GMT-0500 (Central Daylight Time),870069.9000000004,A,que,O,e,208,1,1350.2999999998137,868719.6000000006,7108,WL,C,3.0
7,4.983000040054321,immed,55016.99995994568,Thu Mar 13 2025 17:23:57 GMT-0500 (Central Daylight Time),870203.5,A,quee,O,e,119,1,1483.8999999994412,868719.6000000006,7108,WL,C,3.0
7,5.136000156402588,immed,54863.99984359741,Thu Mar 13 2025 17:23:57 GMT-0500 (Central Daylight Time),870355.7000000002,A,queen,O,n,146,1,1636.0999999996275,868719.6000000006,7108,WL,C,3.0
7,5.401000022888184,immed,54598.99997711182,Thu Mar 13 2025 17:23:57 GMT-0500 (Central Daylight Time),870620.9000000004,A,queenenter,O,enter,257,1,1901.2999999998137,868719.6000000006,7108,WL,C,3.0
7,5.933000087738037,immed,54066.99991226196,Thu Mar 13 2025 17:23:57 GMT-0500 (Central Daylight Time),871153.0,A,s,O,s,521,1,531.7999999998137,870621.2000000002,7108,WL,C,4.0
7,6.082000017166138,immed,53917.99998283386,Thu Mar 13 2025 17:23:57 GMT-0500 (Central Daylight Time),871302.5,A,su,O,u,131,1,681.2999999998137,870621.2000000002,7108,WL,C,4.0
7,6.266000032424927,immed,53733.99996757507,Thu Mar 13 2025 17:23:57 GMT-0500 (Central Daylight Time),871486.1000000006,A,sug,O,g,173,1,864.9000000003725,870621.2000000002,7108,WL,C,4.0
7,6.433000087738037,immed,53566.99991226196,Thu Mar 13 2025 17:23:57 GMT-0500 (Central Daylight Time),871653.2000000002,A,suga,O,a,151,1,1032.0,870621.2000000002,7108,WL,C,4.0
7,6.58299994468689,immed,53417.00005531311,Thu Mar 13 2025 17:23:57 GMT-0500 (Central Daylight Time),871803.0,A,sugar,O,r,143,1,1181.7999999998137,870621.2000000002,7108,WL,C,4.0
7,8.134000062942505,immed,51865.999937057495,Thu Mar 13 2025 17:23:57 GMT-0500 (Central Daylight Time),873354.1000000006,A,sugarenter,O,enter,1545,1,2732.9000000003725,870621.2000000002,7108,WL,C,4.0
7,9.049000024795532,immed,50950.99997520447,Thu Mar 13 2025 17:23:57 GMT-0500 (Central Daylight Time),874268.7999999998,A,h,O,h,907,1,914.3999999994412,873354.4000000004,7108,WL,C,5.0
7,9.182000160217285,immed,50817.999839782715,Thu Mar 13 2025 17:23:57 GMT-0500 (Central Daylight Time),874402.2999999998,A,ho,O,o,119,1,1047.8999999994412,873354.4000000004,7108,WL,C,5.0
7,9.332000017166138,immed,50667.99998283386,Thu Mar 13 2025 17:23:57 GMT-0500 (Central Daylight Time),874552.4000000004,A,hom,O,m,139,1,1198.0,873354.4000000004,7108,WL,C,5.0
7,9.48200011253357,immed,50517.99988746643,Thu Mar 13 2025 17:23:57 GMT-0500 (Central Daylight Time),874702.0,A,home,O,e,131,1,1347.5999999996275,873354.4000000004,7108,WL,C,5.0
7,9.646000146865845,immed,50353.999853134155,Thu Mar 13 2025 17:23:57 GMT-0500 (Central Daylight Time),874866.2999999998,A,homeenter,O,enter,157,1,1511.8999999994412,873354.4000000004,7108,WL,C,5.0
7,10.199000120162964,immed,49800.999879837036,Thu Mar 13 2025 17:23:57 GMT-0500 (Central Daylight Time),875418.9000000004,A,b,O,b,547,1,552.2999999998137,874866.6000000006,7108,WL,C,6.0
7,10.29800009727478,immed,49701.99990272522,Thu Mar 13 2025 17:23:57 GMT-0500 (Central Daylight Time),875517.6000000006,A,bo,O,o,81,1,651.0,874866.6000000006,7108,WL,C,6.0
7,10.514000177383423,immed,49485.99982261658,Thu Mar 13 2025 17:23:57 GMT-0500 (Central Daylight Time),875734.5,A,boy,O,y,208,1,867.8999999994412,874866.6000000006,7108,WL,C,6.0
7,10.898000001907349,immed,49101.99999809265,Thu Mar 13 2025 17:23:57 GMT-0500 (Central Daylight Time),876117.9000000004,A,boyenter,O,enter,365,1,1251.2999999998137,874866.6000000006,7108,WL,C,6.0
7,11.314000129699707,immed,48685.99987030029,Thu Mar 13 2025 17:23:57 GMT-0500 (Central Daylight Time),876534.5,A,d,O,d,407,1,416.29999999981374,876118.2000000002,7108,WL,C,7.0
7,11.430999994277954,immed,48569.000005722046,Thu Mar 13 2025 17:23:57 GMT-0500 (Central Daylight Time),876650.9000000004,A,do,O,o,102,1,532.7000000001863,876118.2000000002,7108,WL,C,7.0
7,11.58299994468689,immed,48417.00005531311,Thu Mar 13 2025 17:23:57 GMT-0500 (Central Daylight Time),876802.7999999998,A,doc,O,c,143,1,684.5999999996275,876118.2000000002,7108,WL,C,7.0
7,11.781000137329102,immed,48218.9998626709,Thu Mar 13 2025 17:23:57 GMT-0500 (Central Daylight Time),877001.2000000002,A,doct,O,t,185,1,883.0,876118.2000000002,7108,WL,C,7.0
7,11.897000074386597,immed,48102.9999256134,Thu Mar 13 2025 17:23:57 GMT-0500 (Central Daylight Time),877117.5,A,docto,O,o,98,1,999.2999999998137,876118.2000000002,7108,WL,C,7.0
7,12.380000114440918,immed,47619.99988555908,Thu Mar 13 2025 17:23:57 GMT-0500 (Central Daylight Time),877600.4000000004,A,doctor,O,r,470,1,1482.2000000001863,876118.2000000002,7108,WL,C,7.0
7,14.080000162124634,immed,45919.999837875366,Thu Mar 13 2025 17:23:57 GMT-0500 (Central Daylight Time),879300.4000000004,A,doctorenter,O,enter,1685,1,3182.2000000001863,876118.2000000002,7108,WL,C,7.0
7,14.513000011444092,immed,45486.99998855591,Thu Mar 13 2025 17:23:57 GMT-0500 (Central Daylight Time),879733.6000000006,A,c,O,c,425,1,432.90000000037253,879300.7000000002,7108,WL,C,8.0
7,14.648000001907349,immed,45351.99999809265,Thu Mar 13 2025 17:23:57 GMT-0500 (Central Daylight Time),879867.9000000004,A,ca,O,a,127,1,567.2000000001863,879300.7000000002,7108,WL,C,8.0
7,14.828999996185303,immed,45171.0000038147,Thu Mar 13 2025 17:23:57 GMT-0500 (Central Daylight Time),880049.5,A,cam,O,m,169,1,748.7999999998137,879300.7000000002,7108,WL,C,8.0
7,15.029000043869019,immed,44970.99995613098,Thu Mar 13 2025 17:23:57 GMT-0500 (Central Daylight Time),880249.6000000006,A,camp,O,p,187,1,948.9000000003725,879300.7000000002,7108,WL,C,8.0
7,15.296000003814697,immed,44703.9999961853,Thu Mar 13 2025 17:23:57 GMT-0500 (Central Daylight Time),880516.6000000006,A,campenter,O,enter,249,1,1215.9000000003725,879300.7000000002,7108,WL,C,8.0
7,15.998000144958496,immed,44001.999855041504,Thu Mar 13 2025 17:23:57 GMT-0500 (Central Daylight Time),881218.2999999998,A,f,O,f,696,1,701.5,880516.7999999998,7108,WL,C,9.0
7,16.128999948501587,immed,43871.00005149841,Thu Mar 13 2025 17:23:57 GMT-0500 (Central Daylight Time),881349.5,A,fl,O,l,122,1,832.7000000001863,880516.7999999998,7108,WL,C,9.0
7,16.230000019073486,immed,43769.999980926514,Thu Mar 13 2025 17:23:57 GMT-0500 (Central Daylight Time),881450.2000000002,A,fla,O,a,95,1,933.4000000003725,880516.7999999998,7108,WL,C,9.0
7,16.54700016975403,immed,43452.99983024597,Thu Mar 13 2025 17:23:57 GMT-0500 (Central Daylight Time),881766.7999999998,A,flag,O,g,296,1,1250.0,880516.7999999998,7108,WL,C,9.0
7,20.878999948501587,immed,39121.00005149841,Thu Mar 13 2025 17:23:57 GMT-0500 (Central Daylight Time),886099.0,A,flagenter,O,enter,4310,1,5582.200000000186,880516.7999999998,7108,WL,C,9.0
7,21.947999954223633,immed,38052.00004577637,Thu Mar 13 2025 17:23:57 GMT-0500 (Central Daylight Time),887167.7999999998,A,l,O,l,1049,1,1068.5999999996275,886099.2000000002,7108,WL,C,10.0
7,22.062000036239624,immed,37937.999963760376,Thu Mar 13 2025 17:23:57 GMT-0500 (Central Daylight Time),887282.2999999998,A,le,O,e,111,1,1183.0999999996275,886099.2000000002,7108,WL,C,10.0
7,22.261000156402588,immed,37738.99984359741,Thu Mar 13 2025 17:23:57 GMT-0500 (Central Daylight Time),887481.2000000002,A,let,O,t,185,1,1382.0,886099.2000000002,7108,WL,C,10.0
7,22.396000146865845,immed,37603.999853134155,Thu Mar 13 2025 17:23:57 GMT-0500 (Central Daylight Time),887615.7000000002,A,lett,O,t,115,1,1516.5,886099.2000000002,7108,WL,C,10.0
7,22.513000011444092,immed,37486.99998855591,Thu Mar 13 2025 17:23:57 GMT-0500 (Central Daylight Time),887732.7000000002,A,lette,O,e,110,1,1633.5,886099.2000000002,7108,WL,C,10.0
7,22.611000061035156,immed,37388.999938964844,Thu Mar 13 2025 17:23:57 GMT-0500 (Central Daylight Time),887831.2000000002,A,letter,O,r,79,1,1732.0,886099.2000000002,7108,WL,C,10.0
7,22.97699999809265,immed,37023.00000190735,Thu Mar 13 2025 17:23:57 GMT-0500 (Central Daylight Time),888197.2999999998,A,letterenter,O,enter,348,1,2098.0999999996275,886099.2000000002,7108,WL,C,10.0
7,25.728000164031982,immed,34271.99983596802,Thu Mar 13 2025 17:23:57 GMT-0500 (Central Daylight Time),890948.1000000006,A,c,O,c,2745,1,2750.600000000559,888197.5,7108,WL,C,11.0
7,25.89400005340576,immed,34105.99994659424,Thu Mar 13 2025 17:23:57 GMT-0500 (Central Daylight Time),891114.0,A,co,O,o,153,1,2916.5,888197.5,7108,WL,C,11.0
7,26.026999950408936,immed,33973.000049591064,Thu Mar 13 2025 17:23:57 GMT-0500 (Central Daylight Time),891247.2000000002,A,cor,O,r,121,1,3049.7000000001863,888197.5,7108,WL,C,11.0
7,26.259999990463257,immed,33740.00000953674,Thu Mar 13 2025 17:23:57 GMT-0500 (Central Daylight Time),891480.0,A,corn,O,n,219,1,3282.5,888197.5,7108,WL,C,11.0
7,26.64300012588501,immed,33356.99987411499,Thu Mar 13 2025 17:23:57 GMT-0500 (Central Daylight Time),891863.2999999998,A,cornenter,O,enter,372,1,3665.7999999998137,888197.5,7108,WL,C,11.0
7,27.30900001525879,immed,32690.99998474121,Thu Mar 13 2025 17:23:57 GMT-0500 (Central Daylight Time),892529.5,A,n,O,n,654,1,665.8999999994412,891863.6000000006,7108,WL,C,12.0
7,27.45900011062622,immed,32540.99988937378,Thu Mar 13 2025 17:23:57 GMT-0500 (Central Daylight Time),892679.2000000002,A,na,O,a,140,1,815.5999999996275,891863.6000000006,7108,WL,C,12.0
7,27.526999950408936,immed,32473.000049591064,Thu Mar 13 2025 17:23:57 GMT-0500 (Central Daylight Time),892746.9000000004,A,nai,O,i,63,1,883.2999999998137,891863.6000000006,7108,WL,C,12.0
7,27.759000062942505,immed,32240.999937057495,Thu Mar 13 2025 17:23:57 GMT-0500 (Central Daylight Time),892979.2000000002,A,nail,O,l,216,1,1115.5999999996275,891863.6000000006,7108,WL,C,12.0
7,30.509000062942505,immed,29490.999937057495,Thu Mar 13 2025 17:23:57 GMT-0500 (Central Daylight Time),895729.2000000002,A,nailenter,O,enter,2738,1,3865.5999999996275,891863.6000000006,7108,WL,C,12.0
7,31.141000032424927,immed,28858.999967575073,Thu Mar 13 2025 17:23:57 GMT-0500 (Central Daylight Time),896362.1000000006,A,c,O,c,612,1,632.6000000005588,895729.5,7108,WL,C,13.0
7,31.27400016784668,immed,28725.99983215332,Thu Mar 13 2025 17:23:57 GMT-0500 (Central Daylight Time),896494.4000000004,A,ca,O,a,115,1,764.9000000003725,895729.5,7108,WL,C,13.0
7,31.54200005531311,immed,28457.99994468689,Thu Mar 13 2025 17:23:57 GMT-0500 (Central Daylight Time),896763.0,A,cat,O,t,255,1,1033.5,895729.5,7108,WL,C,13.0
7,31.674000024795532,immed,28325.999975204468,Thu Mar 13 2025 17:23:57 GMT-0500 (Central Daylight Time),896894.9000000004,A,catt,O,t,122,1,1165.4000000003725,895729.5,7108,WL,C,13.0
7,32.03999996185303,immed,27960.000038146973,Thu Mar 13 2025 17:23:57 GMT-0500 (Central Daylight Time),897260.6000000006,A,cattl,O,l,360,1,1531.1000000005588,895729.5,7108,WL,C,13.0
7,32.140000104904175,immed,27859.999895095825,Thu Mar 13 2025 17:23:57 GMT-0500 (Central Daylight Time),897360.2000000002,A,cattle,O,e,87,1,1630.7000000001863,895729.5,7108,WL,C,13.0
7,32.52300000190735,immed,27476.99999809265,Thu Mar 13 2025 17:23:57 GMT-0500 (Central Daylight Time),897743.7999999998,A,cattleenter,O,enter,363,1,2014.2999999998137,895729.5,7108,WL,C,13.0
7,35.77400016784668,immed,24225.99983215332,Thu Mar 13 2025 17:23:57 GMT-0500 (Central Daylight Time),900994.9000000004,A,s,O,s,3246,1,3250.9000000003725,897744.0,7108,WL,C,14.0
7,35.88800001144409,immed,24111.99998855591,Thu Mar 13 2025 17:23:57 GMT-0500 (Central Daylight Time),901109.0,A,sh,O,h,106,1,3365.0,897744.0,7108,WL,C,14.0
7,36.0550000667572,immed,23944.999933242798,Thu Mar 13 2025 17:23:57 GMT-0500 (Central Daylight Time),901275.7999999998,A,sho,O,o,152,1,3531.7999999998137,897744.0,7108,WL,C,14.0
7,36.19000005722046,immed,23809.99994277954,Thu Mar 13 2025 17:23:57 GMT-0500 (Central Daylight Time),901410.5,A,shor,O,r,120,1,3666.5,897744.0,7108,WL,C,14.0
7,36.35599994659424,immed,23644.00005340576,Thu Mar 13 2025 17:23:57 GMT-0500 (Central Daylight Time),901576.7000000002,A,shore,O,e,153,1,3832.7000000001863,897744.0,7108,WL,C,14.0
7,36.6560001373291,immed,23343.9998626709,Thu Mar 13 2025 17:23:57 GMT-0500 (Central Daylight Time),901876.7000000002,A,shoreenter,O,enter,283,1,4132.700000000186,897744.0,7108,WL,C,14.0
7,37.25500011444092,immed,22744.999885559082,Thu Mar 13 2025 17:23:57 GMT-0500 (Central Daylight Time),902476.0,A,b,O,b,593,1,599.0,901877.0,7108,WL,C,15.0
7,37.4060001373291,immed,22593.9998626709,Thu Mar 13 2025 17:23:57 GMT-0500 (Central Daylight Time),902626.4000000004,A,bo,O,o,143,1,749.4000000003725,901877.0,7108,WL,C,15.0
7,37.623000144958496,immed,22376.999855041504,Thu Mar 13 2025 17:23:57 GMT-0500 (Central Daylight Time),902843.5,A,bod,O,d,211,1,966.5,901877.0,7108,WL,C,15.0
7,37.75600004196167,immed,22243.99995803833,Thu Mar 13 2025 17:23:57 GMT-0500 (Central Daylight Time),902976.7000000002,A,body,O,y,122,1,1099.7000000001863,901877.0,7108,WL,C,15.0
7,38.82100009918213,immed,21178.99990081787,Thu Mar 13 2025 17:23:57 GMT-0500 (Central Daylight Time),904041.7000000002,A,bodyenter,O,enter,1059,1,2164.7000000001863,901877.0,7108,WL,C,15.0
