acc_sum,block,block_c,change,condition,correct,correct_response,datetime,endtime,face,project,response,response_time,row_sel,session_number,start_end,starttime,subject_id,task,task_vers,trial
0,prac,1,,1-Back,,,Wed Nov 13 2024 10:29:30 GMT-0500 (Eastern Standard Time),,124_o_f_d_a.png,I,space,11729,1,1,,,9005,VNB,A,0
0,prac,1,0.0,1-Back,0,m,Wed Nov 13 2024 10:29:30 GMT-0500 (Eastern Standard Time),166694.19999980927,071_y_f_n_a.png,I,None,2005,2,1,2816.0,163878.19999980927,9005,VNB,A,1
0,prac,1,0.0,1-Back,0,m,Wed Nov 13 2024 10:29:30 GMT-0500 (Eastern Standard Time),169527.59999990463,165_m_m_h_a.png,I,None,2004,3,1,2817.0,166710.59999990463,9005,VNB,A,2
0,prac,1,0.0,1-Back,0,m,Wed Nov 13 2024 10:29:30 GMT-0500 (Eastern Standard Time),171410.89999961853,109_y_m_d_a.png,I,z,1036,4,1,1863.7999997138977,169547.09999990463,9005,VNB,A,3
1,prac,1,0.0,1-Back,1,m,Wed Nov 13 2024 10:29:30 GMT-0500 (Eastern Standard Time),173327.59999990463,124_o_f_n_a.png,I,m,1035,5,1,1897.4000000953674,171430.19999980927,9005,VNB,A,4
1,prac,1,1.0,1-Back,0,z,Wed Nov 13 2024 10:29:30 GMT-0500 (Eastern Standard Time),175544.19999980927,109_y_m_n_a.png,I,m,1382,6,1,2201.5999999046326,173342.59999990463,9005,VNB,A,5
2,prac,1,0.0,1-Back,1,m,Wed Nov 13 2024 10:29:30 GMT-0500 (Eastern Standard Time),178327.59999990463,039_o_m_h_a.png,I,m,1961,7,1,2768.5,175559.09999990463,9005,VNB,A,6
3,prac,1,0.0,1-Back,1,m,Wed Nov 13 2024 10:29:30 GMT-0500 (Eastern Standard Time),180927.7999997139,139_m_f_d_a.png,I,m,1766,8,1,2584.4000000953674,178343.39999961853,9005,VNB,A,7
4,prac,1,1.0,1-Back,1,z,Wed Nov 13 2024 10:29:30 GMT-0500 (Eastern Standard Time),183244.19999980927,071_y_f_d_a.png,I,z,1488,9,1,2300.800000190735,180943.39999961853,9005,VNB,A,8
5,prac,1,0.0,1-Back,1,m,Wed Nov 13 2024 10:29:30 GMT-0500 (Eastern Standard Time),185227.5,165_m_m_n_a.png,I,m,1141,10,1,1967.6000003814697,183259.89999961853,9005,VNB,A,9
6,prac,1,0.0,1-Back,1,m,Wed Nov 13 2024 10:29:30 GMT-0500 (Eastern Standard Time),187794.19999980927,124_o_f_h_a.png,I,m,1706,11,1,2553.0999999046326,185241.09999990463,9005,VNB,A,10
6,prac,1,0.0,1-Back,0,m,Wed Nov 13 2024 10:29:30 GMT-0500 (Eastern Standard Time),190544.2999997139,109_y_m_d_a.png,I,z,1958,12,1,2734.4000000953674,187809.89999961853,9005,VNB,A,11
0,prac,2,0.0,1-Back,,,Wed Nov 13 2024 10:29:30 GMT-0500 (Eastern Standard Time),190544.2999997139,124_o_f_d_a.png,I,a,13198,1,1,2734.4000000953674,187809.89999961853,9005,VNB,A,0
1,prac,2,0.0,1-Back,1,m,Wed Nov 13 2024 10:29:30 GMT-0500 (Eastern Standard Time),208660.89999961853,071_y_f_n_a.png,I,m,1026,2,1,1851.0,206809.89999961853,9005,VNB,A,1
1,prac,2,0.0,1-Back,0,m,Wed Nov 13 2024 10:29:30 GMT-0500 (Eastern Standard Time),211294.39999961853,165_m_m_h_a.png,I,z,1802,3,1,2619.0,208675.39999961853,9005,VNB,A,2
2,prac,2,0.0,1-Back,1,m,Wed Nov 13 2024 10:29:30 GMT-0500 (Eastern Standard Time),213594.09999990463,109_y_m_d_a.png,I,m,1516,4,1,2285.800000190735,211308.2999997139,9005,VNB,A,3
2,prac,2,0.0,1-Back,0,m,Wed Nov 13 2024 10:29:30 GMT-0500 (Eastern Standard Time),216477.69999980927,124_o_f_n_a.png,I,None,2013,5,1,2867.199999809265,213610.5,9005,VNB,A,4
2,prac,2,1.0,1-Back,0,z,Wed Nov 13 2024 10:29:30 GMT-0500 (Eastern Standard Time),218544.2999997139,109_y_m_n_a.png,I,m,1222,6,1,2049.699999809265,216494.59999990463,9005,VNB,A,5
2,prac,2,0.0,1-Back,0,m,Wed Nov 13 2024 10:29:30 GMT-0500 (Eastern Standard Time),221377.39999961853,039_o_m_h_a.png,I,None,2007,7,1,2814.5,218562.89999961853,9005,VNB,A,6
2,prac,2,0.0,1-Back,0,m,Wed Nov 13 2024 10:29:30 GMT-0500 (Eastern Standard Time),223127.5,139_m_f_d_a.png,I,z,922,8,1,1732.8000001907349,221394.69999980927,9005,VNB,A,7
2,prac,2,1.0,1-Back,0,z,Wed Nov 13 2024 10:29:30 GMT-0500 (Eastern Standard Time),225960.19999980927,071_y_f_d_a.png,I,None,2006,9,1,2813.800000190735,223146.39999961853,9005,VNB,A,8
3,prac,2,0.0,1-Back,1,m,Wed Nov 13 2024 10:29:30 GMT-0500 (Eastern Standard Time),228027.19999980927,165_m_m_n_a.png,I,m,1240,10,1,2053.0,225974.19999980927,9005,VNB,A,9
4,prac,2,0.0,1-Back,1,m,Wed Nov 13 2024 10:29:30 GMT-0500 (Eastern Standard Time),230444.19999980927,124_o_f_h_a.png,I,m,1558,11,1,2397.699999809265,228046.5,9005,VNB,A,10
5,prac,2,0.0,1-Back,1,m,Wed Nov 13 2024 10:29:30 GMT-0500 (Eastern Standard Time),232811.0,109_y_m_d_a.png,I,m,1579,12,1,2349.0,230462.0,9005,VNB,A,11
0,test,1,0.0,1-Back,,,Wed Nov 13 2024 10:29:30 GMT-0500 (Eastern Standard Time),232811.0,071_y_f_d_a.png,I,space,32548,1,1,2349.0,230462.0,9005,VNB,A,0
1,test,1,0.0,1-Back,1,m,Wed Nov 13 2024 10:29:30 GMT-0500 (Eastern Standard Time),281227.59999990463,139_m_f_n_a.png,I,m,964,2,1,1972.0999999046326,279255.5,9005,VNB,A,1
1,test,1,0.0,1-Back,0,m,Wed Nov 13 2024 10:29:30 GMT-0500 (Eastern Standard Time),283610.89999961853,039_o_m_h_a.png,I,z,1347,3,1,2367.5999999046326,281243.2999997139,9005,VNB,A,2
1,test,1,1.0,1-Back,0,z,Wed Nov 13 2024 10:29:30 GMT-0500 (Eastern Standard Time),286377.7999997139,165_m_m_h_a.png,I,m,1733,4,1,2753.0,283624.7999997139,9005,VNB,A,3
2,test,1,0.0,1-Back,1,m,Wed Nov 13 2024 10:29:30 GMT-0500 (Eastern Standard Time),289127.69999980927,124_o_f_n_a.png,I,m,1718,5,1,2736.699999809265,286391.0,9005,VNB,A,4
2,test,1,0.0,1-Back,0,m,Wed Nov 13 2024 10:29:30 GMT-0500 (Eastern Standard Time),291460.7999997139,109_y_m_d_a.png,I,z,1304,6,1,2319.9000000953674,289140.89999961853,9005,VNB,A,5
3,test,1,1.0,1-Back,1,z,Wed Nov 13 2024 10:29:30 GMT-0500 (Eastern Standard Time),294044.2999997139,139_m_f_d_a.png,I,z,1546,7,1,2563.699999809265,291480.59999990463,9005,VNB,A,6
4,test,1,0.0,1-Back,1,m,Wed Nov 13 2024 10:29:30 GMT-0500 (Eastern Standard Time),296927.59999990463,071_y_f_h_a.png,I,m,1859,8,1,2870.9000000953674,294056.69999980927,9005,VNB,A,7
4,test,1,0.0,1-Back,0,m,Wed Nov 13 2024 10:29:30 GMT-0500 (Eastern Standard Time),299527.69999980927,039_o_m_n_a.png,I,z,1568,9,1,2587.0,296940.69999980927,9005,VNB,A,8
4,test,1,0.0,1-Back,0,m,Wed Nov 13 2024 10:29:30 GMT-0500 (Eastern Standard Time),302460.59999990463,109_y_m_h_a.png,I,z,1912,10,1,2918.5999999046326,299542.0,9005,VNB,A,9
5,test,1,0.0,1-Back,1,m,Wed Nov 13 2024 10:29:30 GMT-0500 (Eastern Standard Time),305477.5,039_o_m_d_a.png,I,m,1987,11,1,3006.6000003814697,302470.89999961853,9005,VNB,A,10
6,test,1,1.0,1-Back,1,z,Wed Nov 13 2024 10:29:30 GMT-0500 (Eastern Standard Time),307977.69999980927,124_o_f_d_a.png,I,z,1482,12,1,2485.699999809265,305492.0,9005,VNB,A,11
7,test,1,0.0,1-Back,1,m,Wed Nov 13 2024 10:29:30 GMT-0500 (Eastern Standard Time),310427.59999990463,165_m_m_n_a.png,I,m,1430,13,1,2437.0,307990.59999990463,9005,VNB,A,12
8,test,1,1.0,1-Back,1,z,Wed Nov 13 2024 10:29:30 GMT-0500 (Eastern Standard Time),313244.2999997139,071_y_f_n_a.png,I,z,1796,14,1,2802.5,310441.7999997139,9005,VNB,A,13
9,test,1,0.0,1-Back,1,m,Wed Nov 13 2024 10:29:30 GMT-0500 (Eastern Standard Time),315527.7999997139,139_m_f_h_a.png,I,m,1252,15,1,2268.199999809265,313259.59999990463,9005,VNB,A,14
10,test,1,0.0,1-Back,1,m,Wed Nov 13 2024 10:29:30 GMT-0500 (Eastern Standard Time),318493.7999997139,165_m_m_d_a.png,I,m,1943,16,1,2953.0999999046326,315540.69999980927,9005,VNB,A,15
10,test,1,0.0,1-Back,0,m,Wed Nov 13 2024 10:29:30 GMT-0500 (Eastern Standard Time),321527.69999980927,109_y_m_n_a.png,I,None,2016,17,1,3023.699999809265,318504.0,9005,VNB,A,16
11,test,1,0.0,1-Back,1,m,Wed Nov 13 2024 10:29:30 GMT-0500 (Eastern Standard Time),324561.0,124_o_f_h_a.png,I,m,1991,18,1,3016.6000003814697,321544.39999961853,9005,VNB,A,17
0,test,2,0.0,1-Back,,,Wed Nov 13 2024 10:29:30 GMT-0500 (Eastern Standard Time),324561.0,109_y_m_n_a.png,I,space,3205,1,1,3016.6000003814697,321544.39999961853,9005,VNB,A,0
1,test,2,0.0,1-Back,1,m,Wed Nov 13 2024 10:29:30 GMT-0500 (Eastern Standard Time),332494.5,071_y_f_h_a.png,I,m,1677,2,1,2686.9000000953674,329807.59999990463,9005,VNB,A,1
1,test,2,1.0,1-Back,0,m,Wed Nov 13 2024 10:29:30 GMT-0500 (Eastern Standard Time),334844.39999961853,039_o_m_n_a.png,I,z,1330,3,1,2335.699999809265,332508.69999980927,9005,VNB,A,2
2,test,2,0.0,1-Back,1,m,Wed Nov 13 2024 10:29:30 GMT-0500 (Eastern Standard Time),337560.7999997139,139_m_f_d_a.png,I,m,1667,4,1,2700.0999999046326,334860.69999980927,9005,VNB,A,3
2,test,2,0.0,1-Back,0,z,Wed Nov 13 2024 10:29:30 GMT-0500 (Eastern Standard Time),340594.2999997139,165_m_m_d_a.png,I,None,2016,5,1,3020.0999999046326,337574.19999980927,9005,VNB,A,4
3,test,2,0.0,1-Back,1,m,Wed Nov 13 2024 10:29:30 GMT-0500 (Eastern Standard Time),342760.69999980927,109_y_m_h_a.png,I,m,1133,6,1,2153.0,340607.69999980927,9005,VNB,A,5
4,test,2,1.0,1-Back,1,z,Wed Nov 13 2024 10:29:30 GMT-0500 (Eastern Standard Time),344811.0,124_o_f_h_a.png,I,z,1031,7,1,2040.8000001907349,342770.19999980927,9005,VNB,A,6
5,test,2,0.0,1-Back,1,m,Wed Nov 13 2024 10:29:30 GMT-0500 (Eastern Standard Time),347177.7999997139,139_m_f_n_a.png,I,m,1349,8,1,2352.199999809265,344825.59999990463,9005,VNB,A,7
6,test,2,0.0,1-Back,1,m,Wed Nov 13 2024 10:29:30 GMT-0500 (Eastern Standard Time),349461.0,071_y_f_d_a.png,I,m,1254,9,1,2268.6000003814697,347192.39999961853,9005,VNB,A,8
7,test,2,0.0,1-Back,1,m,Wed Nov 13 2024 10:29:30 GMT-0500 (Eastern Standard Time),352144.39999961853,165_m_m_n_a.png,I,m,1659,10,1,2670.0,349474.39999961853,9005,VNB,A,9
8,test,2,1.0,1-Back,1,m,Wed Nov 13 2024 10:29:30 GMT-0500 (Eastern Standard Time),355077.69999980927,139_m_f_h_a.png,I,m,1904,11,1,2920.5999999046326,352157.09999990463,9005,VNB,A,10
9,test,2,0.0,1-Back,1,z,Wed Nov 13 2024 10:29:30 GMT-0500 (Eastern Standard Time),356811.0,039_o_m_h_a.png,I,z,697,12,1,1716.1000003814697,355094.89999961853,9005,VNB,A,11
10,test,2,0.0,1-Back,1,m,Wed Nov 13 2024 10:29:30 GMT-0500 (Eastern Standard Time),358827.39999961853,109_y_m_d_a.png,I,m,996,13,1,2004.2999997138977,356823.09999990463,9005,VNB,A,12
11,test,2,0.0,1-Back,1,m,Wed Nov 13 2024 10:29:30 GMT-0500 (Eastern Standard Time),361343.7999997139,124_o_f_n_a.png,I,m,1493,14,1,2502.4000000953674,358841.39999961853,9005,VNB,A,13
12,test,2,0.0,1-Back,1,z,Wed Nov 13 2024 10:29:30 GMT-0500 (Eastern Standard Time),363361.39999961853,071_y_f_n_a.png,I,z,991,15,1,2005.6999998092651,361355.69999980927,9005,VNB,A,14
13,test,2,1.0,1-Back,1,m,Wed Nov 13 2024 10:29:30 GMT-0500 (Eastern Standard Time),365311.0,165_m_m_h_a.png,I,m,927,16,1,1935.1000003814697,363375.89999961853,9005,VNB,A,15
14,test,2,0.0,1-Back,1,m,Wed Nov 13 2024 10:29:30 GMT-0500 (Eastern Standard Time),367644.5,124_o_f_d_a.png,I,m,1313,17,1,2320.4000000953674,365324.09999990463,9005,VNB,A,16
15,test,2,1.0,1-Back,1,z,Wed Nov 13 2024 10:29:30 GMT-0500 (Eastern Standard Time),369727.69999980927,039_o_m_d_a.png,I,z,1060,18,1,2068.800000190735,367658.89999961853,9005,VNB,A,17
0,test,3,1.0,1-Back,,,Wed Nov 13 2024 10:29:30 GMT-0500 (Eastern Standard Time),369727.69999980927,124_o_f_h_a.png,I,space,6448,1,1,2068.800000190735,367658.89999961853,9005,VNB,A,0
1,test,3,0.0,1-Back,1,m,Wed Nov 13 2024 10:29:30 GMT-0500 (Eastern Standard Time),380327.7999997139,139_m_f_d_a.png,I,m,1035,2,1,2054.0999999046326,378273.69999980927,9005,VNB,A,1
2,test,3,1.0,1-Back,1,m,Wed Nov 13 2024 10:29:30 GMT-0500 (Eastern Standard Time),382611.09999990463,165_m_m_n_a.png,I,m,1256,3,1,2268.0,380343.09999990463,9005,VNB,A,2
3,test,3,0.0,1-Back,1,z,Wed Nov 13 2024 10:29:30 GMT-0500 (Eastern Standard Time),384577.69999980927,124_o_f_n_a.png,I,z,941,4,1,1953.5999999046326,382624.09999990463,9005,VNB,A,3
4,test,3,1.0,1-Back,1,m,Wed Nov 13 2024 10:29:30 GMT-0500 (Eastern Standard Time),386561.0,039_o_m_d_a.png,I,m,958,5,1,1970.0,384591.0,9005,VNB,A,4
5,test,3,0.0,1-Back,1,m,Wed Nov 13 2024 10:29:30 GMT-0500 (Eastern Standard Time),389127.89999961853,071_y_f_h_a.png,I,m,1518,6,1,2549.199999809265,386578.69999980927,9005,VNB,A,5
6,test,3,0.0,1-Back,1,z,Wed Nov 13 2024 10:29:30 GMT-0500 (Eastern Standard Time),391061.19999980927,109_y_m_h_a.png,I,z,887,7,1,1916.3000001907349,389144.89999961853,9005,VNB,A,6
7,test,3,0.0,1-Back,1,m,Wed Nov 13 2024 10:29:30 GMT-0500 (Eastern Standard Time),393544.5,139_m_f_n_a.png,I,m,1451,8,1,2468.2000002861023,391076.2999997139,9005,VNB,A,7
8,test,3,0.0,1-Back,1,m,Wed Nov 13 2024 10:29:30 GMT-0500 (Eastern Standard Time),395794.2999997139,071_y_f_d_a.png,I,m,1223,9,1,2237.4000000953674,393556.89999961853,9005,VNB,A,8
9,test,3,1.0,1-Back,1,m,Wed Nov 13 2024 10:29:30 GMT-0500 (Eastern Standard Time),397944.2999997139,039_o_m_n_a.png,I,m,1101,10,1,2133.7999997138977,395810.5,9005,VNB,A,9
10,test,3,0.0,1-Back,1,m,Wed Nov 13 2024 10:29:30 GMT-0500 (Eastern Standard Time),400360.59999990463,165_m_m_h_a.png,I,m,1398,11,1,2404.0999999046326,397956.5,9005,VNB,A,10
11,test,3,0.0,1-Back,1,z,Wed Nov 13 2024 10:29:30 GMT-0500 (Eastern Standard Time),403210.7999997139,139_m_f_h_a.png,I,z,1831,12,1,2840.0,400370.7999997139,9005,VNB,A,11
12,test,3,1.0,1-Back,1,m,Wed Nov 13 2024 10:29:30 GMT-0500 (Eastern Standard Time),405110.69999980927,124_o_f_d_a.png,I,m,868,13,1,1887.9000000953674,403222.7999997139,9005,VNB,A,12
13,test,3,0.0,1-Back,1,z,Wed Nov 13 2024 10:29:30 GMT-0500 (Eastern Standard Time),407010.89999961853,165_m_m_d_a.png,I,z,873,14,1,1885.3999996185303,405125.5,9005,VNB,A,13
14,test,3,0.0,1-Back,1,m,Wed Nov 13 2024 10:29:30 GMT-0500 (Eastern Standard Time),408944.7999997139,109_y_m_n_a.png,I,m,909,15,1,1920.6999998092651,407024.09999990463,9005,VNB,A,14
15,test,3,1.0,1-Back,1,m,Wed Nov 13 2024 10:29:30 GMT-0500 (Eastern Standard Time),411227.69999980927,039_o_m_h_a.png,I,m,1263,16,1,2272.4000000953674,408955.2999997139,9005,VNB,A,15
16,test,3,0.0,1-Back,1,m,Wed Nov 13 2024 10:29:30 GMT-0500 (Eastern Standard Time),413160.89999961853,109_y_m_d_a.png,I,m,916,17,1,1920.0999999046326,411240.7999997139,9005,VNB,A,16
17,test,3,1.0,1-Back,1,m,Wed Nov 13 2024 10:29:30 GMT-0500 (Eastern Standard Time),415694.0,071_y_f_n_a.png,I,m,1510,18,1,2520.6000003814697,413173.39999961853,9005,VNB,A,17
0,test,4,1.0,1-Back,,,Wed Nov 13 2024 10:29:30 GMT-0500 (Eastern Standard Time),415694.0,165_m_m_d_a.png,I,space,5818,1,1,2520.6000003814697,413173.39999961853,9005,VNB,A,0
1,test,4,0.0,1-Back,1,z,Wed Nov 13 2024 10:29:30 GMT-0500 (Eastern Standard Time),425594.0,039_o_m_d_a.png,I,z,998,2,1,2001.8000001907349,423592.19999980927,9005,VNB,A,1
2,test,4,0.0,1-Back,1,m,Wed Nov 13 2024 10:29:30 GMT-0500 (Eastern Standard Time),427844.5,109_y_m_h_a.png,I,m,1221,3,1,2236.2000002861023,425608.2999997139,9005,VNB,A,2
3,test,4,0.0,1-Back,1,m,Wed Nov 13 2024 10:29:30 GMT-0500 (Eastern Standard Time),430094.5,139_m_f_n_a.png,I,m,1227,4,1,2235.2000002861023,427859.2999997139,9005,VNB,A,3
4,test,4,1.0,1-Back,1,m,Wed Nov 13 2024 10:29:30 GMT-0500 (Eastern Standard Time),432877.89999961853,124_o_f_h_a.png,I,m,1762,5,1,2770.199999809265,430107.69999980927,9005,VNB,A,4
5,test,4,0.0,1-Back,1,m,Wed Nov 13 2024 10:29:30 GMT-0500 (Eastern Standard Time),435861.09999990463,165_m_m_n_a.png,I,m,1954,6,1,2969.5,432891.59999990463,9005,VNB,A,5
6,test,4,0.0,1-Back,1,m,Wed Nov 13 2024 10:29:30 GMT-0500 (Eastern Standard Time),438111.0,109_y_m_d_a.png,I,m,1227,7,1,2236.7000002861023,435874.2999997139,9005,VNB,A,6
7,test,4,1.0,1-Back,1,z,Wed Nov 13 2024 10:29:30 GMT-0500 (Eastern Standard Time),440311.0,071_y_f_d_a.png,I,z,1169,8,1,2184.0,438127.0,9005,VNB,A,7
8,test,4,0.0,1-Back,1,m,Wed Nov 13 2024 10:29:30 GMT-0500 (Eastern Standard Time),442277.89999961853,139_m_f_h_a.png,I,m,920,9,1,1950.1999998092651,440327.69999980927,9005,VNB,A,8
9,test,4,0.0,1-Back,1,z,Wed Nov 13 2024 10:29:30 GMT-0500 (Eastern Standard Time),444177.89999961853,039_o_m_h_a.png,I,z,874,10,1,1886.1999998092651,442291.69999980927,9005,VNB,A,9
10,test,4,1.0,1-Back,1,m,Wed Nov 13 2024 10:29:30 GMT-0500 (Eastern Standard Time),446011.0,124_o_f_n_a.png,I,m,814,11,1,1819.8000001907349,444191.19999980927,9005,VNB,A,10
11,test,4,0.0,1-Back,1,m,Wed Nov 13 2024 10:29:30 GMT-0500 (Eastern Standard Time),448294.39999961853,139_m_f_d_a.png,I,m,1253,12,1,2270.3999996185303,446024.0,9005,VNB,A,11
12,test,4,0.0,1-Back,1,m,Wed Nov 13 2024 10:29:30 GMT-0500 (Eastern Standard Time),450261.0,071_y_f_n_a.png,I,m,938,13,1,1953.7000002861023,448307.2999997139,9005,VNB,A,12
13,test,4,0.0,1-Back,1,m,Wed Nov 13 2024 10:29:30 GMT-0500 (Eastern Standard Time),452477.7999997139,124_o_f_d_a.png,I,m,1195,14,1,2203.699999809265,450274.09999990463,9005,VNB,A,13
14,test,4,0.0,1-Back,1,m,Wed Nov 13 2024 10:29:30 GMT-0500 (Eastern Standard Time),454761.09999990463,071_y_f_h_a.png,I,m,1251,15,1,2270.300000190735,452490.7999997139,9005,VNB,A,14
15,test,4,1.0,1-Back,1,z,Wed Nov 13 2024 10:29:30 GMT-0500 (Eastern Standard Time),456378.0,165_m_m_h_a.png,I,z,583,16,1,1601.6000003814697,454776.39999961853,9005,VNB,A,15
16,test,4,0.0,1-Back,1,m,Wed Nov 13 2024 10:29:30 GMT-0500 (Eastern Standard Time),458194.59999990463,039_o_m_n_a.png,I,m,790,17,1,1803.9000000953674,456390.69999980927,9005,VNB,A,16
17,test,4,1.0,1-Back,1,z,Wed Nov 13 2024 10:29:30 GMT-0500 (Eastern Standard Time),460127.2999997139,109_y_m_n_a.png,I,z,909,18,1,1919.1999998092651,458208.09999990463,9005,VNB,A,17
0,test,5,1.0,1-Back,,,Wed Nov 13 2024 10:29:30 GMT-0500 (Eastern Standard Time),460127.2999997139,039_o_m_n_a.png,I,space,4000,1,1,1919.1999998092651,458208.09999990463,9005,VNB,A,0
1,test,5,1.0,1-Back,1,m,Wed Nov 13 2024 10:29:30 GMT-0500 (Eastern Standard Time),468010.89999961853,124_o_f_h_a.png,I,m,831,2,1,1836.2999997138977,466174.59999990463,9005,VNB,A,1
2,test,5,0.0,1-Back,1,m,Wed Nov 13 2024 10:29:30 GMT-0500 (Eastern Standard Time),470244.59999990463,109_y_m_d_a.png,I,m,1205,3,1,2221.5999999046326,468023.0,9005,VNB,A,2
3,test,5,0.0,1-Back,1,z,Wed Nov 13 2024 10:29:30 GMT-0500 (Eastern Standard Time),471994.0,039_o_m_d_a.png,I,z,732,4,1,1736.5,470257.5,9005,VNB,A,3
4,test,5,0.0,1-Back,1,m,Wed Nov 13 2024 10:29:30 GMT-0500 (Eastern Standard Time),474044.5,139_m_f_h_a.png,I,m,1029,5,1,2036.6000003814697,472007.89999961853,9005,VNB,A,4
5,test,5,0.0,1-Back,1,m,Wed Nov 13 2024 10:29:30 GMT-0500 (Eastern Standard Time),476210.59999990463,071_y_f_n_a.png,I,m,1138,6,1,2153.7000002861023,474056.89999961853,9005,VNB,A,5
6,test,5,1.0,1-Back,1,z,Wed Nov 13 2024 10:29:30 GMT-0500 (Eastern Standard Time),477977.69999980927,124_o_f_n_a.png,I,z,749,7,1,1757.4000000953674,476220.2999997139,9005,VNB,A,6
7,test,5,0.0,1-Back,1,m,Wed Nov 13 2024 10:29:30 GMT-0500 (Eastern Standard Time),480094.39999961853,139_m_f_d_a.png,I,m,1095,8,1,2105.5999999046326,477988.7999997139,9005,VNB,A,7
8,test,5,0.0,1-Back,1,m,Wed Nov 13 2024 10:29:30 GMT-0500 (Eastern Standard Time),482027.7999997139,109_y_m_h_a.png,I,m,913,9,1,1918.9000000953674,480108.89999961853,9005,VNB,A,8
9,test,5,0.0,1-Back,1,m,Wed Nov 13 2024 10:29:30 GMT-0500 (Eastern Standard Time),484144.5,071_y_f_d_a.png,I,m,1075,10,1,2101.5,482043.0,9005,VNB,A,9
10,test,5,0.0,1-Back,1,m,Wed Nov 13 2024 10:29:30 GMT-0500 (Eastern Standard Time),486560.89999961853,165_m_m_n_a.png,I,m,1391,11,1,2401.8999996185303,484159.0,9005,VNB,A,10
11,test,5,1.0,1-Back,1,z,Wed Nov 13 2024 10:29:30 GMT-0500 (Eastern Standard Time),488244.59999990463,139_m_f_n_a.png,I,z,655,12,1,1670.5999999046326,486574.0,9005,VNB,A,11
12,test,5,0.0,1-Back,1,m,Wed Nov 13 2024 10:29:30 GMT-0500 (Eastern Standard Time),489960.7999997139,039_o_m_h_a.png,I,m,683,13,1,1702.5999999046326,488258.19999980927,9005,VNB,A,12
13,test,5,0.0,1-Back,1,z,Wed Nov 13 2024 10:29:30 GMT-0500 (Eastern Standard Time),491944.5,165_m_m_h_a.png,I,z,951,14,1,1971.0,489973.5,9005,VNB,A,13
14,test,5,1.0,1-Back,1,m,Wed Nov 13 2024 10:29:30 GMT-0500 (Eastern Standard Time),493711.09999990463,124_o_f_d_a.png,I,m,743,15,1,1751.4000000953674,491959.69999980927,9005,VNB,A,14
15,test,5,0.0,1-Back,1,m,Wed Nov 13 2024 10:29:30 GMT-0500 (Eastern Standard Time),495944.2999997139,109_y_m_n_a.png,I,m,1185,16,1,2217.4000000953674,493726.89999961853,9005,VNB,A,15
16,test,5,0.0,1-Back,1,m,Wed Nov 13 2024 10:29:30 GMT-0500 (Eastern Standard Time),497727.59999990463,071_y_f_h_a.png,I,m,759,17,1,1769.2000002861023,495958.39999961853,9005,VNB,A,16
17,test,5,0.0,1-Back,1,m,Wed Nov 13 2024 10:29:30 GMT-0500 (Eastern Standard Time),499944.09999990463,165_m_m_d_a.png,I,m,1167,18,1,2200.9000000953674,497743.19999980927,9005,VNB,A,17
0,prac,1,0.0,2-Back,,,Wed Nov 13 2024 10:29:30 GMT-0500 (Eastern Standard Time),499944.09999990463,139_m_f_n_a.png,I,space,6672,1,1,2200.9000000953674,497743.19999980927,9005,VNB,A,0
0,prac,1,0.0,2-Back,,,Wed Nov 13 2024 10:29:30 GMT-0500 (Eastern Standard Time),499944.09999990463,124_o_f_h_a.png,I,space,6672,2,1,2200.9000000953674,497743.19999980927,9005,VNB,A,0
1,prac,1,0.0,2-Back,1,m,Wed Nov 13 2024 10:29:30 GMT-0500 (Eastern Standard Time),636728.2999997139,039_o_m_d_a.png,I,m,1325,3,1,2149.5999999046326,634578.6999998093,9005,VNB,A,1
1,prac,1,1.0,2-Back,0,z,Wed Nov 13 2024 10:29:30 GMT-0500 (Eastern Standard Time),638811.3999996185,165_m_m_h_a.png,I,m,1256,4,1,2068.3999996185303,636743.0,9005,VNB,A,2
1,prac,1,0.0,2-Back,0,m,Wed Nov 13 2024 10:29:30 GMT-0500 (Eastern Standard Time),641644.6999998093,071_y_f_n_a.png,I,None,2008,5,1,2818.4000000953674,638826.2999997139,9005,VNB,A,3
1,prac,1,1.0,2-Back,0,z,Wed Nov 13 2024 10:29:30 GMT-0500 (Eastern Standard Time),643828.0,039_o_m_h_a.png,I,m,1344,6,1,2164.5,641663.5,9005,VNB,A,4
1,prac,1,1.0,2-Back,0,z,Wed Nov 13 2024 10:29:30 GMT-0500 (Eastern Standard Time),646044.6999998093,109_y_m_n_a.png,I,m,1374,7,1,2198.0,643846.6999998093,9005,VNB,A,5
1,prac,1,0.0,2-Back,0,m,Wed Nov 13 2024 10:29:30 GMT-0500 (Eastern Standard Time),648878.0999999046,139_m_f_d_a.png,I,None,2008,8,1,2817.9000000953674,646060.1999998093,9005,VNB,A,6
1,prac,1,0.0,2-Back,0,m,Wed Nov 13 2024 10:29:30 GMT-0500 (Eastern Standard Time),651394.5999999046,124_o_f_d_a.png,I,z,1633,9,1,2499.5,648895.0999999046,9005,VNB,A,7
2,prac,1,0.0,2-Back,1,m,Wed Nov 13 2024 10:29:30 GMT-0500 (Eastern Standard Time),654128.0999999046,165_m_m_h_a.png,I,m,1895,10,1,2715.0,651413.0999999046,9005,VNB,A,8
3,prac,1,1.0,2-Back,1,z,Wed Nov 13 2024 10:29:30 GMT-0500 (Eastern Standard Time),656278.0999999046,071_y_f_d_a.png,I,z,1310,11,1,2133.0999999046326,654145.0,9005,VNB,A,9
4,prac,1,0.0,2-Back,1,m,Wed Nov 13 2024 10:29:30 GMT-0500 (Eastern Standard Time),658444.6999998093,039_o_m_n_a.png,I,m,1337,12,1,2148.5,656296.1999998093,9005,VNB,A,10
0,prac,2,0.0,2-Back,,,Wed Nov 13 2024 10:29:30 GMT-0500 (Eastern Standard Time),658444.6999998093,139_m_f_n_a.png,I,a,8972,1,1,2148.5,656296.1999998093,9005,VNB,A,0
0,prac,2,0.0,2-Back,,,Wed Nov 13 2024 10:29:30 GMT-0500 (Eastern Standard Time),658444.6999998093,124_o_f_h_a.png,I,a,8972,2,1,2148.5,656296.1999998093,9005,VNB,A,0
1,prac,2,0.0,2-Back,1,m,Wed Nov 13 2024 10:29:30 GMT-0500 (Eastern Standard Time),674478.0999999046,039_o_m_d_a.png,I,m,1054,3,1,1868.3000001907349,672609.7999997139,9005,VNB,A,1
2,prac,2,1.0,2-Back,1,z,Wed Nov 13 2024 10:29:30 GMT-0500 (Eastern Standard Time),676711.2999997139,165_m_m_h_a.png,I,z,1392,4,1,2218.5,674492.7999997139,9005,VNB,A,2
3,prac,2,0.0,2-Back,1,m,Wed Nov 13 2024 10:29:30 GMT-0500 (Eastern Standard Time),678794.8999996185,071_y_f_n_a.png,I,m,1255,5,1,2068.3999996185303,676726.5,9005,VNB,A,3
4,prac,2,1.0,2-Back,1,z,Wed Nov 13 2024 10:29:30 GMT-0500 (Eastern Standard Time),680528.1999998093,039_o_m_h_a.png,I,z,902,6,1,1718.0,678810.1999998093,9005,VNB,A,4
4,prac,2,1.0,2-Back,0,z,Wed Nov 13 2024 10:29:30 GMT-0500 (Eastern Standard Time),682844.5999999046,109_y_m_n_a.png,I,m,1473,7,1,2299.0,680545.5999999046,9005,VNB,A,5
5,prac,2,0.0,2-Back,1,m,Wed Nov 13 2024 10:29:30 GMT-0500 (Eastern Standard Time),685511.5,139_m_f_d_a.png,I,m,1845,8,1,2652.300000190735,682859.1999998093,9005,VNB,A,6
5,prac,2,0.0,2-Back,0,m,Wed Nov 13 2024 10:29:30 GMT-0500 (Eastern Standard Time),687544.7999997139,124_o_f_d_a.png,I,z,1163,9,1,2018.2999997138977,685526.5,9005,VNB,A,7
5,prac,2,0.0,2-Back,0,m,Wed Nov 13 2024 10:29:30 GMT-0500 (Eastern Standard Time),689777.7999997139,165_m_m_h_a.png,I,z,1396,10,1,2218.9000000953674,687558.8999996185,9005,VNB,A,8
5,prac,2,1.0,2-Back,0,z,Wed Nov 13 2024 10:29:30 GMT-0500 (Eastern Standard Time),691911.3999996185,071_y_f_d_a.png,I,m,1295,11,1,2118.5999999046326,689792.7999997139,9005,VNB,A,9
5,prac,2,0.0,2-Back,0,m,Wed Nov 13 2024 10:29:30 GMT-0500 (Eastern Standard Time),694744.6999998093,039_o_m_n_a.png,I,None,2010,12,1,2818.4000000953674,691926.2999997139,9005,VNB,A,10
0,test,1,0.0,2-Back,,,Wed Nov 13 2024 10:29:30 GMT-0500 (Eastern Standard Time),694744.6999998093,109_y_m_h_a.png,I,space,12999,1,1,2818.4000000953674,691926.2999997139,9005,VNB,A,0
0,test,1,0.0,2-Back,,,Wed Nov 13 2024 10:29:30 GMT-0500 (Eastern Standard Time),694744.6999998093,124_o_f_n_a.png,I,space,12999,2,1,2818.4000000953674,691926.2999997139,9005,VNB,A,0
1,test,1,0.0,2-Back,1,z,Wed Nov 13 2024 10:29:30 GMT-0500 (Eastern Standard Time),731211.2999997139,039_o_m_h_a.png,I,z,1998,3,1,3002.0999999046326,728209.1999998093,9005,VNB,A,1
2,test,1,0.0,2-Back,1,m,Wed Nov 13 2024 10:29:30 GMT-0500 (Eastern Standard Time),734061.5,139_m_f_d_a.png,I,m,1829,4,1,2837.300000190735,731224.1999998093,9005,VNB,A,2
2,test,1,1.0,2-Back,0,m,Wed Nov 13 2024 10:29:30 GMT-0500 (Eastern Standard Time),736994.2999997139,109_y_m_n_a.png,I,z,1890,5,1,2916.5,734077.7999997139,9005,VNB,A,3
2,test,1,0.0,2-Back,0,z,Wed Nov 13 2024 10:29:30 GMT-0500 (Eastern Standard Time),739361.5999999046,071_y_f_d_a.png,I,m,1342,6,1,2355.2000002861023,737006.3999996185,9005,VNB,A,4
3,test,1,0.0,2-Back,1,m,Wed Nov 13 2024 10:29:30 GMT-0500 (Eastern Standard Time),742244.6999998093,165_m_m_h_a.png,I,m,1855,7,1,2869.300000190735,739375.3999996185,9005,VNB,A,5
4,test,1,1.0,2-Back,1,m,Wed Nov 13 2024 10:29:30 GMT-0500 (Eastern Standard Time),744628.0999999046,071_y_f_n_a.png,I,m,1355,8,1,2370.2000002861023,742257.8999996185,9005,VNB,A,6
5,test,1,0.0,2-Back,1,z,Wed Nov 13 2024 10:29:30 GMT-0500 (Eastern Standard Time),746761.0,124_o_f_h_a.png,I,z,1100,9,1,2119.4000000953674,744641.5999999046,9005,VNB,A,7
6,test,1,0.0,2-Back,1,m,Wed Nov 13 2024 10:29:30 GMT-0500 (Eastern Standard Time),749261.3999996185,039_o_m_d_a.png,I,m,1480,10,1,2488.3999996185303,746773.0,9005,VNB,A,8
6,test,1,1.0,2-Back,0,m,Wed Nov 13 2024 10:29:30 GMT-0500 (Eastern Standard Time),752294.7999997139,165_m_m_d_a.png,I,None,2016,11,1,3019.5999999046326,749275.1999998093,9005,VNB,A,9
7,test,1,0.0,2-Back,1,m,Wed Nov 13 2024 10:29:30 GMT-0500 (Eastern Standard Time),755077.5999999046,139_m_f_n_a.png,I,m,1753,12,1,2769.0,752308.5999999046,9005,VNB,A,10
8,test,1,0.0,2-Back,1,m,Wed Nov 13 2024 10:29:30 GMT-0500 (Eastern Standard Time),757211.5,071_y_f_h_a.png,I,m,1115,13,1,2122.6000003814697,755088.8999996185,9005,VNB,A,11
9,test,1,0.0,2-Back,1,z,Wed Nov 13 2024 10:29:30 GMT-0500 (Eastern Standard Time),759428.0999999046,165_m_m_n_a.png,I,z,1190,14,1,2204.0,757224.0999999046,9005,VNB,A,12
10,test,1,0.0,2-Back,1,m,Wed Nov 13 2024 10:29:30 GMT-0500 (Eastern Standard Time),761894.7999997139,109_y_m_d_a.png,I,m,1437,15,1,2453.4000000953674,759441.3999996185,9005,VNB,A,13
11,test,1,1.0,2-Back,1,m,Wed Nov 13 2024 10:29:30 GMT-0500 (Eastern Standard Time),764328.0,139_m_f_h_a.png,I,m,1402,16,1,2419.6000003814697,761908.3999996185,9005,VNB,A,14
12,test,1,0.0,2-Back,1,z,Wed Nov 13 2024 10:29:30 GMT-0500 (Eastern Standard Time),766728.1999998093,124_o_f_d_a.png,I,z,1369,17,1,2385.800000190735,764342.3999996185,9005,VNB,A,15
13,test,1,0.0,2-Back,1,m,Wed Nov 13 2024 10:29:30 GMT-0500 (Eastern Standard Time),769178.0999999046,039_o_m_n_a.png,I,m,1417,18,1,2435.5999999046326,766742.5,9005,VNB,A,16
0,test,2,0.0,2-Back,,,Wed Nov 13 2024 10:29:30 GMT-0500 (Eastern Standard Time),769178.0999999046,165_m_m_h_a.png,I,space,19390,1,1,2435.5999999046326,766742.5,9005,VNB,A,0
0,test,2,0.0,2-Back,,,Wed Nov 13 2024 10:29:30 GMT-0500 (Eastern Standard Time),769178.0999999046,071_y_f_n_a.png,I,space,19390,2,1,2435.5999999046326,766742.5,9005,VNB,A,0
1,test,2,1.0,2-Back,1,z,Wed Nov 13 2024 10:29:30 GMT-0500 (Eastern Standard Time),795661.2999997139,124_o_f_h_a.png,I,z,913,3,1,1933.9000000953674,793727.3999996185,9005,VNB,A,1
2,test,2,0.0,2-Back,1,m,Wed Nov 13 2024 10:29:30 GMT-0500 (Eastern Standard Time),798077.8999996185,039_o_m_d_a.png,I,m,1394,4,1,2402.5999999046326,795675.2999997139,9005,VNB,A,2
2,test,2,0.0,2-Back,0,m,Wed Nov 13 2024 10:29:30 GMT-0500 (Eastern Standard Time),800560.6999998093,139_m_f_d_a.png,I,z,1441,5,1,2465.5999999046326,798095.0999999046,9005,VNB,A,3
3,test,2,0.0,2-Back,1,m,Wed Nov 13 2024 10:29:30 GMT-0500 (Eastern Standard Time),803178.0999999046,109_y_m_h_a.png,I,m,1582,6,1,2590.4000000953674,800587.6999998093,9005,VNB,A,4
4,test,2,0.0,2-Back,1,m,Wed Nov 13 2024 10:29:30 GMT-0500 (Eastern Standard Time),805878.0999999046,124_o_f_n_a.png,I,m,1671,7,1,2689.2000002861023,803188.8999996185,9005,VNB,A,5
5,test,2,1.0,2-Back,1,z,Wed Nov 13 2024 10:29:30 GMT-0500 (Eastern Standard Time),808311.7999997139,039_o_m_h_a.png,I,z,1403,8,1,2419.7999997138977,805892.0,9005,VNB,A,6
5,test,2,0.0,2-Back,0,m,Wed Nov 13 2024 10:29:30 GMT-0500 (Eastern Standard Time),811078.1999998093,071_y_f_d_a.png,I,z,1721,9,1,2750.0999999046326,808328.0999999046,9005,VNB,A,7
5,test,2,0.0,2-Back,0,m,Wed Nov 13 2024 10:29:30 GMT-0500 (Eastern Standard Time),813861.3999996185,109_y_m_d_a.png,I,z,1755,10,1,2769.8999996185303,811091.5,9005,VNB,A,8
6,test,2,0.0,2-Back,1,m,Wed Nov 13 2024 10:29:30 GMT-0500 (Eastern Standard Time),816778.1999998093,165_m_m_n_a.png,I,m,1899,11,1,2902.4000000953674,813875.7999997139,9005,VNB,A,9
7,test,2,0.0,2-Back,1,m,Wed Nov 13 2024 10:29:30 GMT-0500 (Eastern Standard Time),819411.5999999046,139_m_f_h_a.png,I,m,1607,12,1,2620.2000002861023,816791.3999996185,9005,VNB,A,10
7,test,2,1.0,2-Back,0,z,Wed Nov 13 2024 10:29:30 GMT-0500 (Eastern Standard Time),822461.6999998093,039_o_m_n_a.png,I,None,2016,13,1,3032.5999999046326,819429.0999999046,9005,VNB,A,11
8,test,2,0.0,2-Back,1,m,Wed Nov 13 2024 10:29:30 GMT-0500 (Eastern Standard Time),824378.8999996185,124_o_f_d_a.png,I,m,882,14,1,1901.0,822477.8999996185,9005,VNB,A,12
8,test,2,0.0,2-Back,0,m,Wed Nov 13 2024 10:29:30 GMT-0500 (Eastern Standard Time),827411.5999999046,071_y_f_h_a.png,I,None,2016,15,1,3021.5,824390.0999999046,9005,VNB,A,13
9,test,2,0.0,2-Back,1,z,Wed Nov 13 2024 10:29:30 GMT-0500 (Eastern Standard Time),830077.7999997139,165_m_m_d_a.png,I,z,1644,16,1,2652.2999997138977,827425.5,9005,VNB,A,14
10,test,2,0.0,2-Back,1,m,Wed Nov 13 2024 10:29:30 GMT-0500 (Eastern Standard Time),832561.5999999046,109_y_m_n_a.png,I,m,1459,17,1,2472.800000190735,830088.7999997139,9005,VNB,A,15
10,test,2,1.0,2-Back,0,m,Wed Nov 13 2024 10:29:30 GMT-0500 (Eastern Standard Time),835194.1999998093,139_m_f_n_a.png,I,z,1614,18,1,2618.300000190735,832575.8999996185,9005,VNB,A,16
0,test,3,1.0,2-Back,,,Wed Nov 13 2024 10:29:30 GMT-0500 (Eastern Standard Time),835194.1999998093,039_o_m_n_a.png,I,space,9575,1,1,2618.300000190735,832575.8999996185,9005,VNB,A,0
0,test,3,1.0,2-Back,,,Wed Nov 13 2024 10:29:30 GMT-0500 (Eastern Standard Time),835194.1999998093,124_o_f_d_a.png,I,space,9575,2,1,2618.300000190735,832575.8999996185,9005,VNB,A,0
1,test,3,0.0,2-Back,1,m,Wed Nov 13 2024 10:29:30 GMT-0500 (Eastern Standard Time),852045.0,071_y_f_h_a.png,I,m,1080,3,1,2085.2000002861023,849959.7999997139,9005,VNB,A,1
1,test,3,0.0,2-Back,0,z,Wed Nov 13 2024 10:29:30 GMT-0500 (Eastern Standard Time),854494.2999997139,139_m_f_d_a.png,I,m,1427,4,1,2435.5999999046326,852058.6999998093,9005,VNB,A,2
1,test,3,1.0,2-Back,0,m,Wed Nov 13 2024 10:29:30 GMT-0500 (Eastern Standard Time),857377.3999996185,109_y_m_n_a.png,I,z,1663,5,1,2872.8999996185303,854504.5,9005,VNB,A,3
1,test,3,0.0,2-Back,0,m,Wed Nov 13 2024 10:29:30 GMT-0500 (Eastern Standard Time),860411.5999999046,039_o_m_h_a.png,I,None,2016,6,1,3021.0,857390.5999999046,9005,VNB,A,4
2,test,3,0.0,2-Back,1,z,Wed Nov 13 2024 10:29:30 GMT-0500 (Eastern Standard Time),863161.2999997139,071_y_f_n_a.png,I,z,1716,7,1,2735.0,860426.2999997139,9005,VNB,A,5
3,test,3,1.0,2-Back,1,m,Wed Nov 13 2024 10:29:30 GMT-0500 (Eastern Standard Time),865511.5999999046,165_m_m_d_a.png,I,m,1303,8,1,2333.9000000953674,863177.6999998093,9005,VNB,A,6
3,test,3,0.0,2-Back,0,m,Wed Nov 13 2024 10:29:30 GMT-0500 (Eastern Standard Time),867878.1999998093,109_y_m_d_a.png,I,z,1321,9,1,2350.4000000953674,865527.7999997139,9005,VNB,A,7
4,test,3,0.0,2-Back,1,m,Wed Nov 13 2024 10:29:30 GMT-0500 (Eastern Standard Time),870478.2999997139,124_o_f_h_a.png,I,m,1579,10,1,2585.5,867892.7999997139,9005,VNB,A,8
4,test,3,1.0,2-Back,0,m,Wed Nov 13 2024 10:29:30 GMT-0500 (Eastern Standard Time),872678.2999997139,139_m_f_n_a.png,I,z,1154,11,1,2183.199999809265,870495.0999999046,9005,VNB,A,9
5,test,3,1.0,2-Back,1,z,Wed Nov 13 2024 10:29:30 GMT-0500 (Eastern Standard Time),875128.2999997139,165_m_m_h_a.png,I,z,1419,12,1,2435.2999997138977,872693.0,9005,VNB,A,10
6,test,3,0.0,2-Back,1,m,Wed Nov 13 2024 10:29:30 GMT-0500 (Eastern Standard Time),877411.5999999046,071_y_f_d_a.png,I,m,1257,13,1,2269.800000190735,875141.7999997139,9005,VNB,A,11
7,test,3,0.0,2-Back,1,m,Wed Nov 13 2024 10:29:30 GMT-0500 (Eastern Standard Time),879644.5,124_o_f_n_a.png,I,m,1212,14,1,2219.7000002861023,877424.7999997139,9005,VNB,A,12
8,test,3,0.0,2-Back,1,z,Wed Nov 13 2024 10:29:30 GMT-0500 (Eastern Standard Time),881811.5,039_o_m_d_a.png,I,z,1141,15,1,2156.4000000953674,879655.0999999046,9005,VNB,A,13
9,test,3,1.0,2-Back,1,m,Wed Nov 13 2024 10:29:30 GMT-0500 (Eastern Standard Time),883978.1999998093,139_m_f_h_a.png,I,m,1133,16,1,2153.0999999046326,881825.0999999046,9005,VNB,A,14
9,test,3,0.0,2-Back,0,m,Wed Nov 13 2024 10:29:30 GMT-0500 (Eastern Standard Time),886227.8999996185,165_m_m_n_a.png,I,z,1222,17,1,2236.3999996185303,883991.5,9005,VNB,A,15
9,test,3,0.0,2-Back,0,z,Wed Nov 13 2024 10:29:30 GMT-0500 (Eastern Standard Time),888878.0,109_y_m_h_a.png,I,m,1629,18,1,2636.7000002861023,886241.2999997139,9005,VNB,A,16
0,test,4,0.0,2-Back,,,Wed Nov 13 2024 10:29:30 GMT-0500 (Eastern Standard Time),888878.0,139_m_f_n_a.png,I,space,6659,1,1,2636.7000002861023,886241.2999997139,9005,VNB,A,0
0,test,4,0.0,2-Back,,,Wed Nov 13 2024 10:29:30 GMT-0500 (Eastern Standard Time),888878.0,039_o_m_n_a.png,I,space,6659,2,1,2636.7000002861023,886241.2999997139,9005,VNB,A,0
1,test,4,1.0,2-Back,1,m,Wed Nov 13 2024 10:29:30 GMT-0500 (Eastern Standard Time),902811.3999996185,109_y_m_h_a.png,I,m,1131,3,1,2136.699999809265,900674.6999998093,9005,VNB,A,1
2,test,4,1.0,2-Back,1,m,Wed Nov 13 2024 10:29:30 GMT-0500 (Eastern Standard Time),905628.1999998093,124_o_f_d_a.png,I,m,1797,4,1,2802.800000190735,902825.3999996185,9005,VNB,A,2
3,test,4,0.0,2-Back,1,z,Wed Nov 13 2024 10:29:30 GMT-0500 (Eastern Standard Time),907878.2999997139,039_o_m_h_a.png,I,z,1221,5,1,2235.5,905642.7999997139,9005,VNB,A,3
3,test,4,0.0,2-Back,0,m,Wed Nov 13 2024 10:29:30 GMT-0500 (Eastern Standard Time),909994.5,165_m_m_n_a.png,I,z,1097,6,1,2100.6000003814697,907893.8999996185,9005,VNB,A,4
4,test,4,0.0,2-Back,1,m,Wed Nov 13 2024 10:29:30 GMT-0500 (Eastern Standard Time),912328.1999998093,139_m_f_d_a.png,I,m,1302,7,1,2322.199999809265,910006.0,9005,VNB,A,5
5,test,4,0.0,2-Back,1,z,Wed Nov 13 2024 10:29:30 GMT-0500 (Eastern Standard Time),914128.2999997139,071_y_f_n_a.png,I,z,777,8,1,1784.5,912343.7999997139,9005,VNB,A,6
6,test,4,1.0,2-Back,1,m,Wed Nov 13 2024 10:29:30 GMT-0500 (Eastern Standard Time),916411.5999999046,124_o_f_h_a.png,I,m,1248,9,1,2264.5999999046326,914147.0,9005,VNB,A,7
7,test,4,0.0,2-Back,1,m,Wed Nov 13 2024 10:29:30 GMT-0500 (Eastern Standard Time),919078.2999997139,165_m_m_h_a.png,I,m,1637,10,1,2652.2999997138977,916426.0,9005,VNB,A,8
8,test,4,0.0,2-Back,1,m,Wed Nov 13 2024 10:29:30 GMT-0500 (Eastern Standard Time),921394.7999997139,071_y_f_d_a.png,I,m,1291,11,1,2301.5,919093.2999997139,9005,VNB,A,9
9,test,4,0.0,2-Back,1,m,Wed Nov 13 2024 10:29:30 GMT-0500 (Eastern Standard Time),923661.5,109_y_m_n_a.png,I,m,1246,12,1,2253.2000002861023,921408.2999997139,9005,VNB,A,10
10,test,4,0.0,2-Back,1,z,Wed Nov 13 2024 10:29:30 GMT-0500 (Eastern Standard Time),925745.0,039_o_m_d_a.png,I,z,1059,13,1,2068.800000190735,923676.1999998093,9005,VNB,A,11
10,test,4,1.0,2-Back,0,m,Wed Nov 13 2024 10:29:30 GMT-0500 (Eastern Standard Time),927928.3999996185,139_m_f_h_a.png,I,z,1135,14,1,2167.2999997138977,925761.0999999046,9005,VNB,A,12
10,test,4,1.0,2-Back,0,m,Wed Nov 13 2024 10:29:30 GMT-0500 (Eastern Standard Time),930495.0,071_y_f_h_a.png,I,z,1545,15,1,2553.4000000953674,927941.5999999046,9005,VNB,A,13
11,test,4,0.0,2-Back,1,m,Wed Nov 13 2024 10:29:30 GMT-0500 (Eastern Standard Time),933278.2999997139,124_o_f_n_a.png,I,m,1762,16,1,2770.2999997138977,930508.0,9005,VNB,A,14
12,test,4,0.0,2-Back,1,m,Wed Nov 13 2024 10:29:30 GMT-0500 (Eastern Standard Time),936094.8999996185,109_y_m_d_a.png,I,m,1795,17,1,2801.699999809265,933293.1999998093,9005,VNB,A,15
12,test,4,1.0,2-Back,0,m,Wed Nov 13 2024 10:29:30 GMT-0500 (Eastern Standard Time),939128.3999996185,165_m_m_d_a.png,I,None,2016,18,1,3019.3999996185303,936109.0,9005,VNB,A,16
0,test,5,1.0,2-Back,,,Wed Nov 13 2024 10:29:30 GMT-0500 (Eastern Standard Time),939128.3999996185,071_y_f_d_a.png,I,space,6016,1,1,3019.3999996185303,936109.0,9005,VNB,A,0
0,test,5,1.0,2-Back,,,Wed Nov 13 2024 10:29:30 GMT-0500 (Eastern Standard Time),939128.3999996185,124_o_f_h_a.png,I,space,6016,2,1,3019.3999996185303,936109.0,9005,VNB,A,0
1,test,5,1.0,2-Back,1,z,Wed Nov 13 2024 10:29:30 GMT-0500 (Eastern Standard Time),952661.6999998093,039_o_m_d_a.png,I,z,1321,3,1,2335.9000000953674,950325.7999997139,9005,VNB,A,1
2,test,5,1.0,2-Back,1,m,Wed Nov 13 2024 10:29:30 GMT-0500 (Eastern Standard Time),954961.5999999046,139_m_f_n_a.png,I,m,1275,4,1,2286.2000002861023,952675.3999996185,9005,VNB,A,2
2,test,5,0.0,2-Back,0,m,Wed Nov 13 2024 10:29:30 GMT-0500 (Eastern Standard Time),957028.1999998093,165_m_m_h_a.png,I,z,1039,5,1,2052.4000000953674,954975.7999997139,9005,VNB,A,3
2,test,5,0.0,2-Back,0,z,Wed Nov 13 2024 10:29:30 GMT-0500 (Eastern Standard Time),959811.5,071_y_f_n_a.png,I,m,1757,6,1,2768.5,957043.0,9005,VNB,A,4
3,test,5,0.0,2-Back,1,m,Wed Nov 13 2024 10:29:30 GMT-0500 (Eastern Standard Time),961844.8999996185,124_o_f_d_a.png,I,m,1004,7,1,2018.8999996185303,959826.0,9005,VNB,A,5
4,test,5,0.0,2-Back,1,m,Wed Nov 13 2024 10:29:30 GMT-0500 (Eastern Standard Time),964261.5999999046,039_o_m_h_a.png,I,m,1388,8,1,2401.9000000953674,961859.6999998093,9005,VNB,A,6
5,test,5,1.0,2-Back,1,z,Wed Nov 13 2024 10:29:30 GMT-0500 (Eastern Standard Time),966011.7999997139,139_m_f_d_a.png,I,z,731,9,1,1737.0999999046326,964274.6999998093,9005,VNB,A,7
6,test,5,0.0,2-Back,1,m,Wed Nov 13 2024 10:29:30 GMT-0500 (Eastern Standard Time),968328.2999997139,109_y_m_n_a.png,I,m,1285,10,1,2302.2999997138977,966026.0,9005,VNB,A,8
6,test,5,0.0,2-Back,0,m,Wed Nov 13 2024 10:29:30 GMT-0500 (Eastern Standard Time),970744.8999996185,165_m_m_n_a.png,I,z,1383,11,1,2402.3999996185303,968342.5,9005,VNB,A,9
6,test,5,0.0,2-Back,0,m,Wed Nov 13 2024 10:29:30 GMT-0500 (Eastern Standard Time),973011.8999996185,071_y_f_h_a.png,I,z,1240,12,1,2252.5,970759.3999996185,9005,VNB,A,10
6,test,5,0.0,2-Back,0,m,Wed Nov 13 2024 10:29:30 GMT-0500 (Eastern Standard Time),975511.6999998093,109_y_m_d_a.png,I,z,1452,13,1,2484.5999999046326,973027.0999999046,9005,VNB,A,11
6,test,5,1.0,2-Back,0,z,Wed Nov 13 2024 10:29:30 GMT-0500 (Eastern Standard Time),978095.0999999046,139_m_f_h_a.png,I,m,1544,14,1,2568.0,975527.0999999046,9005,VNB,A,12
7,test,5,0.0,2-Back,1,m,Wed Nov 13 2024 10:29:30 GMT-0500 (Eastern Standard Time),980844.8999996185,039_o_m_n_a.png,I,m,1730,15,1,2736.2999997138977,978108.5999999046,9005,VNB,A,13
8,test,5,0.0,2-Back,1,m,Wed Nov 13 2024 10:29:30 GMT-0500 (Eastern Standard Time),983028.6999998093,165_m_m_d_a.png,I,m,1156,16,1,2170.4000000953674,980858.2999997139,9005,VNB,A,14
8,test,5,0.0,2-Back,0,z,Wed Nov 13 2024 10:29:30 GMT-0500 (Eastern Standard Time),985978.5,124_o_f_n_a.png,I,m,1933,17,1,2936.9000000953674,983041.5999999046,9005,VNB,A,15
8,test,5,1.0,2-Back,0,m,Wed Nov 13 2024 10:29:30 GMT-0500 (Eastern Standard Time),989028.0999999046,109_y_m_h_a.png,I,None,2016,18,1,3032.800000190735,985995.2999997139,9005,VNB,A,16
