acc_sum,block,block_c,change,condition,correct,correct_response,datetime,endtime,face,project,response,response_time,row_sel,session_number,start_end,starttime,subject_id,task,task_vers,trial
0,prac,1,,1-Back,,,Wed Mar 26 2025 11:18:03 GMT-0400 (Eastern Daylight Time),,012_o_f_d_a.png,I,space,8767,1,2,,,9005,VNB,C,0
1,prac,1,0.0,1-Back,1,m,Wed Mar 26 2025 11:18:03 GMT-0400 (Eastern Daylight Time),192490.7000002861,022_y_f_n_a.png,I,m,814,2,2,1766.9000000953674,190723.80000019073,9005,VNB,C,1
2,prac,1,0.0,1-Back,1,m,Wed Mar 26 2025 11:18:03 GMT-0400 (Eastern Daylight Time),194640.80000019073,014_m_m_h_a.png,I,m,1207,3,2,2134.800000190735,192506.0,9005,VNB,C,2
3,prac,1,0.0,1-Back,1,m,Wed Mar 26 2025 11:18:03 GMT-0400 (Eastern Daylight Time),196774.10000038147,025_y_m_d_a.png,I,m,1204,4,2,2114.800000190735,194659.30000019073,9005,VNB,C,3
4,prac,1,0.0,1-Back,1,m,Wed Mar 26 2025 11:18:03 GMT-0400 (Eastern Daylight Time),198674.0,012_o_f_n_a.png,I,m,928,5,2,1886.5999999046326,196787.40000009537,9005,VNB,C,4
5,prac,1,1.0,1-Back,1,z,Wed Mar 26 2025 11:18:03 GMT-0400 (Eastern Daylight Time),200473.90000009537,025_y_m_n_a.png,I,z,855,6,2,1771.0999999046326,198702.80000019073,9005,VNB,C,5
6,prac,1,0.0,1-Back,1,m,Wed Mar 26 2025 11:18:03 GMT-0400 (Eastern Daylight Time),202257.30000019073,015_o_m_h_a.png,I,m,806,7,2,1767.9000000953674,200489.40000009537,9005,VNB,C,6
7,prac,1,0.0,1-Back,1,m,Wed Mar 26 2025 11:18:03 GMT-0400 (Eastern Daylight Time),204173.80000019073,019_m_f_d_a.png,I,m,946,8,2,1903.9000000953674,202269.90000009537,9005,VNB,C,7
8,prac,1,1.0,1-Back,1,z,Wed Mar 26 2025 11:18:03 GMT-0400 (Eastern Daylight Time),205940.60000038147,022_y_f_d_a.png,I,z,802,9,2,1747.9000000953674,204192.7000002861,9005,VNB,C,8
9,prac,1,0.0,1-Back,1,m,Wed Mar 26 2025 11:18:03 GMT-0400 (Eastern Daylight Time),207689.90000009537,014_m_m_n_a.png,I,m,816,10,2,1734.1999998092651,205955.7000002861,9005,VNB,C,9
10,prac,1,0.0,1-Back,1,m,Wed Mar 26 2025 11:18:03 GMT-0400 (Eastern Daylight Time),209457.40000009537,012_o_f_h_a.png,I,m,802,11,2,1758.6999998092651,207698.7000002861,9005,VNB,C,10
11,prac,1,0.0,1-Back,1,m,Wed Mar 26 2025 11:18:03 GMT-0400 (Eastern Daylight Time),211407.10000038147,025_y_m_d_a.png,I,m,1016,12,2,1937.0,209470.10000038147,9005,VNB,C,11
0,test,1,0.0,1-Back,,,Wed Mar 26 2025 11:18:03 GMT-0400 (Eastern Daylight Time),211407.10000038147,022_y_f_d_a.png,I,space,16038,1,2,1937.0,209470.10000038147,9005,VNB,C,0
1,test,1,0.0,1-Back,1,m,Wed Mar 26 2025 11:18:03 GMT-0400 (Eastern Daylight Time),238857.2000002861,019_m_f_n_a.png,I,m,708,2,2,1721.5,237135.7000002861,9005,VNB,C,1
2,test,1,0.0,1-Back,1,m,Wed Mar 26 2025 11:18:03 GMT-0400 (Eastern Daylight Time),240907.0,015_o_m_h_a.png,I,m,1023,3,2,2037.7999997138977,238869.2000002861,9005,VNB,C,2
3,test,1,1.0,1-Back,1,z,Wed Mar 26 2025 11:18:03 GMT-0400 (Eastern Daylight Time),242523.80000019073,014_m_m_h_a.png,I,z,589,4,2,1605.4000000953674,240918.40000009537,9005,VNB,C,3
4,test,1,0.0,1-Back,1,m,Wed Mar 26 2025 11:18:03 GMT-0400 (Eastern Daylight Time),244373.7000002861,012_o_f_n_a.png,I,m,828,5,2,1840.0,242533.7000002861,9005,VNB,C,4
5,test,1,0.0,1-Back,1,m,Wed Mar 26 2025 11:18:03 GMT-0400 (Eastern Daylight Time),246290.7000002861,025_y_m_d_a.png,I,m,898,6,2,1903.9000000953674,244386.80000019073,9005,VNB,C,5
6,test,1,1.0,1-Back,1,z,Wed Mar 26 2025 11:18:03 GMT-0400 (Eastern Daylight Time),247923.60000038147,019_m_f_d_a.png,I,z,614,7,2,1620.3000001907349,246303.30000019073,9005,VNB,C,6
7,test,1,0.0,1-Back,1,m,Wed Mar 26 2025 11:18:03 GMT-0400 (Eastern Daylight Time),249657.10000038147,022_y_f_h_a.png,I,m,708,8,2,1721.2000002861023,247935.90000009537,9005,VNB,C,7
8,test,1,0.0,1-Back,1,m,Wed Mar 26 2025 11:18:03 GMT-0400 (Eastern Daylight Time),251540.40000009537,015_o_m_n_a.png,I,m,863,9,2,1872.4000000953674,249668.0,9005,VNB,C,8
9,test,1,0.0,1-Back,1,m,Wed Mar 26 2025 11:18:03 GMT-0400 (Eastern Daylight Time),253357.10000038147,025_y_m_h_a.png,I,m,788,10,2,1803.7000002861023,251553.40000009537,9005,VNB,C,9
10,test,1,0.0,1-Back,1,m,Wed Mar 26 2025 11:18:03 GMT-0400 (Eastern Daylight Time),255307.10000038147,015_o_m_d_a.png,I,m,923,11,2,1937.3000001907349,253369.80000019073,9005,VNB,C,10
11,test,1,1.0,1-Back,1,z,Wed Mar 26 2025 11:18:03 GMT-0400 (Eastern Daylight Time),256957.0,012_o_f_d_a.png,I,z,621,12,2,1637.5999999046326,255319.40000009537,9005,VNB,C,11
12,test,1,0.0,1-Back,1,m,Wed Mar 26 2025 11:18:03 GMT-0400 (Eastern Daylight Time),258773.2000002861,014_m_m_n_a.png,I,m,795,13,2,1805.7000002861023,256967.5,9005,VNB,C,12
13,test,1,1.0,1-Back,1,z,Wed Mar 26 2025 11:18:03 GMT-0400 (Eastern Daylight Time),260657.0,022_y_f_n_a.png,I,z,852,14,2,1878.1999998092651,258778.80000019073,9005,VNB,C,13
14,test,1,0.0,1-Back,1,m,Wed Mar 26 2025 11:18:03 GMT-0400 (Eastern Daylight Time),262456.80000019073,019_m_f_h_a.png,I,m,776,15,2,1789.5,260667.30000019073,9005,VNB,C,14
15,test,1,0.0,1-Back,1,m,Wed Mar 26 2025 11:18:03 GMT-0400 (Eastern Daylight Time),264373.40000009537,014_m_m_d_a.png,I,m,894,16,2,1906.0999999046326,262467.30000019073,9005,VNB,C,15
16,test,1,0.0,1-Back,1,m,Wed Mar 26 2025 11:18:03 GMT-0400 (Eastern Daylight Time),266306.7000002861,025_y_m_n_a.png,I,m,915,17,2,1923.3000001907349,264383.40000009537,9005,VNB,C,16
17,test,1,0.0,1-Back,1,m,Wed Mar 26 2025 11:18:03 GMT-0400 (Eastern Daylight Time),268107.10000038147,012_o_f_h_a.png,I,m,773,18,2,1791.3000001907349,266315.80000019073,9005,VNB,C,17
0,test,2,0.0,1-Back,,,Wed Mar 26 2025 11:18:03 GMT-0400 (Eastern Daylight Time),268107.10000038147,025_y_m_n_a.png,I,space,2109,1,2,1791.3000001907349,266315.80000019073,9005,VNB,C,0
1,test,2,0.0,1-Back,1,m,Wed Mar 26 2025 11:18:03 GMT-0400 (Eastern Daylight Time),274340.30000019073,022_y_f_h_a.png,I,m,1080,2,2,2089.0999999046326,272251.2000002861,9005,VNB,C,1
2,test,2,1.0,1-Back,1,m,Wed Mar 26 2025 11:18:03 GMT-0400 (Eastern Daylight Time),276373.7000002861,015_o_m_n_a.png,I,m,1012,3,2,2022.0999999046326,274351.60000038147,9005,VNB,C,2
3,test,2,0.0,1-Back,1,m,Wed Mar 26 2025 11:18:03 GMT-0400 (Eastern Daylight Time),278290.2000002861,019_m_f_d_a.png,I,m,883,4,2,1907.4000000953674,276382.80000019073,9005,VNB,C,3
4,test,2,0.0,1-Back,1,z,Wed Mar 26 2025 11:18:03 GMT-0400 (Eastern Daylight Time),279906.5,014_m_m_d_a.png,I,z,598,5,2,1605.2999997138977,278301.2000002861,9005,VNB,C,4
5,test,2,0.0,1-Back,1,m,Wed Mar 26 2025 11:18:03 GMT-0400 (Eastern Daylight Time),281590.30000019073,025_y_m_h_a.png,I,m,661,6,2,1674.0,279916.30000019073,9005,VNB,C,5
6,test,2,1.0,1-Back,1,z,Wed Mar 26 2025 11:18:03 GMT-0400 (Eastern Daylight Time),283156.90000009537,012_o_f_h_a.png,I,z,546,7,2,1556.5,281600.40000009537,9005,VNB,C,6
7,test,2,0.0,1-Back,1,m,Wed Mar 26 2025 11:18:03 GMT-0400 (Eastern Daylight Time),284857.10000038147,019_m_f_n_a.png,I,m,675,8,2,1687.9000000953674,283169.2000002861,9005,VNB,C,7
8,test,2,0.0,1-Back,1,m,Wed Mar 26 2025 11:18:03 GMT-0400 (Eastern Daylight Time),286740.2000002861,022_y_f_d_a.png,I,m,863,9,2,1872.4000000953674,284867.80000019073,9005,VNB,C,8
9,test,2,0.0,1-Back,1,m,Wed Mar 26 2025 11:18:03 GMT-0400 (Eastern Daylight Time),288590.2000002861,014_m_m_n_a.png,I,m,820,10,2,1839.3000001907349,286750.90000009537,9005,VNB,C,9
10,test,2,1.0,1-Back,1,m,Wed Mar 26 2025 11:18:03 GMT-0400 (Eastern Daylight Time),290373.60000038147,019_m_f_h_a.png,I,m,762,11,2,1773.5,288600.10000038147,9005,VNB,C,10
11,test,2,0.0,1-Back,1,z,Wed Mar 26 2025 11:18:03 GMT-0400 (Eastern Daylight Time),292073.60000038147,015_o_m_h_a.png,I,z,675,12,2,1690.0,290383.60000038147,9005,VNB,C,11
12,test,2,0.0,1-Back,1,m,Wed Mar 26 2025 11:18:03 GMT-0400 (Eastern Daylight Time),293823.60000038147,025_y_m_d_a.png,I,m,718,13,2,1739.4000000953674,292084.2000002861,9005,VNB,C,12
13,test,2,0.0,1-Back,1,m,Wed Mar 26 2025 11:18:03 GMT-0400 (Eastern Daylight Time),295640.40000009537,012_o_f_n_a.png,I,m,793,14,2,1807.0,293833.40000009537,9005,VNB,C,13
14,test,2,0.0,1-Back,1,z,Wed Mar 26 2025 11:18:03 GMT-0400 (Eastern Daylight Time),297540.30000019073,022_y_f_n_a.png,I,z,880,15,2,1889.5999999046326,295650.7000002861,9005,VNB,C,14
15,test,2,1.0,1-Back,1,m,Wed Mar 26 2025 11:18:03 GMT-0400 (Eastern Daylight Time),299323.80000019073,014_m_m_h_a.png,I,m,756,16,2,1773.6999998092651,297550.10000038147,9005,VNB,C,15
16,test,2,0.0,1-Back,1,m,Wed Mar 26 2025 11:18:03 GMT-0400 (Eastern Daylight Time),301173.7000002861,012_o_f_d_a.png,I,m,828,17,2,1838.2000002861023,299335.5,9005,VNB,C,16
17,test,2,1.0,1-Back,1,z,Wed Mar 26 2025 11:18:03 GMT-0400 (Eastern Daylight Time),302690.10000038147,015_o_m_d_a.png,I,z,499,18,2,1507.1000003814697,301183.0,9005,VNB,C,17
0,test,3,1.0,1-Back,,,Wed Mar 26 2025 11:18:03 GMT-0400 (Eastern Daylight Time),302690.10000038147,012_o_f_h_a.png,I,space,2678,1,2,1507.1000003814697,301183.0,9005,VNB,C,0
1,test,3,0.0,1-Back,1,m,Wed Mar 26 2025 11:18:03 GMT-0400 (Eastern Daylight Time),309440.30000019073,019_m_f_d_a.png,I,m,851,2,2,1872.0999999046326,307568.2000002861,9005,VNB,C,1
2,test,3,1.0,1-Back,1,m,Wed Mar 26 2025 11:18:03 GMT-0400 (Eastern Daylight Time),311156.80000019073,014_m_m_n_a.png,I,m,696,3,2,1705.0,309451.80000019073,9005,VNB,C,2
3,test,3,0.0,1-Back,1,z,Wed Mar 26 2025 11:18:03 GMT-0400 (Eastern Daylight Time),312890.2000002861,012_o_f_n_a.png,I,z,707,4,2,1724.4000000953674,311165.80000019073,9005,VNB,C,3
4,test,3,1.0,1-Back,1,m,Wed Mar 26 2025 11:18:03 GMT-0400 (Eastern Daylight Time),314907.0,015_o_m_d_a.png,I,m,990,5,2,2005.1999998092651,312901.80000019073,9005,VNB,C,4
5,test,3,0.0,1-Back,1,m,Wed Mar 26 2025 11:18:03 GMT-0400 (Eastern Daylight Time),316723.30000019073,022_y_f_h_a.png,I,m,798,6,2,1807.5999999046326,314915.7000002861,9005,VNB,C,5
6,test,3,0.0,1-Back,1,z,Wed Mar 26 2025 11:18:03 GMT-0400 (Eastern Daylight Time),318456.80000019073,025_y_m_h_a.png,I,z,709,7,2,1723.1999998092651,316733.60000038147,9005,VNB,C,6
7,test,3,0.0,1-Back,1,m,Wed Mar 26 2025 11:18:03 GMT-0400 (Eastern Daylight Time),320190.30000019073,019_m_f_n_a.png,I,m,704,8,2,1722.9000000953674,318467.40000009537,9005,VNB,C,7
8,test,3,0.0,1-Back,1,m,Wed Mar 26 2025 11:18:03 GMT-0400 (Eastern Daylight Time),322223.60000038147,022_y_f_d_a.png,I,m,1002,9,2,2024.2000002861023,320199.40000009537,9005,VNB,C,8
8,test,3,1.0,1-Back,0,m,Wed Mar 26 2025 11:18:03 GMT-0400 (Eastern Daylight Time),324289.7000002861,015_o_m_n_a.png,I,z,1031,10,2,2055.0,322234.7000002861,9005,VNB,C,9
9,test,3,0.0,1-Back,1,m,Wed Mar 26 2025 11:18:03 GMT-0400 (Eastern Daylight Time),326273.7000002861,014_m_m_h_a.png,I,m,950,11,2,1975.8000001907349,324297.90000009537,9005,VNB,C,10
10,test,3,0.0,1-Back,1,z,Wed Mar 26 2025 11:18:03 GMT-0400 (Eastern Daylight Time),328040.5,019_m_f_h_a.png,I,z,743,12,2,1758.0,326282.5,9005,VNB,C,11
11,test,3,1.0,1-Back,1,m,Wed Mar 26 2025 11:18:03 GMT-0400 (Eastern Daylight Time),329856.90000009537,012_o_f_d_a.png,I,m,784,13,2,1806.6999998092651,328050.2000002861,9005,VNB,C,12
12,test,3,0.0,1-Back,1,z,Wed Mar 26 2025 11:18:03 GMT-0400 (Eastern Daylight Time),331707.0,014_m_m_d_a.png,I,z,824,14,2,1838.5999999046326,329868.40000009537,9005,VNB,C,13
13,test,3,0.0,1-Back,1,m,Wed Mar 26 2025 11:18:03 GMT-0400 (Eastern Daylight Time),333406.80000019073,025_y_m_n_a.png,I,m,669,15,2,1688.4000000953674,331718.40000009537,9005,VNB,C,14
14,test,3,1.0,1-Back,1,m,Wed Mar 26 2025 11:18:03 GMT-0400 (Eastern Daylight Time),335240.2000002861,015_o_m_h_a.png,I,m,809,16,2,1823.0,333417.2000002861,9005,VNB,C,15
15,test,3,0.0,1-Back,1,m,Wed Mar 26 2025 11:18:03 GMT-0400 (Eastern Daylight Time),337040.30000019073,025_y_m_d_a.png,I,m,768,17,2,1790.4000000953674,335249.90000009537,9005,VNB,C,16
16,test,3,1.0,1-Back,1,m,Wed Mar 26 2025 11:18:03 GMT-0400 (Eastern Daylight Time),338890.30000019073,022_y_f_n_a.png,I,m,824,18,2,1839.5,337050.80000019073,9005,VNB,C,17
0,test,4,1.0,1-Back,,,Wed Mar 26 2025 11:18:03 GMT-0400 (Eastern Daylight Time),338890.30000019073,014_m_m_d_a.png,I,space,3230,1,2,1839.5,337050.80000019073,9005,VNB,C,0
1,test,4,0.0,1-Back,1,z,Wed Mar 26 2025 11:18:03 GMT-0400 (Eastern Daylight Time),345956.90000009537,015_o_m_d_a.png,I,z,646,2,2,1657.2999997138977,344299.60000038147,9005,VNB,C,1
2,test,4,0.0,1-Back,1,m,Wed Mar 26 2025 11:18:03 GMT-0400 (Eastern Daylight Time),347640.30000019073,025_y_m_h_a.png,I,m,659,3,2,1671.9000000953674,345968.40000009537,9005,VNB,C,2
3,test,4,0.0,1-Back,1,m,Wed Mar 26 2025 11:18:03 GMT-0400 (Eastern Daylight Time),349490.30000019073,019_m_f_n_a.png,I,m,816,4,2,1839.5,347650.80000019073,9005,VNB,C,3
4,test,4,1.0,1-Back,1,m,Wed Mar 26 2025 11:18:03 GMT-0400 (Eastern Daylight Time),351273.60000038147,012_o_f_h_a.png,I,m,758,5,2,1774.2000002861023,349499.40000009537,9005,VNB,C,4
5,test,4,0.0,1-Back,1,m,Wed Mar 26 2025 11:18:03 GMT-0400 (Eastern Daylight Time),353056.90000009537,014_m_m_n_a.png,I,m,751,6,2,1772.4000000953674,351284.5,9005,VNB,C,5
6,test,4,0.0,1-Back,1,m,Wed Mar 26 2025 11:18:03 GMT-0400 (Eastern Daylight Time),355006.7000002861,025_y_m_d_a.png,I,m,919,7,2,1939.0999999046326,353067.60000038147,9005,VNB,C,6
7,test,4,1.0,1-Back,1,z,Wed Mar 26 2025 11:18:03 GMT-0400 (Eastern Daylight Time),356556.90000009537,022_y_f_d_a.png,I,z,521,8,2,1540.0999999046326,355016.80000019073,9005,VNB,C,7
8,test,4,0.0,1-Back,1,m,Wed Mar 26 2025 11:18:03 GMT-0400 (Eastern Daylight Time),358273.5,019_m_f_h_a.png,I,m,682,9,2,1708.0,356565.5,9005,VNB,C,8
9,test,4,0.0,1-Back,1,z,Wed Mar 26 2025 11:18:03 GMT-0400 (Eastern Daylight Time),359923.60000038147,015_o_m_h_a.png,I,z,631,10,2,1637.9000000953674,358285.7000002861,9005,VNB,C,9
10,test,4,1.0,1-Back,1,m,Wed Mar 26 2025 11:18:03 GMT-0400 (Eastern Daylight Time),361590.2000002861,012_o_f_n_a.png,I,m,645,11,2,1652.9000000953674,359937.30000019073,9005,VNB,C,10
11,test,4,0.0,1-Back,1,m,Wed Mar 26 2025 11:18:03 GMT-0400 (Eastern Daylight Time),363373.60000038147,019_m_f_d_a.png,I,m,754,12,2,1773.5,361600.10000038147,9005,VNB,C,11
12,test,4,0.0,1-Back,1,m,Wed Mar 26 2025 11:18:03 GMT-0400 (Eastern Daylight Time),365340.2000002861,022_y_f_n_a.png,I,m,939,13,2,1957.0999999046326,363383.10000038147,9005,VNB,C,12
13,test,4,0.0,1-Back,1,m,Wed Mar 26 2025 11:18:03 GMT-0400 (Eastern Daylight Time),367290.10000038147,012_o_f_d_a.png,I,m,925,14,2,1938.6000003814697,365351.5,9005,VNB,C,13
14,test,4,0.0,1-Back,1,m,Wed Mar 26 2025 11:18:03 GMT-0400 (Eastern Daylight Time),369123.5,022_y_f_h_a.png,I,m,814,15,2,1824.0999999046326,367299.40000009537,9005,VNB,C,14
15,test,4,1.0,1-Back,1,z,Wed Mar 26 2025 11:18:03 GMT-0400 (Eastern Daylight Time),370756.90000009537,014_m_m_h_a.png,I,z,613,16,2,1623.5,369133.40000009537,9005,VNB,C,15
16,test,4,0.0,1-Back,1,m,Wed Mar 26 2025 11:18:03 GMT-0400 (Eastern Daylight Time),372490.2000002861,015_o_m_n_a.png,I,m,707,17,2,1723.0999999046326,370767.10000038147,9005,VNB,C,16
17,test,4,1.0,1-Back,1,z,Wed Mar 26 2025 11:18:03 GMT-0400 (Eastern Daylight Time),374290.90000009537,025_y_m_n_a.png,I,z,782,18,2,1790.0,372500.90000009537,9005,VNB,C,17
0,test,5,1.0,1-Back,,,Wed Mar 26 2025 11:18:03 GMT-0400 (Eastern Daylight Time),374290.90000009537,015_o_m_n_a.png,I,space,3917,1,2,1790.0,372500.90000009537,9005,VNB,C,0
1,test,5,1.0,1-Back,1,m,Wed Mar 26 2025 11:18:03 GMT-0400 (Eastern Daylight Time),382206.80000019073,012_o_f_h_a.png,I,m,770,2,2,1787.9000000953674,380418.90000009537,9005,VNB,C,1
2,test,5,0.0,1-Back,1,m,Wed Mar 26 2025 11:18:03 GMT-0400 (Eastern Daylight Time),384073.5,025_y_m_d_a.png,I,m,842,3,2,1856.1999998092651,382217.30000019073,9005,VNB,C,2
3,test,5,0.0,1-Back,1,z,Wed Mar 26 2025 11:18:03 GMT-0400 (Eastern Daylight Time),385706.80000019073,015_o_m_d_a.png,I,z,607,4,2,1622.5,384084.30000019073,9005,VNB,C,3
4,test,5,0.0,1-Back,1,m,Wed Mar 26 2025 11:18:03 GMT-0400 (Eastern Daylight Time),387423.40000009537,019_m_f_h_a.png,I,m,685,5,2,1708.5,385714.90000009537,9005,VNB,C,4
5,test,5,0.0,1-Back,1,m,Wed Mar 26 2025 11:18:03 GMT-0400 (Eastern Daylight Time),389323.5,022_y_f_n_a.png,I,m,873,6,2,1888.7999997138977,387434.7000002861,9005,VNB,C,5
6,test,5,1.0,1-Back,1,z,Wed Mar 26 2025 11:18:03 GMT-0400 (Eastern Daylight Time),391073.40000009537,012_o_f_n_a.png,I,z,717,7,2,1738.9000000953674,389334.5,9005,VNB,C,6
7,test,5,0.0,1-Back,1,m,Wed Mar 26 2025 11:18:03 GMT-0400 (Eastern Daylight Time),392740.30000019073,019_m_f_d_a.png,I,m,647,8,2,1655.0999999046326,391085.2000002861,9005,VNB,C,7
8,test,5,0.0,1-Back,1,m,Wed Mar 26 2025 11:18:03 GMT-0400 (Eastern Daylight Time),394506.90000009537,025_y_m_h_a.png,I,m,740,9,2,1756.6999998092651,392750.2000002861,9005,VNB,C,8
9,test,5,0.0,1-Back,1,m,Wed Mar 26 2025 11:18:03 GMT-0400 (Eastern Daylight Time),396456.80000019073,022_y_f_d_a.png,I,m,926,10,2,1939.1999998092651,394517.60000038147,9005,VNB,C,9
10,test,5,0.0,1-Back,1,m,Wed Mar 26 2025 11:18:03 GMT-0400 (Eastern Daylight Time),398206.80000019073,014_m_m_n_a.png,I,m,719,11,2,1741.0,396465.80000019073,9005,VNB,C,10
11,test,5,1.0,1-Back,1,z,Wed Mar 26 2025 11:18:03 GMT-0400 (Eastern Daylight Time),400173.60000038147,019_m_f_n_a.png,I,z,937,12,2,1956.2000002861023,398217.40000009537,9005,VNB,C,11
12,test,5,0.0,1-Back,1,m,Wed Mar 26 2025 11:18:03 GMT-0400 (Eastern Daylight Time),401823.5,015_o_m_h_a.png,I,m,619,13,2,1639.8999996185303,400183.60000038147,9005,VNB,C,12
13,test,5,0.0,1-Back,1,z,Wed Mar 26 2025 11:18:03 GMT-0400 (Eastern Daylight Time),403323.60000038147,014_m_m_h_a.png,I,z,473,14,2,1488.8000001907349,401834.80000019073,9005,VNB,C,13
14,test,5,1.0,1-Back,1,m,Wed Mar 26 2025 11:18:03 GMT-0400 (Eastern Daylight Time),404990.2000002861,012_o_f_d_a.png,I,m,637,15,2,1656.8000001907349,403333.40000009537,9005,VNB,C,14
15,test,5,0.0,1-Back,1,m,Wed Mar 26 2025 11:18:03 GMT-0400 (Eastern Daylight Time),406640.30000019073,025_y_m_n_a.png,I,m,618,16,2,1639.0999999046326,405001.2000002861,9005,VNB,C,15
16,test,5,0.0,1-Back,1,m,Wed Mar 26 2025 11:18:03 GMT-0400 (Eastern Daylight Time),408340.0,022_y_f_h_a.png,I,m,680,17,2,1689.1999998092651,406650.80000019073,9005,VNB,C,16
17,test,5,0.0,1-Back,1,m,Wed Mar 26 2025 11:18:03 GMT-0400 (Eastern Daylight Time),410056.7000002861,014_m_m_d_a.png,I,m,692,18,2,1705.9000000953674,408350.80000019073,9005,VNB,C,17
0,prac,1,0.0,2-Back,,,Wed Mar 26 2025 11:18:03 GMT-0400 (Eastern Daylight Time),410056.7000002861,019_m_f_n_a.png,I,space,12690,1,2,1705.9000000953674,408350.80000019073,9005,VNB,C,0
0,prac,1,0.0,2-Back,,,Wed Mar 26 2025 11:18:03 GMT-0400 (Eastern Daylight Time),410056.7000002861,012_o_f_h_a.png,I,space,12690,2,2,1705.9000000953674,408350.80000019073,9005,VNB,C,0
1,prac,1,0.0,2-Back,1,m,Wed Mar 26 2025 11:18:03 GMT-0400 (Eastern Daylight Time),542073.5,015_o_m_d_a.png,I,m,1247,3,2,2335.199999809265,539738.3000001907,9005,VNB,C,1
2,prac,1,1.0,2-Back,1,z,Wed Mar 26 2025 11:18:03 GMT-0400 (Eastern Daylight Time),544440.2000002861,014_m_m_h_a.png,I,z,1308,4,2,2354.0999999046326,542086.1000003815,9005,VNB,C,2
2,prac,1,0.0,2-Back,0,m,Wed Mar 26 2025 11:18:03 GMT-0400 (Eastern Daylight Time),546973.4000000954,022_y_f_n_a.png,I,z,1428,5,2,2517.0999999046326,544456.3000001907,9005,VNB,C,3
3,prac,1,1.0,2-Back,1,z,Wed Mar 26 2025 11:18:03 GMT-0400 (Eastern Daylight Time),549256.8000001907,015_o_m_h_a.png,I,z,1321,6,2,2271.199999809265,546985.6000003815,9005,VNB,C,4
3,prac,1,1.0,2-Back,0,z,Wed Mar 26 2025 11:18:03 GMT-0400 (Eastern Daylight Time),551206.8000001907,025_y_m_n_a.png,I,m,950,7,2,1934.5999999046326,549272.2000002861,9005,VNB,C,5
4,prac,1,0.0,2-Back,1,m,Wed Mar 26 2025 11:18:03 GMT-0400 (Eastern Daylight Time),553740.1000003815,019_m_f_d_a.png,I,m,1422,8,2,2521.0,551219.1000003815,9005,VNB,C,6
4,prac,1,0.0,2-Back,0,m,Wed Mar 26 2025 11:18:03 GMT-0400 (Eastern Daylight Time),555973.3000001907,012_o_f_d_a.png,I,z,1178,9,2,2221.699999809265,553751.6000003815,9005,VNB,C,7
4,prac,1,0.0,2-Back,0,m,Wed Mar 26 2025 11:18:03 GMT-0400 (Eastern Daylight Time),558756.5,014_m_m_h_a.png,I,None,2003,10,2,2769.699999809265,555986.8000001907,9005,VNB,C,8
4,prac,1,1.0,2-Back,0,z,Wed Mar 26 2025 11:18:03 GMT-0400 (Eastern Daylight Time),561189.9000000954,022_y_f_d_a.png,I,m,1363,11,2,2422.2999997138977,558767.6000003815,9005,VNB,C,9
5,prac,1,0.0,2-Back,1,m,Wed Mar 26 2025 11:18:03 GMT-0400 (Eastern Daylight Time),564156.7000002861,015_o_m_n_a.png,I,m,1869,12,2,2953.5999999046326,561203.1000003815,9005,VNB,C,10
0,prac,2,0.0,2-Back,,,Wed Mar 26 2025 11:18:03 GMT-0400 (Eastern Daylight Time),564156.7000002861,019_m_f_n_a.png,I,a,5213,1,2,2953.5999999046326,561203.1000003815,9005,VNB,C,0
0,prac,2,0.0,2-Back,,,Wed Mar 26 2025 11:18:03 GMT-0400 (Eastern Daylight Time),564156.7000002861,012_o_f_h_a.png,I,a,5213,2,2,2953.5999999046326,561203.1000003815,9005,VNB,C,0
1,prac,2,0.0,2-Back,1,m,Wed Mar 26 2025 11:18:03 GMT-0400 (Eastern Daylight Time),576706.6000003815,015_o_m_d_a.png,I,m,973,3,2,1918.7000002861023,574787.9000000954,9005,VNB,C,1
2,prac,2,1.0,2-Back,1,z,Wed Mar 26 2025 11:18:03 GMT-0400 (Eastern Daylight Time),578389.9000000954,014_m_m_h_a.png,I,z,895,4,2,1667.5,576722.4000000954,9005,VNB,C,2
2,prac,2,0.0,2-Back,0,m,Wed Mar 26 2025 11:18:03 GMT-0400 (Eastern Daylight Time),580439.6000003815,022_y_f_n_a.png,I,z,1092,5,2,2037.9000000953674,578401.7000002861,9005,VNB,C,3
3,prac,2,1.0,2-Back,1,z,Wed Mar 26 2025 11:18:03 GMT-0400 (Eastern Daylight Time),582540.0,015_o_m_h_a.png,I,z,1136,6,2,2089.5999999046326,580450.4000000954,9005,VNB,C,4
3,prac,2,1.0,2-Back,0,z,Wed Mar 26 2025 11:18:03 GMT-0400 (Eastern Daylight Time),584273.5,025_y_m_n_a.png,I,m,812,7,2,1721.0,582552.5,9005,VNB,C,5
4,prac,2,0.0,2-Back,1,m,Wed Mar 26 2025 11:18:03 GMT-0400 (Eastern Daylight Time),586473.3000001907,019_m_f_d_a.png,I,m,1237,8,2,2187.4000000953674,584285.9000000954,9005,VNB,C,6
4,prac,2,0.0,2-Back,0,m,Wed Mar 26 2025 11:18:03 GMT-0400 (Eastern Daylight Time),588723.0,012_o_f_d_a.png,I,z,1298,9,2,2235.5,586487.5,9005,VNB,C,7
5,prac,2,0.0,2-Back,1,m,Wed Mar 26 2025 11:18:03 GMT-0400 (Eastern Daylight Time),590690.2000002861,014_m_m_h_a.png,I,m,1189,10,2,1957.4000000953674,588732.8000001907,9005,VNB,C,8
6,prac,2,1.0,2-Back,1,z,Wed Mar 26 2025 11:18:03 GMT-0400 (Eastern Daylight Time),592573.2000002861,022_y_f_d_a.png,I,z,916,11,2,1870.0,590703.2000002861,9005,VNB,C,9
7,prac,2,0.0,2-Back,1,m,Wed Mar 26 2025 11:18:03 GMT-0400 (Eastern Daylight Time),594806.3000001907,015_o_m_n_a.png,I,m,1268,12,2,2216.5999999046326,592589.7000002861,9005,VNB,C,10
0,test,1,0.0,2-Back,,,Wed Mar 26 2025 11:18:03 GMT-0400 (Eastern Daylight Time),594806.3000001907,025_y_m_h_a.png,I,space,39571,1,2,2216.5999999046326,592589.7000002861,9005,VNB,C,0
0,test,1,0.0,2-Back,,,Wed Mar 26 2025 11:18:03 GMT-0400 (Eastern Daylight Time),594806.3000001907,012_o_f_n_a.png,I,space,39571,2,2,2216.5999999046326,592589.7000002861,9005,VNB,C,0
1,test,1,0.0,2-Back,1,z,Wed Mar 26 2025 11:18:03 GMT-0400 (Eastern Daylight Time),695423.3000001907,015_o_m_h_a.png,I,z,718,3,2,1740.3000001907349,693683.0,9005,VNB,C,1
2,test,1,0.0,2-Back,1,m,Wed Mar 26 2025 11:18:03 GMT-0400 (Eastern Daylight Time),697589.9000000954,019_m_f_d_a.png,I,m,1144,4,2,2154.5,695435.4000000954,9005,VNB,C,2
2,test,1,1.0,2-Back,0,m,Wed Mar 26 2025 11:18:03 GMT-0400 (Eastern Daylight Time),699706.5,025_y_m_n_a.png,I,z,1091,5,2,2104.7999997138977,697601.7000002861,9005,VNB,C,3
3,test,1,0.0,2-Back,1,z,Wed Mar 26 2025 11:18:03 GMT-0400 (Eastern Daylight Time),701889.7000002861,022_y_f_d_a.png,I,z,1149,6,2,2173.5999999046326,699716.1000003815,9005,VNB,C,4
4,test,1,0.0,2-Back,1,m,Wed Mar 26 2025 11:18:03 GMT-0400 (Eastern Daylight Time),703939.0,014_m_m_h_a.png,I,m,1029,7,2,2039.0999999046326,701899.9000000954,9005,VNB,C,5
4,test,1,1.0,2-Back,0,m,Wed Mar 26 2025 11:18:03 GMT-0400 (Eastern Daylight Time),705922.9000000954,022_y_f_n_a.png,I,z,964,8,2,1978.5,703944.4000000954,9005,VNB,C,6
4,test,1,0.0,2-Back,0,z,Wed Mar 26 2025 11:18:03 GMT-0400 (Eastern Daylight Time),707890.0,012_o_f_h_a.png,I,m,948,9,2,1957.5,705932.5,9005,VNB,C,7
5,test,1,0.0,2-Back,1,m,Wed Mar 26 2025 11:18:03 GMT-0400 (Eastern Daylight Time),710722.9000000954,015_o_m_d_a.png,I,m,1815,10,2,2822.4000000953674,707900.5,9005,VNB,C,8
5,test,1,1.0,2-Back,0,m,Wed Mar 26 2025 11:18:03 GMT-0400 (Eastern Daylight Time),712873.1000003815,014_m_m_d_a.png,I,z,1124,11,2,2137.800000190735,710735.3000001907,9005,VNB,C,9
6,test,1,0.0,2-Back,1,m,Wed Mar 26 2025 11:18:03 GMT-0400 (Eastern Daylight Time),715273.1000003815,019_m_f_n_a.png,I,m,1374,12,2,2388.0,712885.1000003815,9005,VNB,C,10
7,test,1,0.0,2-Back,1,m,Wed Mar 26 2025 11:18:03 GMT-0400 (Eastern Daylight Time),717706.3000001907,022_y_f_h_a.png,I,m,1406,13,2,2423.199999809265,715283.1000003815,9005,VNB,C,11
8,test,1,0.0,2-Back,1,z,Wed Mar 26 2025 11:18:03 GMT-0400 (Eastern Daylight Time),719522.8000001907,014_m_m_n_a.png,I,z,797,14,2,1806.0999999046326,717716.7000002861,9005,VNB,C,12
8,test,1,0.0,2-Back,0,m,Wed Mar 26 2025 11:18:03 GMT-0400 (Eastern Daylight Time),722023.3000001907,025_y_m_d_a.png,I,z,1477,15,2,2490.5,719532.8000001907,9005,VNB,C,13
9,test,1,1.0,2-Back,1,m,Wed Mar 26 2025 11:18:03 GMT-0400 (Eastern Daylight Time),724273.0,019_m_f_h_a.png,I,m,1216,16,2,2240.7999997138977,722032.2000002861,9005,VNB,C,14
10,test,1,0.0,2-Back,1,z,Wed Mar 26 2025 11:18:03 GMT-0400 (Eastern Daylight Time),726639.8000001907,012_o_f_d_a.png,I,z,1334,17,2,2356.0999999046326,724283.7000002861,9005,VNB,C,15
11,test,1,0.0,2-Back,1,m,Wed Mar 26 2025 11:18:03 GMT-0400 (Eastern Daylight Time),729023.0,015_o_m_n_a.png,I,m,1352,18,2,2374.199999809265,726648.8000001907,9005,VNB,C,16
0,test,2,0.0,2-Back,,,Wed Mar 26 2025 11:18:03 GMT-0400 (Eastern Daylight Time),729023.0,014_m_m_h_a.png,I,space,16216,1,2,2374.199999809265,726648.8000001907,9005,VNB,C,0
0,test,2,0.0,2-Back,,,Wed Mar 26 2025 11:18:03 GMT-0400 (Eastern Daylight Time),729023.0,022_y_f_n_a.png,I,space,16216,2,2,2374.199999809265,726648.8000001907,9005,VNB,C,0
1,test,2,1.0,2-Back,1,z,Wed Mar 26 2025 11:18:03 GMT-0400 (Eastern Daylight Time),752456.3000001907,012_o_f_h_a.png,I,z,808,3,2,1818.9000000953674,750637.4000000954,9005,VNB,C,1
2,test,2,0.0,2-Back,1,m,Wed Mar 26 2025 11:18:03 GMT-0400 (Eastern Daylight Time),754606.3000001907,015_o_m_d_a.png,I,m,1119,4,2,2137.5999999046326,752468.7000002861,9005,VNB,C,2
2,test,2,0.0,2-Back,0,m,Wed Mar 26 2025 11:18:03 GMT-0400 (Eastern Daylight Time),756856.3000001907,019_m_f_d_a.png,I,z,1209,5,2,2233.0,754623.3000001907,9005,VNB,C,3
3,test,2,0.0,2-Back,1,m,Wed Mar 26 2025 11:18:03 GMT-0400 (Eastern Daylight Time),759606.2000002861,025_y_m_h_a.png,I,m,1727,6,2,2735.0999999046326,756871.1000003815,9005,VNB,C,4
4,test,2,0.0,2-Back,1,m,Wed Mar 26 2025 11:18:03 GMT-0400 (Eastern Daylight Time),761856.3000001907,012_o_f_n_a.png,I,m,1200,7,2,2233.5,759622.8000001907,9005,VNB,C,5
4,test,2,1.0,2-Back,0,z,Wed Mar 26 2025 11:18:03 GMT-0400 (Eastern Daylight Time),764889.6000003815,015_o_m_h_a.png,I,None,2015,8,2,3022.1000003814697,761867.5,9005,VNB,C,6
5,test,2,0.0,2-Back,1,m,Wed Mar 26 2025 11:18:03 GMT-0400 (Eastern Daylight Time),767273.0,022_y_f_d_a.png,I,m,1354,9,2,2370.199999809265,764902.8000001907,9005,VNB,C,7
5,test,2,0.0,2-Back,0,m,Wed Mar 26 2025 11:18:03 GMT-0400 (Eastern Daylight Time),769239.6000003815,025_y_m_d_a.png,I,z,942,10,2,1951.8000001907349,767287.8000001907,9005,VNB,C,8
6,test,2,0.0,2-Back,1,m,Wed Mar 26 2025 11:18:03 GMT-0400 (Eastern Daylight Time),771706.2000002861,014_m_m_n_a.png,I,m,1440,11,2,2457.0,769249.2000002861,9005,VNB,C,9
7,test,2,0.0,2-Back,1,m,Wed Mar 26 2025 11:18:03 GMT-0400 (Eastern Daylight Time),774006.1000003815,019_m_f_h_a.png,I,m,1277,12,2,2288.2000002861023,771717.9000000954,9005,VNB,C,10
8,test,2,1.0,2-Back,1,z,Wed Mar 26 2025 11:18:03 GMT-0400 (Eastern Daylight Time),775989.8000001907,015_o_m_n_a.png,I,z,962,13,2,1969.9000000953674,774019.9000000954,9005,VNB,C,11
8,test,2,0.0,2-Back,0,m,Wed Mar 26 2025 11:18:03 GMT-0400 (Eastern Daylight Time),778272.9000000954,012_o_f_d_a.png,I,z,1250,14,2,2270.199999809265,776002.7000002861,9005,VNB,C,12
9,test,2,0.0,2-Back,1,m,Wed Mar 26 2025 11:18:03 GMT-0400 (Eastern Daylight Time),780823.0,022_y_f_h_a.png,I,m,950,15,2,2539.5999999046326,778283.4000000954,9005,VNB,C,13
10,test,2,0.0,2-Back,1,z,Wed Mar 26 2025 11:18:03 GMT-0400 (Eastern Daylight Time),783206.2000002861,014_m_m_d_a.png,I,z,1360,16,2,2370.4000000953674,780835.8000001907,9005,VNB,C,14
11,test,2,0.0,2-Back,1,m,Wed Mar 26 2025 11:18:03 GMT-0400 (Eastern Daylight Time),785522.7000002861,025_y_m_n_a.png,I,m,1297,17,2,2304.7000002861023,783218.0,9005,VNB,C,15
12,test,2,1.0,2-Back,1,m,Wed Mar 26 2025 11:18:03 GMT-0400 (Eastern Daylight Time),787889.4000000954,019_m_f_n_a.png,I,m,1332,18,2,2356.5,785532.9000000954,9005,VNB,C,16
0,test,3,1.0,2-Back,,,Wed Mar 26 2025 11:18:03 GMT-0400 (Eastern Daylight Time),787889.4000000954,015_o_m_n_a.png,I,space,8863,1,2,2356.5,785532.9000000954,9005,VNB,C,0
0,test,3,1.0,2-Back,,,Wed Mar 26 2025 11:18:03 GMT-0400 (Eastern Daylight Time),787889.4000000954,012_o_f_d_a.png,I,space,8863,2,2,2356.5,785532.9000000954,9005,VNB,C,0
1,test,3,0.0,2-Back,1,m,Wed Mar 26 2025 11:18:03 GMT-0400 (Eastern Daylight Time),804073.1000003815,022_y_f_h_a.png,I,m,908,3,2,1918.7000002861023,802154.4000000954,9005,VNB,C,1
2,test,3,0.0,2-Back,1,z,Wed Mar 26 2025 11:18:03 GMT-0400 (Eastern Daylight Time),806206.1000003815,019_m_f_d_a.png,I,z,1102,4,2,2121.6000003814697,804084.5,9005,VNB,C,2
2,test,3,1.0,2-Back,0,m,Wed Mar 26 2025 11:18:03 GMT-0400 (Eastern Daylight Time),808506.0,025_y_m_n_a.png,I,z,1257,5,2,2288.699999809265,806217.3000001907,9005,VNB,C,3
3,test,3,0.0,2-Back,1,m,Wed Mar 26 2025 11:18:03 GMT-0400 (Eastern Daylight Time),810939.2000002861,015_o_m_h_a.png,I,m,1405,6,2,2423.5999999046326,808515.6000003815,9005,VNB,C,4
4,test,3,0.0,2-Back,1,z,Wed Mar 26 2025 11:18:03 GMT-0400 (Eastern Daylight Time),813156.1000003815,022_y_f_n_a.png,I,z,1196,7,2,2206.800000190735,810949.3000001907,9005,VNB,C,5
5,test,3,1.0,2-Back,1,m,Wed Mar 26 2025 11:18:03 GMT-0400 (Eastern Daylight Time),815339.0,014_m_m_d_a.png,I,m,1154,8,2,2171.3999996185303,813167.6000003815,9005,VNB,C,6
5,test,3,0.0,2-Back,0,m,Wed Mar 26 2025 11:18:03 GMT-0400 (Eastern Daylight Time),817755.6000003815,025_y_m_d_a.png,I,z,1388,9,2,2412.1000003814697,815343.5,9005,VNB,C,7
6,test,3,0.0,2-Back,1,m,Wed Mar 26 2025 11:18:03 GMT-0400 (Eastern Daylight Time),819889.3000001907,012_o_f_h_a.png,I,m,1100,10,2,2128.4000000953674,817760.9000000954,9005,VNB,C,8
7,test,3,1.0,2-Back,1,m,Wed Mar 26 2025 11:18:03 GMT-0400 (Eastern Daylight Time),821972.1000003815,019_m_f_n_a.png,I,m,1061,11,2,2071.9000000953674,819900.2000002861,9005,VNB,C,9
8,test,3,1.0,2-Back,1,z,Wed Mar 26 2025 11:18:03 GMT-0400 (Eastern Daylight Time),824172.8000001907,014_m_m_h_a.png,I,z,1171,12,2,2195.199999809265,821977.6000003815,9005,VNB,C,10
9,test,3,0.0,2-Back,1,m,Wed Mar 26 2025 11:18:03 GMT-0400 (Eastern Daylight Time),826589.5,022_y_f_d_a.png,I,m,1386,13,2,2407.0999999046326,824182.4000000954,9005,VNB,C,11
9,test,3,0.0,2-Back,0,m,Wed Mar 26 2025 11:18:03 GMT-0400 (Eastern Daylight Time),828705.8000001907,012_o_f_n_a.png,I,z,1098,14,2,2105.5999999046326,826600.2000002861,9005,VNB,C,12
10,test,3,0.0,2-Back,1,z,Wed Mar 26 2025 11:18:03 GMT-0400 (Eastern Daylight Time),831273.0,015_o_m_d_a.png,I,z,1542,15,2,2557.0999999046326,828715.9000000954,9005,VNB,C,13
11,test,3,1.0,2-Back,1,m,Wed Mar 26 2025 11:18:03 GMT-0400 (Eastern Daylight Time),833339.6000003815,019_m_f_h_a.png,I,m,1038,16,2,2054.6000003814697,831285.0,9005,VNB,C,14
11,test,3,0.0,2-Back,0,m,Wed Mar 26 2025 11:18:03 GMT-0400 (Eastern Daylight Time),835772.9000000954,014_m_m_n_a.png,I,z,1404,17,2,2422.0999999046326,833350.8000001907,9005,VNB,C,15
12,test,3,0.0,2-Back,1,z,Wed Mar 26 2025 11:18:03 GMT-0400 (Eastern Daylight Time),837890.2000002861,025_y_m_h_a.png,I,z,1099,18,2,2106.300000190735,835783.9000000954,9005,VNB,C,16
0,test,4,0.0,2-Back,,,Wed Mar 26 2025 11:18:03 GMT-0400 (Eastern Daylight Time),837890.2000002861,019_m_f_n_a.png,I,space,21461,1,2,2106.300000190735,835783.9000000954,9005,VNB,C,0
0,test,4,0.0,2-Back,,,Wed Mar 26 2025 11:18:03 GMT-0400 (Eastern Daylight Time),837890.2000002861,015_o_m_n_a.png,I,space,21461,2,2,2106.300000190735,835783.9000000954,9005,VNB,C,0
1,test,4,1.0,2-Back,1,m,Wed Mar 26 2025 11:18:03 GMT-0400 (Eastern Daylight Time),866623.0,025_y_m_h_a.png,I,m,852,3,2,1873.3999996185303,864749.6000003815,9005,VNB,C,1
2,test,4,1.0,2-Back,1,m,Wed Mar 26 2025 11:18:03 GMT-0400 (Eastern Daylight Time),868689.5,012_o_f_d_a.png,I,m,982,4,2,2014.1999998092651,866675.3000001907,9005,VNB,C,2
3,test,4,0.0,2-Back,1,z,Wed Mar 26 2025 11:18:03 GMT-0400 (Eastern Daylight Time),870372.8000001907,015_o_m_h_a.png,I,z,663,5,2,1670.4000000953674,868702.4000000954,9005,VNB,C,3
4,test,4,0.0,2-Back,1,m,Wed Mar 26 2025 11:18:03 GMT-0400 (Eastern Daylight Time),872256.1000003815,014_m_m_n_a.png,I,m,850,6,2,1872.8000001907349,870383.3000001907,9005,VNB,C,4
4,test,4,0.0,2-Back,0,m,Wed Mar 26 2025 11:18:03 GMT-0400 (Eastern Daylight Time),874106.2000002861,019_m_f_d_a.png,I,z,823,7,2,1837.5999999046326,872268.6000003815,9005,VNB,C,5
5,test,4,0.0,2-Back,1,z,Wed Mar 26 2025 11:18:03 GMT-0400 (Eastern Daylight Time),875956.0,022_y_f_n_a.png,I,z,829,8,2,1838.0999999046326,874117.9000000954,9005,VNB,C,6
6,test,4,1.0,2-Back,1,m,Wed Mar 26 2025 11:18:03 GMT-0400 (Eastern Daylight Time),877889.8000001907,012_o_f_h_a.png,I,m,915,9,2,1923.0999999046326,875966.7000002861,9005,VNB,C,7
6,test,4,0.0,2-Back,0,m,Wed Mar 26 2025 11:18:03 GMT-0400 (Eastern Daylight Time),880072.9000000954,014_m_m_h_a.png,I,z,1158,10,2,2174.199999809265,877898.7000002861,9005,VNB,C,8
6,test,4,0.0,2-Back,0,m,Wed Mar 26 2025 11:18:03 GMT-0400 (Eastern Daylight Time),882339.3000001907,022_y_f_d_a.png,I,z,1247,11,2,2256.5,880082.8000001907,9005,VNB,C,9
6,test,4,0.0,2-Back,0,m,Wed Mar 26 2025 11:18:03 GMT-0400 (Eastern Daylight Time),885022.8000001907,025_y_m_n_a.png,I,z,1652,12,2,2671.300000190735,882351.5,9005,VNB,C,10
7,test,4,0.0,2-Back,1,z,Wed Mar 26 2025 11:18:03 GMT-0400 (Eastern Daylight Time),886889.3000001907,015_o_m_d_a.png,I,z,822,13,2,1854.5,885034.8000001907,9005,VNB,C,11
8,test,4,1.0,2-Back,1,m,Wed Mar 26 2025 11:18:03 GMT-0400 (Eastern Daylight Time),888722.6000003815,019_m_f_h_a.png,I,m,814,14,2,1822.4000000953674,886900.2000002861,9005,VNB,C,12
9,test,4,1.0,2-Back,1,m,Wed Mar 26 2025 11:18:03 GMT-0400 (Eastern Daylight Time),891239.5,022_y_f_h_a.png,I,m,1492,15,2,2504.8999996185303,888734.6000003815,9005,VNB,C,13
10,test,4,0.0,2-Back,1,m,Wed Mar 26 2025 11:18:03 GMT-0400 (Eastern Daylight Time),893372.8000001907,012_o_f_n_a.png,I,m,1104,16,2,2122.800000190735,891250.0,9005,VNB,C,14
11,test,4,0.0,2-Back,1,m,Wed Mar 26 2025 11:18:03 GMT-0400 (Eastern Daylight Time),895472.8000001907,025_y_m_d_a.png,I,m,1066,17,2,2086.800000190735,893386.0,9005,VNB,C,15
12,test,4,1.0,2-Back,1,m,Wed Mar 26 2025 11:18:03 GMT-0400 (Eastern Daylight Time),897889.3000001907,014_m_m_d_a.png,I,m,1383,18,2,2406.699999809265,895482.6000003815,9005,VNB,C,16
0,test,5,1.0,2-Back,,,Wed Mar 26 2025 11:18:03 GMT-0400 (Eastern Daylight Time),897889.3000001907,022_y_f_d_a.png,I,space,7142,1,2,2406.699999809265,895482.6000003815,9005,VNB,C,0
0,test,5,1.0,2-Back,,,Wed Mar 26 2025 11:18:03 GMT-0400 (Eastern Daylight Time),897889.3000001907,012_o_f_h_a.png,I,space,7142,2,2,2406.699999809265,895482.6000003815,9005,VNB,C,0
0,test,5,1.0,2-Back,0,z,Wed Mar 26 2025 11:18:03 GMT-0400 (Eastern Daylight Time),912406.2000002861,015_o_m_d_a.png,I,m,961,3,2,1972.5999999046326,910433.6000003815,9005,VNB,C,1
1,test,5,1.0,2-Back,1,m,Wed Mar 26 2025 11:18:03 GMT-0400 (Eastern Daylight Time),914589.4000000954,019_m_f_n_a.png,I,m,1153,4,2,2172.0999999046326,912417.3000001907,9005,VNB,C,2
1,test,5,0.0,2-Back,0,m,Wed Mar 26 2025 11:18:03 GMT-0400 (Eastern Daylight Time),916989.6000003815,014_m_m_h_a.png,I,z,1371,5,2,2388.6000003814697,914601.0,9005,VNB,C,3
1,test,5,0.0,2-Back,0,z,Wed Mar 26 2025 11:18:03 GMT-0400 (Eastern Daylight Time),919339.5,022_y_f_n_a.png,I,m,1280,6,2,2338.2999997138977,917001.2000002861,9005,VNB,C,4
1,test,5,0.0,2-Back,0,m,Wed Mar 26 2025 11:18:03 GMT-0400 (Eastern Daylight Time),921490.0,012_o_f_d_a.png,I,z,1132,7,2,2138.3999996185303,919351.6000003815,9005,VNB,C,5
2,test,5,0.0,2-Back,1,m,Wed Mar 26 2025 11:18:03 GMT-0400 (Eastern Daylight Time),924039.4000000954,015_o_m_h_a.png,I,m,1526,8,2,2538.7999997138977,921500.6000003815,9005,VNB,C,6
3,test,5,1.0,2-Back,1,z,Wed Mar 26 2025 11:18:03 GMT-0400 (Eastern Daylight Time),926189.4000000954,019_m_f_d_a.png,I,z,1120,9,2,2138.2999997138977,924051.1000003815,9005,VNB,C,7
3,test,5,0.0,2-Back,0,m,Wed Mar 26 2025 11:18:03 GMT-0400 (Eastern Daylight Time),928372.7000002861,025_y_m_n_a.png,I,z,1162,10,2,2172.0999999046326,926200.6000003815,9005,VNB,C,8
4,test,5,0.0,2-Back,1,m,Wed Mar 26 2025 11:18:03 GMT-0400 (Eastern Daylight Time),930755.5,014_m_m_n_a.png,I,m,1362,11,2,2370.7999997138977,928384.7000002861,9005,VNB,C,9
5,test,5,0.0,2-Back,1,m,Wed Mar 26 2025 11:18:03 GMT-0400 (Eastern Daylight Time),933272.7000002861,022_y_f_h_a.png,I,m,1491,12,2,2511.800000190735,930760.9000000954,9005,VNB,C,10
5,test,5,0.0,2-Back,0,m,Wed Mar 26 2025 11:18:03 GMT-0400 (Eastern Daylight Time),935505.7000002861,025_y_m_d_a.png,I,z,1215,13,2,2223.9000000953674,933281.8000001907,9005,VNB,C,11
5,test,5,1.0,2-Back,0,z,Wed Mar 26 2025 11:18:03 GMT-0400 (Eastern Daylight Time),938172.8000001907,019_m_f_h_a.png,I,m,1637,14,2,2657.0,935515.8000001907,9005,VNB,C,12
6,test,5,0.0,2-Back,1,m,Wed Mar 26 2025 11:18:03 GMT-0400 (Eastern Daylight Time),940489.3000001907,015_o_m_n_a.png,I,m,1291,15,2,2306.5,938182.8000001907,9005,VNB,C,13
6,test,5,0.0,2-Back,0,m,Wed Mar 26 2025 11:18:03 GMT-0400 (Eastern Daylight Time),942739.3000001907,014_m_m_d_a.png,I,z,1180,16,2,2238.0999999046326,940501.2000002861,9005,VNB,C,14
6,test,5,0.0,2-Back,0,z,Wed Mar 26 2025 11:18:03 GMT-0400 (Eastern Daylight Time),944972.6000003815,012_o_f_n_a.png,I,m,1204,17,2,2220.800000190735,942751.8000001907,9005,VNB,C,15
7,test,5,1.0,2-Back,1,m,Wed Mar 26 2025 11:18:03 GMT-0400 (Eastern Daylight Time),947272.5,025_y_m_h_a.png,I,m,1275,18,2,2288.199999809265,944984.3000001907,9005,VNB,C,16
