block_c,block_dur,condition,countdown,datetime,endtime,list,multichar_response,project,response,response_time,session_number,start_end,starttime,subject_id,task,task_vers,trial
,,,,Fri Oct 11 2024 16:30:44 GMT-0500 (Central Daylight Time),,,,O,space,963,1,,,7025,WL,A,
prac,,0,,Fri Oct 11 2024 16:30:44 GMT-0500 (Central Daylight Time),,NA,b,O,b,1650,1,,,7025,WL,A,1.0
prac,,0,,Fri Oct 11 2024 16:30:44 GMT-0500 (Central Daylight Time),,NA,bo,O,o,212,1,,,7025,WL,A,1.0
prac,,0,,Fri Oct 11 2024 16:30:44 GMT-0500 (Central Daylight Time),,NA,boo,O,o,100,1,,,7025,WL,A,1.0
prac,,0,,Fri Oct 11 2024 16:30:44 GMT-0500 (Central Daylight Time),,NA,boos,O,s,95,1,,,7025,WL,A,1.0
prac,,0,,Fri Oct 11 2024 16:30:44 GMT-0500 (Central Daylight Time),,NA,boost,O,t,147,1,,,7025,WL,A,1.0
prac,,0,,Fri Oct 11 2024 16:30:44 GMT-0500 (Central Daylight Time),,NA,boostenter,O,enter,2581,1,,,7025,WL,A,1.0
1,0.5339999198913574,learn,59466.00008010864,Fri Oct 11 2024 16:30:44 GMT-0500 (Central Daylight Time),155962.8999999985,A,f,O,f,510,1,533.2999999970198,155429.6000000015,7025,WL,A,1.0
1,0.6669998168945312,learn,59333.00018310547,Fri Oct 11 2024 16:30:44 GMT-0500 (Central Daylight Time),156096.1000000015,A,fi,O,i,112,1,666.5,155429.6000000015,7025,WL,A,1.0
1,0.750999927520752,learn,59249.00007247925,Fri Oct 11 2024 16:30:44 GMT-0500 (Central Daylight Time),156180.29999999702,A,fin,O,n,69,1,750.6999999955297,155429.6000000015,7025,WL,A,1.0
1,0.8499999046325684,learn,59150.00009536743,Fri Oct 11 2024 16:30:44 GMT-0500 (Central Daylight Time),156279.29999999702,A,fing,O,g,88,1,849.6999999955297,155429.6000000015,7025,WL,A,1.0
1,1.066999912261963,learn,58933.00008773804,Fri Oct 11 2024 16:30:44 GMT-0500 (Central Daylight Time),156495.79999999702,A,finge,O,e,197,1,1066.1999999955297,155429.6000000015,7025,WL,A,1.0
1,1.1009998321533203,learn,58899.00016784668,Fri Oct 11 2024 16:30:44 GMT-0500 (Central Daylight Time),156529.69999999553,A,finger,O,r,12,1,1100.0999999940395,155429.6000000015,7025,WL,A,1.0
1,1.3829998970031738,learn,58617.000102996826,Fri Oct 11 2024 16:30:44 GMT-0500 (Central Daylight Time),156812.5,A,fingerenter,O,enter,267,1,1382.8999999985099,155429.6000000015,7025,WL,A,1.0
1,1.6669998168945312,learn,58333.00018310547,Fri Oct 11 2024 16:30:44 GMT-0500 (Central Daylight Time),157095.6000000015,A,a,O,a,264,1,282.5,156813.1000000015,7025,WL,A,2.0
1,1.7669999599456787,learn,58233.00004005432,Fri Oct 11 2024 16:30:44 GMT-0500 (Central Daylight Time),157195.5,A,ap,O,p,85,1,382.3999999985099,156813.1000000015,7025,WL,A,2.0
1,1.8829998970031738,learn,58117.000102996826,Fri Oct 11 2024 16:30:44 GMT-0500 (Central Daylight Time),157312.1000000015,A,app,O,p,98,1,499.0,156813.1000000015,7025,WL,A,2.0
1,2.0160000324249268,learn,57983.99996757507,Fri Oct 11 2024 16:30:44 GMT-0500 (Central Daylight Time),157445.3999999985,A,appl,O,l,124,1,632.2999999970198,156813.1000000015,7025,WL,A,2.0
1,2.1659998893737793,learn,57834.00011062622,Fri Oct 11 2024 16:30:44 GMT-0500 (Central Daylight Time),157595.5,A,apple,O,e,135,1,782.3999999985099,156813.1000000015,7025,WL,A,2.0
1,2.5850000381469727,learn,57414.99996185303,Fri Oct 11 2024 16:30:44 GMT-0500 (Central Daylight Time),158013.69999999553,A,appleenter,O,enter,409,1,1200.5999999940395,156813.1000000015,7025,WL,A,2.0
1,2.9830000400543213,learn,57016.99995994568,Fri Oct 11 2024 16:30:44 GMT-0500 (Central Daylight Time),158411.79999999702,A,k,O,k,383,1,397.5,158014.29999999702,7025,WL,A,3.0
1,3.115999937057495,learn,56884.000062942505,Fri Oct 11 2024 16:30:44 GMT-0500 (Central Daylight Time),158545.19999999553,A,ke,O,e,112,1,530.8999999985099,158014.29999999702,7025,WL,A,3.0
1,3.2990000247955322,learn,56700.99997520447,Fri Oct 11 2024 16:30:44 GMT-0500 (Central Daylight Time),158728.3999999985,A,key,O,y,171,1,714.1000000014901,158014.29999999702,7025,WL,A,3.0
1,3.6629998683929443,learn,56337.000131607056,Fri Oct 11 2024 16:30:44 GMT-0500 (Central Daylight Time),159091.69999999553,A,keyenter,O,enter,358,1,1077.3999999985099,158014.29999999702,7025,WL,A,3.0
1,4.016000032424927,learn,55983.99996757507,Fri Oct 11 2024 16:30:44 GMT-0500 (Central Daylight Time),159444.69999999553,A,g,O,g,345,1,352.59999999403954,159092.1000000015,7025,WL,A,4.0
1,4.098999977111816,learn,55901.00002288818,Fri Oct 11 2024 16:30:44 GMT-0500 (Central Daylight Time),159528.19999999553,A,go,O,o,71,1,436.09999999403954,159092.1000000015,7025,WL,A,4.0
1,4.248999834060669,learn,55751.00016593933,Fri Oct 11 2024 16:30:44 GMT-0500 (Central Daylight Time),159678.29999999702,A,gol,O,l,141,1,586.1999999955297,159092.1000000015,7025,WL,A,4.0
1,4.398999929428101,learn,55601.0000705719,Fri Oct 11 2024 16:30:44 GMT-0500 (Central Daylight Time),159828.19999999553,A,gold,O,d,135,1,736.0999999940395,159092.1000000015,7025,WL,A,4.0
1,4.631999969482422,learn,55368.00003051758,Fri Oct 11 2024 16:30:44 GMT-0500 (Central Daylight Time),160061.3999999985,A,goldenter,O,enter,225,1,969.2999999970198,159092.1000000015,7025,WL,A,4.0
1,5.25,learn,54750.0,Fri Oct 11 2024 16:30:44 GMT-0500 (Central Daylight Time),160679.0,A,c,O,c,600,1,617.0,160062.0,7025,WL,A,5.0
1,5.315999984741211,learn,54684.00001525879,Fri Oct 11 2024 16:30:44 GMT-0500 (Central Daylight Time),160744.6000000015,A,ch,O,h,45,1,682.6000000014901,160062.0,7025,WL,A,5.0
1,5.415999889373779,learn,54584.00011062622,Fri Oct 11 2024 16:30:44 GMT-0500 (Central Daylight Time),160844.5,A,chi,O,i,93,1,782.5,160062.0,7025,WL,A,5.0
1,5.549000024795532,learn,54450.99997520447,Fri Oct 11 2024 16:30:44 GMT-0500 (Central Daylight Time),160978.19999999553,A,chim,O,m,128,1,916.1999999955297,160062.0,7025,WL,A,5.0
1,6.049000024795532,learn,53950.99997520447,Fri Oct 11 2024 16:30:44 GMT-0500 (Central Daylight Time),161477.5,A,chimn,O,n,483,1,1415.5,160062.0,7025,WL,A,5.0
1,6.181999921798706,learn,53818.000078201294,Fri Oct 11 2024 16:30:44 GMT-0500 (Central Daylight Time),161610.69999999553,A,chimne,O,e,127,1,1548.6999999955297,160062.0,7025,WL,A,5.0
1,6.31499981880188,learn,53685.00018119812,Fri Oct 11 2024 16:30:44 GMT-0500 (Central Daylight Time),161744.1000000015,A,chimney,O,y,114,1,1682.1000000014901,160062.0,7025,WL,A,5.0
1,6.697999954223633,learn,53302.00004577637,Fri Oct 11 2024 16:30:44 GMT-0500 (Central Daylight Time),162127.29999999702,A,chimneyenter,O,enter,365,1,2065.2999999970198,160062.0,7025,WL,A,5.0
1,8.13100004196167,learn,51868.99995803833,Fri Oct 11 2024 16:30:44 GMT-0500 (Central Daylight Time),163560.5,A,r,O,r,1422,1,1433.0,162127.5,7025,WL,A,6.0
1,8.264999866485596,learn,51735.000133514404,Fri Oct 11 2024 16:30:44 GMT-0500 (Central Daylight Time),163693.6000000015,A,ru,O,u,117,1,1566.1000000014901,162127.5,7025,WL,A,6.0
1,8.38100004196167,learn,51618.99995803833,Fri Oct 11 2024 16:30:44 GMT-0500 (Central Daylight Time),163810.0,A,rug,O,g,103,1,1682.5,162127.5,7025,WL,A,6.0
1,8.56499981880188,learn,51435.00018119812,Fri Oct 11 2024 16:30:44 GMT-0500 (Central Daylight Time),163993.69999999553,A,rugenter,O,enter,170,1,1866.1999999955297,162127.5,7025,WL,A,6.0
1,8.830999851226807,learn,51169.00014877319,Fri Oct 11 2024 16:30:44 GMT-0500 (Central Daylight Time),164260.0,A,t,O,t,258,1,265.8999999985099,163994.1000000015,7025,WL,A,7.0
1,8.980999946594238,learn,51019.00005340576,Fri Oct 11 2024 16:30:44 GMT-0500 (Central Daylight Time),164409.8999999985,A,tr,O,r,137,1,415.79999999701977,163994.1000000015,7025,WL,A,7.0
1,9.080999851226807,learn,50919.00014877319,Fri Oct 11 2024 16:30:44 GMT-0500 (Central Daylight Time),164509.8999999985,A,tra,O,a,82,1,515.7999999970198,163994.1000000015,7025,WL,A,7.0
1,9.198999881744385,learn,50801.000118255615,Fri Oct 11 2024 16:30:44 GMT-0500 (Central Daylight Time),164627.69999999553,A,trai,O,i,112,1,633.5999999940395,163994.1000000015,7025,WL,A,7.0
1,9.263999938964844,learn,50736.000061035156,Fri Oct 11 2024 16:30:44 GMT-0500 (Central Daylight Time),164693.1000000015,A,train,O,n,50,1,699.0,163994.1000000015,7025,WL,A,7.0
1,9.38100004196167,learn,50618.99995803833,Fri Oct 11 2024 16:30:44 GMT-0500 (Central Daylight Time),164810.0,A,trainenter,O,enter,112,1,815.8999999985099,163994.1000000015,7025,WL,A,7.0
1,9.648000001907349,learn,50351.99999809265,Fri Oct 11 2024 16:30:44 GMT-0500 (Central Daylight Time),165076.6000000015,A,b,O,b,251,1,266.30000000447035,164810.29999999702,7025,WL,A,8.0
1,9.746999979019165,learn,50253.000020980835,Fri Oct 11 2024 16:30:44 GMT-0500 (Central Daylight Time),165176.19999999553,A,bo,O,o,88,1,365.8999999985099,164810.29999999702,7025,WL,A,8.0
1,9.896999835968018,learn,50103.00016403198,Fri Oct 11 2024 16:30:44 GMT-0500 (Central Daylight Time),165326.19999999553,A,boo,O,o,133,1,515.8999999985099,164810.29999999702,7025,WL,A,8.0
1,10.230999946594238,learn,49769.00005340576,Fri Oct 11 2024 16:30:44 GMT-0500 (Central Daylight Time),165659.5,A,book,O,k,319,1,849.2000000029802,164810.29999999702,7025,WL,A,8.0
1,10.46399998664856,learn,49536.00001335144,Fri Oct 11 2024 16:30:44 GMT-0500 (Central Daylight Time),165892.79999999702,A,bookenter,O,enter,218,1,1082.5,164810.29999999702,7025,WL,A,8.0
1,10.746999979019165,learn,49253.000020980835,Fri Oct 11 2024 16:30:44 GMT-0500 (Central Daylight Time),166176.0,A,f,O,f,264,1,282.80000000447035,165893.19999999553,7025,WL,A,9.0
1,10.829999923706055,learn,49170.000076293945,Fri Oct 11 2024 16:30:44 GMT-0500 (Central Daylight Time),166259.3999999985,A,fl,O,l,69,1,366.20000000298023,165893.19999999553,7025,WL,A,9.0
1,10.996999979019165,learn,49003.000020980835,Fri Oct 11 2024 16:30:44 GMT-0500 (Central Daylight Time),166425.8999999985,A,flo,O,o,146,1,532.7000000029802,165893.19999999553,7025,WL,A,9.0
1,11.063999891281128,learn,48936.00010871887,Fri Oct 11 2024 16:30:44 GMT-0500 (Central Daylight Time),166492.79999999702,A,flow,O,w,59,1,599.6000000014901,165893.19999999553,7025,WL,A,9.0
1,11.146999835968018,learn,48853.00016403198,Fri Oct 11 2024 16:30:44 GMT-0500 (Central Daylight Time),166575.79999999702,A,flowe,O,e,65,1,682.6000000014901,165893.19999999553,7025,WL,A,9.0
1,11.212999820709229,learn,48787.00017929077,Fri Oct 11 2024 16:30:44 GMT-0500 (Central Daylight Time),166642.3999999985,A,flower,O,r,54,1,749.2000000029802,165893.19999999553,7025,WL,A,9.0
1,11.414000034332275,learn,48585.999965667725,Fri Oct 11 2024 16:30:44 GMT-0500 (Central Daylight Time),166842.6000000015,A,flowerenter,O,enter,186,1,949.4000000059605,165893.19999999553,7025,WL,A,9.0
1,11.680999994277954,learn,48319.000005722046,Fri Oct 11 2024 16:30:44 GMT-0500 (Central Daylight Time),167110.29999999702,A,m,O,m,259,1,267.29999999701977,166843.0,7025,WL,A,10.0
1,11.730000019073486,learn,48269.999980926514,Fri Oct 11 2024 16:30:44 GMT-0500 (Central Daylight Time),167159.0,A,me,O,e,39,1,316.0,166843.0,7025,WL,A,10.0
1,11.829999923706055,learn,48170.000076293945,Fri Oct 11 2024 16:30:44 GMT-0500 (Central Daylight Time),167259.0,A,mea,O,a,95,1,416.0,166843.0,7025,WL,A,10.0
1,12.013000011444092,learn,47986.99998855591,Fri Oct 11 2024 16:30:44 GMT-0500 (Central Daylight Time),167442.3999999985,A,mead,O,d,162,1,599.3999999985099,166843.0,7025,WL,A,10.0
1,12.329999923706055,learn,47670.000076293945,Fri Oct 11 2024 16:30:44 GMT-0500 (Central Daylight Time),167758.8999999985,A,meado,O,o,299,1,915.8999999985099,166843.0,7025,WL,A,10.0
1,12.596999883651733,learn,47403.00011634827,Fri Oct 11 2024 16:30:44 GMT-0500 (Central Daylight Time),168025.5,A,meadow,O,w,255,1,1182.5,166843.0,7025,WL,A,10.0
1,12.928999900817871,learn,47071.00009918213,Fri Oct 11 2024 16:30:44 GMT-0500 (Central Daylight Time),168358.79999999702,A,meadowenter,O,enter,316,1,1515.7999999970198,166843.0,7025,WL,A,10.0
1,15.878000020980835,learn,44121.999979019165,Fri Oct 11 2024 16:30:44 GMT-0500 (Central Daylight Time),171307.79999999702,A,b,O,b,2943,1,2948.6999999955297,168359.1000000015,7025,WL,A,11.0
1,16.027999877929688,learn,43972.00012207031,Fri Oct 11 2024 16:30:44 GMT-0500 (Central Daylight Time),171457.79999999702,A,bu,O,u,138,1,3098.6999999955297,168359.1000000015,7025,WL,A,11.0
1,16.144999980926514,learn,43855.000019073486,Fri Oct 11 2024 16:30:44 GMT-0500 (Central Daylight Time),171574.29999999702,A,but,O,t,107,1,3215.1999999955297,168359.1000000015,7025,WL,A,11.0
1,16.26099991798401,learn,43739.00008201599,Fri Oct 11 2024 16:30:44 GMT-0500 (Central Daylight Time),171691.0,A,butt,O,t,111,1,3331.89999999851,168359.1000000015,7025,WL,A,11.0
1,16.394999980926514,learn,43605.000019073486,Fri Oct 11 2024 16:30:44 GMT-0500 (Central Daylight Time),171824.19999999553,A,butto,O,o,123,1,3465.0999999940395,168359.1000000015,7025,WL,A,11.0
1,16.477999925613403,learn,43522.0000743866,Fri Oct 11 2024 16:30:44 GMT-0500 (Central Daylight Time),171907.69999999553,A,button,O,n,77,1,3548.5999999940395,168359.1000000015,7025,WL,A,11.0
1,17.01199984550476,learn,42988.00015449524,Fri Oct 11 2024 16:30:44 GMT-0500 (Central Daylight Time),172442.0,A,buttonenter,O,enter,521,1,4082.89999999851,168359.1000000015,7025,WL,A,11.0
1,22.39299988746643,learn,37607.00011253357,Fri Oct 11 2024 16:30:44 GMT-0500 (Central Daylight Time),177822.5,A,s,O,s,5372,1,5380.20000000298,172442.29999999702,7025,WL,A,12.0
1,22.55999994277954,learn,37440.00005722046,Fri Oct 11 2024 16:30:44 GMT-0500 (Central Daylight Time),177989.1000000015,A,sa,O,a,156,1,5546.80000000447,172442.29999999702,7025,WL,A,12.0
1,22.692999839782715,learn,37307.000160217285,Fri Oct 11 2024 16:30:44 GMT-0500 (Central Daylight Time),178122.3999999985,A,sal,O,l,120,1,5680.10000000149,172442.29999999702,7025,WL,A,12.0
1,22.875999927520752,learn,37124.00007247925,Fri Oct 11 2024 16:30:44 GMT-0500 (Central Daylight Time),178305.69999999553,A,salt,O,t,163,1,5863.39999999851,172442.29999999702,7025,WL,A,12.0
1,23.0939998626709,learn,36906.0001373291,Fri Oct 11 2024 16:30:44 GMT-0500 (Central Daylight Time),178523.29999999702,A,saltenter,O,enter,210,1,6081.0,172442.29999999702,7025,WL,A,12.0
1,31.223000049591064,learn,28776.999950408936,Fri Oct 11 2024 16:30:44 GMT-0500 (Central Daylight Time),186653.0,A,t,O,t,8121,1,8129.20000000298,178523.79999999702,7025,WL,A,13.0
1,31.389999866485596,learn,28610.000133514404,Fri Oct 11 2024 16:30:44 GMT-0500 (Central Daylight Time),186819.79999999702,A,tr,O,r,152,1,8296.0,178523.79999999702,7025,WL,A,13.0
1,31.506999969482422,learn,28493.000030517578,Fri Oct 11 2024 16:30:44 GMT-0500 (Central Daylight Time),186936.29999999702,A,tra,O,a,98,1,8412.5,178523.79999999702,7025,WL,A,13.0
1,31.622999906539917,learn,28377.000093460083,Fri Oct 11 2024 16:30:44 GMT-0500 (Central Daylight Time),187052.79999999702,A,trai,O,i,101,1,8529.0,178523.79999999702,7025,WL,A,13.0
1,31.707000017166138,learn,28292.999982833862,Fri Oct 11 2024 16:30:44 GMT-0500 (Central Daylight Time),187136.29999999702,A,train,O,n,65,1,8612.5,178523.79999999702,7025,WL,A,13.0
1,31.872999906539917,learn,28127.000093460083,Fri Oct 11 2024 16:30:44 GMT-0500 (Central Daylight Time),187302.6000000015,A,trainenter,O,enter,149,1,8778.80000000447,178523.79999999702,7025,WL,A,13.0
1,55.16599988937378,learn,4834.000110626221,Fri Oct 11 2024 16:30:44 GMT-0500 (Central Daylight Time),210595.6000000015,A,l,O,l,23279,1,23292.70000000298,187302.8999999985,7025,WL,A,14.0
1,55.33299994468689,learn,4667.00005531311,Fri Oct 11 2024 16:30:44 GMT-0500 (Central Daylight Time),210762.19999999553,A,lo,O,o,162,1,23459.29999999702,187302.8999999985,7025,WL,A,14.0
1,55.41599988937378,learn,4584.000110626221,Fri Oct 11 2024 16:30:44 GMT-0500 (Central Daylight Time),210845.3999999985,A,log,O,g,75,1,23542.5,187302.8999999985,7025,WL,A,14.0
1,55.54900002479553,learn,4450.999975204468,Fri Oct 11 2024 16:30:44 GMT-0500 (Central Daylight Time),210978.5,A,logenter,O,enter,127,1,23675.60000000149,187302.8999999985,7025,WL,A,14.0
1,58.36500000953674,learn,1634.9999904632568,Fri Oct 11 2024 16:30:44 GMT-0500 (Central Daylight Time),213794.29999999702,A,enter,O,enter,2811,1,2815.5,210978.79999999702,7025,WL,A,15.0
2,0.565000057220459,learn,59434.99994277954,Fri Oct 11 2024 16:30:44 GMT-0500 (Central Daylight Time),285138.6000000015,A,r,O,r,561,1,565.3000000044703,284573.299999997,7025,WL,A,1.0
2,0.6660001277923584,learn,59333.99987220764,Fri Oct 11 2024 16:30:44 GMT-0500 (Central Daylight Time),285238.799999997,A,ra,O,a,91,1,665.5,284573.299999997,7025,WL,A,1.0
2,0.7820000648498535,learn,59217.99993515015,Fri Oct 11 2024 16:30:44 GMT-0500 (Central Daylight Time),285355.6000000015,A,rat,O,t,102,1,782.3000000044703,284573.299999997,7025,WL,A,1.0
2,0.9160001277923584,learn,59083.99987220764,Fri Oct 11 2024 16:30:44 GMT-0500 (Central Daylight Time),285488.69999999553,A,ratt,O,t,113,1,915.3999999985099,284573.299999997,7025,WL,A,1.0
2,1.065999984741211,learn,58934.00001525879,Fri Oct 11 2024 16:30:44 GMT-0500 (Central Daylight Time),285638.799999997,A,rattl,O,l,141,1,1065.5,284573.299999997,7025,WL,A,1.0
2,1.1820001602172852,learn,58817.999839782715,Fri Oct 11 2024 16:30:44 GMT-0500 (Central Daylight Time),285755.19999999553,A,rattle,O,e,110,1,1181.8999999985099,284573.299999997,7025,WL,A,1.0
2,1.7820000648498535,learn,58217.99993515015,Fri Oct 11 2024 16:30:44 GMT-0500 (Central Daylight Time),286355.0,A,rattleenter,O,enter,586,1,1781.7000000029802,284573.299999997,7025,WL,A,1.0
2,2.0820000171661377,learn,57917.99998283386,Fri Oct 11 2024 16:30:44 GMT-0500 (Central Daylight Time),286655.0,A,h,O,h,290,1,299.70000000298023,286355.299999997,7025,WL,A,2.0
2,2.1649999618530273,learn,57835.00003814697,Fri Oct 11 2024 16:30:44 GMT-0500 (Central Daylight Time),286738.299999997,A,ha,O,a,70,1,383.0,286355.299999997,7025,WL,A,2.0
2,2.265000104904175,learn,57734.999895095825,Fri Oct 11 2024 16:30:44 GMT-0500 (Central Daylight Time),286838.299999997,A,har,O,r,91,1,483.0,286355.299999997,7025,WL,A,2.0
2,2.4149999618530273,learn,57585.00003814697,Fri Oct 11 2024 16:30:44 GMT-0500 (Central Daylight Time),286988.1000000015,A,harp,O,p,135,1,632.8000000044703,286355.299999997,7025,WL,A,2.0
2,2.6480000019073486,learn,57351.99999809265,Fri Oct 11 2024 16:30:44 GMT-0500 (Central Daylight Time),287221.5,A,harpenter,O,enter,225,1,866.2000000029802,286355.299999997,7025,WL,A,2.0
2,2.9650001525878906,learn,57034.99984741211,Fri Oct 11 2024 16:30:44 GMT-0500 (Central Daylight Time),287538.1000000015,A,g,O,g,312,1,316.20000000298023,287221.8999999985,7025,WL,A,3.0
2,3.0320000648498535,learn,56967.99993515015,Fri Oct 11 2024 16:30:44 GMT-0500 (Central Daylight Time),287604.69999999553,A,go,O,o,59,1,382.79999999701977,287221.8999999985,7025,WL,A,3.0
2,3.180999994277954,learn,56819.000005722046,Fri Oct 11 2024 16:30:44 GMT-0500 (Central Daylight Time),287754.3999999985,A,gol,O,l,145,1,532.5,287221.8999999985,7025,WL,A,3.0
2,3.2980000972747803,learn,56701.99990272522,Fri Oct 11 2024 16:30:44 GMT-0500 (Central Daylight Time),287871.0,A,gold,O,d,107,1,649.1000000014901,287221.8999999985,7025,WL,A,3.0
2,3.38100004196167,learn,56618.99995803833,Fri Oct 11 2024 16:30:44 GMT-0500 (Central Daylight Time),287954.3999999985,A,goldenter,O,enter,79,1,732.5,287221.8999999985,7025,WL,A,3.0
2,3.7639999389648438,learn,56236.000061035156,Fri Oct 11 2024 16:30:44 GMT-0500 (Central Daylight Time),288337.69999999553,A,k,O,k,363,1,382.8999999985099,287954.799999997,7025,WL,A,4.0
2,3.9140000343322754,learn,56085.999965667725,Fri Oct 11 2024 16:30:44 GMT-0500 (Central Daylight Time),288487.799999997,A,ke,O,e,132,1,533.0,287954.799999997,7025,WL,A,4.0
2,4.049000024795532,learn,55950.99997520447,Fri Oct 11 2024 16:30:44 GMT-0500 (Central Daylight Time),288622.19999999553,A,key,O,y,118,1,667.3999999985099,287954.799999997,7025,WL,A,4.0
2,4.331000089645386,learn,55668.999910354614,Fri Oct 11 2024 16:30:44 GMT-0500 (Central Daylight Time),288904.19999999553,A,keyenter,O,enter,263,1,949.3999999985099,287954.799999997,7025,WL,A,4.0
2,4.732000112533569,learn,55267.99988746643,Fri Oct 11 2024 16:30:44 GMT-0500 (Central Daylight Time),289305.3999999985,A,f,O,f,381,1,400.79999999701977,288904.6000000015,7025,WL,A,5.0
2,4.7820000648498535,learn,55217.99993515015,Fri Oct 11 2024 16:30:44 GMT-0500 (Central Daylight Time),289355.19999999553,A,fi,O,i,43,1,450.59999999403954,288904.6000000015,7025,WL,A,5.0
2,4.864000082015991,learn,55135.99991798401,Fri Oct 11 2024 16:30:44 GMT-0500 (Central Daylight Time),289437.299999997,A,fin,O,n,74,1,532.6999999955297,288904.6000000015,7025,WL,A,5.0
2,4.930999994277954,learn,55069.000005722046,Fri Oct 11 2024 16:30:44 GMT-0500 (Central Daylight Time),289504.0,A,fing,O,g,48,1,599.3999999985099,288904.6000000015,7025,WL,A,5.0
2,5.064000129699707,learn,54935.99987030029,Fri Oct 11 2024 16:30:44 GMT-0500 (Central Daylight Time),289637.3999999985,A,finge,O,e,118,1,732.7999999970198,288904.6000000015,7025,WL,A,5.0
2,5.164000034332275,learn,54835.999965667725,Fri Oct 11 2024 16:30:44 GMT-0500 (Central Daylight Time),289737.299999997,A,finger,O,r,80,1,832.6999999955297,288904.6000000015,7025,WL,A,5.0
2,5.364000082015991,learn,54635.99991798401,Fri Oct 11 2024 16:30:44 GMT-0500 (Central Daylight Time),289937.5,A,fingerenter,O,enter,179,1,1032.8999999985099,288904.6000000015,7025,WL,A,5.0
2,5.63100004196167,learn,54368.99995803833,Fri Oct 11 2024 16:30:44 GMT-0500 (Central Daylight Time),290204.0,A,a,O,a,260,1,266.20000000298023,289937.799999997,7025,WL,A,6.0
2,5.7799999713897705,learn,54220.00002861023,Fri Oct 11 2024 16:30:44 GMT-0500 (Central Daylight Time),290353.799999997,A,ap,O,p,130,1,416.0,289937.799999997,7025,WL,A,6.0
2,6.230000019073486,learn,53769.999980926514,Fri Oct 11 2024 16:30:44 GMT-0500 (Central Daylight Time),290803.69999999553,A,app,O,p,444,1,865.8999999985099,289937.799999997,7025,WL,A,6.0
2,6.447000026702881,learn,53552.99997329712,Fri Oct 11 2024 16:30:44 GMT-0500 (Central Daylight Time),291020.299999997,A,appl,O,l,202,1,1082.5,289937.799999997,7025,WL,A,6.0
2,6.5970001220703125,learn,53402.99987792969,Fri Oct 11 2024 16:30:44 GMT-0500 (Central Daylight Time),291170.1000000015,A,apple,O,e,137,1,1232.3000000044703,289937.799999997,7025,WL,A,6.0
2,6.812999963760376,learn,53187.000036239624,Fri Oct 11 2024 16:30:44 GMT-0500 (Central Daylight Time),291386.5,A,appleenter,O,enter,211,1,1448.7000000029802,289937.799999997,7025,WL,A,6.0
2,7.180000066757202,learn,52819.9999332428,Fri Oct 11 2024 16:30:44 GMT-0500 (Central Daylight Time),291753.299999997,A,c,O,c,355,1,366.5,291386.799999997,7025,WL,A,7.0
2,7.246999979019165,learn,52753.000020980835,Fri Oct 11 2024 16:30:44 GMT-0500 (Central Daylight Time),291820.19999999553,A,ch,O,h,52,1,433.3999999985099,291386.799999997,7025,WL,A,7.0
2,7.496000051498413,learn,52503.99994850159,Fri Oct 11 2024 16:30:44 GMT-0500 (Central Daylight Time),292069.799999997,A,chi,O,i,241,1,683.0,291386.799999997,7025,WL,A,7.0
2,7.730000019073486,learn,52269.999980926514,Fri Oct 11 2024 16:30:44 GMT-0500 (Central Daylight Time),292303.1000000015,A,chim,O,m,224,1,916.3000000044703,291386.799999997,7025,WL,A,7.0
2,8.130000114440918,learn,51869.99988555908,Fri Oct 11 2024 16:30:44 GMT-0500 (Central Daylight Time),292703.1000000015,A,chimn,O,n,390,1,1316.3000000044703,291386.799999997,7025,WL,A,7.0
2,8.330000162124634,learn,51669.999837875366,Fri Oct 11 2024 16:30:44 GMT-0500 (Central Daylight Time),292903.0,A,chimne,O,e,183,1,1516.2000000029802,291386.799999997,7025,WL,A,7.0
2,8.496000051498413,learn,51503.99994850159,Fri Oct 11 2024 16:30:44 GMT-0500 (Central Daylight Time),293069.69999999553,A,chimney,O,y,158,1,1682.8999999985099,291386.799999997,7025,WL,A,7.0
2,8.86300015449524,learn,51136.99984550476,Fri Oct 11 2024 16:30:44 GMT-0500 (Central Daylight Time),293436.299999997,A,chimneyenter,O,enter,352,1,2049.5,291386.799999997,7025,WL,A,7.0
2,9.312999963760376,learn,50687.000036239624,Fri Oct 11 2024 16:30:44 GMT-0500 (Central Daylight Time),293886.19999999553,A,l,O,l,434,1,449.59999999403954,293436.6000000015,7025,WL,A,8.0
2,9.463000059127808,learn,50536.99994087219,Fri Oct 11 2024 16:30:44 GMT-0500 (Central Daylight Time),294036.0,A,lo,O,o,143,1,599.3999999985099,293436.6000000015,7025,WL,A,8.0
2,9.578999996185303,learn,50421.0000038147,Fri Oct 11 2024 16:30:44 GMT-0500 (Central Daylight Time),294152.8999999985,A,log,O,g,105,1,716.2999999970198,293436.6000000015,7025,WL,A,8.0
2,9.830000162124634,learn,50169.999837875366,Fri Oct 11 2024 16:30:44 GMT-0500 (Central Daylight Time),294403.799999997,A,logenter,O,enter,244,1,967.1999999955297,293436.6000000015,7025,WL,A,8.0
2,10.529000043869019,learn,49470.99995613098,Fri Oct 11 2024 16:30:44 GMT-0500 (Central Daylight Time),295102.299999997,A,t,O,t,682,1,698.1000000014901,294404.19999999553,7025,WL,A,9.0
2,10.712000131607056,learn,49287.999868392944,Fri Oct 11 2024 16:30:44 GMT-0500 (Central Daylight Time),295285.69999999553,A,tr,O,r,167,1,881.5,294404.19999999553,7025,WL,A,9.0
2,10.779000043869019,learn,49220.99995613098,Fri Oct 11 2024 16:30:44 GMT-0500 (Central Daylight Time),295352.19999999553,A,tra,O,a,56,1,948.0,294404.19999999553,7025,WL,A,9.0
2,10.92900013923645,learn,49070.99986076355,Fri Oct 11 2024 16:30:44 GMT-0500 (Central Daylight Time),295502.19999999553,A,trai,O,i,133,1,1098.0,294404.19999999553,7025,WL,A,9.0
2,10.962000131607056,learn,49037.999868392944,Fri Oct 11 2024 16:30:44 GMT-0500 (Central Daylight Time),295535.3999999985,A,train,O,n,23,1,1131.2000000029802,294404.19999999553,7025,WL,A,9.0
2,11.144999980926514,learn,48855.000019073486,Fri Oct 11 2024 16:30:44 GMT-0500 (Central Daylight Time),295718.69999999553,A,trainenter,O,enter,166,1,1314.5,294404.19999999553,7025,WL,A,9.0
2,11.411999940872192,learn,48588.00005912781,Fri Oct 11 2024 16:30:44 GMT-0500 (Central Daylight Time),295985.3999999985,A,b,O,b,246,1,266.3999999985099,295719.0,7025,WL,A,10.0
2,11.51200008392334,learn,48487.99991607666,Fri Oct 11 2024 16:30:44 GMT-0500 (Central Daylight Time),296085.5,A,bo,O,o,84,1,366.5,295719.0,7025,WL,A,10.0
2,11.628000020980835,learn,48371.999979019165,Fri Oct 11 2024 16:30:44 GMT-0500 (Central Daylight Time),296201.8999999985,A,boo,O,o,104,1,482.8999999985099,295719.0,7025,WL,A,10.0
2,11.728000164031982,learn,48271.99983596802,Fri Oct 11 2024 16:30:44 GMT-0500 (Central Daylight Time),296301.8999999985,A,book,O,k,92,1,582.8999999985099,295719.0,7025,WL,A,10.0
2,11.962000131607056,learn,48037.999868392944,Fri Oct 11 2024 16:30:44 GMT-0500 (Central Daylight Time),296535.299999997,A,bookenter,O,enter,216,1,816.2999999970198,295719.0,7025,WL,A,10.0
2,12.42799997329712,learn,47572.00002670288,Fri Oct 11 2024 16:30:44 GMT-0500 (Central Daylight Time),297001.69999999553,A,f,O,f,454,1,466.09999999403954,296535.6000000015,7025,WL,A,11.0
2,12.495000123977661,learn,47504.99987602234,Fri Oct 11 2024 16:30:44 GMT-0500 (Central Daylight Time),297068.3999999985,A,fl,O,l,60,1,532.7999999970198,296535.6000000015,7025,WL,A,11.0
2,12.663000106811523,learn,47336.99989318848,Fri Oct 11 2024 16:30:44 GMT-0500 (Central Daylight Time),297236.19999999553,A,flo,O,o,153,1,700.5999999940395,296535.6000000015,7025,WL,A,11.0
2,12.76200008392334,learn,47237.99991607666,Fri Oct 11 2024 16:30:44 GMT-0500 (Central Daylight Time),297335.19999999553,A,flow,O,w,89,1,799.5999999940395,296535.6000000015,7025,WL,A,11.0
2,12.82800006866455,learn,47171.99993133545,Fri Oct 11 2024 16:30:44 GMT-0500 (Central Daylight Time),297401.799999997,A,flowe,O,e,47,1,866.1999999955297,296535.6000000015,7025,WL,A,11.0
2,12.894999980926514,learn,47105.000019073486,Fri Oct 11 2024 16:30:44 GMT-0500 (Central Daylight Time),297468.1000000015,A,flower,O,r,52,1,932.5,296535.6000000015,7025,WL,A,11.0
2,13.045000076293945,learn,46954.999923706055,Fri Oct 11 2024 16:30:44 GMT-0500 (Central Daylight Time),297618.19999999553,A,flowerenter,O,enter,137,1,1082.5999999940395,296535.6000000015,7025,WL,A,11.0
2,13.278000116348267,learn,46721.99988365173,Fri Oct 11 2024 16:30:44 GMT-0500 (Central Daylight Time),297851.6000000015,A,m,O,m,228,1,233.10000000149012,297618.5,7025,WL,A,12.0
2,13.36300015449524,learn,46636.99984550476,Fri Oct 11 2024 16:30:44 GMT-0500 (Central Daylight Time),297935.8999999985,A,me,O,e,73,1,317.3999999985099,297618.5,7025,WL,A,12.0
2,13.444000005722046,learn,46555.999994277954,Fri Oct 11 2024 16:30:44 GMT-0500 (Central Daylight Time),298017.8999999985,A,mea,O,a,78,1,399.3999999985099,297618.5,7025,WL,A,12.0
2,13.745000123977661,learn,46254.99987602234,Fri Oct 11 2024 16:30:44 GMT-0500 (Central Daylight Time),298318.1000000015,A,mead,O,d,292,1,699.6000000014901,297618.5,7025,WL,A,12.0
2,13.91100001335144,learn,46088.99998664856,Fri Oct 11 2024 16:30:44 GMT-0500 (Central Daylight Time),298484.69999999553,A,meado,O,o,151,1,866.1999999955297,297618.5,7025,WL,A,12.0
2,14.044000148773193,learn,45955.99985122681,Fri Oct 11 2024 16:30:44 GMT-0500 (Central Daylight Time),298617.8999999985,A,meadow,O,w,113,1,999.3999999985099,297618.5,7025,WL,A,12.0
2,14.17799997329712,learn,45822.00002670288,Fri Oct 11 2024 16:30:44 GMT-0500 (Central Daylight Time),298751.1000000015,A,meadowenter,O,enter,124,1,1132.6000000014901,297618.5,7025,WL,A,12.0
2,14.41100001335144,learn,45588.99998664856,Fri Oct 11 2024 16:30:44 GMT-0500 (Central Daylight Time),298984.3999999985,A,r,O,r,222,1,232.89999999850988,298751.5,7025,WL,A,13.0
2,14.511000156402588,learn,45488.99984359741,Fri Oct 11 2024 16:30:44 GMT-0500 (Central Daylight Time),299084.299999997,A,ru,O,u,85,1,332.79999999701977,298751.5,7025,WL,A,13.0
2,14.74399995803833,learn,45256.00004196167,Fri Oct 11 2024 16:30:44 GMT-0500 (Central Daylight Time),299317.5,A,rug,O,g,217,1,566.0,298751.5,7025,WL,A,13.0
2,15.49399995803833,learn,44506.00004196167,Fri Oct 11 2024 16:30:44 GMT-0500 (Central Daylight Time),300067.6000000015,A,rugenter,O,enter,744,1,1316.1000000014901,298751.5,7025,WL,A,13.0
2,17.677000045776367,learn,42322.99995422363,Fri Oct 11 2024 16:30:44 GMT-0500 (Central Daylight Time),302250.0,A,s,O,s,2178,1,2182.10000000149,300067.8999999985,7025,WL,A,14.0
2,17.80999994277954,learn,42190.00005722046,Fri Oct 11 2024 16:30:44 GMT-0500 (Central Daylight Time),302383.19999999553,A,sa,O,a,123,1,2315.2999999970198,300067.8999999985,7025,WL,A,14.0
2,17.927000045776367,learn,42072.99995422363,Fri Oct 11 2024 16:30:44 GMT-0500 (Central Daylight Time),302500.0,A,sal,O,l,109,1,2432.10000000149,300067.8999999985,7025,WL,A,14.0
2,18.0770001411438,learn,41922.9998588562,Fri Oct 11 2024 16:30:44 GMT-0500 (Central Daylight Time),302650.0,A,salt,O,t,146,1,2582.10000000149,300067.8999999985,7025,WL,A,14.0
2,18.460000038146973,learn,41539.99996185303,Fri Oct 11 2024 16:30:44 GMT-0500 (Central Daylight Time),303033.5,A,saltenter,O,enter,363,1,2965.60000000149,300067.8999999985,7025,WL,A,14.0
2,19.625999927520752,learn,40374.00007247925,Fri Oct 11 2024 16:30:44 GMT-0500 (Central Daylight Time),304199.5,A,enter,O,enter,1148,1,1165.7000000029802,303033.799999997,7025,WL,A,15.0
3,0.46700000762939453,learn,59532.999992370605,Fri Oct 11 2024 16:30:44 GMT-0500 (Central Daylight Time),370661.8999999985,A,k,O,k,458,1,466.20000000298023,370195.69999999553,7025,WL,A,1.0
3,0.746999979019165,learn,59253.000020980835,Fri Oct 11 2024 16:30:44 GMT-0500 (Central Daylight Time),370942.3999999985,A,ke,O,e,275,1,746.7000000029802,370195.69999999553,7025,WL,A,1.0
3,0.8940000534057617,learn,59105.99994659424,Fri Oct 11 2024 16:30:44 GMT-0500 (Central Daylight Time),371089.5,A,key,O,y,142,1,893.8000000044703,370195.69999999553,7025,WL,A,1.0
3,1.1170001029968262,learn,58882.999897003174,Fri Oct 11 2024 16:30:44 GMT-0500 (Central Daylight Time),371311.799999997,A,keyenter,O,enter,203,1,1116.1000000014901,370195.69999999553,7025,WL,A,1.0
3,1.433000087738037,learn,58566.99991226196,Fri Oct 11 2024 16:30:44 GMT-0500 (Central Daylight Time),371628.299999997,A,r,O,r,310,1,316.1000000014901,371312.19999999553,7025,WL,A,2.0
3,1.5329999923706055,learn,58467.000007629395,Fri Oct 11 2024 16:30:44 GMT-0500 (Central Daylight Time),371728.299999997,A,ra,O,a,89,1,416.1000000014901,371312.19999999553,7025,WL,A,2.0
3,1.6670000553131104,learn,58332.99994468689,Fri Oct 11 2024 16:30:44 GMT-0500 (Central Daylight Time),371861.69999999553,A,rat,O,t,117,1,549.5,371312.19999999553,7025,WL,A,2.0
3,1.816999912261963,learn,58183.00008773804,Fri Oct 11 2024 16:30:44 GMT-0500 (Central Daylight Time),372011.8999999985,A,ratl,O,l,136,1,699.7000000029802,371312.19999999553,7025,WL,A,2.0
3,2.4159998893737793,learn,57584.00011062622,Fri Oct 11 2024 16:30:44 GMT-0500 (Central Daylight Time),372611.299999997,A,rat,O,backspace,586,1,1299.1000000014901,371312.19999999553,7025,WL,A,2.0
3,2.4660000801086426,learn,57533.99991989136,Fri Oct 11 2024 16:30:44 GMT-0500 (Central Daylight Time),372661.299999997,A,ratt,O,t,41,1,1349.1000000014901,371312.19999999553,7025,WL,A,2.0
3,2.6659998893737793,learn,57334.00011062622,Fri Oct 11 2024 16:30:44 GMT-0500 (Central Daylight Time),372861.299999997,A,rattl,O,l,192,1,1549.1000000014901,371312.19999999553,7025,WL,A,2.0
3,2.7829999923706055,learn,57217.000007629395,Fri Oct 11 2024 16:30:44 GMT-0500 (Central Daylight Time),372978.1000000015,A,rattle,O,e,112,1,1665.9000000059605,371312.19999999553,7025,WL,A,2.0
3,3.0,learn,57000.0,Fri Oct 11 2024 16:30:44 GMT-0500 (Central Daylight Time),373194.6000000015,A,rattleenter,O,enter,203,1,1882.4000000059605,371312.19999999553,7025,WL,A,2.0
3,3.2160000801086426,learn,56783.99991989136,Fri Oct 11 2024 16:30:44 GMT-0500 (Central Daylight Time),373411.299999997,A,g,O,g,203,1,216.29999999701977,373195.0,7025,WL,A,3.0
3,3.2829999923706055,learn,56717.000007629395,Fri Oct 11 2024 16:30:44 GMT-0500 (Central Daylight Time),373477.799999997,A,go,O,o,58,1,282.79999999701977,373195.0,7025,WL,A,3.0
3,3.4660000801086426,learn,56533.99991989136,Fri Oct 11 2024 16:30:44 GMT-0500 (Central Daylight Time),373661.0,A,gol,O,l,168,1,466.0,373195.0,7025,WL,A,3.0
3,3.565999984741211,learn,56434.00001525879,Fri Oct 11 2024 16:30:44 GMT-0500 (Central Daylight Time),373761.1000000015,A,gold,O,d,88,1,566.1000000014901,373195.0,7025,WL,A,3.0
3,4.115999937057495,learn,55884.000062942505,Fri Oct 11 2024 16:30:44 GMT-0500 (Central Daylight Time),374311.0,A,goldenter,O,enter,533,1,1116.0,373195.0,7025,WL,A,3.0
3,5.098999977111816,learn,54901.00002288818,Fri Oct 11 2024 16:30:44 GMT-0500 (Central Daylight Time),375293.8999999985,A,b,O,b,975,1,982.6000000014901,374311.299999997,7025,WL,A,4.0
3,5.265000104904175,learn,54734.999895095825,Fri Oct 11 2024 16:30:44 GMT-0500 (Central Daylight Time),375460.19999999553,A,bo,O,o,151,1,1148.8999999985099,374311.299999997,7025,WL,A,4.0
3,5.365000009536743,learn,54634.99999046326,Fri Oct 11 2024 16:30:44 GMT-0500 (Central Daylight Time),375560.3999999985,A,boo,O,o,89,1,1249.1000000014901,374311.299999997,7025,WL,A,4.0
3,5.515000104904175,learn,54484.999895095825,Fri Oct 11 2024 16:30:44 GMT-0500 (Central Daylight Time),375710.299999997,A,book,O,k,133,1,1399.0,374311.299999997,7025,WL,A,4.0
3,5.815000057220459,learn,54184.99994277954,Fri Oct 11 2024 16:30:44 GMT-0500 (Central Daylight Time),376010.1000000015,A,bookenter,O,enter,287,1,1698.8000000044703,374311.299999997,7025,WL,A,4.0
3,6.88100004196167,learn,53118.99995803833,Fri Oct 11 2024 16:30:44 GMT-0500 (Central Daylight Time),377076.299999997,A,t,O,t,1051,1,1065.7999999970198,376010.5,7025,WL,A,5.0
3,7.615000009536743,learn,52384.99999046326,Fri Oct 11 2024 16:30:44 GMT-0500 (Central Daylight Time),377810.0,A,tf,O,f,720,1,1799.5,376010.5,7025,WL,A,5.0
3,7.732000112533569,learn,52267.99988746643,Fri Oct 11 2024 16:30:44 GMT-0500 (Central Daylight Time),377926.6000000015,A,tfl,O,l,99,1,1916.1000000014901,376010.5,7025,WL,A,5.0
3,8.164999961853027,learn,51835.00003814697,Fri Oct 11 2024 16:30:44 GMT-0500 (Central Daylight Time),378360.0,A,tf,O,backspace,413,1,2349.5,376010.5,7025,WL,A,5.0
3,8.448999881744385,learn,51551.000118255615,Fri Oct 11 2024 16:30:44 GMT-0500 (Central Daylight Time),378643.69999999553,A,t,O,backspace,277,1,2633.1999999955297,376010.5,7025,WL,A,5.0
3,8.615000009536743,learn,51384.99999046326,Fri Oct 11 2024 16:30:44 GMT-0500 (Central Daylight Time),378810.0,A,,O,backspace,146,1,2799.5,376010.5,7025,WL,A,5.0
3,8.831000089645386,learn,51168.999910354614,Fri Oct 11 2024 16:30:44 GMT-0500 (Central Daylight Time),379026.0,A,f,O,f,203,1,3015.5,376010.5,7025,WL,A,5.0
3,8.930999994277954,learn,51069.000005722046,Fri Oct 11 2024 16:30:44 GMT-0500 (Central Daylight Time),379126.19999999553,A,fl,O,l,83,1,3115.6999999955297,376010.5,7025,WL,A,5.0
3,9.13100004196167,learn,50868.99995803833,Fri Oct 11 2024 16:30:44 GMT-0500 (Central Daylight Time),379326.19999999553,A,flo,O,o,191,1,3315.6999999955297,376010.5,7025,WL,A,5.0
3,9.23200011253357,learn,50767.99988746643,Fri Oct 11 2024 16:30:44 GMT-0500 (Central Daylight Time),379426.799999997,A,flow,O,w,87,1,3416.2999999970198,376010.5,7025,WL,A,5.0
3,9.315999984741211,learn,50684.00001525879,Fri Oct 11 2024 16:30:44 GMT-0500 (Central Daylight Time),379510.799999997,A,flowe,O,e,75,1,3500.2999999970198,376010.5,7025,WL,A,5.0
3,9.398000001907349,learn,50601.99999809265,Fri Oct 11 2024 16:30:44 GMT-0500 (Central Daylight Time),379592.8999999985,A,flower,O,r,70,1,3582.39999999851,376010.5,7025,WL,A,5.0
3,9.563999891281128,learn,50436.00010871887,Fri Oct 11 2024 16:30:44 GMT-0500 (Central Daylight Time),379759.6000000015,A,flowerenter,O,enter,157,1,3749.10000000149,376010.5,7025,WL,A,5.0
3,9.79699993133545,learn,50203.00006866455,Fri Oct 11 2024 16:30:44 GMT-0500 (Central Daylight Time),379992.5,A,t,O,t,222,1,232.60000000149012,379759.8999999985,7025,WL,A,6.0
3,9.94700002670288,learn,50052.99997329712,Fri Oct 11 2024 16:30:44 GMT-0500 (Central Daylight Time),380142.6000000015,A,tr,O,r,141,1,382.70000000298023,379759.8999999985,7025,WL,A,6.0
3,10.030999898910522,learn,49969.00010108948,Fri Oct 11 2024 16:30:44 GMT-0500 (Central Daylight Time),380226.1000000015,A,tra,O,a,63,1,466.20000000298023,379759.8999999985,7025,WL,A,6.0
3,10.096999883651733,learn,49903.00011634827,Fri Oct 11 2024 16:30:44 GMT-0500 (Central Daylight Time),380292.3999999985,A,trai,O,i,59,1,532.5,379759.8999999985,7025,WL,A,6.0
3,10.180999994277954,learn,49819.000005722046,Fri Oct 11 2024 16:30:44 GMT-0500 (Central Daylight Time),380376.0,A,train,O,n,73,1,616.1000000014901,379759.8999999985,7025,WL,A,6.0
3,10.331000089645386,learn,49668.999910354614,Fri Oct 11 2024 16:30:44 GMT-0500 (Central Daylight Time),380525.8999999985,A,trainenter,O,enter,141,1,766.0,379759.8999999985,7025,WL,A,6.0
3,10.530999898910522,learn,49469.00010108948,Fri Oct 11 2024 16:30:44 GMT-0500 (Central Daylight Time),380725.69999999553,A,r,O,r,183,1,199.19999999552965,380526.5,7025,WL,A,7.0
3,10.664000034332275,learn,49335.999965667725,Fri Oct 11 2024 16:30:44 GMT-0500 (Central Daylight Time),380858.8999999985,A,ru,O,u,119,1,332.3999999985099,380526.5,7025,WL,A,7.0
3,10.813999891281128,learn,49186.00010871887,Fri Oct 11 2024 16:30:44 GMT-0500 (Central Daylight Time),381008.799999997,A,rug,O,g,130,1,482.29999999701977,380526.5,7025,WL,A,7.0
3,11.114000082015991,learn,48885.99991798401,Fri Oct 11 2024 16:30:44 GMT-0500 (Central Daylight Time),381309.0,A,rugenter,O,enter,292,1,782.5,380526.5,7025,WL,A,7.0
3,11.329999923706055,learn,48670.000076293945,Fri Oct 11 2024 16:30:44 GMT-0500 (Central Daylight Time),381525.5,A,h,O,h,209,1,216.10000000149012,381309.3999999985,7025,WL,A,8.0
3,11.44700002670288,learn,48552.99997329712,Fri Oct 11 2024 16:30:44 GMT-0500 (Central Daylight Time),381641.8999999985,A,ha,O,a,96,1,332.5,381309.3999999985,7025,WL,A,8.0
3,11.54699993133545,learn,48453.00006866455,Fri Oct 11 2024 16:30:44 GMT-0500 (Central Daylight Time),381741.8999999985,A,har,O,r,83,1,432.5,381309.3999999985,7025,WL,A,8.0
3,11.680000066757202,learn,48319.9999332428,Fri Oct 11 2024 16:30:44 GMT-0500 (Central Daylight Time),381875.3999999985,A,harp,O,p,119,1,566.0,381309.3999999985,7025,WL,A,8.0
3,12.629999876022339,learn,47370.00012397766,Fri Oct 11 2024 16:30:44 GMT-0500 (Central Daylight Time),382825.1000000015,A,harpenter,O,enter,929,1,1515.7000000029802,381309.3999999985,7025,WL,A,8.0
3,13.062999963760376,learn,46937.000036239624,Fri Oct 11 2024 16:30:44 GMT-0500 (Central Daylight Time),383258.299999997,A,m,O,m,413,1,432.69999999552965,382825.6000000015,7025,WL,A,9.0
3,13.19700002670288,learn,46802.99997329712,Fri Oct 11 2024 16:30:44 GMT-0500 (Central Daylight Time),383391.8999999985,A,me,O,e,114,1,566.2999999970198,382825.6000000015,7025,WL,A,9.0
3,13.23200011253357,learn,46767.99988746643,Fri Oct 11 2024 16:30:44 GMT-0500 (Central Daylight Time),383426.6000000015,A,mea,O,a,19,1,601.0,382825.6000000015,7025,WL,A,9.0
3,13.44700002670288,learn,46552.99997329712,Fri Oct 11 2024 16:30:44 GMT-0500 (Central Daylight Time),383641.69999999553,A,mead,O,d,203,1,816.0999999940395,382825.6000000015,7025,WL,A,9.0
3,13.579999923706055,learn,46420.000076293945,Fri Oct 11 2024 16:30:44 GMT-0500 (Central Daylight Time),383774.799999997,A,meado,O,o,123,1,949.1999999955297,382825.6000000015,7025,WL,A,9.0
3,13.796000003814697,learn,46203.9999961853,Fri Oct 11 2024 16:30:44 GMT-0500 (Central Daylight Time),383991.299999997,A,meadow,O,w,199,1,1165.6999999955297,382825.6000000015,7025,WL,A,9.0
3,14.213000059127808,learn,45786.99994087219,Fri Oct 11 2024 16:30:44 GMT-0500 (Central Daylight Time),384408.299999997,A,meadowenter,O,enter,405,1,1582.6999999955297,382825.6000000015,7025,WL,A,9.0
3,15.51200008392334,learn,44487.99991607666,Fri Oct 11 2024 16:30:44 GMT-0500 (Central Daylight Time),385707.3999999985,A,f,O,f,1285,1,1298.7999999970198,384408.6000000015,7025,WL,A,10.0
3,15.611999988555908,learn,44388.00001144409,Fri Oct 11 2024 16:30:44 GMT-0500 (Central Daylight Time),385807.19999999553,A,fi,O,i,81,1,1398.5999999940395,384408.6000000015,7025,WL,A,10.0
3,15.678999900817871,learn,44321.00009918213,Fri Oct 11 2024 16:30:44 GMT-0500 (Central Daylight Time),385874.19999999553,A,fin,O,n,61,1,1465.5999999940395,384408.6000000015,7025,WL,A,10.0
3,15.779000043869019,learn,44220.99995613098,Fri Oct 11 2024 16:30:44 GMT-0500 (Central Daylight Time),385974.1000000015,A,fing,O,g,83,1,1565.5,384408.6000000015,7025,WL,A,10.0
3,15.963000059127808,learn,44036.99994087219,Fri Oct 11 2024 16:30:44 GMT-0500 (Central Daylight Time),386157.69999999553,A,finge,O,e,175,1,1749.0999999940395,384408.6000000015,7025,WL,A,10.0
3,16.046000003814697,learn,43953.9999961853,Fri Oct 11 2024 16:30:44 GMT-0500 (Central Daylight Time),386240.799999997,A,finger,O,r,64,1,1832.1999999955297,384408.6000000015,7025,WL,A,10.0
3,16.312000036239624,learn,43687.999963760376,Fri Oct 11 2024 16:30:44 GMT-0500 (Central Daylight Time),386507.299999997,A,fingerenter,O,enter,259,1,2098.6999999955297,384408.6000000015,7025,WL,A,10.0
3,16.51200008392334,learn,43487.99991607666,Fri Oct 11 2024 16:30:44 GMT-0500 (Central Daylight Time),386706.69999999553,A,a,O,a,194,1,198.79999999701977,386507.8999999985,7025,WL,A,11.0
3,16.628999948501587,learn,43371.00005149841,Fri Oct 11 2024 16:30:44 GMT-0500 (Central Daylight Time),386823.799999997,A,ap,O,p,96,1,315.8999999985099,386507.8999999985,7025,WL,A,11.0
3,16.711999893188477,learn,43288.00010681152,Fri Oct 11 2024 16:30:44 GMT-0500 (Central Daylight Time),386907.0,A,app,O,p,69,1,399.1000000014901,386507.8999999985,7025,WL,A,11.0
3,16.911999940872192,learn,43088.00005912781,Fri Oct 11 2024 16:30:44 GMT-0500 (Central Daylight Time),387107.19999999553,A,appl,O,l,186,1,599.2999999970198,386507.8999999985,7025,WL,A,11.0
3,17.062000036239624,learn,42937.999963760376,Fri Oct 11 2024 16:30:44 GMT-0500 (Central Daylight Time),387257.3999999985,A,apple,O,e,138,1,749.5,386507.8999999985,7025,WL,A,11.0
3,17.277999877929688,learn,42722.00012207031,Fri Oct 11 2024 16:30:44 GMT-0500 (Central Daylight Time),387473.5,A,appleenter,O,enter,195,1,965.6000000014901,386507.8999999985,7025,WL,A,11.0
3,17.494999885559082,learn,42505.00011444092,Fri Oct 11 2024 16:30:44 GMT-0500 (Central Daylight Time),387690.1000000015,A,c,O,c,197,1,216.10000000149012,387474.0,7025,WL,A,12.0
3,17.562000036239624,learn,42437.999963760376,Fri Oct 11 2024 16:30:44 GMT-0500 (Central Daylight Time),387756.6000000015,A,ch,O,h,51,1,282.6000000014901,387474.0,7025,WL,A,12.0
3,17.645999908447266,learn,42354.000091552734,Fri Oct 11 2024 16:30:44 GMT-0500 (Central Daylight Time),387841.1000000015,A,chi,O,i,73,1,367.1000000014901,387474.0,7025,WL,A,12.0
3,17.795000076293945,learn,42204.999923706055,Fri Oct 11 2024 16:30:44 GMT-0500 (Central Daylight Time),387990.0,A,chim,O,m,140,1,516.0,387474.0,7025,WL,A,12.0
3,18.246000051498413,learn,41753.99994850159,Fri Oct 11 2024 16:30:44 GMT-0500 (Central Daylight Time),388441.1000000015,A,chimn,O,n,440,1,967.1000000014901,387474.0,7025,WL,A,12.0
3,18.378000020980835,learn,41621.999979019165,Fri Oct 11 2024 16:30:44 GMT-0500 (Central Daylight Time),388572.8999999985,A,chimne,O,e,124,1,1098.8999999985099,387474.0,7025,WL,A,12.0
3,18.545000076293945,learn,41454.999923706055,Fri Oct 11 2024 16:30:44 GMT-0500 (Central Daylight Time),388739.6000000015,A,chimney,O,y,160,1,1265.6000000014901,387474.0,7025,WL,A,12.0
3,19.111000061035156,learn,40888.999938964844,Fri Oct 11 2024 16:30:44 GMT-0500 (Central Daylight Time),389306.19999999553,A,chimneyenter,O,enter,554,1,1832.1999999955297,387474.0,7025,WL,A,12.0
3,19.361000061035156,learn,40638.999938964844,Fri Oct 11 2024 16:30:44 GMT-0500 (Central Daylight Time),389556.0,A,l,O,l,243,1,249.39999999850988,389306.6000000015,7025,WL,A,13.0
3,19.543999910354614,learn,40456.000089645386,Fri Oct 11 2024 16:30:44 GMT-0500 (Central Daylight Time),389739.19999999553,A,lo,O,o,177,1,432.59999999403954,389306.6000000015,7025,WL,A,13.0
3,19.694000005722046,learn,40305.999994277954,Fri Oct 11 2024 16:30:44 GMT-0500 (Central Daylight Time),389889.5,A,log,O,g,130,1,582.8999999985099,389306.6000000015,7025,WL,A,13.0
3,20.127000093460083,learn,39872.99990653992,Fri Oct 11 2024 16:30:44 GMT-0500 (Central Daylight Time),390322.5,A,logenter,O,enter,419,1,1015.8999999985099,389306.6000000015,7025,WL,A,13.0
3,20.378999948501587,learn,39621.00005149841,Fri Oct 11 2024 16:30:44 GMT-0500 (Central Daylight Time),390573.69999999553,A,b,O,b,243,1,250.89999999850988,390322.799999997,7025,WL,A,14.0
3,20.49399995803833,learn,39506.00004196167,Fri Oct 11 2024 16:30:44 GMT-0500 (Central Daylight Time),390689.0,A,bu,O,u,95,1,366.20000000298023,390322.799999997,7025,WL,A,14.0
3,20.627000093460083,learn,39372.99990653992,Fri Oct 11 2024 16:30:44 GMT-0500 (Central Daylight Time),390822.5,A,but,O,t,117,1,499.70000000298023,390322.799999997,7025,WL,A,14.0
3,20.744999885559082,learn,39255.00011444092,Fri Oct 11 2024 16:30:44 GMT-0500 (Central Daylight Time),390940.0,A,butt,O,t,111,1,617.2000000029802,390322.799999997,7025,WL,A,14.0
3,20.811000108718872,learn,39188.99989128113,Fri Oct 11 2024 16:30:44 GMT-0500 (Central Daylight Time),391005.69999999553,A,butto,O,o,58,1,682.8999999985099,390322.799999997,7025,WL,A,14.0
3,20.895999908447266,learn,39104.000091552734,Fri Oct 11 2024 16:30:44 GMT-0500 (Central Daylight Time),391090.5,A,button,O,n,72,1,767.7000000029802,390322.799999997,7025,WL,A,14.0
3,21.07699990272522,learn,38923.00009727478,Fri Oct 11 2024 16:30:44 GMT-0500 (Central Daylight Time),391272.299999997,A,buttonenter,O,enter,163,1,949.5,390322.799999997,7025,WL,A,14.0
3,21.24399995803833,learn,38756.00004196167,Fri Oct 11 2024 16:30:44 GMT-0500 (Central Daylight Time),391438.799999997,A,s,O,s,149,1,166.10000000149012,391272.69999999553,7025,WL,A,15.0
3,21.32699990272522,learn,38673.00009727478,Fri Oct 11 2024 16:30:44 GMT-0500 (Central Daylight Time),391521.8999999985,A,sa,O,a,70,1,249.20000000298023,391272.69999999553,7025,WL,A,15.0
3,21.460000038146973,learn,38539.99996185303,Fri Oct 11 2024 16:30:44 GMT-0500 (Central Daylight Time),391655.5,A,sal,O,l,124,1,382.80000000447035,391272.69999999553,7025,WL,A,15.0
3,21.710000038146973,learn,38289.99996185303,Fri Oct 11 2024 16:30:44 GMT-0500 (Central Daylight Time),391905.19999999553,A,salt,O,t,237,1,632.5,391272.69999999553,7025,WL,A,15.0
3,22.542999982833862,learn,37457.00001716614,Fri Oct 11 2024 16:30:44 GMT-0500 (Central Daylight Time),392738.299999997,A,saltenter,O,enter,821,1,1465.6000000014901,391272.69999999553,7025,WL,A,15.0
4,0.46700000762939453,learn,59532.999992370605,Fri Oct 11 2024 16:30:44 GMT-0500 (Central Daylight Time),459634.0,A,b,O,b,455,1,466.20000000298023,459167.799999997,7025,WL,A,1.0
4,0.6830000877380371,learn,59316.99991226196,Fri Oct 11 2024 16:30:44 GMT-0500 (Central Daylight Time),459850.799999997,A,bo,O,o,203,1,683.0,459167.799999997,7025,WL,A,1.0
4,0.8000001907348633,learn,59199.99980926514,Fri Oct 11 2024 16:30:44 GMT-0500 (Central Daylight Time),459967.5,A,boo,O,o,107,1,799.7000000029802,459167.799999997,7025,WL,A,1.0
4,0.9830000400543213,learn,59016.99995994568,Fri Oct 11 2024 16:30:44 GMT-0500 (Central Daylight Time),460150.69999999553,A,book,O,k,166,1,982.8999999985099,459167.799999997,7025,WL,A,1.0
4,1.2160000801086426,learn,58783.99991989136,Fri Oct 11 2024 16:30:44 GMT-0500 (Central Daylight Time),460383.69999999553,A,bookenter,O,enter,223,1,1215.8999999985099,459167.799999997,7025,WL,A,1.0
4,1.56600022315979,learn,58433.99977684021,Fri Oct 11 2024 16:30:44 GMT-0500 (Central Daylight Time),460733.69999999553,A,f,O,f,334,1,349.69999999552965,460384.0,7025,WL,A,2.0
4,1.633000135421753,learn,58366.99986457825,Fri Oct 11 2024 16:30:44 GMT-0500 (Central Daylight Time),460800.3999999985,A,fl,O,l,56,1,416.3999999985099,460384.0,7025,WL,A,2.0
4,1.8000001907348633,learn,58199.99980926514,Fri Oct 11 2024 16:30:44 GMT-0500 (Central Daylight Time),460967.0,A,flo,O,o,157,1,583.0,460384.0,7025,WL,A,2.0
4,1.8990001678466797,learn,58100.99983215332,Fri Oct 11 2024 16:30:44 GMT-0500 (Central Daylight Time),461066.799999997,A,flow,O,w,95,1,682.7999999970198,460384.0,7025,WL,A,2.0
4,1.9660000801086426,learn,58033.99991989136,Fri Oct 11 2024 16:30:44 GMT-0500 (Central Daylight Time),461133.799999997,A,flowe,O,e,59,1,749.7999999970198,460384.0,7025,WL,A,2.0
4,2.0830001831054688,learn,57916.99981689453,Fri Oct 11 2024 16:30:44 GMT-0500 (Central Daylight Time),461250.19999999553,A,flower,O,r,96,1,866.1999999955297,460384.0,7025,WL,A,2.0
4,2.3490002155303955,learn,57650.999784469604,Fri Oct 11 2024 16:30:44 GMT-0500 (Central Daylight Time),461516.799999997,A,flowerenter,O,enter,251,1,1132.7999999970198,460384.0,7025,WL,A,2.0
4,2.866000175476074,learn,57133.999824523926,Fri Oct 11 2024 16:30:44 GMT-0500 (Central Daylight Time),462033.299999997,A,t,O,t,497,1,516.1999999955297,461517.1000000015,7025,WL,A,3.0
4,3.0329999923706055,learn,56967.000007629395,Fri Oct 11 2024 16:30:44 GMT-0500 (Central Daylight Time),462200.0,A,tr,O,r,156,1,682.8999999985099,461517.1000000015,7025,WL,A,3.0
4,3.116000175476074,learn,56883.999824523926,Fri Oct 11 2024 16:30:44 GMT-0500 (Central Daylight Time),462283.19999999553,A,tra,O,a,69,1,766.0999999940395,461517.1000000015,7025,WL,A,3.0
4,3.2829999923706055,learn,56717.000007629395,Fri Oct 11 2024 16:30:44 GMT-0500 (Central Daylight Time),462450.0,A,trai,O,i,146,1,932.8999999985099,461517.1000000015,7025,WL,A,3.0
4,3.3320000171661377,learn,56667.99998283386,Fri Oct 11 2024 16:30:44 GMT-0500 (Central Daylight Time),462499.799999997,A,train,O,n,36,1,982.6999999955297,461517.1000000015,7025,WL,A,3.0
4,3.5490000247955322,learn,56450.99997520447,Fri Oct 11 2024 16:30:44 GMT-0500 (Central Daylight Time),462716.799999997,A,trainenter,O,enter,202,1,1199.6999999955297,461517.1000000015,7025,WL,A,3.0
4,3.8000001907348633,learn,56199.99980926514,Fri Oct 11 2024 16:30:44 GMT-0500 (Central Daylight Time),462967.799999997,A,r,O,r,241,1,250.69999999552965,462717.1000000015,7025,WL,A,4.0
4,3.9160001277923584,learn,56083.99987220764,Fri Oct 11 2024 16:30:44 GMT-0500 (Central Daylight Time),463083.0,A,ru,O,u,101,1,365.8999999985099,462717.1000000015,7025,WL,A,4.0
4,4.082000017166138,learn,55917.99998283386,Fri Oct 11 2024 16:30:44 GMT-0500 (Central Daylight Time),463249.69999999553,A,rug,O,g,147,1,532.5999999940395,462717.1000000015,7025,WL,A,4.0
4,4.432000160217285,learn,55567.999839782715,Fri Oct 11 2024 16:30:44 GMT-0500 (Central Daylight Time),463599.69999999553,A,rugenter,O,enter,332,1,882.5999999940395,462717.1000000015,7025,WL,A,4.0
4,4.666000127792358,learn,55333.99987220764,Fri Oct 11 2024 16:30:44 GMT-0500 (Central Daylight Time),463832.799999997,A,m,O,m,222,1,232.69999999552965,463600.1000000015,7025,WL,A,5.0
4,4.7820000648498535,learn,55217.99993515015,Fri Oct 11 2024 16:30:44 GMT-0500 (Central Daylight Time),463949.5,A,me,O,e,101,1,349.3999999985099,463600.1000000015,7025,WL,A,5.0
4,4.8490002155303955,learn,55150.999784469604,Fri Oct 11 2024 16:30:44 GMT-0500 (Central Daylight Time),464016.0,A,mea,O,a,48,1,415.8999999985099,463600.1000000015,7025,WL,A,5.0
4,4.999000072479248,learn,55000.99992752075,Fri Oct 11 2024 16:30:44 GMT-0500 (Central Daylight Time),464166.299999997,A,mead,O,d,142,1,566.1999999955297,463600.1000000015,7025,WL,A,5.0
4,5.115000009536743,learn,54884.99999046326,Fri Oct 11 2024 16:30:44 GMT-0500 (Central Daylight Time),464282.69999999553,A,meado,O,o,103,1,682.5999999940395,463600.1000000015,7025,WL,A,5.0
4,5.265000104904175,learn,54734.999895095825,Fri Oct 11 2024 16:30:44 GMT-0500 (Central Daylight Time),464432.69999999553,A,meadow,O,w,139,1,832.5999999940395,463600.1000000015,7025,WL,A,5.0
4,6.109000205993652,learn,53890.99979400635,Fri Oct 11 2024 16:30:44 GMT-0500 (Central Daylight Time),465276.5,A,meadowenter,O,enter,839,1,1676.3999999985099,463600.1000000015,7025,WL,A,5.0
4,6.383000135421753,learn,53616.99986457825,Fri Oct 11 2024 16:30:44 GMT-0500 (Central Daylight Time),465549.8999999985,A,h,O,h,265,1,273.20000000298023,465276.69999999553,7025,WL,A,6.0
4,6.515000104904175,learn,53484.999895095825,Fri Oct 11 2024 16:30:44 GMT-0500 (Central Daylight Time),465682.1000000015,A,ha,O,a,120,1,405.40000000596046,465276.69999999553,7025,WL,A,6.0
4,6.615000009536743,learn,53384.99999046326,Fri Oct 11 2024 16:30:44 GMT-0500 (Central Daylight Time),465782.299999997,A,har,O,r,91,1,505.6000000014901,465276.69999999553,7025,WL,A,6.0
4,6.79800009727478,learn,53201.99990272522,Fri Oct 11 2024 16:30:44 GMT-0500 (Central Daylight Time),465965.3999999985,A,harp,O,p,175,1,688.7000000029802,465276.69999999553,7025,WL,A,6.0
4,7.315000057220459,learn,52684.99994277954,Fri Oct 11 2024 16:30:44 GMT-0500 (Central Daylight Time),466481.8999999985,A,harpenter,O,enter,504,1,1205.2000000029802,465276.69999999553,7025,WL,A,6.0
4,7.5980000495910645,learn,52401.999950408936,Fri Oct 11 2024 16:30:44 GMT-0500 (Central Daylight Time),466765.299999997,A,s,O,s,276,1,283.0,466482.299999997,7025,WL,A,7.0
4,7.698000192642212,learn,52301.99980735779,Fri Oct 11 2024 16:30:44 GMT-0500 (Central Daylight Time),466865.19999999553,A,sa,O,a,81,1,382.8999999985099,466482.299999997,7025,WL,A,7.0
4,7.815000057220459,learn,52184.99994277954,Fri Oct 11 2024 16:30:44 GMT-0500 (Central Daylight Time),466981.8999999985,A,sal,O,l,101,1,499.6000000014901,466482.299999997,7025,WL,A,7.0
4,7.981000185012817,learn,52018.99981498718,Fri Oct 11 2024 16:30:44 GMT-0500 (Central Daylight Time),467148.3999999985,A,salt,O,t,160,1,666.1000000014901,466482.299999997,7025,WL,A,7.0
4,8.281000137329102,learn,51718.9998626709,Fri Oct 11 2024 16:30:44 GMT-0500 (Central Daylight Time),467448.19999999553,A,saltenter,O,enter,289,1,965.8999999985099,466482.299999997,7025,WL,A,7.0
4,8.680999994277954,learn,51319.000005722046,Fri Oct 11 2024 16:30:44 GMT-0500 (Central Daylight Time),467848.19999999553,A,f,O,f,382,1,399.69999999552965,467448.5,7025,WL,A,8.0
4,8.797000169754028,learn,51202.99983024597,Fri Oct 11 2024 16:30:44 GMT-0500 (Central Daylight Time),467964.799999997,A,fi,O,i,109,1,516.2999999970198,467448.5,7025,WL,A,8.0
4,8.864000082015991,learn,51135.99991798401,Fri Oct 11 2024 16:30:44 GMT-0500 (Central Daylight Time),468031.6000000015,A,fin,O,n,49,1,583.1000000014901,467448.5,7025,WL,A,8.0
4,8.930999994277954,learn,51069.000005722046,Fri Oct 11 2024 16:30:44 GMT-0500 (Central Daylight Time),468098.1000000015,A,fing,O,g,46,1,649.6000000014901,467448.5,7025,WL,A,8.0
4,9.114000082015991,learn,50885.99991798401,Fri Oct 11 2024 16:30:44 GMT-0500 (Central Daylight Time),468281.299999997,A,finge,O,e,163,1,832.7999999970198,467448.5,7025,WL,A,8.0
4,9.164000034332275,learn,50835.999965667725,Fri Oct 11 2024 16:30:44 GMT-0500 (Central Daylight Time),468331.3999999985,A,finger,O,r,36,1,882.8999999985099,467448.5,7025,WL,A,8.0
4,9.380000114440918,learn,50619.99988555908,Fri Oct 11 2024 16:30:44 GMT-0500 (Central Daylight Time),468547.8999999985,A,fingerenter,O,enter,210,1,1099.3999999985099,467448.5,7025,WL,A,8.0
4,9.630000114440918,learn,50369.99988555908,Fri Oct 11 2024 16:30:44 GMT-0500 (Central Daylight Time),468798.0,A,a,O,a,241,1,249.70000000298023,468548.299999997,7025,WL,A,9.0
4,9.814000129699707,learn,50185.99987030029,Fri Oct 11 2024 16:30:44 GMT-0500 (Central Daylight Time),468981.299999997,A,ap,O,p,175,1,433.0,468548.299999997,7025,WL,A,9.0
4,10.19700002670288,learn,49802.99997329712,Fri Oct 11 2024 16:30:44 GMT-0500 (Central Daylight Time),469364.3999999985,A,app,O,p,368,1,816.1000000014901,468548.299999997,7025,WL,A,9.0
4,10.413000106811523,learn,49586.99989318848,Fri Oct 11 2024 16:30:44 GMT-0500 (Central Daylight Time),469581.0,A,appl,O,l,201,1,1032.7000000029802,468548.299999997,7025,WL,A,9.0
4,10.647000074386597,learn,49352.9999256134,Fri Oct 11 2024 16:30:44 GMT-0500 (Central Daylight Time),469814.19999999553,A,apple,O,e,217,1,1265.8999999985099,468548.299999997,7025,WL,A,9.0
4,11.163000106811523,learn,48836.99989318848,Fri Oct 11 2024 16:30:44 GMT-0500 (Central Daylight Time),470330.799999997,A,appleenter,O,enter,503,1,1782.5,468548.299999997,7025,WL,A,9.0
4,11.564000129699707,learn,48435.99987030029,Fri Oct 11 2024 16:30:44 GMT-0500 (Central Daylight Time),470731.69999999553,A,c,O,c,395,1,400.59999999403954,470331.1000000015,7025,WL,A,10.0
4,11.630000114440918,learn,48369.99988555908,Fri Oct 11 2024 16:30:44 GMT-0500 (Central Daylight Time),470797.3999999985,A,ch,O,h,49,1,466.29999999701977,470331.1000000015,7025,WL,A,10.0
4,11.779000043869019,learn,48220.99995613098,Fri Oct 11 2024 16:30:44 GMT-0500 (Central Daylight Time),470947.19999999553,A,chi,O,i,136,1,616.0999999940395,470331.1000000015,7025,WL,A,10.0
4,11.963000059127808,learn,48036.99994087219,Fri Oct 11 2024 16:30:44 GMT-0500 (Central Daylight Time),471130.6000000015,A,chim,O,m,170,1,799.5,470331.1000000015,7025,WL,A,10.0
4,12.196000099182129,learn,47803.99990081787,Fri Oct 11 2024 16:30:44 GMT-0500 (Central Daylight Time),471363.69999999553,A,chimn,O,n,219,1,1032.5999999940395,470331.1000000015,7025,WL,A,10.0
4,12.328999996185303,learn,47671.0000038147,Fri Oct 11 2024 16:30:44 GMT-0500 (Central Daylight Time),471497.0,A,chimne,O,e,122,1,1165.8999999985099,470331.1000000015,7025,WL,A,10.0
4,12.463000059127808,learn,47536.99994087219,Fri Oct 11 2024 16:30:44 GMT-0500 (Central Daylight Time),471630.299999997,A,chimney,O,y,117,1,1299.1999999955297,470331.1000000015,7025,WL,A,10.0
4,12.629000186920166,learn,47370.999813079834,Fri Oct 11 2024 16:30:44 GMT-0500 (Central Daylight Time),471796.799999997,A,chimneyenter,O,enter,159,1,1465.6999999955297,470331.1000000015,7025,WL,A,10.0
4,12.86300015449524,learn,47136.99984550476,Fri Oct 11 2024 16:30:44 GMT-0500 (Central Daylight Time),472030.5,A,b,O,b,225,1,233.5,471797.0,7025,WL,A,11.0
4,12.979000091552734,learn,47020.999908447266,Fri Oct 11 2024 16:30:44 GMT-0500 (Central Daylight Time),472146.69999999553,A,bu,O,u,103,1,349.69999999552965,471797.0,7025,WL,A,11.0
4,13.112000226974487,learn,46887.99977302551,Fri Oct 11 2024 16:30:44 GMT-0500 (Central Daylight Time),472280.0,A,but,O,t,123,1,483.0,471797.0,7025,WL,A,11.0
4,13.246000051498413,learn,46753.99994850159,Fri Oct 11 2024 16:30:44 GMT-0500 (Central Daylight Time),472413.5,A,butt,O,t,117,1,616.5,471797.0,7025,WL,A,11.0
4,13.397000074386597,learn,46602.9999256134,Fri Oct 11 2024 16:30:44 GMT-0500 (Central Daylight Time),472564.5,A,butto,O,o,134,1,767.5,471797.0,7025,WL,A,11.0
4,13.51200008392334,learn,46487.99991607666,Fri Oct 11 2024 16:30:44 GMT-0500 (Central Daylight Time),472680.1000000015,A,button,O,n,105,1,883.1000000014901,471797.0,7025,WL,A,11.0
4,13.84600019454956,learn,46153.99980545044,Fri Oct 11 2024 16:30:44 GMT-0500 (Central Daylight Time),473013.299999997,A,buttonenter,O,enter,325,1,1216.2999999970198,471797.0,7025,WL,A,11.0
4,14.078999996185303,learn,45921.0000038147,Fri Oct 11 2024 16:30:44 GMT-0500 (Central Daylight Time),473246.5,A,l,O,l,225,1,232.89999999850988,473013.6000000015,7025,WL,A,12.0
4,14.26200008392334,learn,45737.99991607666,Fri Oct 11 2024 16:30:44 GMT-0500 (Central Daylight Time),473429.8999999985,A,lo,O,o,175,1,416.29999999701977,473013.6000000015,7025,WL,A,12.0
4,14.42900013923645,learn,45570.99986076355,Fri Oct 11 2024 16:30:44 GMT-0500 (Central Daylight Time),473596.3999999985,A,log,O,g,159,1,582.7999999970198,473013.6000000015,7025,WL,A,12.0
4,14.612000226974487,learn,45387.99977302551,Fri Oct 11 2024 16:30:44 GMT-0500 (Central Daylight Time),473779.799999997,A,logenter,O,enter,177,1,766.1999999955297,473013.6000000015,7025,WL,A,12.0
4,15.080000162124634,learn,44919.999837875366,Fri Oct 11 2024 16:30:44 GMT-0500 (Central Daylight Time),474247.299999997,A,k,O,k,458,1,467.19999999552965,473780.1000000015,7025,WL,A,13.0
4,15.212000131607056,learn,44787.999868392944,Fri Oct 11 2024 16:30:44 GMT-0500 (Central Daylight Time),474379.6000000015,A,ke,O,e,118,1,599.5,473780.1000000015,7025,WL,A,13.0
4,15.34500002861023,learn,44654.99997138977,Fri Oct 11 2024 16:30:44 GMT-0500 (Central Daylight Time),474513.0,A,key,O,y,114,1,732.8999999985099,473780.1000000015,7025,WL,A,13.0
4,15.84500002861023,learn,44154.99997138977,Fri Oct 11 2024 16:30:44 GMT-0500 (Central Daylight Time),475012.6000000015,A,keyenter,O,enter,485,1,1232.5,473780.1000000015,7025,WL,A,13.0
4,16.09500002861023,learn,43904.99997138977,Fri Oct 11 2024 16:30:44 GMT-0500 (Central Daylight Time),475262.69999999553,A,r,O,r,241,1,249.69999999552965,475013.0,7025,WL,A,14.0
4,16.229000091552734,learn,43770.999908447266,Fri Oct 11 2024 16:30:44 GMT-0500 (Central Daylight Time),475396.8999999985,A,ra,O,a,127,1,383.8999999985099,475013.0,7025,WL,A,14.0
4,16.361000061035156,learn,43638.999938964844,Fri Oct 11 2024 16:30:44 GMT-0500 (Central Daylight Time),475529.1000000015,A,rat,O,t,121,1,516.1000000014901,475013.0,7025,WL,A,14.0
4,16.478000164031982,learn,43521.99983596802,Fri Oct 11 2024 16:30:44 GMT-0500 (Central Daylight Time),475645.69999999553,A,ratt,O,t,101,1,632.6999999955297,475013.0,7025,WL,A,14.0
4,16.59600019454956,learn,43403.99980545044,Fri Oct 11 2024 16:30:44 GMT-0500 (Central Daylight Time),475763.5,A,rattl,O,l,112,1,750.5,475013.0,7025,WL,A,14.0
4,16.711000204086304,learn,43288.999795913696,Fri Oct 11 2024 16:30:44 GMT-0500 (Central Daylight Time),475879.0,A,rattle,O,e,98,1,866.0,475013.0,7025,WL,A,14.0
4,16.82800006866455,learn,43171.99993133545,Fri Oct 11 2024 16:30:44 GMT-0500 (Central Daylight Time),475995.799999997,A,rattleenter,O,enter,111,1,982.7999999970198,475013.0,7025,WL,A,14.0
4,17.07800006866455,learn,42921.99993133545,Fri Oct 11 2024 16:30:44 GMT-0500 (Central Daylight Time),476245.5,A,g,O,g,234,1,249.39999999850988,475996.1000000015,7025,WL,A,15.0
4,17.127000093460083,learn,42872.99990653992,Fri Oct 11 2024 16:30:44 GMT-0500 (Central Daylight Time),476295.19999999553,A,go,O,o,40,1,299.09999999403954,475996.1000000015,7025,WL,A,15.0
4,17.295000076293945,learn,42704.999923706055,Fri Oct 11 2024 16:30:44 GMT-0500 (Central Daylight Time),476462.299999997,A,gol,O,l,151,1,466.19999999552965,475996.1000000015,7025,WL,A,15.0
4,17.41100001335144,learn,42588.99998664856,Fri Oct 11 2024 16:30:44 GMT-0500 (Central Daylight Time),476578.5,A,gold,O,d,111,1,582.3999999985099,475996.1000000015,7025,WL,A,15.0
4,17.629000186920166,learn,42370.999813079834,Fri Oct 11 2024 16:30:44 GMT-0500 (Central Daylight Time),476796.5,A,goldenter,O,enter,211,1,800.3999999985099,475996.1000000015,7025,WL,A,15.0
5,0.5509998798370361,learn,60000.0,Fri Oct 11 2024 16:30:44 GMT-0500 (Central Daylight Time),543475.799999997,A,b,O,b,546,1,551.0,542924.799999997,7025,WL,A,1.0
5,0.748999834060669,learn,60000.0,Fri Oct 11 2024 16:30:44 GMT-0500 (Central Daylight Time),543674.299999997,A,bo,O,o,193,1,749.5,542924.799999997,7025,WL,A,1.0
5,0.8829998970031738,learn,60000.0,Fri Oct 11 2024 16:30:44 GMT-0500 (Central Daylight Time),543807.6999999955,A,boo,O,o,115,1,882.8999999985099,542924.799999997,7025,WL,A,1.0
5,0.998999834060669,learn,60000.0,Fri Oct 11 2024 16:30:44 GMT-0500 (Central Daylight Time),543924.3999999985,A,book,O,k,102,1,999.6000000014901,542924.799999997,7025,WL,A,1.0
5,1.248999834060669,learn,60000.0,Fri Oct 11 2024 16:30:44 GMT-0500 (Central Daylight Time),544174.3999999985,A,bookenter,O,enter,233,1,1249.6000000014901,542924.799999997,7025,WL,A,1.0
5,1.5159997940063477,learn,60000.0,Fri Oct 11 2024 16:30:44 GMT-0500 (Central Daylight Time),544440.799999997,A,f,O,f,255,1,266.0,544174.799999997,7025,WL,A,2.0
5,1.5820000171661377,learn,60000.0,Fri Oct 11 2024 16:30:44 GMT-0500 (Central Daylight Time),544507.5,A,fl,O,l,52,1,332.70000000298023,544174.799999997,7025,WL,A,2.0
5,1.748999834060669,learn,60000.0,Fri Oct 11 2024 16:30:44 GMT-0500 (Central Daylight Time),544674.1999999955,A,flo,O,o,162,1,499.3999999985099,544174.799999997,7025,WL,A,2.0
5,1.8659999370574951,learn,60000.0,Fri Oct 11 2024 16:30:44 GMT-0500 (Central Daylight Time),544790.8999999985,A,flow,O,w,99,1,616.1000000014901,544174.799999997,7025,WL,A,2.0
5,1.9489998817443848,learn,60000.0,Fri Oct 11 2024 16:30:44 GMT-0500 (Central Daylight Time),544873.8999999985,A,flowe,O,e,70,1,699.1000000014901,544174.799999997,7025,WL,A,2.0
5,2.0159997940063477,learn,60000.0,Fri Oct 11 2024 16:30:44 GMT-0500 (Central Daylight Time),544940.799999997,A,flower,O,r,60,1,766.0,544174.799999997,7025,WL,A,2.0
5,2.248999834060669,learn,60000.0,Fri Oct 11 2024 16:30:44 GMT-0500 (Central Daylight Time),545173.8999999985,A,flowerenter,O,enter,225,1,999.1000000014901,544174.799999997,7025,WL,A,2.0
5,2.6489999294281006,learn,60000.0,Fri Oct 11 2024 16:30:44 GMT-0500 (Central Daylight Time),545573.8999999985,A,t,O,t,384,1,399.6000000014901,545174.299999997,7025,WL,A,3.0
5,2.7829999923706055,learn,60000.0,Fri Oct 11 2024 16:30:44 GMT-0500 (Central Daylight Time),545708.299999997,A,tr,O,r,119,1,534.0,545174.299999997,7025,WL,A,3.0
5,2.881999969482422,learn,60000.0,Fri Oct 11 2024 16:30:44 GMT-0500 (Central Daylight Time),545807.1000000015,A,tra,O,a,89,1,632.8000000044703,545174.299999997,7025,WL,A,3.0
5,3.0319998264312744,learn,60000.0,Fri Oct 11 2024 16:30:44 GMT-0500 (Central Daylight Time),545957.299999997,A,trai,O,i,143,1,783.0,545174.299999997,7025,WL,A,3.0
5,3.0989999771118164,learn,60000.0,Fri Oct 11 2024 16:30:44 GMT-0500 (Central Daylight Time),546023.799999997,A,train,O,n,48,1,849.5,545174.299999997,7025,WL,A,3.0
5,3.2149999141693115,learn,60000.0,Fri Oct 11 2024 16:30:44 GMT-0500 (Central Daylight Time),546140.299999997,A,trainenter,O,enter,110,1,966.0,545174.299999997,7025,WL,A,3.0
5,3.4819998741149902,learn,60000.0,Fri Oct 11 2024 16:30:44 GMT-0500 (Central Daylight Time),546406.799999997,A,r,O,r,249,1,266.1000000014901,546140.6999999955,7025,WL,A,4.0
5,3.5979998111724854,learn,60000.0,Fri Oct 11 2024 16:30:44 GMT-0500 (Central Daylight Time),546523.3999999985,A,ru,O,u,103,1,382.70000000298023,546140.6999999955,7025,WL,A,4.0
5,3.7819998264312744,learn,60000.0,Fri Oct 11 2024 16:30:44 GMT-0500 (Central Daylight Time),546706.799999997,A,rug,O,g,170,1,566.1000000014901,546140.6999999955,7025,WL,A,4.0
5,4.082000017166138,learn,60000.0,Fri Oct 11 2024 16:30:44 GMT-0500 (Central Daylight Time),547006.799999997,A,rugenter,O,enter,283,1,866.1000000014901,546140.6999999955,7025,WL,A,4.0
5,4.297999858856201,learn,60000.0,Fri Oct 11 2024 16:30:44 GMT-0500 (Central Daylight Time),547223.1999999955,A,m,O,m,207,1,215.69999999552965,547007.5,7025,WL,A,5.0
5,4.447999954223633,learn,60000.0,Fri Oct 11 2024 16:30:44 GMT-0500 (Central Daylight Time),547373.5,A,me,O,e,142,1,366.0,547007.5,7025,WL,A,5.0
5,4.514999866485596,learn,60000.0,Fri Oct 11 2024 16:30:44 GMT-0500 (Central Daylight Time),547440.0,A,mea,O,a,56,1,432.5,547007.5,7025,WL,A,5.0
5,4.697999954223633,learn,60000.0,Fri Oct 11 2024 16:30:44 GMT-0500 (Central Daylight Time),547623.1999999955,A,mead,O,d,173,1,615.6999999955297,547007.5,7025,WL,A,5.0
5,4.830999851226807,learn,60000.0,Fri Oct 11 2024 16:30:44 GMT-0500 (Central Daylight Time),547756.299999997,A,meado,O,o,118,1,748.7999999970198,547007.5,7025,WL,A,5.0
5,4.9649999141693115,learn,60000.0,Fri Oct 11 2024 16:30:44 GMT-0500 (Central Daylight Time),547890.0,A,meadow,O,w,121,1,882.5,547007.5,7025,WL,A,5.0
5,5.164999961853027,learn,60000.0,Fri Oct 11 2024 16:30:44 GMT-0500 (Central Daylight Time),548089.8999999985,A,meadowenter,O,enter,180,1,1082.3999999985099,547007.5,7025,WL,A,5.0
5,5.414999961853027,learn,60000.0,Fri Oct 11 2024 16:30:44 GMT-0500 (Central Daylight Time),548339.6000000015,A,h,O,h,236,1,249.40000000596046,548090.1999999955,7025,WL,A,6.0
5,5.514999866485596,learn,60000.0,Fri Oct 11 2024 16:30:44 GMT-0500 (Central Daylight Time),548439.6999999955,A,ha,O,a,82,1,349.5,548090.1999999955,7025,WL,A,6.0
5,5.615000009536743,learn,60000.0,Fri Oct 11 2024 16:30:44 GMT-0500 (Central Daylight Time),548539.6000000015,A,har,O,r,86,1,449.40000000596046,548090.1999999955,7025,WL,A,6.0
5,5.797999858856201,learn,60000.0,Fri Oct 11 2024 16:30:44 GMT-0500 (Central Daylight Time),548723.0,A,harp,O,p,170,1,632.8000000044703,548090.1999999955,7025,WL,A,6.0
5,6.330999851226807,learn,60000.0,Fri Oct 11 2024 16:30:44 GMT-0500 (Central Daylight Time),549256.0,A,harps,O,s,515,1,1165.8000000044703,548090.1999999955,7025,WL,A,6.0
5,6.430999994277954,learn,60000.0,Fri Oct 11 2024 16:30:44 GMT-0500 (Central Daylight Time),549355.8999999985,A,harpsa,O,a,86,1,1265.7000000029802,548090.1999999955,7025,WL,A,6.0
5,6.580999851226807,learn,60000.0,Fri Oct 11 2024 16:30:44 GMT-0500 (Central Daylight Time),549506.1000000015,A,harpsal,O,l,146,1,1415.9000000059605,548090.1999999955,7025,WL,A,6.0
5,6.997999906539917,learn,60000.0,Fri Oct 11 2024 16:30:44 GMT-0500 (Central Daylight Time),549922.6000000015,A,harpsa,O,backspace,396,1,1832.4000000059605,548090.1999999955,7025,WL,A,6.0
5,7.096999883651733,learn,60000.0,Fri Oct 11 2024 16:30:44 GMT-0500 (Central Daylight Time),550022.5,A,harps,O,backspace,91,1,1932.3000000044703,548090.1999999955,7025,WL,A,6.0
5,7.246999979019165,learn,60000.0,Fri Oct 11 2024 16:30:44 GMT-0500 (Central Daylight Time),550172.5,A,harp,O,backspace,135,1,2082.3000000044703,548090.1999999955,7025,WL,A,6.0
5,7.696999788284302,learn,60000.0,Fri Oct 11 2024 16:30:44 GMT-0500 (Central Daylight Time),550622.1999999955,A,harpenter,O,enter,441,1,2532.0,548090.1999999955,7025,WL,A,6.0
5,7.946999788284302,learn,60000.0,Fri Oct 11 2024 16:30:44 GMT-0500 (Central Daylight Time),550872.299999997,A,s,O,s,239,1,249.79999999701977,550622.5,7025,WL,A,7.0
5,8.063999891281128,learn,60000.0,Fri Oct 11 2024 16:30:44 GMT-0500 (Central Daylight Time),550988.8999999985,A,sa,O,a,110,1,366.3999999985099,550622.5,7025,WL,A,7.0
5,8.146999835968018,learn,60000.0,Fri Oct 11 2024 16:30:44 GMT-0500 (Central Daylight Time),551072.1000000015,A,sal,O,l,73,1,449.6000000014901,550622.5,7025,WL,A,7.0
5,8.329999923706055,learn,60000.0,Fri Oct 11 2024 16:30:44 GMT-0500 (Central Daylight Time),551255.3999999985,A,salt,O,t,166,1,632.8999999985099,550622.5,7025,WL,A,7.0
5,8.613999843597412,learn,60000.0,Fri Oct 11 2024 16:30:44 GMT-0500 (Central Daylight Time),551538.5,A,saltenter,O,enter,278,1,916.0,550622.5,7025,WL,A,7.0
5,9.412999868392944,learn,60000.0,Fri Oct 11 2024 16:30:44 GMT-0500 (Central Daylight Time),552338.3999999985,A,f,O,f,795,1,799.7000000029802,551538.6999999955,7025,WL,A,8.0
5,9.513000011444092,learn,60000.0,Fri Oct 11 2024 16:30:44 GMT-0500 (Central Daylight Time),552438.3999999985,A,fi,O,i,91,1,899.7000000029802,551538.6999999955,7025,WL,A,8.0
5,9.579999923706055,learn,60000.0,Fri Oct 11 2024 16:30:44 GMT-0500 (Central Daylight Time),552505.1000000015,A,fin,O,n,55,1,966.4000000059605,551538.6999999955,7025,WL,A,8.0
5,9.662999868392944,learn,60000.0,Fri Oct 11 2024 16:30:44 GMT-0500 (Central Daylight Time),552588.3999999985,A,fing,O,g,77,1,1049.7000000029802,551538.6999999955,7025,WL,A,8.0
5,9.829999923706055,learn,60000.0,Fri Oct 11 2024 16:30:44 GMT-0500 (Central Daylight Time),552754.8999999985,A,finge,O,e,153,1,1216.2000000029802,551538.6999999955,7025,WL,A,8.0
5,10.129999876022339,learn,60000.0,Fri Oct 11 2024 16:30:44 GMT-0500 (Central Daylight Time),553054.799999997,A,fingeenter,O,enter,282,1,1516.1000000014901,551538.6999999955,7025,WL,A,8.0
5,11.063999891281128,learn,60000.0,Fri Oct 11 2024 16:30:44 GMT-0500 (Central Daylight Time),553989.1000000015,A,a,O,a,927,1,933.9000000059605,553055.1999999955,7025,WL,A,9.0
5,11.162999868392944,learn,60000.0,Fri Oct 11 2024 16:30:44 GMT-0500 (Central Daylight Time),554087.6999999955,A,ap,O,p,80,1,1032.5,553055.1999999955,7025,WL,A,9.0
5,11.296000003814697,learn,60000.0,Fri Oct 11 2024 16:30:44 GMT-0500 (Central Daylight Time),554221.1000000015,A,app,O,p,126,1,1165.9000000059605,553055.1999999955,7025,WL,A,9.0
5,11.478999853134155,learn,60000.0,Fri Oct 11 2024 16:30:44 GMT-0500 (Central Daylight Time),554404.299999997,A,appl,O,l,177,1,1349.1000000014901,553055.1999999955,7025,WL,A,9.0
5,11.662999868392944,learn,60000.0,Fri Oct 11 2024 16:30:44 GMT-0500 (Central Daylight Time),554587.799999997,A,apple,O,e,169,1,1532.6000000014901,553055.1999999955,7025,WL,A,9.0
5,11.912999868392944,learn,60000.0,Fri Oct 11 2024 16:30:44 GMT-0500 (Central Daylight Time),554837.6999999955,A,appleenter,O,enter,234,1,1782.5,553055.1999999955,7025,WL,A,9.0
5,12.378999948501587,learn,60000.0,Fri Oct 11 2024 16:30:44 GMT-0500 (Central Daylight Time),555304.1000000015,A,c,O,c,448,1,466.1000000014901,554838.0,7025,WL,A,10.0
5,12.428999900817871,learn,60000.0,Fri Oct 11 2024 16:30:44 GMT-0500 (Central Daylight Time),555354.1000000015,A,ch,O,h,45,1,516.1000000014901,554838.0,7025,WL,A,10.0
5,12.595999956130981,learn,60000.0,Fri Oct 11 2024 16:30:44 GMT-0500 (Central Daylight Time),555520.6999999955,A,chi,O,i,148,1,682.6999999955297,554838.0,7025,WL,A,10.0
5,12.728999853134155,learn,60000.0,Fri Oct 11 2024 16:30:44 GMT-0500 (Central Daylight Time),555654.1999999955,A,chim,O,m,125,1,816.1999999955297,554838.0,7025,WL,A,10.0
5,12.894999980926514,learn,60000.0,Fri Oct 11 2024 16:30:44 GMT-0500 (Central Daylight Time),555820.5,A,chimn,O,n,159,1,982.5,554838.0,7025,WL,A,10.0
5,12.995999813079834,learn,60000.0,Fri Oct 11 2024 16:30:44 GMT-0500 (Central Daylight Time),555920.6999999955,A,chimne,O,e,89,1,1082.6999999955297,554838.0,7025,WL,A,10.0
5,13.128999948501587,learn,60000.0,Fri Oct 11 2024 16:30:44 GMT-0500 (Central Daylight Time),556054.0,A,chimney,O,y,117,1,1216.0,554838.0,7025,WL,A,10.0
5,13.794999837875366,learn,60000.0,Fri Oct 11 2024 16:30:44 GMT-0500 (Central Daylight Time),556720.299999997,A,chimneyenter,O,enter,648,1,1882.2999999970198,554838.0,7025,WL,A,10.0
5,14.078999996185303,learn,60000.0,Fri Oct 11 2024 16:30:44 GMT-0500 (Central Daylight Time),557003.6999999955,A,b,O,b,269,1,283.0,556720.6999999955,7025,WL,A,11.0
5,14.194999933242798,learn,60000.0,Fri Oct 11 2024 16:30:44 GMT-0500 (Central Daylight Time),557120.3999999985,A,bu,O,u,106,1,399.70000000298023,556720.6999999955,7025,WL,A,11.0
5,14.328999996185303,learn,60000.0,Fri Oct 11 2024 16:30:44 GMT-0500 (Central Daylight Time),557253.5,A,but,O,t,117,1,532.8000000044703,556720.6999999955,7025,WL,A,11.0
5,14.444999933242798,learn,60000.0,Fri Oct 11 2024 16:30:44 GMT-0500 (Central Daylight Time),557369.8999999985,A,butt,O,t,112,1,649.2000000029802,556720.6999999955,7025,WL,A,11.0
5,14.544999837875366,learn,60000.0,Fri Oct 11 2024 16:30:44 GMT-0500 (Central Daylight Time),557469.8999999985,A,butto,O,o,92,1,749.2000000029802,556720.6999999955,7025,WL,A,11.0
5,14.694999933242798,learn,60000.0,Fri Oct 11 2024 16:30:44 GMT-0500 (Central Daylight Time),557620.1000000015,A,button,O,n,144,1,899.4000000059605,556720.6999999955,7025,WL,A,11.0
5,15.01199984550476,learn,60000.0,Fri Oct 11 2024 16:30:44 GMT-0500 (Central Daylight Time),557936.6000000015,A,buttonenter,O,enter,306,1,1215.9000000059605,556720.6999999955,7025,WL,A,11.0
5,15.26199984550476,learn,60000.0,Fri Oct 11 2024 16:30:44 GMT-0500 (Central Daylight Time),558186.6000000015,A,l,O,l,237,1,249.60000000149012,557937.0,7025,WL,A,12.0
5,15.444999933242798,learn,60000.0,Fri Oct 11 2024 16:30:44 GMT-0500 (Central Daylight Time),558369.6999999955,A,lo,O,o,163,1,432.69999999552965,557937.0,7025,WL,A,12.0
5,15.59499979019165,learn,60000.0,Fri Oct 11 2024 16:30:44 GMT-0500 (Central Daylight Time),558519.8999999985,A,log,O,g,140,1,582.8999999985099,557937.0,7025,WL,A,12.0
5,16.027999877929688,learn,60000.0,Fri Oct 11 2024 16:30:44 GMT-0500 (Central Daylight Time),558953.0,A,logenter,O,enter,414,1,1016.0,557937.0,7025,WL,A,12.0
5,17.32799983024597,learn,60000.0,Fri Oct 11 2024 16:30:44 GMT-0500 (Central Daylight Time),560252.6000000015,A,k,O,k,1285,1,1299.2000000029802,558953.3999999985,7025,WL,A,13.0
5,17.47699999809265,learn,60000.0,Fri Oct 11 2024 16:30:44 GMT-0500 (Central Daylight Time),560402.299999997,A,ke,O,e,145,1,1448.8999999985099,558953.3999999985,7025,WL,A,13.0
5,17.610999822616577,learn,60000.0,Fri Oct 11 2024 16:30:44 GMT-0500 (Central Daylight Time),560535.8999999985,A,key,O,y,124,1,1582.5,558953.3999999985,7025,WL,A,13.0
5,17.926999807357788,learn,60000.0,Fri Oct 11 2024 16:30:44 GMT-0500 (Central Daylight Time),560852.299999997,A,keyenter,O,enter,301,1,1898.8999999985099,558953.3999999985,7025,WL,A,13.0
5,18.126999855041504,learn,60000.0,Fri Oct 11 2024 16:30:44 GMT-0500 (Central Daylight Time),561052.299999997,A,r,O,r,185,1,199.60000000149012,560852.6999999955,7025,WL,A,14.0
5,18.24399995803833,learn,60000.0,Fri Oct 11 2024 16:30:44 GMT-0500 (Central Daylight Time),561168.8999999985,A,ra,O,a,97,1,316.20000000298023,560852.6999999955,7025,WL,A,14.0
5,18.376999855041504,learn,60000.0,Fri Oct 11 2024 16:30:44 GMT-0500 (Central Daylight Time),561302.1999999955,A,rat,O,t,117,1,449.5,560852.6999999955,7025,WL,A,14.0
5,18.860999822616577,learn,60000.0,Fri Oct 11 2024 16:30:44 GMT-0500 (Central Daylight Time),561785.5,A,ratt,O,t,463,1,932.8000000044703,560852.6999999955,7025,WL,A,14.0
5,18.99399995803833,learn,60000.0,Fri Oct 11 2024 16:30:44 GMT-0500 (Central Daylight Time),561918.799999997,A,rattl,O,l,116,1,1066.1000000014901,560852.6999999955,7025,WL,A,14.0
5,19.109999895095825,learn,60000.0,Fri Oct 11 2024 16:30:44 GMT-0500 (Central Daylight Time),562035.299999997,A,rattle,O,e,111,1,1182.6000000014901,560852.6999999955,7025,WL,A,14.0
5,19.22699999809265,learn,60000.0,Fri Oct 11 2024 16:30:44 GMT-0500 (Central Daylight Time),562151.8999999985,A,rattleenter,O,enter,107,1,1299.2000000029802,560852.6999999955,7025,WL,A,14.0
5,19.509999990463257,learn,60000.0,Fri Oct 11 2024 16:30:44 GMT-0500 (Central Daylight Time),562435.1999999955,A,g,O,g,270,1,282.8999999985099,562152.299999997,7025,WL,A,15.0
5,19.626999855041504,learn,60000.0,Fri Oct 11 2024 16:30:44 GMT-0500 (Central Daylight Time),562551.6999999955,A,go,O,o,98,1,399.3999999985099,562152.299999997,7025,WL,A,15.0
5,19.776999950408936,learn,60000.0,Fri Oct 11 2024 16:30:44 GMT-0500 (Central Daylight Time),562701.799999997,A,gol,O,l,142,1,549.5,562152.299999997,7025,WL,A,15.0
5,19.89299988746643,learn,60000.0,Fri Oct 11 2024 16:30:44 GMT-0500 (Central Daylight Time),562818.299999997,A,gold,O,d,112,1,666.0,562152.299999997,7025,WL,A,15.0
5,20.126999855041504,learn,60000.0,Fri Oct 11 2024 16:30:44 GMT-0500 (Central Daylight Time),563051.6999999955,A,goldenter,O,enter,227,1,899.3999999985099,562152.299999997,7025,WL,A,15.0
6,0.432999849319458,distr,59567.00015068054,Fri Oct 11 2024 16:30:44 GMT-0500 (Central Daylight Time),639727.799999997,B,p,O,p,416,1,433.29999999701977,639294.5,7025,WL,A,1.0
6,0.5499999523162842,distr,59450.000047683716,Fri Oct 11 2024 16:30:44 GMT-0500 (Central Daylight Time),639844.5,B,pe,O,e,102,1,550.0,639294.5,7025,WL,A,1.0
6,0.5999999046325684,distr,59400.00009536743,Fri Oct 11 2024 16:30:44 GMT-0500 (Central Daylight Time),639894.1999999955,B,pea,O,a,33,1,599.6999999955297,639294.5,7025,WL,A,1.0
6,0.7999999523162842,distr,59200.000047683716,Fri Oct 11 2024 16:30:44 GMT-0500 (Central Daylight Time),640094.1999999955,B,peac,O,c,183,1,799.6999999955297,639294.5,7025,WL,A,1.0
6,0.8999998569488525,distr,59100.00014305115,Fri Oct 11 2024 16:30:44 GMT-0500 (Central Daylight Time),640194.299999997,B,peach,O,h,79,1,899.7999999970198,639294.5,7025,WL,A,1.0
6,1.116999864578247,distr,58883.00013542175,Fri Oct 11 2024 16:30:44 GMT-0500 (Central Daylight Time),640411.8999999985,B,peachenter,O,enter,211,1,1117.3999999985099,639294.5,7025,WL,A,1.0
6,1.432999849319458,distr,58567.00015068054,Fri Oct 11 2024 16:30:44 GMT-0500 (Central Daylight Time),640727.299999997,B,c,O,c,306,1,315.19999999552965,640412.1000000015,7025,WL,A,2.0
6,1.5160000324249268,distr,58483.99996757507,Fri Oct 11 2024 16:30:44 GMT-0500 (Central Daylight Time),640810.6000000015,B,ch,O,h,62,1,398.5,640412.1000000015,7025,WL,A,2.0
6,1.682999849319458,distr,58317.00015068054,Fri Oct 11 2024 16:30:44 GMT-0500 (Central Daylight Time),640977.299999997,B,cha,O,a,147,1,565.1999999955297,640412.1000000015,7025,WL,A,2.0
6,1.7829999923706055,distr,58217.000007629395,Fri Oct 11 2024 16:30:44 GMT-0500 (Central Daylight Time),641077.1999999955,B,chai,O,i,92,1,665.0999999940395,640412.1000000015,7025,WL,A,2.0
6,1.932999849319458,distr,58067.00015068054,Fri Oct 11 2024 16:30:44 GMT-0500 (Central Daylight Time),641227.1999999955,B,chair,O,r,144,1,815.0999999940395,640412.1000000015,7025,WL,A,2.0
6,2.0829999446868896,distr,57917.00005531311,Fri Oct 11 2024 16:30:44 GMT-0500 (Central Daylight Time),641377.1999999955,B,chairenter,O,enter,138,1,965.0999999940395,640412.1000000015,7025,WL,A,2.0
6,2.4159998893737793,distr,57584.00011062622,Fri Oct 11 2024 16:30:44 GMT-0500 (Central Daylight Time),641710.3999999985,B,g,O,g,316,1,332.79999999701977,641377.6000000015,7025,WL,A,3.0
6,2.615999937057495,distr,57384.000062942505,Fri Oct 11 2024 16:30:44 GMT-0500 (Central Daylight Time),641910.299999997,B,gr,O,r,183,1,532.6999999955297,641377.6000000015,7025,WL,A,3.0
6,2.6989998817443848,distr,57301.000118255615,Fri Oct 11 2024 16:30:44 GMT-0500 (Central Daylight Time),641993.6999999955,B,gra,O,a,71,1,616.0999999940395,641377.6000000015,7025,WL,A,3.0
6,2.8329999446868896,distr,57167.00005531311,Fri Oct 11 2024 16:30:44 GMT-0500 (Central Daylight Time),642127.0,B,gran,O,n,116,1,749.3999999985099,641377.6000000015,7025,WL,A,3.0
6,2.9659998416900635,distr,57034.00015830994,Fri Oct 11 2024 16:30:44 GMT-0500 (Central Daylight Time),642260.299999997,B,grant,O,t,127,1,882.6999999955297,641377.6000000015,7025,WL,A,3.0
6,3.1659998893737793,distr,56834.00011062622,Fri Oct 11 2024 16:30:44 GMT-0500 (Central Daylight Time),642460.299999997,B,grantenter,O,enter,185,1,1082.6999999955297,641377.6000000015,7025,WL,A,3.0
6,3.4659998416900635,distr,56534.00015830994,Fri Oct 11 2024 16:30:44 GMT-0500 (Central Daylight Time),642760.1999999955,B,s,O,s,282,1,299.59999999403954,642460.6000000015,7025,WL,A,4.0
6,3.5989999771118164,distr,56401.00002288818,Fri Oct 11 2024 16:30:44 GMT-0500 (Central Daylight Time),642893.3999999985,B,sh,O,h,117,1,432.79999999701977,642460.6000000015,7025,WL,A,4.0
6,4.381999969482422,distr,55618.00003051758,Fri Oct 11 2024 16:30:44 GMT-0500 (Central Daylight Time),643676.5,B,she,O,e,768,1,1215.8999999985099,642460.6000000015,7025,WL,A,4.0
6,4.648999929428101,distr,55351.0000705719,Fri Oct 11 2024 16:30:44 GMT-0500 (Central Daylight Time),643943.1000000015,B,shee,O,e,249,1,1482.5,642460.6000000015,7025,WL,A,4.0
6,4.799000024795532,distr,55200.99997520447,Fri Oct 11 2024 16:30:44 GMT-0500 (Central Daylight Time),644093.0,B,sheep,O,p,142,1,1632.3999999985099,642460.6000000015,7025,WL,A,4.0
6,5.3480000495910645,distr,54651.999950408936,Fri Oct 11 2024 16:30:44 GMT-0500 (Central Daylight Time),644642.799999997,B,sheepenter,O,enter,537,1,2182.1999999955297,642460.6000000015,7025,WL,A,4.0
6,5.664999961853027,distr,54335.00003814697,Fri Oct 11 2024 16:30:44 GMT-0500 (Central Daylight Time),644959.299999997,B,s,O,s,307,1,316.1000000014901,644643.1999999955,7025,WL,A,5.0
6,5.797999858856201,distr,54202.0001411438,Fri Oct 11 2024 16:30:44 GMT-0500 (Central Daylight Time),645092.799999997,B,se,O,e,118,1,449.6000000014901,644643.1999999955,7025,WL,A,5.0
6,5.932999849319458,distr,54067.00015068054,Fri Oct 11 2024 16:30:44 GMT-0500 (Central Daylight Time),645227.1000000015,B,see,O,e,121,1,583.9000000059605,644643.1999999955,7025,WL,A,5.0
6,6.131999969482422,distr,53868.00003051758,Fri Oct 11 2024 16:30:44 GMT-0500 (Central Daylight Time),645426.1000000015,B,seed,O,d,187,1,782.9000000059605,644643.1999999955,7025,WL,A,5.0
6,6.2809998989105225,distr,53719.00010108948,Fri Oct 11 2024 16:30:44 GMT-0500 (Central Daylight Time),645575.799999997,B,seedenter,O,enter,140,1,932.6000000014901,644643.1999999955,7025,WL,A,5.0
6,6.4649999141693115,distr,53535.00008583069,Fri Oct 11 2024 16:30:44 GMT-0500 (Central Daylight Time),645759.0,B,b,O,b,166,1,182.80000000447035,645576.1999999955,7025,WL,A,6.0
6,6.580999851226807,distr,53419.00014877319,Fri Oct 11 2024 16:30:44 GMT-0500 (Central Daylight Time),645875.799999997,B,bo,O,o,111,1,299.6000000014901,645576.1999999955,7025,WL,A,6.0
6,6.7149999141693115,distr,53285.00008583069,Fri Oct 11 2024 16:30:44 GMT-0500 (Central Daylight Time),646009.299999997,B,bow,O,w,122,1,433.1000000014901,645576.1999999955,7025,WL,A,6.0
6,7.115000009536743,distr,52884.99999046326,Fri Oct 11 2024 16:30:44 GMT-0500 (Central Daylight Time),646409.0,B,bowl,O,l,380,1,832.8000000044703,645576.1999999955,7025,WL,A,6.0
6,7.313999891281128,distr,52686.00010871887,Fri Oct 11 2024 16:30:44 GMT-0500 (Central Daylight Time),646608.8999999985,B,bowlenter,O,enter,189,1,1032.7000000029802,645576.1999999955,7025,WL,A,6.0
6,7.580999851226807,distr,52419.00014877319,Fri Oct 11 2024 16:30:44 GMT-0500 (Central Daylight Time),646875.5,B,d,O,d,261,1,266.30000000447035,646609.1999999955,7025,WL,A,7.0
6,7.746999979019165,distr,52253.000020980835,Fri Oct 11 2024 16:30:44 GMT-0500 (Central Daylight Time),647041.8999999985,B,da,O,a,146,1,432.70000000298023,646609.1999999955,7025,WL,A,7.0
6,7.863999843597412,distr,52136.00015640259,Fri Oct 11 2024 16:30:44 GMT-0500 (Central Daylight Time),647158.6000000015,B,daw,O,w,108,1,549.4000000059605,646609.1999999955,7025,WL,A,7.0
6,8.098000049591064,distr,51901.999950408936,Fri Oct 11 2024 16:30:44 GMT-0500 (Central Daylight Time),647392.5,B,dawn,O,n,223,1,783.3000000044703,646609.1999999955,7025,WL,A,7.0
6,8.396999835968018,distr,51603.00016403198,Fri Oct 11 2024 16:30:44 GMT-0500 (Central Daylight Time),647691.799999997,B,dawnenter,O,enter,285,1,1082.6000000014901,646609.1999999955,7025,WL,A,7.0
6,8.680999994277954,distr,51319.000005722046,Fri Oct 11 2024 16:30:44 GMT-0500 (Central Daylight Time),647975.0,B,p,O,p,274,1,282.8999999985099,647692.1000000015,7025,WL,A,8.0
6,8.846999883651733,distr,51153.00011634827,Fri Oct 11 2024 16:30:44 GMT-0500 (Central Daylight Time),648141.799999997,B,pl,O,l,159,1,449.69999999552965,647692.1000000015,7025,WL,A,8.0
6,8.929999828338623,distr,51070.00017166138,Fri Oct 11 2024 16:30:44 GMT-0500 (Central Daylight Time),648224.8999999985,B,pla,O,a,64,1,532.7999999970198,647692.1000000015,7025,WL,A,8.0
6,9.063999891281128,distr,50936.00010871887,Fri Oct 11 2024 16:30:44 GMT-0500 (Central Daylight Time),648358.299999997,B,plan,O,n,125,1,666.1999999955297,647692.1000000015,7025,WL,A,8.0
6,9.213000059127808,distr,50786.99994087219,Fri Oct 11 2024 16:30:44 GMT-0500 (Central Daylight Time),648508.299999997,B,plane,O,e,143,1,816.1999999955297,647692.1000000015,7025,WL,A,8.0
6,9.879999876022339,distr,50120.00012397766,Fri Oct 11 2024 16:30:44 GMT-0500 (Central Daylight Time),649174.799999997,B,planeenter,O,enter,649,1,1482.6999999955297,647692.1000000015,7025,WL,A,8.0
6,12.428999900817871,distr,47571.00009918213,Fri Oct 11 2024 16:30:44 GMT-0500 (Central Daylight Time),651724.0,B,c,O,c,2543,1,2548.89999999851,649175.1000000015,7025,WL,A,9.0
6,12.562999963760376,distr,47437.000036239624,Fri Oct 11 2024 16:30:44 GMT-0500 (Central Daylight Time),651857.299999997,B,co,O,o,113,1,2682.1999999955297,649175.1000000015,7025,WL,A,9.0
6,12.611999988555908,distr,47388.00001144409,Fri Oct 11 2024 16:30:44 GMT-0500 (Central Daylight Time),651907.299999997,B,cou,O,u,44,1,2732.1999999955297,649175.1000000015,7025,WL,A,9.0
6,12.79699993133545,distr,47203.00006866455,Fri Oct 11 2024 16:30:44 GMT-0500 (Central Daylight Time),652091.6999999955,B,coun,O,n,171,1,2916.5999999940395,649175.1000000015,7025,WL,A,9.0
6,12.894999980926514,distr,47105.000019073486,Fri Oct 11 2024 16:30:44 GMT-0500 (Central Daylight Time),652190.299999997,B,count,O,t,82,1,3015.1999999955297,649175.1000000015,7025,WL,A,9.0
6,13.078999996185303,distr,46921.0000038147,Fri Oct 11 2024 16:30:44 GMT-0500 (Central Daylight Time),652373.6999999955,B,county,O,y,168,1,3198.5999999940395,649175.1000000015,7025,WL,A,9.0
6,13.744999885559082,distr,46255.00011444092,Fri Oct 11 2024 16:30:44 GMT-0500 (Central Daylight Time),653040.1999999955,B,countyenter,O,enter,656,1,3865.0999999940395,649175.1000000015,7025,WL,A,9.0
6,14.306999921798706,distr,45693.000078201294,Fri Oct 11 2024 16:30:44 GMT-0500 (Central Daylight Time),653601.799999997,B,e,O,e,557,1,561.2999999970198,653040.5,7025,WL,A,10.0
6,14.363999843597412,distr,45636.00015640259,Fri Oct 11 2024 16:30:44 GMT-0500 (Central Daylight Time),653659.1999999955,B,ea,O,a,35,1,618.6999999955297,653040.5,7025,WL,A,10.0
6,15.144999980926514,distr,44855.000019073486,Fri Oct 11 2024 16:30:44 GMT-0500 (Central Daylight Time),654439.6999999955,B,e,O,backspace,770,1,1399.1999999955297,653040.5,7025,WL,A,10.0
6,15.327999830245972,distr,44672.00016975403,Fri Oct 11 2024 16:30:44 GMT-0500 (Central Daylight Time),654623.1000000015,B,,O,backspace,174,1,1582.6000000014901,653040.5,7025,WL,A,10.0
6,15.544999837875366,distr,44455.000162124634,Fri Oct 11 2024 16:30:44 GMT-0500 (Central Daylight Time),654839.5,B,m,O,m,199,1,1799.0,653040.5,7025,WL,A,10.0
6,15.66100001335144,distr,44338.99998664856,Fri Oct 11 2024 16:30:44 GMT-0500 (Central Daylight Time),654956.1999999955,B,me,O,e,102,1,1915.6999999955297,653040.5,7025,WL,A,10.0
6,15.760999917984009,distr,44239.00008201599,Fri Oct 11 2024 16:30:44 GMT-0500 (Central Daylight Time),655056.1000000015,B,mea,O,a,89,1,2015.6000000014901,653040.5,7025,WL,A,10.0
6,15.895999908447266,distr,44104.000091552734,Fri Oct 11 2024 16:30:44 GMT-0500 (Central Daylight Time),655190.3999999985,B,meal,O,l,118,1,2149.89999999851,653040.5,7025,WL,A,10.0
6,16.128000020980835,distr,43871.999979019165,Fri Oct 11 2024 16:30:44 GMT-0500 (Central Daylight Time),655422.799999997,B,mealenter,O,enter,216,1,2382.2999999970198,653040.5,7025,WL,A,10.0
6,17.677000045776367,distr,42322.99995422363,Fri Oct 11 2024 16:30:44 GMT-0500 (Central Daylight Time),656972.299999997,B,j,O,j,1534,1,1549.1999999955297,655423.1000000015,7025,WL,A,11.0
6,17.8439998626709,distr,42156.0001373291,Fri Oct 11 2024 16:30:44 GMT-0500 (Central Daylight Time),657139.0,B,ju,O,u,153,1,1715.8999999985099,655423.1000000015,7025,WL,A,11.0
6,17.97699999809265,distr,42023.00000190735,Fri Oct 11 2024 16:30:44 GMT-0500 (Central Daylight Time),657272.1999999955,B,jud,O,d,114,1,1849.0999999940395,655423.1000000015,7025,WL,A,11.0
6,18.07699990272522,distr,41923.00009727478,Fri Oct 11 2024 16:30:44 GMT-0500 (Central Daylight Time),657372.1000000015,B,judg,O,g,85,1,1949.0,655423.1000000015,7025,WL,A,11.0
6,18.17799997329712,distr,41822.00002670288,Fri Oct 11 2024 16:30:44 GMT-0500 (Central Daylight Time),657472.3999999985,B,judge,O,e,81,1,2049.2999999970198,655423.1000000015,7025,WL,A,11.0
6,18.526999950408936,distr,41473.000049591064,Fri Oct 11 2024 16:30:44 GMT-0500 (Central Daylight Time),657822.0,B,judgeenter,O,enter,341,1,2398.89999999851,655423.1000000015,7025,WL,A,11.0
6,19.444000005722046,distr,40555.999994277954,Fri Oct 11 2024 16:30:44 GMT-0500 (Central Daylight Time),658738.5,B,c,O,c,911,1,915.8999999985099,657822.6000000015,7025,WL,A,12.0
6,19.55999994277954,distr,40440.00005722046,Fri Oct 11 2024 16:30:44 GMT-0500 (Central Daylight Time),658855.1000000015,B,co,O,o,107,1,1032.5,657822.6000000015,7025,WL,A,12.0
6,19.66100001335144,distr,40338.99998664856,Fri Oct 11 2024 16:30:44 GMT-0500 (Central Daylight Time),658955.799999997,B,coa,O,a,95,1,1133.1999999955297,657822.6000000015,7025,WL,A,12.0
6,19.810999870300293,distr,40189.00012969971,Fri Oct 11 2024 16:30:44 GMT-0500 (Central Daylight Time),659105.6999999955,B,coat,O,t,138,1,1283.0999999940395,657822.6000000015,7025,WL,A,12.0
6,20.109999895095825,distr,39890.000104904175,Fri Oct 11 2024 16:30:44 GMT-0500 (Central Daylight Time),659404.799999997,B,coatenter,O,enter,292,1,1582.1999999955297,657822.6000000015,7025,WL,A,12.0
6,26.72499990463257,distr,33275.00009536743,Fri Oct 11 2024 16:30:44 GMT-0500 (Central Daylight Time),666019.6000000015,B,i,O,i,6601,1,6614.5,659405.1000000015,7025,WL,A,13.0
6,26.94099998474121,distr,33059.00001525879,Fri Oct 11 2024 16:30:44 GMT-0500 (Central Daylight Time),666236.0,B,in,O,n,210,1,6830.89999999851,659405.1000000015,7025,WL,A,13.0
6,27.090999841690063,distr,32909.00015830994,Fri Oct 11 2024 16:30:44 GMT-0500 (Central Daylight Time),666386.1000000015,B,ins,O,s,146,1,6981.0,659405.1000000015,7025,WL,A,13.0
6,27.223999977111816,distr,32776.00002288818,Fri Oct 11 2024 16:30:44 GMT-0500 (Central Daylight Time),666519.299999997,B,inse,O,e,116,1,7114.19999999553,659405.1000000015,7025,WL,A,13.0
6,27.473999977111816,distr,32526.000022888184,Fri Oct 11 2024 16:30:44 GMT-0500 (Central Daylight Time),666769.1999999955,B,insec,O,c,230,1,7364.0999999940395,659405.1000000015,7025,WL,A,13.0
6,27.807999849319458,distr,32192.000150680542,Fri Oct 11 2024 16:30:44 GMT-0500 (Central Daylight Time),667102.3999999985,B,insect,O,t,316,1,7697.29999999702,659405.1000000015,7025,WL,A,13.0
6,28.29099988937378,distr,31709.00011062622,Fri Oct 11 2024 16:30:44 GMT-0500 (Central Daylight Time),667585.6999999955,B,insectenter,O,enter,463,1,8180.5999999940395,659405.1000000015,7025,WL,A,13.0
6,31.94000005722046,distr,28059.99994277954,Fri Oct 11 2024 16:30:44 GMT-0500 (Central Daylight Time),671234.6000000015,B,b,O,b,3628,1,3648.60000000149,667586.0,7025,WL,A,14.0
6,32.07299995422363,distr,27927.000045776367,Fri Oct 11 2024 16:30:44 GMT-0500 (Central Daylight Time),671367.6999999955,B,bo,O,o,115,1,3781.6999999955297,667586.0,7025,WL,A,14.0
6,32.15599989891052,distr,27844.000101089478,Fri Oct 11 2024 16:30:44 GMT-0500 (Central Daylight Time),671451.1999999955,B,bot,O,t,70,1,3865.1999999955297,667586.0,7025,WL,A,14.0
6,32.28999996185303,distr,27710.000038146973,Fri Oct 11 2024 16:30:44 GMT-0500 (Central Daylight Time),671584.3999999985,B,bott,O,t,115,1,3998.39999999851,667586.0,7025,WL,A,14.0
6,32.37299990653992,distr,27627.000093460083,Fri Oct 11 2024 16:30:44 GMT-0500 (Central Daylight Time),671667.799999997,B,bottl,O,l,77,1,4081.7999999970198,667586.0,7025,WL,A,14.0
6,32.50600004196167,distr,27493.99995803833,Fri Oct 11 2024 16:30:44 GMT-0500 (Central Daylight Time),671800.8999999985,B,bottle,O,e,122,1,4214.89999999851,667586.0,7025,WL,A,14.0
6,32.6729998588562,distr,27327.0001411438,Fri Oct 11 2024 16:30:44 GMT-0500 (Central Daylight Time),671967.6000000015,B,bottleenter,O,enter,156,1,4381.60000000149,667586.0,7025,WL,A,14.0
6,45.8199999332428,distr,14180.000066757202,Fri Oct 11 2024 16:30:44 GMT-0500 (Central Daylight Time),685114.6999999955,B,d,O,d,13134,1,13146.79999999702,671967.8999999985,7025,WL,A,15.0
6,45.96799993515015,distr,14032.000064849854,Fri Oct 11 2024 16:30:44 GMT-0500 (Central Daylight Time),685263.1999999955,B,da,O,a,138,1,13295.29999999702,671967.8999999985,7025,WL,A,15.0
6,46.151999950408936,distr,13848.000049591064,Fri Oct 11 2024 16:30:44 GMT-0500 (Central Daylight Time),685446.6999999955,B,daw,O,w,167,1,13478.79999999702,671967.8999999985,7025,WL,A,15.0
6,46.28499984741211,distr,13715.00015258789,Fri Oct 11 2024 16:30:44 GMT-0500 (Central Daylight Time),685579.799999997,B,dawn,O,n,127,1,13611.89999999851,671967.8999999985,7025,WL,A,15.0
6,46.43499994277954,distr,13565.000057220459,Fri Oct 11 2024 16:30:44 GMT-0500 (Central Daylight Time),685730.299999997,B,dawnenter,O,enter,146,1,13762.39999999851,671967.8999999985,7025,WL,A,15.0
7,6.197999954223633,immed,53802.00004577637,Fri Oct 11 2024 16:30:44 GMT-0500 (Central Daylight Time),694193.8999999985,A,b,O,b,6186,1,6197.70000000298,687996.1999999955,7025,WL,A,1.0
7,6.414999961853027,immed,53585.00003814697,Fri Oct 11 2024 16:30:44 GMT-0500 (Central Daylight Time),694410.5,A,bo,O,o,196,1,6414.30000000447,687996.1999999955,7025,WL,A,1.0
7,6.497999906539917,immed,53502.00009346008,Fri Oct 11 2024 16:30:44 GMT-0500 (Central Daylight Time),694494.0,A,boo,O,o,75,1,6497.80000000447,687996.1999999955,7025,WL,A,1.0
7,6.7820000648498535,immed,53217.99993515015,Fri Oct 11 2024 16:30:44 GMT-0500 (Central Daylight Time),694777.3999999985,A,book,O,k,264,1,6781.20000000298,687996.1999999955,7025,WL,A,1.0
7,7.063999891281128,immed,52936.00010871887,Fri Oct 11 2024 16:30:44 GMT-0500 (Central Daylight Time),695060.1000000015,A,bookenter,O,enter,268,1,7063.9000000059605,687996.1999999955,7025,WL,A,1.0
7,7.980999946594238,immed,52019.00005340576,Fri Oct 11 2024 16:30:44 GMT-0500 (Central Daylight Time),695976.799999997,A,t,O,t,898,1,916.2999999970198,695060.5,7025,WL,A,2.0
7,8.13100004196167,immed,51868.99995803833,Fri Oct 11 2024 16:30:44 GMT-0500 (Central Daylight Time),696126.799999997,A,tr,O,r,133,1,1066.2999999970198,695060.5,7025,WL,A,2.0
7,8.230999946594238,immed,51769.00005340576,Fri Oct 11 2024 16:30:44 GMT-0500 (Central Daylight Time),696226.6999999955,A,tra,O,a,87,1,1166.1999999955297,695060.5,7025,WL,A,2.0
7,8.346999883651733,immed,51653.00011634827,Fri Oct 11 2024 16:30:44 GMT-0500 (Central Daylight Time),696343.1999999955,A,trai,O,i,107,1,1282.6999999955297,695060.5,7025,WL,A,2.0
7,8.431999921798706,immed,51568.000078201294,Fri Oct 11 2024 16:30:44 GMT-0500 (Central Daylight Time),696427.8999999985,A,train,O,n,70,1,1367.3999999985099,695060.5,7025,WL,A,2.0
7,8.614000082015991,immed,51385.99991798401,Fri Oct 11 2024 16:30:44 GMT-0500 (Central Daylight Time),696609.8999999985,A,trainenter,O,enter,162,1,1549.3999999985099,695060.5,7025,WL,A,2.0
7,9.19700002670288,immed,50802.99997329712,Fri Oct 11 2024 16:30:44 GMT-0500 (Central Daylight Time),697192.8999999985,A,r,O,r,564,1,582.7000000029802,696610.1999999955,7025,WL,A,3.0
7,9.313999891281128,immed,50686.00010871887,Fri Oct 11 2024 16:30:44 GMT-0500 (Central Daylight Time),697309.6000000015,A,ru,O,u,101,1,699.4000000059605,696610.1999999955,7025,WL,A,3.0
7,9.46399998664856,immed,50536.00001335144,Fri Oct 11 2024 16:30:44 GMT-0500 (Central Daylight Time),697459.6999999955,A,rug,O,g,144,1,849.5,696610.1999999955,7025,WL,A,3.0
7,9.897000074386597,immed,50102.9999256134,Fri Oct 11 2024 16:30:44 GMT-0500 (Central Daylight Time),697892.8999999985,A,rugenter,O,enter,417,1,1282.7000000029802,696610.1999999955,7025,WL,A,3.0
7,11.664000034332275,immed,48335.999965667725,Fri Oct 11 2024 16:30:44 GMT-0500 (Central Daylight Time),699660.1999999955,A,f,O,f,1753,1,1767.0999999940395,697893.1000000015,7025,WL,A,4.0
7,11.77999997138977,immed,48220.00002861023,Fri Oct 11 2024 16:30:44 GMT-0500 (Central Daylight Time),699775.3999999985,A,fl,O,l,98,1,1882.2999999970198,697893.1000000015,7025,WL,A,4.0
7,11.930000066757202,immed,48069.9999332428,Fri Oct 11 2024 16:30:44 GMT-0500 (Central Daylight Time),699925.3999999985,A,flo,O,o,142,1,2032.2999999970198,697893.1000000015,7025,WL,A,4.0
7,12.02999997138977,immed,47970.00002861023,Fri Oct 11 2024 16:30:44 GMT-0500 (Central Daylight Time),700025.3999999985,A,flow,O,w,88,1,2132.2999999970198,697893.1000000015,7025,WL,A,4.0
7,12.11299991607666,immed,47887.00008392334,Fri Oct 11 2024 16:30:44 GMT-0500 (Central Daylight Time),700108.8999999985,A,flowe,O,e,76,1,2215.7999999970198,697893.1000000015,7025,WL,A,4.0
