block_c,block_dur,condition,countdown,datetime,endtime,list,multichar_response,project,response,response_time,session_number,start_end,starttime,subject_id,task,task_vers,trial
,,,,Thu Apr 10 2025 18:06:49 GMT-0500 (Central Daylight Time),,,,O,space,564,1,,,7109,WL,C,
prac,,0,,Thu Apr 10 2025 18:06:49 GMT-0500 (Central Daylight Time),,NA,b,O,b,2432,1,,,7109,WL,C,1.0
prac,,0,,Thu Apr 10 2025 18:06:49 GMT-0500 (Central Daylight Time),,NA,bo,O,o,292,1,,,7109,WL,C,1.0
prac,,0,,Thu Apr 10 2025 18:06:49 GMT-0500 (Central Daylight Time),,NA,boo,O,o,147,1,,,7109,WL,C,1.0
prac,,0,,Thu Apr 10 2025 18:06:49 GMT-0500 (Central Daylight Time),,NA,boos,O,s,125,1,,,7109,WL,C,1.0
prac,,0,,Thu Apr 10 2025 18:06:49 GMT-0500 (Central Daylight Time),,NA,boost,O,t,309,1,,,7109,WL,C,1.0
prac,,0,,Thu Apr 10 2025 18:06:49 GMT-0500 (Central Daylight Time),,NA,boostenter,O,enter,1202,1,,,7109,WL,C,1.0
1,1.3009998798370361,learn,58699.000120162964,Thu Apr 10 2025 18:06:49 GMT-0500 (Central Daylight Time),143946.5,A,t,O,t,1294,1,1300.5,142646.0,7109,WL,C,1.0
1,1.5499999523162842,learn,58450.000047683716,Thu Apr 10 2025 18:06:49 GMT-0500 (Central Daylight Time),144195.09999999963,A,to,O,o,234,1,1549.0999999996275,142646.0,7109,WL,C,1.0
1,1.8339998722076416,learn,58166.00012779236,Thu Apr 10 2025 18:06:49 GMT-0500 (Central Daylight Time),144479.09999999963,A,tow,O,w,264,1,1833.0999999996275,142646.0,7109,WL,C,1.0
1,2.0829999446868896,learn,57917.00005531311,Thu Apr 10 2025 18:06:49 GMT-0500 (Central Daylight Time),144728.5,A,towe,O,e,236,1,2082.5,142646.0,7109,WL,C,1.0
1,2.2159998416900635,learn,57784.00015830994,Thu Apr 10 2025 18:06:49 GMT-0500 (Central Daylight Time),144861.40000000037,A,tower,O,r,113,1,2215.4000000003725,142646.0,7109,WL,C,1.0
1,4.6499998569488525,learn,55350.00014305115,Thu Apr 10 2025 18:06:49 GMT-0500 (Central Daylight Time),147295.09999999963,A,towerenter,O,enter,2421,1,4649.0999999996275,142646.0,7109,WL,C,1.0
1,6.531999826431274,learn,53468.000173568726,Thu Apr 10 2025 18:06:49 GMT-0500 (Central Daylight Time),149177.40000000037,A,w,O,w,1860,1,1881.9000000003725,147295.5,7109,WL,C,2.0
1,6.73199987411499,learn,53268.00012588501,Thu Apr 10 2025 18:06:49 GMT-0500 (Central Daylight Time),149377.0,A,wh,O,h,177,1,2081.5,147295.5,7109,WL,C,2.0
1,6.86299991607666,learn,53137.00008392334,Thu Apr 10 2025 18:06:49 GMT-0500 (Central Daylight Time),149508.5,A,whe,O,e,123,1,2213.0,147295.5,7109,WL,C,2.0
1,6.978999853134155,learn,53021.000146865845,Thu Apr 10 2025 18:06:49 GMT-0500 (Central Daylight Time),149624.7999999998,A,whea,O,a,113,1,2329.2999999998137,147295.5,7109,WL,C,2.0
1,7.132999897003174,learn,52867.000102996826,Thu Apr 10 2025 18:06:49 GMT-0500 (Central Daylight Time),149778.2999999998,A,wheat,O,t,140,1,2482.7999999998137,147295.5,7109,WL,C,2.0
1,7.496999979019165,learn,52503.000020980835,Thu Apr 10 2025 18:06:49 GMT-0500 (Central Daylight Time),150142.5,A,wheatenter,O,enter,344,1,2847.0,147295.5,7109,WL,C,2.0
1,10.27999997138977,learn,49720.00002861023,Thu Apr 10 2025 18:06:49 GMT-0500 (Central Daylight Time),152925.2000000002,A,s,O,s,2764,1,2782.4000000003725,150142.7999999998,7109,WL,C,3.0
1,10.396999835968018,learn,49603.00016403198,Thu Apr 10 2025 18:06:49 GMT-0500 (Central Daylight Time),153042.2999999998,A,sh,O,h,102,1,2899.5,150142.7999999998,7109,WL,C,3.0
1,10.513000011444092,learn,49486.99998855591,Thu Apr 10 2025 18:06:49 GMT-0500 (Central Daylight Time),153158.7000000002,A,sho,O,o,106,1,3015.9000000003725,150142.7999999998,7109,WL,C,3.0
1,10.646999835968018,learn,49353.00016403198,Thu Apr 10 2025 18:06:49 GMT-0500 (Central Daylight Time),153292.5,A,shor,O,r,125,1,3149.7000000001863,150142.7999999998,7109,WL,C,3.0
1,10.730999946594238,learn,49269.00005340576,Thu Apr 10 2025 18:06:49 GMT-0500 (Central Daylight Time),153376.2000000002,A,shore,O,e,60,1,3233.4000000003725,150142.7999999998,7109,WL,C,3.0
1,11.044999837875366,learn,48955.000162124634,Thu Apr 10 2025 18:06:49 GMT-0500 (Central Daylight Time),153690.2000000002,A,shoreenter,O,enter,299,1,3547.4000000003725,150142.7999999998,7109,WL,C,3.0
1,11.578999996185303,learn,48421.0000038147,Thu Apr 10 2025 18:06:49 GMT-0500 (Central Daylight Time),154224.7000000002,A,b,O,b,521,1,534.1000000005588,153690.59999999963,7109,WL,C,4.0
1,11.662999868392944,learn,48337.000131607056,Thu Apr 10 2025 18:06:49 GMT-0500 (Central Daylight Time),154308.09999999963,A,bo,O,o,68,1,617.5,153690.59999999963,7109,WL,C,4.0
1,11.84500002861023,learn,48154.99997138977,Thu Apr 10 2025 18:06:49 GMT-0500 (Central Daylight Time),154490.40000000037,A,bod,O,d,167,1,799.8000000007451,153690.59999999963,7109,WL,C,4.0
1,11.94700002670288,learn,48052.99997329712,Thu Apr 10 2025 18:06:49 GMT-0500 (Central Daylight Time),154592.59999999963,A,body,O,y,97,1,902.0,153690.59999999963,7109,WL,C,4.0
1,12.345999956130981,learn,47654.00004386902,Thu Apr 10 2025 18:06:49 GMT-0500 (Central Daylight Time),154991.2000000002,A,bodyenter,O,enter,387,1,1300.6000000005588,153690.59999999963,7109,WL,C,4.0
1,13.911999940872192,learn,46088.00005912781,Thu Apr 10 2025 18:06:49 GMT-0500 (Central Daylight Time),156556.90000000037,A,c,O,c,1557,1,1565.4000000003725,154991.5,7109,WL,C,5.0
1,14.09500002861023,learn,45904.99997138977,Thu Apr 10 2025 18:06:49 GMT-0500 (Central Daylight Time),156740.59999999963,A,ca,O,a,174,1,1749.0999999996275,154991.5,7109,WL,C,5.0
1,14.36299991607666,learn,45637.00008392334,Thu Apr 10 2025 18:06:49 GMT-0500 (Central Daylight Time),157007.90000000037,A,cat,O,t,246,1,2016.4000000003725,154991.5,7109,WL,C,5.0
1,14.529000043869019,learn,45470.99995613098,Thu Apr 10 2025 18:06:49 GMT-0500 (Central Daylight Time),157174.0,A,catt,O,t,148,1,2182.5,154991.5,7109,WL,C,5.0
1,14.728999853134155,learn,45271.000146865845,Thu Apr 10 2025 18:06:49 GMT-0500 (Central Daylight Time),157374.2000000002,A,cattl,O,l,181,1,2382.7000000001863,154991.5,7109,WL,C,5.0
1,14.846999883651733,learn,45153.00011634827,Thu Apr 10 2025 18:06:49 GMT-0500 (Central Daylight Time),157491.90000000037,A,cattle,O,e,102,1,2500.4000000003725,154991.5,7109,WL,C,5.0
1,15.096999883651733,learn,44903.00011634827,Thu Apr 10 2025 18:06:49 GMT-0500 (Central Daylight Time),157742.2000000002,A,cattleenter,O,enter,238,1,2750.7000000001863,154991.5,7109,WL,C,5.0
1,15.928999900817871,learn,44071.00009918213,Thu Apr 10 2025 18:06:49 GMT-0500 (Central Daylight Time),158574.2000000002,A,f,O,f,813,1,831.7999999998137,157742.40000000037,7109,WL,C,6.0
1,16.09599995613098,learn,43904.00004386902,Thu Apr 10 2025 18:06:49 GMT-0500 (Central Daylight Time),158740.90000000037,A,fl,O,l,150,1,998.5,157742.40000000037,7109,WL,C,6.0
1,16.19599986076355,learn,43804.00013923645,Thu Apr 10 2025 18:06:49 GMT-0500 (Central Daylight Time),158840.90000000037,A,fla,O,a,77,1,1098.5,157742.40000000037,7109,WL,C,6.0
1,16.378000020980835,learn,43621.999979019165,Thu Apr 10 2025 18:06:49 GMT-0500 (Central Daylight Time),159023.09999999963,A,flag,O,g,163,1,1280.699999999255,157742.40000000037,7109,WL,C,6.0
1,16.51099991798401,learn,43489.00008201599,Thu Apr 10 2025 18:06:49 GMT-0500 (Central Daylight Time),159156.7999999998,A,flagenter,O,enter,124,1,1414.3999999994412,157742.40000000037,7109,WL,C,6.0
1,18.09500002861023,learn,41904.99997138977,Thu Apr 10 2025 18:06:49 GMT-0500 (Central Daylight Time),160740.0,A,q,O,q,1578,1,1583.0,159157.0,7109,WL,C,7.0
1,18.292999982833862,learn,41707.00001716614,Thu Apr 10 2025 18:06:49 GMT-0500 (Central Daylight Time),160937.90000000037,A,qu,O,u,182,1,1780.9000000003725,159157.0,7109,WL,C,7.0
1,18.47699999809265,learn,41523.00000190735,Thu Apr 10 2025 18:06:49 GMT-0500 (Central Daylight Time),161121.90000000037,A,que,O,e,169,1,1964.9000000003725,159157.0,7109,WL,C,7.0
1,18.644999980926514,learn,41355.000019073486,Thu Apr 10 2025 18:06:49 GMT-0500 (Central Daylight Time),161290.7000000002,A,quee,O,e,153,1,2133.7000000001863,159157.0,7109,WL,C,7.0
1,18.793999910354614,learn,41206.000089645386,Thu Apr 10 2025 18:06:49 GMT-0500 (Central Daylight Time),161439.09999999963,A,queen,O,n,136,1,2282.0999999996275,159157.0,7109,WL,C,7.0
1,19.05999994277954,learn,40940.00005722046,Thu Apr 10 2025 18:06:49 GMT-0500 (Central Daylight Time),161705.5,A,queenenter,O,enter,261,1,2548.5,159157.0,7109,WL,C,7.0
1,24.22499990463257,learn,35775.00009536743,Thu Apr 10 2025 18:06:49 GMT-0500 (Central Daylight Time),166870.5,A,c,O,c,5155,1,5164.799999999814,161705.7000000002,7109,WL,C,8.0
1,24.358999967575073,learn,35641.00003242493,Thu Apr 10 2025 18:06:49 GMT-0500 (Central Daylight Time),167004.09999999963,A,co,O,o,117,1,5298.399999999441,161705.7000000002,7109,WL,C,8.0
1,24.526000022888184,learn,35473.99997711182,Thu Apr 10 2025 18:06:49 GMT-0500 (Central Daylight Time),167171.40000000037,A,cor,O,r,150,1,5465.700000000186,161705.7000000002,7109,WL,C,8.0
1,24.625999927520752,learn,35374.00007247925,Thu Apr 10 2025 18:06:49 GMT-0500 (Central Daylight Time),167270.90000000037,A,corn,O,n,88,1,5565.200000000186,161705.7000000002,7109,WL,C,8.0
1,24.859999895095825,learn,35140.000104904175,Thu Apr 10 2025 18:06:49 GMT-0500 (Central Daylight Time),167504.7999999998,A,cornenter,O,enter,220,1,5799.0999999996275,161705.7000000002,7109,WL,C,8.0
1,28.507999897003174,learn,31492.000102996826,Thu Apr 10 2025 18:06:49 GMT-0500 (Central Daylight Time),171154.0,A,c,O,c,3627,1,3648.7999999998137,167505.2000000002,7109,WL,C,9.0
1,28.674000024795532,learn,31325.999975204468,Thu Apr 10 2025 18:06:49 GMT-0500 (Central Daylight Time),171319.0,A,ca,O,a,144,1,3813.7999999998137,167505.2000000002,7109,WL,C,9.0
1,28.825000047683716,learn,31174.999952316284,Thu Apr 10 2025 18:06:49 GMT-0500 (Central Daylight Time),171470.5,A,cam,O,m,130,1,3965.2999999998137,167505.2000000002,7109,WL,C,9.0
1,29.007999897003174,learn,30992.000102996826,Thu Apr 10 2025 18:06:49 GMT-0500 (Central Daylight Time),171653.5,A,camp,O,p,172,1,4148.299999999814,167505.2000000002,7109,WL,C,9.0
1,29.340999841690063,learn,30659.000158309937,Thu Apr 10 2025 18:06:49 GMT-0500 (Central Daylight Time),171986.0,A,campenter,O,enter,327,1,4480.799999999814,167505.2000000002,7109,WL,C,9.0
1,38.187999963760376,learn,21812.000036239624,Thu Apr 10 2025 18:06:49 GMT-0500 (Central Daylight Time),180834.2999999998,A,f,O,f,8827,1,8848.0,171986.2999999998,7109,WL,C,10.0
1,38.4210000038147,learn,21578.999996185303,Thu Apr 10 2025 18:06:49 GMT-0500 (Central Daylight Time),181067.7999999998,A,fl,O,l,228,1,9081.5,171986.2999999998,7109,WL,C,10.0
1,38.59299993515015,learn,21407.000064849854,Thu Apr 10 2025 18:06:49 GMT-0500 (Central Daylight Time),181239.2000000002,A,fla,O,a,150,1,9252.900000000373,171986.2999999998,7109,WL,C,10.0
1,38.88599991798401,learn,21114.00008201599,Thu Apr 10 2025 18:06:49 GMT-0500 (Central Daylight Time),181532.40000000037,A,flag,O,g,278,1,9546.100000000559,171986.2999999998,7109,WL,C,10.0
1,39.00399994850159,learn,20996.000051498413,Thu Apr 10 2025 18:06:49 GMT-0500 (Central Daylight Time),181650.09999999963,A,flagenter,O,enter,113,1,9663.799999999814,171986.2999999998,7109,WL,C,10.0
1,44.51799988746643,learn,15482.00011253357,Thu Apr 10 2025 18:06:49 GMT-0500 (Central Daylight Time),187164.7999999998,A,n,O,n,5498,1,5514.399999999441,181650.40000000037,7109,WL,C,11.0
1,44.651999950408936,learn,15348.000049591064,Thu Apr 10 2025 18:06:49 GMT-0500 (Central Daylight Time),187298.40000000037,A,na,O,a,117,1,5648.0,181650.40000000037,7109,WL,C,11.0
1,44.78399991989136,learn,15216.000080108643,Thu Apr 10 2025 18:06:49 GMT-0500 (Central Daylight Time),187430.7999999998,A,nai,O,i,121,1,5780.399999999441,181650.40000000037,7109,WL,C,11.0
1,45.05200004577637,learn,14947.999954223633,Thu Apr 10 2025 18:06:49 GMT-0500 (Central Daylight Time),187698.5,A,nail,O,l,254,1,6048.0999999996275,181650.40000000037,7109,WL,C,11.0
1,45.35099983215332,learn,14649.00016784668,Thu Apr 10 2025 18:06:49 GMT-0500 (Central Daylight Time),187997.7999999998,A,nailenter,O,enter,289,1,6347.399999999441,181650.40000000037,7109,WL,C,11.0
1,57.79900002479553,learn,2200.999975204468,Thu Apr 10 2025 18:06:49 GMT-0500 (Central Daylight Time),200445.09999999963,A,g,O,g,12430,1,12447.0,187998.09999999963,7109,WL,C,12.0
1,58.680999994277954,learn,1319.000005722046,Thu Apr 10 2025 18:06:49 GMT-0500 (Central Daylight Time),201327.40000000037,A,,O,backspace,869,1,13329.300000000745,187998.09999999963,7109,WL,C,12.0
1,59.06399989128113,learn,936.0001087188721,Thu Apr 10 2025 18:06:49 GMT-0500 (Central Daylight Time),201710.40000000037,A,b,O,b,360,1,13712.300000000745,187998.09999999963,7109,WL,C,12.0
1,59.264999866485596,learn,735.0001335144043,Thu Apr 10 2025 18:06:49 GMT-0500 (Central Daylight Time),201911.2000000002,A,bp,O,p,180,1,13913.100000000559,187998.09999999963,7109,WL,C,12.0
1,60.013999938964844,learn,-13.99993896484375,Thu Apr 10 2025 18:06:49 GMT-0500 (Central Daylight Time),202660.5,A,bpNone,O,None,742,1,14662.400000000373,187998.09999999963,7109,WL,C,12.0
2,1.0520000457763672,learn,58947.99995422363,Thu Apr 10 2025 18:06:49 GMT-0500 (Central Daylight Time),272489.9000000004,A,c,O,c,1031,1,1052.5,271437.4000000004,7109,WL,C,1.0
2,1.1670000553131104,learn,58832.99994468689,Thu Apr 10 2025 18:06:49 GMT-0500 (Central Daylight Time),272604.2999999998,A,co,O,o,97,1,1166.8999999994412,271437.4000000004,7109,WL,C,1.0
2,1.3339998722076416,learn,58666.00012779236,Thu Apr 10 2025 18:06:49 GMT-0500 (Central Daylight Time),272771.5,A,cor,O,r,152,1,1334.0999999996275,271437.4000000004,7109,WL,C,1.0
2,1.433000087738037,learn,58566.99991226196,Thu Apr 10 2025 18:06:49 GMT-0500 (Central Daylight Time),272870.5999999996,A,corn,O,n,87,1,1433.199999999255,271437.4000000004,7109,WL,C,1.0
2,1.818000078201294,learn,58181.999921798706,Thu Apr 10 2025 18:06:49 GMT-0500 (Central Daylight Time),273255.0999999996,A,cornenter,O,enter,364,1,1817.699999999255,271437.4000000004,7109,WL,C,1.0
2,2.4509999752044678,learn,57549.00002479553,Thu Apr 10 2025 18:06:49 GMT-0500 (Central Daylight Time),273888.5,A,t,O,t,612,1,632.9000000003725,273255.5999999996,7109,WL,C,2.0
2,2.5329999923706055,learn,57467.000007629395,Thu Apr 10 2025 18:06:49 GMT-0500 (Central Daylight Time),273970.0999999996,A,to,O,o,76,1,714.5,273255.5999999996,7109,WL,C,2.0
2,2.6500000953674316,learn,57349.99990463257,Thu Apr 10 2025 18:06:49 GMT-0500 (Central Daylight Time),274087.9000000004,A,tow,O,w,104,1,832.3000000007451,273255.5999999996,7109,WL,C,2.0
2,2.815000057220459,learn,57184.99994277954,Thu Apr 10 2025 18:06:49 GMT-0500 (Central Daylight Time),274252.5999999996,A,town,O,n,147,1,997.0,273255.5999999996,7109,WL,C,2.0
2,3.382999897003174,learn,56617.000102996826,Thu Apr 10 2025 18:06:49 GMT-0500 (Central Daylight Time),274820.5999999996,A,tow,O,backspace,548,1,1565.0,273255.5999999996,7109,WL,C,2.0
2,4.002000093460083,learn,55997.99990653992,Thu Apr 10 2025 18:06:49 GMT-0500 (Central Daylight Time),275439.2999999998,A,towe,O,e,597,1,2183.7000000001863,273255.5999999996,7109,WL,C,2.0
2,4.065000057220459,learn,55934.99994277954,Thu Apr 10 2025 18:06:49 GMT-0500 (Central Daylight Time),275502.5999999996,A,tower,O,r,45,1,2247.0,273255.5999999996,7109,WL,C,2.0
2,4.2149999141693115,learn,55785.00008583069,Thu Apr 10 2025 18:06:49 GMT-0500 (Central Daylight Time),275652.4000000004,A,towerenter,O,enter,133,1,2396.800000000745,273255.5999999996,7109,WL,C,2.0
2,4.7170000076293945,learn,55282.999992370605,Thu Apr 10 2025 18:06:49 GMT-0500 (Central Daylight Time),276154.2999999998,A,w,O,w,496,1,501.5,275652.7999999998,7109,WL,C,3.0
2,4.83299994468689,learn,55167.00005531311,Thu Apr 10 2025 18:06:49 GMT-0500 (Central Daylight Time),276270.4000000004,A,we,O,e,96,1,617.6000000005588,275652.7999999998,7109,WL,C,3.0
2,4.898000001907349,learn,55101.99999809265,Thu Apr 10 2025 18:06:49 GMT-0500 (Central Daylight Time),276335.0999999996,A,weh,O,h,45,1,682.2999999998137,275652.7999999998,7109,WL,C,3.0
2,5.299000024795532,learn,54700.99997520447,Thu Apr 10 2025 18:06:49 GMT-0500 (Central Daylight Time),276736.7999999998,A,weha,O,a,379,1,1084.0,275652.7999999998,7109,WL,C,3.0
2,5.514999866485596,learn,54485.000133514404,Thu Apr 10 2025 18:06:49 GMT-0500 (Central Daylight Time),276952.9000000004,A,weh,O,backspace,203,1,1300.1000000005588,275652.7999999998,7109,WL,C,3.0
2,5.664999961853027,learn,54335.00003814697,Thu Apr 10 2025 18:06:49 GMT-0500 (Central Daylight Time),277103.0,A,we,O,backspace,138,1,1450.2000000001863,275652.7999999998,7109,WL,C,3.0
2,5.7809998989105225,learn,54219.00010108948,Thu Apr 10 2025 18:06:49 GMT-0500 (Central Daylight Time),277219.0,A,w,O,backspace,101,1,1566.2000000001863,275652.7999999998,7109,WL,C,3.0
2,6.164999961853027,learn,53835.00003814697,Thu Apr 10 2025 18:06:49 GMT-0500 (Central Daylight Time),277602.7999999998,A,we,O,e,367,1,1950.0,275652.7999999998,7109,WL,C,3.0
2,6.533999919891357,learn,53466.00008010864,Thu Apr 10 2025 18:06:49 GMT-0500 (Central Daylight Time),277971.2999999998,A,w,O,backspace,362,1,2318.5,275652.7999999998,7109,WL,C,3.0
2,7.16700005531311,learn,52832.99994468689,Thu Apr 10 2025 18:06:49 GMT-0500 (Central Daylight Time),278604.5999999996,A,wh,O,h,627,1,2951.7999999998137,275652.7999999998,7109,WL,C,3.0
2,7.299000024795532,learn,52700.99997520447,Thu Apr 10 2025 18:06:49 GMT-0500 (Central Daylight Time),278736.7999999998,A,whe,O,e,110,1,3084.0,275652.7999999998,7109,WL,C,3.0
2,7.381999969482422,learn,52618.00003051758,Thu Apr 10 2025 18:06:49 GMT-0500 (Central Daylight Time),278819.2999999998,A,whea,O,a,66,1,3166.5,275652.7999999998,7109,WL,C,3.0
2,7.4649999141693115,learn,52535.00008583069,Thu Apr 10 2025 18:06:49 GMT-0500 (Central Daylight Time),278902.0999999996,A,whear,O,r,71,1,3249.2999999998137,275652.7999999998,7109,WL,C,3.0
2,7.848999977111816,learn,52151.00002288818,Thu Apr 10 2025 18:06:49 GMT-0500 (Central Daylight Time),279286.0999999996,A,whea,O,backspace,374,1,3633.2999999998137,275652.7999999998,7109,WL,C,3.0
2,8.04800009727478,learn,51951.99990272522,Thu Apr 10 2025 18:06:49 GMT-0500 (Central Daylight Time),279485.2999999998,A,wheat,O,t,181,1,3832.5,275652.7999999998,7109,WL,C,3.0
2,8.198999881744385,learn,51801.000118255615,Thu Apr 10 2025 18:06:49 GMT-0500 (Central Daylight Time),279636.0,A,wheatenter,O,enter,143,1,3983.2000000001863,275652.7999999998,7109,WL,C,3.0
2,9.233000040054321,learn,50766.99995994568,Thu Apr 10 2025 18:06:49 GMT-0500 (Central Daylight Time),280670.0,A,d,O,d,1016,1,1033.7000000001863,279636.2999999998,7109,WL,C,4.0
2,9.331000089645386,learn,50668.999910354614,Thu Apr 10 2025 18:06:49 GMT-0500 (Central Daylight Time),280768.5999999996,A,do,O,o,86,1,1132.2999999998137,279636.2999999998,7109,WL,C,4.0
2,9.514999866485596,learn,50485.000133514404,Thu Apr 10 2025 18:06:49 GMT-0500 (Central Daylight Time),280952.4000000004,A,doc,O,c,163,1,1316.1000000005588,279636.2999999998,7109,WL,C,4.0
2,9.697999954223633,learn,50302.00004577637,Thu Apr 10 2025 18:06:49 GMT-0500 (Central Daylight Time),281135.4000000004,A,doco,O,o,162,1,1499.1000000005588,279636.2999999998,7109,WL,C,4.0
2,9.746000051498413,learn,50253.99994850159,Thu Apr 10 2025 18:06:49 GMT-0500 (Central Daylight Time),281183.7999999998,A,docot,O,t,36,1,1547.5,279636.2999999998,7109,WL,C,4.0
2,10.614000082015991,learn,49385.99991798401,Thu Apr 10 2025 18:06:49 GMT-0500 (Central Daylight Time),282051.2999999998,A,doco,O,backspace,852,1,2415.0,279636.2999999998,7109,WL,C,4.0
2,10.77999997138977,learn,49220.00002861023,Thu Apr 10 2025 18:06:49 GMT-0500 (Central Daylight Time),282217.9000000004,A,doc,O,backspace,152,1,2581.600000000559,279636.2999999998,7109,WL,C,4.0
2,11.04699993133545,learn,48953.00006866455,Thu Apr 10 2025 18:06:49 GMT-0500 (Central Daylight Time),282484.5,A,doct,O,t,258,1,2848.2000000001863,279636.2999999998,7109,WL,C,4.0
2,11.145999908447266,learn,48854.000091552734,Thu Apr 10 2025 18:06:49 GMT-0500 (Central Daylight Time),282583.7999999998,A,docto,O,o,83,1,2947.5,279636.2999999998,7109,WL,C,4.0
2,11.313999891281128,learn,48686.00010871887,Thu Apr 10 2025 18:06:49 GMT-0500 (Central Daylight Time),282751.9000000004,A,doctor,O,r,150,1,3115.600000000559,279636.2999999998,7109,WL,C,4.0
2,11.480999946594238,learn,48519.00005340576,Thu Apr 10 2025 18:06:49 GMT-0500 (Central Daylight Time),282918.0,A,doctorenter,O,enter,146,1,3281.7000000001863,279636.2999999998,7109,WL,C,4.0
2,13.129999876022339,learn,46870.00012397766,Thu Apr 10 2025 18:06:49 GMT-0500 (Central Daylight Time),284567.9000000004,A,l,O,l,1630,1,1649.6000000005588,282918.2999999998,7109,WL,C,5.0
2,13.263000011444092,learn,46736.99998855591,Thu Apr 10 2025 18:06:49 GMT-0500 (Central Daylight Time),284700.5,A,le,O,e,110,1,1782.2000000001863,282918.2999999998,7109,WL,C,5.0
2,13.61299991607666,learn,46387.00008392334,Thu Apr 10 2025 18:06:49 GMT-0500 (Central Daylight Time),285050.9000000004,A,let,O,t,335,1,2132.600000000559,282918.2999999998,7109,WL,C,5.0
2,13.780999898910522,learn,46219.00010108948,Thu Apr 10 2025 18:06:49 GMT-0500 (Central Daylight Time),285218.0999999996,A,lett,O,t,161,1,2299.7999999998137,282918.2999999998,7109,WL,C,5.0
2,13.930000066757202,learn,46069.9999332428,Thu Apr 10 2025 18:06:49 GMT-0500 (Central Daylight Time),285367.7000000002,A,lette,O,e,128,1,2449.4000000003725,282918.2999999998,7109,WL,C,5.0
2,14.013000011444092,learn,45986.99998855591,Thu Apr 10 2025 18:06:49 GMT-0500 (Central Daylight Time),285451.0,A,letter,O,r,59,1,2532.7000000001863,282918.2999999998,7109,WL,C,5.0
2,14.162999868392944,learn,45837.000131607056,Thu Apr 10 2025 18:06:49 GMT-0500 (Central Daylight Time),285600.2000000002,A,letterenter,O,enter,134,1,2681.9000000003725,282918.2999999998,7109,WL,C,5.0
2,14.496999979019165,learn,45503.000020980835,Thu Apr 10 2025 18:06:49 GMT-0500 (Central Daylight Time),285934.2000000002,A,n,O,n,316,1,333.79999999981374,285600.4000000004,7109,WL,C,6.0
2,14.629999876022339,learn,45370.00012397766,Thu Apr 10 2025 18:06:49 GMT-0500 (Central Daylight Time),286067.2999999998,A,na,O,a,118,1,466.8999999994412,285600.4000000004,7109,WL,C,6.0
2,14.711999893188477,learn,45288.00010681152,Thu Apr 10 2025 18:06:49 GMT-0500 (Central Daylight Time),286149.5999999996,A,nai,O,i,73,1,549.1999999992549,285600.4000000004,7109,WL,C,6.0
2,14.812999963760376,learn,45187.000036239624,Thu Apr 10 2025 18:06:49 GMT-0500 (Central Daylight Time),286250.0,A,nail,O,l,86,1,649.5999999996275,285600.4000000004,7109,WL,C,6.0
2,15.11299991607666,learn,44887.00008392334,Thu Apr 10 2025 18:06:49 GMT-0500 (Central Daylight Time),286550.2999999998,A,nailenter,O,enter,290,1,949.8999999994412,285600.4000000004,7109,WL,C,6.0
2,15.496000051498413,learn,44503.99994850159,Thu Apr 10 2025 18:06:49 GMT-0500 (Central Daylight Time),286933.9000000004,A,b,O,b,377,1,383.30000000074506,286550.5999999996,7109,WL,C,7.0
2,15.61299991607666,learn,44387.00008392334,Thu Apr 10 2025 18:06:49 GMT-0500 (Central Daylight Time),287050.0,A,bo,O,o,103,1,499.40000000037253,286550.5999999996,7109,WL,C,7.0
2,15.796000003814697,learn,44203.9999961853,Thu Apr 10 2025 18:06:49 GMT-0500 (Central Daylight Time),287233.4000000004,A,boy,O,y,171,1,682.8000000007451,286550.5999999996,7109,WL,C,7.0
2,16.078999996185303,learn,43921.0000038147,Thu Apr 10 2025 18:06:49 GMT-0500 (Central Daylight Time),287516.4000000004,A,boyenter,O,enter,266,1,965.8000000007451,286550.5999999996,7109,WL,C,7.0
2,16.34500002861023,learn,43654.99997138977,Thu Apr 10 2025 18:06:49 GMT-0500 (Central Daylight Time),287782.9000000004,A,f,O,f,255,1,266.1000000005588,287516.7999999998,7109,WL,C,8.0
2,16.479000091552734,learn,43520.999908447266,Thu Apr 10 2025 18:06:49 GMT-0500 (Central Daylight Time),287916.7999999998,A,fl,O,l,116,1,400.0,287516.7999999998,7109,WL,C,8.0
2,16.61299991607666,learn,43387.00008392334,Thu Apr 10 2025 18:06:49 GMT-0500 (Central Daylight Time),288050.0999999996,A,fla,O,a,110,1,533.2999999998137,287516.7999999998,7109,WL,C,8.0
2,16.84599995613098,learn,43154.00004386902,Thu Apr 10 2025 18:06:49 GMT-0500 (Central Daylight Time),288283.0999999996,A,flag,O,g,215,1,766.2999999998137,287516.7999999998,7109,WL,C,8.0
2,17.02900004386902,learn,42970.99995613098,Thu Apr 10 2025 18:06:49 GMT-0500 (Central Daylight Time),288466.2000000002,A,flagenter,O,enter,167,1,949.4000000003725,287516.7999999998,7109,WL,C,8.0
2,22.927000045776367,learn,37072.99995422363,Thu Apr 10 2025 18:06:49 GMT-0500 (Central Daylight Time),294364.5,A,c,O,c,5883,1,5898.0,288466.5,7109,WL,C,9.0
2,23.043999910354614,learn,36956.000089645386,Thu Apr 10 2025 18:06:49 GMT-0500 (Central Daylight Time),294481.4000000004,A,co,O,o,111,1,6014.9000000003725,288466.5,7109,WL,C,9.0
2,23.193000078201294,learn,36806.999921798706,Thu Apr 10 2025 18:06:49 GMT-0500 (Central Daylight Time),294630.7000000002,A,cor,O,r,129,1,6164.200000000186,288466.5,7109,WL,C,9.0
2,23.30999994277954,learn,36690.00005722046,Thu Apr 10 2025 18:06:49 GMT-0500 (Central Daylight Time),294747.4000000004,A,corn,O,n,101,1,6280.9000000003725,288466.5,7109,WL,C,9.0
2,23.542999982833862,learn,36457.00001716614,Thu Apr 10 2025 18:06:49 GMT-0500 (Central Daylight Time),294980.0999999996,A,cornenter,O,enter,210,1,6513.5999999996275,288466.5,7109,WL,C,9.0
2,29.141000032424927,learn,30858.999967575073,Thu Apr 10 2025 18:06:49 GMT-0500 (Central Daylight Time),300578.5,A,b,O,b,5584,1,5598.0,294980.5,7109,WL,C,10.0
2,29.27300000190735,learn,30726.99999809265,Thu Apr 10 2025 18:06:49 GMT-0500 (Central Daylight Time),300711.2999999998,A,bo,O,o,121,1,5730.799999999814,294980.5,7109,WL,C,10.0
2,29.657000064849854,learn,30342.999935150146,Thu Apr 10 2025 18:06:49 GMT-0500 (Central Daylight Time),301094.9000000004,A,bod,O,d,365,1,6114.4000000003725,294980.5,7109,WL,C,10.0
2,29.757999897003174,learn,30242.000102996826,Thu Apr 10 2025 18:06:49 GMT-0500 (Central Daylight Time),301195.7000000002,A,body,O,y,84,1,6215.200000000186,294980.5,7109,WL,C,10.0
2,30.00600004196167,learn,29993.99995803833,Thu Apr 10 2025 18:06:49 GMT-0500 (Central Daylight Time),301444.0,A,bodyenter,O,enter,240,1,6463.5,294980.5,7109,WL,C,10.0
2,30.473000049591064,learn,29526.999950408936,Thu Apr 10 2025 18:06:49 GMT-0500 (Central Daylight Time),301911.2999999998,A,s,O,s,458,1,467.20000000018626,301444.0999999996,7109,WL,C,11.0
2,30.558000087738037,learn,29441.999912261963,Thu Apr 10 2025 18:06:49 GMT-0500 (Central Daylight Time),301995.7000000002,A,sh,O,h,78,1,551.6000000005588,301444.0999999996,7109,WL,C,11.0
2,30.657000064849854,learn,29342.999935150146,Thu Apr 10 2025 18:06:49 GMT-0500 (Central Daylight Time),302095.2000000002,A,sho,O,o,85,1,651.1000000005588,301444.0999999996,7109,WL,C,11.0
2,30.822999954223633,learn,29177.000045776367,Thu Apr 10 2025 18:06:49 GMT-0500 (Central Daylight Time),302260.5999999996,A,shor,O,r,146,1,816.5,301444.0999999996,7109,WL,C,11.0
2,31.02300000190735,learn,28976.99999809265,Thu Apr 10 2025 18:06:49 GMT-0500 (Central Daylight Time),302461.5,A,shore,O,e,182,1,1017.4000000003725,301444.0999999996,7109,WL,C,11.0
2,31.157000064849854,learn,28842.999935150146,Thu Apr 10 2025 18:06:49 GMT-0500 (Central Daylight Time),302594.7999999998,A,shoreenter,O,enter,119,1,1150.7000000001863,301444.0999999996,7109,WL,C,11.0
2,34.27500009536743,learn,25724.99990463257,Thu Apr 10 2025 18:06:49 GMT-0500 (Central Daylight Time),305713.2000000002,A,c,O,c,3106,1,3118.100000000559,302595.0999999996,7109,WL,C,12.0
2,34.456000089645386,learn,25543.999910354614,Thu Apr 10 2025 18:06:49 GMT-0500 (Central Daylight Time),305893.7000000002,A,ca,O,a,171,1,3298.600000000559,302595.0999999996,7109,WL,C,12.0
2,34.5550000667572,learn,25444.999933242798,Thu Apr 10 2025 18:06:49 GMT-0500 (Central Daylight Time),305993.0999999996,A,cam,O,m,86,1,3398.0,302595.0999999996,7109,WL,C,12.0
2,34.740999937057495,learn,25259.000062942505,Thu Apr 10 2025 18:06:49 GMT-0500 (Central Daylight Time),306179.4000000004,A,camp,O,p,181,1,3584.300000000745,302595.0999999996,7109,WL,C,12.0
2,35.08899998664856,learn,24911.00001335144,Thu Apr 10 2025 18:06:49 GMT-0500 (Central Daylight Time),306526.9000000004,A,campenter,O,enter,336,1,3931.800000000745,302595.0999999996,7109,WL,C,12.0
2,39.40400004386902,learn,20595.99995613098,Thu Apr 10 2025 18:06:49 GMT-0500 (Central Daylight Time),310842.2000000002,A,l,O,l,4301,1,4315.0,306527.2000000002,7109,WL,C,13.0
2,39.57100009918213,learn,20428.99990081787,Thu Apr 10 2025 18:06:49 GMT-0500 (Central Daylight Time),311008.9000000004,A,le,O,e,146,1,4481.700000000186,306527.2000000002,7109,WL,C,13.0
2,39.83699989318848,learn,20163.000106811523,Thu Apr 10 2025 18:06:49 GMT-0500 (Central Daylight Time),311275.4000000004,A,let,O,t,260,1,4748.200000000186,306527.2000000002,7109,WL,C,13.0
2,40.07200002670288,learn,19927.99997329712,Thu Apr 10 2025 18:06:49 GMT-0500 (Central Daylight Time),311510.0999999996,A,lett,O,t,216,1,4982.899999999441,306527.2000000002,7109,WL,C,13.0
2,40.23799991607666,learn,19762.00008392334,Thu Apr 10 2025 18:06:49 GMT-0500 (Central Daylight Time),311676.0999999996,A,lette,O,e,161,1,5148.899999999441,306527.2000000002,7109,WL,C,13.0
2,40.30299997329712,learn,19697.00002670288,Thu Apr 10 2025 18:06:49 GMT-0500 (Central Daylight Time),311741.0,A,letter,O,r,55,1,5213.799999999814,306527.2000000002,7109,WL,C,13.0
2,40.50499987602234,learn,19495.00012397766,Thu Apr 10 2025 18:06:49 GMT-0500 (Central Daylight Time),311942.5,A,letterenter,O,enter,182,1,5415.299999999814,306527.2000000002,7109,WL,C,13.0
2,47.299999952316284,learn,12700.000047683716,Thu Apr 10 2025 18:06:49 GMT-0500 (Central Daylight Time),318738.4000000004,A,f,O,f,6782,1,6795.600000000559,311942.7999999998,7109,WL,C,14.0
2,47.4689998626709,learn,12531.000137329102,Thu Apr 10 2025 18:06:49 GMT-0500 (Central Daylight Time),318906.7000000002,A,fl,O,l,154,1,6963.9000000003725,311942.7999999998,7109,WL,C,14.0
2,47.58500003814697,learn,12414.999961853027,Thu Apr 10 2025 18:06:49 GMT-0500 (Central Daylight Time),319023.0,A,fla,O,a,95,1,7080.200000000186,311942.7999999998,7109,WL,C,14.0
2,47.70199990272522,learn,12298.00009727478,Thu Apr 10 2025 18:06:49 GMT-0500 (Central Daylight Time),319139.9000000004,A,flag,O,g,101,1,7197.100000000559,311942.7999999998,7109,WL,C,14.0
2,47.83500003814697,learn,12164.999961853027,Thu Apr 10 2025 18:06:49 GMT-0500 (Central Daylight Time),319273.0,A,flagenter,O,enter,120,1,7330.200000000186,311942.7999999998,7109,WL,C,14.0
2,60.014999866485596,learn,-14.999866485595703,Thu Apr 10 2025 18:06:49 GMT-0500 (Central Daylight Time),331453.2999999998,A,None,O,None,12176,1,12180.0,319273.2999999998,7109,WL,C,15.0
3,0.7170000076293945,learn,59282.999992370605,Thu Apr 10 2025 18:06:49 GMT-0500 (Central Daylight Time),402896.2999999998,A,t,O,t,705,1,716.5,402179.7999999998,7109,WL,C,1.0
3,0.8840000629425049,learn,59115.999937057495,Thu Apr 10 2025 18:06:49 GMT-0500 (Central Daylight Time),403063.2999999998,A,to,O,o,148,1,883.5,402179.7999999998,7109,WL,C,1.0
3,1.0,learn,59000.0,Thu Apr 10 2025 18:06:49 GMT-0500 (Central Daylight Time),403179.5999999996,A,tow,O,w,100,1,999.7999999998137,402179.7999999998,7109,WL,C,1.0
3,1.2330000400543213,learn,58766.99995994568,Thu Apr 10 2025 18:06:49 GMT-0500 (Central Daylight Time),403412.2999999998,A,towe,O,e,225,1,1232.5,402179.7999999998,7109,WL,C,1.0
3,1.315000057220459,learn,58684.99994277954,Thu Apr 10 2025 18:06:49 GMT-0500 (Central Daylight Time),403494.5999999996,A,tower,O,r,70,1,1314.7999999998137,402179.7999999998,7109,WL,C,1.0
3,1.6000001430511475,learn,58399.99985694885,Thu Apr 10 2025 18:06:49 GMT-0500 (Central Daylight Time),403779.7999999998,A,towerenter,O,enter,277,1,1600.0,402179.7999999998,7109,WL,C,1.0
3,2.799999952316284,learn,57200.000047683716,Thu Apr 10 2025 18:06:49 GMT-0500 (Central Daylight Time),404980.0,A,w,O,w,1194,1,1199.7999999998137,403780.2000000002,7109,WL,C,2.0
3,2.9839999675750732,learn,57016.00003242493,Thu Apr 10 2025 18:06:49 GMT-0500 (Central Daylight Time),405163.0999999996,A,wh,O,h,168,1,1382.8999999994412,403780.2000000002,7109,WL,C,2.0
3,3.1489999294281006,learn,56851.0000705719,Thu Apr 10 2025 18:06:49 GMT-0500 (Central Daylight Time),405328.7000000002,A,whe,O,e,153,1,1548.5,403780.2000000002,7109,WL,C,2.0
3,3.4650001525878906,learn,56534.99984741211,Thu Apr 10 2025 18:06:49 GMT-0500 (Central Daylight Time),405644.9000000004,A,whet,O,t,300,1,1864.7000000001863,403780.2000000002,7109,WL,C,2.0
3,3.615999937057495,learn,56384.000062942505,Thu Apr 10 2025 18:06:49 GMT-0500 (Central Daylight Time),405795.0,A,whete,O,e,135,1,2014.7999999998137,403780.2000000002,7109,WL,C,2.0
3,3.8320000171661377,learn,56167.99998283386,Thu Apr 10 2025 18:06:49 GMT-0500 (Central Daylight Time),406011.9000000004,A,wheteenter,O,enter,211,1,2231.7000000001863,403780.2000000002,7109,WL,C,2.0
3,5.700000047683716,learn,54299.999952316284,Thu Apr 10 2025 18:06:49 GMT-0500 (Central Daylight Time),407879.5,A,w,O,w,1848,1,1867.2999999998137,406012.2000000002,7109,WL,C,3.0
3,5.848999977111816,learn,54151.00002288818,Thu Apr 10 2025 18:06:49 GMT-0500 (Central Daylight Time),408028.2000000002,A,wh,O,h,132,1,2016.0,406012.2000000002,7109,WL,C,3.0
3,6.04800009727478,learn,53951.99990272522,Thu Apr 10 2025 18:06:49 GMT-0500 (Central Daylight Time),408227.5,A,whe,O,e,194,1,2215.2999999998137,406012.2000000002,7109,WL,C,3.0
3,6.183000087738037,learn,53816.99991226196,Thu Apr 10 2025 18:06:49 GMT-0500 (Central Daylight Time),408362.5,A,whea,O,a,129,1,2350.2999999998137,406012.2000000002,7109,WL,C,3.0
3,6.365000009536743,learn,53634.99999046326,Thu Apr 10 2025 18:06:49 GMT-0500 (Central Daylight Time),408544.0,A,wheat,O,t,160,1,2531.7999999998137,406012.2000000002,7109,WL,C,3.0
3,6.697000026702881,learn,53302.99997329712,Thu Apr 10 2025 18:06:49 GMT-0500 (Central Daylight Time),408876.5999999996,A,wheatenter,O,enter,324,1,2864.399999999441,406012.2000000002,7109,WL,C,3.0
3,7.54800009727478,learn,52451.99990272522,Thu Apr 10 2025 18:06:49 GMT-0500 (Central Daylight Time),409727.2000000002,A,c,O,c,831,1,850.4000000003725,408876.7999999998,7109,WL,C,4.0
3,7.664000034332275,learn,52335.999965667725,Thu Apr 10 2025 18:06:49 GMT-0500 (Central Daylight Time),409843.4000000004,A,co,O,o,108,1,966.6000000005588,408876.7999999998,7109,WL,C,4.0
3,7.815999984741211,learn,52184.00001525879,Thu Apr 10 2025 18:06:49 GMT-0500 (Central Daylight Time),409995.7999999998,A,cor,O,r,145,1,1119.0,408876.7999999998,7109,WL,C,4.0
3,7.947999954223633,learn,52052.00004577637,Thu Apr 10 2025 18:06:49 GMT-0500 (Central Daylight Time),410128.0,A,corn,O,n,121,1,1251.2000000001863,408876.7999999998,7109,WL,C,4.0
3,8.348000049591064,learn,51651.999950408936,Thu Apr 10 2025 18:06:49 GMT-0500 (Central Daylight Time),410527.2999999998,A,cornenter,O,enter,379,1,1650.5,408876.7999999998,7109,WL,C,4.0
3,8.814000129699707,learn,51185.99987030029,Thu Apr 10 2025 18:06:49 GMT-0500 (Central Daylight Time),410993.5,A,s,O,s,454,1,465.90000000037253,410527.5999999996,7109,WL,C,5.0
3,9.115000009536743,learn,50884.99999046326,Thu Apr 10 2025 18:06:49 GMT-0500 (Central Daylight Time),411294.0999999996,A,su,O,u,280,1,766.5,410527.5999999996,7109,WL,C,5.0
3,9.763999938964844,learn,50236.000061035156,Thu Apr 10 2025 18:06:49 GMT-0500 (Central Daylight Time),411943.7000000002,A,sug,O,g,628,1,1416.1000000005588,410527.5999999996,7109,WL,C,5.0
3,9.930000066757202,learn,50069.9999332428,Thu Apr 10 2025 18:06:49 GMT-0500 (Central Daylight Time),412109.5999999996,A,suga,O,a,147,1,1582.0,410527.5999999996,7109,WL,C,5.0
3,10.013000011444092,learn,49986.99998855591,Thu Apr 10 2025 18:06:49 GMT-0500 (Central Daylight Time),412193.0,A,sugar,O,r,60,1,1665.4000000003725,410527.5999999996,7109,WL,C,5.0
3,10.213000059127808,learn,49786.99994087219,Thu Apr 10 2025 18:06:49 GMT-0500 (Central Daylight Time),412392.7999999998,A,sugarenter,O,enter,177,1,1865.2000000001863,410527.5999999996,7109,WL,C,5.0
3,10.880000114440918,learn,49119.99988555908,Thu Apr 10 2025 18:06:49 GMT-0500 (Central Daylight Time),413059.5999999996,A,q,O,q,646,1,666.5,412393.0999999996,7109,WL,C,6.0
3,10.963000059127808,learn,49036.99994087219,Thu Apr 10 2025 18:06:49 GMT-0500 (Central Daylight Time),413142.4000000004,A,qu,O,u,71,1,749.3000000007451,412393.0999999996,7109,WL,C,6.0
3,11.161999940872192,learn,48838.00005912781,Thu Apr 10 2025 18:06:49 GMT-0500 (Central Daylight Time),413341.5999999996,A,que,O,e,181,1,948.5,412393.0999999996,7109,WL,C,6.0
3,11.396000146865845,learn,48603.999853134155,Thu Apr 10 2025 18:06:49 GMT-0500 (Central Daylight Time),413575.7000000002,A,quee,O,e,215,1,1182.6000000005588,412393.0999999996,7109,WL,C,6.0
3,11.845999956130981,learn,48154.00004386902,Thu Apr 10 2025 18:06:49 GMT-0500 (Central Daylight Time),414025.9000000004,A,queen,O,n,436,1,1632.800000000745,412393.0999999996,7109,WL,C,6.0
3,12.147000074386597,learn,47852.9999256134,Thu Apr 10 2025 18:06:49 GMT-0500 (Central Daylight Time),414326.2000000002,A,queenenter,O,enter,288,1,1933.1000000005588,412393.0999999996,7109,WL,C,6.0
3,13.263000011444092,learn,46736.99998855591,Thu Apr 10 2025 18:06:49 GMT-0500 (Central Daylight Time),415442.5,A,d,O,d,1103,1,1116.0,414326.5,7109,WL,C,7.0
3,13.36300015449524,learn,46636.99984550476,Thu Apr 10 2025 18:06:49 GMT-0500 (Central Daylight Time),415542.4000000004,A,do,O,o,82,1,1215.9000000003725,414326.5,7109,WL,C,7.0
3,13.663000106811523,learn,46336.99989318848,Thu Apr 10 2025 18:06:49 GMT-0500 (Central Daylight Time),415842.5,A,doc,O,c,284,1,1516.0,414326.5,7109,WL,C,7.0
3,13.894999980926514,learn,46105.000019073486,Thu Apr 10 2025 18:06:49 GMT-0500 (Central Daylight Time),416074.4000000004,A,doct,O,t,217,1,1747.9000000003725,414326.5,7109,WL,C,7.0
3,13.996999979019165,learn,46003.000020980835,Thu Apr 10 2025 18:06:49 GMT-0500 (Central Daylight Time),416177.2999999998,A,docto,O,o,98,1,1850.7999999998137,414326.5,7109,WL,C,7.0
3,14.127000093460083,learn,45872.99990653992,Thu Apr 10 2025 18:06:49 GMT-0500 (Central Daylight Time),416306.9000000004,A,doctor,O,r,117,1,1980.4000000003725,414326.5,7109,WL,C,7.0
3,14.327000141143799,learn,45672.9998588562,Thu Apr 10 2025 18:06:49 GMT-0500 (Central Daylight Time),416506.7000000002,A,doctorenter,O,enter,184,1,2180.2000000001863,414326.5,7109,WL,C,7.0
3,14.979000091552734,learn,45020.999908447266,Thu Apr 10 2025 18:06:49 GMT-0500 (Central Daylight Time),417158.7999999998,A,b,O,b,635,1,651.8999999994412,416506.9000000004,7109,WL,C,8.0
3,15.044000148773193,learn,44955.99985122681,Thu Apr 10 2025 18:06:49 GMT-0500 (Central Daylight Time),417224.2000000002,A,bo,O,o,51,1,717.2999999998137,416506.9000000004,7109,WL,C,8.0
3,15.328999996185303,learn,44671.0000038147,Thu Apr 10 2025 18:06:49 GMT-0500 (Central Daylight Time),417509.2000000002,A,boy,O,y,263,1,1002.2999999998137,416506.9000000004,7109,WL,C,8.0
3,15.726999998092651,learn,44273.00000190735,Thu Apr 10 2025 18:06:49 GMT-0500 (Central Daylight Time),417907.5,A,boyenter,O,enter,391,1,1400.5999999996275,416506.9000000004,7109,WL,C,8.0
3,16.07800006866455,learn,43921.99993133545,Thu Apr 10 2025 18:06:49 GMT-0500 (Central Daylight Time),418257.7999999998,A,l,O,l,337,1,350.0,417907.7999999998,7109,WL,C,9.0
3,16.212000131607056,learn,43787.999868392944,Thu Apr 10 2025 18:06:49 GMT-0500 (Central Daylight Time),418391.5,A,le,O,e,120,1,483.70000000018626,417907.7999999998,7109,WL,C,9.0
3,16.5770001411438,learn,43422.9998588562,Thu Apr 10 2025 18:06:49 GMT-0500 (Central Daylight Time),418756.9000000004,A,let,O,t,349,1,849.1000000005588,417907.7999999998,7109,WL,C,9.0
3,16.74399995803833,learn,43256.00004196167,Thu Apr 10 2025 18:06:49 GMT-0500 (Central Daylight Time),418923.5999999996,A,lett,O,t,150,1,1015.7999999998137,417907.7999999998,7109,WL,C,9.0
3,16.861999988555908,learn,43138.00001144409,Thu Apr 10 2025 18:06:49 GMT-0500 (Central Daylight Time),419042.2999999998,A,lette,O,e,112,1,1134.5,417907.7999999998,7109,WL,C,9.0
3,16.944000005722046,learn,43055.999994277954,Thu Apr 10 2025 18:06:49 GMT-0500 (Central Daylight Time),419124.4000000004,A,letter,O,r,75,1,1216.6000000005588,417907.7999999998,7109,WL,C,9.0
3,17.16100001335144,learn,42838.99998664856,Thu Apr 10 2025 18:06:49 GMT-0500 (Central Daylight Time),419340.7000000002,A,letterenter,O,enter,207,1,1432.9000000003725,417907.7999999998,7109,WL,C,9.0
3,18.511000156402588,learn,41488.99984359741,Thu Apr 10 2025 18:06:49 GMT-0500 (Central Daylight Time),420690.7000000002,A,c,O,c,1336,1,1349.7000000001863,419341.0,7109,WL,C,10.0
3,18.67799997329712,learn,41322.00002670288,Thu Apr 10 2025 18:06:49 GMT-0500 (Central Daylight Time),420858.2000000002,A,ca,O,a,152,1,1517.2000000001863,419341.0,7109,WL,C,10.0
3,18.759999990463257,learn,41240.00000953674,Thu Apr 10 2025 18:06:49 GMT-0500 (Central Daylight Time),420940.4000000004,A,cam,O,m,62,1,1599.4000000003725,419341.0,7109,WL,C,10.0
3,18.91100001335144,learn,41088.99998664856,Thu Apr 10 2025 18:06:49 GMT-0500 (Central Daylight Time),421091.4000000004,A,camp,O,p,133,1,1750.4000000003725,419341.0,7109,WL,C,10.0
3,19.259999990463257,learn,40740.00000953674,Thu Apr 10 2025 18:06:49 GMT-0500 (Central Daylight Time),421440.0999999996,A,campenter,O,enter,334,1,2099.0999999996275,419341.0,7109,WL,C,10.0
3,19.64300012588501,learn,40356.99987411499,Thu Apr 10 2025 18:06:49 GMT-0500 (Central Daylight Time),421822.7999999998,A,f,O,f,364,1,382.5,421440.2999999998,7109,WL,C,11.0
3,19.759000062942505,learn,40240.999937057495,Thu Apr 10 2025 18:06:49 GMT-0500 (Central Daylight Time),421939.4000000004,A,fl,O,l,107,1,499.1000000005588,421440.2999999998,7109,WL,C,11.0
3,19.860000133514404,learn,40139.999866485596,Thu Apr 10 2025 18:06:49 GMT-0500 (Central Daylight Time),422040.4000000004,A,fla,O,a,88,1,600.1000000005588,421440.2999999998,7109,WL,C,11.0
3,20.05999994277954,learn,39940.00005722046,Thu Apr 10 2025 18:06:49 GMT-0500 (Central Daylight Time),422239.5999999996,A,flag,O,g,178,1,799.2999999998137,421440.2999999998,7109,WL,C,11.0
3,20.39300012588501,learn,39606.99987411499,Thu Apr 10 2025 18:06:49 GMT-0500 (Central Daylight Time),422572.7000000002,A,flagenter,O,enter,318,1,1132.4000000003725,421440.2999999998,7109,WL,C,11.0
3,25.558000087738037,learn,34441.99991226196,Thu Apr 10 2025 18:06:49 GMT-0500 (Central Daylight Time),427738.2999999998,A,s,O,s,5151,1,5165.399999999441,422572.9000000004,7109,WL,C,12.0
3,25.657000064849854,learn,34342.99993515015,Thu Apr 10 2025 18:06:49 GMT-0500 (Central Daylight Time),427836.7000000002,A,sh,O,h,78,1,5263.799999999814,422572.9000000004,7109,WL,C,12.0
3,25.759000062942505,learn,34240.999937057495,Thu Apr 10 2025 18:06:49 GMT-0500 (Central Daylight Time),427939.5,A,sho,O,o,96,1,5366.5999999996275,422572.9000000004,7109,WL,C,12.0
3,25.875999927520752,learn,34124.00007247925,Thu Apr 10 2025 18:06:49 GMT-0500 (Central Daylight Time),428055.7000000002,A,shor,O,r,91,1,5482.799999999814,422572.9000000004,7109,WL,C,12.0
3,26.276000022888184,learn,33723.99997711182,Thu Apr 10 2025 18:06:49 GMT-0500 (Central Daylight Time),428455.7000000002,A,shore,O,e,378,1,5882.799999999814,422572.9000000004,7109,WL,C,12.0
3,26.457000017166138,learn,33542.99998283386,Thu Apr 10 2025 18:06:49 GMT-0500 (Central Daylight Time),428637.2999999998,A,shoreenter,O,enter,163,1,6064.399999999441,422572.9000000004,7109,WL,C,12.0
3,27.125999927520752,learn,32874.00007247925,Thu Apr 10 2025 18:06:49 GMT-0500 (Central Daylight Time),429305.5999999996,A,b,O,b,663,1,668.0999999996275,428637.5,7109,WL,C,13.0
3,27.207000017166138,learn,32792.99998283386,Thu Apr 10 2025 18:06:49 GMT-0500 (Central Daylight Time),429387.4000000004,A,bo,O,o,64,1,749.9000000003725,428637.5,7109,WL,C,13.0
3,27.574000120162964,learn,32425.999879837036,Thu Apr 10 2025 18:06:49 GMT-0500 (Central Daylight Time),429753.9000000004,A,bod,O,d,358,1,1116.4000000003725,428637.5,7109,WL,C,13.0
3,27.689000129699707,learn,32310.999870300293,Thu Apr 10 2025 18:06:49 GMT-0500 (Central Daylight Time),429868.7000000002,A,body,O,y,97,1,1231.2000000001863,428637.5,7109,WL,C,13.0
3,28.006999969482422,learn,31993.000030517578,Thu Apr 10 2025 18:06:49 GMT-0500 (Central Daylight Time),430187.0,A,bodyenter,O,enter,306,1,1549.5,428637.5,7109,WL,C,13.0
3,31.723000049591064,learn,28276.999950408936,Thu Apr 10 2025 18:06:49 GMT-0500 (Central Daylight Time),433902.5999999996,A,s,O,s,3706,1,3715.399999999441,430187.2000000002,7109,WL,C,14.0
3,31.873000144958496,learn,28126.999855041504,Thu Apr 10 2025 18:06:49 GMT-0500 (Central Daylight Time),434053.5,A,su,O,u,145,1,3866.2999999998137,430187.2000000002,7109,WL,C,14.0
3,31.992000102996826,learn,28007.999897003174,Thu Apr 10 2025 18:06:49 GMT-0500 (Central Daylight Time),434171.7000000002,A,sug,O,g,112,1,3984.5,430187.2000000002,7109,WL,C,14.0
3,32.15700006484985,learn,27842.999935150146,Thu Apr 10 2025 18:06:49 GMT-0500 (Central Daylight Time),434337.4000000004,A,suga,O,a,142,1,4150.200000000186,430187.2000000002,7109,WL,C,14.0
3,32.574000120162964,learn,27425.999879837036,Thu Apr 10 2025 18:06:49 GMT-0500 (Central Daylight Time),434754.2999999998,A,sugar,O,r,411,1,4567.0999999996275,430187.2000000002,7109,WL,C,14.0
3,32.75500011444092,learn,27244.999885559082,Thu Apr 10 2025 18:06:49 GMT-0500 (Central Daylight Time),434935.2000000002,A,sugarenter,O,enter,167,1,4748.0,430187.2000000002,7109,WL,C,14.0
3,50.31700015068054,learn,9682.999849319458,Thu Apr 10 2025 18:06:49 GMT-0500 (Central Daylight Time),452496.5999999996,A,h,O,h,17542,1,17561.099999999627,434935.5,7109,WL,C,15.0
3,50.449000120162964,learn,9550.999879837036,Thu Apr 10 2025 18:06:49 GMT-0500 (Central Daylight Time),452629.5999999996,A,ho,O,o,123,1,17694.099999999627,434935.5,7109,WL,C,15.0
3,50.585999965667725,learn,9414.000034332275,Thu Apr 10 2025 18:06:49 GMT-0500 (Central Daylight Time),452766.0,A,hom,O,m,119,1,17830.5,434935.5,7109,WL,C,15.0
3,50.75200009346008,learn,9247.999906539917,Thu Apr 10 2025 18:06:49 GMT-0500 (Central Daylight Time),452931.7000000002,A,home,O,e,143,1,17996.200000000186,434935.5,7109,WL,C,15.0
3,50.93300008773804,learn,9066.999912261963,Thu Apr 10 2025 18:06:49 GMT-0500 (Central Daylight Time),453112.5999999996,A,homeenter,O,enter,166,1,18177.099999999627,434935.5,7109,WL,C,15.0
4,5.0309998989105225,learn,54969.00010108948,Thu Apr 10 2025 18:06:49 GMT-0500 (Central Daylight Time),524457.9000000004,A,t,O,t,5011,1,5031.700000000186,519426.2000000002,7109,WL,C,1.0
4,5.249000072479248,learn,54750.99992752075,Thu Apr 10 2025 18:06:49 GMT-0500 (Central Daylight Time),524675.2000000002,A,to,O,o,203,1,5249.0,519426.2000000002,7109,WL,C,1.0
4,5.448999881744385,learn,54551.000118255615,Thu Apr 10 2025 18:06:49 GMT-0500 (Central Daylight Time),524875.5,A,tow,O,w,195,1,5449.299999999814,519426.2000000002,7109,WL,C,1.0
4,5.5980000495910645,learn,54401.999950408936,Thu Apr 10 2025 18:06:49 GMT-0500 (Central Daylight Time),525024.4000000004,A,towe,O,e,137,1,5598.200000000186,519426.2000000002,7109,WL,C,1.0
4,5.747999906539917,learn,54252.00009346008,Thu Apr 10 2025 18:06:49 GMT-0500 (Central Daylight Time),525174.9000000004,A,tower,O,r,139,1,5748.700000000186,519426.2000000002,7109,WL,C,1.0
4,6.312999963760376,learn,53687.000036239624,Thu Apr 10 2025 18:06:49 GMT-0500 (Central Daylight Time),525739.4000000004,A,towerenter,O,enter,548,1,6313.200000000186,519426.2000000002,7109,WL,C,1.0
4,6.864000082015991,learn,53135.99991798401,Thu Apr 10 2025 18:06:49 GMT-0500 (Central Daylight Time),526290.5999999996,A,w,O,w,537,1,551.0,525739.5999999996,7109,WL,C,2.0
4,7.013999938964844,learn,52986.000061035156,Thu Apr 10 2025 18:06:49 GMT-0500 (Central Daylight Time),526441.0,A,wh,O,h,129,1,701.4000000003725,525739.5999999996,7109,WL,C,2.0
4,7.148000001907349,learn,52851.99999809265,Thu Apr 10 2025 18:06:49 GMT-0500 (Central Daylight Time),526574.0999999996,A,whe,O,e,115,1,834.5,525739.5999999996,7109,WL,C,2.0
4,7.5980000495910645,learn,52401.999950408936,Thu Apr 10 2025 18:06:49 GMT-0500 (Central Daylight Time),527024.2000000002,A,whea,O,a,436,1,1284.6000000005588,525739.5999999996,7109,WL,C,2.0
4,7.680999994277954,learn,52319.000005722046,Thu Apr 10 2025 18:06:49 GMT-0500 (Central Daylight Time),527107.5999999996,A,wheat,O,t,79,1,1368.0,525739.5999999996,7109,WL,C,2.0
4,8.013999938964844,learn,51986.000061035156,Thu Apr 10 2025 18:06:49 GMT-0500 (Central Daylight Time),527440.2000000002,A,wheatenter,O,enter,318,1,1700.6000000005588,525739.5999999996,7109,WL,C,2.0
4,8.713000059127808,learn,51286.99994087219,Thu Apr 10 2025 18:06:49 GMT-0500 (Central Daylight Time),528139.5,A,c,O,c,684,1,699.0,527440.5,7109,WL,C,3.0
4,8.795000076293945,learn,51204.999923706055,Thu Apr 10 2025 18:06:49 GMT-0500 (Central Daylight Time),528221.9000000004,A,co,O,o,72,1,781.4000000003725,527440.5,7109,WL,C,3.0
4,8.930000066757202,learn,51069.9999332428,Thu Apr 10 2025 18:06:49 GMT-0500 (Central Daylight Time),528356.7000000002,A,cor,O,r,128,1,916.2000000001863,527440.5,7109,WL,C,3.0
4,9.063999891281128,learn,50936.00010871887,Thu Apr 10 2025 18:06:49 GMT-0500 (Central Daylight Time),528490.2000000002,A,corn,O,n,112,1,1049.7000000001863,527440.5,7109,WL,C,3.0
4,9.29800009727478,learn,50701.99990272522,Thu Apr 10 2025 18:06:49 GMT-0500 (Central Daylight Time),528724.0999999996,A,cornenter,O,enter,228,1,1283.5999999996275,527440.5,7109,WL,C,3.0
4,9.763000011444092,learn,50236.99998855591,Thu Apr 10 2025 18:06:49 GMT-0500 (Central Daylight Time),529189.2999999998,A,s,O,s,456,1,465.0,528724.2999999998,7109,WL,C,4.0
4,9.914000034332275,learn,50085.999965667725,Thu Apr 10 2025 18:06:49 GMT-0500 (Central Daylight Time),529340.2999999998,A,su,O,u,134,1,616.0,528724.2999999998,7109,WL,C,4.0
4,10.062999963760376,learn,49937.000036239624,Thu Apr 10 2025 18:06:49 GMT-0500 (Central Daylight Time),529489.0999999996,A,sur,O,r,137,1,764.7999999998137,528724.2999999998,7109,WL,C,4.0
4,10.664000034332275,learn,49335.999965667725,Thu Apr 10 2025 18:06:49 GMT-0500 (Central Daylight Time),530090.2000000002,A,su,O,backspace,579,1,1365.9000000003725,528724.2999999998,7109,WL,C,4.0
4,10.864000082015991,learn,49135.99991798401,Thu Apr 10 2025 18:06:49 GMT-0500 (Central Daylight Time),530290.5,A,sug,O,g,178,1,1566.2000000001863,528724.2999999998,7109,WL,C,4.0
4,10.961999893188477,learn,49038.00010681152,Thu Apr 10 2025 18:06:49 GMT-0500 (Central Daylight Time),530388.2999999998,A,suga,O,a,88,1,1664.0,528724.2999999998,7109,WL,C,4.0
4,11.213000059127808,learn,48786.99994087219,Thu Apr 10 2025 18:06:49 GMT-0500 (Central Daylight Time),530639.5999999996,A,sugar,O,r,231,1,1915.2999999998137,528724.2999999998,7109,WL,C,4.0
4,11.446000099182129,learn,48553.99990081787,Thu Apr 10 2025 18:06:49 GMT-0500 (Central Daylight Time),530872.5999999996,A,sugarenter,O,enter,221,1,2148.2999999998137,528724.2999999998,7109,WL,C,4.0
4,11.79699993133545,learn,48203.00006866455,Thu Apr 10 2025 18:06:49 GMT-0500 (Central Daylight Time),531223.0,A,q,O,q,332,1,350.09999999962747,530872.9000000004,7109,WL,C,5.0
4,11.914000034332275,learn,48085.999965667725,Thu Apr 10 2025 18:06:49 GMT-0500 (Central Daylight Time),531340.0,A,qu,O,u,111,1,467.09999999962747,530872.9000000004,7109,WL,C,5.0
4,12.178999900817871,learn,47821.00009918213,Thu Apr 10 2025 18:06:49 GMT-0500 (Central Daylight Time),531605.5,A,que,O,e,249,1,732.5999999996275,530872.9000000004,7109,WL,C,5.0
4,12.361999988555908,learn,47638.00001144409,Thu Apr 10 2025 18:06:49 GMT-0500 (Central Daylight Time),531788.4000000004,A,quee,O,e,165,1,915.5,530872.9000000004,7109,WL,C,5.0
4,12.579999923706055,learn,47420.000076293945,Thu Apr 10 2025 18:06:49 GMT-0500 (Central Daylight Time),532006.0999999996,A,queen,O,n,194,1,1133.199999999255,530872.9000000004,7109,WL,C,5.0
4,13.046000003814697,learn,46953.9999961853,Thu Apr 10 2025 18:06:49 GMT-0500 (Central Daylight Time),532472.2999999998,A,queenenter,O,enter,444,1,1599.3999999994412,530872.9000000004,7109,WL,C,5.0
4,13.479000091552734,learn,46520.999908447266,Thu Apr 10 2025 18:06:49 GMT-0500 (Central Daylight Time),532905.4000000004,A,b,O,b,412,1,432.90000000037253,532472.5,7109,WL,C,6.0
4,13.595999956130981,learn,46404.00004386902,Thu Apr 10 2025 18:06:49 GMT-0500 (Central Daylight Time),533022.2000000002,A,bo,O,o,97,1,549.7000000001863,532472.5,7109,WL,C,6.0
4,13.861999988555908,learn,46138.00001144409,Thu Apr 10 2025 18:06:49 GMT-0500 (Central Daylight Time),533288.9000000004,A,boy,O,y,245,1,816.4000000003725,532472.5,7109,WL,C,6.0
4,14.296000003814697,learn,45703.9999961853,Thu Apr 10 2025 18:06:49 GMT-0500 (Central Daylight Time),533722.2000000002,A,boyh,O,h,417,1,1249.7000000001863,532472.5,7109,WL,C,6.0
4,14.381999969482422,learn,45618.00003051758,Thu Apr 10 2025 18:06:49 GMT-0500 (Central Daylight Time),533808.2000000002,A,boyho,O,o,64,1,1335.7000000001863,532472.5,7109,WL,C,6.0
4,14.796000003814697,learn,45203.9999961853,Thu Apr 10 2025 18:06:49 GMT-0500 (Central Daylight Time),534222.4000000004,A,boyh,O,backspace,393,1,1749.9000000003725,532472.5,7109,WL,C,6.0
4,14.928999900817871,learn,45071.00009918213,Thu Apr 10 2025 18:06:49 GMT-0500 (Central Daylight Time),534355.4000000004,A,boy,O,backspace,126,1,1882.9000000003725,532472.5,7109,WL,C,6.0
4,15.477999925613403,learn,44522.0000743866,Thu Apr 10 2025 18:06:49 GMT-0500 (Central Daylight Time),534904.0999999996,A,boyenter,O,enter,534,1,2431.5999999996275,532472.5,7109,WL,C,6.0
4,16.311000108718872,learn,43688.99989128113,Thu Apr 10 2025 18:06:49 GMT-0500 (Central Daylight Time),535737.7000000002,A,h,O,h,821,1,833.4000000003725,534904.2999999998,7109,WL,C,7.0
4,16.41100001335144,learn,43588.99998664856,Thu Apr 10 2025 18:06:49 GMT-0500 (Central Daylight Time),535837.0999999996,A,ho,O,o,82,1,932.7999999998137,534904.2999999998,7109,WL,C,7.0
4,16.51099991798401,learn,43489.00008201599,Thu Apr 10 2025 18:06:49 GMT-0500 (Central Daylight Time),535937.7000000002,A,hom,O,m,94,1,1033.4000000003725,534904.2999999998,7109,WL,C,7.0
4,16.677000045776367,learn,43322.99995422363,Thu Apr 10 2025 18:06:49 GMT-0500 (Central Daylight Time),536103.0,A,home,O,e,145,1,1198.7000000001863,534904.2999999998,7109,WL,C,7.0
4,16.894999980926514,learn,43105.000019073486,Thu Apr 10 2025 18:06:49 GMT-0500 (Central Daylight Time),536321.9000000004,A,homeenter,O,enter,204,1,1417.6000000005588,534904.2999999998,7109,WL,C,7.0
4,17.977999925613403,learn,42022.0000743866,Thu Apr 10 2025 18:06:49 GMT-0500 (Central Daylight Time),537404.7999999998,A,d,O,d,1078,1,1082.7000000001863,536322.0999999996,7109,WL,C,8.0
4,18.108999967575073,learn,41891.00003242493,Thu Apr 10 2025 18:06:49 GMT-0500 (Central Daylight Time),537536.2999999998,A,do,O,o,110,1,1214.2000000001863,536322.0999999996,7109,WL,C,8.0
4,18.39299988746643,learn,41607.00011253357,Thu Apr 10 2025 18:06:49 GMT-0500 (Central Daylight Time),537820.2000000002,A,doc,O,c,275,1,1498.1000000005588,536322.0999999996,7109,WL,C,8.0
4,18.627000093460083,learn,41372.99990653992,Thu Apr 10 2025 18:06:49 GMT-0500 (Central Daylight Time),538054.0999999996,A,doct,O,t,215,1,1732.0,536322.0999999996,7109,WL,C,8.0
4,18.744999885559082,learn,41255.00011444092,Thu Apr 10 2025 18:06:49 GMT-0500 (Central Daylight Time),538171.7000000002,A,docto,O,o,111,1,1849.6000000005588,536322.0999999996,7109,WL,C,8.0
4,18.842000007629395,learn,41157.999992370605,Thu Apr 10 2025 18:06:49 GMT-0500 (Central Daylight Time),538269.0,A,doctor,O,r,79,1,1946.9000000003725,536322.0999999996,7109,WL,C,8.0
4,19.092000007629395,learn,40907.999992370605,Thu Apr 10 2025 18:06:49 GMT-0500 (Central Daylight Time),538518.9000000004,A,doctorenter,O,enter,238,1,2196.800000000745,536322.0999999996,7109,WL,C,8.0
4,19.342999935150146,learn,40657.00006484985,Thu Apr 10 2025 18:06:49 GMT-0500 (Central Daylight Time),538770.2000000002,A,l,O,l,246,1,251.1000000005588,538519.0999999996,7109,WL,C,9.0
4,19.441999912261963,learn,40558.00008773804,Thu Apr 10 2025 18:06:49 GMT-0500 (Central Daylight Time),538869.4000000004,A,le,O,e,91,1,350.30000000074506,538519.0999999996,7109,WL,C,9.0
4,19.592999935150146,learn,40407.00006484985,Thu Apr 10 2025 18:06:49 GMT-0500 (Central Daylight Time),539020.4000000004,A,let,O,t,135,1,501.30000000074506,538519.0999999996,7109,WL,C,9.0
4,19.776999950408936,learn,40223.000049591064,Thu Apr 10 2025 18:06:49 GMT-0500 (Central Daylight Time),539204.2999999998,A,lett,O,t,178,1,685.2000000001863,538519.0999999996,7109,WL,C,9.0
4,19.960000038146973,learn,40039.99996185303,Thu Apr 10 2025 18:06:49 GMT-0500 (Central Daylight Time),539386.9000000004,A,lette,O,e,177,1,867.8000000007451,538519.0999999996,7109,WL,C,9.0
4,20.04200005531311,learn,39957.99994468689,Thu Apr 10 2025 18:06:49 GMT-0500 (Central Daylight Time),539469.2999999998,A,letter,O,r,65,1,950.2000000001863,538519.0999999996,7109,WL,C,9.0
4,20.242000102996826,learn,39757.999897003174,Thu Apr 10 2025 18:06:49 GMT-0500 (Central Daylight Time),539669.0,A,letterenter,O,enter,190,1,1149.9000000003725,538519.0999999996,7109,WL,C,9.0
4,20.759000062942505,learn,39240.999937057495,Thu Apr 10 2025 18:06:49 GMT-0500 (Central Daylight Time),540186.0999999996,A,n,O,n,503,1,516.8999999994412,539669.2000000002,7109,WL,C,10.0
4,20.925999879837036,learn,39074.000120162964,Thu Apr 10 2025 18:06:49 GMT-0500 (Central Daylight Time),540353.2000000002,A,na,O,a,145,1,684.0,539669.2000000002,7109,WL,C,10.0
4,20.973999977111816,learn,39026.00002288818,Thu Apr 10 2025 18:06:49 GMT-0500 (Central Daylight Time),540401.0999999996,A,nai,O,i,33,1,731.8999999994412,539669.2000000002,7109,WL,C,10.0
4,21.158999919891357,learn,38841.00008010864,Thu Apr 10 2025 18:06:49 GMT-0500 (Central Daylight Time),540585.9000000004,A,nail,O,l,173,1,916.7000000001863,539669.2000000002,7109,WL,C,10.0
4,21.507999897003174,learn,38492.000102996826,Thu Apr 10 2025 18:06:49 GMT-0500 (Central Daylight Time),540934.5999999996,A,nailenter,O,enter,329,1,1265.3999999994412,539669.2000000002,7109,WL,C,10.0
4,23.058000087738037,learn,36941.99991226196,Thu Apr 10 2025 18:06:49 GMT-0500 (Central Daylight Time),542484.9000000004,A,c,O,c,1544,1,1550.1000000005588,540934.7999999998,7109,WL,C,11.0
4,23.194000005722046,learn,36805.999994277954,Thu Apr 10 2025 18:06:49 GMT-0500 (Central Daylight Time),542620.5999999996,A,ca,O,a,129,1,1685.7999999998137,540934.7999999998,7109,WL,C,11.0
4,23.29200005531311,learn,36707.99994468689,Thu Apr 10 2025 18:06:49 GMT-0500 (Central Daylight Time),542719.0,A,cam,O,m,78,1,1784.2000000001863,540934.7999999998,7109,WL,C,11.0
4,23.424999952316284,learn,36575.000047683716,Thu Apr 10 2025 18:06:49 GMT-0500 (Central Daylight Time),542851.5,A,camp,O,p,125,1,1916.7000000001863,540934.7999999998,7109,WL,C,11.0
4,23.759000062942505,learn,36240.999937057495,Thu Apr 10 2025 18:06:49 GMT-0500 (Central Daylight Time),543185.5,A,campenter,O,enter,319,1,2250.7000000001863,540934.7999999998,7109,WL,C,11.0
4,24.19099998474121,learn,35809.00001525879,Thu Apr 10 2025 18:06:49 GMT-0500 (Central Daylight Time),543618.2999999998,A,f,O,f,429,1,432.59999999962747,543185.7000000002,7109,WL,C,12.0
4,24.35800004005432,learn,35641.99995994568,Thu Apr 10 2025 18:06:49 GMT-0500 (Central Daylight Time),543784.9000000004,A,fl,O,l,155,1,599.2000000001863,543185.7000000002,7109,WL,C,12.0
4,24.371000051498413,learn,35628.99994850159,Thu Apr 10 2025 18:06:49 GMT-0500 (Central Daylight Time),543798.4000000004,A,fla,O,a,2,1,612.7000000001863,543185.7000000002,7109,WL,C,12.0
4,24.85699987411499,learn,35143.00012588501,Thu Apr 10 2025 18:06:49 GMT-0500 (Central Daylight Time),544284.2999999998,A,flag,O,g,479,1,1098.5999999996275,543185.7000000002,7109,WL,C,12.0
4,25.056999921798706,learn,34943.000078201294,Thu Apr 10 2025 18:06:49 GMT-0500 (Central Daylight Time),544484.4000000004,A,flagenter,O,enter,192,1,1298.7000000001863,543185.7000000002,7109,WL,C,12.0
4,27.825000047683716,learn,32174.999952316284,Thu Apr 10 2025 18:06:49 GMT-0500 (Central Daylight Time),547251.9000000004,A,s,O,s,2762,1,2767.4000000003725,544484.5,7109,WL,C,13.0
4,27.94000005722046,learn,32059.99994277954,Thu Apr 10 2025 18:06:49 GMT-0500 (Central Daylight Time),547366.7999999998,A,sh,O,h,104,1,2882.2999999998137,544484.5,7109,WL,C,13.0
4,28.058000087738037,learn,31941.999912261963,Thu Apr 10 2025 18:06:49 GMT-0500 (Central Daylight Time),547484.7000000002,A,sho,O,o,112,1,3000.2000000001863,544484.5,7109,WL,C,13.0
4,28.157000064849854,learn,31842.999935150146,Thu Apr 10 2025 18:06:49 GMT-0500 (Central Daylight Time),547584.0999999996,A,shor,O,r,77,1,3099.5999999996275,544484.5,7109,WL,C,13.0
4,28.67300009727478,learn,31326.99990272522,Thu Apr 10 2025 18:06:49 GMT-0500 (Central Daylight Time),548100.0999999996,A,shore,O,e,497,1,3615.5999999996275,544484.5,7109,WL,C,13.0
4,28.841000080108643,learn,31158.999919891357,Thu Apr 10 2025 18:06:49 GMT-0500 (Central Daylight Time),548267.7000000002,A,shoreenter,O,enter,144,1,3783.2000000001863,544484.5,7109,WL,C,13.0
4,29.256999969482422,learn,30743.000030517578,Thu Apr 10 2025 18:06:49 GMT-0500 (Central Daylight Time),548683.5999999996,A,b,O,b,410,1,415.69999999925494,548267.9000000004,7109,WL,C,14.0
4,29.35599994659424,learn,30644.00005340576,Thu Apr 10 2025 18:06:49 GMT-0500 (Central Daylight Time),548783.2999999998,A,bo,O,o,88,1,515.3999999994412,548267.9000000004,7109,WL,C,14.0
4,29.522000074386597,learn,30477.999925613403,Thu Apr 10 2025 18:06:49 GMT-0500 (Central Daylight Time),548948.7999999998,A,bod,O,d,147,1,680.8999999994412,548267.9000000004,7109,WL,C,14.0
4,29.624000072479248,learn,30375.999927520752,Thu Apr 10 2025 18:06:49 GMT-0500 (Central Daylight Time),549051.2999999998,A,body,O,y,98,1,783.3999999994412,548267.9000000004,7109,WL,C,14.0
4,29.905999898910522,learn,30094.000101089478,Thu Apr 10 2025 18:06:49 GMT-0500 (Central Daylight Time),549332.9000000004,A,bodyenter,O,enter,264,1,1065.0,548267.9000000004,7109,WL,C,14.0
4,50.38199996948242,learn,9618.000030517578,Thu Apr 10 2025 18:06:49 GMT-0500 (Central Daylight Time),569809.4000000004,A,enter,O,enter,20463,1,20476.200000000186,549333.2000000002,7109,WL,C,15.0
5,1.5169999599456787,learn,60000.0,Thu Apr 10 2025 18:06:49 GMT-0500 (Central Daylight Time),647818.2999999998,A,c,O,c,1510,1,1516.7999999998137,646301.5,7109,WL,C,1.0
5,1.8009998798370361,learn,60000.0,Thu Apr 10 2025 18:06:49 GMT-0500 (Central Daylight Time),648102.2000000002,A,ca,O,a,278,1,1800.7000000001863,646301.5,7109,WL,C,1.0
5,1.9670000076293945,learn,60000.0,Thu Apr 10 2025 18:06:49 GMT-0500 (Central Daylight Time),648268.2999999998,A,cam,O,m,151,1,1966.7999999998137,646301.5,7109,WL,C,1.0
5,2.1499998569488525,learn,60000.0,Thu Apr 10 2025 18:06:49 GMT-0500 (Central Daylight Time),648451.5999999996,A,camp,O,p,167,1,2150.0999999996275,646301.5,7109,WL,C,1.0
5,3.0839998722076416,learn,60000.0,Thu Apr 10 2025 18:06:49 GMT-0500 (Central Daylight Time),649384.9000000004,A,campenter,O,enter,920,1,3083.4000000003725,646301.5,7109,WL,C,1.0
5,3.4499998092651367,learn,60000.0,Thu Apr 10 2025 18:06:49 GMT-0500 (Central Daylight Time),649751.2999999998,A,l,O,l,347,1,366.09999999962747,649385.2000000002,7109,WL,C,2.0
5,3.550999879837036,learn,60000.0,Thu Apr 10 2025 18:06:49 GMT-0500 (Central Daylight Time),649852.2000000002,A,le,O,e,94,1,467.0,649385.2000000002,7109,WL,C,2.0
5,3.748999834060669,learn,60000.0,Thu Apr 10 2025 18:06:49 GMT-0500 (Central Daylight Time),650050.5,A,let,O,t,184,1,665.2999999998137,649385.2000000002,7109,WL,C,2.0
5,3.982999801635742,learn,60000.0,Thu Apr 10 2025 18:06:49 GMT-0500 (Central Daylight Time),650283.7000000002,A,lett,O,t,226,1,898.5,649385.2000000002,7109,WL,C,2.0
5,4.182999849319458,learn,60000.0,Thu Apr 10 2025 18:06:49 GMT-0500 (Central Daylight Time),650484.5,A,lette,O,e,194,1,1099.2999999998137,649385.2000000002,7109,WL,C,2.0
5,4.247999906539917,learn,60000.0,Thu Apr 10 2025 18:06:49 GMT-0500 (Central Daylight Time),650549.2000000002,A,letter,O,r,53,1,1164.0,649385.2000000002,7109,WL,C,2.0
5,4.4649999141693115,learn,60000.0,Thu Apr 10 2025 18:06:49 GMT-0500 (Central Daylight Time),650766.5999999996,A,letterenter,O,enter,205,1,1381.3999999994412,649385.2000000002,7109,WL,C,2.0
5,5.067999839782715,learn,60000.0,Thu Apr 10 2025 18:06:49 GMT-0500 (Central Daylight Time),651368.7000000002,A,f,O,f,596,1,601.7999999998137,650766.9000000004,7109,WL,C,3.0
5,5.230999946594238,learn,60000.0,Thu Apr 10 2025 18:06:49 GMT-0500 (Central Daylight Time),651532.5999999996,A,fa,O,a,158,1,765.6999999992549,650766.9000000004,7109,WL,C,3.0
5,5.882999897003174,learn,60000.0,Thu Apr 10 2025 18:06:49 GMT-0500 (Central Daylight Time),652184.2000000002,A,f,O,backspace,631,1,1417.2999999998137,650766.9000000004,7109,WL,C,3.0
5,6.1499998569488525,learn,60000.0,Thu Apr 10 2025 18:06:49 GMT-0500 (Central Daylight Time),652451.0999999996,A,fl,O,l,260,1,1684.199999999255,650766.9000000004,7109,WL,C,3.0
5,6.2829999923706055,learn,60000.0,Thu Apr 10 2025 18:06:49 GMT-0500 (Central Daylight Time),652583.7000000002,A,fla,O,a,121,1,1816.7999999998137,650766.9000000004,7109,WL,C,3.0
5,6.448999881744385,learn,60000.0,Thu Apr 10 2025 18:06:49 GMT-0500 (Central Daylight Time),652750.4000000004,A,flag,O,g,148,1,1983.5,650766.9000000004,7109,WL,C,3.0
5,6.631999969482422,learn,60000.0,Thu Apr 10 2025 18:06:49 GMT-0500 (Central Daylight Time),652933.2999999998,A,flagenter,O,enter,165,1,2166.399999999441,650766.9000000004,7109,WL,C,3.0
5,8.164999961853027,learn,60000.0,Thu Apr 10 2025 18:06:49 GMT-0500 (Central Daylight Time),654466.7000000002,A,t,O,t,1520,1,1533.0,652933.7000000002,7109,WL,C,4.0
5,8.281999826431274,learn,60000.0,Thu Apr 10 2025 18:06:49 GMT-0500 (Central Daylight Time),654583.5,A,to,O,o,97,1,1649.7999999998137,652933.7000000002,7109,WL,C,4.0
5,8.365999937057495,learn,60000.0,Thu Apr 10 2025 18:06:49 GMT-0500 (Central Daylight Time),654667.2999999998,A,tow,O,w,77,1,1733.5999999996275,652933.7000000002,7109,WL,C,4.0
5,8.497999906539917,learn,60000.0,Thu Apr 10 2025 18:06:49 GMT-0500 (Central Daylight Time),654799.5,A,towe,O,e,121,1,1865.7999999998137,652933.7000000002,7109,WL,C,4.0
5,8.61299991607666,learn,60000.0,Thu Apr 10 2025 18:06:49 GMT-0500 (Central Daylight Time),654914.7000000002,A,tower,O,r,107,1,1981.0,652933.7000000002,7109,WL,C,4.0
5,9.13099980354309,learn,60000.0,Thu Apr 10 2025 18:06:49 GMT-0500 (Central Daylight Time),655432.0999999996,A,towerenter,O,enter,506,1,2498.399999999441,652933.7000000002,7109,WL,C,4.0
5,9.549000024795532,learn,60000.0,Thu Apr 10 2025 18:06:49 GMT-0500 (Central Daylight Time),655850.0,A,w,O,w,396,1,417.70000000018626,655432.2999999998,7109,WL,C,5.0
5,9.61299991607666,learn,60000.0,Thu Apr 10 2025 18:06:49 GMT-0500 (Central Daylight Time),655914.5,A,wh,O,h,49,1,482.20000000018626,655432.2999999998,7109,WL,C,5.0
5,9.746999979019165,learn,60000.0,Thu Apr 10 2025 18:06:49 GMT-0500 (Central Daylight Time),656048.2999999998,A,whe,O,e,121,1,616.0,655432.2999999998,7109,WL,C,5.0
5,9.865000009536743,learn,60000.0,Thu Apr 10 2025 18:06:49 GMT-0500 (Central Daylight Time),656166.5,A,whea,O,a,100,1,734.2000000001863,655432.2999999998,7109,WL,C,5.0
5,9.964999914169312,learn,60000.0,Thu Apr 10 2025 18:06:49 GMT-0500 (Central Daylight Time),656266.0999999996,A,wheat,O,t,83,1,833.7999999998137,655432.2999999998,7109,WL,C,5.0
5,10.480000019073486,learn,60000.0,Thu Apr 10 2025 18:06:49 GMT-0500 (Central Daylight Time),656781.2000000002,A,wheatenter,O,enter,506,1,1348.9000000003725,655432.2999999998,7109,WL,C,5.0
5,11.31499981880188,learn,60000.0,Thu Apr 10 2025 18:06:49 GMT-0500 (Central Daylight Time),657616.5999999996,A,q,O,q,815,1,835.0999999996275,656781.5,7109,WL,C,6.0
5,11.429999828338623,learn,60000.0,Thu Apr 10 2025 18:06:49 GMT-0500 (Central Daylight Time),657731.5,A,qu,O,u,100,1,950.0,656781.5,7109,WL,C,6.0
5,11.565999984741211,learn,60000.0,Thu Apr 10 2025 18:06:49 GMT-0500 (Central Daylight Time),657867.0999999996,A,que,O,e,120,1,1085.5999999996275,656781.5,7109,WL,C,6.0
5,11.797999858856201,learn,60000.0,Thu Apr 10 2025 18:06:49 GMT-0500 (Central Daylight Time),658099.0999999996,A,quee,O,e,228,1,1317.5999999996275,656781.5,7109,WL,C,6.0
5,11.997999906539917,learn,60000.0,Thu Apr 10 2025 18:06:49 GMT-0500 (Central Daylight Time),658299.0999999996,A,queen,O,n,187,1,1517.5999999996275,656781.5,7109,WL,C,6.0
5,12.27999997138977,learn,60000.0,Thu Apr 10 2025 18:06:49 GMT-0500 (Central Daylight Time),658581.5999999996,A,queenenter,O,enter,265,1,1800.0999999996275,656781.5,7109,WL,C,6.0
5,13.797999858856201,learn,60000.0,Thu Apr 10 2025 18:06:49 GMT-0500 (Central Daylight Time),660099.0,A,f,O,f,1513,1,1517.0,658582.0,7109,WL,C,7.0
5,13.94599986076355,learn,60000.0,Thu Apr 10 2025 18:06:49 GMT-0500 (Central Daylight Time),660247.2999999998,A,fl,O,l,129,1,1665.2999999998137,658582.0,7109,WL,C,7.0
5,14.078999996185303,learn,60000.0,Thu Apr 10 2025 18:06:49 GMT-0500 (Central Daylight Time),660380.2999999998,A,fla,O,a,118,1,1798.2999999998137,658582.0,7109,WL,C,7.0
5,14.179999828338623,learn,60000.0,Thu Apr 10 2025 18:06:49 GMT-0500 (Central Daylight Time),660481.7000000002,A,flag,O,g,79,1,1899.7000000001863,658582.0,7109,WL,C,7.0
5,14.379999876022339,learn,60000.0,Thu Apr 10 2025 18:06:49 GMT-0500 (Central Daylight Time),660681.5,A,flagenter,O,enter,185,1,2099.5,658582.0,7109,WL,C,7.0
5,16.44599986076355,learn,60000.0,Thu Apr 10 2025 18:06:49 GMT-0500 (Central Daylight Time),662747.2000000002,A,d,O,d,2052,1,2065.5,660681.7000000002,7109,WL,C,8.0
5,16.59500002861023,learn,60000.0,Thu Apr 10 2025 18:06:49 GMT-0500 (Central Daylight Time),662896.0,A,do,O,o,138,1,2214.2999999998137,660681.7000000002,7109,WL,C,8.0
5,16.796000003814697,learn,60000.0,Thu Apr 10 2025 18:06:49 GMT-0500 (Central Daylight Time),663097.5,A,doc,O,c,181,1,2415.7999999998137,660681.7000000002,7109,WL,C,8.0
5,17.01199984550476,learn,60000.0,Thu Apr 10 2025 18:06:49 GMT-0500 (Central Daylight Time),663313.7999999998,A,doct,O,t,203,1,2632.0999999996275,660681.7000000002,7109,WL,C,8.0
5,17.17899990081787,learn,60000.0,Thu Apr 10 2025 18:06:49 GMT-0500 (Central Daylight Time),663480.5999999996,A,docto,O,o,146,1,2798.899999999441,660681.7000000002,7109,WL,C,8.0
5,17.245999813079834,learn,60000.0,Thu Apr 10 2025 18:06:49 GMT-0500 (Central Daylight Time),663547.0,A,doctor,O,r,61,1,2865.2999999998137,660681.7000000002,7109,WL,C,8.0
5,17.57799983024597,learn,60000.0,Thu Apr 10 2025 18:06:49 GMT-0500 (Central Daylight Time),663879.2999999998,A,doctorenter,O,enter,313,1,3197.5999999996275,660681.7000000002,7109,WL,C,8.0
5,18.51199984550476,learn,60000.0,Thu Apr 10 2025 18:06:49 GMT-0500 (Central Daylight Time),664813.2999999998,A,s,O,s,918,1,933.7000000001863,663879.5999999996,7109,WL,C,9.0
5,18.610999822616577,learn,60000.0,Thu Apr 10 2025 18:06:49 GMT-0500 (Central Daylight Time),664912.2999999998,A,sh,O,h,78,1,1032.7000000001863,663879.5999999996,7109,WL,C,9.0
5,18.728999853134155,learn,60000.0,Thu Apr 10 2025 18:06:49 GMT-0500 (Central Daylight Time),665030.5,A,sho,O,o,99,1,1150.9000000003725,663879.5999999996,7109,WL,C,9.0
5,18.82699990272522,learn,60000.0,Thu Apr 10 2025 18:06:49 GMT-0500 (Central Daylight Time),665128.5999999996,A,shor,O,r,84,1,1249.0,663879.5999999996,7109,WL,C,9.0
5,19.060999870300293,learn,60000.0,Thu Apr 10 2025 18:06:49 GMT-0500 (Central Daylight Time),665362.9000000004,A,short,O,t,227,1,1483.300000000745,663879.5999999996,7109,WL,C,9.0
5,19.49399995803833,learn,60000.0,Thu Apr 10 2025 18:06:49 GMT-0500 (Central Daylight Time),665795.7999999998,A,shor,O,backspace,427,1,1916.2000000001863,663879.5999999996,7109,WL,C,9.0
5,19.661999940872192,learn,60000.0,Thu Apr 10 2025 18:06:49 GMT-0500 (Central Daylight Time),665963.0999999996,A,shore,O,e,152,1,2083.5,663879.5999999996,7109,WL,C,9.0
5,19.793999910354614,learn,60000.0,Thu Apr 10 2025 18:06:49 GMT-0500 (Central Daylight Time),666095.5,A,shoreenter,O,enter,122,1,2215.9000000003725,663879.5999999996,7109,WL,C,9.0
5,20.143999814987183,learn,60000.0,Thu Apr 10 2025 18:06:49 GMT-0500 (Central Daylight Time),666445.5,A,b,O,b,341,1,349.79999999981374,666095.7000000002,7109,WL,C,10.0
5,20.243000030517578,learn,60000.0,Thu Apr 10 2025 18:06:49 GMT-0500 (Central Daylight Time),666544.2000000002,A,bo,O,o,80,1,448.5,666095.7000000002,7109,WL,C,10.0
5,20.41100001335144,learn,60000.0,Thu Apr 10 2025 18:06:49 GMT-0500 (Central Daylight Time),666712.4000000004,A,bod,O,d,158,1,616.7000000001863,666095.7000000002,7109,WL,C,10.0
5,20.494999885559082,learn,60000.0,Thu Apr 10 2025 18:06:49 GMT-0500 (Central Daylight Time),666796.0,A,body,O,y,81,1,700.2999999998137,666095.7000000002,7109,WL,C,10.0
5,20.759999990463257,learn,60000.0,Thu Apr 10 2025 18:06:49 GMT-0500 (Central Daylight Time),667061.7000000002,A,bodyenter,O,enter,250,1,966.0,666095.7000000002,7109,WL,C,10.0
5,29.740999937057495,learn,60000.0,Thu Apr 10 2025 18:06:49 GMT-0500 (Central Daylight Time),676042.7999999998,A,h,O,h,8968,1,8980.799999999814,667062.0,7109,WL,C,11.0
5,29.924999952316284,learn,60000.0,Thu Apr 10 2025 18:06:49 GMT-0500 (Central Daylight Time),676226.7000000002,A,ho,O,o,177,1,9164.700000000186,667062.0,7109,WL,C,11.0
5,30.057999849319458,learn,60000.0,Thu Apr 10 2025 18:06:49 GMT-0500 (Central Daylight Time),676359.9000000004,A,hom,O,m,113,1,9297.900000000373,667062.0,7109,WL,C,11.0
5,30.20799994468689,learn,60000.0,Thu Apr 10 2025 18:06:49 GMT-0500 (Central Daylight Time),676509.2999999998,A,home,O,e,140,1,9447.299999999814,667062.0,7109,WL,C,11.0
5,30.391000032424927,learn,60000.0,Thu Apr 10 2025 18:06:49 GMT-0500 (Central Daylight Time),676692.4000000004,A,homeenter,O,enter,174,1,9630.400000000373,667062.0,7109,WL,C,11.0
5,30.823999881744385,learn,60000.0,Thu Apr 10 2025 18:06:49 GMT-0500 (Central Daylight Time),677125.7000000002,A,l,O,l,425,1,432.90000000037253,676692.7999999998,7109,WL,C,12.0
5,30.94099998474121,learn,60000.0,Thu Apr 10 2025 18:06:49 GMT-0500 (Central Daylight Time),677242.0999999996,A,le,O,e,96,1,549.2999999998137,676692.7999999998,7109,WL,C,12.0
5,31.073999881744385,learn,60000.0,Thu Apr 10 2025 18:06:49 GMT-0500 (Central Daylight Time),677375.7999999998,A,let,O,t,112,1,683.0,676692.7999999998,7109,WL,C,12.0
5,31.257999897003174,learn,60000.0,Thu Apr 10 2025 18:06:49 GMT-0500 (Central Daylight Time),677559.5,A,lett,O,t,172,1,866.7000000001863,676692.7999999998,7109,WL,C,12.0
5,31.375,learn,60000.0,Thu Apr 10 2025 18:06:49 GMT-0500 (Central Daylight Time),677676.0,A,lette,O,e,111,1,983.2000000001863,676692.7999999998,7109,WL,C,12.0
5,31.457000017166138,learn,60000.0,Thu Apr 10 2025 18:06:49 GMT-0500 (Central Daylight Time),677758.2000000002,A,letter,O,r,63,1,1065.4000000003725,676692.7999999998,7109,WL,C,12.0
5,31.556999921798706,learn,60000.0,Thu Apr 10 2025 18:06:49 GMT-0500 (Central Daylight Time),677858.0,A,letterenter,O,enter,94,1,1165.2000000001863,676692.7999999998,7109,WL,C,12.0
5,33.222999811172485,learn,60000.0,Thu Apr 10 2025 18:06:49 GMT-0500 (Central Daylight Time),679524.0,A,c,O,c,1659,1,1665.7999999998137,677858.2000000002,7109,WL,C,13.0
5,33.32499980926514,learn,60000.0,Thu Apr 10 2025 18:06:49 GMT-0500 (Central Daylight Time),679626.0,A,co,O,o,95,1,1767.7999999998137,677858.2000000002,7109,WL,C,13.0
5,33.43999981880188,learn,60000.0,Thu Apr 10 2025 18:06:49 GMT-0500 (Central Daylight Time),679741.5,A,cor,O,r,105,1,1883.2999999998137,677858.2000000002,7109,WL,C,13.0
5,33.556999921798706,learn,60000.0,Thu Apr 10 2025 18:06:49 GMT-0500 (Central Daylight Time),679858.5,A,corn,O,n,99,1,2000.2999999998137,677858.2000000002,7109,WL,C,13.0
5,33.757999897003174,learn,60000.0,Thu Apr 10 2025 18:06:49 GMT-0500 (Central Daylight Time),680059.2999999998,A,cornenter,O,enter,193,1,2201.0999999996275,677858.2000000002,7109,WL,C,13.0
5,36.45700001716614,learn,60000.0,Thu Apr 10 2025 18:06:49 GMT-0500 (Central Daylight Time),682758.0999999996,A,c,O,c,2681,1,2698.399999999441,680059.7000000002,7109,WL,C,14.0
5,36.592000007629395,learn,60000.0,Thu Apr 10 2025 18:06:49 GMT-0500 (Central Daylight Time),682893.7000000002,A,ca,O,a,129,1,2834.0,680059.7000000002,7109,WL,C,14.0
5,36.83999991416931,learn,60000.0,Thu Apr 10 2025 18:06:49 GMT-0500 (Central Daylight Time),683141.7999999998,A,cat,O,t,230,1,3082.0999999996275,680059.7000000002,7109,WL,C,14.0
5,36.99000000953674,learn,60000.0,Thu Apr 10 2025 18:06:49 GMT-0500 (Central Daylight Time),683291.0999999996,A,catt,O,t,142,1,3231.399999999441,680059.7000000002,7109,WL,C,14.0
5,37.139999866485596,learn,60000.0,Thu Apr 10 2025 18:06:49 GMT-0500 (Central Daylight Time),683441.9000000004,A,cattl,O,l,137,1,3382.2000000001863,680059.7000000002,7109,WL,C,14.0
5,37.25599980354309,learn,60000.0,Thu Apr 10 2025 18:06:49 GMT-0500 (Central Daylight Time),683557.4000000004,A,cattle,O,e,93,1,3497.7000000001863,680059.7000000002,7109,WL,C,14.0
5,37.388999938964844,learn,60000.0,Thu Apr 10 2025 18:06:49 GMT-0500 (Central Daylight Time),683690.7000000002,A,cattleenter,O,enter,118,1,3631.0,680059.7000000002,7109,WL,C,14.0
5,46.620999813079834,learn,60000.0,Thu Apr 10 2025 18:06:49 GMT-0500 (Central Daylight Time),692922.4000000004,A,d,O,d,9218,1,9231.400000000373,683691.0,7109,WL,C,15.0
5,46.83699989318848,learn,60000.0,Thu Apr 10 2025 18:06:49 GMT-0500 (Central Daylight Time),693138.0999999996,A,do,O,o,203,1,9447.099999999627,683691.0,7109,WL,C,15.0
5,47.03699994087219,learn,60000.0,Thu Apr 10 2025 18:06:49 GMT-0500 (Central Daylight Time),693338.4000000004,A,doc,O,c,194,1,9647.400000000373,683691.0,7109,WL,C,15.0
5,47.28600001335144,learn,60000.0,Thu Apr 10 2025 18:06:49 GMT-0500 (Central Daylight Time),693587.5,A,doct,O,t,243,1,9896.5,683691.0,7109,WL,C,15.0
5,47.48699998855591,learn,60000.0,Thu Apr 10 2025 18:06:49 GMT-0500 (Central Daylight Time),693788.7000000002,A,docto,O,o,194,1,10097.700000000186,683691.0,7109,WL,C,15.0
5,47.65299987792969,learn,60000.0,Thu Apr 10 2025 18:06:49 GMT-0500 (Central Daylight Time),693954.0999999996,A,doctor,O,r,160,1,10263.099999999627,683691.0,7109,WL,C,15.0
5,47.83500003814697,learn,60000.0,Thu Apr 10 2025 18:06:49 GMT-0500 (Central Daylight Time),694136.0999999996,A,doctorenter,O,enter,169,1,10445.099999999627,683691.0,7109,WL,C,15.0
6,0.8670001029968262,distr,59132.999897003174,Thu Apr 10 2025 18:06:49 GMT-0500 (Central Daylight Time),761265.5999999996,B,h,O,h,855,1,866.5,760399.0999999996,7109,WL,C,1.0
6,1.0160000324249268,distr,58983.99996757507,Thu Apr 10 2025 18:06:49 GMT-0500 (Central Daylight Time),761414.5999999996,B,ho,O,o,139,1,1015.5,760399.0999999996,7109,WL,C,1.0
6,1.2009999752044678,distr,58799.00002479553,Thu Apr 10 2025 18:06:49 GMT-0500 (Central Daylight Time),761599.0999999996,B,hot,O,t,164,1,1200.0,760399.0999999996,7109,WL,C,1.0
6,1.3500001430511475,distr,58649.99985694885,Thu Apr 10 2025 18:06:49 GMT-0500 (Central Daylight Time),761748.2999999998,B,hote,O,e,133,1,1349.2000000001863,760399.0999999996,7109,WL,C,1.0
6,1.4670000076293945,distr,58532.999992370605,Thu Apr 10 2025 18:06:49 GMT-0500 (Central Daylight Time),761865.7000000002,B,hotel,O,l,111,1,1466.6000000005588,760399.0999999996,7109,WL,C,1.0
6,1.9000000953674316,distr,58099.99990463257,Thu Apr 10 2025 18:06:49 GMT-0500 (Central Daylight Time),762298.4000000004,B,hotelenter,O,enter,427,1,1899.300000000745,760399.0999999996,7109,WL,C,1.0
6,2.2680001258850098,distr,57731.99987411499,Thu Apr 10 2025 18:06:49 GMT-0500 (Central Daylight Time),762666.7000000002,B,s,O,s,362,1,368.0,762298.7000000002,7109,WL,C,2.0
6,2.5490000247955322,distr,57450.99997520447,Thu Apr 10 2025 18:06:49 GMT-0500 (Central Daylight Time),762947.7999999998,B,sk,O,k,274,1,649.0999999996275,762298.7000000002,7109,WL,C,2.0
6,2.884000062942505,distr,57115.999937057495,Thu Apr 10 2025 18:06:49 GMT-0500 (Central Daylight Time),763282.5,B,sku,O,u,329,1,983.7999999998137,762298.7000000002,7109,WL,C,2.0
6,3.5829999446868896,distr,56417.00005531311,Thu Apr 10 2025 18:06:49 GMT-0500 (Central Daylight Time),763981.4000000004,B,sk,O,backspace,690,1,1682.7000000001863,762298.7000000002,7109,WL,C,2.0
6,4.401000022888184,distr,55598.99997711182,Thu Apr 10 2025 18:06:49 GMT-0500 (Central Daylight Time),764799.2000000002,B,sky,O,y,807,1,2500.5,762298.7000000002,7109,WL,C,2.0
6,4.684000015258789,distr,55315.99998474121,Thu Apr 10 2025 18:06:49 GMT-0500 (Central Daylight Time),765082.2999999998,B,skyenter,O,enter,277,1,2783.5999999996275,762298.7000000002,7109,WL,C,2.0
6,5.733999967575073,distr,54266.00003242493,Thu Apr 10 2025 18:06:49 GMT-0500 (Central Daylight Time),766132.5,B,b,O,b,1044,1,1050.0,765082.5,7109,WL,C,3.0
6,5.865000009536743,distr,54134.99999046326,Thu Apr 10 2025 18:06:49 GMT-0500 (Central Daylight Time),766264.0,B,bu,O,u,119,1,1181.5,765082.5,7109,WL,C,3.0
6,6.016000032424927,distr,53983.99996757507,Thu Apr 10 2025 18:06:49 GMT-0500 (Central Daylight Time),766414.4000000004,B,but,O,t,141,1,1331.9000000003725,765082.5,7109,WL,C,3.0
6,6.197999954223633,distr,53802.00004577637,Thu Apr 10 2025 18:06:49 GMT-0500 (Central Daylight Time),766596.7000000002,B,butt,O,t,174,1,1514.2000000001863,765082.5,7109,WL,C,3.0
6,6.332000017166138,distr,53667.99998283386,Thu Apr 10 2025 18:06:49 GMT-0500 (Central Daylight Time),766730.2999999998,B,butte,O,e,129,1,1647.7999999998137,765082.5,7109,WL,C,3.0
6,6.414999961853027,distr,53585.00003814697,Thu Apr 10 2025 18:06:49 GMT-0500 (Central Daylight Time),766813.5999999996,B,butter,O,r,73,1,1731.0999999996275,765082.5,7109,WL,C,3.0
6,6.565000057220459,distr,53434.99994277954,Thu Apr 10 2025 18:06:49 GMT-0500 (Central Daylight Time),766963.7000000002,B,butterenter,O,enter,144,1,1881.2000000001863,765082.5,7109,WL,C,3.0
6,6.8480000495910645,distr,53151.999950408936,Thu Apr 10 2025 18:06:49 GMT-0500 (Central Daylight Time),767246.5,B,t,O,t,274,1,282.59999999962747,766963.9000000004,7109,WL,C,4.0
6,7.331000089645386,distr,52668.999910354614,Thu Apr 10 2025 18:06:49 GMT-0500 (Central Daylight Time),767729.7999999998,B,to,O,o,469,1,765.8999999994412,766963.9000000004,7109,WL,C,4.0
6,7.499000072479248,distr,52500.99992752075,Thu Apr 10 2025 18:06:49 GMT-0500 (Central Daylight Time),767897.2999999998,B,too,O,o,155,1,933.3999999994412,766963.9000000004,7109,WL,C,4.0
6,7.832000017166138,distr,52167.99998283386,Thu Apr 10 2025 18:06:49 GMT-0500 (Central Daylight Time),768230.4000000004,B,tool,O,l,324,1,1266.5,766963.9000000004,7109,WL,C,4.0
6,8.197999954223633,distr,51802.00004577637,Thu Apr 10 2025 18:06:49 GMT-0500 (Central Daylight Time),768596.4000000004,B,toolenter,O,enter,349,1,1632.5,766963.9000000004,7109,WL,C,4.0
6,18.411999940872192,distr,41588.00005912781,Thu Apr 10 2025 18:06:49 GMT-0500 (Central Daylight Time),778810.7000000002,B,m,O,m,10201,1,10214.100000000559,768596.5999999996,7109,WL,C,5.0
6,18.611000061035156,distr,41388.999938964844,Thu Apr 10 2025 18:06:49 GMT-0500 (Central Daylight Time),779010.0999999996,B,mo,O,o,176,1,10413.5,768596.5999999996,7109,WL,C,5.0
6,18.710000038146973,distr,41289.99996185303,Thu Apr 10 2025 18:06:49 GMT-0500 (Central Daylight Time),779109.0,B,mon,O,n,88,1,10512.400000000373,768596.5999999996,7109,WL,C,5.0
6,18.861999988555908,distr,41138.00001144409,Thu Apr 10 2025 18:06:49 GMT-0500 (Central Daylight Time),779260.4000000004,B,mone,O,e,141,1,10663.800000000745,768596.5999999996,7109,WL,C,5.0
6,19.02900004386902,distr,40970.99995613098,Thu Apr 10 2025 18:06:49 GMT-0500 (Central Daylight Time),779427.7999999998,B,money,O,y,159,1,10831.200000000186,768596.5999999996,7109,WL,C,5.0
6,19.625,distr,40375.0,Thu Apr 10 2025 18:06:49 GMT-0500 (Central Daylight Time),780024.2000000002,B,moneyenter,O,enter,581,1,11427.600000000559,768596.5999999996,7109,WL,C,5.0
6,60.01200008392334,distr,-12.000083923339844,Thu Apr 10 2025 18:06:49 GMT-0500 (Central Daylight Time),820411.0999999996,B,None,O,None,40384,1,40386.699999999255,780024.4000000004,7109,WL,C,6.0
7,3.6649999618530273,immed,56335.00003814697,Thu Apr 10 2025 18:06:49 GMT-0500 (Central Daylight Time),830058.9000000004,A,t,O,t,3651,1,3664.800000000745,826394.0999999996,7109,WL,C,1.0
7,3.7809998989105225,immed,56219.00010108948,Thu Apr 10 2025 18:06:49 GMT-0500 (Central Daylight Time),830174.5,A,to,O,o,106,1,3780.4000000003725,826394.0999999996,7109,WL,C,1.0
7,4.181999921798706,immed,55818.000078201294,Thu Apr 10 2025 18:06:49 GMT-0500 (Central Daylight Time),830575.5,A,tow,O,w,382,1,4181.4000000003725,826394.0999999996,7109,WL,C,1.0
7,4.31499981880188,immed,55685.00018119812,Thu Apr 10 2025 18:06:49 GMT-0500 (Central Daylight Time),830708.9000000004,A,towe,O,e,118,1,4314.800000000745,826394.0999999996,7109,WL,C,1.0
7,4.429999828338623,immed,55570.00017166138,Thu Apr 10 2025 18:06:49 GMT-0500 (Central Daylight Time),830824.2000000002,A,tower,O,r,101,1,4430.100000000559,826394.0999999996,7109,WL,C,1.0
7,4.898000001907349,immed,55101.99999809265,Thu Apr 10 2025 18:06:49 GMT-0500 (Central Daylight Time),831291.4000000004,A,towerenter,O,enter,460,1,4897.300000000745,826394.0999999996,7109,WL,C,1.0
7,5.5309998989105225,immed,54469.00010108948,Thu Apr 10 2025 18:06:49 GMT-0500 (Central Daylight Time),831924.9000000004,A,w,O,w,617,1,633.3000000007451,831291.5999999996,7109,WL,C,2.0
7,5.629999876022339,immed,54370.00012397766,Thu Apr 10 2025 18:06:49 GMT-0500 (Central Daylight Time),832024.2999999998,A,wh,O,h,88,1,732.7000000001863,831291.5999999996,7109,WL,C,2.0
7,5.796999931335449,immed,54203.00006866455,Thu Apr 10 2025 18:06:49 GMT-0500 (Central Daylight Time),832191.0999999996,A,whe,O,e,157,1,899.5,831291.5999999996,7109,WL,C,2.0
7,6.296000003814697,immed,53703.9999961853,Thu Apr 10 2025 18:06:49 GMT-0500 (Central Daylight Time),832690.2999999998,A,whea,O,a,485,1,1398.7000000001863,831291.5999999996,7109,WL,C,2.0
7,6.398000001907349,immed,53601.99999809265,Thu Apr 10 2025 18:06:49 GMT-0500 (Central Daylight Time),832791.4000000004,A,wheat,O,t,91,1,1499.800000000745,831291.5999999996,7109,WL,C,2.0
7,6.896999835968018,immed,53103.00016403198,Thu Apr 10 2025 18:06:49 GMT-0500 (Central Daylight Time),833290.7999999998,A,wheatenter,O,enter,485,1,1999.2000000001863,831291.5999999996,7109,WL,C,2.0
7,7.179999828338623,immed,52820.00017166138,Thu Apr 10 2025 18:06:49 GMT-0500 (Central Daylight Time),833573.2999999998,A,q,O,q,266,1,282.20000000018626,833291.0999999996,7109,WL,C,3.0
7,7.346999883651733,immed,52653.00011634827,Thu Apr 10 2025 18:06:49 GMT-0500 (Central Daylight Time),833741.0999999996,A,qu,O,u,151,1,450.0,833291.0999999996,7109,WL,C,3.0
7,7.646999835968018,immed,52353.00016403198,Thu Apr 10 2025 18:06:49 GMT-0500 (Central Daylight Time),834040.5999999996,A,que,O,e,280,1,749.5,833291.0999999996,7109,WL,C,3.0
7,7.81499981880188,immed,52185.00018119812,Thu Apr 10 2025 18:06:49 GMT-0500 (Central Daylight Time),834208.9000000004,A,quee,O,e,149,1,917.8000000007451,833291.0999999996,7109,WL,C,3.0
7,7.929999828338623,immed,52070.00017166138,Thu Apr 10 2025 18:06:49 GMT-0500 (Central Daylight Time),834323.5,A,queen,O,n,98,1,1032.4000000003725,833291.0999999996,7109,WL,C,3.0
7,8.263000011444092,immed,51736.99998855591,Thu Apr 10 2025 18:06:49 GMT-0500 (Central Daylight Time),834657.2000000002,A,queenenter,O,enter,329,1,1366.1000000005588,833291.0999999996,7109,WL,C,3.0
7,10.128999948501587,immed,49871.00005149841,Thu Apr 10 2025 18:06:49 GMT-0500 (Central Daylight Time),836522.7000000002,A,d,O,d,1852,1,1865.4000000003725,834657.2999999998,7109,WL,C,4.0
7,10.311999797821045,immed,49688.000202178955,Thu Apr 10 2025 18:06:49 GMT-0500 (Central Daylight Time),836706.2000000002,A,do,O,o,171,1,2048.9000000003725,834657.2999999998,7109,WL,C,4.0
7,10.546000003814697,immed,49453.9999961853,Thu Apr 10 2025 18:06:49 GMT-0500 (Central Daylight Time),836939.9000000004,A,doc,O,c,218,1,2282.600000000559,834657.2999999998,7109,WL,C,4.0
7,10.845999956130981,immed,49154.00004386902,Thu Apr 10 2025 18:06:49 GMT-0500 (Central Daylight Time),837240.2999999998,A,doct,O,t,289,1,2583.0,834657.2999999998,7109,WL,C,4.0
7,10.994999885559082,immed,49005.00011444092,Thu Apr 10 2025 18:06:49 GMT-0500 (Central Daylight Time),837388.7999999998,A,docto,O,o,139,1,2731.5,834657.2999999998,7109,WL,C,4.0
7,11.097999811172485,immed,48902.000188827515,Thu Apr 10 2025 18:06:49 GMT-0500 (Central Daylight Time),837491.5,A,doctor,O,r,95,1,2834.2000000001863,834657.2999999998,7109,WL,C,4.0
7,11.34500002861023,immed,48654.99997138977,Thu Apr 10 2025 18:06:49 GMT-0500 (Central Daylight Time),837739.2000000002,A,doctorenter,O,enter,242,1,3081.9000000003725,834657.2999999998,7109,WL,C,4.0
7,11.828999996185303,immed,48171.0000038147,Thu Apr 10 2025 18:06:49 GMT-0500 (Central Daylight Time),838222.7999999998,A,b,O,b,474,1,483.3999999994412,837739.4000000004,7109,WL,C,5.0
7,11.911999940872192,immed,48088.00005912781,Thu Apr 10 2025 18:06:49 GMT-0500 (Central Daylight Time),838305.9000000004,A,bo,O,o,80,1,566.5,837739.4000000004,7109,WL,C,5.0
7,12.178999900817871,immed,47821.00009918213,Thu Apr 10 2025 18:06:49 GMT-0500 (Central Daylight Time),838573.0,A,boy,O,y,258,1,833.5999999996275,837739.4000000004,7109,WL,C,5.0
7,12.527999877929688,immed,47472.00012207031,Thu Apr 10 2025 18:06:49 GMT-0500 (Central Daylight Time),838922.2000000002,A,boyenter,O,enter,344,1,1182.7999999998137,837739.4000000004,7109,WL,C,5.0
7,12.85099983215332,immed,47149.00016784668,Thu Apr 10 2025 18:06:49 GMT-0500 (Central Daylight Time),839244.7000000002,A,c,O,c,300,1,322.40000000037253,838922.2999999998,7109,WL,C,6.0
7,12.984999895095825,immed,47015.000104904175,Thu Apr 10 2025 18:06:49 GMT-0500 (Central Daylight Time),839379.0999999996,A,ca,O,a,131,1,456.79999999981374,838922.2999999998,7109,WL,C,6.0
7,13.061999797821045,immed,46938.000202178955,Thu Apr 10 2025 18:06:49 GMT-0500 (Central Daylight Time),839456.0,A,cam,O,m,66,1,533.7000000001863,838922.2999999998,7109,WL,C,6.0
7,13.16100001335144,immed,46838.99998664856,Thu Apr 10 2025 18:06:49 GMT-0500 (Central Daylight Time),839555.4000000004,A,camp,O,p,93,1,633.1000000005588,838922.2999999998,7109,WL,C,6.0
7,13.895999908447266,immed,46104.000091552734,Thu Apr 10 2025 18:06:49 GMT-0500 (Central Daylight Time),840290.2999999998,A,campenter,O,enter,714,1,1368.0,838922.2999999998,7109,WL,C,6.0
7,14.210999965667725,immed,45789.000034332275,Thu Apr 10 2025 18:06:49 GMT-0500 (Central Daylight Time),840604.7999999998,A,f,O,f,298,1,314.29999999981374,840290.5,7109,WL,C,7.0
7,14.378999948501587,immed,45621.00005149841,Thu Apr 10 2025 18:06:49 GMT-0500 (Central Daylight Time),840772.5999999996,A,fl,O,l,152,1,482.09999999962747,840290.5,7109,WL,C,7.0
7,14.460999965667725,immed,45539.000034332275,Thu Apr 10 2025 18:06:49 GMT-0500 (Central Daylight Time),840854.7999999998,A,fla,O,a,72,1,564.2999999998137,840290.5,7109,WL,C,7.0
7,14.560999870300293,immed,45439.00012969971,Thu Apr 10 2025 18:06:49 GMT-0500 (Central Daylight Time),840954.7999999998,A,flag,O,g,94,1,664.2999999998137,840290.5,7109,WL,C,7.0
7,14.811999797821045,immed,45188.000202178955,Thu Apr 10 2025 18:06:49 GMT-0500 (Central Daylight Time),841206.0,A,flagenter,O,enter,235,1,915.5,840290.5,7109,WL,C,7.0
7,17.15999984741211,immed,42840.00015258789,Thu Apr 10 2025 18:06:49 GMT-0500 (Central Daylight Time),843553.9000000004,A,l,O,l,2343,1,2347.7000000001863,841206.2000000002,7109,WL,C,8.0
7,17.293999910354614,immed,42706.000089645386,Thu Apr 10 2025 18:06:49 GMT-0500 (Central Daylight Time),843687.9000000004,A,le,O,e,123,1,2481.7000000001863,841206.2000000002,7109,WL,C,8.0
7,17.509999990463257,immed,42490.00000953674,Thu Apr 10 2025 18:06:49 GMT-0500 (Central Daylight Time),843903.7999999998,A,let,O,t,197,1,2697.5999999996275,841206.2000000002,7109,WL,C,8.0
7,17.694000005722046,immed,42305.999994277954,Thu Apr 10 2025 18:06:49 GMT-0500 (Central Daylight Time),844087.9000000004,A,lett,O,t,164,1,2881.7000000001863,841206.2000000002,7109,WL,C,8.0
7,17.875999927520752,immed,42124.00007247925,Thu Apr 10 2025 18:06:49 GMT-0500 (Central Daylight Time),844270.0999999996,A,lette,O,e,164,1,3063.899999999441,841206.2000000002,7109,WL,C,8.0
7,17.925999879837036,immed,42074.000120162964,Thu Apr 10 2025 18:06:49 GMT-0500 (Central Daylight Time),844320.4000000004,A,letter,O,r,46,1,3114.2000000001863,841206.2000000002,7109,WL,C,8.0
7,18.109999895095825,immed,41890.000104904175,Thu Apr 10 2025 18:06:49 GMT-0500 (Central Daylight Time),844503.9000000004,A,letterenter,O,enter,164,1,3297.7000000001863,841206.2000000002,7109,WL,C,8.0
7,18.359999895095825,immed,41640.000104904175,Thu Apr 10 2025 18:06:49 GMT-0500 (Central Daylight Time),844754.2000000002,A,n,O,n,235,1,250.0,844504.2000000002,7109,WL,C,9.0
7,18.508999824523926,immed,41491.000175476074,Thu Apr 10 2025 18:06:49 GMT-0500 (Central Daylight Time),844903.5,A,na,O,a,130,1,399.29999999981374,844504.2000000002,7109,WL,C,9.0
7,18.592000007629395,immed,41407.999992370605,Thu Apr 10 2025 18:06:49 GMT-0500 (Central Daylight Time),844986.4000000004,A,nai,O,i,68,1,482.20000000018626,844504.2000000002,7109,WL,C,9.0
7,18.70899987220764,immed,41291.00012779236,Thu Apr 10 2025 18:06:49 GMT-0500 (Central Daylight Time),845103.4000000004,A,nail,O,l,106,1,599.2000000001863,844504.2000000002,7109,WL,C,9.0
7,19.043999910354614,immed,40956.000089645386,Thu Apr 10 2025 18:06:49 GMT-0500 (Central Daylight Time),845437.5,A,nailenter,O,enter,317,1,933.2999999998137,844504.2000000002,7109,WL,C,9.0
7,21.991999864578247,immed,38008.00013542175,Thu Apr 10 2025 18:06:49 GMT-0500 (Central Daylight Time),848385.5,A,c,O,c,2937,1,2947.7999999998137,845437.7000000002,7109,WL,C,10.0
7,22.109999895095825,immed,37890.000104904175,Thu Apr 10 2025 18:06:49 GMT-0500 (Central Daylight Time),848504.4000000004,A,ca,O,a,115,1,3066.7000000001863,845437.7000000002,7109,WL,C,10.0
7,22.324999809265137,immed,37675.00019073486,Thu Apr 10 2025 18:06:49 GMT-0500 (Central Daylight Time),848718.7000000002,A,cat,O,t,204,1,3281.0,845437.7000000002,7109,WL,C,10.0
7,22.47499990463257,immed,37525.00009536743,Thu Apr 10 2025 18:06:49 GMT-0500 (Central Daylight Time),848868.5999999996,A,catt,O,t,142,1,3430.899999999441,845437.7000000002,7109,WL,C,10.0
7,22.608999967575073,immed,37391.00003242493,Thu Apr 10 2025 18:06:49 GMT-0500 (Central Daylight Time),849002.9000000004,A,cattl,O,l,120,1,3565.2000000001863,845437.7000000002,7109,WL,C,10.0
7,22.70799994468689,immed,37292.00005531311,Thu Apr 10 2025 18:06:49 GMT-0500 (Central Daylight Time),849102.0,A,cattle,O,e,89,1,3664.2999999998137,845437.7000000002,7109,WL,C,10.0
7,22.875999927520752,immed,37124.00007247925,Thu Apr 10 2025 18:06:49 GMT-0500 (Central Daylight Time),849269.7000000002,A,cattleenter,O,enter,151,1,3832.0,845437.7000000002,7109,WL,C,10.0
7,26.740999937057495,immed,33259.000062942505,Thu Apr 10 2025 18:06:49 GMT-0500 (Central Daylight Time),853135.0999999996,A,c,O,c,3847,1,3865.199999999255,849269.9000000004,7109,WL,C,11.0
7,26.872999906539917,immed,33127.00009346008,Thu Apr 10 2025 18:06:49 GMT-0500 (Central Daylight Time),853267.4000000004,A,co,O,o,118,1,3997.5,849269.9000000004,7109,WL,C,11.0
7,26.972999811172485,immed,33027.000188827515,Thu Apr 10 2025 18:06:49 GMT-0500 (Central Daylight Time),853367.5,A,cor,O,r,81,1,4097.5999999996275,849269.9000000004,7109,WL,C,11.0
7,27.10699987411499,immed,32893.00012588501,Thu Apr 10 2025 18:06:49 GMT-0500 (Central Daylight Time),853500.5999999996,A,corn,O,n,118,1,4230.699999999255,849269.9000000004,7109,WL,C,11.0
7,27.424000024795532,immed,32575.999975204468,Thu Apr 10 2025 18:06:49 GMT-0500 (Central Daylight Time),853818.2999999998,A,cornenter,O,enter,314,1,4548.399999999441,849269.9000000004,7109,WL,C,11.0
7,60.013999938964844,immed,-13.99993896484375,Thu Apr 10 2025 18:06:49 GMT-0500 (Central Daylight Time),886407.7000000002,A,None,O,None,32586,1,32589.200000000186,853818.5,7109,WL,C,12.0
