Number,acc_sum,block,block_c,block_cond,con_img,correct,correct_response,datetime,endtime,jitter,project,response,response_time,row_sel,session_number,start_end,starttime,subject_id,task,task_vers,trial
3,0,prac,1,A,circle.png,0,z,Fri Jan 31 2025 09:50:41 GMT-0600 (Central Standard Time),71025.5,1200,I,None,1513,3,2,3492.10000000149,67533.39999999851,8003,NTS,C,1
2,0,prac,1,A,circle.png,0,z,Fri Jan 31 2025 09:50:41 GMT-0600 (Central Standard Time),75324.10000000149,2000,I,None,1514,2,2,4292.70000000298,71031.39999999851,8003,NTS,C,2
6,0,prac,1,A,circle.png,0,m,Fri Jan 31 2025 09:50:41 GMT-0600 (Central Standard Time),79522.80000000447,1900,I,None,1513,5,2,4193.20000000298,75329.60000000149,8003,NTS,C,3
9,0,prac,1,A,circle.png,0,m,Fri Jan 31 2025 09:50:41 GMT-0600 (Central Standard Time),83321.70000000298,1500,I,None,1514,8,2,3793.39999999851,79528.30000000447,8003,NTS,C,4
7,1,prac,1,A,circle.png,1,m,Fri Jan 31 2025 09:50:41 GMT-0600 (Central Standard Time),86370.70000000298,1700,I,m,563,6,2,3043.3000000044703,83327.39999999851,8003,NTS,C,5
8,2,prac,1,A,circle.png,1,m,Fri Jan 31 2025 09:50:41 GMT-0600 (Central Standard Time),89203.0,1600,I,m,446,7,2,2826.7999999970198,86376.20000000298,8003,NTS,C,6
4,3,prac,1,A,circle.png,1,z,Fri Jan 31 2025 09:50:41 GMT-0600 (Central Standard Time),92000.0,1400,I,z,598,4,2,2791.89999999851,89208.10000000149,8003,NTS,C,7
7,4,prac,1,A,circle.png,1,m,Fri Jan 31 2025 09:50:41 GMT-0600 (Central Standard Time),95184.60000000149,1700,I,m,691,6,2,3179.2999999970198,92005.30000000447,8003,NTS,C,8
9,5,prac,1,A,circle.png,1,m,Fri Jan 31 2025 09:50:41 GMT-0600 (Central Standard Time),98033.80000000447,1500,I,m,549,8,2,2844.10000000149,95189.70000000298,8003,NTS,C,9
1,6,prac,1,A,circle.png,1,z,Fri Jan 31 2025 09:50:41 GMT-0600 (Central Standard Time),100349.60000000149,1000,I,z,518,1,2,2310.2999999970198,98039.30000000447,8003,NTS,C,10
4,7,prac,1,A,circle.png,1,z,Fri Jan 31 2025 09:50:41 GMT-0600 (Central Standard Time),103931.70000000298,1400,I,z,1387,4,2,3577.10000000149,100354.60000000149,8003,NTS,C,11
6,8,prac,1,A,circle.png,1,m,Fri Jan 31 2025 09:50:41 GMT-0600 (Central Standard Time),107380.5,1900,I,m,753,5,2,3443.60000000149,103936.89999999851,8003,NTS,C,12
6,0,prac,1,B,triangle.png,0,m,Fri Jan 31 2025 09:50:41 GMT-0600 (Central Standard Time),161463.5,1000,I,None,1514,5,2,3294.7999999970198,158168.70000000298,8003,NTS,C,1
4,1,prac,1,B,triangle.png,1,m,Fri Jan 31 2025 09:50:41 GMT-0600 (Central Standard Time),164379.3999999985,1500,I,m,629,4,2,2910.89999999851,161468.5,8003,NTS,C,2
9,2,prac,1,B,triangle.png,1,z,Fri Jan 31 2025 09:50:41 GMT-0600 (Central Standard Time),167495.30000000447,1400,I,z,926,8,2,3111.0,164384.30000000447,8003,NTS,C,3
8,2,prac,1,B,triangle.png,0,m,Fri Jan 31 2025 09:50:41 GMT-0600 (Central Standard Time),170177.6000000015,1200,I,z,690,7,2,2677.5,167500.1000000015,8003,NTS,C,4
2,3,prac,1,B,triangle.png,1,m,Fri Jan 31 2025 09:50:41 GMT-0600 (Central Standard Time),173577.70000000298,1700,I,m,916,2,2,3394.89999999851,170182.80000000447,8003,NTS,C,5
6,4,prac,1,B,triangle.png,1,m,Fri Jan 31 2025 09:50:41 GMT-0600 (Central Standard Time),175859.1000000015,1000,I,m,496,5,2,2275.89999999851,173583.20000000298,8003,NTS,C,6
7,5,prac,1,B,triangle.png,1,z,Fri Jan 31 2025 09:50:41 GMT-0600 (Central Standard Time),179224.8999999985,2000,I,z,566,6,2,3360.6999999955297,175864.20000000298,8003,NTS,C,7
7,6,prac,1,B,triangle.png,1,z,Fri Jan 31 2025 09:50:41 GMT-0600 (Central Standard Time),182823.80000000447,2000,I,z,808,6,2,3594.0,179229.80000000447,8003,NTS,C,8
3,7,prac,1,B,triangle.png,1,z,Fri Jan 31 2025 09:50:41 GMT-0600 (Central Standard Time),185939.5,1600,I,z,721,3,2,3110.7999999970198,182828.70000000298,8003,NTS,C,9
2,8,prac,1,B,triangle.png,1,m,Fri Jan 31 2025 09:50:41 GMT-0600 (Central Standard Time),188938.5,1700,I,m,506,2,2,2993.0,185945.5,8003,NTS,C,10
9,9,prac,1,B,triangle.png,1,z,Fri Jan 31 2025 09:50:41 GMT-0600 (Central Standard Time),191871.1000000015,1400,I,z,735,8,2,2927.5,188943.6000000015,8003,NTS,C,11
1,10,prac,1,B,triangle.png,1,z,Fri Jan 31 2025 09:50:41 GMT-0600 (Central Standard Time),195221.6000000015,1900,I,z,678,1,2,3345.7999999970198,191875.80000000447,8003,NTS,C,12
3,0,test,1,A,circle.png,0,z,Fri Jan 31 2025 09:50:41 GMT-0600 (Central Standard Time),223411.0,1200,I,None,1514,3,2,2727.89999999851,220683.1000000015,8003,NTS,C,1
2,1,test,1,A,circle.png,1,z,Fri Jan 31 2025 09:50:41 GMT-0600 (Central Standard Time),226143.6000000015,2000,I,z,710,2,2,2728.60000000149,223415.0,8003,NTS,C,2
8,2,test,1,A,circle.png,1,m,Fri Jan 31 2025 09:50:41 GMT-0600 (Central Standard Time),228509.20000000298,1600,I,m,737,7,2,2362.39999999851,226146.80000000447,8003,NTS,C,3
4,3,test,1,A,circle.png,1,z,Fri Jan 31 2025 09:50:41 GMT-0600 (Central Standard Time),230642.0,1400,I,z,707,4,2,2129.2999999970198,228512.70000000298,8003,NTS,C,4
8,4,test,1,A,circle.png,1,m,Fri Jan 31 2025 09:50:41 GMT-0600 (Central Standard Time),232907.80000000447,1600,I,m,648,7,2,2262.3000000044703,230645.5,8003,NTS,C,5
9,5,test,1,A,circle.png,1,m,Fri Jan 31 2025 09:50:41 GMT-0600 (Central Standard Time),235007.20000000298,1500,I,m,576,8,2,2095.8000000044703,232911.3999999985,8003,NTS,C,6
3,6,test,1,A,circle.png,1,z,Fri Jan 31 2025 09:50:41 GMT-0600 (Central Standard Time),237173.30000000447,1200,I,z,938,3,2,2162.3000000044703,235011.0,8003,NTS,C,7
6,7,test,1,A,circle.png,1,m,Fri Jan 31 2025 09:50:41 GMT-0600 (Central Standard Time),240039.1000000015,1900,I,m,936,5,2,2862.2000000029802,237176.8999999985,8003,NTS,C,8
7,8,test,1,A,circle.png,1,m,Fri Jan 31 2025 09:50:41 GMT-0600 (Central Standard Time),242338.5,1700,I,m,566,6,2,2295.89999999851,240042.6000000015,8003,NTS,C,9
4,9,test,1,A,circle.png,1,z,Fri Jan 31 2025 09:50:41 GMT-0600 (Central Standard Time),244554.5,1400,I,z,791,4,2,2212.2999999970198,242342.20000000298,8003,NTS,C,10
1,10,test,1,A,circle.png,1,z,Fri Jan 31 2025 09:50:41 GMT-0600 (Central Standard Time),246170.30000000447,1000,I,z,590,1,2,1612.0,244558.30000000447,8003,NTS,C,11
6,11,test,1,A,circle.png,1,m,Fri Jan 31 2025 09:50:41 GMT-0600 (Central Standard Time),248719.20000000298,1900,I,m,626,5,2,2545.2000000029802,246174.0,8003,NTS,C,12
4,12,test,1,A,circle.png,1,z,Fri Jan 31 2025 09:50:41 GMT-0600 (Central Standard Time),250785.6000000015,1400,I,z,641,4,2,2062.39999999851,248723.20000000298,8003,NTS,C,13
8,13,test,1,A,circle.png,1,m,Fri Jan 31 2025 09:50:41 GMT-0600 (Central Standard Time),252951.70000000298,1600,I,m,535,7,2,2162.3000000044703,250789.3999999985,8003,NTS,C,14
1,14,test,1,A,circle.png,1,z,Fri Jan 31 2025 09:50:41 GMT-0600 (Central Standard Time),254551.20000000298,1000,I,z,569,1,2,1595.7000000029802,252955.5,8003,NTS,C,15
6,15,test,1,A,circle.png,1,m,Fri Jan 31 2025 09:50:41 GMT-0600 (Central Standard Time),257019.8999999985,1900,I,m,542,5,2,2465.0999999940395,254554.80000000447,8003,NTS,C,16
9,16,test,1,A,circle.png,1,m,Fri Jan 31 2025 09:50:41 GMT-0600 (Central Standard Time),259066.3999999985,1500,I,m,524,8,2,2042.5999999940395,257023.80000000447,8003,NTS,C,17
3,17,test,1,A,circle.png,1,z,Fri Jan 31 2025 09:50:41 GMT-0600 (Central Standard Time),260882.30000000447,1200,I,z,590,3,2,1812.2000000029802,259070.1000000015,8003,NTS,C,18
1,18,test,1,A,circle.png,1,z,Fri Jan 31 2025 09:50:41 GMT-0600 (Central Standard Time),262398.6000000015,1000,I,z,494,1,2,1512.8999999985099,260885.70000000298,8003,NTS,C,19
2,19,test,1,A,circle.png,1,z,Fri Jan 31 2025 09:50:41 GMT-0600 (Central Standard Time),265131.0,2000,I,z,698,2,2,2728.89999999851,262402.1000000015,8003,NTS,C,20
9,20,test,1,A,circle.png,1,m,Fri Jan 31 2025 09:50:41 GMT-0600 (Central Standard Time),267230.3999999985,1500,I,m,569,8,2,2095.5999999940395,265134.80000000447,8003,NTS,C,21
2,21,test,1,A,circle.png,1,z,Fri Jan 31 2025 09:50:41 GMT-0600 (Central Standard Time),269879.5,2000,I,z,619,2,2,2645.60000000149,267233.8999999985,8003,NTS,C,22
7,22,test,1,A,circle.png,1,m,Fri Jan 31 2025 09:50:41 GMT-0600 (Central Standard Time),272562.30000000447,1700,I,m,957,6,2,2679.4000000059605,269882.8999999985,8003,NTS,C,23
1,23,test,1,A,circle.png,1,z,Fri Jan 31 2025 09:50:41 GMT-0600 (Central Standard Time),274078.30000000447,1000,I,z,486,1,2,1512.2000000029802,272566.1000000015,8003,NTS,C,24
4,1,test,1,B,triangle.png,1,m,Fri Jan 31 2025 09:50:41 GMT-0600 (Central Standard Time),290772.80000000447,1000,I,m,962,12,2,1979.4000000059605,288793.3999999985,8003,NTS,C,1
8,2,test,1,B,triangle.png,1,m,Fri Jan 31 2025 09:50:41 GMT-0600 (Central Standard Time),293055.6000000015,1700,I,m,552,15,2,2279.2999999970198,290776.30000000447,8003,NTS,C,2
7,3,test,1,B,triangle.png,1,z,Fri Jan 31 2025 09:50:41 GMT-0600 (Central Standard Time),296004.8999999985,2000,I,z,929,6,2,2945.6999999955297,293059.200000003,8003,NTS,C,3
3,4,test,1,B,triangle.png,1,z,Fri Jan 31 2025 09:50:41 GMT-0600 (Central Standard Time),298888.30000000447,2000,I,z,861,11,2,2879.5,296008.80000000447,8003,NTS,C,4
2,5,test,1,B,triangle.png,1,m,Fri Jan 31 2025 09:50:41 GMT-0600 (Central Standard Time),300936.5,1200,I,m,826,10,2,2044.3999999985099,298892.1000000015,8003,NTS,C,5
4,6,test,1,B,triangle.png,1,m,Fri Jan 31 2025 09:50:41 GMT-0600 (Central Standard Time),303202.6000000015,1500,I,m,740,4,2,2262.60000000149,300940.0,8003,NTS,C,6
3,7,test,1,B,triangle.png,1,z,Fri Jan 31 2025 09:50:41 GMT-0600 (Central Standard Time),305351.700000003,1600,I,z,527,3,2,2145.39999999851,303206.30000000447,8003,NTS,C,7
6,7,test,1,B,triangle.png,0,m,Fri Jan 31 2025 09:50:41 GMT-0600 (Central Standard Time),307917.8999999985,1500,I,z,1045,13,2,2562.39999999851,305355.5,8003,NTS,C,8
2,8,test,1,B,triangle.png,1,m,Fri Jan 31 2025 09:50:41 GMT-0600 (Central Standard Time),310500.30000000447,1700,I,m,855,2,2,2578.8000000044703,307921.5,8003,NTS,C,9
6,9,test,1,B,triangle.png,1,m,Fri Jan 31 2025 09:50:41 GMT-0600 (Central Standard Time),312616.0,1500,I,m,593,13,2,2111.6999999955297,310504.30000000447,8003,NTS,C,10
1,10,test,1,B,triangle.png,1,z,Fri Jan 31 2025 09:50:41 GMT-0600 (Central Standard Time),315132.30000000447,1900,I,z,596,1,2,2512.60000000149,312619.700000003,8003,NTS,C,11
4,11,test,1,B,triangle.png,1,m,Fri Jan 31 2025 09:50:41 GMT-0600 (Central Standard Time),316831.5,1000,I,m,677,12,2,1695.7999999970198,315135.700000003,8003,NTS,C,12
7,12,test,1,B,triangle.png,1,z,Fri Jan 31 2025 09:50:41 GMT-0600 (Central Standard Time),319047.3999999985,1600,I,z,593,14,2,2212.1999999955297,316835.200000003,8003,NTS,C,13
7,13,test,1,B,triangle.png,1,z,Fri Jan 31 2025 09:50:41 GMT-0600 (Central Standard Time),321996.6000000015,2000,I,z,922,6,2,2945.60000000149,319051.0,8003,NTS,C,14
8,14,test,1,B,triangle.png,1,m,Fri Jan 31 2025 09:50:41 GMT-0600 (Central Standard Time),323862.8999999985,1200,I,m,644,7,2,1862.5999999940395,322000.30000000447,8003,NTS,C,15
9,14,test,1,B,triangle.png,0,z,Fri Jan 31 2025 09:50:41 GMT-0600 (Central Standard Time),325945.3999999985,1400,I,m,658,8,2,2078.7999999970198,323866.6000000015,8003,NTS,C,16
2,15,test,1,B,triangle.png,1,m,Fri Jan 31 2025 09:50:41 GMT-0600 (Central Standard Time),328444.3999999985,1700,I,m,780,2,2,2495.2999999970198,325949.1000000015,8003,NTS,C,17
8,16,test,1,B,triangle.png,1,m,Fri Jan 31 2025 09:50:41 GMT-0600 (Central Standard Time),330827.200000003,1700,I,m,656,15,2,2379.39999999851,328447.80000000447,8003,NTS,C,18
9,17,test,1,B,triangle.png,1,z,Fri Jan 31 2025 09:50:41 GMT-0600 (Central Standard Time),333176.200000003,1900,I,z,418,16,2,2345.60000000149,330830.6000000015,8003,NTS,C,19
1,18,test,1,B,triangle.png,1,z,Fri Jan 31 2025 09:50:41 GMT-0600 (Central Standard Time),335259.200000003,1400,I,z,648,9,2,2079.7000000029802,333179.5,8003,NTS,C,20
8,19,test,1,B,triangle.png,1,m,Fri Jan 31 2025 09:50:41 GMT-0600 (Central Standard Time),337091.8999999985,1200,I,m,606,7,2,1828.7999999970198,335263.1000000015,8003,NTS,C,21
2,20,test,1,B,triangle.png,1,m,Fri Jan 31 2025 09:50:41 GMT-0600 (Central Standard Time),339107.80000000447,1200,I,m,789,10,2,2012.3000000044703,337095.5,8003,NTS,C,22
9,21,test,1,B,triangle.png,1,z,Fri Jan 31 2025 09:50:41 GMT-0600 (Central Standard Time),341440.30000000447,1400,I,z,901,8,2,2328.60000000149,339111.700000003,8003,NTS,C,23
6,22,test,1,B,triangle.png,1,m,Fri Jan 31 2025 09:50:41 GMT-0600 (Central Standard Time),343123.5,1000,I,m,664,5,2,1679.6000000014901,341443.8999999985,8003,NTS,C,24
1,1,prac,1,C,circle.png,1,z,Fri Jan 31 2025 09:50:41 GMT-0600 (Central Standard Time),390941.700000003,1700,I,z,1035,1,2,3527.8000000044703,387413.8999999985,8003,NTS,C,1
6,2,prac,1,C,circle.png,1,m,Fri Jan 31 2025 09:50:41 GMT-0600 (Central Standard Time),394674.1000000015,2000,I,m,947,5,2,3727.10000000149,390947.0,8003,NTS,C,2
8,3,prac,1,C,triangle.png,1,m,Fri Jan 31 2025 09:50:41 GMT-0600 (Central Standard Time),397572.80000000447,1400,I,m,703,7,2,2894.10000000149,394678.700000003,8003,NTS,C,3
7,4,prac,1,C,triangle.png,1,z,Fri Jan 31 2025 09:50:41 GMT-0600 (Central Standard Time),400205.3999999985,1200,I,z,636,6,2,2628.0999999940395,397577.30000000447,8003,NTS,C,4
4,4,prac,1,C,circle.png,0,z,Fri Jan 31 2025 09:50:41 GMT-0600 (Central Standard Time),402922.30000000447,1000,I,m,914,4,2,2712.3000000044703,400210.0,8003,NTS,C,5
3,5,prac,1,C,triangle.png,1,z,Fri Jan 31 2025 09:50:41 GMT-0600 (Central Standard Time),406253.3999999985,1500,I,z,1035,3,2,3325.7999999970198,402927.6000000015,8003,NTS,C,6
9,6,prac,1,C,circle.png,1,m,Fri Jan 31 2025 09:50:41 GMT-0600 (Central Standard Time),409802.700000003,1900,I,m,855,8,2,3544.7000000029802,406258.0,8003,NTS,C,7
7,7,prac,1,C,triangle.png,1,z,Fri Jan 31 2025 09:50:41 GMT-0600 (Central Standard Time),412984.700000003,1200,I,z,1182,6,2,3177.3000000044703,409807.3999999985,8003,NTS,C,8
2,7,prac,1,C,triangle.png,0,m,Fri Jan 31 2025 09:50:41 GMT-0600 (Central Standard Time),416067.3999999985,1600,I,z,688,2,2,3077.6999999955297,412989.700000003,8003,NTS,C,9
2,8,prac,1,C,triangle.png,1,m,Fri Jan 31 2025 09:50:41 GMT-0600 (Central Standard Time),419232.700000003,1600,I,m,765,2,2,3160.60000000149,416072.1000000015,8003,NTS,C,10
6,9,prac,1,C,circle.png,1,m,Fri Jan 31 2025 09:50:41 GMT-0600 (Central Standard Time),422881.700000003,2000,I,m,864,5,2,3644.2000000029802,419237.5,8003,NTS,C,11
1,10,prac,1,C,circle.png,1,z,Fri Jan 31 2025 09:50:41 GMT-0600 (Central Standard Time),426148.3999999985,1700,I,z,780,1,2,3261.7999999970198,422886.6000000015,8003,NTS,C,12
1,1,test,1,C,circle.png,1,z,Fri Jan 31 2025 09:50:41 GMT-0600 (Central Standard Time),442475.80000000447,1000,I,z,680,1,2,1696.6000000014901,440779.200000003,8003,NTS,C,1
3,2,test,1,C,circle.png,1,z,Fri Jan 31 2025 09:50:41 GMT-0600 (Central Standard Time),444824.700000003,1600,I,z,717,11,2,2343.8000000044703,442480.8999999985,8003,NTS,C,2
2,3,test,1,C,circle.png,1,z,Fri Jan 31 2025 09:50:41 GMT-0600 (Central Standard Time),447174.0,1700,I,z,628,18,2,2345.5,444828.5,8003,NTS,C,3
7,4,test,1,C,circle.png,1,m,Fri Jan 31 2025 09:50:41 GMT-0600 (Central Standard Time),449939.5,2000,I,m,732,14,2,2761.7999999970198,447177.700000003,8003,NTS,C,4
8,5,test,1,C,triangle.png,1,m,Fri Jan 31 2025 09:50:41 GMT-0600 (Central Standard Time),452505.3999999985,1600,I,m,941,7,2,2562.0,449943.3999999985,8003,NTS,C,5
6,6,test,1,C,triangle.png,1,m,Fri Jan 31 2025 09:50:41 GMT-0600 (Central Standard Time),454138.8999999985,1000,I,m,599,13,2,1630.0,452508.8999999985,8003,NTS,C,6
8,7,test,1,C,circle.png,1,m,Fri Jan 31 2025 09:50:41 GMT-0600 (Central Standard Time),456237.8999999985,1200,I,m,878,15,2,2094.1999999955297,454143.700000003,8003,NTS,C,7
2,8,test,1,C,triangle.png,1,m,Fri Jan 31 2025 09:50:41 GMT-0600 (Central Standard Time),459403.3999999985,2000,I,m,1139,2,2,3161.89999999851,456241.5,8003,NTS,C,8
4,9,test,1,C,triangle.png,1,m,Fri Jan 31 2025 09:50:41 GMT-0600 (Central Standard Time),461936.0,1500,I,m,1001,20,2,2528.60000000149,459407.3999999985,8003,NTS,C,9
7,10,test,1,C,triangle.png,1,z,Fri Jan 31 2025 09:50:41 GMT-0600 (Central Standard Time),464518.5,1700,I,z,853,22,2,2578.60000000149,461939.8999999985,8003,NTS,C,10
8,11,test,1,C,triangle.png,1,m,Fri Jan 31 2025 09:50:41 GMT-0600 (Central Standard Time),467167.80000000447,1600,I,m,1018,23,2,2645.4000000059605,464522.3999999985,8003,NTS,C,11
4,12,test,1,C,circle.png,1,z,Fri Jan 31 2025 09:50:41 GMT-0600 (Central Standard Time),469283.80000000447,1400,I,z,690,4,2,2110.60000000149,467173.200000003,8003,NTS,C,12
9,13,test,1,C,circle.png,1,m,Fri Jan 31 2025 09:50:41 GMT-0600 (Central Standard Time),471782.80000000447,1500,I,m,969,24,2,2495.3000000044703,469287.5,8003,NTS,C,13
6,14,test,1,C,circle.png,1,m,Fri Jan 31 2025 09:50:41 GMT-0600 (Central Standard Time),474832.1000000015,1900,I,m,1118,5,2,3045.5,471786.6000000015,8003,NTS,C,14
6,15,test,1,C,circle.png,1,m,Fri Jan 31 2025 09:50:41 GMT-0600 (Central Standard Time),477414.5,1900,I,m,653,21,2,2578.7999999970198,474835.700000003,8003,NTS,C,15
7,16,test,1,C,triangle.png,1,z,Fri Jan 31 2025 09:50:41 GMT-0600 (Central Standard Time),479913.700000003,1700,I,z,774,6,2,2495.7000000029802,477418.0,8003,NTS,C,16
3,17,test,1,C,triangle.png,1,z,Fri Jan 31 2025 09:50:41 GMT-0600 (Central Standard Time),481863.200000003,1200,I,z,719,3,2,1945.8000000044703,479917.3999999985,8003,NTS,C,17
4,18,test,1,C,triangle.png,1,m,Fri Jan 31 2025 09:50:41 GMT-0600 (Central Standard Time),484329.1000000015,1500,I,m,941,12,2,2462.2000000029802,481866.8999999985,8003,NTS,C,18
1,19,test,1,C,triangle.png,1,z,Fri Jan 31 2025 09:50:41 GMT-0600 (Central Standard Time),486944.8999999985,1900,I,z,692,17,2,2612.0999999940395,484332.80000000447,8003,NTS,C,19
1,20,test,1,C,triangle.png,1,z,Fri Jan 31 2025 09:50:41 GMT-0600 (Central Standard Time),489560.6000000015,1900,I,z,684,9,2,2611.89999999851,486948.700000003,8003,NTS,C,20
3,21,test,1,C,circle.png,1,z,Fri Jan 31 2025 09:50:41 GMT-0600 (Central Standard Time),492120.8999999985,1600,I,z,800,19,2,2556.5,489564.3999999985,8003,NTS,C,21
9,21,test,1,C,triangle.png,0,z,Fri Jan 31 2025 09:50:41 GMT-0600 (Central Standard Time),494376.0,1400,I,m,826,16,2,2251.10000000149,492124.8999999985,8003,NTS,C,22
2,21,test,1,C,circle.png,0,z,Fri Jan 31 2025 09:50:41 GMT-0600 (Central Standard Time),497608.30000000447,1700,I,None,1514,10,2,3228.7000000029802,494379.6000000015,8003,NTS,C,23
9,21,test,1,C,circle.png,0,m,Fri Jan 31 2025 09:50:41 GMT-0600 (Central Standard Time),500640.3999999985,1500,I,None,1513,8,2,3028.5999999940395,497611.80000000447,8003,NTS,C,24
7,1,test,2,C,triangle.png,1,z,Fri Jan 31 2025 09:50:41 GMT-0600 (Central Standard Time),517218.700000003,1700,I,z,864,6,2,2596.2000000029802,514622.5,8003,NTS,C,1
6,2,test,2,C,triangle.png,1,m,Fri Jan 31 2025 09:50:41 GMT-0600 (Central Standard Time),519334.8999999985,1000,I,m,1085,21,2,2112.2999999970198,517222.6000000015,8003,NTS,C,2
4,3,test,2,C,triangle.png,1,m,Fri Jan 31 2025 09:50:41 GMT-0600 (Central Standard Time),521984.0,1500,I,m,1118,12,2,2645.6999999955297,519338.30000000447,8003,NTS,C,3
8,4,test,2,C,circle.png,1,m,Fri Jan 31 2025 09:50:41 GMT-0600 (Central Standard Time),523966.5,1200,I,m,753,23,2,1979.0,521987.5,8003,NTS,C,4
7,5,test,2,C,circle.png,1,m,Fri Jan 31 2025 09:50:41 GMT-0600 (Central Standard Time),526816.700000003,2000,I,m,818,14,2,2845.10000000149,523971.6000000015,8003,NTS,C,5
1,6,test,2,C,triangle.png,1,z,Fri Jan 31 2025 09:50:41 GMT-0600 (Central Standard Time),529415.0,1900,I,z,677,9,2,2594.6999999955297,526820.3000000045,8003,NTS,C,6
3,7,test,2,C,circle.png,1,z,Fri Jan 31 2025 09:50:41 GMT-0600 (Central Standard Time),531864.1000000015,1600,I,z,818,19,2,2445.2000000029802,529418.8999999985,8003,NTS,C,7
9,8,test,2,C,circle.png,1,m,Fri Jan 31 2025 09:50:41 GMT-0600 (Central Standard Time),534046.8000000045,1500,I,m,653,8,2,2179.10000000149,531867.700000003,8003,NTS,C,8
1,9,test,2,C,triangle.png,1,z,Fri Jan 31 2025 09:50:41 GMT-0600 (Central Standard Time),536612.5,1900,I,z,646,17,2,2562.2999999970198,534050.200000003,8003,NTS,C,9
3,10,test,2,C,triangle.png,1,z,Fri Jan 31 2025 09:50:41 GMT-0600 (Central Standard Time),538562.200000003,1200,I,z,724,3,2,1946.0,536616.200000003,8003,NTS,C,10
2,10,test,2,C,circle.png,0,z,Fri Jan 31 2025 09:50:41 GMT-0600 (Central Standard Time),541078.0,1700,I,m,795,10,2,2512.10000000149,538565.8999999985,8003,NTS,C,11
1,11,test,2,C,circle.png,1,z,Fri Jan 31 2025 09:50:41 GMT-0600 (Central Standard Time),543077.200000003,1000,I,z,979,1,2,1991.1000000014901,541086.1000000015,8003,NTS,C,12
8,12,test,2,C,triangle.png,1,m,Fri Jan 31 2025 09:50:41 GMT-0600 (Central Standard Time),545809.700000003,1600,I,m,1100,7,2,2728.89999999851,543080.8000000045,8003,NTS,C,13
2,13,test,2,C,circle.png,1,z,Fri Jan 31 2025 09:50:41 GMT-0600 (Central Standard Time),548309.1000000015,1700,I,z,779,18,2,2495.60000000149,545813.5,8003,NTS,C,14
4,14,test,2,C,circle.png,1,z,Fri Jan 31 2025 09:50:41 GMT-0600 (Central Standard Time),550591.3999999985,1400,I,z,860,4,2,2278.5,548312.8999999985,8003,NTS,C,15
6,15,test,2,C,triangle.png,1,m,Fri Jan 31 2025 09:50:41 GMT-0600 (Central Standard Time),552757.3999999985,1000,I,m,1137,13,2,2162.39999999851,550595.0,8003,NTS,C,16
3,16,test,2,C,circle.png,1,z,Fri Jan 31 2025 09:50:41 GMT-0600 (Central Standard Time),555139.8999999985,1600,I,z,763,11,2,2378.5,552761.3999999985,8003,NTS,C,17
8,17,test,2,C,circle.png,1,m,Fri Jan 31 2025 09:50:41 GMT-0600 (Central Standard Time),557073.0,1200,I,m,701,15,2,1928.2999999970198,555144.700000003,8003,NTS,C,18
9,17,test,2,C,triangle.png,0,z,Fri Jan 31 2025 09:50:41 GMT-0600 (Central Standard Time),559222.200000003,1400,I,m,720,16,2,2145.60000000149,557076.6000000015,8003,NTS,C,19
7,17,test,2,C,circle.png,0,m,Fri Jan 31 2025 09:50:41 GMT-0600 (Central Standard Time),562763.8999999985,2000,I,None,1524,22,2,3538.2999999970198,559225.6000000015,8003,NTS,C,20
6,18,test,2,C,circle.png,1,m,Fri Jan 31 2025 09:50:41 GMT-0600 (Central Standard Time),565586.8000000045,1900,I,m,906,5,2,2818.9000000059605,562767.8999999985,8003,NTS,C,21
4,19,test,2,C,triangle.png,1,m,Fri Jan 31 2025 09:50:41 GMT-0600 (Central Standard Time),568002.8000000045,1500,I,m,882,20,2,2412.5,565590.3000000045,8003,NTS,C,22
9,20,test,2,C,triangle.png,1,z,Fri Jan 31 2025 09:50:41 GMT-0600 (Central Standard Time),570435.5,1400,I,z,1006,24,2,2429.10000000149,568006.3999999985,8003,NTS,C,23
2,21,test,2,C,triangle.png,1,m,Fri Jan 31 2025 09:50:41 GMT-0600 (Central Standard Time),573684.3000000045,2000,I,m,1221,2,2,3245.2000000029802,570439.1000000015,8003,NTS,C,24
9,1,test,3,C,circle.png,1,m,Fri Jan 31 2025 09:50:41 GMT-0600 (Central Standard Time),582615.1000000015,1500,I,m,919,8,2,2446.60000000149,580168.5,8003,NTS,C,1
7,2,test,3,C,triangle.png,1,z,Fri Jan 31 2025 09:50:41 GMT-0600 (Central Standard Time),585047.3999999985,1700,I,z,702,6,2,2428.5999999940395,582618.8000000045,8003,NTS,C,2
3,3,test,3,C,circle.png,1,z,Fri Jan 31 2025 09:50:41 GMT-0600 (Central Standard Time),587430.3000000045,1600,I,z,761,11,2,2379.2000000029802,585051.1000000015,8003,NTS,C,3
6,4,test,3,C,circle.png,1,m,Fri Jan 31 2025 09:50:41 GMT-0600 (Central Standard Time),590062.6000000015,1900,I,m,703,21,2,2628.7000000029802,587433.8999999985,8003,NTS,C,4
8,5,test,3,C,circle.png,1,m,Fri Jan 31 2025 09:50:41 GMT-0600 (Central Standard Time),591895.3000000045,1200,I,m,602,15,2,1829.1000000014901,590066.200000003,8003,NTS,C,5
6,6,test,3,C,circle.png,1,m,Fri Jan 31 2025 09:50:41 GMT-0600 (Central Standard Time),594394.3999999985,1900,I,m,566,5,2,2495.39999999851,591899.0,8003,NTS,C,6
4,6,test,3,C,circle.png,0,z,Fri Jan 31 2025 09:50:41 GMT-0600 (Central Standard Time),596410.5,1400,I,m,590,20,2,2012.3999999985099,594398.1000000015,8003,NTS,C,7
8,7,test,3,C,triangle.png,1,m,Fri Jan 31 2025 09:50:41 GMT-0600 (Central Standard Time),599059.6000000015,1600,I,m,1015,7,2,2645.5,596414.1000000015,8003,NTS,C,8
1,7,test,3,C,circle.png,0,z,Fri Jan 31 2025 09:50:41 GMT-0600 (Central Standard Time),601209.200000003,1000,I,m,1125,1,2,2145.89999999851,599063.3000000045,8003,NTS,C,9
4,7,test,3,C,triangle.png,0,m,Fri Jan 31 2025 09:50:41 GMT-0600 (Central Standard Time),603558.200000003,1500,I,z,828,12,2,2345.60000000149,601212.6000000015,8003,NTS,C,10
3,8,test,3,C,triangle.png,1,z,Fri Jan 31 2025 09:50:41 GMT-0600 (Central Standard Time),605507.700000003,1200,I,z,714,19,2,1945.7000000029802,603562.0,8003,NTS,C,11
3,9,test,3,C,triangle.png,1,z,Fri Jan 31 2025 09:50:41 GMT-0600 (Central Standard Time),607624.8999999985,1200,I,z,885,3,2,2111.5,605513.3999999985,8003,NTS,C,12
7,10,test,3,C,triangle.png,1,z,Fri Jan 31 2025 09:50:41 GMT-0600 (Central Standard Time),610139.6000000015,1700,I,z,789,22,2,2510.7000000029802,607628.8999999985,8003,NTS,C,13
1,11,test,3,C,circle.png,1,z,Fri Jan 31 2025 09:50:41 GMT-0600 (Central Standard Time),612039.3000000045,1000,I,z,869,17,2,1895.9000000059605,610143.3999999985,8003,NTS,C,14
9,12,test,3,C,triangle.png,1,z,Fri Jan 31 2025 09:50:41 GMT-0600 (Central Standard Time),614471.8000000045,1400,I,z,1002,16,2,2429.0,612042.8000000045,8003,NTS,C,15
6,13,test,3,C,triangle.png,1,m,Fri Jan 31 2025 09:50:41 GMT-0600 (Central Standard Time),616404.3999999985,1000,I,m,904,13,2,1929.0,614475.3999999985,8003,NTS,C,16
2,13,test,3,C,triangle.png,0,m,Fri Jan 31 2025 09:50:41 GMT-0600 (Central Standard Time),619186.6000000015,2000,I,z,749,2,2,2778.5,616408.1000000015,8003,NTS,C,17
9,14,test,3,C,circle.png,1,m,Fri Jan 31 2025 09:50:41 GMT-0600 (Central Standard Time),621519.3000000045,1500,I,m,810,24,2,2328.7000000029802,619190.6000000015,8003,NTS,C,18
2,15,test,3,C,triangle.png,1,m,Fri Jan 31 2025 09:50:41 GMT-0600 (Central Standard Time),624185.200000003,2000,I,m,633,18,2,2662.3000000044703,621522.8999999985,8003,NTS,C,19
4,16,test,3,C,circle.png,1,z,Fri Jan 31 2025 09:50:41 GMT-0600 (Central Standard Time),626967.5,1400,I,z,1361,4,2,2778.39999999851,624189.1000000015,8003,NTS,C,20
1,17,test,3,C,triangle.png,1,z,Fri Jan 31 2025 09:50:41 GMT-0600 (Central Standard Time),629950.0,1900,I,z,1053,9,2,2978.89999999851,626971.1000000015,8003,NTS,C,21
8,18,test,3,C,triangle.png,1,m,Fri Jan 31 2025 09:50:41 GMT-0600 (Central Standard Time),632849.1000000015,1600,I,m,1267,23,2,2895.2000000029802,629953.8999999985,8003,NTS,C,22
2,19,test,3,C,circle.png,1,z,Fri Jan 31 2025 09:50:41 GMT-0600 (Central Standard Time),635548.1000000015,1700,I,z,972,10,2,2695.10000000149,632853.0,8003,NTS,C,23
7,20,test,3,C,circle.png,1,m,Fri Jan 31 2025 09:50:41 GMT-0600 (Central Standard Time),638880.6000000015,2000,I,m,1300,14,2,3328.7000000029802,635551.8999999985,8003,NTS,C,24
7,1,test,4,C,triangle.png,1,z,Fri Jan 31 2025 09:50:41 GMT-0600 (Central Standard Time),644812.0,1700,I,z,763,22,2,2479.39999999851,642332.6000000015,8003,NTS,C,1
3,2,test,4,C,triangle.png,1,z,Fri Jan 31 2025 09:50:41 GMT-0600 (Central Standard Time),646761.3999999985,1200,I,z,716,3,2,1945.0999999940395,644816.3000000045,8003,NTS,C,2
3,3,test,4,C,triangle.png,1,z,Fri Jan 31 2025 09:50:41 GMT-0600 (Central Standard Time),648677.8999999985,1200,I,z,695,19,2,1911.1999999955297,646766.700000003,8003,NTS,C,3
8,4,test,4,C,triangle.png,1,m,Fri Jan 31 2025 09:50:41 GMT-0600 (Central Standard Time),651443.5,1600,I,m,1147,23,2,2761.6999999955297,648681.8000000045,8003,NTS,C,4
2,5,test,4,C,triangle.png,1,m,Fri Jan 31 2025 09:50:41 GMT-0600 (Central Standard Time),654725.6000000015,2000,I,m,1254,18,2,3278.60000000149,651447.0,8003,NTS,C,5
3,6,test,4,C,circle.png,1,z,Fri Jan 31 2025 09:50:41 GMT-0600 (Central Standard Time),657141.6000000015,1600,I,z,797,11,2,2412.39999999851,654729.200000003,8003,NTS,C,6
1,7,test,4,C,triangle.png,1,z,Fri Jan 31 2025 09:50:41 GMT-0600 (Central Standard Time),660190.3999999985,1900,I,z,1119,9,2,3044.6999999955297,657145.700000003,8003,NTS,C,7
2,8,test,4,C,triangle.png,1,m,Fri Jan 31 2025 09:50:41 GMT-0600 (Central Standard Time),663389.3999999985,2000,I,m,1170,2,2,3195.0999999940395,660194.3000000045,8003,NTS,C,8
8,9,test,4,C,triangle.png,1,m,Fri Jan 31 2025 09:50:41 GMT-0600 (Central Standard Time),665671.8000000045,1600,I,m,659,7,2,2278.7000000029802,663393.1000000015,8003,NTS,C,9
6,10,test,4,C,circle.png,1,m,Fri Jan 31 2025 09:50:41 GMT-0600 (Central Standard Time),668754.200000003,1900,I,m,1149,5,2,3078.60000000149,665675.6000000015,8003,NTS,C,10
9,11,test,4,C,triangle.png,1,z,Fri Jan 31 2025 09:50:41 GMT-0600 (Central Standard Time),671037.1000000015,1400,I,z,853,16,2,2277.39999999851,668759.700000003,8003,NTS,C,11
9,12,test,4,C,circle.png,1,m,Fri Jan 31 2025 09:50:41 GMT-0600 (Central Standard Time),673319.6000000015,1500,I,m,751,8,2,2278.7999999970198,671040.8000000045,8003,NTS,C,12
1,13,test,4,C,circle.png,1,z,Fri Jan 31 2025 09:50:41 GMT-0600 (Central Standard Time),675469.0,1000,I,z,1121,17,2,2145.5,673323.5,8003,NTS,C,13
6,14,test,4,C,triangle.png,1,m,Fri Jan 31 2025 09:50:41 GMT-0600 (Central Standard Time),677318.8000000045,1000,I,m,819,13,2,1845.8000000044703,675473.0,8003,NTS,C,14
2,15,test,4,C,circle.png,1,z,Fri Jan 31 2025 09:50:41 GMT-0600 (Central Standard Time),679917.6000000015,1700,I,z,870,10,2,2595.10000000149,677322.5,8003,NTS,C,15
4,16,test,4,C,circle.png,1,z,Fri Jan 31 2025 09:50:41 GMT-0600 (Central Standard Time),682366.8999999985,1400,I,z,1019,20,2,2443.89999999851,679923.0,8003,NTS,C,16
8,17,test,4,C,circle.png,1,m,Fri Jan 31 2025 09:50:41 GMT-0600 (Central Standard Time),684749.3999999985,1200,I,m,1162,15,2,2378.6999999955297,682370.700000003,8003,NTS,C,17
1,18,test,4,C,circle.png,1,z,Fri Jan 31 2025 09:50:41 GMT-0600 (Central Standard Time),686782.200000003,1000,I,z,1011,1,2,2029.0,684753.200000003,8003,NTS,C,18
7,19,test,4,C,triangle.png,1,z,Fri Jan 31 2025 09:50:41 GMT-0600 (Central Standard Time),689348.0,1700,I,z,848,6,2,2562.1999999955297,686785.8000000045,8003,NTS,C,19
9,20,test,4,C,circle.png,1,m,Fri Jan 31 2025 09:50:41 GMT-0600 (Central Standard Time),691913.8999999985,1500,I,m,1033,24,2,2562.5999999940395,689351.3000000045,8003,NTS,C,20
4,20,test,4,C,triangle.png,0,m,Fri Jan 31 2025 09:50:41 GMT-0600 (Central Standard Time),694813.700000003,1500,I,z,1379,12,2,2895.39999999851,691918.3000000045,8003,NTS,C,21
6,21,test,4,C,circle.png,1,m,Fri Jan 31 2025 09:50:41 GMT-0600 (Central Standard Time),698078.3999999985,1900,I,m,1344,21,2,3261.0,694817.3999999985,8003,NTS,C,22
4,22,test,4,C,circle.png,1,z,Fri Jan 31 2025 09:50:41 GMT-0600 (Central Standard Time),700661.200000003,1400,I,z,1162,4,2,2579.0,698082.200000003,8003,NTS,C,23
7,23,test,4,C,circle.png,1,m,Fri Jan 31 2025 09:50:41 GMT-0600 (Central Standard Time),703973.0,2000,I,m,1294,14,2,3308.1999999955297,700664.8000000045,8003,NTS,C,24
