block_c,block_dur,condition,countdown,datetime,endtime,list,multichar_response,project,response,response_time,session_number,start_end,starttime,subject_id,task,task_vers,trial
,,,,Tue Mar 18 2025 16:40:28 GMT-0500 (Central Daylight Time),,,,I,space,456,1,,,8035,WL,C,
prac,,0,,Tue Mar 18 2025 16:40:28 GMT-0500 (Central Daylight Time),,NA,b,I,b,10504,1,,,8035,WL,C,1.0
prac,,0,,Tue Mar 18 2025 16:40:28 GMT-0500 (Central Daylight Time),,NA,bo,I,o,393,1,,,8035,WL,C,1.0
prac,,0,,Tue Mar 18 2025 16:40:28 GMT-0500 (Central Daylight Time),,NA,boo,I,o,507,1,,,8035,WL,C,1.0
prac,,0,,Tue Mar 18 2025 16:40:28 GMT-0500 (Central Daylight Time),,NA,boos,I,s,335,1,,,8035,WL,C,1.0
prac,,0,,Tue Mar 18 2025 16:40:28 GMT-0500 (Central Daylight Time),,NA,boost,I,t,241,1,,,8035,WL,C,1.0
prac,,0,,Tue Mar 18 2025 16:40:28 GMT-0500 (Central Daylight Time),,NA,boostenter,I,enter,2551,1,,,8035,WL,C,1.0
1,1.566999912261963,learn,58433.00008773804,Tue Mar 18 2025 16:40:28 GMT-0500 (Central Daylight Time),161468.2000000002,A,b,I,b,1559,1,1566.2000000001863,159902.0,8035,WL,C,1.0
1,1.7159998416900635,learn,58284.00015830994,Tue Mar 18 2025 16:40:28 GMT-0500 (Central Daylight Time),161617.90000000037,A,bo,I,o,134,1,1715.9000000003725,159902.0,8035,WL,C,1.0
1,2.0159997940063477,learn,57984.00020599365,Tue Mar 18 2025 16:40:28 GMT-0500 (Central Daylight Time),161917.90000000037,A,boy,I,y,283,1,2015.9000000003725,159902.0,8035,WL,C,1.0
1,2.7990000247955322,learn,57200.99997520447,Tue Mar 18 2025 16:40:28 GMT-0500 (Central Daylight Time),162700.7999999998,A,boyenter,I,enter,774,1,2798.7999999998137,159902.0,8035,WL,C,1.0
1,4.148999929428101,learn,55851.0000705719,Tue Mar 18 2025 16:40:28 GMT-0500 (Central Daylight Time),164050.40000000037,A,w,I,w,1344,1,1349.0,162701.40000000037,8035,WL,C,2.0
1,4.265999794006348,learn,55734.00020599365,Tue Mar 18 2025 16:40:28 GMT-0500 (Central Daylight Time),164167.2000000002,A,wh,I,h,106,1,1465.7999999998137,162701.40000000037,8035,WL,C,2.0
1,4.365000009536743,learn,55634.99999046326,Tue Mar 18 2025 16:40:28 GMT-0500 (Central Daylight Time),164266.7999999998,A,whe,I,e,93,1,1565.3999999994412,162701.40000000037,8035,WL,C,2.0
1,4.448999881744385,learn,55551.000118255615,Tue Mar 18 2025 16:40:28 GMT-0500 (Central Daylight Time),164350.2999999998,A,whea,I,a,66,1,1648.8999999994412,162701.40000000037,8035,WL,C,2.0
1,4.598999977111816,learn,55401.00002288818,Tue Mar 18 2025 16:40:28 GMT-0500 (Central Daylight Time),164500.2999999998,A,wheat,I,t,134,1,1798.8999999994412,162701.40000000037,8035,WL,C,2.0
1,4.832000017166138,learn,55167.99998283386,Tue Mar 18 2025 16:40:28 GMT-0500 (Central Daylight Time),164733.40000000037,A,wheatenter,I,enter,217,1,2032.0,162701.40000000037,8035,WL,C,2.0
1,6.365000009536743,learn,53634.99999046326,Tue Mar 18 2025 16:40:28 GMT-0500 (Central Daylight Time),166266.2999999998,A,n,I,n,1511,1,1532.3999999994412,164733.90000000037,8035,WL,C,3.0
1,6.48199987411499,learn,53518.00012588501,Tue Mar 18 2025 16:40:28 GMT-0500 (Central Daylight Time),166383.10000000056,A,na,I,a,106,1,1649.2000000001863,164733.90000000037,8035,WL,C,3.0
1,6.580999851226807,learn,53419.00014877319,Tue Mar 18 2025 16:40:28 GMT-0500 (Central Daylight Time),166482.90000000037,A,nai,I,i,86,1,1749.0,164733.90000000037,8035,WL,C,3.0
1,6.681999921798706,learn,53318.000078201294,Tue Mar 18 2025 16:40:28 GMT-0500 (Central Daylight Time),166583.0,A,nail,I,l,82,1,1849.0999999996275,164733.90000000037,8035,WL,C,3.0
1,6.930999994277954,learn,53069.000005722046,Tue Mar 18 2025 16:40:28 GMT-0500 (Central Daylight Time),166832.7999999998,A,nailenter,I,enter,238,1,2098.899999999441,164733.90000000037,8035,WL,C,3.0
1,9.846999883651733,learn,50153.00011634827,Tue Mar 18 2025 16:40:28 GMT-0500 (Central Daylight Time),169748.5,A,t,I,t,2900,1,2915.2999999998137,166833.2000000002,8035,WL,C,4.0
1,9.980000019073486,learn,50019.999980926514,Tue Mar 18 2025 16:40:28 GMT-0500 (Central Daylight Time),169881.90000000037,A,to,I,o,112,1,3048.7000000001863,166833.2000000002,8035,WL,C,4.0
1,10.063999891281128,learn,49936.00010871887,Tue Mar 18 2025 16:40:28 GMT-0500 (Central Daylight Time),169965.2999999998,A,tow,I,w,75,1,3132.0999999996275,166833.2000000002,8035,WL,C,4.0
1,10.179999828338623,learn,49820.00017166138,Tue Mar 18 2025 16:40:28 GMT-0500 (Central Daylight Time),170081.90000000037,A,towe,I,e,95,1,3248.7000000001863,166833.2000000002,8035,WL,C,4.0
1,10.246999979019165,learn,49753.000020980835,Tue Mar 18 2025 16:40:28 GMT-0500 (Central Daylight Time),170148.5,A,tower,I,r,59,1,3315.2999999998137,166833.2000000002,8035,WL,C,4.0
1,10.77999997138977,learn,49220.00002861023,Tue Mar 18 2025 16:40:28 GMT-0500 (Central Daylight Time),170681.60000000056,A,towerenter,I,enter,520,1,3848.4000000003725,166833.2000000002,8035,WL,C,4.0
1,36.80499982833862,learn,23195.000171661377,Tue Mar 18 2025 16:40:28 GMT-0500 (Central Daylight Time),196706.60000000056,A,enter,I,enter,26019,1,26024.5,170682.10000000056,8035,WL,C,5.0
1,37.73799991607666,learn,22262.00008392334,Tue Mar 18 2025 16:40:28 GMT-0500 (Central Daylight Time),197640.0,A,enter,I,enter,922,1,933.0999999996275,196706.90000000037,8035,WL,C,6.0
1,38.40499997138977,learn,21595.00002861023,Tue Mar 18 2025 16:40:28 GMT-0500 (Central Daylight Time),198306.2000000002,A,enter,I,enter,653,1,665.7999999998137,197640.40000000037,8035,WL,C,7.0
1,38.98799991607666,learn,21012.00008392334,Tue Mar 18 2025 16:40:28 GMT-0500 (Central Daylight Time),198889.2999999998,A,enter,I,enter,563,1,582.6999999992549,198306.60000000056,8035,WL,C,8.0
1,39.48799991607666,learn,20512.00008392334,Tue Mar 18 2025 16:40:28 GMT-0500 (Central Daylight Time),199389.40000000037,A,enter,I,enter,483,1,499.70000000018626,198889.7000000002,8035,WL,C,9.0
1,40.186999797821045,learn,19813.000202178955,Tue Mar 18 2025 16:40:28 GMT-0500 (Central Daylight Time),200089.0,A,enter,I,enter,679,1,698.8999999994412,199390.10000000056,8035,WL,C,10.0
1,40.770999908447266,learn,19229.000091552734,Tue Mar 18 2025 16:40:28 GMT-0500 (Central Daylight Time),200672.10000000056,A,enter,I,enter,572,1,582.7000000001863,200089.40000000037,8035,WL,C,11.0
1,41.382999897003174,learn,18617.000102996826,Tue Mar 18 2025 16:40:28 GMT-0500 (Central Daylight Time),201284.60000000056,A,enter,I,enter,606,1,612.0,200672.60000000056,8035,WL,C,12.0
1,42.38699984550476,learn,17613.00015449524,Tue Mar 18 2025 16:40:28 GMT-0500 (Central Daylight Time),202288.2999999998,A,enter,I,enter,992,1,1003.2999999998137,201285.0,8035,WL,C,13.0
1,42.97099995613098,learn,17029.00004386902,Tue Mar 18 2025 16:40:28 GMT-0500 (Central Daylight Time),202872.60000000056,A,enter,I,enter,573,1,583.8000000007451,202288.7999999998,8035,WL,C,14.0
1,43.53699994087219,learn,16463.000059127808,Tue Mar 18 2025 16:40:28 GMT-0500 (Central Daylight Time),203438.10000000056,A,enter,I,enter,556,1,565.0,202873.10000000056,8035,WL,C,15.0
2,0.8320000171661377,learn,59167.99998283386,Tue Mar 18 2025 16:40:28 GMT-0500 (Central Daylight Time),272433.10000000056,A,b,I,b,813,1,832.7000000001863,271600.4000000004,8035,WL,C,1.0
2,0.9490001201629639,learn,59050.999879837036,Tue Mar 18 2025 16:40:28 GMT-0500 (Central Daylight Time),272549.7999999998,A,bo,I,o,106,1,949.3999999994412,271600.4000000004,8035,WL,C,1.0
2,1.499000072479248,learn,58500.99992752075,Tue Mar 18 2025 16:40:28 GMT-0500 (Central Daylight Time),273099.5,A,bod,I,d,543,1,1499.0999999996275,271600.4000000004,8035,WL,C,1.0
2,1.6660001277923584,learn,58333.99987220764,Tue Mar 18 2025 16:40:28 GMT-0500 (Central Daylight Time),273266.2999999998,A,body,I,y,161,1,1665.8999999994412,271600.4000000004,8035,WL,C,1.0
2,2.015000104904175,learn,57984.999895095825,Tue Mar 18 2025 16:40:28 GMT-0500 (Central Daylight Time),273616.10000000056,A,bodyenter,I,enter,331,1,2015.7000000001863,271600.4000000004,8035,WL,C,1.0
2,2.7320001125335693,learn,57267.99988746643,Tue Mar 18 2025 16:40:28 GMT-0500 (Central Daylight Time),274332.60000000056,A,t,I,t,701,1,716.1000000005588,273616.5,8035,WL,C,2.0
2,2.9149999618530273,learn,57085.00003814697,Tue Mar 18 2025 16:40:28 GMT-0500 (Central Daylight Time),274515.9000000004,A,to,I,o,169,1,899.4000000003725,273616.5,8035,WL,C,2.0
2,3.0320000648498535,learn,56967.99993515015,Tue Mar 18 2025 16:40:28 GMT-0500 (Central Daylight Time),274632.2999999998,A,tow,I,w,106,1,1015.7999999998137,273616.5,8035,WL,C,2.0
2,3.1480000019073486,learn,56851.99999809265,Tue Mar 18 2025 16:40:28 GMT-0500 (Central Daylight Time),274749.10000000056,A,towe,I,e,101,1,1132.6000000005588,273616.5,8035,WL,C,2.0
2,3.315000057220459,learn,56684.99994277954,Tue Mar 18 2025 16:40:28 GMT-0500 (Central Daylight Time),274915.5,A,tower,I,r,161,1,1299.0,273616.5,8035,WL,C,2.0
2,3.615000009536743,learn,56384.99999046326,Tue Mar 18 2025 16:40:28 GMT-0500 (Central Daylight Time),275215.5,A,towerenter,I,enter,289,1,1599.0,273616.5,8035,WL,C,2.0
2,3.998000144958496,learn,56001.999855041504,Tue Mar 18 2025 16:40:28 GMT-0500 (Central Daylight Time),275598.7999999998,A,w,I,w,366,1,382.8999999994412,275215.9000000004,8035,WL,C,3.0
2,4.0980000495910645,learn,55901.999950408936,Tue Mar 18 2025 16:40:28 GMT-0500 (Central Daylight Time),275698.7999999998,A,we,I,e,94,1,482.8999999994412,275215.9000000004,8035,WL,C,3.0
2,4.115000009536743,learn,55884.99999046326,Tue Mar 18 2025 16:40:28 GMT-0500 (Central Daylight Time),275715.4000000004,A,weh,I,h,11,1,499.5,275215.9000000004,8035,WL,C,3.0
2,4.248000144958496,learn,55751.999855041504,Tue Mar 18 2025 16:40:28 GMT-0500 (Central Daylight Time),275848.7000000002,A,weha,I,a,122,1,632.7999999998137,275215.9000000004,8035,WL,C,3.0
2,4.38100004196167,learn,55618.99995803833,Tue Mar 18 2025 16:40:28 GMT-0500 (Central Daylight Time),275982.10000000056,A,wehat,I,t,125,1,766.2000000001863,275215.9000000004,8035,WL,C,3.0
2,5.0980000495910645,learn,54901.999950408936,Tue Mar 18 2025 16:40:28 GMT-0500 (Central Daylight Time),276698.5,A,weha,I,backspace,711,1,1482.5999999996275,275215.9000000004,8035,WL,C,3.0
2,5.21399998664856,learn,54786.00001335144,Tue Mar 18 2025 16:40:28 GMT-0500 (Central Daylight Time),276815.0,A,weh,I,backspace,107,1,1599.0999999996275,275215.9000000004,8035,WL,C,3.0
2,5.364000082015991,learn,54635.99991798401,Tue Mar 18 2025 16:40:28 GMT-0500 (Central Daylight Time),276965.0,A,we,I,backspace,142,1,1749.0999999996275,275215.9000000004,8035,WL,C,3.0
2,5.513999938964844,learn,54486.000061035156,Tue Mar 18 2025 16:40:28 GMT-0500 (Central Daylight Time),277115.10000000056,A,w,I,backspace,136,1,1899.2000000001863,275215.9000000004,8035,WL,C,3.0
2,5.697999954223633,learn,54302.00004577637,Tue Mar 18 2025 16:40:28 GMT-0500 (Central Daylight Time),277298.2000000002,A,wh,I,h,170,1,2082.2999999998137,275215.9000000004,8035,WL,C,3.0
2,5.796999931335449,learn,54203.00006866455,Tue Mar 18 2025 16:40:28 GMT-0500 (Central Daylight Time),277398.10000000056,A,whe,I,e,83,1,2182.2000000001863,275215.9000000004,8035,WL,C,3.0
2,5.864000082015991,learn,54135.99991798401,Tue Mar 18 2025 16:40:28 GMT-0500 (Central Daylight Time),277465.0,A,whea,I,a,47,1,2249.0999999996275,275215.9000000004,8035,WL,C,3.0
2,5.96399998664856,learn,54036.00001335144,Tue Mar 18 2025 16:40:28 GMT-0500 (Central Daylight Time),277564.9000000004,A,wheat,I,t,84,1,2349.0,275215.9000000004,8035,WL,C,3.0
2,6.531000137329102,learn,53468.9998626709,Tue Mar 18 2025 16:40:28 GMT-0500 (Central Daylight Time),278131.2999999998,A,wheatenter,I,enter,552,1,2915.399999999441,275215.9000000004,8035,WL,C,3.0
2,8.397000074386597,learn,51602.9999256134,Tue Mar 18 2025 16:40:28 GMT-0500 (Central Daylight Time),279997.4000000004,A,c,I,c,1858,1,1865.7000000001863,278131.7000000002,8035,WL,C,4.0
2,8.597000122070312,learn,51402.99987792969,Tue Mar 18 2025 16:40:28 GMT-0500 (Central Daylight Time),280197.2999999998,A,ca,I,a,184,1,2065.5999999996275,278131.7000000002,8035,WL,C,4.0
2,8.812999963760376,learn,51187.000036239624,Tue Mar 18 2025 16:40:28 GMT-0500 (Central Daylight Time),280414.0,A,cat,I,t,200,1,2282.2999999998137,278131.7000000002,8035,WL,C,4.0
2,8.913000106811523,learn,51086.99989318848,Tue Mar 18 2025 16:40:28 GMT-0500 (Central Daylight Time),280513.7999999998,A,catt,I,t,79,1,2382.0999999996275,278131.7000000002,8035,WL,C,4.0
2,9.180000066757202,learn,50819.9999332428,Tue Mar 18 2025 16:40:28 GMT-0500 (Central Daylight Time),280780.5,A,cattl,I,l,251,1,2648.7999999998137,278131.7000000002,8035,WL,C,4.0
2,9.329999923706055,learn,50670.000076293945,Tue Mar 18 2025 16:40:28 GMT-0500 (Central Daylight Time),280930.60000000056,A,cattle,I,e,145,1,2798.9000000003725,278131.7000000002,8035,WL,C,4.0
2,9.896000146865845,learn,50103.999853134155,Tue Mar 18 2025 16:40:28 GMT-0500 (Central Daylight Time),281497.0,A,cattleenter,I,enter,547,1,3365.2999999998137,278131.7000000002,8035,WL,C,4.0
2,12.462000131607056,learn,47537.999868392944,Tue Mar 18 2025 16:40:28 GMT-0500 (Central Daylight Time),284062.7999999998,A,b,I,b,2556,1,2565.2999999998137,281497.5,8035,WL,C,5.0
2,12.546000003814697,learn,47453.9999961853,Tue Mar 18 2025 16:40:28 GMT-0500 (Central Daylight Time),284146.2999999998,A,bo,I,o,70,1,2648.7999999998137,281497.5,8035,WL,C,5.0
2,12.779000043869019,learn,47220.99995613098,Tue Mar 18 2025 16:40:28 GMT-0500 (Central Daylight Time),284379.10000000056,A,boy,I,y,227,1,2881.600000000559,281497.5,8035,WL,C,5.0
2,13.394999980926514,learn,46605.000019073486,Tue Mar 18 2025 16:40:28 GMT-0500 (Central Daylight Time),284996.0,A,boyenter,I,enter,610,1,3498.5,281497.5,8035,WL,C,5.0
2,13.67900013923645,learn,46320.99986076355,Tue Mar 18 2025 16:40:28 GMT-0500 (Central Daylight Time),285279.2999999998,A,n,I,n,271,1,282.59999999962747,284996.7000000002,8035,WL,C,6.0
2,13.795000076293945,learn,46204.999923706055,Tue Mar 18 2025 16:40:28 GMT-0500 (Central Daylight Time),285395.7000000002,A,na,I,a,110,1,399.0,284996.7000000002,8035,WL,C,6.0
2,13.894999980926514,learn,46105.000019073486,Tue Mar 18 2025 16:40:28 GMT-0500 (Central Daylight Time),285495.7000000002,A,nai,I,i,81,1,499.0,284996.7000000002,8035,WL,C,6.0
2,13.995000123977661,learn,46004.99987602234,Tue Mar 18 2025 16:40:28 GMT-0500 (Central Daylight Time),285595.7000000002,A,nail,I,l,85,1,599.0,284996.7000000002,8035,WL,C,6.0
2,14.295000076293945,learn,45704.999923706055,Tue Mar 18 2025 16:40:28 GMT-0500 (Central Daylight Time),285895.60000000056,A,nailenter,I,enter,290,1,898.9000000003725,284996.7000000002,8035,WL,C,6.0
2,17.41100001335144,learn,42588.99998664856,Tue Mar 18 2025 16:40:28 GMT-0500 (Central Daylight Time),289011.10000000056,A,u,I,u,3102,1,3115.100000000559,285896.0,8035,WL,C,7.0
2,17.793999910354614,learn,42206.000089645386,Tue Mar 18 2025 16:40:28 GMT-0500 (Central Daylight Time),289394.4000000004,A,,I,backspace,369,1,3498.4000000003725,285896.0,8035,WL,C,7.0
2,17.91100001335144,learn,42088.99998664856,Tue Mar 18 2025 16:40:28 GMT-0500 (Central Daylight Time),289511.2000000002,A,q,I,q,107,1,3615.2000000001863,285896.0,8035,WL,C,7.0
2,18.043999910354614,learn,41956.000089645386,Tue Mar 18 2025 16:40:28 GMT-0500 (Central Daylight Time),289644.2999999998,A,qu,I,u,126,1,3748.2999999998137,285896.0,8035,WL,C,7.0
2,18.22699999809265,learn,41773.00000190735,Tue Mar 18 2025 16:40:28 GMT-0500 (Central Daylight Time),289827.7000000002,A,que,I,e,177,1,3931.7000000001863,285896.0,8035,WL,C,7.0
2,18.360000133514404,learn,41639.999866485596,Tue Mar 18 2025 16:40:28 GMT-0500 (Central Daylight Time),289961.2000000002,A,quee,I,e,122,1,4065.2000000001863,285896.0,8035,WL,C,7.0
2,18.493000030517578,learn,41506.99996948242,Tue Mar 18 2025 16:40:28 GMT-0500 (Central Daylight Time),290094.10000000056,A,queen,I,n,116,1,4198.100000000559,285896.0,8035,WL,C,7.0
2,18.743000030517578,learn,41256.99996948242,Tue Mar 18 2025 16:40:28 GMT-0500 (Central Daylight Time),290344.0,A,queenenter,I,enter,231,1,4448.0,285896.0,8035,WL,C,7.0
2,22.193000078201294,learn,37806.999921798706,Tue Mar 18 2025 16:40:28 GMT-0500 (Central Daylight Time),293793.2000000002,A,c,I,c,3430,1,3448.7999999998137,290344.4000000004,8035,WL,C,8.0
2,22.30900001525879,learn,37690.99998474121,Tue Mar 18 2025 16:40:28 GMT-0500 (Central Daylight Time),293909.7000000002,A,co,I,o,108,1,3565.2999999998137,290344.4000000004,8035,WL,C,8.0
2,22.426000118255615,learn,37573.999881744385,Tue Mar 18 2025 16:40:28 GMT-0500 (Central Daylight Time),294026.4000000004,A,cor,I,r,111,1,3682.0,290344.4000000004,8035,WL,C,8.0
2,22.575999975204468,learn,37424.00002479553,Tue Mar 18 2025 16:40:28 GMT-0500 (Central Daylight Time),294176.5,A,corn,I,n,139,1,3832.0999999996275,290344.4000000004,8035,WL,C,8.0
2,22.79200005531311,learn,37207.99994468689,Tue Mar 18 2025 16:40:28 GMT-0500 (Central Daylight Time),294393.10000000056,A,cornenter,I,enter,197,1,4048.7000000001863,290344.4000000004,8035,WL,C,8.0
2,29.67199993133545,learn,30328.00006866455,Tue Mar 18 2025 16:40:28 GMT-0500 (Central Daylight Time),301274.0,A,q,I,q,6860,1,6880.5,294393.5,8035,WL,C,9.0
2,29.871999979019165,learn,30128.000020980835,Tue Mar 18 2025 16:40:28 GMT-0500 (Central Daylight Time),301473.9000000004,A,qu,I,u,187,1,7080.4000000003725,294393.5,8035,WL,C,9.0
2,30.121999979019165,learn,29878.000020980835,Tue Mar 18 2025 16:40:28 GMT-0500 (Central Daylight Time),301723.9000000004,A,que,I,e,235,1,7330.4000000003725,294393.5,8035,WL,C,9.0
2,30.23900008201599,learn,29760.99991798401,Tue Mar 18 2025 16:40:28 GMT-0500 (Central Daylight Time),301840.5,A,quee,I,e,97,1,7447.0,294393.5,8035,WL,C,9.0
2,30.439000129699707,learn,29560.999870300293,Tue Mar 18 2025 16:40:28 GMT-0500 (Central Daylight Time),302040.5,A,queen,I,n,181,1,7647.0,294393.5,8035,WL,C,9.0
2,30.689000129699707,learn,29310.999870300293,Tue Mar 18 2025 16:40:28 GMT-0500 (Central Daylight Time),302290.5,A,queenenter,I,enter,245,1,7897.0,294393.5,8035,WL,C,9.0
2,35.937000036239624,learn,24062.999963760376,Tue Mar 18 2025 16:40:28 GMT-0500 (Central Daylight Time),307538.9000000004,A,b,I,b,5227,1,5248.200000000186,302290.7000000002,8035,WL,C,10.0
2,36.00399994850159,learn,23996.000051498413,Tue Mar 18 2025 16:40:28 GMT-0500 (Central Daylight Time),307605.4000000004,A,bo,I,o,58,1,5314.700000000186,302290.7000000002,8035,WL,C,10.0
2,36.13700008392334,learn,23862.99991607666,Tue Mar 18 2025 16:40:28 GMT-0500 (Central Daylight Time),307738.7000000002,A,boy,I,y,128,1,5448.0,302290.7000000002,8035,WL,C,10.0
2,36.854000091552734,learn,23145.999908447266,Tue Mar 18 2025 16:40:28 GMT-0500 (Central Daylight Time),308455.2000000002,A,boyenter,I,enter,707,1,6164.5,302290.7000000002,8035,WL,C,10.0
2,40.97000002861023,learn,19029.99997138977,Tue Mar 18 2025 16:40:28 GMT-0500 (Central Daylight Time),312571.7000000002,A,s,I,s,4102,1,4116.200000000186,308455.5,8035,WL,C,11.0
2,41.069000005722046,learn,18930.999994277954,Tue Mar 18 2025 16:40:28 GMT-0500 (Central Daylight Time),312670.60000000056,A,sh,I,h,89,1,4215.100000000559,308455.5,8035,WL,C,11.0
2,41.18600010871887,learn,18813.999891281128,Tue Mar 18 2025 16:40:28 GMT-0500 (Central Daylight Time),312787.2000000002,A,sho,I,o,102,1,4331.700000000186,308455.5,8035,WL,C,11.0
2,41.30200004577637,learn,18697.999954223633,Tue Mar 18 2025 16:40:28 GMT-0500 (Central Daylight Time),312903.9000000004,A,shor,I,r,106,1,4448.4000000003725,308455.5,8035,WL,C,11.0
2,41.36899995803833,learn,18631.00004196167,Tue Mar 18 2025 16:40:28 GMT-0500 (Central Daylight Time),312970.4000000004,A,shore,I,e,47,1,4514.9000000003725,308455.5,8035,WL,C,11.0
2,41.651999950408936,learn,18348.000049591064,Tue Mar 18 2025 16:40:28 GMT-0500 (Central Daylight Time),313254.0,A,shoreenter,I,enter,275,1,4798.5,308455.5,8035,WL,C,11.0
2,49.76600003242493,learn,10233.999967575073,Tue Mar 18 2025 16:40:28 GMT-0500 (Central Daylight Time),321367.7000000002,A,enter,I,enter,8103,1,8113.299999999814,313254.4000000004,8035,WL,C,12.0
2,50.449000120162964,learn,9550.999879837036,Tue Mar 18 2025 16:40:28 GMT-0500 (Central Daylight Time),322050.7999999998,A,enter,I,enter,677,1,682.7999999998137,321368.0,8035,WL,C,13.0
2,50.949000120162964,learn,9050.999879837036,Tue Mar 18 2025 16:40:28 GMT-0500 (Central Daylight Time),322550.7999999998,A,enter,I,enter,490,1,499.69999999925494,322051.10000000056,8035,WL,C,14.0
2,52.449000120162964,learn,7550.999879837036,Tue Mar 18 2025 16:40:28 GMT-0500 (Central Daylight Time),324050.2999999998,A,enter,I,enter,1478,1,1499.0999999996275,322551.2000000002,8035,WL,C,15.0
3,1.5820000171661377,learn,58417.99998283386,Tue Mar 18 2025 16:40:28 GMT-0500 (Central Daylight Time),391712.5,A,t,I,t,1563,1,1581.5,390131.0,8035,WL,C,1.0
3,2.1480000019073486,learn,57851.99999809265,Tue Mar 18 2025 16:40:28 GMT-0500 (Central Daylight Time),392279.10000000056,A,to,I,o,557,1,2148.100000000559,390131.0,8035,WL,C,1.0
3,2.365000009536743,learn,57634.99999046326,Tue Mar 18 2025 16:40:28 GMT-0500 (Central Daylight Time),392495.5,A,tow,I,w,198,1,2364.5,390131.0,8035,WL,C,1.0
3,2.497999906539917,learn,57502.00009346008,Tue Mar 18 2025 16:40:28 GMT-0500 (Central Daylight Time),392629.10000000056,A,towe,I,e,117,1,2498.100000000559,390131.0,8035,WL,C,1.0
3,2.6480000019073486,learn,57351.99999809265,Tue Mar 18 2025 16:40:28 GMT-0500 (Central Daylight Time),392778.9000000004,A,tower,I,r,136,1,2647.9000000003725,390131.0,8035,WL,C,1.0
3,3.2309999465942383,learn,56769.00005340576,Tue Mar 18 2025 16:40:28 GMT-0500 (Central Daylight Time),393362.10000000056,A,towerenter,I,enter,562,1,3231.100000000559,390131.0,8035,WL,C,1.0
3,3.613999843597412,learn,56386.00015640259,Tue Mar 18 2025 16:40:28 GMT-0500 (Central Daylight Time),393745.0,A,w,I,w,371,1,382.59999999962747,393362.4000000004,8035,WL,C,2.0
3,3.7309999465942383,learn,56269.00005340576,Tue Mar 18 2025 16:40:28 GMT-0500 (Central Daylight Time),393861.9000000004,A,wh,I,h,100,1,499.5,393362.4000000004,8035,WL,C,2.0
3,3.880999803543091,learn,56119.00019645691,Tue Mar 18 2025 16:40:28 GMT-0500 (Central Daylight Time),394011.9000000004,A,whe,I,e,143,1,649.5,393362.4000000004,8035,WL,C,2.0
3,3.8980000019073486,learn,56101.99999809265,Tue Mar 18 2025 16:40:28 GMT-0500 (Central Daylight Time),394028.5,A,whea,I,a,9,1,666.0999999996275,393362.4000000004,8035,WL,C,2.0
3,4.046999931335449,learn,55953.00006866455,Tue Mar 18 2025 16:40:28 GMT-0500 (Central Daylight Time),394178.2999999998,A,wheat,I,t,145,1,815.8999999994412,393362.4000000004,8035,WL,C,2.0
3,4.346999883651733,learn,55653.00011634827,Tue Mar 18 2025 16:40:28 GMT-0500 (Central Daylight Time),394478.10000000056,A,wheatenter,I,enter,283,1,1115.7000000001863,393362.4000000004,8035,WL,C,2.0
3,4.679999828338623,learn,55320.00017166138,Tue Mar 18 2025 16:40:28 GMT-0500 (Central Daylight Time),394811.2999999998,A,q,I,q,327,1,332.79999999981374,394478.5,8035,WL,C,3.0
3,4.813999891281128,learn,55186.00010871887,Tue Mar 18 2025 16:40:28 GMT-0500 (Central Daylight Time),394944.7999999998,A,qu,I,u,114,1,466.29999999981374,394478.5,8035,WL,C,3.0
3,4.980000019073486,learn,55019.999980926514,Tue Mar 18 2025 16:40:28 GMT-0500 (Central Daylight Time),395111.2000000002,A,que,I,e,149,1,632.7000000001863,394478.5,8035,WL,C,3.0
3,5.113999843597412,learn,54886.00015640259,Tue Mar 18 2025 16:40:28 GMT-0500 (Central Daylight Time),395244.7000000002,A,quee,I,e,118,1,766.2000000001863,394478.5,8035,WL,C,3.0
3,5.246999979019165,learn,54753.000020980835,Tue Mar 18 2025 16:40:28 GMT-0500 (Central Daylight Time),395378.2000000002,A,queen,I,n,112,1,899.7000000001863,394478.5,8035,WL,C,3.0
3,5.546999931335449,learn,54453.00006866455,Tue Mar 18 2025 16:40:28 GMT-0500 (Central Daylight Time),395678.0,A,queenenter,I,enter,291,1,1199.5,394478.5,8035,WL,C,3.0
3,6.246999979019165,learn,53753.000020980835,Tue Mar 18 2025 16:40:28 GMT-0500 (Central Daylight Time),396377.9000000004,A,b,I,b,687,1,699.6000000005588,395678.2999999998,8035,WL,C,4.0
3,6.662999868392944,learn,53337.000131607056,Tue Mar 18 2025 16:40:28 GMT-0500 (Central Daylight Time),396794.10000000056,A,bo,I,o,403,1,1115.800000000745,395678.2999999998,8035,WL,C,4.0
3,6.94599986076355,learn,53054.00013923645,Tue Mar 18 2025 16:40:28 GMT-0500 (Central Daylight Time),397077.4000000004,A,boy,I,y,275,1,1399.1000000005588,395678.2999999998,8035,WL,C,4.0
3,7.19599986076355,learn,52804.00013923645,Tue Mar 18 2025 16:40:28 GMT-0500 (Central Daylight Time),397327.2999999998,A,boyenter,I,enter,240,1,1649.0,395678.2999999998,8035,WL,C,4.0
3,7.480000019073486,learn,52519.999980926514,Tue Mar 18 2025 16:40:28 GMT-0500 (Central Daylight Time),397610.7000000002,A,h,I,h,278,1,283.09999999962747,397327.60000000056,8035,WL,C,5.0
3,7.61299991607666,learn,52387.00008392334,Tue Mar 18 2025 16:40:28 GMT-0500 (Central Daylight Time),397744.0,A,ho,I,o,114,1,416.3999999994412,397327.60000000056,8035,WL,C,5.0
3,7.730000019073486,learn,52269.999980926514,Tue Mar 18 2025 16:40:28 GMT-0500 (Central Daylight Time),397860.7000000002,A,hom,I,m,109,1,533.0999999996275,397327.60000000056,8035,WL,C,5.0
3,7.895999908447266,learn,52104.000091552734,Tue Mar 18 2025 16:40:28 GMT-0500 (Central Daylight Time),398027.0,A,home,I,e,160,1,699.3999999994412,397327.60000000056,8035,WL,C,5.0
3,8.178999900817871,learn,51821.00009918213,Tue Mar 18 2025 16:40:28 GMT-0500 (Central Daylight Time),398310.4000000004,A,homeenter,I,enter,266,1,982.7999999998137,397327.60000000056,8035,WL,C,5.0
3,9.69599986076355,learn,50304.00013923645,Tue Mar 18 2025 16:40:28 GMT-0500 (Central Daylight Time),399826.7000000002,A,s,I,s,1495,1,1516.0,398310.7000000002,8035,WL,C,6.0
3,9.845999956130981,learn,50154.00004386902,Tue Mar 18 2025 16:40:28 GMT-0500 (Central Daylight Time),399976.5,A,su,I,u,131,1,1665.7999999998137,398310.7000000002,8035,WL,C,6.0
3,9.995999813079834,learn,50004.000186920166,Tue Mar 18 2025 16:40:28 GMT-0500 (Central Daylight Time),400126.7000000002,A,sug,I,g,141,1,1816.0,398310.7000000002,8035,WL,C,6.0
3,10.111999988555908,learn,49888.00001144409,Tue Mar 18 2025 16:40:28 GMT-0500 (Central Daylight Time),400243.0,A,suga,I,a,111,1,1932.2999999998137,398310.7000000002,8035,WL,C,6.0
3,10.27899980545044,learn,49721.00019454956,Tue Mar 18 2025 16:40:28 GMT-0500 (Central Daylight Time),400410.0,A,sugar,I,r,146,1,2099.2999999998137,398310.7000000002,8035,WL,C,6.0
3,10.811999797821045,learn,49188.000202178955,Tue Mar 18 2025 16:40:28 GMT-0500 (Central Daylight Time),400943.0,A,sugarenter,I,enter,515,1,2632.2999999998137,398310.7000000002,8035,WL,C,6.0
3,13.444999933242798,learn,46555.0000667572,Tue Mar 18 2025 16:40:28 GMT-0500 (Central Daylight Time),403575.4000000004,A,l,I,l,2614,1,2632.0,400943.4000000004,8035,WL,C,7.0
3,13.560999870300293,learn,46439.00012969971,Tue Mar 18 2025 16:40:28 GMT-0500 (Central Daylight Time),403692.2000000002,A,le,I,e,110,1,2748.7999999998137,400943.4000000004,8035,WL,C,7.0
3,13.67799997329712,learn,46322.00002670288,Tue Mar 18 2025 16:40:28 GMT-0500 (Central Daylight Time),403808.60000000056,A,let,I,t,97,1,2865.2000000001863,400943.4000000004,8035,WL,C,7.0
3,13.793999910354614,learn,46206.000089645386,Tue Mar 18 2025 16:40:28 GMT-0500 (Central Daylight Time),403925.2999999998,A,lett,I,t,109,1,2981.899999999441,400943.4000000004,8035,WL,C,7.0
3,13.960999965667725,learn,46039.000034332275,Tue Mar 18 2025 16:40:28 GMT-0500 (Central Daylight Time),404092.2000000002,A,lette,I,e,152,1,3148.7999999998137,400943.4000000004,8035,WL,C,7.0
3,14.060999870300293,learn,45939.00012969971,Tue Mar 18 2025 16:40:28 GMT-0500 (Central Daylight Time),404192.0,A,letter,I,r,89,1,3248.5999999996275,400943.4000000004,8035,WL,C,7.0
3,14.210999965667725,learn,45789.000034332275,Tue Mar 18 2025 16:40:28 GMT-0500 (Central Daylight Time),404342.0,A,letterenter,I,enter,141,1,3398.5999999996275,400943.4000000004,8035,WL,C,7.0
3,17.72599983215332,learn,42274.00016784668,Tue Mar 18 2025 16:40:28 GMT-0500 (Central Daylight Time),407857.4000000004,A,b,I,b,3503,1,3515.0,404342.4000000004,8035,WL,C,8.0
3,17.80999994277954,learn,42190.00005722046,Tue Mar 18 2025 16:40:28 GMT-0500 (Central Daylight Time),407940.7000000002,A,bo,I,o,67,1,3598.2999999998137,404342.4000000004,8035,WL,C,8.0
3,17.977999925613403,learn,42022.0000743866,Tue Mar 18 2025 16:40:28 GMT-0500 (Central Daylight Time),408108.4000000004,A,bod,I,d,160,1,3766.0,404342.4000000004,8035,WL,C,8.0
3,18.092999935150146,learn,41907.00006484985,Tue Mar 18 2025 16:40:28 GMT-0500 (Central Daylight Time),408223.7999999998,A,body,I,y,105,1,3881.399999999441,404342.4000000004,8035,WL,C,8.0
3,18.459999799728394,learn,41540.00020027161,Tue Mar 18 2025 16:40:28 GMT-0500 (Central Daylight Time),408590.5,A,bodyenter,I,enter,357,1,4248.0999999996275,404342.4000000004,8035,WL,C,8.0
3,20.80900001525879,learn,39190.99998474121,Tue Mar 18 2025 16:40:28 GMT-0500 (Central Daylight Time),410939.9000000004,A,h,I,h,2343,1,2349.2999999998137,408590.60000000056,8035,WL,C,9.0
3,20.925999879837036,learn,39074.000120162964,Tue Mar 18 2025 16:40:28 GMT-0500 (Central Daylight Time),411056.5,A,ho,I,o,105,1,2465.899999999441,408590.60000000056,8035,WL,C,9.0
3,21.024999856948853,learn,38975.00014305115,Tue Mar 18 2025 16:40:28 GMT-0500 (Central Daylight Time),411156.2999999998,A,hom,I,m,93,1,2565.699999999255,408590.60000000056,8035,WL,C,9.0
3,21.14199995994568,learn,38858.00004005432,Tue Mar 18 2025 16:40:28 GMT-0500 (Central Daylight Time),411273.10000000056,A,home,I,e,105,1,2682.5,408590.60000000056,8035,WL,C,9.0
3,21.54199981689453,learn,38458.00018310547,Tue Mar 18 2025 16:40:28 GMT-0500 (Central Daylight Time),411673.0,A,homeenter,I,enter,380,1,3082.399999999441,408590.60000000056,8035,WL,C,9.0
3,26.02300000190735,learn,33976.99999809265,Tue Mar 18 2025 16:40:28 GMT-0500 (Central Daylight Time),416154.7999999998,A,c,I,c,4477,1,4481.5,411673.2999999998,8035,WL,C,10.0
3,26.1729998588562,learn,33827.0001411438,Tue Mar 18 2025 16:40:28 GMT-0500 (Central Daylight Time),416304.7000000002,A,ca,I,a,130,1,4631.4000000003725,411673.2999999998,8035,WL,C,10.0
3,26.405999898910522,learn,33594.00010108948,Tue Mar 18 2025 16:40:28 GMT-0500 (Central Daylight Time),416538.10000000056,A,cat,I,t,213,1,4864.800000000745,411673.2999999998,8035,WL,C,10.0
3,26.50599980354309,learn,33494.00019645691,Tue Mar 18 2025 16:40:28 GMT-0500 (Central Daylight Time),416638.10000000056,A,catt,I,t,91,1,4964.800000000745,411673.2999999998,8035,WL,C,10.0
3,26.77300000190735,learn,33226.99999809265,Tue Mar 18 2025 16:40:28 GMT-0500 (Central Daylight Time),416904.7000000002,A,cattl,I,l,255,1,5231.4000000003725,411673.2999999998,8035,WL,C,10.0
3,26.906999826431274,learn,33093.000173568726,Tue Mar 18 2025 16:40:28 GMT-0500 (Central Daylight Time),417039.10000000056,A,cattle,I,e,126,1,5365.800000000745,411673.2999999998,8035,WL,C,10.0
3,27.138999938964844,learn,32861.000061035156,Tue Mar 18 2025 16:40:28 GMT-0500 (Central Daylight Time),417271.2000000002,A,cattleenter,I,enter,214,1,5597.9000000003725,411673.2999999998,8035,WL,C,10.0
3,34.0699999332428,learn,25930.000066757202,Tue Mar 18 2025 16:40:28 GMT-0500 (Central Daylight Time),424202.2999999998,A,n,I,n,6918,1,6930.799999999814,417271.5,8035,WL,C,11.0
3,34.186999797821045,learn,25813.000202178955,Tue Mar 18 2025 16:40:28 GMT-0500 (Central Daylight Time),424318.9000000004,A,na,I,a,107,1,7047.4000000003725,417271.5,8035,WL,C,11.0
3,34.269999980926514,learn,25730.000019073486,Tue Mar 18 2025 16:40:28 GMT-0500 (Central Daylight Time),424402.2000000002,A,nai,I,i,70,1,7130.700000000186,417271.5,8035,WL,C,11.0
3,34.353999853134155,learn,25646.000146865845,Tue Mar 18 2025 16:40:28 GMT-0500 (Central Daylight Time),424485.7000000002,A,nail,I,l,75,1,7214.200000000186,417271.5,8035,WL,C,11.0
3,34.61999988555908,learn,25380.000114440918,Tue Mar 18 2025 16:40:28 GMT-0500 (Central Daylight Time),424752.2000000002,A,nailenter,I,enter,248,1,7480.700000000186,417271.5,8035,WL,C,11.0
3,42.50099992752075,learn,17499.000072479248,Tue Mar 18 2025 16:40:28 GMT-0500 (Central Daylight Time),432633.2000000002,A,f,I,f,7869,1,7880.5999999996275,424752.60000000056,8035,WL,C,12.0
3,42.60099983215332,learn,17399.00016784668,Tue Mar 18 2025 16:40:28 GMT-0500 (Central Daylight Time),432733.2000000002,A,fl,I,l,92,1,7980.5999999996275,424752.60000000056,8035,WL,C,12.0
3,42.70099997520447,learn,17299.000024795532,Tue Mar 18 2025 16:40:28 GMT-0500 (Central Daylight Time),432833.10000000056,A,fla,I,a,88,1,8080.5,424752.60000000056,8035,WL,C,12.0
3,42.91799998283386,learn,17082.000017166138,Tue Mar 18 2025 16:40:28 GMT-0500 (Central Daylight Time),433049.7000000002,A,flag,I,g,204,1,8297.099999999627,424752.60000000056,8035,WL,C,12.0
3,43.18400001525879,learn,16815.99998474121,Tue Mar 18 2025 16:40:28 GMT-0500 (Central Daylight Time),433316.2999999998,A,flagenter,I,enter,260,1,8563.699999999255,424752.60000000056,8035,WL,C,12.0
3,44.59999990463257,learn,15400.000095367432,Tue Mar 18 2025 16:40:28 GMT-0500 (Central Daylight Time),434732.4000000004,A,c,I,c,1401,1,1415.9000000003725,433316.5,8035,WL,C,13.0
3,44.717000007629395,learn,15282.999992370605,Tue Mar 18 2025 16:40:28 GMT-0500 (Central Daylight Time),434849.2000000002,A,ca,I,a,97,1,1532.7000000001863,433316.5,8035,WL,C,13.0
3,44.799999952316284,learn,15200.000047683716,Tue Mar 18 2025 16:40:28 GMT-0500 (Central Daylight Time),434932.5,A,cam,I,m,68,1,1616.0,433316.5,8035,WL,C,13.0
3,44.94999980926514,learn,15050.000190734863,Tue Mar 18 2025 16:40:28 GMT-0500 (Central Daylight Time),435082.5,A,camp,I,p,137,1,1766.0,433316.5,8035,WL,C,13.0
3,45.383999824523926,learn,14616.000175476074,Tue Mar 18 2025 16:40:28 GMT-0500 (Central Daylight Time),435516.2999999998,A,campenter,I,enter,427,1,2199.7999999998137,433316.5,8035,WL,C,13.0
3,50.21599984169006,learn,9784.000158309937,Tue Mar 18 2025 16:40:28 GMT-0500 (Central Daylight Time),440348.4000000004,A,enter,I,enter,4825,1,4831.9000000003725,435516.5,8035,WL,C,14.0
3,50.94799995422363,learn,9052.000045776367,Tue Mar 18 2025 16:40:28 GMT-0500 (Central Daylight Time),441080.2999999998,A,enter,I,enter,713,1,731.5999999996275,440348.7000000002,8035,WL,C,15.0
4,1.7989997863769531,learn,58201.00021362305,Tue Mar 18 2025 16:40:28 GMT-0500 (Central Daylight Time),510458.7000000002,A,b,I,b,1780,1,1799.2999999998137,508659.4000000004,8035,WL,C,1.0
4,1.9159998893737793,learn,58084.00011062622,Tue Mar 18 2025 16:40:28 GMT-0500 (Central Daylight Time),510575.4000000004,A,bo,I,o,106,1,1916.0,508659.4000000004,8035,WL,C,1.0
4,2.2819998264312744,learn,57718.000173568726,Tue Mar 18 2025 16:40:28 GMT-0500 (Central Daylight Time),510941.7999999998,A,bod,I,d,358,1,2282.399999999441,508659.4000000004,8035,WL,C,1.0
4,2.565999984741211,learn,57434.00001525879,Tue Mar 18 2025 16:40:28 GMT-0500 (Central Daylight Time),511225.0,A,body,I,y,263,1,2565.5999999996275,508659.4000000004,8035,WL,C,1.0
4,2.8489999771118164,learn,57151.00002288818,Tue Mar 18 2025 16:40:28 GMT-0500 (Central Daylight Time),511508.2999999998,A,bodyenter,I,enter,268,1,2848.899999999441,508659.4000000004,8035,WL,C,1.0
4,3.1489999294281006,learn,56851.0000705719,Tue Mar 18 2025 16:40:28 GMT-0500 (Central Daylight Time),511808.2999999998,A,s,I,s,281,1,299.79999999981374,511508.5,8035,WL,C,2.0
4,3.365999937057495,learn,56634.000062942505,Tue Mar 18 2025 16:40:28 GMT-0500 (Central Daylight Time),512025.0,A,so,I,o,205,1,516.5,511508.5,8035,WL,C,2.0
4,3.7819998264312744,learn,56218.000173568726,Tue Mar 18 2025 16:40:28 GMT-0500 (Central Daylight Time),512441.4000000004,A,s,I,backspace,396,1,932.9000000003725,511508.5,8035,WL,C,2.0
4,3.9819998741149902,learn,56018.00012588501,Tue Mar 18 2025 16:40:28 GMT-0500 (Central Daylight Time),512641.2000000002,A,sh,I,h,180,1,1132.7000000001863,511508.5,8035,WL,C,2.0
4,4.1499998569488525,learn,55850.00014305115,Tue Mar 18 2025 16:40:28 GMT-0500 (Central Daylight Time),512808.9000000004,A,sho,I,o,156,1,1300.4000000003725,511508.5,8035,WL,C,2.0
4,4.297999858856201,learn,55702.0001411438,Tue Mar 18 2025 16:40:28 GMT-0500 (Central Daylight Time),512957.7999999998,A,shor,I,r,133,1,1449.2999999998137,511508.5,8035,WL,C,2.0
4,4.416999816894531,learn,55583.00018310547,Tue Mar 18 2025 16:40:28 GMT-0500 (Central Daylight Time),513076.0,A,shore,I,e,96,1,1567.5,511508.5,8035,WL,C,2.0
4,4.698999881744385,learn,55301.000118255615,Tue Mar 18 2025 16:40:28 GMT-0500 (Central Daylight Time),513357.9000000004,A,shoreenter,I,enter,273,1,1849.4000000003725,511508.5,8035,WL,C,2.0
4,5.097999811172485,learn,54902.000188827515,Tue Mar 18 2025 16:40:28 GMT-0500 (Central Daylight Time),513757.7999999998,A,f,I,f,391,1,399.5,513358.2999999998,8035,WL,C,3.0
4,5.247999906539917,learn,54752.00009346008,Tue Mar 18 2025 16:40:28 GMT-0500 (Central Daylight Time),513907.60000000056,A,fl,I,l,135,1,549.3000000007451,513358.2999999998,8035,WL,C,3.0
4,5.364999771118164,learn,54635.000228881836,Tue Mar 18 2025 16:40:28 GMT-0500 (Central Daylight Time),514024.10000000056,A,fla,I,a,106,1,665.8000000007451,513358.2999999998,8035,WL,C,3.0
4,5.614999771118164,learn,54385.000228881836,Tue Mar 18 2025 16:40:28 GMT-0500 (Central Daylight Time),514274.0,A,flaf,I,f,246,1,915.7000000001863,513358.2999999998,8035,WL,C,3.0
4,6.013999938964844,learn,53986.000061035156,Tue Mar 18 2025 16:40:28 GMT-0500 (Central Daylight Time),514673.7000000002,A,fla,I,backspace,387,1,1315.4000000003725,513358.2999999998,8035,WL,C,3.0
4,6.113999843597412,learn,53886.00015640259,Tue Mar 18 2025 16:40:28 GMT-0500 (Central Daylight Time),514773.7000000002,A,flag,I,g,92,1,1415.4000000003725,513358.2999999998,8035,WL,C,3.0
4,6.696999788284302,learn,53303.0002117157,Tue Mar 18 2025 16:40:28 GMT-0500 (Central Daylight Time),515356.7000000002,A,flagenter,I,enter,575,1,1998.4000000003725,513358.2999999998,8035,WL,C,3.0
4,7.148000001907349,learn,52851.99999809265,Tue Mar 18 2025 16:40:28 GMT-0500 (Central Daylight Time),515806.7999999998,A,l,I,l,442,1,449.79999999981374,515357.0,8035,WL,C,4.0
4,7.263999938964844,learn,52736.000061035156,Tue Mar 18 2025 16:40:28 GMT-0500 (Central Daylight Time),515923.60000000056,A,le,I,e,103,1,566.6000000005588,515357.0,8035,WL,C,4.0
4,7.380999803543091,learn,52619.00019645691,Tue Mar 18 2025 16:40:28 GMT-0500 (Central Daylight Time),516040.5,A,let,I,t,106,1,683.5,515357.0,8035,WL,C,4.0
4,7.496999979019165,learn,52503.000020980835,Tue Mar 18 2025 16:40:28 GMT-0500 (Central Daylight Time),516156.7999999998,A,lett,I,t,109,1,799.7999999998137,515357.0,8035,WL,C,4.0
4,7.680999994277954,learn,52319.000005722046,Tue Mar 18 2025 16:40:28 GMT-0500 (Central Daylight Time),516340.0,A,lette,I,e,177,1,983.0,515357.0,8035,WL,C,4.0
4,7.7809998989105225,learn,52219.00010108948,Tue Mar 18 2025 16:40:28 GMT-0500 (Central Daylight Time),516440.2000000002,A,letter,I,r,81,1,1083.2000000001863,515357.0,8035,WL,C,4.0
4,8.030999898910522,learn,51969.00010108948,Tue Mar 18 2025 16:40:28 GMT-0500 (Central Daylight Time),516690.2999999998,A,letterenter,I,enter,229,1,1333.2999999998137,515357.0,8035,WL,C,4.0
4,8.63099980354309,learn,51369.00019645691,Tue Mar 18 2025 16:40:28 GMT-0500 (Central Daylight Time),517290.10000000056,A,c,I,c,579,1,599.6000000005588,516690.5,8035,WL,C,5.0
4,8.746999979019165,learn,51253.000020980835,Tue Mar 18 2025 16:40:28 GMT-0500 (Central Daylight Time),517406.7000000002,A,ca,I,a,107,1,716.2000000001863,516690.5,8035,WL,C,5.0
4,8.813999891281128,learn,51186.00010871887,Tue Mar 18 2025 16:40:28 GMT-0500 (Central Daylight Time),517473.5,A,cam,I,m,55,1,783.0,516690.5,8035,WL,C,5.0
4,9.04699993133545,learn,50953.00006866455,Tue Mar 18 2025 16:40:28 GMT-0500 (Central Daylight Time),517706.4000000004,A,camp,I,p,212,1,1015.9000000003725,516690.5,8035,WL,C,5.0
4,9.46399998664856,learn,50536.00001335144,Tue Mar 18 2025 16:40:28 GMT-0500 (Central Daylight Time),518123.10000000056,A,campenter,I,enter,396,1,1432.6000000005588,516690.5,8035,WL,C,5.0
4,9.829999923706055,learn,50170.000076293945,Tue Mar 18 2025 16:40:28 GMT-0500 (Central Daylight Time),518489.5,A,t,I,t,354,1,366.09999999962747,518123.4000000004,8035,WL,C,6.0
4,9.946999788284302,learn,50053.0002117157,Tue Mar 18 2025 16:40:28 GMT-0500 (Central Daylight Time),518606.2999999998,A,to,I,o,108,1,482.8999999994412,518123.4000000004,8035,WL,C,6.0
4,10.063999891281128,learn,49936.00010871887,Tue Mar 18 2025 16:40:28 GMT-0500 (Central Daylight Time),518722.9000000004,A,tow,I,w,103,1,599.5,518123.4000000004,8035,WL,C,6.0
4,10.162999868392944,learn,49837.000131607056,Tue Mar 18 2025 16:40:28 GMT-0500 (Central Daylight Time),518822.60000000056,A,towe,I,e,90,1,699.2000000001863,518123.4000000004,8035,WL,C,6.0
4,10.27999997138977,learn,49720.00002861023,Tue Mar 18 2025 16:40:28 GMT-0500 (Central Daylight Time),518939.2999999998,A,tower,I,r,103,1,815.8999999994412,518123.4000000004,8035,WL,C,6.0
4,10.512999773025513,learn,49487.00022697449,Tue Mar 18 2025 16:40:28 GMT-0500 (Central Daylight Time),519172.60000000056,A,towerenter,I,enter,218,1,1049.2000000001863,518123.4000000004,8035,WL,C,6.0
4,10.929999828338623,learn,49070.00017166138,Tue Mar 18 2025 16:40:28 GMT-0500 (Central Daylight Time),519589.2000000002,A,w,I,w,409,1,416.20000000018626,519173.0,8035,WL,C,7.0
4,11.11299991607666,learn,48887.00008392334,Tue Mar 18 2025 16:40:28 GMT-0500 (Central Daylight Time),519772.2000000002,A,wh,I,h,168,1,599.2000000001863,519173.0,8035,WL,C,7.0
4,11.162999868392944,learn,48837.000131607056,Tue Mar 18 2025 16:40:28 GMT-0500 (Central Daylight Time),519822.4000000004,A,whe,I,e,41,1,649.4000000003725,519173.0,8035,WL,C,7.0
4,11.262999773025513,learn,48737.00022697449,Tue Mar 18 2025 16:40:28 GMT-0500 (Central Daylight Time),519922.7999999998,A,whea,I,a,87,1,749.7999999998137,519173.0,8035,WL,C,7.0
4,11.36299991607666,learn,48637.00008392334,Tue Mar 18 2025 16:40:28 GMT-0500 (Central Daylight Time),520022.2999999998,A,wheat,I,t,83,1,849.2999999998137,519173.0,8035,WL,C,7.0
4,11.562999963760376,learn,48437.000036239624,Tue Mar 18 2025 16:40:28 GMT-0500 (Central Daylight Time),520222.5,A,wheatenter,I,enter,183,1,1049.5,519173.0,8035,WL,C,7.0
4,11.86299991607666,learn,48137.00008392334,Tue Mar 18 2025 16:40:28 GMT-0500 (Central Daylight Time),520522.5,A,q,I,q,295,1,299.70000000018626,520222.7999999998,8035,WL,C,8.0
4,12.02999997138977,learn,47970.00002861023,Tue Mar 18 2025 16:40:28 GMT-0500 (Central Daylight Time),520689.0,A,qu,I,u,147,1,466.20000000018626,520222.7999999998,8035,WL,C,8.0
4,12.145999908447266,learn,47854.000091552734,Tue Mar 18 2025 16:40:28 GMT-0500 (Central Daylight Time),520805.4000000004,A,que,I,e,100,1,582.6000000005588,520222.7999999998,8035,WL,C,8.0
4,12.378999948501587,learn,47621.00005149841,Tue Mar 18 2025 16:40:28 GMT-0500 (Central Daylight Time),521038.7000000002,A,quee,I,e,224,1,815.9000000003725,520222.7999999998,8035,WL,C,8.0
4,12.546000003814697,learn,47453.9999961853,Tue Mar 18 2025 16:40:28 GMT-0500 (Central Daylight Time),521205.2999999998,A,queen,I,n,159,1,982.5,520222.7999999998,8035,WL,C,8.0
4,12.878999948501587,learn,47121.00005149841,Tue Mar 18 2025 16:40:28 GMT-0500 (Central Daylight Time),521538.7000000002,A,queenenter,I,enter,312,1,1315.9000000003725,520222.7999999998,8035,WL,C,8.0
4,14.894999980926514,learn,45105.000019073486,Tue Mar 18 2025 16:40:28 GMT-0500 (Central Daylight Time),523554.9000000004,A,b,I,b,1996,1,2015.9000000003725,521539.0,8035,WL,C,9.0
4,14.978999853134155,learn,45021.000146865845,Tue Mar 18 2025 16:40:28 GMT-0500 (Central Daylight Time),523637.9000000004,A,bo,I,o,66,1,2098.9000000003725,521539.0,8035,WL,C,9.0
4,15.179999828338623,learn,44820.00017166138,Tue Mar 18 2025 16:40:28 GMT-0500 (Central Daylight Time),523839.0,A,boy,I,y,191,1,2300.0,521539.0,8035,WL,C,9.0
4,15.527999877929688,learn,44472.00012207031,Tue Mar 18 2025 16:40:28 GMT-0500 (Central Daylight Time),524187.60000000056,A,boyenter,I,enter,334,1,2648.600000000559,521539.0,8035,WL,C,9.0
4,15.861999988555908,learn,44138.00001144409,Tue Mar 18 2025 16:40:28 GMT-0500 (Central Daylight Time),524521.0,A,d,I,d,314,1,333.0,524188.0,8035,WL,C,10.0
4,15.92799997329712,learn,44072.00002670288,Tue Mar 18 2025 16:40:28 GMT-0500 (Central Daylight Time),524587.5,A,do,I,o,60,1,399.5,524188.0,8035,WL,C,10.0
4,16.09499979019165,learn,43905.00020980835,Tue Mar 18 2025 16:40:28 GMT-0500 (Central Daylight Time),524754.5,A,doc,I,c,162,1,566.5,524188.0,8035,WL,C,10.0
4,16.294999837875366,learn,43705.000162124634,Tue Mar 18 2025 16:40:28 GMT-0500 (Central Daylight Time),524954.2999999998,A,doct,I,t,195,1,766.2999999998137,524188.0,8035,WL,C,10.0
4,16.527999877929688,learn,43472.00012207031,Tue Mar 18 2025 16:40:28 GMT-0500 (Central Daylight Time),525187.2000000002,A,docto,I,o,227,1,999.2000000001863,524188.0,8035,WL,C,10.0
4,16.76099991798401,learn,43239.00008201599,Tue Mar 18 2025 16:40:28 GMT-0500 (Central Daylight Time),525420.5,A,doctor,I,r,218,1,1232.5,524188.0,8035,WL,C,10.0
4,17.694000005722046,learn,42305.999994277954,Tue Mar 18 2025 16:40:28 GMT-0500 (Central Daylight Time),526353.5,A,doctorenter,I,enter,921,1,2165.5,524188.0,8035,WL,C,10.0
4,19.97699999809265,learn,40023.00000190735,Tue Mar 18 2025 16:40:28 GMT-0500 (Central Daylight Time),528636.2999999998,A,h,I,h,2268,1,2282.5999999996275,526353.7000000002,8035,WL,C,11.0
4,20.109999895095825,learn,39890.000104904175,Tue Mar 18 2025 16:40:28 GMT-0500 (Central Daylight Time),528769.6000000006,A,ho,I,o,110,1,2415.9000000003725,526353.7000000002,8035,WL,C,11.0
4,20.22699999809265,learn,39773.00000190735,Tue Mar 18 2025 16:40:28 GMT-0500 (Central Daylight Time),528885.9000000004,A,hom,I,m,108,1,2532.2000000001863,526353.7000000002,8035,WL,C,11.0
4,20.32699990272522,learn,39673.00009727478,Tue Mar 18 2025 16:40:28 GMT-0500 (Central Daylight Time),528986.0,A,home,I,e,86,1,2632.2999999998137,526353.7000000002,8035,WL,C,11.0
4,20.542999982833862,learn,39457.00001716614,Tue Mar 18 2025 16:40:28 GMT-0500 (Central Daylight Time),529202.7000000002,A,homeenter,I,enter,211,1,2849.0,526353.7000000002,8035,WL,C,11.0
4,23.72599983215332,learn,36274.00016784668,Tue Mar 18 2025 16:40:28 GMT-0500 (Central Daylight Time),532385.2000000002,A,q,I,q,3163,1,3182.2000000001863,529203.0,8035,WL,C,12.0
4,23.842999935150146,learn,36157.00006484985,Tue Mar 18 2025 16:40:28 GMT-0500 (Central Daylight Time),532501.9000000004,A,qu,I,u,100,1,3298.9000000003725,529203.0,8035,WL,C,12.0
4,23.991999864578247,learn,36008.00013542175,Tue Mar 18 2025 16:40:28 GMT-0500 (Central Daylight Time),532651.7000000002,A,que,I,e,136,1,3448.7000000001863,529203.0,8035,WL,C,12.0
4,24.109999895095825,learn,35890.000104904175,Tue Mar 18 2025 16:40:28 GMT-0500 (Central Daylight Time),532769.6000000006,A,quee,I,e,106,1,3566.600000000559,529203.0,8035,WL,C,12.0
4,24.241999864578247,learn,35758.00013542175,Tue Mar 18 2025 16:40:28 GMT-0500 (Central Daylight Time),532901.6000000006,A,queen,I,n,124,1,3698.600000000559,529203.0,8035,WL,C,12.0
4,24.441999912261963,learn,35558.00008773804,Tue Mar 18 2025 16:40:28 GMT-0500 (Central Daylight Time),533101.7999999998,A,queenenter,I,enter,192,1,3898.7999999998137,529203.0,8035,WL,C,12.0
4,31.08899998664856,learn,28911.00001335144,Tue Mar 18 2025 16:40:28 GMT-0500 (Central Daylight Time),539749.6000000006,A,c,I,c,6639,1,6647.4000000003725,533102.2000000002,8035,WL,C,13.0
4,31.18999981880188,learn,28810.00018119812,Tue Mar 18 2025 16:40:28 GMT-0500 (Central Daylight Time),539850.6000000006,A,co,I,o,80,1,6748.4000000003725,533102.2000000002,8035,WL,C,13.0
4,32.187999963760376,learn,27812.000036239624,Tue Mar 18 2025 16:40:28 GMT-0500 (Central Daylight Time),540849.1000000006,A,cor,I,r,979,1,7746.9000000003725,533102.2000000002,8035,WL,C,13.0
4,32.371999979019165,learn,27628.000020980835,Tue Mar 18 2025 16:40:28 GMT-0500 (Central Daylight Time),541032.4000000004,A,corn,I,n,172,1,7930.200000000186,533102.2000000002,8035,WL,C,13.0
4,33.3219997882843,learn,26678.0002117157,Tue Mar 18 2025 16:40:28 GMT-0500 (Central Daylight Time),541982.2999999998,A,cornenter,I,enter,941,1,8880.099999999627,533102.2000000002,8035,WL,C,13.0
4,38.186999797821045,learn,21813.000202178955,Tue Mar 18 2025 16:40:28 GMT-0500 (Central Daylight Time),546847.2999999998,A,enter,I,enter,4855,1,4864.5999999996275,541982.7000000002,8035,WL,C,14.0
4,38.769999980926514,learn,21230.000019073486,Tue Mar 18 2025 16:40:28 GMT-0500 (Central Daylight Time),547430.4000000004,A,enter,I,enter,566,1,582.7000000001863,546847.7000000002,8035,WL,C,15.0
5,0.8499999046325684,learn,60000.0,Tue Mar 18 2025 16:40:28 GMT-0500 (Central Daylight Time),617825.1000000006,A,b,I,b,831,1,849.5,616975.6000000006,8035,WL,C,1.0
5,1.0169999599456787,learn,60000.0,Tue Mar 18 2025 16:40:28 GMT-0500 (Central Daylight Time),617991.9000000004,A,bo,I,o,148,1,1016.2999999998137,616975.6000000006,8035,WL,C,1.0
5,1.2000000476837158,learn,60000.0,Tue Mar 18 2025 16:40:28 GMT-0500 (Central Daylight Time),618175.1000000006,A,bod,I,d,174,1,1199.5,616975.6000000006,8035,WL,C,1.0
5,1.3499999046325684,learn,60000.0,Tue Mar 18 2025 16:40:28 GMT-0500 (Central Daylight Time),618325.1000000006,A,body,I,y,134,1,1349.5,616975.6000000006,8035,WL,C,1.0
5,1.6159999370574951,learn,60000.0,Tue Mar 18 2025 16:40:28 GMT-0500 (Central Daylight Time),618591.4000000004,A,bodyenter,I,enter,256,1,1615.7999999998137,616975.6000000006,8035,WL,C,1.0
5,1.9159998893737793,learn,60000.0,Tue Mar 18 2025 16:40:28 GMT-0500 (Central Daylight Time),618891.5,A,s,I,s,285,1,299.59999999962747,618591.9000000004,8035,WL,C,2.0
5,1.999000072479248,learn,60000.0,Tue Mar 18 2025 16:40:28 GMT-0500 (Central Daylight Time),618974.7000000002,A,sh,I,h,73,1,382.79999999981374,618591.9000000004,8035,WL,C,2.0
5,2.0989999771118164,learn,60000.0,Tue Mar 18 2025 16:40:28 GMT-0500 (Central Daylight Time),619074.7999999998,A,sho,I,o,80,1,482.8999999994412,618591.9000000004,8035,WL,C,2.0
5,2.2330000400543213,learn,60000.0,Tue Mar 18 2025 16:40:28 GMT-0500 (Central Daylight Time),619208.1000000006,A,shor,I,r,123,1,616.2000000001863,618591.9000000004,8035,WL,C,2.0
5,2.365999937057495,learn,60000.0,Tue Mar 18 2025 16:40:28 GMT-0500 (Central Daylight Time),619341.4000000004,A,shore,I,e,125,1,749.5,618591.9000000004,8035,WL,C,2.0
5,2.615999937057495,learn,60000.0,Tue Mar 18 2025 16:40:28 GMT-0500 (Central Daylight Time),619591.2999999998,A,shoreenter,I,enter,232,1,999.3999999994412,618591.9000000004,8035,WL,C,2.0
5,3.2160000801086426,learn,60000.0,Tue Mar 18 2025 16:40:28 GMT-0500 (Central Daylight Time),620190.9000000004,A,c,I,c,590,1,599.2000000001863,619591.7000000002,8035,WL,C,3.0
5,3.365999937057495,learn,60000.0,Tue Mar 18 2025 16:40:28 GMT-0500 (Central Daylight Time),620341.2000000002,A,ca,I,a,142,1,749.5,619591.7000000002,8035,WL,C,3.0
5,3.5160000324249268,learn,60000.0,Tue Mar 18 2025 16:40:28 GMT-0500 (Central Daylight Time),620491.1000000006,A,cat,I,t,136,1,899.4000000003725,619591.7000000002,8035,WL,C,3.0
5,3.6489999294281006,learn,60000.0,Tue Mar 18 2025 16:40:28 GMT-0500 (Central Daylight Time),620624.2999999998,A,catt,I,t,122,1,1032.5999999996275,619591.7000000002,8035,WL,C,3.0
5,3.7990000247955322,learn,60000.0,Tue Mar 18 2025 16:40:28 GMT-0500 (Central Daylight Time),620774.0,A,cattl,I,l,141,1,1182.2999999998137,619591.7000000002,8035,WL,C,3.0
5,3.9149999618530273,learn,60000.0,Tue Mar 18 2025 16:40:28 GMT-0500 (Central Daylight Time),620890.7999999998,A,cattle,I,e,112,1,1299.0999999996275,619591.7000000002,8035,WL,C,3.0
5,4.148999929428101,learn,60000.0,Tue Mar 18 2025 16:40:28 GMT-0500 (Central Daylight Time),621124.2000000002,A,cattleenter,I,enter,227,1,1532.5,619591.7000000002,8035,WL,C,3.0
5,4.549000024795532,learn,60000.0,Tue Mar 18 2025 16:40:28 GMT-0500 (Central Daylight Time),621524.1000000006,A,c,I,c,385,1,399.5,621124.6000000006,8035,WL,C,4.0
5,4.881999969482422,learn,60000.0,Tue Mar 18 2025 16:40:28 GMT-0500 (Central Daylight Time),621857.4000000004,A,co,I,o,321,1,732.7999999998137,621124.6000000006,8035,WL,C,4.0
5,5.015000104904175,learn,60000.0,Tue Mar 18 2025 16:40:28 GMT-0500 (Central Daylight Time),621990.4000000004,A,cor,I,r,116,1,865.7999999998137,621124.6000000006,8035,WL,C,4.0
5,5.164999961853027,learn,60000.0,Tue Mar 18 2025 16:40:28 GMT-0500 (Central Daylight Time),622140.4000000004,A,corn,I,n,143,1,1015.7999999998137,621124.6000000006,8035,WL,C,4.0
5,5.4649999141693115,learn,60000.0,Tue Mar 18 2025 16:40:28 GMT-0500 (Central Daylight Time),622440.2999999998,A,cornenter,I,enter,281,1,1315.699999999255,621124.6000000006,8035,WL,C,4.0
5,6.0980000495910645,learn,60000.0,Tue Mar 18 2025 16:40:28 GMT-0500 (Central Daylight Time),623073.4000000004,A,l,I,l,621,1,632.7000000001863,622440.7000000002,8035,WL,C,5.0
5,6.197999954223633,learn,60000.0,Tue Mar 18 2025 16:40:28 GMT-0500 (Central Daylight Time),623173.4000000004,A,le,I,e,83,1,732.7000000001863,622440.7000000002,8035,WL,C,5.0
5,6.3480000495910645,learn,60000.0,Tue Mar 18 2025 16:40:28 GMT-0500 (Central Daylight Time),623323.4000000004,A,let,I,t,136,1,882.7000000001863,622440.7000000002,8035,WL,C,5.0
5,6.813999891281128,learn,60000.0,Tue Mar 18 2025 16:40:28 GMT-0500 (Central Daylight Time),623789.7999999998,A,lett,I,t,450,1,1349.0999999996275,622440.7000000002,8035,WL,C,5.0
5,7.0309998989105225,learn,60000.0,Tue Mar 18 2025 16:40:28 GMT-0500 (Central Daylight Time),624006.4000000004,A,lette,I,e,199,1,1565.7000000001863,622440.7000000002,8035,WL,C,5.0
5,7.114000082015991,learn,60000.0,Tue Mar 18 2025 16:40:28 GMT-0500 (Central Daylight Time),624089.7000000002,A,letter,I,r,71,1,1649.0,622440.7000000002,8035,WL,C,5.0
5,7.313999891281128,learn,60000.0,Tue Mar 18 2025 16:40:28 GMT-0500 (Central Daylight Time),624289.7000000002,A,letterenter,I,enter,188,1,1849.0,622440.7000000002,8035,WL,C,5.0
5,7.54800009727478,learn,60000.0,Tue Mar 18 2025 16:40:28 GMT-0500 (Central Daylight Time),624523.2999999998,A,f,I,f,213,1,233.29999999981374,624290.0,8035,WL,C,6.0
5,7.730999946594238,learn,60000.0,Tue Mar 18 2025 16:40:28 GMT-0500 (Central Daylight Time),624706.2999999998,A,fl,I,l,162,1,416.29999999981374,624290.0,8035,WL,C,6.0
5,8.157999992370605,learn,60000.0,Tue Mar 18 2025 16:40:28 GMT-0500 (Central Daylight Time),625133.7000000002,A,fla,I,a,406,1,843.7000000001863,624290.0,8035,WL,C,6.0
5,8.280999898910522,learn,60000.0,Tue Mar 18 2025 16:40:28 GMT-0500 (Central Daylight Time),625256.2000000002,A,flag,I,g,112,1,966.2000000001863,624290.0,8035,WL,C,6.0
5,8.664000034332275,learn,60000.0,Tue Mar 18 2025 16:40:28 GMT-0500 (Central Daylight Time),625639.5,A,flagenter,I,enter,373,1,1349.5,624290.0,8035,WL,C,6.0
5,12.312999963760376,learn,60000.0,Tue Mar 18 2025 16:40:28 GMT-0500 (Central Daylight Time),629288.2999999998,A,t,I,t,3630,1,3648.5,625639.7999999998,8035,WL,C,7.0
5,12.52999997138977,learn,60000.0,Tue Mar 18 2025 16:40:28 GMT-0500 (Central Daylight Time),629505.0,A,to,I,o,197,1,3865.2000000001863,625639.7999999998,8035,WL,C,7.0
5,12.696000099182129,learn,60000.0,Tue Mar 18 2025 16:40:28 GMT-0500 (Central Daylight Time),629671.6000000006,A,tow,I,w,156,1,4031.800000000745,625639.7999999998,8035,WL,C,7.0
5,12.845999956130981,learn,60000.0,Tue Mar 18 2025 16:40:28 GMT-0500 (Central Daylight Time),629821.6000000006,A,towe,I,e,134,1,4181.800000000745,625639.7999999998,8035,WL,C,7.0
5,12.979000091552734,learn,60000.0,Tue Mar 18 2025 16:40:28 GMT-0500 (Central Daylight Time),629954.6000000006,A,tower,I,r,113,1,4314.800000000745,625639.7999999998,8035,WL,C,7.0
5,13.211999893188477,learn,60000.0,Tue Mar 18 2025 16:40:28 GMT-0500 (Central Daylight Time),630187.7999999998,A,towerenter,I,enter,228,1,4548.0,625639.7999999998,8035,WL,C,7.0
5,13.513000011444092,learn,60000.0,Tue Mar 18 2025 16:40:28 GMT-0500 (Central Daylight Time),630487.7999999998,A,w,I,w,282,1,299.8999999994412,630187.9000000004,8035,WL,C,8.0
5,13.661999940872192,learn,60000.0,Tue Mar 18 2025 16:40:28 GMT-0500 (Central Daylight Time),630637.5,A,wh,I,h,134,1,449.59999999962747,630187.9000000004,8035,WL,C,8.0
5,13.76200008392334,learn,60000.0,Tue Mar 18 2025 16:40:28 GMT-0500 (Central Daylight Time),630737.5,A,whe,I,e,88,1,549.5999999996275,630187.9000000004,8035,WL,C,8.0
5,13.779000043869019,learn,60000.0,Tue Mar 18 2025 16:40:28 GMT-0500 (Central Daylight Time),630754.1000000006,A,whea,I,a,4,1,566.2000000001863,630187.9000000004,8035,WL,C,8.0
5,13.895999908447266,learn,60000.0,Tue Mar 18 2025 16:40:28 GMT-0500 (Central Daylight Time),630871.2999999998,A,wheat,I,t,107,1,683.3999999994412,630187.9000000004,8035,WL,C,8.0
5,14.361999988555908,learn,60000.0,Tue Mar 18 2025 16:40:28 GMT-0500 (Central Daylight Time),631337.4000000004,A,wheatenter,I,enter,446,1,1149.5,630187.9000000004,8035,WL,C,8.0
5,14.611999988555908,learn,60000.0,Tue Mar 18 2025 16:40:28 GMT-0500 (Central Daylight Time),631587.6000000006,A,q,I,q,235,1,249.80000000074506,631337.7999999998,8035,WL,C,9.0
5,14.76200008392334,learn,60000.0,Tue Mar 18 2025 16:40:28 GMT-0500 (Central Daylight Time),631737.5,A,qu,I,u,138,1,399.70000000018626,631337.7999999998,8035,WL,C,9.0
5,14.928999900817871,learn,60000.0,Tue Mar 18 2025 16:40:28 GMT-0500 (Central Daylight Time),631904.2000000002,A,que,I,e,148,1,566.4000000003725,631337.7999999998,8035,WL,C,9.0
5,15.045000076293945,learn,60000.0,Tue Mar 18 2025 16:40:28 GMT-0500 (Central Daylight Time),632020.6000000006,A,quee,I,e,101,1,682.8000000007451,631337.7999999998,8035,WL,C,9.0
5,15.194999933242798,learn,60000.0,Tue Mar 18 2025 16:40:28 GMT-0500 (Central Daylight Time),632170.5,A,queen,I,n,137,1,832.7000000001863,631337.7999999998,8035,WL,C,9.0
5,15.494999885559082,learn,60000.0,Tue Mar 18 2025 16:40:28 GMT-0500 (Central Daylight Time),632470.5,A,queenenter,I,enter,283,1,1132.7000000001863,631337.7999999998,8035,WL,C,9.0
5,16.144999980926514,learn,60000.0,Tue Mar 18 2025 16:40:28 GMT-0500 (Central Daylight Time),633120.2999999998,A,b,I,b,639,1,649.3999999994412,632470.9000000004,8035,WL,C,10.0
5,16.227999925613403,learn,60000.0,Tue Mar 18 2025 16:40:28 GMT-0500 (Central Daylight Time),633203.5,A,bo,I,o,77,1,732.5999999996275,632470.9000000004,8035,WL,C,10.0
5,16.461999893188477,learn,60000.0,Tue Mar 18 2025 16:40:28 GMT-0500 (Central Daylight Time),633437.1000000006,A,boy,I,y,218,1,966.2000000001863,632470.9000000004,8035,WL,C,10.0
5,16.84500002861023,learn,60000.0,Tue Mar 18 2025 16:40:28 GMT-0500 (Central Daylight Time),633820.2000000002,A,boyenter,I,enter,376,1,1349.2999999998137,632470.9000000004,8035,WL,C,10.0
5,17.210999965667725,learn,60000.0,Tue Mar 18 2025 16:40:28 GMT-0500 (Central Daylight Time),634186.6000000006,A,h,I,h,361,1,366.1000000005588,633820.5,8035,WL,C,11.0
5,17.32800006866455,learn,60000.0,Tue Mar 18 2025 16:40:28 GMT-0500 (Central Daylight Time),634303.4000000004,A,ho,I,o,107,1,482.90000000037253,633820.5,8035,WL,C,11.0
5,17.477999925613403,learn,60000.0,Tue Mar 18 2025 16:40:28 GMT-0500 (Central Daylight Time),634453.2999999998,A,hom,I,m,134,1,632.7999999998137,633820.5,8035,WL,C,11.0
5,17.628000020980835,learn,60000.0,Tue Mar 18 2025 16:40:28 GMT-0500 (Central Daylight Time),634603.1000000006,A,home,I,e,144,1,782.6000000005588,633820.5,8035,WL,C,11.0
5,17.861000061035156,learn,60000.0,Tue Mar 18 2025 16:40:28 GMT-0500 (Central Daylight Time),634836.2000000002,A,homeenter,I,enter,218,1,1015.7000000001863,633820.5,8035,WL,C,11.0
5,18.227999925613403,learn,60000.0,Tue Mar 18 2025 16:40:28 GMT-0500 (Central Daylight Time),635203.1000000006,A,s,I,s,362,1,366.6000000005588,634836.5,8035,WL,C,12.0
5,18.378000020980835,learn,60000.0,Tue Mar 18 2025 16:40:28 GMT-0500 (Central Daylight Time),635353.2999999998,A,su,I,u,130,1,516.7999999998137,634836.5,8035,WL,C,12.0
5,18.477999925613403,learn,60000.0,Tue Mar 18 2025 16:40:28 GMT-0500 (Central Daylight Time),635453.0,A,sug,I,g,92,1,616.5,634836.5,8035,WL,C,12.0
5,18.64400005340576,learn,60000.0,Tue Mar 18 2025 16:40:28 GMT-0500 (Central Daylight Time),635619.7999999998,A,suga,I,a,152,1,783.2999999998137,634836.5,8035,WL,C,12.0
5,18.793999910354614,learn,60000.0,Tue Mar 18 2025 16:40:28 GMT-0500 (Central Daylight Time),635769.5,A,sugar,I,r,130,1,933.0,634836.5,8035,WL,C,12.0
5,19.028000116348267,learn,60000.0,Tue Mar 18 2025 16:40:28 GMT-0500 (Central Daylight Time),636002.9000000004,A,sugarenter,I,enter,213,1,1166.4000000003725,634836.5,8035,WL,C,12.0
5,24.441999912261963,learn,60000.0,Tue Mar 18 2025 16:40:28 GMT-0500 (Central Daylight Time),641417.7999999998,A,d,I,d,5403,1,5414.5999999996275,636003.2000000002,8035,WL,C,13.0
5,24.592000007629395,learn,60000.0,Tue Mar 18 2025 16:40:28 GMT-0500 (Central Daylight Time),641567.6000000006,A,do,I,o,139,1,5564.4000000003725,636003.2000000002,8035,WL,C,13.0
5,24.691999912261963,learn,60000.0,Tue Mar 18 2025 16:40:28 GMT-0500 (Central Daylight Time),641667.7000000002,A,doc,I,c,94,1,5664.5,636003.2000000002,8035,WL,C,13.0
5,24.908999919891357,learn,60000.0,Tue Mar 18 2025 16:40:28 GMT-0500 (Central Daylight Time),641884.5,A,doct,I,t,202,1,5881.299999999814,636003.2000000002,8035,WL,C,13.0
5,25.075999975204468,learn,60000.0,Tue Mar 18 2025 16:40:28 GMT-0500 (Central Daylight Time),642051.1000000006,A,docto,I,o,146,1,6047.9000000003725,636003.2000000002,8035,WL,C,13.0
5,25.22499990463257,learn,60000.0,Tue Mar 18 2025 16:40:28 GMT-0500 (Central Daylight Time),642200.7999999998,A,doctor,I,r,130,1,6197.5999999996275,636003.2000000002,8035,WL,C,13.0
5,25.742000102996826,learn,60000.0,Tue Mar 18 2025 16:40:28 GMT-0500 (Central Daylight Time),642717.4000000004,A,doctorenter,I,enter,509,1,6714.200000000186,636003.2000000002,8035,WL,C,13.0
5,29.306999921798706,learn,60000.0,Tue Mar 18 2025 16:40:28 GMT-0500 (Central Daylight Time),646282.7999999998,A,l,I,l,3560,1,3565.199999999255,642717.6000000006,8035,WL,C,14.0
5,29.424000024795532,learn,60000.0,Tue Mar 18 2025 16:40:28 GMT-0500 (Central Daylight Time),646399.7000000002,A,le,I,e,107,1,3682.0999999996275,642717.6000000006,8035,WL,C,14.0
5,29.69099998474121,learn,60000.0,Tue Mar 18 2025 16:40:28 GMT-0500 (Central Daylight Time),646666.2000000002,A,let,I,t,246,1,3948.5999999996275,642717.6000000006,8035,WL,C,14.0
5,30.006999969482422,learn,60000.0,Tue Mar 18 2025 16:40:28 GMT-0500 (Central Daylight Time),646982.7000000002,A,lett,I,t,307,1,4265.0999999996275,642717.6000000006,8035,WL,C,14.0
5,30.407000064849854,learn,60000.0,Tue Mar 18 2025 16:40:28 GMT-0500 (Central Daylight Time),647382.6000000006,A,lette,I,e,383,1,4665.0,642717.6000000006,8035,WL,C,14.0
5,30.58999991416931,learn,60000.0,Tue Mar 18 2025 16:40:28 GMT-0500 (Central Daylight Time),647565.7999999998,A,letter,I,r,167,1,4848.199999999255,642717.6000000006,8035,WL,C,14.0
5,30.94000005722046,learn,60000.0,Tue Mar 18 2025 16:40:28 GMT-0500 (Central Daylight Time),647915.7999999998,A,letterenter,I,enter,336,1,5198.199999999255,642717.6000000006,8035,WL,C,14.0
5,32.03999996185303,learn,60000.0,Tue Mar 18 2025 16:40:28 GMT-0500 (Central Daylight Time),649015.5,A,enter,I,enter,1081,1,1099.3999999994412,647916.1000000006,8035,WL,C,15.0
6,1.1500000953674316,distr,58849.99990463257,Tue Mar 18 2025 16:40:28 GMT-0500 (Central Daylight Time),718410.4000000004,B,k,I,k,1130,1,1149.9000000003725,717260.5,8035,WL,C,1.0
6,1.7160000801086426,distr,58283.99991989136,Tue Mar 18 2025 16:40:28 GMT-0500 (Central Daylight Time),718976.9000000004,B,,I,backspace,554,1,1716.4000000003725,717260.5,8035,WL,C,1.0
6,1.8580000400543213,distr,58141.99995994568,Tue Mar 18 2025 16:40:28 GMT-0500 (Central Daylight Time),719118.7000000002,B,s,I,s,137,1,1858.2000000001863,717260.5,8035,WL,C,1.0
6,2.005000114440918,distr,57994.99988555908,Tue Mar 18 2025 16:40:28 GMT-0500 (Central Daylight Time),719265.6000000006,B,sk,I,k,142,1,2005.1000000005588,717260.5,8035,WL,C,1.0
6,2.5830001831054688,distr,57416.99981689453,Tue Mar 18 2025 16:40:28 GMT-0500 (Central Daylight Time),719843.2000000002,B,sky,I,y,563,1,2582.7000000001863,717260.5,8035,WL,C,1.0
6,2.8990001678466797,distr,57100.99983215332,Tue Mar 18 2025 16:40:28 GMT-0500 (Central Daylight Time),720159.9000000004,B,skyenter,I,enter,298,1,2899.4000000003725,717260.5,8035,WL,C,1.0
6,3.2160000801086426,distr,56783.99991989136,Tue Mar 18 2025 16:40:28 GMT-0500 (Central Daylight Time),720476.4000000004,B,h,I,h,310,1,316.20000000018626,720160.2000000002,8035,WL,C,2.0
6,3.3330001831054688,distr,56666.99981689453,Tue Mar 18 2025 16:40:28 GMT-0500 (Central Daylight Time),720592.9000000004,B,ho,I,o,97,1,432.70000000018626,720160.2000000002,8035,WL,C,2.0
6,3.499000072479248,distr,56500.99992752075,Tue Mar 18 2025 16:40:28 GMT-0500 (Central Daylight Time),720759.6000000006,B,hot,I,t,148,1,599.4000000003725,720160.2000000002,8035,WL,C,2.0
6,3.8990001678466797,distr,56100.99983215332,Tue Mar 18 2025 16:40:28 GMT-0500 (Central Daylight Time),721159.4000000004,B,hote,I,e,382,1,999.2000000001863,720160.2000000002,8035,WL,C,2.0
6,4.065999984741211,distr,55934.00001525879,Tue Mar 18 2025 16:40:28 GMT-0500 (Central Daylight Time),721326.1000000006,B,hotel,I,l,158,1,1165.9000000003725,720160.2000000002,8035,WL,C,2.0
6,4.348999977111816,distr,55651.00002288818,Tue Mar 18 2025 16:40:28 GMT-0500 (Central Daylight Time),721609.2999999998,B,hotelenter,I,enter,263,1,1449.0999999996275,720160.2000000002,8035,WL,C,2.0
6,4.664999961853027,distr,55335.00003814697,Tue Mar 18 2025 16:40:28 GMT-0500 (Central Daylight Time),721925.9000000004,B,m,I,m,300,1,316.29999999981374,721609.6000000006,8035,WL,C,3.0
6,4.865000009536743,distr,55134.99999046326,Tue Mar 18 2025 16:40:28 GMT-0500 (Central Daylight Time),722125.7999999998,B,mo,I,o,183,1,516.1999999992549,721609.6000000006,8035,WL,C,3.0
6,5.131999969482422,distr,54868.00003051758,Tue Mar 18 2025 16:40:28 GMT-0500 (Central Daylight Time),722392.7000000002,B,mot,I,t,248,1,783.0999999996275,721609.6000000006,8035,WL,C,3.0
6,5.39900016784668,distr,54600.99983215332,Tue Mar 18 2025 16:40:28 GMT-0500 (Central Daylight Time),722659.1000000006,B,moth,I,h,246,1,1049.5,721609.6000000006,8035,WL,C,3.0
6,5.598999977111816,distr,54401.00002288818,Tue Mar 18 2025 16:40:28 GMT-0500 (Central Daylight Time),722859.0,B,mothe,I,e,186,1,1249.3999999994412,721609.6000000006,8035,WL,C,3.0
6,5.732000112533569,distr,54267.99988746643,Tue Mar 18 2025 16:40:28 GMT-0500 (Central Daylight Time),722992.2999999998,B,mother,I,r,123,1,1382.699999999255,721609.6000000006,8035,WL,C,3.0
6,6.015000104904175,distr,53984.999895095825,Tue Mar 18 2025 16:40:28 GMT-0500 (Central Daylight Time),723275.6000000006,B,motherenter,I,enter,269,1,1666.0,721609.6000000006,8035,WL,C,3.0
6,11.180000066757202,distr,48819.9999332428,Tue Mar 18 2025 16:40:28 GMT-0500 (Central Daylight Time),728440.7000000002,B,enter,I,enter,5146,1,5164.799999999814,723275.9000000004,8035,WL,C,4.0
6,11.397000074386597,distr,48602.9999256134,Tue Mar 18 2025 16:40:28 GMT-0500 (Central Daylight Time),728657.2000000002,B,enter,I,enter,204,1,216.20000000018626,728441.0,8035,WL,C,5.0
6,11.580000162124634,distr,48419.999837875366,Tue Mar 18 2025 16:40:28 GMT-0500 (Central Daylight Time),728840.6000000006,B,enter,I,enter,172,1,183.1000000005588,728657.5,8035,WL,C,6.0
6,11.763000011444092,distr,48236.99998855591,Tue Mar 18 2025 16:40:28 GMT-0500 (Central Daylight Time),729023.6000000006,B,enter,I,enter,166,1,182.70000000018626,728840.9000000004,8035,WL,C,7.0
6,11.896000146865845,distr,48103.999853134155,Tue Mar 18 2025 16:40:28 GMT-0500 (Central Daylight Time),729156.9000000004,B,enter,I,enter,126,1,132.90000000037253,729024.0,8035,WL,C,8.0
6,12.047000169754028,distr,47952.99983024597,Tue Mar 18 2025 16:40:28 GMT-0500 (Central Daylight Time),729306.9000000004,B,enter,I,enter,138,1,149.70000000018626,729157.2000000002,8035,WL,C,9.0
6,12.213000059127808,distr,47786.99994087219,Tue Mar 18 2025 16:40:28 GMT-0500 (Central Daylight Time),729473.9000000004,B,enter,I,enter,147,1,166.6000000005588,729307.2999999998,8035,WL,C,10.0
6,12.413000106811523,distr,47586.99989318848,Tue Mar 18 2025 16:40:28 GMT-0500 (Central Daylight Time),729673.5,B,enter,I,enter,180,1,199.29999999981374,729474.2000000002,8035,WL,C,11.0
6,12.86300015449524,distr,47136.99984550476,Tue Mar 18 2025 16:40:28 GMT-0500 (Central Daylight Time),730123.5,B,enter,I,enter,436,1,449.70000000018626,729673.7999999998,8035,WL,C,12.0
6,13.196000099182129,distr,46803.99990081787,Tue Mar 18 2025 16:40:28 GMT-0500 (Central Daylight Time),730456.5,B,enter,I,enter,314,1,332.79999999981374,730123.7000000002,8035,WL,C,13.0
6,14.26200008392334,distr,45737.99991607666,Tue Mar 18 2025 16:40:28 GMT-0500 (Central Daylight Time),731522.9000000004,B,enter,I,enter,1053,1,1066.0,730456.9000000004,8035,WL,C,14.0
6,14.662000179290771,distr,45337.99982070923,Tue Mar 18 2025 16:40:28 GMT-0500 (Central Daylight Time),731922.7000000002,B,enter,I,enter,395,1,399.5,731523.2000000002,8035,WL,C,15.0
7,1.6649999618530273,immed,58335.00003814697,Tue Mar 18 2025 16:40:28 GMT-0500 (Central Daylight Time),746434.7000000002,A,t,I,t,1660,1,1664.5999999996275,744770.1000000006,8035,WL,C,1.0
7,2.2149999141693115,immed,57785.00008583069,Tue Mar 18 2025 16:40:28 GMT-0500 (Central Daylight Time),746984.7999999998,A,to,I,o,530,1,2214.699999999255,744770.1000000006,8035,WL,C,1.0
7,2.365000009536743,immed,57634.99999046326,Tue Mar 18 2025 16:40:28 GMT-0500 (Central Daylight Time),747134.6000000006,A,tow,I,w,133,1,2364.5,744770.1000000006,8035,WL,C,1.0
7,2.4649999141693115,immed,57535.00008583069,Tue Mar 18 2025 16:40:28 GMT-0500 (Central Daylight Time),747234.6000000006,A,towe,I,e,80,1,2464.5,744770.1000000006,8035,WL,C,1.0
7,2.5820000171661377,immed,57417.99998283386,Tue Mar 18 2025 16:40:28 GMT-0500 (Central Daylight Time),747351.2000000002,A,tower,I,r,107,1,2581.0999999996275,744770.1000000006,8035,WL,C,1.0
7,3.9649999141693115,immed,56035.00008583069,Tue Mar 18 2025 16:40:28 GMT-0500 (Central Daylight Time),748734.1000000006,A,towerenter,I,enter,1367,1,3964.0,744770.1000000006,8035,WL,C,1.0
7,5.814000129699707,immed,54185.99987030029,Tue Mar 18 2025 16:40:28 GMT-0500 (Central Daylight Time),750583.4000000004,A,c,I,c,1839,1,1849.0,748734.4000000004,8035,WL,C,2.0
7,5.947999954223633,immed,54052.00004577637,Tue Mar 18 2025 16:40:28 GMT-0500 (Central Daylight Time),750716.9000000004,A,co,I,o,118,1,1982.5,748734.4000000004,8035,WL,C,2.0
7,6.581000089645386,immed,53418.999910354614,Tue Mar 18 2025 16:40:28 GMT-0500 (Central Daylight Time),751350.0,A,cor,I,r,625,1,2615.5999999996275,748734.4000000004,8035,WL,C,2.0
7,6.71399998664856,immed,53286.00001335144,Tue Mar 18 2025 16:40:28 GMT-0500 (Central Daylight Time),751483.1000000006,A,corn,I,n,127,1,2748.7000000001863,748734.4000000004,8035,WL,C,2.0
7,6.96399998664856,immed,53036.00001335144,Tue Mar 18 2025 16:40:28 GMT-0500 (Central Daylight Time),751733.4000000004,A,cornenter,I,enter,242,1,2999.0,748734.4000000004,8035,WL,C,2.0
7,7.364000082015991,immed,52635.99991798401,Tue Mar 18 2025 16:40:28 GMT-0500 (Central Daylight Time),752133.2000000002,A,c,I,c,392,1,399.59999999962747,751733.6000000006,8035,WL,C,3.0
7,7.513999938964844,immed,52486.000061035156,Tue Mar 18 2025 16:40:28 GMT-0500 (Central Daylight Time),752283.1000000006,A,ca,I,a,136,1,549.5,751733.6000000006,8035,WL,C,3.0
7,7.61299991607666,immed,52387.00008392334,Tue Mar 18 2025 16:40:28 GMT-0500 (Central Daylight Time),752382.9000000004,A,cat,I,t,82,1,649.2999999998137,751733.6000000006,8035,WL,C,3.0
7,7.746999979019165,immed,52253.000020980835,Tue Mar 18 2025 16:40:28 GMT-0500 (Central Daylight Time),752516.2999999998,A,catt,I,t,127,1,782.6999999992549,751733.6000000006,8035,WL,C,3.0
7,7.947000026702881,immed,52052.99997329712,Tue Mar 18 2025 16:40:28 GMT-0500 (Central Daylight Time),752716.4000000004,A,cattl,I,l,193,1,982.7999999998137,751733.6000000006,8035,WL,C,3.0
7,8.062999963760376,immed,51937.000036239624,Tue Mar 18 2025 16:40:28 GMT-0500 (Central Daylight Time),752832.9000000004,A,cattle,I,e,105,1,1099.2999999998137,751733.6000000006,8035,WL,C,3.0
7,8.27999997138977,immed,51720.00002861023,Tue Mar 18 2025 16:40:28 GMT-0500 (Central Daylight Time),753049.7000000002,A,cattleenter,I,enter,205,1,1316.0999999996275,751733.6000000006,8035,WL,C,3.0
7,9.996000051498413,immed,50003.99994850159,Tue Mar 18 2025 16:40:28 GMT-0500 (Central Daylight Time),754765.6000000006,A,b,I,b,1709,1,1715.6000000005588,753050.0,8035,WL,C,4.0
7,10.095999956130981,immed,49904.00004386902,Tue Mar 18 2025 16:40:28 GMT-0500 (Central Daylight Time),754865.5,A,bo,I,o,80,1,1815.5,753050.0,8035,WL,C,4.0
7,10.296000003814697,immed,49703.9999961853,Tue Mar 18 2025 16:40:28 GMT-0500 (Central Daylight Time),755065.7000000002,A,bod,I,d,187,1,2015.7000000001863,753050.0,8035,WL,C,4.0
7,10.395999908447266,immed,49604.000091552734,Tue Mar 18 2025 16:40:28 GMT-0500 (Central Daylight Time),755165.7000000002,A,body,I,y,93,1,2115.7000000001863,753050.0,8035,WL,C,4.0
7,12.279000043869019,immed,47720.99995613098,Tue Mar 18 2025 16:40:28 GMT-0500 (Central Daylight Time),757048.4000000004,A,bodyenter,I,enter,1864,1,3998.4000000003725,753050.0,8035,WL,C,4.0
7,15.67799997329712,immed,44322.00002670288,Tue Mar 18 2025 16:40:28 GMT-0500 (Central Daylight Time),760447.4000000004,A,w,I,w,3389,1,3398.7000000001863,757048.7000000002,8035,WL,C,5.0
7,15.844000101089478,immed,44155.99989891052,Tue Mar 18 2025 16:40:28 GMT-0500 (Central Daylight Time),760613.7999999998,A,wh,I,h,150,1,3565.0999999996275,757048.7000000002,8035,WL,C,5.0
7,15.894000053405762,immed,44105.99994659424,Tue Mar 18 2025 16:40:28 GMT-0500 (Central Daylight Time),760663.9000000004,A,wha,I,a,32,1,3615.2000000001863,757048.7000000002,8035,WL,C,5.0
7,15.977999925613403,immed,44022.0000743866,Tue Mar 18 2025 16:40:28 GMT-0500 (Central Daylight Time),760747.2999999998,A,what,I,t,79,1,3698.5999999996275,757048.7000000002,8035,WL,C,5.0
7,16.82699990272522,immed,43173.00009727478,Tue Mar 18 2025 16:40:28 GMT-0500 (Central Daylight Time),761596.7999999998,A,wha,I,backspace,834,1,4548.0999999996275,757048.7000000002,8035,WL,C,5.0
7,16.89400005340576,immed,43105.99994659424,Tue Mar 18 2025 16:40:28 GMT-0500 (Central Daylight Time),761663.4000000004,A,whae,I,e,49,1,4614.700000000186,757048.7000000002,8035,WL,C,5.0
7,17.22699999809265,immed,42773.00000190735,Tue Mar 18 2025 16:40:28 GMT-0500 (Central Daylight Time),761996.7999999998,A,wha,I,backspace,318,1,4948.0999999996275,757048.7000000002,8035,WL,C,5.0
7,17.39400005340576,immed,42605.99994659424,Tue Mar 18 2025 16:40:28 GMT-0500 (Central Daylight Time),762163.6000000006,A,wh,I,backspace,153,1,5114.9000000003725,757048.7000000002,8035,WL,C,5.0
7,17.47699999809265,immed,42523.00000190735,Tue Mar 18 2025 16:40:28 GMT-0500 (Central Daylight Time),762246.6000000006,A,whe,I,e,67,1,5197.9000000003725,757048.7000000002,8035,WL,C,5.0
7,17.55999994277954,immed,42440.00005722046,Tue Mar 18 2025 16:40:28 GMT-0500 (Central Daylight Time),762329.7999999998,A,whea,I,a,71,1,5281.0999999996275,757048.7000000002,8035,WL,C,5.0
7,17.627000093460083,immed,42372.99990653992,Tue Mar 18 2025 16:40:28 GMT-0500 (Central Daylight Time),762396.7999999998,A,wheat,I,t,61,1,5348.0999999996275,757048.7000000002,8035,WL,C,5.0
7,17.844000101089478,immed,42155.99989891052,Tue Mar 18 2025 16:40:28 GMT-0500 (Central Daylight Time),762613.2000000002,A,wheatenter,I,enter,210,1,5564.5,757048.7000000002,8035,WL,C,5.0
7,19.092999935150146,immed,40907.00006484985,Tue Mar 18 2025 16:40:28 GMT-0500 (Central Daylight Time),763862.7999999998,A,l,I,l,1241,1,1249.2999999998137,762613.5,8035,WL,C,6.0
7,19.210000038146973,immed,40789.99996185303,Tue Mar 18 2025 16:40:28 GMT-0500 (Central Daylight Time),763979.2000000002,A,le,I,e,110,1,1365.7000000001863,762613.5,8035,WL,C,6.0
7,19.427000045776367,immed,40572.99995422363,Tue Mar 18 2025 16:40:28 GMT-0500 (Central Daylight Time),764196.0,A,let,I,t,210,1,1582.5,762613.5,8035,WL,C,6.0
7,19.66100001335144,immed,40338.99998664856,Tue Mar 18 2025 16:40:28 GMT-0500 (Central Daylight Time),764430.4000000004,A,lett,I,t,217,1,1816.9000000003725,762613.5,8035,WL,C,6.0
7,19.842999935150146,immed,40157.00006484985,Tue Mar 18 2025 16:40:28 GMT-0500 (Central Daylight Time),764612.6000000006,A,lette,I,e,168,1,1999.1000000005588,762613.5,8035,WL,C,6.0
7,19.943000078201294,immed,40056.999921798706,Tue Mar 18 2025 16:40:28 GMT-0500 (Central Daylight Time),764712.7000000002,A,letter,I,r,81,1,2099.2000000001863,762613.5,8035,WL,C,6.0
7,20.125999927520752,immed,39874.00007247925,Tue Mar 18 2025 16:40:28 GMT-0500 (Central Daylight Time),764895.6000000006,A,letterenter,I,enter,173,1,2282.100000000559,762613.5,8035,WL,C,6.0
7,27.207000017166138,immed,32792.99998283386,Tue Mar 18 2025 16:40:28 GMT-0500 (Central Daylight Time),771976.9000000004,A,q,I,q,7071,1,7081.200000000186,764895.7000000002,8035,WL,C,7.0
7,27.341000080108643,immed,32658.999919891357,Tue Mar 18 2025 16:40:28 GMT-0500 (Central Daylight Time),772110.4000000004,A,qu,I,u,116,1,7214.700000000186,764895.7000000002,8035,WL,C,7.0
7,27.657000064849854,immed,32342.999935150146,Tue Mar 18 2025 16:40:28 GMT-0500 (Central Daylight Time),772426.7999999998,A,que,I,e,311,1,7531.0999999996275,764895.7000000002,8035,WL,C,7.0
7,27.806999921798706,immed,32193.000078201294,Tue Mar 18 2025 16:40:28 GMT-0500 (Central Daylight Time),772576.7000000002,A,quee,I,e,131,1,7681.0,764895.7000000002,8035,WL,C,7.0
7,27.924000024795532,immed,32075.999975204468,Tue Mar 18 2025 16:40:28 GMT-0500 (Central Daylight Time),772693.4000000004,A,queen,I,n,109,1,7797.700000000186,764895.7000000002,8035,WL,C,7.0
7,28.157000064849854,immed,31842.999935150146,Tue Mar 18 2025 16:40:28 GMT-0500 (Central Daylight Time),772926.7000000002,A,queenenter,I,enter,217,1,8031.0,764895.7000000002,8035,WL,C,7.0
7,40.55299997329712,immed,19447.00002670288,Tue Mar 18 2025 16:40:28 GMT-0500 (Central Daylight Time),785322.7000000002,A,s,I,s,12383,1,12395.599999999627,772927.1000000006,8035,WL,C,8.0
7,40.68600010871887,immed,19313.999891281128,Tue Mar 18 2025 16:40:28 GMT-0500 (Central Daylight Time),785456.1000000006,A,sh,I,h,123,1,12529.0,772927.1000000006,8035,WL,C,8.0
7,40.80299997329712,immed,19197.00002670288,Tue Mar 18 2025 16:40:28 GMT-0500 (Central Daylight Time),785572.6000000006,A,sho,I,o,109,1,12645.5,772927.1000000006,8035,WL,C,8.0
7,40.87000012397766,immed,19129.99987602234,Tue Mar 18 2025 16:40:28 GMT-0500 (Central Daylight Time),785639.5,A,shor,I,r,57,1,12712.399999999441,772927.1000000006,8035,WL,C,8.0
7,40.96900010108948,immed,19030.999898910522,Tue Mar 18 2025 16:40:28 GMT-0500 (Central Daylight Time),785739.2999999998,A,shore,I,e,86,1,12812.199999999255,772927.1000000006,8035,WL,C,8.0
7,41.15300011634827,immed,18846.999883651733,Tue Mar 18 2025 16:40:28 GMT-0500 (Central Daylight Time),785922.5,A,shoreenter,I,enter,170,1,12995.399999999441,772927.1000000006,8035,WL,C,8.0
7,47.31699991226196,immed,12683.000087738037,Tue Mar 18 2025 16:40:28 GMT-0500 (Central Daylight Time),792087.2999999998,A,f,I,f,6156,1,6164.5,785922.7999999998,8035,WL,C,9.0
7,47.50099992752075,immed,12499.000072479248,Tue Mar 18 2025 16:40:28 GMT-0500 (Central Daylight Time),792270.5,A,fl,I,l,166,1,6347.700000000186,785922.7999999998,8035,WL,C,9.0
7,47.617000102996826,immed,12382.999897003174,Tue Mar 18 2025 16:40:28 GMT-0500 (Central Daylight Time),792387.1000000006,A,fla,I,a,111,1,6464.300000000745,785922.7999999998,8035,WL,C,9.0
7,47.901000022888184,immed,12098.999977111816,Tue Mar 18 2025 16:40:28 GMT-0500 (Central Daylight Time),792670.5,A,flag,I,g,267,1,6747.700000000186,785922.7999999998,8035,WL,C,9.0
7,48.117000102996826,immed,11882.999897003174,Tue Mar 18 2025 16:40:28 GMT-0500 (Central Daylight Time),792887.1000000006,A,flagenter,I,enter,207,1,6964.300000000745,785922.7999999998,8035,WL,C,9.0
7,51.382999897003174,immed,8617.000102996826,Tue Mar 18 2025 16:40:28 GMT-0500 (Central Daylight Time),796152.9000000004,A,c,I,c,3246,1,3265.5,792887.4000000004,8035,WL,C,10.0
7,51.51600003242493,immed,8483.999967575073,Tue Mar 18 2025 16:40:28 GMT-0500 (Central Daylight Time),796286.0,A,ca,I,a,116,1,3398.5999999996275,792887.4000000004,8035,WL,C,10.0
7,51.6489999294281,immed,8351.0000705719,Tue Mar 18 2025 16:40:28 GMT-0500 (Central Daylight Time),796419.4000000004,A,cam,I,m,119,1,3532.0,792887.4000000004,8035,WL,C,10.0
7,51.848999977111816,immed,8151.000022888184,Tue Mar 18 2025 16:40:28 GMT-0500 (Central Daylight Time),796619.1000000006,A,camp,I,p,179,1,3731.7000000001863,792887.4000000004,8035,WL,C,10.0
7,52.59999990463257,immed,7400.000095367432,Tue Mar 18 2025 16:40:28 GMT-0500 (Central Daylight Time),797370.1000000006,A,campenter,I,enter,730,1,4482.700000000186,792887.4000000004,8035,WL,C,10.0
7,60.013999938964844,immed,-13.99993896484375,Tue Mar 18 2025 16:40:28 GMT-0500 (Central Daylight Time),804783.6000000006,A,None,I,None,7408,1,7413.100000000559,797370.5,8035,WL,C,11.0
