acc_sum,block,block_c,change,condition,correct,correct_response,datetime,endtime,face,project,response,response_time,row_sel,session_number,start_end,starttime,subject_id,task,task_vers,trial
0,prac,1,,1-Back,,,Thu Mar 13 2025 16:38:12 GMT-0500 (Central Daylight Time),,093_m_f_n_a.png,O,space,7494,1,1,,,7108,NNB,C,0
1,prac,1,0.0,1-Back,1,m,Thu Mar 13 2025 16:38:12 GMT-0500 (Central Daylight Time),130501.20000000019,098_y_f_n_a.png,O,m,929,2,1,1790.1000000000931,128711.1000000001,7108,NNB,C,1
1,prac,1,1.0,1-Back,0,z,Thu Mar 13 2025 16:38:12 GMT-0500 (Central Daylight Time),133281.90000000014,098_y_f_n_a.png,O,None,2005,3,1,2772.6999999999534,130509.20000000019,7108,NNB,C,2
1,prac,1,0.0,1-Back,0,m,Thu Mar 13 2025 16:38:12 GMT-0500 (Central Daylight Time),136148.2000000002,059_o_m_n_a.png,O,None,2002,4,1,2858.9000000001397,133289.30000000005,7108,NNB,C,3
2,prac,1,0.0,1-Back,1,m,Thu Mar 13 2025 16:38:12 GMT-0500 (Central Daylight Time),137898.80000000005,092_m_m_n_a.png,O,m,893,5,1,1741.1999999999534,136157.6000000001,7108,NNB,C,4
3,prac,1,1.0,1-Back,1,z,Thu Mar 13 2025 16:38:12 GMT-0500 (Central Daylight Time),139882.30000000005,092_m_m_n_a.png,O,z,1214,6,1,1975.6999999999534,137906.6000000001,7108,NNB,C,5
4,prac,1,0.0,1-Back,1,m,Thu Mar 13 2025 16:38:12 GMT-0500 (Central Daylight Time),141579.6000000001,130_o_f_n_a.png,O,m,807,7,1,1688.8999999999069,139890.7000000002,7108,NNB,C,6
5,prac,1,0.0,1-Back,1,m,Thu Mar 13 2025 16:38:12 GMT-0500 (Central Daylight Time),143246.2000000002,082_m_m_n_a.png,O,m,791,8,1,1652.7000000001863,141593.5,7108,NNB,C,7
5,prac,1,0.0,1-Back,0,m,Thu Mar 13 2025 16:38:12 GMT-0500 (Central Daylight Time),144713.2000000002,093_m_f_n_a.png,O,z,600,9,1,1459.0,143254.2000000002,7108,NNB,C,8
5,prac,1,1.0,1-Back,0,z,Thu Mar 13 2025 16:38:12 GMT-0500 (Central Daylight Time),146714.6000000001,093_m_f_n_a.png,O,m,1230,10,1,1992.1000000000931,144722.5,7108,NNB,C,9
6,prac,1,0.0,1-Back,1,m,Thu Mar 13 2025 16:38:12 GMT-0500 (Central Daylight Time),148661.30000000005,059_o_m_n_a.png,O,m,1165,11,1,1937.3000000000466,146724.0,7108,NNB,C,10
6,prac,1,0.0,1-Back,0,m,Thu Mar 13 2025 16:38:12 GMT-0500 (Central Daylight Time),150728.0,028_y_f_n_a.png,O,z,1204,12,1,2057.399999999907,148670.6000000001,7108,NNB,C,11
0,prac,2,0.0,1-Back,,,Thu Mar 13 2025 16:38:12 GMT-0500 (Central Daylight Time),150728.0,093_m_f_n_a.png,O,a,11450,1,1,2057.399999999907,148670.6000000001,7108,NNB,C,0
1,prac,2,0.0,1-Back,1,m,Thu Mar 13 2025 16:38:12 GMT-0500 (Central Daylight Time),166905.6000000001,098_y_f_n_a.png,O,m,824,2,1,1673.2999999998137,165232.30000000028,7108,NNB,C,1
2,prac,2,1.0,1-Back,1,z,Thu Mar 13 2025 16:38:12 GMT-0500 (Central Daylight Time),168770.8999999999,098_y_f_n_a.png,O,z,1087,3,1,1856.6999999997206,166914.2000000002,7108,NNB,C,2
3,prac,2,0.0,1-Back,1,m,Thu Mar 13 2025 16:38:12 GMT-0500 (Central Daylight Time),170120.7000000002,059_o_m_n_a.png,O,m,574,4,1,1340.3000000002794,168780.3999999999,7108,NNB,C,3
4,prac,2,0.0,1-Back,1,m,Thu Mar 13 2025 16:38:12 GMT-0500 (Central Daylight Time),172037.30000000028,092_m_m_n_a.png,O,m,1054,5,1,1906.1000000000931,170131.2000000002,7108,NNB,C,4
5,prac,2,1.0,1-Back,1,z,Thu Mar 13 2025 16:38:12 GMT-0500 (Central Daylight Time),173619.5,092_m_m_n_a.png,O,z,803,6,1,1574.1000000000931,172045.3999999999,7108,NNB,C,5
6,prac,2,0.0,1-Back,1,m,Thu Mar 13 2025 16:38:12 GMT-0500 (Central Daylight Time),175186.80000000028,130_o_f_n_a.png,O,m,683,7,1,1555.8000000002794,173631.0,7108,NNB,C,6
7,prac,2,0.0,1-Back,1,m,Thu Mar 13 2025 16:38:12 GMT-0500 (Central Daylight Time),176651.8999999999,082_m_m_n_a.png,O,m,613,8,1,1456.3999999999069,175195.5,7108,NNB,C,7
8,prac,2,0.0,1-Back,1,m,Thu Mar 13 2025 16:38:12 GMT-0500 (Central Daylight Time),178235.80000000028,093_m_f_n_a.png,O,m,795,9,1,1574.8000000002794,176661.0,7108,NNB,C,8
9,prac,2,1.0,1-Back,1,z,Thu Mar 13 2025 16:38:12 GMT-0500 (Central Daylight Time),179715.1000000001,093_m_f_n_a.png,O,z,699,10,1,1469.5,178245.6000000001,7108,NNB,C,9
10,prac,2,0.0,1-Back,1,m,Thu Mar 13 2025 16:38:12 GMT-0500 (Central Daylight Time),181182.3999999999,059_o_m_n_a.png,O,m,697,11,1,1463.0999999996275,179719.30000000028,7108,NNB,C,10
11,prac,2,0.0,1-Back,1,m,Thu Mar 13 2025 16:38:12 GMT-0500 (Central Daylight Time),182731.1000000001,028_y_f_n_a.png,O,m,665,12,1,1544.5,181186.6000000001,7108,NNB,C,11
0,test,1,0.0,1-Back,,,Thu Mar 13 2025 16:38:12 GMT-0500 (Central Daylight Time),182731.1000000001,098_y_f_n_a.png,O,space,11451,1,1,1544.5,181186.6000000001,7108,NNB,C,0
1,test,1,0.0,1-Back,1,m,Thu Mar 13 2025 16:38:12 GMT-0500 (Central Daylight Time),206758.3999999999,006_m_f_n_a.png,O,m,735,2,1,1763.8999999999069,204994.5,7108,NNB,C,1
2,test,1,0.0,1-Back,1,m,Thu Mar 13 2025 16:38:12 GMT-0500 (Central Daylight Time),208643.3999999999,028_y_f_n_a.png,O,m,867,3,1,1882.5,206760.8999999999,7108,NNB,C,2
3,test,1,1.0,1-Back,1,z,Thu Mar 13 2025 16:38:12 GMT-0500 (Central Daylight Time),210356.2000000002,028_y_f_n_a.png,O,z,692,4,1,1704.6000000000931,208651.6000000001,7108,NNB,C,3
4,test,1,0.0,1-Back,1,m,Thu Mar 13 2025 16:38:12 GMT-0500 (Central Daylight Time),211990.2000000002,006_m_f_n_a.png,O,m,612,5,1,1630.8000000002794,210359.3999999999,7108,NNB,C,4
5,test,1,0.0,1-Back,1,m,Thu Mar 13 2025 16:38:12 GMT-0500 (Central Daylight Time),213789.2000000002,059_o_m_n_a.png,O,m,778,6,1,1795.8000000002794,211993.3999999999,7108,NNB,C,5
6,test,1,1.0,1-Back,1,z,Thu Mar 13 2025 16:38:12 GMT-0500 (Central Daylight Time),215537.80000000028,059_o_m_n_a.png,O,z,724,7,1,1745.2000000001863,213792.6000000001,7108,NNB,C,6
7,test,1,0.0,1-Back,1,m,Thu Mar 13 2025 16:38:12 GMT-0500 (Central Daylight Time),217221.1000000001,092_m_m_n_a.png,O,m,654,8,1,1680.8999999999069,215540.2000000002,7108,NNB,C,7
8,test,1,0.0,1-Back,1,m,Thu Mar 13 2025 16:38:12 GMT-0500 (Central Daylight Time),219253.80000000028,130_o_f_n_a.png,O,m,1002,9,1,2030.1000000000931,217223.7000000002,7108,NNB,C,8
9,test,1,0.0,1-Back,1,m,Thu Mar 13 2025 16:38:12 GMT-0500 (Central Daylight Time),221070.7000000002,092_m_m_n_a.png,O,m,794,10,1,1811.1000000000931,219259.6000000001,7108,NNB,C,9
10,test,1,0.0,1-Back,1,m,Thu Mar 13 2025 16:38:12 GMT-0500 (Central Daylight Time),222937.80000000028,057_y_m_n_a.png,O,m,831,11,1,1860.1000000000931,221077.7000000002,7108,NNB,C,10
11,test,1,1.0,1-Back,1,z,Thu Mar 13 2025 16:38:12 GMT-0500 (Central Daylight Time),224920.3999999999,057_y_m_n_a.png,O,z,960,12,1,1975.5999999996275,222944.80000000028,7108,NNB,C,11
12,test,1,0.0,1-Back,1,m,Thu Mar 13 2025 16:38:12 GMT-0500 (Central Daylight Time),226686.80000000028,030_o_f_n_a.png,O,m,736,13,1,1759.2000000001863,224927.6000000001,7108,NNB,C,12
13,test,1,1.0,1-Back,1,z,Thu Mar 13 2025 16:38:12 GMT-0500 (Central Daylight Time),228601.30000000028,030_o_f_n_a.png,O,z,889,14,1,1906.8000000002794,226694.5,7108,NNB,C,13
14,test,1,0.0,1-Back,1,m,Thu Mar 13 2025 16:38:12 GMT-0500 (Central Daylight Time),230350.80000000028,031_y_m_n_a.png,O,m,726,15,1,1742.3000000002794,228608.5,7108,NNB,C,14
15,test,1,0.0,1-Back,1,m,Thu Mar 13 2025 16:38:12 GMT-0500 (Central Daylight Time),232135.6000000001,093_m_f_n_a.png,O,m,752,16,1,1778.0,230357.6000000001,7108,NNB,C,15
16,test,1,0.0,1-Back,1,m,Thu Mar 13 2025 16:38:12 GMT-0500 (Central Daylight Time),233900.2000000002,146_o_m_n_a.png,O,m,746,17,1,1758.1000000000931,232142.1000000001,7108,NNB,C,16
17,test,1,0.0,1-Back,1,m,Thu Mar 13 2025 16:38:12 GMT-0500 (Central Daylight Time),235685.5,093_m_f_n_a.png,O,m,767,18,1,1779.3999999999069,233906.1000000001,7108,NNB,C,17
0,test,2,0.0,1-Back,,,Thu Mar 13 2025 16:38:12 GMT-0500 (Central Daylight Time),235685.5,092_m_m_n_a.png,O,space,2875,1,1,1779.3999999999069,233906.1000000001,7108,NNB,C,0
1,test,2,0.0,1-Back,1,m,Thu Mar 13 2025 16:38:12 GMT-0500 (Central Daylight Time),242314.2000000002,006_m_f_n_a.png,O,m,697,2,1,1725.6000000000931,240588.6000000001,7108,NNB,C,1
2,test,2,1.0,1-Back,1,z,Thu Mar 13 2025 16:38:12 GMT-0500 (Central Daylight Time),244113.6000000001,006_m_f_n_a.png,O,z,767,3,1,1792.2999999998137,242321.30000000028,7108,NNB,C,2
3,test,2,0.0,1-Back,1,m,Thu Mar 13 2025 16:38:12 GMT-0500 (Central Daylight Time),245714.30000000028,092_m_m_n_a.png,O,m,568,4,1,1593.8000000002794,244120.5,7108,NNB,C,3
4,test,2,0.0,1-Back,1,m,Thu Mar 13 2025 16:38:12 GMT-0500 (Central Daylight Time),247495.30000000028,057_y_m_n_a.png,O,m,758,5,1,1775.1000000000931,245720.2000000002,7108,NNB,C,4
5,test,2,0.0,1-Back,1,m,Thu Mar 13 2025 16:38:12 GMT-0500 (Central Daylight Time),249128.2000000002,098_y_f_n_a.png,O,m,607,6,1,1625.8999999999069,247502.30000000028,7108,NNB,C,5
6,test,2,1.0,1-Back,1,z,Thu Mar 13 2025 16:38:12 GMT-0500 (Central Daylight Time),250762.2000000002,098_y_f_n_a.png,O,z,606,7,1,1627.8000000002794,249134.3999999999,7108,NNB,C,6
7,test,2,0.0,1-Back,1,m,Thu Mar 13 2025 16:38:12 GMT-0500 (Central Daylight Time),252460.5,057_y_m_n_a.png,O,m,669,8,1,1691.7999999998137,250768.7000000002,7108,NNB,C,7
8,test,2,0.0,1-Back,1,m,Thu Mar 13 2025 16:38:12 GMT-0500 (Central Daylight Time),254311.2000000002,030_o_f_n_a.png,O,m,828,9,1,1844.8000000002794,252466.3999999999,7108,NNB,C,8
9,test,2,0.0,1-Back,1,m,Thu Mar 13 2025 16:38:12 GMT-0500 (Central Daylight Time),256091.7000000002,082_m_m_n_a.png,O,m,761,10,1,1773.1000000000931,254318.6000000001,7108,NNB,C,9
10,test,2,1.0,1-Back,1,z,Thu Mar 13 2025 16:38:12 GMT-0500 (Central Daylight Time),257875.2000000002,082_m_m_n_a.png,O,z,754,11,1,1777.6000000000931,256097.6000000001,7108,NNB,C,10
11,test,2,0.0,1-Back,1,m,Thu Mar 13 2025 16:38:12 GMT-0500 (Central Daylight Time),259593.8999999999,030_o_f_n_a.png,O,m,700,12,1,1712.3999999999069,257881.5,7108,NNB,C,11
12,test,2,0.0,1-Back,1,m,Thu Mar 13 2025 16:38:12 GMT-0500 (Central Daylight Time),261492.6000000001,130_o_f_n_a.png,O,m,872,13,1,1892.3999999999069,259600.2000000002,7108,NNB,C,12
13,test,2,0.0,1-Back,1,m,Thu Mar 13 2025 16:38:12 GMT-0500 (Central Daylight Time),263275.2000000002,059_o_m_n_a.png,O,m,757,14,1,1775.8999999999069,261499.30000000028,7108,NNB,C,13
14,test,2,0.0,1-Back,1,m,Thu Mar 13 2025 16:38:12 GMT-0500 (Central Daylight Time),265307.3000000003,146_o_m_n_a.png,O,m,1004,15,1,2025.6000000000931,263281.7000000002,7108,NNB,C,14
15,test,2,1.0,1-Back,1,z,Thu Mar 13 2025 16:38:12 GMT-0500 (Central Daylight Time),267406.2000000002,146_o_m_n_a.png,O,z,1067,16,1,2092.8000000002794,265313.3999999999,7108,NNB,C,15
16,test,2,0.0,1-Back,1,m,Thu Mar 13 2025 16:38:12 GMT-0500 (Central Daylight Time),269172.1000000001,031_y_m_n_a.png,O,m,733,17,1,1759.5,267412.6000000001,7108,NNB,C,16
17,test,2,1.0,1-Back,1,z,Thu Mar 13 2025 16:38:12 GMT-0500 (Central Daylight Time),271156.6000000001,031_y_m_n_a.png,O,z,965,18,1,1977.8999999999069,269178.7000000002,7108,NNB,C,17
0,test,3,1.0,1-Back,,,Thu Mar 13 2025 16:38:12 GMT-0500 (Central Daylight Time),271156.6000000001,028_y_f_n_a.png,O,space,1556,1,1,1977.8999999999069,269178.7000000002,7108,NNB,C,0
1,test,3,0.0,1-Back,1,m,Thu Mar 13 2025 16:38:12 GMT-0500 (Central Daylight Time),276519.3000000003,146_o_m_n_a.png,O,m,675,1,1,1691.6000000000931,274827.7000000002,7108,NNB,C,1
2,test,3,1.0,1-Back,1,z,Thu Mar 13 2025 16:38:12 GMT-0500 (Central Daylight Time),278521.5,146_o_m_n_a.png,O,z,983,1,1,1994.6999999997206,276526.8000000003,7108,NNB,C,2
3,test,3,0.0,1-Back,1,m,Thu Mar 13 2025 16:38:12 GMT-0500 (Central Daylight Time),280251.3000000003,093_m_f_n_a.png,O,m,699,1,1,1725.5,278525.8000000003,7108,NNB,C,3
4,test,3,1.0,1-Back,1,z,Thu Mar 13 2025 16:38:12 GMT-0500 (Central Daylight Time),282083.8000000003,093_m_f_n_a.png,O,z,803,1,1,1825.1000000000931,280258.7000000002,7108,NNB,C,4
5,test,3,0.0,1-Back,1,m,Thu Mar 13 2025 16:38:12 GMT-0500 (Central Daylight Time),283852.3999999999,030_o_f_n_a.png,O,m,749,1,1,1763.0999999996275,282089.3000000003,7108,NNB,C,5
6,test,3,0.0,1-Back,1,m,Thu Mar 13 2025 16:38:12 GMT-0500 (Central Daylight Time),285717.7000000002,057_y_m_n_a.png,O,m,849,1,1,1857.6000000000931,283860.1000000001,7108,NNB,C,6
7,test,3,0.0,1-Back,1,m,Thu Mar 13 2025 16:38:12 GMT-0500 (Central Daylight Time),287550.8000000003,030_o_f_n_a.png,O,m,802,1,1,1826.2000000001863,285724.6000000001,7108,NNB,C,7
8,test,3,0.0,1-Back,1,m,Thu Mar 13 2025 16:38:12 GMT-0500 (Central Daylight Time),289451.1000000001,031_y_m_n_a.png,O,m,883,1,1,1894.0,287557.1000000001,7108,NNB,C,8
9,test,3,1.0,1-Back,1,z,Thu Mar 13 2025 16:38:12 GMT-0500 (Central Daylight Time),291149.1000000001,031_y_m_n_a.png,O,z,678,1,1,1689.7000000001863,289459.3999999999,7108,NNB,C,9
10,test,3,0.0,1-Back,1,m,Thu Mar 13 2025 16:38:12 GMT-0500 (Central Daylight Time),292947.8000000003,006_m_f_n_a.png,O,m,780,1,1,1792.2000000001863,291155.6000000001,7108,NNB,C,10
11,test,3,0.0,1-Back,1,m,Thu Mar 13 2025 16:38:12 GMT-0500 (Central Daylight Time),294747.5,098_y_f_n_a.png,O,m,771,1,1,1792.5,292955.0,7108,NNB,C,11
12,test,3,1.0,1-Back,1,z,Thu Mar 13 2025 16:38:12 GMT-0500 (Central Daylight Time),297081.0,098_y_f_n_a.png,O,z,1300,1,1,2326.5,294754.5,7108,NNB,C,12
13,test,3,0.0,1-Back,1,m,Thu Mar 13 2025 16:38:12 GMT-0500 (Central Daylight Time),298915.6000000001,006_m_f_n_a.png,O,m,818,1,1,1827.7999999998137,297087.8000000003,7108,NNB,C,13
14,test,3,0.0,1-Back,1,m,Thu Mar 13 2025 16:38:12 GMT-0500 (Central Daylight Time),300745.8000000003,092_m_m_n_a.png,O,m,806,1,1,1822.1000000000931,298923.7000000002,7108,NNB,C,14
15,test,3,1.0,1-Back,1,z,Thu Mar 13 2025 16:38:12 GMT-0500 (Central Daylight Time),302445.6000000001,092_m_m_n_a.png,O,z,677,1,1,1693.8999999999069,300751.7000000002,7108,NNB,C,15
16,test,3,0.0,1-Back,1,m,Thu Mar 13 2025 16:38:12 GMT-0500 (Central Daylight Time),304128.8999999999,130_o_f_n_a.png,O,m,657,1,1,1676.5,302452.3999999999,7108,NNB,C,16
17,test,3,1.0,1-Back,1,z,Thu Mar 13 2025 16:38:12 GMT-0500 (Central Daylight Time),305861.7000000002,130_o_f_n_a.png,O,z,705,1,1,1724.6000000000931,304137.1000000001,7108,NNB,C,17
0,test,4,1.0,1-Back,,,Thu Mar 13 2025 16:38:12 GMT-0500 (Central Daylight Time),305861.7000000002,093_m_f_n_a.png,O,space,1427,1,1,1724.6000000000931,304137.1000000001,7108,NNB,C,0
1,test,4,0.0,1-Back,1,m,Thu Mar 13 2025 16:38:12 GMT-0500 (Central Daylight Time),311075.5,146_o_m_n_a.png,O,m,662,2,1,1674.5,309401.0,7108,NNB,C,1
2,test,4,0.0,1-Back,1,m,Thu Mar 13 2025 16:38:12 GMT-0500 (Central Daylight Time),312925.8000000003,093_m_f_n_a.png,O,m,828,3,1,1842.4000000003725,311083.3999999999,7108,NNB,C,2
3,test,4,0.0,1-Back,1,m,Thu Mar 13 2025 16:38:12 GMT-0500 (Central Daylight Time),314608.8999999999,030_o_f_n_a.png,O,m,658,4,1,1674.5,312934.3999999999,7108,NNB,C,3
4,test,4,1.0,1-Back,1,z,Thu Mar 13 2025 16:38:12 GMT-0500 (Central Daylight Time),316357.8000000003,030_o_f_n_a.png,O,z,720,5,1,1741.0,314616.8000000003,7108,NNB,C,4
5,test,4,0.0,1-Back,1,m,Thu Mar 13 2025 16:38:12 GMT-0500 (Central Daylight Time),318174.1000000001,098_y_f_n_a.png,O,m,793,6,1,1809.2999999998137,316364.8000000003,7108,NNB,C,5
6,test,4,0.0,1-Back,1,m,Thu Mar 13 2025 16:38:12 GMT-0500 (Central Daylight Time),319923.7000000002,057_y_m_n_a.png,O,m,722,7,1,1742.3000000002794,318181.3999999999,7108,NNB,C,6
7,test,4,1.0,1-Back,1,z,Thu Mar 13 2025 16:38:12 GMT-0500 (Central Daylight Time),321774.2000000002,057_y_m_n_a.png,O,z,822,8,1,1844.3000000002794,319929.8999999999,7108,NNB,C,7
8,test,4,0.0,1-Back,1,m,Thu Mar 13 2025 16:38:12 GMT-0500 (Central Daylight Time),323505.5,098_y_f_n_a.png,O,m,713,9,1,1725.1999999997206,321780.3000000003,7108,NNB,C,8
9,test,4,0.0,1-Back,1,m,Thu Mar 13 2025 16:38:12 GMT-0500 (Central Daylight Time),325238.1000000001,082_m_m_n_a.png,O,m,712,10,1,1725.6000000000931,323512.5,7108,NNB,C,9
10,test,4,1.0,1-Back,1,z,Thu Mar 13 2025 16:38:12 GMT-0500 (Central Daylight Time),326987.5,082_m_m_n_a.png,O,z,721,11,1,1740.3999999999069,325247.1000000001,7108,NNB,C,10
11,test,4,0.0,1-Back,1,m,Thu Mar 13 2025 16:38:12 GMT-0500 (Central Daylight Time),328669.7000000002,130_o_f_n_a.png,O,m,654,12,1,1675.3000000002794,326994.3999999999,7108,NNB,C,11
12,test,4,0.0,1-Back,1,m,Thu Mar 13 2025 16:38:12 GMT-0500 (Central Daylight Time),330453.8000000003,059_o_m_n_a.png,O,m,753,13,1,1775.8000000002794,328678.0,7108,NNB,C,12
13,test,4,0.0,1-Back,1,m,Thu Mar 13 2025 16:38:12 GMT-0500 (Central Daylight Time),332170.3999999999,130_o_f_n_a.png,O,m,683,14,1,1713.2999999998137,330457.1000000001,7108,NNB,C,13
14,test,4,0.0,1-Back,1,m,Thu Mar 13 2025 16:38:12 GMT-0500 (Central Daylight Time),333902.7000000002,028_y_f_n_a.png,O,m,711,15,1,1725.3999999999069,332177.3000000003,7108,NNB,C,14
15,test,4,1.0,1-Back,1,z,Thu Mar 13 2025 16:38:12 GMT-0500 (Central Daylight Time),335585.2000000002,028_y_f_n_a.png,O,z,659,16,1,1675.7000000001863,333909.5,7108,NNB,C,15
16,test,4,0.0,1-Back,1,m,Thu Mar 13 2025 16:38:12 GMT-0500 (Central Daylight Time),337202.7000000002,006_m_f_n_a.png,O,m,600,17,1,1611.0,335591.7000000002,7108,NNB,C,16
17,test,4,1.0,1-Back,1,z,Thu Mar 13 2025 16:38:12 GMT-0500 (Central Daylight Time),339000.8000000003,006_m_f_n_a.png,O,z,767,18,1,1794.0,337206.8000000003,7108,NNB,C,17
0,test,5,1.0,1-Back,,,Thu Mar 13 2025 16:38:12 GMT-0500 (Central Daylight Time),339000.8000000003,059_o_m_n_a.png,O,space,1056,1,1,1794.0,337206.8000000003,7108,NNB,C,0
1,test,5,1.0,1-Back,1,z,Thu Mar 13 2025 16:38:12 GMT-0500 (Central Daylight Time),343882.2000000002,059_o_m_n_a.png,O,z,775,2,1,1791.5,342090.7000000002,7108,NNB,C,1
2,test,5,0.0,1-Back,1,m,Thu Mar 13 2025 16:38:12 GMT-0500 (Central Daylight Time),345464.3000000003,098_y_f_n_a.png,O,m,558,3,1,1575.4000000003725,343888.8999999999,7108,NNB,C,2
3,test,5,0.0,1-Back,1,m,Thu Mar 13 2025 16:38:12 GMT-0500 (Central Daylight Time),347049.6000000001,057_y_m_n_a.png,O,m,566,4,1,1577.7999999998137,345471.8000000003,7108,NNB,C,3
4,test,5,0.0,1-Back,1,m,Thu Mar 13 2025 16:38:12 GMT-0500 (Central Daylight Time),348680.3999999999,098_y_f_n_a.png,O,m,607,5,1,1624.8999999999069,347055.5,7108,NNB,C,4
5,test,5,0.0,1-Back,1,m,Thu Mar 13 2025 16:38:12 GMT-0500 (Central Daylight Time),350279.7000000002,092_m_m_n_a.png,O,m,566,6,1,1592.5,348687.2000000002,7108,NNB,C,5
6,test,5,1.0,1-Back,1,z,Thu Mar 13 2025 16:38:12 GMT-0500 (Central Daylight Time),351962.1000000001,092_m_m_n_a.png,O,z,654,7,1,1676.2000000001863,350285.8999999999,7108,NNB,C,6
7,test,5,0.0,1-Back,1,m,Thu Mar 13 2025 16:38:12 GMT-0500 (Central Daylight Time),353866.2000000002,028_y_f_n_a.png,O,m,877,8,1,1897.8999999999069,351968.3000000003,7108,NNB,C,7
8,test,5,0.0,1-Back,1,m,Thu Mar 13 2025 16:38:12 GMT-0500 (Central Daylight Time),355579.3999999999,031_y_m_n_a.png,O,m,699,9,1,1705.8999999999069,353873.5,7108,NNB,C,8
9,test,5,0.0,1-Back,1,m,Thu Mar 13 2025 16:38:12 GMT-0500 (Central Daylight Time),357295.3000000003,028_y_f_n_a.png,O,m,685,10,1,1709.7000000001863,355585.6000000001,7108,NNB,C,9
10,test,5,0.0,1-Back,1,m,Thu Mar 13 2025 16:38:12 GMT-0500 (Central Daylight Time),358962.2000000002,130_o_f_n_a.png,O,m,649,11,1,1659.6000000000931,357302.6000000001,7108,NNB,C,10
11,test,5,1.0,1-Back,1,z,Thu Mar 13 2025 16:38:12 GMT-0500 (Central Daylight Time),360676.2000000002,130_o_f_n_a.png,O,z,689,12,1,1709.2000000001863,358967.0,7108,NNB,C,11
12,test,5,0.0,1-Back,1,m,Thu Mar 13 2025 16:38:12 GMT-0500 (Central Daylight Time),362327.1000000001,146_o_m_n_a.png,O,m,619,13,1,1644.7000000001863,360682.3999999999,7108,NNB,C,12
13,test,5,0.0,1-Back,1,m,Thu Mar 13 2025 16:38:12 GMT-0500 (Central Daylight Time),364109.0,093_m_f_n_a.png,O,m,750,14,1,1776.0,362333.0,7108,NNB,C,13
14,test,5,1.0,1-Back,1,z,Thu Mar 13 2025 16:38:12 GMT-0500 (Central Daylight Time),365792.0,093_m_f_n_a.png,O,z,660,15,1,1677.3999999999069,364114.6000000001,7108,NNB,C,14
15,test,5,0.0,1-Back,1,m,Thu Mar 13 2025 16:38:12 GMT-0500 (Central Daylight Time),367458.6000000001,146_o_m_n_a.png,O,m,650,16,1,1659.2999999998137,365799.3000000003,7108,NNB,C,15
16,test,5,0.0,1-Back,1,m,Thu Mar 13 2025 16:38:12 GMT-0500 (Central Daylight Time),369042.1000000001,006_m_f_n_a.png,O,m,568,17,1,1580.5,367461.6000000001,7108,NNB,C,16
17,test,5,0.0,1-Back,1,m,Thu Mar 13 2025 16:38:12 GMT-0500 (Central Daylight Time),370857.7000000002,082_m_m_n_a.png,O,m,783,18,1,1808.6000000000931,369049.1000000001,7108,NNB,C,17
0,prac,1,0.0,2-Back,,,Thu Mar 13 2025 16:38:12 GMT-0500 (Central Daylight Time),370857.7000000002,031_y_m_n_a.png,O,space,10462,1,1,1808.6000000000931,369049.1000000001,7108,NNB,C,0
0,prac,1,0.0,2-Back,,,Thu Mar 13 2025 16:38:12 GMT-0500 (Central Daylight Time),370857.7000000002,006_m_f_n_a.png,O,space,10462,2,1,1808.6000000000931,369049.1000000001,7108,NNB,C,0
1,prac,1,1.0,2-Back,1,m,Thu Mar 13 2025 16:38:12 GMT-0500 (Central Daylight Time),504315.5,146_o_m_n_a.png,O,m,1273,3,1,2143.6999999997206,502171.8000000003,7108,NNB,C,1
2,prac,1,0.0,2-Back,1,m,Thu Mar 13 2025 16:38:12 GMT-0500 (Central Daylight Time),506680.8000000003,130_o_f_n_a.png,O,m,1485,4,1,2357.3000000002794,504323.5,7108,NNB,C,2
3,prac,1,0.0,2-Back,1,z,Thu Mar 13 2025 16:38:12 GMT-0500 (Central Daylight Time),508463.1000000001,146_o_m_n_a.png,O,z,991,5,1,1773.8999999999069,506689.2000000002,7108,NNB,C,3
4,prac,1,1.0,2-Back,1,z,Thu Mar 13 2025 16:38:12 GMT-0500 (Central Daylight Time),510262.8999999999,130_o_f_n_a.png,O,z,1018,6,1,1791.1999999997206,508471.7000000002,7108,NNB,C,4
4,prac,1,0.0,2-Back,0,m,Thu Mar 13 2025 16:38:12 GMT-0500 (Central Daylight Time),513043.3999999999,082_m_m_n_a.png,O,None,2006,7,1,2772.6999999997206,510270.7000000002,7108,NNB,C,5
5,prac,1,0.0,2-Back,1,m,Thu Mar 13 2025 16:38:12 GMT-0500 (Central Daylight Time),515044.8999999999,059_o_m_n_a.png,O,m,1123,8,1,1993.2999999998137,513051.6000000001,7108,NNB,C,6
6,prac,1,0.0,2-Back,1,m,Thu Mar 13 2025 16:38:12 GMT-0500 (Central Daylight Time),517010.8000000003,028_y_f_n_a.png,O,m,1102,9,1,1957.0,515053.8000000003,7108,NNB,C,7
7,prac,1,1.0,2-Back,1,z,Thu Mar 13 2025 16:38:12 GMT-0500 (Central Daylight Time),518561.0,059_o_m_n_a.png,O,z,774,10,1,1540.8999999999069,517020.1000000001,7108,NNB,C,8
8,prac,1,0.0,2-Back,1,m,Thu Mar 13 2025 16:38:12 GMT-0500 (Central Daylight Time),520360.5,098_y_f_n_a.png,O,m,933,11,1,1790.0,518570.5,7108,NNB,C,9
9,prac,1,0.0,2-Back,1,m,Thu Mar 13 2025 16:38:12 GMT-0500 (Central Daylight Time),522124.3999999999,082_m_m_n_a.png,O,m,982,12,1,1754.2999999998137,520370.1000000001,7108,NNB,C,10
0,test,1,0.0,2-Back,,,Thu Mar 13 2025 16:38:12 GMT-0500 (Central Daylight Time),522124.3999999999,057_y_m_n_a.png,O,space,8590,1,1,1754.2999999998137,520370.1000000001,7108,NNB,C,0
0,test,1,0.0,2-Back,,,Thu Mar 13 2025 16:38:12 GMT-0500 (Central Daylight Time),522124.3999999999,057_y_m_n_a.png,O,space,8590,2,1,1754.2999999998137,520370.1000000001,7108,NNB,C,0
1,test,1,0.0,2-Back,1,m,Thu Mar 13 2025 16:38:12 GMT-0500 (Central Daylight Time),547618.2000000002,130_o_f_n_a.png,O,m,949,3,1,1976.2000000001863,545642.0,7108,NNB,C,1
2,test,1,0.0,2-Back,1,m,Thu Mar 13 2025 16:38:12 GMT-0500 (Central Daylight Time),549866.5,092_m_m_n_a.png,O,m,1219,4,1,2241.600000000093,547624.8999999999,7108,NNB,C,2
3,test,1,1.0,2-Back,1,z,Thu Mar 13 2025 16:38:12 GMT-0500 (Central Daylight Time),551881.5,130_o_f_n_a.png,O,z,990,5,1,2010.8999999999069,549870.6000000001,7108,NNB,C,3
4,test,1,0.0,2-Back,1,m,Thu Mar 13 2025 16:38:12 GMT-0500 (Central Daylight Time),554033.3999999999,098_y_f_n_a.png,O,m,1119,6,1,2145.0999999996275,551888.3000000003,7108,NNB,C,4
5,test,1,0.0,2-Back,1,m,Thu Mar 13 2025 16:38:12 GMT-0500 (Central Daylight Time),556548.8000000003,092_m_m_n_a.png,O,m,1481,7,1,2505.9000000003725,554042.8999999999,7108,NNB,C,5
6,test,1,1.0,2-Back,1,z,Thu Mar 13 2025 16:38:12 GMT-0500 (Central Daylight Time),558547.3000000003,098_y_f_n_a.png,O,z,972,8,1,1991.3000000002794,556556.0,7108,NNB,C,6
7,test,1,0.0,2-Back,1,m,Thu Mar 13 2025 16:38:12 GMT-0500 (Central Daylight Time),560480.3000000003,031_y_m_n_a.png,O,m,899,9,1,1925.0,558555.3000000003,7108,NNB,C,7
8,test,1,0.0,2-Back,1,m,Thu Mar 13 2025 16:38:12 GMT-0500 (Central Daylight Time),563247.8000000003,030_o_f_n_a.png,O,m,1742,10,1,2762.2000000001863,560485.6000000001,7108,NNB,C,8
9,test,1,1.0,2-Back,1,z,Thu Mar 13 2025 16:38:12 GMT-0500 (Central Daylight Time),565296.7000000002,031_y_m_n_a.png,O,z,1033,11,1,2043.1000000000931,563253.6000000001,7108,NNB,C,9
10,test,1,0.0,2-Back,1,m,Thu Mar 13 2025 16:38:12 GMT-0500 (Central Daylight Time),567278.1000000001,006_m_f_n_a.png,O,m,953,12,1,1974.6000000000931,565303.5,7108,NNB,C,10
11,test,1,0.0,2-Back,1,m,Thu Mar 13 2025 16:38:12 GMT-0500 (Central Daylight Time),569942.7000000002,006_m_f_n_a.png,O,m,1642,13,1,2657.899999999907,567284.8000000003,7108,NNB,C,11
12,test,1,0.0,2-Back,1,m,Thu Mar 13 2025 16:38:12 GMT-0500 (Central Daylight Time),572508.7000000002,146_o_m_n_a.png,O,m,1536,14,1,2560.5,569948.2000000002,7108,NNB,C,12
13,test,1,0.0,2-Back,1,m,Thu Mar 13 2025 16:38:12 GMT-0500 (Central Daylight Time),575060.3999999999,030_o_f_n_a.png,O,m,1534,15,1,2545.0,572515.3999999999,7108,NNB,C,13
14,test,1,1.0,2-Back,1,z,Thu Mar 13 2025 16:38:12 GMT-0500 (Central Daylight Time),577157.3999999999,146_o_m_n_a.png,O,z,1077,16,1,2089.5,575067.8999999999,7108,NNB,C,14
15,test,1,0.0,2-Back,1,m,Thu Mar 13 2025 16:38:12 GMT-0500 (Central Daylight Time),579540.5,093_m_f_n_a.png,O,m,1364,17,1,2376.5,577164.0,7108,NNB,C,15
16,test,1,0.0,2-Back,1,m,Thu Mar 13 2025 16:38:12 GMT-0500 (Central Daylight Time),582122.7000000002,082_m_m_n_a.png,O,m,1563,18,1,2576.100000000093,579546.6000000001,7108,NNB,C,16
0,test,2,0.0,2-Back,,,Thu Mar 13 2025 16:38:12 GMT-0500 (Central Daylight Time),582122.7000000002,082_m_m_n_a.png,O,space,5265,1,1,2576.100000000093,579546.6000000001,7108,NNB,C,0
0,test,2,0.0,2-Back,,,Thu Mar 13 2025 16:38:12 GMT-0500 (Central Daylight Time),582122.7000000002,028_y_f_n_a.png,O,space,5265,2,1,2576.100000000093,579546.6000000001,7108,NNB,C,0
1,test,2,1.0,2-Back,1,z,Thu Mar 13 2025 16:38:12 GMT-0500 (Central Daylight Time),594635.3000000003,082_m_m_n_a.png,O,z,1104,3,1,2125.8000000002794,592509.5,7108,NNB,C,1
2,test,2,0.0,2-Back,1,m,Thu Mar 13 2025 16:38:12 GMT-0500 (Central Daylight Time),597035.0,093_m_f_n_a.png,O,m,1371,4,1,2392.600000000093,594642.3999999999,7108,NNB,C,2
3,test,2,0.0,2-Back,1,m,Thu Mar 13 2025 16:38:12 GMT-0500 (Central Daylight Time),599435.1000000001,028_y_f_n_a.png,O,m,1383,5,1,2392.7000000001863,597042.3999999999,7108,NNB,C,3
4,test,2,0.0,2-Back,1,m,Thu Mar 13 2025 16:38:12 GMT-0500 (Central Daylight Time),602234.5,146_o_m_n_a.png,O,m,1782,6,1,2793.2999999998137,599441.2000000002,7108,NNB,C,4
4,test,2,0.0,2-Back,0,m,Thu Mar 13 2025 16:38:12 GMT-0500 (Central Daylight Time),604433.8999999999,098_y_f_n_a.png,O,z,1165,7,1,2192.899999999907,602241.0,7108,NNB,C,5
4,test,2,1.0,2-Back,0,z,Thu Mar 13 2025 16:38:12 GMT-0500 (Central Daylight Time),606717.0,146_o_m_n_a.png,O,m,1267,8,1,2277.5,604439.5,7108,NNB,C,6
5,test,2,0.0,2-Back,1,m,Thu Mar 13 2025 16:38:12 GMT-0500 (Central Daylight Time),609280.7000000002,031_y_m_n_a.png,O,m,1542,9,1,2556.7000000001863,606724.0,7108,NNB,C,7
5,test,2,0.0,2-Back,0,m,Thu Mar 13 2025 16:38:12 GMT-0500 (Central Daylight Time),611513.5,031_y_m_n_a.png,O,z,1206,10,1,2227.100000000093,609286.3999999999,7108,NNB,C,8
6,test,2,0.0,2-Back,1,m,Thu Mar 13 2025 16:38:12 GMT-0500 (Central Daylight Time),613612.6000000001,006_m_f_n_a.png,O,m,1078,11,1,2092.2000000001863,611520.3999999999,7108,NNB,C,9
7,test,2,0.0,2-Back,1,m,Thu Mar 13 2025 16:38:12 GMT-0500 (Central Daylight Time),615995.1000000001,028_y_f_n_a.png,O,m,1354,12,1,2376.399999999907,613618.7000000002,7108,NNB,C,10
8,test,2,1.0,2-Back,1,z,Thu Mar 13 2025 16:38:12 GMT-0500 (Central Daylight Time),618178.3999999999,006_m_f_n_a.png,O,z,1157,13,1,2176.5999999996275,616001.8000000003,7108,NNB,C,11
9,test,2,0.0,2-Back,1,m,Thu Mar 13 2025 16:38:12 GMT-0500 (Central Daylight Time),620410.8999999999,059_o_m_n_a.png,O,m,1205,14,1,2227.0999999996275,618183.8000000003,7108,NNB,C,12
10,test,2,0.0,2-Back,1,m,Thu Mar 13 2025 16:38:12 GMT-0500 (Central Daylight Time),623010.0,059_o_m_n_a.png,O,m,1573,15,1,2592.1999999997206,620417.8000000003,7108,NNB,C,13
11,test,2,0.0,2-Back,1,m,Thu Mar 13 2025 16:38:12 GMT-0500 (Central Daylight Time),625259.7000000002,030_o_f_n_a.png,O,m,1221,16,1,2242.2000000001863,623017.5,7108,NNB,C,14
12,test,2,0.0,2-Back,1,m,Thu Mar 13 2025 16:38:12 GMT-0500 (Central Daylight Time),627541.3000000003,092_m_m_n_a.png,O,m,1260,17,1,2274.7000000001863,625266.6000000001,7108,NNB,C,15
13,test,2,1.0,2-Back,1,z,Thu Mar 13 2025 16:38:12 GMT-0500 (Central Daylight Time),629842.7000000002,030_o_f_n_a.png,O,z,1282,18,1,2295.600000000093,627547.1000000001,7108,NNB,C,16
0,test,3,1.0,2-Back,,,Thu Mar 13 2025 16:38:12 GMT-0500 (Central Daylight Time),629842.7000000002,057_y_m_n_a.png,O,space,3081,1,1,2295.600000000093,627547.1000000001,7108,NNB,C,0
0,test,3,1.0,2-Back,,,Thu Mar 13 2025 16:38:12 GMT-0500 (Central Daylight Time),629842.7000000002,057_y_m_n_a.png,O,space,3081,2,1,2295.600000000093,627547.1000000001,7108,NNB,C,0
1,test,3,0.0,2-Back,1,m,Thu Mar 13 2025 16:38:12 GMT-0500 (Central Daylight Time),640339.0,030_o_f_n_a.png,O,m,1250,3,1,2259.899999999907,638079.1000000001,7108,NNB,C,1
2,test,3,0.0,2-Back,1,m,Thu Mar 13 2025 16:38:12 GMT-0500 (Central Daylight Time),642521.8999999999,082_m_m_n_a.png,O,m,1165,4,1,2175.7999999998137,640346.1000000001,7108,NNB,C,2
3,test,3,1.0,2-Back,1,z,Thu Mar 13 2025 16:38:12 GMT-0500 (Central Daylight Time),644571.2000000002,030_o_f_n_a.png,O,z,1032,5,1,2043.5,642527.7000000002,7108,NNB,C,3
4,test,3,0.0,2-Back,1,m,Thu Mar 13 2025 16:38:12 GMT-0500 (Central Daylight Time),646736.8999999999,031_y_m_n_a.png,O,m,1134,6,1,2158.5999999996275,644578.3000000003,7108,NNB,C,4
5,test,3,0.0,2-Back,1,m,Thu Mar 13 2025 16:38:12 GMT-0500 (Central Daylight Time),649236.3000000003,082_m_m_n_a.png,O,m,1482,7,1,2491.7000000001863,646744.6000000001,7108,NNB,C,5
6,test,3,1.0,2-Back,1,z,Thu Mar 13 2025 16:38:12 GMT-0500 (Central Daylight Time),651386.8999999999,031_y_m_n_a.png,O,z,1119,8,1,2143.399999999907,649243.5,7108,NNB,C,6
7,test,3,0.0,2-Back,1,m,Thu Mar 13 2025 16:38:12 GMT-0500 (Central Daylight Time),653366.6000000001,028_y_f_n_a.png,O,m,958,9,1,1973.2000000001863,651393.3999999999,7108,NNB,C,7
8,test,3,0.0,2-Back,1,m,Thu Mar 13 2025 16:38:12 GMT-0500 (Central Daylight Time),656033.2000000002,092_m_m_n_a.png,O,m,1633,10,1,2660.600000000093,653372.6000000001,7108,NNB,C,8
9,test,3,1.0,2-Back,1,z,Thu Mar 13 2025 16:38:12 GMT-0500 (Central Daylight Time),658016.8999999999,028_y_f_n_a.png,O,z,966,11,1,1976.2999999998137,656040.6000000001,7108,NNB,C,9
10,test,3,1.0,2-Back,1,z,Thu Mar 13 2025 16:38:12 GMT-0500 (Central Daylight Time),660147.2000000002,092_m_m_n_a.png,O,z,1104,12,1,2123.899999999907,658023.3000000003,7108,NNB,C,10
11,test,3,0.0,2-Back,1,m,Thu Mar 13 2025 16:38:12 GMT-0500 (Central Daylight Time),662280.8000000003,030_o_f_n_a.png,O,m,1108,13,1,2127.5,660153.3000000003,7108,NNB,C,11
12,test,3,0.0,2-Back,1,m,Thu Mar 13 2025 16:38:12 GMT-0500 (Central Daylight Time),664379.8000000003,093_m_f_n_a.png,O,m,1071,14,1,2092.4000000003725,662287.3999999999,7108,NNB,C,12
13,test,3,0.0,2-Back,1,m,Thu Mar 13 2025 16:38:12 GMT-0500 (Central Daylight Time),666762.2000000002,146_o_m_n_a.png,O,m,1364,15,1,2375.2000000001863,664387.0,7108,NNB,C,13
14,test,3,1.0,2-Back,1,z,Thu Mar 13 2025 16:38:12 GMT-0500 (Central Daylight Time),669029.1000000001,093_m_f_n_a.png,O,z,1249,16,1,2264.399999999907,666764.7000000002,7108,NNB,C,14
15,test,3,0.0,2-Back,1,m,Thu Mar 13 2025 16:38:12 GMT-0500 (Central Daylight Time),671161.3999999999,130_o_f_n_a.png,O,m,1108,17,1,2128.5,669032.8999999999,7108,NNB,C,15
16,test,3,0.0,2-Back,1,m,Thu Mar 13 2025 16:38:12 GMT-0500 (Central Daylight Time),673961.3000000003,130_o_f_n_a.png,O,m,1767,18,1,2792.9000000003725,671168.3999999999,7108,NNB,C,16
0,test,4,0.0,2-Back,,,Thu Mar 13 2025 16:38:12 GMT-0500 (Central Daylight Time),673961.3000000003,059_o_m_n_a.png,O,space,6344,1,1,2792.9000000003725,671168.3999999999,7108,NNB,C,0
0,test,4,0.0,2-Back,,,Thu Mar 13 2025 16:38:12 GMT-0500 (Central Daylight Time),673961.3000000003,098_y_f_n_a.png,O,space,6344,2,1,2792.9000000003725,671168.3999999999,7108,NNB,C,0
1,test,4,1.0,2-Back,1,z,Thu Mar 13 2025 16:38:12 GMT-0500 (Central Daylight Time),687291.1000000001,059_o_m_n_a.png,O,z,734,3,1,1760.2000000001863,685530.8999999999,7108,NNB,C,1
2,test,4,1.0,2-Back,1,z,Thu Mar 13 2025 16:38:12 GMT-0500 (Central Daylight Time),689288.3999999999,098_y_f_n_a.png,O,z,974,4,1,1990.0999999996275,687298.3000000003,7108,NNB,C,2
3,test,4,0.0,2-Back,1,m,Thu Mar 13 2025 16:38:12 GMT-0500 (Central Daylight Time),691289.2000000002,030_o_f_n_a.png,O,m,975,5,1,1993.8000000002794,689295.3999999999,7108,NNB,C,3
4,test,4,0.0,2-Back,1,m,Thu Mar 13 2025 16:38:12 GMT-0500 (Central Daylight Time),693539.3999999999,030_o_f_n_a.png,O,m,1233,6,1,2242.5999999996275,691296.8000000003,7108,NNB,C,4
5,test,4,0.0,2-Back,1,m,Thu Mar 13 2025 16:38:12 GMT-0500 (Central Daylight Time),695703.0,006_m_f_n_a.png,O,m,1143,7,1,2157.600000000093,693545.3999999999,7108,NNB,C,5
6,test,4,0.0,2-Back,1,m,Thu Mar 13 2025 16:38:12 GMT-0500 (Central Daylight Time),697702.7000000002,031_y_m_n_a.png,O,m,976,8,1,1993.5,695709.2000000002,7108,NNB,C,6
7,test,4,1.0,2-Back,1,z,Thu Mar 13 2025 16:38:12 GMT-0500 (Central Daylight Time),699553.3999999999,006_m_f_n_a.png,O,z,826,9,1,1844.0999999996275,697709.3000000003,7108,NNB,C,7
8,test,4,0.0,2-Back,1,m,Thu Mar 13 2025 16:38:12 GMT-0500 (Central Daylight Time),701452.1000000001,092_m_m_n_a.png,O,m,870,10,1,1890.7999999998137,699561.3000000003,7108,NNB,C,8
9,test,4,0.0,2-Back,1,m,Thu Mar 13 2025 16:38:12 GMT-0500 (Central Daylight Time),703466.7000000002,031_y_m_n_a.png,O,m,997,11,1,2008.3999999999069,701458.3000000003,7108,NNB,C,9
10,test,4,0.0,2-Back,1,m,Thu Mar 13 2025 16:38:12 GMT-0500 (Central Daylight Time),705650.3000000003,130_o_f_n_a.png,O,m,1157,12,1,2178.3000000002794,703472.0,7108,NNB,C,10
11,test,4,0.0,2-Back,1,m,Thu Mar 13 2025 16:38:12 GMT-0500 (Central Daylight Time),708482.7000000002,057_y_m_n_a.png,O,m,1807,13,1,2826.3000000002794,705656.3999999999,7108,NNB,C,11
11,test,4,1.0,2-Back,0,z,Thu Mar 13 2025 16:38:12 GMT-0500 (Central Daylight Time),711100.3000000003,130_o_f_n_a.png,O,m,1602,14,1,2611.7000000001863,708488.6000000001,7108,NNB,C,12
12,test,4,1.0,2-Back,1,z,Thu Mar 13 2025 16:38:12 GMT-0500 (Central Daylight Time),713564.8999999999,057_y_m_n_a.png,O,z,1438,15,1,2457.399999999907,711107.5,7108,NNB,C,13
13,test,4,0.0,2-Back,1,m,Thu Mar 13 2025 16:38:12 GMT-0500 (Central Daylight Time),715864.1000000001,082_m_m_n_a.png,O,m,1267,16,1,2292.399999999907,713571.7000000002,7108,NNB,C,14
14,test,4,0.0,2-Back,1,m,Thu Mar 13 2025 16:38:12 GMT-0500 (Central Daylight Time),718379.3000000003,093_m_f_n_a.png,O,m,1496,17,1,2508.600000000093,715870.7000000002,7108,NNB,C,15
15,test,4,1.0,2-Back,1,z,Thu Mar 13 2025 16:38:12 GMT-0500 (Central Daylight Time),720280.1000000001,082_m_m_n_a.png,O,z,877,18,1,1895.0,718385.1000000001,7108,NNB,C,16
0,test,5,1.0,2-Back,,,Thu Mar 13 2025 16:38:12 GMT-0500 (Central Daylight Time),720280.1000000001,057_y_m_n_a.png,O,space,1800,1,1,1895.0,718385.1000000001,7108,NNB,C,0
0,test,5,1.0,2-Back,,,Thu Mar 13 2025 16:38:12 GMT-0500 (Central Daylight Time),720280.1000000001,093_m_f_n_a.png,O,space,1800,2,1,1895.0,718385.1000000001,7108,NNB,C,0
1,test,5,1.0,2-Back,1,z,Thu Mar 13 2025 16:38:12 GMT-0500 (Central Daylight Time),728943.3000000003,057_y_m_n_a.png,O,z,768,3,1,1793.9000000003725,727149.3999999999,7108,NNB,C,1
2,test,5,1.0,2-Back,1,z,Thu Mar 13 2025 16:38:12 GMT-0500 (Central Daylight Time),730943.6000000001,093_m_f_n_a.png,O,z,975,4,1,1992.5,728951.1000000001,7108,NNB,C,2
3,test,5,0.0,2-Back,1,m,Thu Mar 13 2025 16:38:12 GMT-0500 (Central Daylight Time),733009.5,130_o_f_n_a.png,O,m,1047,5,1,2059.100000000093,730950.3999999999,7108,NNB,C,3
4,test,5,0.0,2-Back,1,m,Thu Mar 13 2025 16:38:12 GMT-0500 (Central Daylight Time),735341.3000000003,057_y_m_n_a.png,O,m,1316,6,1,2327.600000000093,733013.7000000002,7108,NNB,C,4
5,test,5,0.0,2-Back,1,m,Thu Mar 13 2025 16:38:12 GMT-0500 (Central Daylight Time),737706.1000000001,028_y_f_n_a.png,O,m,1338,7,1,2357.2999999998137,735348.8000000003,7108,NNB,C,5
6,test,5,0.0,2-Back,1,m,Thu Mar 13 2025 16:38:12 GMT-0500 (Central Daylight Time),740572.6000000001,130_o_f_n_a.png,O,m,1846,8,1,2859.399999999907,737713.2000000002,7108,NNB,C,6
7,test,5,1.0,2-Back,1,z,Thu Mar 13 2025 16:38:12 GMT-0500 (Central Daylight Time),743038.7000000002,028_y_f_n_a.png,O,z,1436,9,1,2459.399999999907,740579.3000000003,7108,NNB,C,7
8,test,5,0.0,2-Back,1,m,Thu Mar 13 2025 16:38:12 GMT-0500 (Central Daylight Time),745339.3000000003,146_o_m_n_a.png,O,m,1284,10,1,2297.9000000003725,743041.3999999999,7108,NNB,C,8
9,test,5,0.0,2-Back,1,m,Thu Mar 13 2025 16:38:12 GMT-0500 (Central Daylight Time),747886.8999999999,006_m_f_n_a.png,O,m,1527,11,1,2543.6999999997206,745343.2000000002,7108,NNB,C,9
9,test,5,0.0,2-Back,0,m,Thu Mar 13 2025 16:38:12 GMT-0500 (Central Daylight Time),750370.6000000001,092_m_m_n_a.png,O,z,1465,12,1,2477.399999999907,747893.2000000002,7108,NNB,C,10
10,test,5,0.0,2-Back,1,m,Thu Mar 13 2025 16:38:12 GMT-0500 (Central Daylight Time),752951.7000000002,146_o_m_n_a.png,O,m,1559,13,1,2573.600000000093,750378.1000000001,7108,NNB,C,11
11,test,5,1.0,2-Back,1,z,Thu Mar 13 2025 16:38:12 GMT-0500 (Central Daylight Time),755919.0,092_m_m_n_a.png,O,z,1934,14,1,2961.600000000093,752957.3999999999,7108,NNB,C,12
12,test,5,0.0,2-Back,1,m,Thu Mar 13 2025 16:38:12 GMT-0500 (Central Daylight Time),757949.8999999999,098_y_f_n_a.png,O,m,1009,15,1,2025.0999999996275,755924.8000000003,7108,NNB,C,13
13,test,5,0.0,2-Back,1,m,Thu Mar 13 2025 16:38:12 GMT-0500 (Central Daylight Time),760082.0,059_o_m_n_a.png,O,m,1105,16,1,2125.100000000093,757956.8999999999,7108,NNB,C,14
14,test,5,0.0,2-Back,1,m,Thu Mar 13 2025 16:38:12 GMT-0500 (Central Daylight Time),762382.5,006_m_f_n_a.png,O,m,1269,17,1,2293.7999999998137,760088.7000000002,7108,NNB,C,15
15,test,5,1.0,2-Back,1,z,Thu Mar 13 2025 16:38:12 GMT-0500 (Central Daylight Time),764516.2000000002,059_o_m_n_a.png,O,z,1115,18,1,2127.399999999907,762388.8000000003,7108,NNB,C,16
