Number,acc_sum,block,block_c,block_cond,con_img,correct,correct_response,datetime,endtime,jitter,project,response,response_time,row_sel,session_number,start_end,starttime,subject_id,task,task_vers,trial
4,1,prac,1,A,circle.png,1,z,Wed Apr 23 2025 08:07:25 GMT-0500 (Central Daylight Time),65593.19999998808,1400,O,z,879,4,1,3057.800000011921,62535.39999997616,7132,NTS,B,1
2,2,prac,1,A,circle.png,1,z,Wed Apr 23 2025 08:07:25 GMT-0500 (Central Daylight Time),69126.29999995232,2000,O,z,735,2,1,3525.0,65601.29999995232,7132,NTS,B,2
3,3,prac,1,A,circle.png,1,z,Wed Apr 23 2025 08:07:25 GMT-0500 (Central Daylight Time),71658.59999996424,1200,O,z,538,3,1,2524.300000011921,69134.29999995232,7132,NTS,B,3
1,4,prac,1,A,circle.png,1,z,Wed Apr 23 2025 08:07:25 GMT-0500 (Central Daylight Time),74023.29999995232,1000,O,z,574,1,1,2355.699999988079,71667.59999996424,7132,NTS,B,4
4,5,prac,1,A,circle.png,1,z,Wed Apr 23 2025 08:07:25 GMT-0500 (Central Daylight Time),76924.09999996424,1400,O,z,702,4,1,2892.800000011921,74031.29999995232,7132,NTS,B,5
7,6,prac,1,A,circle.png,1,m,Wed Apr 23 2025 08:07:25 GMT-0500 (Central Daylight Time),79955.29999995232,1700,O,m,536,6,1,3022.699999988079,76932.59999996424,7132,NTS,B,6
3,7,prac,1,A,circle.png,1,z,Wed Apr 23 2025 08:07:25 GMT-0500 (Central Daylight Time),82537.59999996424,1200,O,z,602,3,1,2573.699999988079,79963.89999997616,7132,NTS,B,7
6,8,prac,1,A,circle.png,1,m,Wed Apr 23 2025 08:07:25 GMT-0500 (Central Daylight Time),86021.29999995232,1900,O,m,799,5,1,3475.099999964237,82546.19999998808,7132,NTS,B,8
8,9,prac,1,A,circle.png,1,m,Wed Apr 23 2025 08:07:25 GMT-0500 (Central Daylight Time),88953.79999995232,1600,O,m,557,7,1,2923.199999988079,86030.59999996424,7132,NTS,B,9
9,10,prac,1,A,circle.png,1,m,Wed Apr 23 2025 08:07:25 GMT-0500 (Central Daylight Time),91719.0,1500,O,m,467,8,1,2758.400000035763,88960.59999996424,7132,NTS,B,10
1,11,prac,1,A,circle.png,1,z,Wed Apr 23 2025 08:07:25 GMT-0500 (Central Daylight Time),93984.89999997616,1000,O,z,489,1,1,2258.699999988079,91726.19999998808,7132,NTS,B,11
2,12,prac,1,A,circle.png,1,z,Wed Apr 23 2025 08:07:25 GMT-0500 (Central Daylight Time),97433.5,2000,O,z,663,2,1,3442.600000023842,93990.89999997616,7132,NTS,B,12
3,1,prac,1,B,triangle.png,1,z,Wed Apr 23 2025 08:07:25 GMT-0500 (Central Daylight Time),129955.69999998808,1600,O,z,764,3,1,3141.800000011921,126813.89999997616,7132,NTS,B,1
2,2,prac,1,B,triangle.png,1,m,Wed Apr 23 2025 08:07:25 GMT-0500 (Central Daylight Time),133302.5,1700,O,m,867,2,1,3340.100000023842,129962.39999997616,7132,NTS,B,2
9,3,prac,1,B,triangle.png,1,z,Wed Apr 23 2025 08:07:25 GMT-0500 (Central Daylight Time),136021.69999998808,1400,O,z,545,8,1,2715.300000011921,133306.39999997616,7132,NTS,B,3
8,4,prac,1,B,triangle.png,1,m,Wed Apr 23 2025 08:07:25 GMT-0500 (Central Daylight Time),138719.79999995232,1200,O,m,707,7,1,2691.0,136028.79999995232,7132,NTS,B,4
1,5,prac,1,B,triangle.png,1,z,Wed Apr 23 2025 08:07:25 GMT-0500 (Central Daylight Time),142003.19999998808,1900,O,z,587,1,1,3277.300000011921,138725.89999997616,7132,NTS,B,5
3,6,prac,1,B,triangle.png,1,z,Wed Apr 23 2025 08:07:25 GMT-0500 (Central Daylight Time),145269.39999997616,1600,O,z,869,3,1,3258.300000011921,142011.09999996424,7132,NTS,B,6
4,7,prac,1,B,triangle.png,1,m,Wed Apr 23 2025 08:07:25 GMT-0500 (Central Daylight Time),148366.89999997616,1500,O,m,798,4,1,3092.399999976158,145274.5,7132,NTS,B,7
6,8,prac,1,B,triangle.png,1,m,Wed Apr 23 2025 08:07:25 GMT-0500 (Central Daylight Time),151034.09999996424,1000,O,m,882,5,1,2660.699999988079,148373.39999997616,7132,NTS,B,8
7,9,prac,1,B,triangle.png,1,z,Wed Apr 23 2025 08:07:25 GMT-0500 (Central Daylight Time),154382.59999996424,2000,O,z,567,6,1,3338.0,151044.59999996424,7132,NTS,B,9
4,10,prac,1,B,triangle.png,1,m,Wed Apr 23 2025 08:07:25 GMT-0500 (Central Daylight Time),157345.59999996424,1500,O,m,681,4,1,2957.0,154388.59999996424,7132,NTS,B,10
1,11,prac,1,B,triangle.png,1,z,Wed Apr 23 2025 08:07:25 GMT-0500 (Central Daylight Time),160763.89999997616,1900,O,z,732,1,1,3413.600000023842,157350.29999995232,7132,NTS,B,11
6,12,prac,1,B,triangle.png,1,m,Wed Apr 23 2025 08:07:25 GMT-0500 (Central Daylight Time),163312.59999996424,1000,O,m,767,5,1,2542.0,160770.59999996424,7132,NTS,B,12
1,1,test,1,A,circle.png,1,z,Wed Apr 23 2025 08:07:25 GMT-0500 (Central Daylight Time),181840.09999996424,1000,O,z,495,1,1,1516.3999999761581,180323.69999998808,7132,NTS,B,1
7,2,test,1,A,circle.png,1,m,Wed Apr 23 2025 08:07:25 GMT-0500 (Central Daylight Time),184120.89999997616,1700,O,m,565,6,1,2276.600000023842,181844.29999995232,7132,NTS,B,2
8,3,test,1,A,circle.png,1,m,Wed Apr 23 2025 08:07:25 GMT-0500 (Central Daylight Time),186354.19999998808,1600,O,m,614,7,1,2230.400000035763,184123.79999995232,7132,NTS,B,3
4,4,test,1,A,circle.png,1,z,Wed Apr 23 2025 08:07:25 GMT-0500 (Central Daylight Time),188451.89999997616,1400,O,z,671,4,1,2095.100000023842,186356.79999995232,7132,NTS,B,4
6,5,test,1,A,circle.png,1,m,Wed Apr 23 2025 08:07:25 GMT-0500 (Central Daylight Time),190902.69999998808,1900,O,m,527,5,1,2448.199999988079,188454.5,7132,NTS,B,5
2,6,test,1,A,circle.png,1,z,Wed Apr 23 2025 08:07:25 GMT-0500 (Central Daylight Time),194034.5,2000,O,z,1106,2,1,3129.100000023842,190905.39999997616,7132,NTS,B,6
1,7,test,1,A,circle.png,1,z,Wed Apr 23 2025 08:07:25 GMT-0500 (Central Daylight Time),195534.89999997616,1000,O,z,468,1,1,1496.8999999761581,194038.0,7132,NTS,B,7
6,8,test,1,A,circle.png,1,m,Wed Apr 23 2025 08:07:25 GMT-0500 (Central Daylight Time),198100.39999997616,1900,O,m,646,5,1,2562.100000023842,195538.29999995232,7132,NTS,B,8
7,9,test,1,A,circle.png,1,m,Wed Apr 23 2025 08:07:25 GMT-0500 (Central Daylight Time),200581.59999996424,1700,O,m,760,6,1,2478.5,198103.09999996424,7132,NTS,B,9
7,10,test,1,A,circle.png,1,m,Wed Apr 23 2025 08:07:25 GMT-0500 (Central Daylight Time),202715.19999998808,1700,O,m,414,6,1,2130.900000035763,200584.29999995232,7132,NTS,B,10
7,11,test,1,A,circle.png,1,m,Wed Apr 23 2025 08:07:25 GMT-0500 (Central Daylight Time),204864.29999995232,1700,O,m,417,6,1,2146.399999976158,202717.89999997616,7132,NTS,B,11
4,11,test,1,A,circle.png,0,z,Wed Apr 23 2025 08:07:25 GMT-0500 (Central Daylight Time),206698.59999996424,1400,O,m,417,4,1,1831.800000011921,204866.79999995232,7132,NTS,B,12
1,12,test,1,A,circle.png,1,z,Wed Apr 23 2025 08:07:25 GMT-0500 (Central Daylight Time),208331.69999998808,1000,O,z,616,1,1,1628.800000011921,206702.89999997616,7132,NTS,B,13
6,13,test,1,A,circle.png,1,m,Wed Apr 23 2025 08:07:25 GMT-0500 (Central Daylight Time),210946.29999995232,1900,O,m,689,5,1,2610.599999964237,208335.69999998808,7132,NTS,B,14
3,14,test,1,A,circle.png,1,z,Wed Apr 23 2025 08:07:25 GMT-0500 (Central Daylight Time),212828.69999998808,1200,O,z,652,3,1,1878.1000000238419,210950.59999996424,7132,NTS,B,15
9,15,test,1,A,circle.png,1,m,Wed Apr 23 2025 08:07:25 GMT-0500 (Central Daylight Time),214980.5,1500,O,m,632,8,1,2148.0,212832.5,7132,NTS,B,16
3,16,test,1,A,circle.png,1,z,Wed Apr 23 2025 08:07:25 GMT-0500 (Central Daylight Time),216930.0,1200,O,z,718,3,1,1944.9000000357628,214985.09999996424,7132,NTS,B,17
3,17,test,1,A,circle.png,1,z,Wed Apr 23 2025 08:07:25 GMT-0500 (Central Daylight Time),218928.09999996424,1200,O,z,775,3,1,1994.699999988079,216933.39999997616,7132,NTS,B,18
2,18,test,1,A,circle.png,1,z,Wed Apr 23 2025 08:07:25 GMT-0500 (Central Daylight Time),221644.19999998808,2000,O,z,688,2,1,2711.600000023842,218932.59999996424,7132,NTS,B,19
2,19,test,1,A,circle.png,1,z,Wed Apr 23 2025 08:07:25 GMT-0500 (Central Daylight Time),224191.19999998808,2000,O,z,525,2,1,2542.400000035763,221648.79999995232,7132,NTS,B,20
6,20,test,1,A,circle.png,1,m,Wed Apr 23 2025 08:07:25 GMT-0500 (Central Daylight Time),226793.39999997616,1900,O,m,667,5,1,2598.399999976158,224195.0,7132,NTS,B,21
9,21,test,1,A,circle.png,1,m,Wed Apr 23 2025 08:07:25 GMT-0500 (Central Daylight Time),228873.5,1500,O,m,557,8,1,2076.2000000476837,226797.29999995232,7132,NTS,B,22
8,22,test,1,A,circle.png,1,m,Wed Apr 23 2025 08:07:25 GMT-0500 (Central Daylight Time),231022.89999997616,1600,O,m,515,7,1,2145.800000011921,228877.09999996424,7132,NTS,B,23
8,23,test,1,A,circle.png,1,m,Wed Apr 23 2025 08:07:25 GMT-0500 (Central Daylight Time),233188.79999995232,1600,O,m,544,7,1,2162.199999988079,231026.59999996424,7132,NTS,B,24
1,1,test,1,B,triangle.png,1,z,Wed Apr 23 2025 08:07:25 GMT-0500 (Central Daylight Time),248551.29999995232,1900,O,z,567,1,1,2493.699999988079,246057.59999996424,7132,NTS,B,1
6,2,test,1,B,triangle.png,1,m,Wed Apr 23 2025 08:07:25 GMT-0500 (Central Daylight Time),250550.69999998808,1500,O,m,469,13,1,1994.199999988079,248556.5,7132,NTS,B,2
1,3,test,1,B,triangle.png,1,z,Wed Apr 23 2025 08:07:25 GMT-0500 (Central Daylight Time),252933.39999997616,1900,O,z,454,1,1,2377.600000023842,250555.79999995232,7132,NTS,B,3
6,4,test,1,B,triangle.png,1,m,Wed Apr 23 2025 08:07:25 GMT-0500 (Central Daylight Time),254732.29999995232,1000,O,m,779,5,1,1793.8999999761581,252938.39999997616,7132,NTS,B,4
4,5,test,1,B,triangle.png,1,m,Wed Apr 23 2025 08:07:25 GMT-0500 (Central Daylight Time),256931.79999995232,1500,O,m,671,4,1,2194.699999988079,254737.09999996424,7132,NTS,B,5
3,6,test,1,B,triangle.png,1,z,Wed Apr 23 2025 08:07:25 GMT-0500 (Central Daylight Time),259547.0,2000,O,z,590,11,1,2611.5,256935.5,7132,NTS,B,6
6,7,test,1,B,triangle.png,1,m,Wed Apr 23 2025 08:07:25 GMT-0500 (Central Daylight Time),261679.39999997616,1500,O,m,600,13,1,2129.0,259550.39999997616,7132,NTS,B,7
4,8,test,1,B,triangle.png,1,m,Wed Apr 23 2025 08:07:25 GMT-0500 (Central Daylight Time),263329.6999999881,1000,O,m,617,12,1,1647.699999988079,261682.0,7132,NTS,B,8
9,9,test,1,B,triangle.png,1,z,Wed Apr 23 2025 08:07:25 GMT-0500 (Central Daylight Time),265362.7999999523,1400,O,z,607,8,1,2030.0,263332.7999999523,7132,NTS,B,9
3,10,test,1,B,triangle.png,1,z,Wed Apr 23 2025 08:07:25 GMT-0500 (Central Daylight Time),267528.2999999523,1600,O,z,544,3,1,2160.899999976158,265367.39999997616,7132,NTS,B,10
2,10,test,1,B,triangle.png,0,m,Wed Apr 23 2025 08:07:25 GMT-0500 (Central Daylight Time),270760.0,1700,O,None,1515,2,1,3229.0,267531.0,7132,NTS,B,11
8,11,test,1,B,triangle.png,1,m,Wed Apr 23 2025 08:07:25 GMT-0500 (Central Daylight Time),272644.2999999523,1200,O,m,656,7,1,1881.7999999523163,270762.5,7132,NTS,B,12
7,12,test,1,B,triangle.png,1,z,Wed Apr 23 2025 08:07:25 GMT-0500 (Central Daylight Time),275011.6999999881,1600,O,z,750,14,1,2362.5,272649.1999999881,7132,NTS,B,13
9,13,test,1,B,triangle.png,1,z,Wed Apr 23 2025 08:07:25 GMT-0500 (Central Daylight Time),277342.59999996424,1400,O,z,911,8,1,2325.5,275017.09999996424,7132,NTS,B,14
1,14,test,1,B,triangle.png,1,z,Wed Apr 23 2025 08:07:25 GMT-0500 (Central Daylight Time),279392.7999999523,1400,O,z,617,9,1,2042.8999999761581,277349.89999997616,7132,NTS,B,15
3,15,test,1,B,triangle.png,1,z,Wed Apr 23 2025 08:07:25 GMT-0500 (Central Daylight Time),281790.39999997616,1600,O,z,770,3,1,2393.600000023842,279396.7999999523,7132,NTS,B,16
7,16,test,1,B,triangle.png,1,z,Wed Apr 23 2025 08:07:25 GMT-0500 (Central Daylight Time),284090.6999999881,1600,O,z,665,14,1,2294.199999988079,281796.5,7132,NTS,B,17
7,17,test,1,B,triangle.png,1,z,Wed Apr 23 2025 08:07:25 GMT-0500 (Central Daylight Time),286822.89999997616,2000,O,z,710,6,1,2727.199999988079,284095.6999999881,7132,NTS,B,18
9,18,test,1,B,triangle.png,1,z,Wed Apr 23 2025 08:07:25 GMT-0500 (Central Daylight Time),289405.2999999523,1900,O,z,654,16,1,2578.2999999523163,286827.0,7132,NTS,B,19
8,19,test,1,B,triangle.png,1,m,Wed Apr 23 2025 08:07:25 GMT-0500 (Central Daylight Time),291621.39999997616,1700,O,m,489,15,1,2211.199999988079,289410.1999999881,7132,NTS,B,20
1,20,test,1,B,triangle.png,1,z,Wed Apr 23 2025 08:07:25 GMT-0500 (Central Daylight Time),293685.89999997616,1400,O,z,635,9,1,2059.800000011921,291626.09999996424,7132,NTS,B,21
9,21,test,1,B,triangle.png,1,z,Wed Apr 23 2025 08:07:25 GMT-0500 (Central Daylight Time),296187.2999999523,1900,O,z,582,16,1,2498.399999976158,293688.89999997616,7132,NTS,B,22
2,22,test,1,B,triangle.png,1,m,Wed Apr 23 2025 08:07:25 GMT-0500 (Central Daylight Time),298436.59999996424,1700,O,m,533,2,1,2243.300000011921,296193.2999999523,7132,NTS,B,23
2,23,test,1,B,triangle.png,1,m,Wed Apr 23 2025 08:07:25 GMT-0500 (Central Daylight Time),300201.59999996424,1200,O,m,542,10,1,1760.5,298441.09999996424,7132,NTS,B,24
6,1,prac,1,C,circle.png,1,m,Wed Apr 23 2025 08:07:25 GMT-0500 (Central Daylight Time),339940.09999996424,2000,O,m,1115,5,1,3891.0,336049.09999996424,7132,NTS,B,1
7,2,prac,1,C,triangle.png,1,z,Wed Apr 23 2025 08:07:25 GMT-0500 (Central Daylight Time),342587.6999999881,1200,O,z,659,6,1,2641.100000023842,339946.59999996424,7132,NTS,B,2
9,3,prac,1,C,circle.png,1,m,Wed Apr 23 2025 08:07:25 GMT-0500 (Central Daylight Time),346155.89999997616,1900,O,m,888,8,1,3558.600000023842,342597.2999999523,7132,NTS,B,3
2,4,prac,1,C,triangle.png,1,m,Wed Apr 23 2025 08:07:25 GMT-0500 (Central Daylight Time),349604.5,1600,O,m,1054,2,1,3440.7000000476837,346163.7999999523,7132,NTS,B,4
4,4,prac,1,C,circle.png,0,z,Wed Apr 23 2025 08:07:25 GMT-0500 (Central Daylight Time),352902.09999996424,1000,O,None,1515,4,1,3292.899999976158,349609.1999999881,7132,NTS,B,5
3,5,prac,1,C,triangle.png,1,z,Wed Apr 23 2025 08:07:25 GMT-0500 (Central Daylight Time),356434.0,1500,O,z,1250,3,1,3525.300000011921,352908.6999999881,7132,NTS,B,6
8,5,prac,1,C,triangle.png,0,m,Wed Apr 23 2025 08:07:25 GMT-0500 (Central Daylight Time),360131.89999997616,1400,O,None,1516,7,1,3689.5,356442.39999997616,7132,NTS,B,7
1,5,prac,1,C,circle.png,0,z,Wed Apr 23 2025 08:07:25 GMT-0500 (Central Daylight Time),364130.59999996424,1700,O,None,1515,1,1,3989.699999988079,360140.89999997616,7132,NTS,B,8
7,5,prac,1,C,triangle.png,0,z,Wed Apr 23 2025 08:07:25 GMT-0500 (Central Daylight Time),367630.39999997616,1200,O,None,1516,6,1,3493.399999976158,364137.0,7132,NTS,B,9
6,6,prac,1,C,circle.png,1,m,Wed Apr 23 2025 08:07:25 GMT-0500 (Central Daylight Time),371296.59999996424,2000,O,m,867,5,1,3658.599999964237,367638.0,7132,NTS,B,10
1,7,prac,1,C,circle.png,1,z,Wed Apr 23 2025 08:07:25 GMT-0500 (Central Daylight Time),374812.2999999523,1700,O,z,1021,1,1,3507.7999999523163,371304.5,7132,NTS,B,11
3,8,prac,1,C,triangle.png,1,z,Wed Apr 23 2025 08:07:25 GMT-0500 (Central Daylight Time),377878.2999999523,1500,O,z,792,3,1,3055.699999988079,374822.59999996424,7132,NTS,B,12
3,1,test,1,C,triangle.png,1,z,Wed Apr 23 2025 08:07:25 GMT-0500 (Central Daylight Time),398537.5,1200,O,z,1365,3,1,2593.0,395944.5,7132,NTS,B,1
3,2,test,1,C,circle.png,1,z,Wed Apr 23 2025 08:07:25 GMT-0500 (Central Daylight Time),401436.2999999523,1600,O,z,1272,11,1,2890.099999964237,398546.1999999881,7132,NTS,B,2
2,3,test,1,C,circle.png,1,z,Wed Apr 23 2025 08:07:25 GMT-0500 (Central Daylight Time),404601.5,1700,O,z,1448,10,1,3159.600000023842,401441.89999997616,7132,NTS,B,3
7,4,test,1,C,circle.png,1,m,Wed Apr 23 2025 08:07:25 GMT-0500 (Central Daylight Time),408034.6999999881,2000,O,m,1405,14,1,3427.699999988079,404607.0,7132,NTS,B,4
4,5,test,1,C,triangle.png,1,m,Wed Apr 23 2025 08:07:25 GMT-0500 (Central Daylight Time),410384.1999999881,1500,O,m,816,12,1,2341.900000035763,408042.2999999523,7132,NTS,B,5
6,6,test,1,C,circle.png,1,m,Wed Apr 23 2025 08:07:25 GMT-0500 (Central Daylight Time),413249.5,1900,O,m,932,5,1,2856.2000000476837,410393.2999999523,7132,NTS,B,6
6,7,test,1,C,triangle.png,1,m,Wed Apr 23 2025 08:07:25 GMT-0500 (Central Daylight Time),415064.7999999523,1000,O,m,792,13,1,1805.3999999761581,413259.39999997616,7132,NTS,B,7
1,8,test,1,C,triangle.png,1,z,Wed Apr 23 2025 08:07:25 GMT-0500 (Central Daylight Time),417498.6999999881,1900,O,z,501,17,1,2428.199999988079,415070.5,7132,NTS,B,8
2,9,test,1,C,triangle.png,1,m,Wed Apr 23 2025 08:07:25 GMT-0500 (Central Daylight Time),420431.0,2000,O,m,903,2,1,2926.300000011921,417504.6999999881,7132,NTS,B,9
3,10,test,1,C,circle.png,1,z,Wed Apr 23 2025 08:07:25 GMT-0500 (Central Daylight Time),423163.5,1600,O,z,1115,19,1,2727.7000000476837,420435.7999999523,7132,NTS,B,10
2,11,test,1,C,circle.png,1,z,Wed Apr 23 2025 08:07:25 GMT-0500 (Central Daylight Time),425561.7999999523,1700,O,z,672,18,1,2393.899999976158,423167.89999997616,7132,NTS,B,11
8,12,test,1,C,triangle.png,1,m,Wed Apr 23 2025 08:07:25 GMT-0500 (Central Daylight Time),427812.09999996424,1600,O,m,633,23,1,2246.099999964237,425566.0,7132,NTS,B,12
1,13,test,1,C,circle.png,1,z,Wed Apr 23 2025 08:07:25 GMT-0500 (Central Daylight Time),429744.09999996424,1000,O,z,909,1,1,1927.5,427816.59999996424,7132,NTS,B,13
1,13,test,1,C,triangle.png,0,z,Wed Apr 23 2025 08:07:25 GMT-0500 (Central Daylight Time),432410.7999999523,1900,O,m,748,9,1,2663.2999999523163,429747.5,7132,NTS,B,14
9,14,test,1,C,triangle.png,1,z,Wed Apr 23 2025 08:07:25 GMT-0500 (Central Daylight Time),434740.7999999523,1400,O,z,899,16,1,2324.5,432416.2999999523,7132,NTS,B,15
6,15,test,1,C,circle.png,1,m,Wed Apr 23 2025 08:07:25 GMT-0500 (Central Daylight Time),437591.2999999523,1900,O,m,918,21,1,2845.099999964237,434746.1999999881,7132,NTS,B,16
9,16,test,1,C,circle.png,1,m,Wed Apr 23 2025 08:07:25 GMT-0500 (Central Daylight Time),439606.1999999881,1500,O,m,485,8,1,2009.4000000357628,437596.7999999523,7132,NTS,B,17
4,17,test,1,C,circle.png,1,z,Wed Apr 23 2025 08:07:25 GMT-0500 (Central Daylight Time),441905.09999996424,1400,O,z,882,4,1,2292.899999976158,439612.1999999881,7132,NTS,B,18
4,18,test,1,C,triangle.png,1,m,Wed Apr 23 2025 08:07:25 GMT-0500 (Central Daylight Time),443920.0,1500,O,m,491,20,1,2011.6000000238419,441908.39999997616,7132,NTS,B,19
7,19,test,1,C,triangle.png,1,z,Wed Apr 23 2025 08:07:25 GMT-0500 (Central Daylight Time),446605.2999999523,1700,O,z,968,6,1,2682.699999988079,443922.59999996424,7132,NTS,B,20
8,20,test,1,C,circle.png,1,m,Wed Apr 23 2025 08:07:25 GMT-0500 (Central Daylight Time),448621.09999996424,1200,O,m,786,15,1,2012.8999999761581,446608.1999999881,7132,NTS,B,21
7,21,test,1,C,triangle.png,1,z,Wed Apr 23 2025 08:07:25 GMT-0500 (Central Daylight Time),451018.09999996424,1700,O,z,671,22,1,2390.899999976158,448627.1999999881,7132,NTS,B,22
8,22,test,1,C,triangle.png,1,m,Wed Apr 23 2025 08:07:25 GMT-0500 (Central Daylight Time),453285.89999997616,1600,O,m,636,7,1,2265.0,451020.89999997616,7132,NTS,B,23
9,23,test,1,C,circle.png,1,m,Wed Apr 23 2025 08:07:25 GMT-0500 (Central Daylight Time),455603.0,1500,O,m,791,24,1,2311.7000000476837,453291.2999999523,7132,NTS,B,24
7,1,test,2,C,circle.png,1,m,Wed Apr 23 2025 08:07:25 GMT-0500 (Central Daylight Time),467632.7999999523,2000,O,m,775,14,1,2793.899999976158,464838.89999997616,7132,NTS,B,1
8,2,test,2,C,triangle.png,1,m,Wed Apr 23 2025 08:07:25 GMT-0500 (Central Daylight Time),470164.7999999523,1600,O,m,905,7,1,2527.7999999523163,467637.0,7132,NTS,B,2
3,3,test,2,C,circle.png,1,z,Wed Apr 23 2025 08:07:25 GMT-0500 (Central Daylight Time),473212.0,1600,O,z,1428,11,1,3041.900000035763,470170.09999996424,7132,NTS,B,3
3,4,test,2,C,triangle.png,1,z,Wed Apr 23 2025 08:07:25 GMT-0500 (Central Daylight Time),475495.89999997616,1200,O,z,1073,3,1,2280.899999976158,473215.0,7132,NTS,B,4
4,5,test,2,C,triangle.png,1,m,Wed Apr 23 2025 08:07:25 GMT-0500 (Central Daylight Time),477660.59999996424,1500,O,m,645,20,1,2160.699999988079,475499.89999997616,7132,NTS,B,5
9,6,test,2,C,circle.png,1,m,Wed Apr 23 2025 08:07:25 GMT-0500 (Central Daylight Time),479996.2999999523,1500,O,m,799,8,1,2330.199999988079,477666.09999996424,7132,NTS,B,6
1,7,test,2,C,circle.png,1,z,Wed Apr 23 2025 08:07:25 GMT-0500 (Central Daylight Time),481692.89999997616,1000,O,z,669,1,1,1690.800000011921,480002.09999996424,7132,NTS,B,7
8,8,test,2,C,circle.png,1,m,Wed Apr 23 2025 08:07:25 GMT-0500 (Central Daylight Time),483793.2999999523,1200,O,m,873,15,1,2095.2999999523163,481698.0,7132,NTS,B,8
2,9,test,2,C,circle.png,1,z,Wed Apr 23 2025 08:07:25 GMT-0500 (Central Daylight Time),486409.2999999523,1700,O,z,899,18,1,2612.699999988079,483796.59999996424,7132,NTS,B,9
7,10,test,2,C,circle.png,1,m,Wed Apr 23 2025 08:07:25 GMT-0500 (Central Daylight Time),489105.7999999523,2000,O,m,678,22,1,2691.399999976158,486414.39999997616,7132,NTS,B,10
4,11,test,2,C,triangle.png,1,m,Wed Apr 23 2025 08:07:25 GMT-0500 (Central Daylight Time),491240.6999999881,1500,O,m,608,12,1,2132.199999988079,489108.5,7132,NTS,B,11
6,12,test,2,C,triangle.png,1,m,Wed Apr 23 2025 08:07:25 GMT-0500 (Central Daylight Time),492939.1999999881,1000,O,m,679,21,1,1694.0,491245.1999999881,7132,NTS,B,12
9,13,test,2,C,triangle.png,1,z,Wed Apr 23 2025 08:07:25 GMT-0500 (Central Daylight Time),495073.0,1400,O,z,708,24,1,2127.7000000476837,492945.2999999523,7132,NTS,B,13
9,14,test,2,C,triangle.png,1,z,Wed Apr 23 2025 08:07:25 GMT-0500 (Central Daylight Time),497221.59999996424,1400,O,z,719,16,1,2144.5,495077.09999996424,7132,NTS,B,14
6,15,test,2,C,triangle.png,1,m,Wed Apr 23 2025 08:07:25 GMT-0500 (Central Daylight Time),499055.39999997616,1000,O,m,802,13,1,1829.0,497226.39999997616,7132,NTS,B,15
2,16,test,2,C,circle.png,1,z,Wed Apr 23 2025 08:07:25 GMT-0500 (Central Daylight Time),501619.7999999523,1700,O,z,837,10,1,2560.0,499059.7999999523,7132,NTS,B,16
2,17,test,2,C,triangle.png,1,m,Wed Apr 23 2025 08:07:25 GMT-0500 (Central Daylight Time),504534.09999996424,2000,O,m,893,2,1,2911.899999976158,501622.1999999881,7132,NTS,B,17
1,18,test,2,C,triangle.png,1,z,Wed Apr 23 2025 08:07:25 GMT-0500 (Central Daylight Time),507152.89999997616,1900,O,z,690,9,1,2616.100000023842,504536.7999999523,7132,NTS,B,18
3,19,test,2,C,circle.png,1,z,Wed Apr 23 2025 08:07:25 GMT-0500 (Central Daylight Time),509586.1999999881,1600,O,z,802,19,1,2428.0,507158.1999999881,7132,NTS,B,19
1,20,test,2,C,triangle.png,1,z,Wed Apr 23 2025 08:07:25 GMT-0500 (Central Daylight Time),512117.2999999523,1900,O,z,603,17,1,2525.099999964237,509592.1999999881,7132,NTS,B,20
6,21,test,2,C,circle.png,1,m,Wed Apr 23 2025 08:07:25 GMT-0500 (Central Daylight Time),514834.39999997616,1900,O,m,798,5,1,2709.0,512125.39999997616,7132,NTS,B,21
7,22,test,2,C,triangle.png,1,z,Wed Apr 23 2025 08:07:25 GMT-0500 (Central Daylight Time),517449.09999996424,1700,O,z,892,6,1,2611.300000011921,514837.7999999523,7132,NTS,B,22
8,23,test,2,C,circle.png,1,m,Wed Apr 23 2025 08:07:25 GMT-0500 (Central Daylight Time),519331.1999999881,1200,O,m,660,23,1,1877.6000000238419,517453.59999996424,7132,NTS,B,23
4,23,test,2,C,circle.png,0,z,Wed Apr 23 2025 08:07:25 GMT-0500 (Central Daylight Time),521429.89999997616,1400,O,m,671,4,1,2092.199999988079,519337.6999999881,7132,NTS,B,24
8,1,test,3,C,circle.png,1,m,Wed Apr 23 2025 08:07:25 GMT-0500 (Central Daylight Time),532894.2999999523,1200,O,m,912,15,1,2123.899999976158,530770.3999999762,7132,NTS,B,1
6,2,test,3,C,circle.png,1,m,Wed Apr 23 2025 08:07:25 GMT-0500 (Central Daylight Time),535409.5,1900,O,m,581,5,1,2510.600000023842,532898.8999999762,7132,NTS,B,2
9,2,test,3,C,circle.png,0,m,Wed Apr 23 2025 08:07:25 GMT-0500 (Central Daylight Time),538443.6999999881,1500,O,None,1516,24,1,3027.699999988079,535416.0,7132,NTS,B,3
8,3,test,3,C,triangle.png,1,m,Wed Apr 23 2025 08:07:25 GMT-0500 (Central Daylight Time),540808.8999999762,1600,O,m,732,7,1,2359.899999976158,538449.0,7132,NTS,B,4
4,4,test,3,C,triangle.png,1,m,Wed Apr 23 2025 08:07:25 GMT-0500 (Central Daylight Time),543008.0999999642,1500,O,m,676,12,1,2194.5,540813.5999999642,7132,NTS,B,5
8,5,test,3,C,triangle.png,1,m,Wed Apr 23 2025 08:07:25 GMT-0500 (Central Daylight Time),545207.0,1600,O,m,567,23,1,2194.900000035763,543012.0999999642,7132,NTS,B,6
4,6,test,3,C,circle.png,1,z,Wed Apr 23 2025 08:07:25 GMT-0500 (Central Daylight Time),547523.0,1400,O,z,888,20,1,2311.0,545212.0,7132,NTS,B,7
2,7,test,3,C,circle.png,1,z,Wed Apr 23 2025 08:07:25 GMT-0500 (Central Daylight Time),549737.5999999642,1700,O,z,496,10,1,2210.899999976158,547526.6999999881,7132,NTS,B,8
7,8,test,3,C,triangle.png,1,z,Wed Apr 23 2025 08:07:25 GMT-0500 (Central Daylight Time),552156.5,1700,O,z,699,6,1,2416.300000011921,549740.1999999881,7132,NTS,B,9
2,9,test,3,C,triangle.png,1,m,Wed Apr 23 2025 08:07:25 GMT-0500 (Central Daylight Time),555387.6999999881,2000,O,m,1205,18,1,3226.600000023842,552161.0999999642,7132,NTS,B,10
7,10,test,3,C,triangle.png,1,z,Wed Apr 23 2025 08:07:25 GMT-0500 (Central Daylight Time),557902.8999999762,1700,O,z,785,22,1,2511.399999976158,555391.5,7132,NTS,B,11
1,11,test,3,C,circle.png,1,z,Wed Apr 23 2025 08:07:25 GMT-0500 (Central Daylight Time),559618.7999999523,1000,O,z,698,17,1,1711.199999988079,557907.5999999642,7132,NTS,B,12
9,12,test,3,C,triangle.png,1,z,Wed Apr 23 2025 08:07:25 GMT-0500 (Central Daylight Time),561882.5999999642,1400,O,z,847,16,1,2258.099999964237,559624.5,7132,NTS,B,13
7,13,test,3,C,circle.png,1,m,Wed Apr 23 2025 08:07:25 GMT-0500 (Central Daylight Time),564952.1999999881,2000,O,m,1038,14,1,3067.0,561885.1999999881,7132,NTS,B,14
6,14,test,3,C,circle.png,1,m,Wed Apr 23 2025 08:07:25 GMT-0500 (Central Daylight Time),567599.1999999881,1900,O,m,726,21,1,2643.300000011921,564955.8999999762,7132,NTS,B,15
3,15,test,3,C,triangle.png,1,z,Wed Apr 23 2025 08:07:25 GMT-0500 (Central Daylight Time),569450.1999999881,1200,O,z,633,3,1,1847.300000011921,567602.8999999762,7132,NTS,B,16
3,16,test,3,C,triangle.png,1,z,Wed Apr 23 2025 08:07:25 GMT-0500 (Central Daylight Time),571250.1999999881,1200,O,z,575,19,1,1794.6000000238419,569455.5999999642,7132,NTS,B,17
3,17,test,3,C,circle.png,1,z,Wed Apr 23 2025 08:07:25 GMT-0500 (Central Daylight Time),573781.2999999523,1600,O,z,903,11,1,2528.2999999523163,571253.0,7132,NTS,B,18
6,18,test,3,C,triangle.png,1,m,Wed Apr 23 2025 08:07:25 GMT-0500 (Central Daylight Time),576029.7999999523,1000,O,m,1226,13,1,2242.099999964237,573787.6999999881,7132,NTS,B,19
4,19,test,3,C,circle.png,1,z,Wed Apr 23 2025 08:07:25 GMT-0500 (Central Daylight Time),578280.5,1400,O,z,816,4,1,2246.800000011921,576033.6999999881,7132,NTS,B,20
9,20,test,3,C,circle.png,1,m,Wed Apr 23 2025 08:07:25 GMT-0500 (Central Daylight Time),580895.3999999762,1500,O,m,1093,8,1,2610.300000011921,578285.0999999642,7132,NTS,B,21
1,21,test,3,C,triangle.png,1,z,Wed Apr 23 2025 08:07:25 GMT-0500 (Central Daylight Time),583363.0999999642,1900,O,z,551,9,1,2463.5,580899.5999999642,7132,NTS,B,22
2,22,test,3,C,triangle.png,1,m,Wed Apr 23 2025 08:07:25 GMT-0500 (Central Daylight Time),586477.0,2000,O,m,1086,2,1,3109.600000023842,583367.3999999762,7132,NTS,B,23
1,23,test,3,C,circle.png,1,z,Wed Apr 23 2025 08:07:25 GMT-0500 (Central Daylight Time),588158.7999999523,1000,O,z,659,1,1,1677.199999988079,586481.5999999642,7132,NTS,B,24
1,1,test,4,C,circle.png,1,z,Wed Apr 23 2025 08:07:25 GMT-0500 (Central Daylight Time),604338.5999999642,1000,O,z,875,1,1,1894.3999999761581,602444.1999999881,7132,NTS,B,1
6,2,test,4,C,circle.png,1,m,Wed Apr 23 2025 08:07:25 GMT-0500 (Central Daylight Time),607021.0999999642,1900,O,m,755,5,1,2677.800000011921,604343.2999999523,7132,NTS,B,2
4,3,test,4,C,circle.png,1,z,Wed Apr 23 2025 08:07:25 GMT-0500 (Central Daylight Time),609336.3999999762,1400,O,z,891,4,1,2310.899999976158,607025.5,7132,NTS,B,3
8,4,test,4,C,circle.png,1,m,Wed Apr 23 2025 08:07:25 GMT-0500 (Central Daylight Time),611170.1999999881,1200,O,m,615,15,1,1829.5,609340.6999999881,7132,NTS,B,4
3,5,test,4,C,triangle.png,1,z,Wed Apr 23 2025 08:07:25 GMT-0500 (Central Daylight Time),613017.7999999523,1200,O,z,622,3,1,1843.199999988079,611174.5999999642,7132,NTS,B,5
1,6,test,4,C,circle.png,1,z,Wed Apr 23 2025 08:07:25 GMT-0500 (Central Daylight Time),614986.5,1000,O,z,950,17,1,1963.7000000476837,613022.7999999523,7132,NTS,B,6
9,7,test,4,C,circle.png,1,m,Wed Apr 23 2025 08:07:25 GMT-0500 (Central Daylight Time),617317.2999999523,1500,O,m,802,8,1,2326.0,614991.2999999523,7132,NTS,B,7
6,8,test,4,C,circle.png,1,m,Wed Apr 23 2025 08:07:25 GMT-0500 (Central Daylight Time),620016.7999999523,1900,O,m,766,21,1,2694.5,617322.2999999523,7132,NTS,B,8
3,9,test,4,C,circle.png,1,z,Wed Apr 23 2025 08:07:25 GMT-0500 (Central Daylight Time),622397.3999999762,1600,O,z,760,11,1,2374.300000011921,620023.0999999642,7132,NTS,B,9
4,10,test,4,C,circle.png,1,z,Wed Apr 23 2025 08:07:25 GMT-0500 (Central Daylight Time),624697.6999999881,1400,O,z,868,20,1,2297.400000035763,622400.2999999523,7132,NTS,B,10
7,11,test,4,C,triangle.png,1,z,Wed Apr 23 2025 08:07:25 GMT-0500 (Central Daylight Time),627048.2999999523,1700,O,z,624,22,1,2343.899999976158,624704.3999999762,7132,NTS,B,11
8,12,test,4,C,triangle.png,1,m,Wed Apr 23 2025 08:07:25 GMT-0500 (Central Daylight Time),629397.5999999642,1600,O,m,720,7,1,2344.599999964237,627053.0,7132,NTS,B,12
8,13,test,4,C,triangle.png,1,m,Wed Apr 23 2025 08:07:25 GMT-0500 (Central Daylight Time),631612.7999999523,1600,O,m,580,23,1,2209.0,629403.7999999523,7132,NTS,B,13
6,14,test,4,C,triangle.png,1,m,Wed Apr 23 2025 08:07:25 GMT-0500 (Central Daylight Time),633477.3999999762,1000,O,m,835,13,1,1858.6000000238419,631618.7999999523,7132,NTS,B,14
2,15,test,4,C,triangle.png,1,m,Wed Apr 23 2025 08:07:25 GMT-0500 (Central Daylight Time),636243.2999999523,2000,O,m,747,18,1,2761.7999999523163,633481.5,7132,NTS,B,15
4,16,test,4,C,triangle.png,1,m,Wed Apr 23 2025 08:07:25 GMT-0500 (Central Daylight Time),638428.0999999642,1500,O,m,663,12,1,2180.0,636248.0999999642,7132,NTS,B,16
2,17,test,4,C,triangle.png,1,m,Wed Apr 23 2025 08:07:25 GMT-0500 (Central Daylight Time),641027.7999999523,2000,O,m,573,2,1,2594.2999999523163,638433.5,7132,NTS,B,17
9,18,test,4,C,triangle.png,1,z,Wed Apr 23 2025 08:07:25 GMT-0500 (Central Daylight Time),643193.2999999523,1400,O,z,732,16,1,2160.0,641033.2999999523,7132,NTS,B,18
2,19,test,4,C,circle.png,1,z,Wed Apr 23 2025 08:07:25 GMT-0500 (Central Daylight Time),645724.5999999642,1700,O,z,802,10,1,2526.599999964237,643198.0,7132,NTS,B,19
7,20,test,4,C,circle.png,1,m,Wed Apr 23 2025 08:07:25 GMT-0500 (Central Daylight Time),648241.3999999762,2000,O,m,490,14,1,2512.800000011921,645728.5999999642,7132,NTS,B,20
7,21,test,4,C,triangle.png,1,z,Wed Apr 23 2025 08:07:25 GMT-0500 (Central Daylight Time),650689.7999999523,1700,O,z,722,6,1,2443.0,648246.7999999523,7132,NTS,B,21
3,22,test,4,C,triangle.png,1,z,Wed Apr 23 2025 08:07:25 GMT-0500 (Central Daylight Time),652523.0999999642,1200,O,z,615,19,1,1826.8999999761581,650696.1999999881,7132,NTS,B,22
1,23,test,4,C,triangle.png,1,z,Wed Apr 23 2025 08:07:25 GMT-0500 (Central Daylight Time),655039.5,1900,O,z,592,9,1,2513.0,652526.5,7132,NTS,B,23
9,24,test,4,C,circle.png,1,m,Wed Apr 23 2025 08:07:25 GMT-0500 (Central Daylight Time),657139.3999999762,1500,O,m,583,24,1,2095.5,655043.8999999762,7132,NTS,B,24
