block_c,block_dur,condition,countdown,datetime,endtime,list,multichar_response,project,response,response_time,session_number,start_end,starttime,subject_id,task,task_vers,trial
,,,,Thu Mar 06 2025 18:36:30 GMT-0600 (Central Standard Time),,,,O,space,831,1,,,7080,WL,C,
prac,,0,,Thu Mar 06 2025 18:36:30 GMT-0600 (Central Standard Time),,NA,b,O,b,4354,1,,,7080,WL,C,1.0
prac,,0,,Thu Mar 06 2025 18:36:30 GMT-0600 (Central Standard Time),,NA,bo,O,o,476,1,,,7080,WL,C,1.0
prac,,0,,Thu Mar 06 2025 18:36:30 GMT-0600 (Central Standard Time),,NA,boo,O,o,137,1,,,7080,WL,C,1.0
prac,,0,,Thu Mar 06 2025 18:36:30 GMT-0600 (Central Standard Time),,NA,boos,O,s,100,1,,,7080,WL,C,1.0
prac,,0,,Thu Mar 06 2025 18:36:30 GMT-0600 (Central Standard Time),,NA,boost,O,t,128,1,,,7080,WL,C,1.0
prac,,0,,Thu Mar 06 2025 18:36:30 GMT-0600 (Central Standard Time),,NA,boostenter,O,enter,2299,1,,,7080,WL,C,1.0
1,2.1640000343322754,learn,57835.999965667725,Thu Mar 06 2025 18:36:30 GMT-0600 (Central Standard Time),152680.70000000298,A,q,O,q,2149,1,2163.4000000059605,150517.29999999702,7080,WL,C,1.0
1,2.430999994277954,learn,57569.000005722046,Thu Mar 06 2025 18:36:30 GMT-0600 (Central Standard Time),152947.0,A,qu,O,u,253,1,2429.7000000029802,150517.29999999702,7080,WL,C,1.0
1,3.131999969482422,learn,56868.00003051758,Thu Mar 06 2025 18:36:30 GMT-0600 (Central Standard Time),153648.29999999702,A,que,O,e,690,1,3131.0,150517.29999999702,7080,WL,C,1.0
1,3.315999984741211,learn,56684.00001525879,Thu Mar 06 2025 18:36:30 GMT-0600 (Central Standard Time),153832.8999999985,A,quee,O,e,165,1,3315.60000000149,150517.29999999702,7080,WL,C,1.0
1,3.5490000247955322,learn,56450.99997520447,Thu Mar 06 2025 18:36:30 GMT-0600 (Central Standard Time),154065.8999999985,A,queen,O,n,211,1,3548.60000000149,150517.29999999702,7080,WL,C,1.0
1,4.330999851226807,learn,55669.00014877319,Thu Mar 06 2025 18:36:30 GMT-0600 (Central Standard Time),154847.29999999702,A,queenenter,O,enter,769,1,4330.0,150517.29999999702,7080,WL,C,1.0
1,5.0980000495910645,learn,54901.999950408936,Thu Mar 06 2025 18:36:30 GMT-0600 (Central Standard Time),155614.20000000298,A,s,O,s,757,1,766.5,154847.70000000298,7080,WL,C,2.0
1,5.297999858856201,learn,54702.0001411438,Thu Mar 06 2025 18:36:30 GMT-0600 (Central Standard Time),155814.3999999985,A,su,O,u,181,1,966.6999999955297,154847.70000000298,7080,WL,C,2.0
1,5.4649999141693115,learn,54535.00008583069,Thu Mar 06 2025 18:36:30 GMT-0600 (Central Standard Time),155981.1000000015,A,sug,O,g,149,1,1133.3999999985099,154847.70000000298,7080,WL,C,2.0
1,5.7159998416900635,learn,54284.00015830994,Thu Mar 06 2025 18:36:30 GMT-0600 (Central Standard Time),156232.1000000015,A,suga,O,a,230,1,1384.3999999985099,154847.70000000298,7080,WL,C,2.0
1,5.863999843597412,learn,54136.00015640259,Thu Mar 06 2025 18:36:30 GMT-0600 (Central Standard Time),156380.6000000015,A,sugar,O,r,131,1,1532.8999999985099,154847.70000000298,7080,WL,C,2.0
1,6.497999906539917,learn,53502.00009346008,Thu Mar 06 2025 18:36:30 GMT-0600 (Central Standard Time),157014.3999999985,A,sugarenter,O,enter,615,1,2166.6999999955297,154847.70000000298,7080,WL,C,2.0
1,7.082000017166138,learn,52917.99998283386,Thu Mar 06 2025 18:36:30 GMT-0600 (Central Standard Time),157598.29999999702,A,w,O,w,562,1,583.5,157014.79999999702,7080,WL,C,3.0
1,7.2149999141693115,learn,52785.00008583069,Thu Mar 06 2025 18:36:30 GMT-0600 (Central Standard Time),157731.79999999702,A,wh,O,h,125,1,717.0,157014.79999999702,7080,WL,C,3.0
1,7.381999969482422,learn,52618.00003051758,Thu Mar 06 2025 18:36:30 GMT-0600 (Central Standard Time),157898.1000000015,A,wha,O,a,159,1,883.3000000044703,157014.79999999702,7080,WL,C,3.0
1,7.496999979019165,learn,52503.000020980835,Thu Mar 06 2025 18:36:30 GMT-0600 (Central Standard Time),158013.70000000298,A,what,O,t,107,1,998.9000000059605,157014.79999999702,7080,WL,C,3.0
1,8.23199987411499,learn,51768.00012588501,Thu Mar 06 2025 18:36:30 GMT-0600 (Central Standard Time),158748.70000000298,A,wha,O,backspace,728,1,1733.9000000059605,157014.79999999702,7080,WL,C,3.0
1,8.396999835968018,learn,51603.00016403198,Thu Mar 06 2025 18:36:30 GMT-0600 (Central Standard Time),158913.5,A,wh,O,backspace,151,1,1898.7000000029802,157014.79999999702,7080,WL,C,3.0
1,8.812999963760376,learn,51187.000036239624,Thu Mar 06 2025 18:36:30 GMT-0600 (Central Standard Time),159329.8999999985,A,whe,O,e,403,1,2315.10000000149,157014.79999999702,7080,WL,C,3.0
1,8.912999868392944,learn,51087.000131607056,Thu Mar 06 2025 18:36:30 GMT-0600 (Central Standard Time),159429.8999999985,A,whea,O,a,90,1,2415.10000000149,157014.79999999702,7080,WL,C,3.0
1,8.996999979019165,learn,51003.000020980835,Thu Mar 06 2025 18:36:30 GMT-0600 (Central Standard Time),159514.0,A,wheat,O,t,60,1,2499.2000000029802,157014.79999999702,7080,WL,C,3.0
1,9.36299991607666,learn,50637.00008392334,Thu Mar 06 2025 18:36:30 GMT-0600 (Central Standard Time),159879.6000000015,A,wheatenter,O,enter,343,1,2864.8000000044703,157014.79999999702,7080,WL,C,3.0
1,9.681999921798706,learn,50318.000078201294,Thu Mar 06 2025 18:36:30 GMT-0600 (Central Standard Time),160198.3999999985,A,t,O,t,309,1,318.3999999985099,159880.0,7080,WL,C,4.0
1,10.080999851226807,learn,49919.00014877319,Thu Mar 06 2025 18:36:30 GMT-0600 (Central Standard Time),160597.20000000298,A,to,O,o,390,1,717.2000000029802,159880.0,7080,WL,C,4.0
1,10.264999866485596,learn,49735.000133514404,Thu Mar 06 2025 18:36:30 GMT-0600 (Central Standard Time),160781.1000000015,A,tow,O,w,166,1,901.1000000014901,159880.0,7080,WL,C,4.0
1,10.38100004196167,learn,49618.99995803833,Thu Mar 06 2025 18:36:30 GMT-0600 (Central Standard Time),160897.20000000298,A,towe,O,e,103,1,1017.2000000029802,159880.0,7080,WL,C,4.0
1,10.513000011444092,learn,49486.99998855591,Thu Mar 06 2025 18:36:30 GMT-0600 (Central Standard Time),161029.70000000298,A,tower,O,r,114,1,1149.7000000029802,159880.0,7080,WL,C,4.0
1,11.26199984550476,learn,48738.00015449524,Thu Mar 06 2025 18:36:30 GMT-0600 (Central Standard Time),161778.29999999702,A,towerenter,O,enter,742,1,1898.2999999970198,159880.0,7080,WL,C,4.0
1,12.044999837875366,learn,47955.000162124634,Thu Mar 06 2025 18:36:30 GMT-0600 (Central Standard Time),162561.20000000298,A,s,O,s,771,1,782.7000000029802,161778.5,7080,WL,C,5.0
1,12.194999933242798,learn,47805.0000667572,Thu Mar 06 2025 18:36:30 GMT-0600 (Central Standard Time),162711.3999999985,A,sh,O,h,131,1,932.8999999985099,161778.5,7080,WL,C,5.0
1,12.210999965667725,learn,47789.000034332275,Thu Mar 06 2025 18:36:30 GMT-0600 (Central Standard Time),162727.3999999985,A,sho,O,o,0,1,948.8999999985099,161778.5,7080,WL,C,5.0
1,12.628000020980835,learn,47371.999979019165,Thu Mar 06 2025 18:36:30 GMT-0600 (Central Standard Time),163144.8999999985,A,shor,O,r,406,1,1366.3999999985099,161778.5,7080,WL,C,5.0
1,12.74399995803833,learn,47256.00004196167,Thu Mar 06 2025 18:36:30 GMT-0600 (Central Standard Time),163260.29999999702,A,shore,O,e,107,1,1481.7999999970198,161778.5,7080,WL,C,5.0
1,13.360999822616577,learn,46639.00017738342,Thu Mar 06 2025 18:36:30 GMT-0600 (Central Standard Time),163877.3999999985,A,shoreenter,O,enter,609,1,2098.89999999851,161778.5,7080,WL,C,5.0
1,14.077999830245972,learn,45922.00016975403,Thu Mar 06 2025 18:36:30 GMT-0600 (Central Standard Time),164594.70000000298,A,d,O,d,702,1,717.0,163877.70000000298,7080,WL,C,6.0
1,14.227999925613403,learn,45772.0000743866,Thu Mar 06 2025 18:36:30 GMT-0600 (Central Standard Time),164744.29999999702,A,do,O,o,128,1,866.5999999940395,163877.70000000298,7080,WL,C,6.0
1,14.393999814987183,learn,45606.00018501282,Thu Mar 06 2025 18:36:30 GMT-0600 (Central Standard Time),164910.8999999985,A,doc,O,c,147,1,1033.1999999955297,163877.70000000298,7080,WL,C,6.0
1,14.57699990272522,learn,45423.00009727478,Thu Mar 06 2025 18:36:30 GMT-0600 (Central Standard Time),165093.29999999702,A,doct,O,t,174,1,1215.5999999940395,163877.70000000298,7080,WL,C,6.0
1,14.726999998092651,learn,45273.00000190735,Thu Mar 06 2025 18:36:30 GMT-0600 (Central Standard Time),165243.5,A,docto,O,o,135,1,1365.7999999970198,163877.70000000298,7080,WL,C,6.0
1,14.878000020980835,learn,45121.999979019165,Thu Mar 06 2025 18:36:30 GMT-0600 (Central Standard Time),165394.1000000015,A,doctor,O,r,130,1,1516.3999999985099,163877.70000000298,7080,WL,C,6.0
1,15.293999910354614,learn,44706.000089645386,Thu Mar 06 2025 18:36:30 GMT-0600 (Central Standard Time),165810.5,A,doctorenter,O,enter,396,1,1932.7999999970198,163877.70000000298,7080,WL,C,6.0
1,15.744999885559082,learn,44255.00011444092,Thu Mar 06 2025 18:36:30 GMT-0600 (Central Standard Time),166261.3999999985,A,b,O,b,436,1,450.69999999552965,165810.70000000298,7080,WL,C,7.0
1,15.878000020980835,learn,44121.999979019165,Thu Mar 06 2025 18:36:30 GMT-0600 (Central Standard Time),166394.8999999985,A,bo,O,o,126,1,584.1999999955297,165810.70000000298,7080,WL,C,7.0
1,16.060999870300293,learn,43939.00012969971,Thu Mar 06 2025 18:36:30 GMT-0600 (Central Standard Time),166577.20000000298,A,boy,O,y,170,1,766.5,165810.70000000298,7080,WL,C,7.0
1,16.645999908447266,learn,43354.000091552734,Thu Mar 06 2025 18:36:30 GMT-0600 (Central Standard Time),167162.70000000298,A,boyenter,O,enter,578,1,1352.0,165810.70000000298,7080,WL,C,7.0
1,16.895999908447266,learn,43104.000091552734,Thu Mar 06 2025 18:36:30 GMT-0600 (Central Standard Time),167412.20000000298,A,c,O,c,244,1,249.20000000298023,167163.0,7080,WL,C,8.0
1,17.078999996185303,learn,42921.0000038147,Thu Mar 06 2025 18:36:30 GMT-0600 (Central Standard Time),167595.5,A,ca,O,a,176,1,432.5,167163.0,7080,WL,C,8.0
1,17.211999893188477,learn,42788.00010681152,Thu Mar 06 2025 18:36:30 GMT-0600 (Central Standard Time),167728.3999999985,A,cam,O,m,120,1,565.3999999985099,167163.0,7080,WL,C,8.0
1,17.360999822616577,learn,42639.00017738342,Thu Mar 06 2025 18:36:30 GMT-0600 (Central Standard Time),167877.70000000298,A,camp,O,p,140,1,714.7000000029802,167163.0,7080,WL,C,8.0
1,17.927000045776367,learn,42072.99995422363,Thu Mar 06 2025 18:36:30 GMT-0600 (Central Standard Time),168443.70000000298,A,campenter,O,enter,558,1,1280.7000000029802,167163.0,7080,WL,C,8.0
1,20.95799994468689,learn,39042.00005531311,Thu Mar 06 2025 18:36:30 GMT-0600 (Central Standard Time),171474.79999999702,A,c,O,c,3025,1,3030.7999999970198,168444.0,7080,WL,C,9.0
1,21.125,learn,38875.0,Thu Mar 06 2025 18:36:30 GMT-0600 (Central Standard Time),171641.5,A,ca,O,a,154,1,3197.5,168444.0,7080,WL,C,9.0
1,21.241999864578247,learn,38758.00013542175,Thu Mar 06 2025 18:36:30 GMT-0600 (Central Standard Time),171758.29999999702,A,cat,O,t,99,1,3314.2999999970198,168444.0,7080,WL,C,9.0
1,21.45799994468689,learn,38542.00005531311,Thu Mar 06 2025 18:36:30 GMT-0600 (Central Standard Time),171974.6000000015,A,catt,O,t,197,1,3530.60000000149,168444.0,7080,WL,C,9.0
1,21.72499990463257,learn,38275.00009536743,Thu Mar 06 2025 18:36:30 GMT-0600 (Central Standard Time),172241.5,A,cattl,O,l,246,1,3797.5,168444.0,7080,WL,C,9.0
1,21.876999855041504,learn,38123.000144958496,Thu Mar 06 2025 18:36:30 GMT-0600 (Central Standard Time),172393.5,A,cattle,O,e,132,1,3949.5,168444.0,7080,WL,C,9.0
1,23.51099991798401,learn,36489.00008201599,Thu Mar 06 2025 18:36:30 GMT-0600 (Central Standard Time),174027.70000000298,A,cattleenter,O,enter,1623,1,5583.70000000298,168444.0,7080,WL,C,9.0
1,43.401000022888184,learn,16598.999977111816,Thu Mar 06 2025 18:36:30 GMT-0600 (Central Standard Time),193918.20000000298,A,l,O,l,19882,1,19890.20000000298,174028.0,7080,WL,C,10.0
1,43.55299997329712,learn,16447.00002670288,Thu Mar 06 2025 18:36:30 GMT-0600 (Central Standard Time),194069.3999999985,A,le,O,e,133,1,20041.39999999851,174028.0,7080,WL,C,10.0
1,43.687000036239624,learn,16312.999963760376,Thu Mar 06 2025 18:36:30 GMT-0600 (Central Standard Time),194203.6000000015,A,let,O,t,119,1,20175.60000000149,174028.0,7080,WL,C,10.0
1,43.919999837875366,learn,16080.000162124634,Thu Mar 06 2025 18:36:30 GMT-0600 (Central Standard Time),194436.79999999702,A,lett,O,t,214,1,20408.79999999702,174028.0,7080,WL,C,10.0
1,44.169999837875366,learn,15830.000162124634,Thu Mar 06 2025 18:36:30 GMT-0600 (Central Standard Time),194686.6000000015,A,lette,O,e,236,1,20658.60000000149,174028.0,7080,WL,C,10.0
1,44.36999988555908,learn,15630.000114440918,Thu Mar 06 2025 18:36:30 GMT-0600 (Central Standard Time),194886.6000000015,A,letter,O,r,180,1,20858.60000000149,174028.0,7080,WL,C,10.0
1,45.80200004577637,learn,14197.999954223633,Thu Mar 06 2025 18:36:30 GMT-0600 (Central Standard Time),196318.29999999702,A,letterenter,O,enter,1411,1,22290.29999999702,174028.0,7080,WL,C,10.0
1,55.6489999294281,learn,4351.000070571899,Thu Mar 06 2025 18:36:30 GMT-0600 (Central Standard Time),206165.5,A,enter,O,enter,9840,1,9846.89999999851,196318.6000000015,7080,WL,C,11.0
1,56.29900002479553,learn,3700.999975204468,Thu Mar 06 2025 18:36:30 GMT-0600 (Central Standard Time),206815.5,A,enter,O,enter,640,1,649.7000000029802,206165.79999999702,7080,WL,C,12.0
1,56.73099994659424,learn,3269.0000534057617,Thu Mar 06 2025 18:36:30 GMT-0600 (Central Standard Time),207247.3999999985,A,enter,O,enter,413,1,431.6000000014901,206815.79999999702,7080,WL,C,13.0
1,57.16499996185303,learn,2835.0000381469727,Thu Mar 06 2025 18:36:30 GMT-0600 (Central Standard Time),207681.8999999985,A,enter,O,enter,422,1,434.19999999552965,207247.70000000298,7080,WL,C,14.0
1,57.81499981880188,learn,2185.00018119812,Thu Mar 06 2025 18:36:30 GMT-0600 (Central Standard Time),208331.70000000298,A,enter,O,enter,635,1,649.5,207682.20000000298,7080,WL,C,15.0
2,0.8480000495910645,learn,59151.999950408936,Thu Mar 06 2025 18:36:30 GMT-0600 (Central Standard Time),276793.0,A,s,O,s,829,1,848.3999999985099,275944.6000000015,7080,WL,C,1.0
2,1.0139999389648438,learn,58986.000061035156,Thu Mar 06 2025 18:36:30 GMT-0600 (Central Standard Time),276959.1000000015,A,sh,O,h,147,1,1014.5,275944.6000000015,7080,WL,C,1.0
2,1.13100004196167,learn,58868.99995803833,Thu Mar 06 2025 18:36:30 GMT-0600 (Central Standard Time),277075.299999997,A,sho,O,o,109,1,1130.6999999955297,275944.6000000015,7080,WL,C,1.0
2,1.2979998588562012,learn,58702.0001411438,Thu Mar 06 2025 18:36:30 GMT-0600 (Central Standard Time),277243.299999997,A,shor,O,r,152,1,1298.6999999955297,275944.6000000015,7080,WL,C,1.0
2,1.3459999561309814,learn,58654.00004386902,Thu Mar 06 2025 18:36:30 GMT-0600 (Central Standard Time),277290.6000000015,A,shore,O,e,25,1,1346.0,275944.6000000015,7080,WL,C,1.0
2,1.562999963760376,learn,58437.000036239624,Thu Mar 06 2025 18:36:30 GMT-0600 (Central Standard Time),277508.200000003,A,shoreenter,O,enter,213,1,1563.6000000014901,275944.6000000015,7080,WL,C,1.0
2,1.8819999694824219,learn,58118.00003051758,Thu Mar 06 2025 18:36:30 GMT-0600 (Central Standard Time),277827.299999997,A,b,O,b,314,1,318.79999999701977,277508.5,7080,WL,C,2.0
2,2.0139999389648438,learn,57986.000061035156,Thu Mar 06 2025 18:36:30 GMT-0600 (Central Standard Time),277958.700000003,A,bo,O,o,121,1,450.20000000298023,277508.5,7080,WL,C,2.0
2,2.246999979019165,learn,57753.000020980835,Thu Mar 06 2025 18:36:30 GMT-0600 (Central Standard Time),278192.200000003,A,bod,O,d,223,1,683.7000000029802,277508.5,7080,WL,C,2.0
2,2.3469998836517334,learn,57653.00011634827,Thu Mar 06 2025 18:36:30 GMT-0600 (Central Standard Time),278291.799999997,A,body,O,y,84,1,783.2999999970198,277508.5,7080,WL,C,2.0
2,2.6649999618530273,learn,57335.00003814697,Thu Mar 06 2025 18:36:30 GMT-0600 (Central Standard Time),278609.5,A,bodyenter,O,enter,295,1,1101.0,277508.5,7080,WL,C,2.0
2,3.313999891281128,learn,56686.00010871887,Thu Mar 06 2025 18:36:30 GMT-0600 (Central Standard Time),279259.0,A,h,O,h,636,1,649.2000000029802,278609.799999997,7080,WL,C,3.0
2,3.3970000743865967,learn,56602.9999256134,Thu Mar 06 2025 18:36:30 GMT-0600 (Central Standard Time),279341.3999999985,A,ho,O,o,72,1,731.6000000014901,278609.799999997,7080,WL,C,3.0
2,3.5969998836517334,learn,56403.00011634827,Thu Mar 06 2025 18:36:30 GMT-0600 (Central Standard Time),279541.700000003,A,hom,O,m,182,1,931.9000000059605,278609.799999997,7080,WL,C,3.0
2,3.796999931335449,learn,56203.00006866455,Thu Mar 06 2025 18:36:30 GMT-0600 (Central Standard Time),279741.700000003,A,home,O,e,178,1,1131.9000000059605,278609.799999997,7080,WL,C,3.0
2,4.147000074386597,learn,55852.9999256134,Thu Mar 06 2025 18:36:30 GMT-0600 (Central Standard Time),280091.3999999985,A,homeenter,O,enter,343,1,1481.6000000014901,278609.799999997,7080,WL,C,3.0
2,4.480999946594238,learn,55519.00005340576,Thu Mar 06 2025 18:36:30 GMT-0600 (Central Standard Time),280425.700000003,A,b,O,b,322,1,334.0,280091.700000003,7080,WL,C,4.0
2,4.61299991607666,learn,55387.00008392334,Thu Mar 06 2025 18:36:30 GMT-0600 (Central Standard Time),280558.299999997,A,bo,O,o,124,1,466.59999999403954,280091.700000003,7080,WL,C,4.0
2,4.796999931335449,learn,55203.00006866455,Thu Mar 06 2025 18:36:30 GMT-0600 (Central Standard Time),280742.1000000015,A,boy,O,y,163,1,650.3999999985099,280091.700000003,7080,WL,C,4.0
2,5.796999931335449,learn,54203.00006866455,Thu Mar 06 2025 18:36:30 GMT-0600 (Central Standard Time),281742.1000000015,A,boyenter,O,enter,981,1,1650.3999999985099,280091.700000003,7080,WL,C,4.0
2,6.297999858856201,learn,53702.0001411438,Thu Mar 06 2025 18:36:30 GMT-0600 (Central Standard Time),282242.8999999985,A,d,O,d,478,1,500.6000000014901,281742.299999997,7080,WL,C,5.0
2,6.430000066757202,learn,53569.9999332428,Thu Mar 06 2025 18:36:30 GMT-0600 (Central Standard Time),282374.6000000015,A,do,O,o,112,1,632.3000000044703,281742.299999997,7080,WL,C,5.0
2,6.5309998989105225,learn,53469.00010108948,Thu Mar 06 2025 18:36:30 GMT-0600 (Central Standard Time),282476.0,A,doc,O,c,94,1,733.7000000029802,281742.299999997,7080,WL,C,5.0
2,6.746000051498413,learn,53253.99994850159,Thu Mar 06 2025 18:36:30 GMT-0600 (Central Standard Time),282691.200000003,A,doct,O,t,201,1,948.9000000059605,281742.299999997,7080,WL,C,5.0
2,6.947000026702881,learn,53052.99997329712,Thu Mar 06 2025 18:36:30 GMT-0600 (Central Standard Time),282891.5,A,docto,O,o,185,1,1149.2000000029802,281742.299999997,7080,WL,C,5.0
2,7.111999988555908,learn,52888.00001144409,Thu Mar 06 2025 18:36:30 GMT-0600 (Central Standard Time),283057.200000003,A,doctor,O,r,152,1,1314.9000000059605,281742.299999997,7080,WL,C,5.0
2,7.795000076293945,learn,52204.999923706055,Thu Mar 06 2025 18:36:30 GMT-0600 (Central Standard Time),283740.200000003,A,doctorenter,O,enter,678,1,1997.9000000059605,281742.299999997,7080,WL,C,5.0
2,9.328999996185303,learn,50671.0000038147,Thu Mar 06 2025 18:36:30 GMT-0600 (Central Standard Time),285273.799999997,A,q,O,q,1522,1,1533.3999999985099,283740.3999999985,7080,WL,C,6.0
2,9.49399995803833,learn,50506.00004196167,Thu Mar 06 2025 18:36:30 GMT-0600 (Central Standard Time),285439.0,A,qu,O,u,155,1,1698.6000000014901,283740.3999999985,7080,WL,C,6.0
2,9.67799997329712,learn,50322.00002670288,Thu Mar 06 2025 18:36:30 GMT-0600 (Central Standard Time),285623.200000003,A,que,O,e,173,1,1882.8000000044703,283740.3999999985,7080,WL,C,6.0
2,9.843999862670898,learn,50156.0001373291,Thu Mar 06 2025 18:36:30 GMT-0600 (Central Standard Time),285789.0,A,quee,O,e,148,1,2048.60000000149,283740.3999999985,7080,WL,C,6.0
2,9.980000019073486,learn,50019.999980926514,Thu Mar 06 2025 18:36:30 GMT-0600 (Central Standard Time),285924.5,A,queen,O,n,130,1,2184.10000000149,283740.3999999985,7080,WL,C,6.0
2,10.560999870300293,learn,49439.00012969971,Thu Mar 06 2025 18:36:30 GMT-0600 (Central Standard Time),286506.299999997,A,queenenter,O,enter,561,1,2765.89999999851,283740.3999999985,7080,WL,C,6.0
2,10.94599986076355,learn,49054.00013923645,Thu Mar 06 2025 18:36:30 GMT-0600 (Central Standard Time),286890.799999997,A,s,O,s,362,1,384.29999999701977,286506.5,7080,WL,C,7.0
2,11.07800006866455,learn,48921.99993133545,Thu Mar 06 2025 18:36:30 GMT-0600 (Central Standard Time),287022.799999997,A,su,O,u,122,1,516.2999999970198,286506.5,7080,WL,C,7.0
2,11.227999925613403,learn,48772.0000743866,Thu Mar 06 2025 18:36:30 GMT-0600 (Central Standard Time),287173.1000000015,A,sur,O,r,133,1,666.6000000014901,286506.5,7080,WL,C,7.0
2,11.477999925613403,learn,48522.0000743866,Thu Mar 06 2025 18:36:30 GMT-0600 (Central Standard Time),287423.200000003,A,sura,O,a,232,1,916.7000000029802,286506.5,7080,WL,C,7.0
2,11.59500002861023,learn,48404.99997138977,Thu Mar 06 2025 18:36:30 GMT-0600 (Central Standard Time),287540.1000000015,A,surae,O,e,94,1,1033.6000000014901,286506.5,7080,WL,C,7.0
2,12.013000011444092,learn,47986.99998855591,Thu Mar 06 2025 18:36:30 GMT-0600 (Central Standard Time),287957.6000000015,A,sura,O,backspace,410,1,1451.1000000014901,286506.5,7080,WL,C,7.0
2,12.162999868392944,learn,47837.000131607056,Thu Mar 06 2025 18:36:30 GMT-0600 (Central Standard Time),288107.6000000015,A,sur,O,backspace,143,1,1601.1000000014901,286506.5,7080,WL,C,7.0
2,12.310999870300293,learn,47689.00012969971,Thu Mar 06 2025 18:36:30 GMT-0600 (Central Standard Time),288255.3999999985,A,su,O,backspace,136,1,1748.8999999985099,286506.5,7080,WL,C,7.0
2,13.07800006866455,learn,46921.99993133545,Thu Mar 06 2025 18:36:30 GMT-0600 (Central Standard Time),289022.299999997,A,sug,O,g,748,1,2515.7999999970198,286506.5,7080,WL,C,7.0
2,13.244999885559082,learn,46755.00011444092,Thu Mar 06 2025 18:36:30 GMT-0600 (Central Standard Time),289189.700000003,A,suga,O,a,149,1,2683.2000000029802,286506.5,7080,WL,C,7.0
2,13.325999975204468,learn,46674.00002479553,Thu Mar 06 2025 18:36:30 GMT-0600 (Central Standard Time),289270.700000003,A,sugar,O,r,70,1,2764.2000000029802,286506.5,7080,WL,C,7.0
2,13.593999862670898,learn,46406.0001373291,Thu Mar 06 2025 18:36:30 GMT-0600 (Central Standard Time),289538.799999997,A,sugarenter,O,enter,253,1,3032.2999999970198,286506.5,7080,WL,C,7.0
2,13.91100001335144,learn,46088.99998664856,Thu Mar 06 2025 18:36:30 GMT-0600 (Central Standard Time),289855.799999997,A,w,O,w,306,1,316.69999999552965,289539.1000000015,7080,WL,C,8.0
2,14.01199984550476,learn,45988.00015449524,Thu Mar 06 2025 18:36:30 GMT-0600 (Central Standard Time),289956.5,A,wh,O,h,93,1,417.3999999985099,289539.1000000015,7080,WL,C,8.0
2,14.144999980926514,learn,45855.000019073486,Thu Mar 06 2025 18:36:30 GMT-0600 (Central Standard Time),290089.700000003,A,whe,O,e,119,1,550.6000000014901,289539.1000000015,7080,WL,C,8.0
2,14.29699993133545,learn,45703.00006866455,Thu Mar 06 2025 18:36:30 GMT-0600 (Central Standard Time),290241.3999999985,A,whea,O,a,128,1,702.2999999970198,289539.1000000015,7080,WL,C,8.0
2,14.361000061035156,learn,45638.999938964844,Thu Mar 06 2025 18:36:30 GMT-0600 (Central Standard Time),290305.299999997,A,wheat,O,t,49,1,766.1999999955297,289539.1000000015,7080,WL,C,8.0
2,14.793999910354614,learn,45206.000089645386,Thu Mar 06 2025 18:36:30 GMT-0600 (Central Standard Time),290739.0,A,wheatenter,O,enter,427,1,1199.8999999985099,289539.1000000015,7080,WL,C,8.0
2,15.111000061035156,learn,44888.999938964844,Thu Mar 06 2025 18:36:30 GMT-0600 (Central Standard Time),291055.6000000015,A,t,O,t,297,1,316.20000000298023,290739.3999999985,7080,WL,C,9.0
2,15.260999917984009,learn,44739.00008201599,Thu Mar 06 2025 18:36:30 GMT-0600 (Central Standard Time),291205.700000003,A,to,O,o,141,1,466.30000000447035,290739.3999999985,7080,WL,C,9.0
2,15.40999984741211,learn,44590.00015258789,Thu Mar 06 2025 18:36:30 GMT-0600 (Central Standard Time),291354.799999997,A,tow,O,w,133,1,615.3999999985099,290739.3999999985,7080,WL,C,9.0
2,15.710999965667725,learn,44289.000034332275,Thu Mar 06 2025 18:36:30 GMT-0600 (Central Standard Time),291655.5,A,towe,O,e,283,1,916.1000000014901,290739.3999999985,7080,WL,C,9.0
2,15.757999897003174,learn,44242.000102996826,Thu Mar 06 2025 18:36:30 GMT-0600 (Central Standard Time),291702.799999997,A,tower,O,r,33,1,963.3999999985099,290739.3999999985,7080,WL,C,9.0
2,16.55999994277954,learn,43440.00005722046,Thu Mar 06 2025 18:36:30 GMT-0600 (Central Standard Time),292504.799999997,A,towerenter,O,enter,790,1,1765.3999999985099,290739.3999999985,7080,WL,C,9.0
2,21.54099988937378,learn,38459.00011062622,Thu Mar 06 2025 18:36:30 GMT-0600 (Central Standard Time),297485.799999997,A,b,O,b,4964,1,4980.69999999553,292505.1000000015,7080,WL,C,10.0
2,21.625999927520752,learn,38374.00007247925,Thu Mar 06 2025 18:36:30 GMT-0600 (Central Standard Time),297570.5,A,bo,O,o,80,1,5065.39999999851,292505.1000000015,7080,WL,C,10.0
2,21.907999992370605,learn,38092.000007629395,Thu Mar 06 2025 18:36:30 GMT-0600 (Central Standard Time),297853.0,A,bod,O,d,275,1,5347.89999999851,292505.1000000015,7080,WL,C,10.0
2,22.057999849319458,learn,37942.00015068054,Thu Mar 06 2025 18:36:30 GMT-0600 (Central Standard Time),298002.8999999985,A,body,O,y,142,1,5497.79999999702,292505.1000000015,7080,WL,C,10.0
2,22.35699987411499,learn,37643.00012588501,Thu Mar 06 2025 18:36:30 GMT-0600 (Central Standard Time),298302.200000003,A,bodyenter,O,enter,285,1,5797.10000000149,292505.1000000015,7080,WL,C,10.0
2,24.124000072479248,learn,35875.99992752075,Thu Mar 06 2025 18:36:30 GMT-0600 (Central Standard Time),300069.0,A,l,O,l,1760,1,1766.6000000014901,298302.3999999985,7080,WL,C,11.0
2,24.240999937057495,learn,35759.000062942505,Thu Mar 06 2025 18:36:30 GMT-0600 (Central Standard Time),300185.700000003,A,le,O,e,93,1,1883.3000000044703,298302.3999999985,7080,WL,C,11.0
2,24.342000007629395,learn,35657.999992370605,Thu Mar 06 2025 18:36:30 GMT-0600 (Central Standard Time),300287.200000003,A,let,O,t,82,1,1984.8000000044703,298302.3999999985,7080,WL,C,11.0
2,24.54099988937378,learn,35459.00011062622,Thu Mar 06 2025 18:36:30 GMT-0600 (Central Standard Time),300485.5,A,lett,O,t,188,1,2183.10000000149,298302.3999999985,7080,WL,C,11.0
2,24.674000024795532,learn,35325.99997520447,Thu Mar 06 2025 18:36:30 GMT-0600 (Central Standard Time),300619.3999999985,A,lette,O,e,111,1,2317.0,298302.3999999985,7080,WL,C,11.0
2,24.79099988937378,learn,35209.00011062622,Thu Mar 06 2025 18:36:30 GMT-0600 (Central Standard Time),300735.6000000015,A,letter,O,r,103,1,2433.2000000029802,298302.3999999985,7080,WL,C,11.0
2,25.223999977111816,learn,34776.00002288818,Thu Mar 06 2025 18:36:30 GMT-0600 (Central Standard Time),301168.5,A,letterenter,O,enter,410,1,2866.10000000149,298302.3999999985,7080,WL,C,11.0
2,26.473000049591064,learn,33526.999950408936,Thu Mar 06 2025 18:36:30 GMT-0600 (Central Standard Time),302418.299999997,A,c,O,c,1237,1,1249.5999999940395,301168.700000003,7080,WL,C,12.0
2,26.58999991416931,learn,33410.00008583069,Thu Mar 06 2025 18:36:30 GMT-0600 (Central Standard Time),302534.700000003,A,co,O,o,106,1,1366.0,301168.700000003,7080,WL,C,12.0
2,26.723999977111816,learn,33276.00002288818,Thu Mar 06 2025 18:36:30 GMT-0600 (Central Standard Time),302668.5,A,cor,O,r,115,1,1499.7999999970198,301168.700000003,7080,WL,C,12.0
2,26.842000007629395,learn,33157.999992370605,Thu Mar 06 2025 18:36:30 GMT-0600 (Central Standard Time),302787.1000000015,A,corn,O,n,112,1,1618.3999999985099,301168.700000003,7080,WL,C,12.0
2,27.124000072479248,learn,32875.99992752075,Thu Mar 06 2025 18:36:30 GMT-0600 (Central Standard Time),303068.5,A,cornenter,O,enter,274,1,1899.7999999970198,301168.700000003,7080,WL,C,12.0
2,37.51900005340576,learn,22480.99994659424,Thu Mar 06 2025 18:36:30 GMT-0600 (Central Standard Time),313464.200000003,A,enter,O,enter,10376,1,10395.40000000596,303068.799999997,7080,WL,C,13.0
2,37.86899995803833,learn,22131.00004196167,Thu Mar 06 2025 18:36:30 GMT-0600 (Central Standard Time),313814.3999999985,A,enter,O,enter,341,1,350.0,313464.3999999985,7080,WL,C,14.0
2,38.486000061035156,learn,21513.999938964844,Thu Mar 06 2025 18:36:30 GMT-0600 (Central Standard Time),314431.299999997,A,enter,O,enter,606,1,616.6999999955297,313814.6000000015,7080,WL,C,15.0
3,0.6519999504089355,learn,59348.000049591064,Thu Mar 06 2025 18:36:30 GMT-0600 (Central Standard Time),388573.6000000015,A,c,O,c,630,1,651.1000000014901,387922.5,7080,WL,C,1.0
3,0.8009998798370361,learn,59199.000120162964,Thu Mar 06 2025 18:36:30 GMT-0600 (Central Standard Time),388723.0,A,ca,O,a,134,1,800.5,387922.5,7080,WL,C,1.0
3,0.8849999904632568,learn,59115.00000953674,Thu Mar 06 2025 18:36:30 GMT-0600 (Central Standard Time),388807.200000003,A,cam,O,m,63,1,884.7000000029802,387922.5,7080,WL,C,1.0
3,1.069000005722046,learn,58930.999994277954,Thu Mar 06 2025 18:36:30 GMT-0600 (Central Standard Time),388991.3999999985,A,camp,O,p,173,1,1068.8999999985099,387922.5,7080,WL,C,1.0
3,1.8339998722076416,learn,58166.00012779236,Thu Mar 06 2025 18:36:30 GMT-0600 (Central Standard Time),389756.1000000015,A,campenter,O,enter,756,1,1833.6000000014901,387922.5,7080,WL,C,1.0
3,2.184999942779541,learn,57815.00005722046,Thu Mar 06 2025 18:36:30 GMT-0600 (Central Standard Time),390106.799999997,A,s,O,s,337,1,350.3999999985099,389756.3999999985,7080,WL,C,2.0
3,2.300999879837036,learn,57699.000120162964,Thu Mar 06 2025 18:36:30 GMT-0600 (Central Standard Time),390223.299999997,A,sh,O,h,104,1,466.8999999985099,389756.3999999985,7080,WL,C,2.0
3,2.4179999828338623,learn,57582.00001716614,Thu Mar 06 2025 18:36:30 GMT-0600 (Central Standard Time),390339.799999997,A,sho,O,o,111,1,583.3999999985099,389756.3999999985,7080,WL,C,2.0
3,2.552999973297119,learn,57447.00002670288,Thu Mar 06 2025 18:36:30 GMT-0600 (Central Standard Time),390474.8999999985,A,shor,O,r,126,1,718.5,389756.3999999985,7080,WL,C,2.0
3,2.6510000228881836,learn,57348.99997711182,Thu Mar 06 2025 18:36:30 GMT-0600 (Central Standard Time),390572.8999999985,A,shore,O,e,80,1,816.5,389756.3999999985,7080,WL,C,2.0
3,2.984999895095825,learn,57015.000104904175,Thu Mar 06 2025 18:36:30 GMT-0600 (Central Standard Time),390906.799999997,A,shoreenter,O,enter,320,1,1150.3999999985099,389756.3999999985,7080,WL,C,2.0
3,3.366999864578247,learn,56633.00013542175,Thu Mar 06 2025 18:36:30 GMT-0600 (Central Standard Time),391289.3999999985,A,b,O,b,362,1,382.3999999985099,390907.0,7080,WL,C,3.0
3,3.4679999351501465,learn,56532.00006484985,Thu Mar 06 2025 18:36:30 GMT-0600 (Central Standard Time),391389.799999997,A,bo,O,o,85,1,482.79999999701977,390907.0,7080,WL,C,3.0
3,3.6510000228881836,learn,56348.99997711182,Thu Mar 06 2025 18:36:30 GMT-0600 (Central Standard Time),391573.3999999985,A,bod,O,d,168,1,666.3999999985099,390907.0,7080,WL,C,3.0
3,3.802000045776367,learn,56197.99995422363,Thu Mar 06 2025 18:36:30 GMT-0600 (Central Standard Time),391723.8999999985,A,body,O,y,128,1,816.8999999985099,390907.0,7080,WL,C,3.0
3,4.083999872207642,learn,55916.00012779236,Thu Mar 06 2025 18:36:30 GMT-0600 (Central Standard Time),392006.1000000015,A,bodyenter,O,enter,263,1,1099.1000000014901,390907.0,7080,WL,C,3.0
3,5.333999872207642,learn,54666.00012779236,Thu Mar 06 2025 18:36:30 GMT-0600 (Central Standard Time),393256.3999999985,A,q,O,q,1231,1,1250.0,392006.3999999985,7080,WL,C,4.0
3,5.500999927520752,learn,54499.00007247925,Thu Mar 06 2025 18:36:30 GMT-0600 (Central Standard Time),393423.299999997,A,qu,O,u,146,1,1416.8999999985099,392006.3999999985,7080,WL,C,4.0
3,5.6499998569488525,learn,54350.00014305115,Thu Mar 06 2025 18:36:30 GMT-0600 (Central Standard Time),393571.799999997,A,que,O,e,138,1,1565.3999999985099,392006.3999999985,7080,WL,C,4.0
3,5.833999872207642,learn,54166.00012779236,Thu Mar 06 2025 18:36:30 GMT-0600 (Central Standard Time),393756.1000000015,A,quee,O,e,167,1,1749.7000000029802,392006.3999999985,7080,WL,C,4.0
3,5.950999975204468,learn,54049.00002479553,Thu Mar 06 2025 18:36:30 GMT-0600 (Central Standard Time),393873.200000003,A,queen,O,n,95,1,1866.8000000044703,392006.3999999985,7080,WL,C,4.0
3,6.299999952316284,learn,53700.000047683716,Thu Mar 06 2025 18:36:30 GMT-0600 (Central Standard Time),394222.0,A,queenenter,O,enter,332,1,2215.60000000149,392006.3999999985,7080,WL,C,4.0
3,6.5,learn,53500.0,Thu Mar 06 2025 18:36:30 GMT-0600 (Central Standard Time),394422.3999999985,A,s,O,s,183,1,200.19999999552965,394222.200000003,7080,WL,C,5.0
3,6.648999929428101,learn,53351.0000705719,Thu Mar 06 2025 18:36:30 GMT-0600 (Central Standard Time),394571.5,A,su,O,u,138,1,349.29999999701977,394222.200000003,7080,WL,C,5.0
3,7.034999847412109,learn,52965.00015258789,Thu Mar 06 2025 18:36:30 GMT-0600 (Central Standard Time),394957.0,A,sug,O,g,375,1,734.7999999970198,394222.200000003,7080,WL,C,5.0
3,7.25,learn,52750.0,Thu Mar 06 2025 18:36:30 GMT-0600 (Central Standard Time),395172.299999997,A,suga,O,a,198,1,950.0999999940395,394222.200000003,7080,WL,C,5.0
3,7.299000024795532,learn,52700.99997520447,Thu Mar 06 2025 18:36:30 GMT-0600 (Central Standard Time),395220.700000003,A,sugar,O,r,39,1,998.5,394222.200000003,7080,WL,C,5.0
3,7.700000047683716,learn,52299.999952316284,Thu Mar 06 2025 18:36:30 GMT-0600 (Central Standard Time),395622.200000003,A,sugarenter,O,enter,383,1,1400.0,394222.200000003,7080,WL,C,5.0
3,8.08299994468689,learn,51917.00005531311,Thu Mar 06 2025 18:36:30 GMT-0600 (Central Standard Time),396004.8999999985,A,w,O,w,363,1,382.5,395622.3999999985,7080,WL,C,6.0
3,8.266000032424927,learn,51733.99996757507,Thu Mar 06 2025 18:36:30 GMT-0600 (Central Standard Time),396188.299999997,A,wh,O,h,175,1,565.8999999985099,395622.3999999985,7080,WL,C,6.0
3,8.499000072479248,learn,51500.99992752075,Thu Mar 06 2025 18:36:30 GMT-0600 (Central Standard Time),396420.8999999985,A,whe,O,e,226,1,798.5,395622.3999999985,7080,WL,C,6.0
3,8.6489999294281,learn,51351.0000705719,Thu Mar 06 2025 18:36:30 GMT-0600 (Central Standard Time),396571.1000000015,A,whea,O,a,134,1,948.7000000029802,395622.3999999985,7080,WL,C,6.0
3,8.747999906539917,learn,51252.00009346008,Thu Mar 06 2025 18:36:30 GMT-0600 (Central Standard Time),396669.799999997,A,wheat,O,t,88,1,1047.3999999985099,395622.3999999985,7080,WL,C,6.0
3,9.547999858856201,learn,50452.0001411438,Thu Mar 06 2025 18:36:30 GMT-0600 (Central Standard Time),397470.1000000015,A,wheatenter,O,enter,791,1,1847.7000000029802,395622.3999999985,7080,WL,C,6.0
3,10.8989999294281,learn,49101.0000705719,Thu Mar 06 2025 18:36:30 GMT-0600 (Central Standard Time),398820.700000003,A,c,O,c,1337,1,1350.4000000059605,397470.299999997,7080,WL,C,7.0
3,11.049000024795532,learn,48950.99997520447,Thu Mar 06 2025 18:36:30 GMT-0600 (Central Standard Time),398971.5,A,ca,O,a,136,1,1501.2000000029802,397470.299999997,7080,WL,C,7.0
3,11.16599988937378,learn,48834.00011062622,Thu Mar 06 2025 18:36:30 GMT-0600 (Central Standard Time),399088.0,A,cat,O,t,104,1,1617.7000000029802,397470.299999997,7080,WL,C,7.0
3,11.363999843597412,learn,48636.00015640259,Thu Mar 06 2025 18:36:30 GMT-0600 (Central Standard Time),399286.3999999985,A,catt,O,t,188,1,1816.1000000014901,397470.299999997,7080,WL,C,7.0
3,11.480999946594238,learn,48519.00005340576,Thu Mar 06 2025 18:36:30 GMT-0600 (Central Standard Time),399403.3999999985,A,cattl,O,l,101,1,1933.1000000014901,397470.299999997,7080,WL,C,7.0
3,11.648000001907349,learn,48351.99999809265,Thu Mar 06 2025 18:36:30 GMT-0600 (Central Standard Time),399570.6000000015,A,cattle,O,e,153,1,2100.3000000044703,397470.299999997,7080,WL,C,7.0
3,12.082000017166138,learn,47917.99998283386,Thu Mar 06 2025 18:36:30 GMT-0600 (Central Standard Time),400004.3999999985,A,cattleenter,O,enter,425,1,2534.10000000149,397470.299999997,7080,WL,C,7.0
3,12.615999937057495,learn,47384.000062942505,Thu Mar 06 2025 18:36:30 GMT-0600 (Central Standard Time),400537.700000003,A,h,O,h,520,1,533.1000000014901,400004.6000000015,7080,WL,C,8.0
3,12.69700002670288,learn,47302.99997329712,Thu Mar 06 2025 18:36:30 GMT-0600 (Central Standard Time),400619.299999997,A,ho,O,o,75,1,614.6999999955297,400004.6000000015,7080,WL,C,8.0
3,12.948999881744385,learn,47051.000118255615,Thu Mar 06 2025 18:36:30 GMT-0600 (Central Standard Time),400870.700000003,A,hom,O,m,240,1,866.1000000014901,400004.6000000015,7080,WL,C,8.0
3,13.080999851226807,learn,46919.00014877319,Thu Mar 06 2025 18:36:30 GMT-0600 (Central Standard Time),401003.299999997,A,home,O,e,116,1,998.6999999955297,400004.6000000015,7080,WL,C,8.0
3,13.365000009536743,learn,46634.99999046326,Thu Mar 06 2025 18:36:30 GMT-0600 (Central Standard Time),401286.799999997,A,homeenter,O,enter,273,1,1282.1999999955297,400004.6000000015,7080,WL,C,8.0
3,13.763999938964844,learn,46236.000061035156,Thu Mar 06 2025 18:36:30 GMT-0600 (Central Standard Time),401686.3999999985,A,b,O,b,382,1,399.29999999701977,401287.1000000015,7080,WL,C,9.0
3,13.914000034332275,learn,46085.999965667725,Thu Mar 06 2025 18:36:30 GMT-0600 (Central Standard Time),401836.1000000015,A,bo,O,o,132,1,549.0,401287.1000000015,7080,WL,C,9.0
3,14.480999946594238,learn,45519.00005340576,Thu Mar 06 2025 18:36:30 GMT-0600 (Central Standard Time),402403.200000003,A,boy,O,y,551,1,1116.1000000014901,401287.1000000015,7080,WL,C,9.0
3,16.02900004386902,learn,43970.99995613098,Thu Mar 06 2025 18:36:30 GMT-0600 (Central Standard Time),403951.299999997,A,boyenter,O,enter,1536,1,2664.1999999955297,401287.1000000015,7080,WL,C,9.0
3,16.346999883651733,learn,43653.00011634827,Thu Mar 06 2025 18:36:30 GMT-0600 (Central Standard Time),404269.0,A,d,O,d,302,1,317.3999999985099,403951.6000000015,7080,WL,C,10.0
3,16.48099994659424,learn,43519.00005340576,Thu Mar 06 2025 18:36:30 GMT-0600 (Central Standard Time),404403.5,A,do,O,o,111,1,451.8999999985099,403951.6000000015,7080,WL,C,10.0
3,16.611999988555908,learn,43388.00001144409,Thu Mar 06 2025 18:36:30 GMT-0600 (Central Standard Time),404534.200000003,A,doc,O,c,122,1,582.6000000014901,403951.6000000015,7080,WL,C,10.0
3,16.813999891281128,learn,43186.00010871887,Thu Mar 06 2025 18:36:30 GMT-0600 (Central Standard Time),404735.700000003,A,doct,O,t,182,1,784.1000000014901,403951.6000000015,7080,WL,C,10.0
3,16.944999933242798,learn,43055.0000667572,Thu Mar 06 2025 18:36:30 GMT-0600 (Central Standard Time),404867.5,A,docto,O,o,115,1,915.8999999985099,403951.6000000015,7080,WL,C,10.0
3,17.42899990081787,learn,42571.00009918213,Thu Mar 06 2025 18:36:30 GMT-0600 (Central Standard Time),405351.3999999985,A,doctor,O,r,471,1,1399.7999999970198,403951.6000000015,7080,WL,C,10.0
3,17.79699993133545,learn,42203.00006866455,Thu Mar 06 2025 18:36:30 GMT-0600 (Central Standard Time),405719.0,A,doctorenter,O,enter,348,1,1767.3999999985099,403951.6000000015,7080,WL,C,10.0
3,18.098000049591064,learn,41901.999950408936,Thu Mar 06 2025 18:36:30 GMT-0600 (Central Standard Time),406019.8999999985,A,n,O,n,295,1,300.79999999701977,405719.1000000015,7080,WL,C,11.0
3,18.27900004386902,learn,41720.99995613098,Thu Mar 06 2025 18:36:30 GMT-0600 (Central Standard Time),406200.799999997,A,na,O,a,168,1,481.69999999552965,405719.1000000015,7080,WL,C,11.0
3,18.412999868392944,learn,41587.000131607056,Thu Mar 06 2025 18:36:30 GMT-0600 (Central Standard Time),406334.8999999985,A,nai,O,i,122,1,615.7999999970198,405719.1000000015,7080,WL,C,11.0
3,18.52900004386902,learn,41470.99995613098,Thu Mar 06 2025 18:36:30 GMT-0600 (Central Standard Time),406451.5,A,nail,O,l,102,1,732.3999999985099,405719.1000000015,7080,WL,C,11.0
3,19.11299991607666,learn,40887.00008392334,Thu Mar 06 2025 18:36:30 GMT-0600 (Central Standard Time),407035.0,A,nailenter,O,enter,566,1,1315.8999999985099,405719.1000000015,7080,WL,C,11.0
3,20.29699993133545,learn,39703.00006866455,Thu Mar 06 2025 18:36:30 GMT-0600 (Central Standard Time),408219.200000003,A,c,O,c,1178,1,1183.9000000059605,407035.299999997,7080,WL,C,12.0
3,20.42899990081787,learn,39571.00009918213,Thu Mar 06 2025 18:36:30 GMT-0600 (Central Standard Time),408351.6000000015,A,ca,O,a,110,1,1316.3000000044703,407035.299999997,7080,WL,C,12.0
3,20.560999870300293,learn,39439.00012969971,Thu Mar 06 2025 18:36:30 GMT-0600 (Central Standard Time),408483.299999997,A,cat,O,t,116,1,1448.0,407035.299999997,7080,WL,C,12.0
3,20.77900004386902,learn,39220.99995613098,Thu Mar 06 2025 18:36:30 GMT-0600 (Central Standard Time),408701.299999997,A,catt,O,t,199,1,1666.0,407035.299999997,7080,WL,C,12.0
3,20.895999908447266,learn,39104.000091552734,Thu Mar 06 2025 18:36:30 GMT-0600 (Central Standard Time),408818.299999997,A,cattl,O,l,95,1,1783.0,407035.299999997,7080,WL,C,12.0
3,21.02900004386902,learn,38970.99995613098,Thu Mar 06 2025 18:36:30 GMT-0600 (Central Standard Time),408951.700000003,A,cattle,O,e,123,1,1916.4000000059605,407035.299999997,7080,WL,C,12.0
3,21.211999893188477,learn,38788.00010681152,Thu Mar 06 2025 18:36:30 GMT-0600 (Central Standard Time),409133.8999999985,A,cattleenter,O,enter,170,1,2098.60000000149,407035.299999997,7080,WL,C,12.0
3,21.477999925613403,learn,38522.0000743866,Thu Mar 06 2025 18:36:30 GMT-0600 (Central Standard Time),409400.3999999985,A,l,O,l,248,1,266.19999999552965,409134.200000003,7080,WL,C,13.0
3,21.57800006866455,learn,38421.99993133545,Thu Mar 06 2025 18:36:30 GMT-0600 (Central Standard Time),409500.0,A,le,O,e,75,1,365.79999999701977,409134.200000003,7080,WL,C,13.0
3,21.67799997329712,learn,38322.00002670288,Thu Mar 06 2025 18:36:30 GMT-0600 (Central Standard Time),409600.200000003,A,let,O,t,78,1,466.0,409134.200000003,7080,WL,C,13.0
3,21.8439998626709,learn,38156.0001373291,Thu Mar 06 2025 18:36:30 GMT-0600 (Central Standard Time),409766.200000003,A,lett,O,t,156,1,632.0,409134.200000003,7080,WL,C,13.0
3,21.960999965667725,learn,38039.000034332275,Thu Mar 06 2025 18:36:30 GMT-0600 (Central Standard Time),409883.3999999985,A,lette,O,e,101,1,749.1999999955297,409134.200000003,7080,WL,C,13.0
3,22.09500002861023,learn,37904.99997138977,Thu Mar 06 2025 18:36:30 GMT-0600 (Central Standard Time),410016.700000003,A,letter,O,r,119,1,882.5,409134.200000003,7080,WL,C,13.0
3,22.293999910354614,learn,37706.000089645386,Thu Mar 06 2025 18:36:30 GMT-0600 (Central Standard Time),410215.8999999985,A,letterenter,O,enter,187,1,1081.6999999955297,409134.200000003,7080,WL,C,13.0
3,25.677000045776367,learn,34322.99995422363,Thu Mar 06 2025 18:36:30 GMT-0600 (Central Standard Time),413599.200000003,A,c,O,c,3374,1,3383.10000000149,410216.1000000015,7080,WL,C,14.0
3,25.812000036239624,learn,34187.999963760376,Thu Mar 06 2025 18:36:30 GMT-0600 (Central Standard Time),413733.8999999985,A,ca,O,a,129,1,3517.7999999970198,410216.1000000015,7080,WL,C,14.0
3,25.876999855041504,learn,34123.000144958496,Thu Mar 06 2025 18:36:30 GMT-0600 (Central Standard Time),413799.3999999985,A,cam,O,m,44,1,3583.2999999970198,410216.1000000015,7080,WL,C,14.0
3,26.026999950408936,learn,33973.000049591064,Thu Mar 06 2025 18:36:30 GMT-0600 (Central Standard Time),413949.5,A,camp,O,p,130,1,3733.39999999851,410216.1000000015,7080,WL,C,14.0
3,28.491999864578247,learn,31508.000135421753,Thu Mar 06 2025 18:36:30 GMT-0600 (Central Standard Time),416414.5,A,campenter,O,enter,2444,1,6198.39999999851,410216.1000000015,7080,WL,C,14.0
3,34.33999991416931,learn,25660.00008583069,Thu Mar 06 2025 18:36:30 GMT-0600 (Central Standard Time),422262.200000003,A,n,O,n,5839,1,5847.5,416414.700000003,7080,WL,C,15.0
3,34.52499985694885,learn,25475.000143051147,Thu Mar 06 2025 18:36:30 GMT-0600 (Central Standard Time),422447.0,A,na,O,a,167,1,6032.29999999702,416414.700000003,7080,WL,C,15.0
3,34.62599992752075,learn,25374.000072479248,Thu Mar 06 2025 18:36:30 GMT-0600 (Central Standard Time),422548.299999997,A,nai,O,i,96,1,6133.5999999940395,416414.700000003,7080,WL,C,15.0
3,34.740999937057495,learn,25259.000062942505,Thu Mar 06 2025 18:36:30 GMT-0600 (Central Standard Time),422663.799999997,A,nail,O,l,91,1,6249.0999999940395,416414.700000003,7080,WL,C,15.0
3,35.04200005531311,learn,24957.99994468689,Thu Mar 06 2025 18:36:30 GMT-0600 (Central Standard Time),422963.799999997,A,nailenter,O,enter,281,1,6549.0999999940395,416414.700000003,7080,WL,C,15.0
4,1.1170001029968262,learn,58882.999897003174,Thu Mar 06 2025 18:36:30 GMT-0600 (Central Standard Time),492374.8999999985,A,q,O,q,1106,1,1116.5,491258.3999999985,7080,WL,C,1.0
4,1.2980000972747803,learn,58701.99990272522,Thu Mar 06 2025 18:36:30 GMT-0600 (Central Standard Time),492556.799999997,A,qu,O,u,167,1,1298.3999999985099,491258.3999999985,7080,WL,C,1.0
4,1.4500000476837158,learn,58549.999952316284,Thu Mar 06 2025 18:36:30 GMT-0600 (Central Standard Time),492708.200000003,A,que,O,e,136,1,1449.8000000044703,491258.3999999985,7080,WL,C,1.0
4,1.6480000019073486,learn,58351.99999809265,Thu Mar 06 2025 18:36:30 GMT-0600 (Central Standard Time),492906.700000003,A,quee,O,e,184,1,1648.3000000044703,491258.3999999985,7080,WL,C,1.0
4,1.749000072479248,learn,58250.99992752075,Thu Mar 06 2025 18:36:30 GMT-0600 (Central Standard Time),493007.299999997,A,queen,O,n,80,1,1748.8999999985099,491258.3999999985,7080,WL,C,1.0
4,2.181999921798706,learn,57818.000078201294,Thu Mar 06 2025 18:36:30 GMT-0600 (Central Standard Time),493439.8999999985,A,queenenter,O,enter,412,1,2181.5,491258.3999999985,7080,WL,C,1.0
4,2.515000104904175,learn,57484.999895095825,Thu Mar 06 2025 18:36:30 GMT-0600 (Central Standard Time),493773.799999997,A,s,O,s,316,1,333.59999999403954,493440.200000003,7080,WL,C,2.0
4,2.697000026702881,learn,57302.99997329712,Thu Mar 06 2025 18:36:30 GMT-0600 (Central Standard Time),493955.799999997,A,su,O,u,164,1,515.5999999940395,493440.200000003,7080,WL,C,2.0
4,2.931999921798706,learn,57068.000078201294,Thu Mar 06 2025 18:36:30 GMT-0600 (Central Standard Time),494190.3999999985,A,sur,O,r,223,1,750.1999999955297,493440.200000003,7080,WL,C,2.0
4,3.315000057220459,learn,56684.99994277954,Thu Mar 06 2025 18:36:30 GMT-0600 (Central Standard Time),494573.5,A,su,O,backspace,361,1,1133.2999999970198,493440.200000003,7080,WL,C,2.0
4,3.3989999294281006,learn,56601.0000705719,Thu Mar 06 2025 18:36:30 GMT-0600 (Central Standard Time),494657.0,A,sug,O,g,62,1,1216.7999999970198,493440.200000003,7080,WL,C,2.0
4,3.5490000247955322,learn,56450.99997520447,Thu Mar 06 2025 18:36:30 GMT-0600 (Central Standard Time),494807.3999999985,A,suga,O,a,131,1,1367.1999999955297,493440.200000003,7080,WL,C,2.0
4,3.615000009536743,learn,56384.99999046326,Thu Mar 06 2025 18:36:30 GMT-0600 (Central Standard Time),494873.200000003,A,sugar,O,r,51,1,1433.0,493440.200000003,7080,WL,C,2.0
4,3.813999891281128,learn,56186.00010871887,Thu Mar 06 2025 18:36:30 GMT-0600 (Central Standard Time),495072.6000000015,A,sugarenter,O,enter,186,1,1632.3999999985099,493440.200000003,7080,WL,C,2.0
4,4.216000080108643,learn,55783.99991989136,Thu Mar 06 2025 18:36:30 GMT-0600 (Central Standard Time),495474.799999997,A,w,O,w,397,1,401.79999999701977,495073.0,7080,WL,C,3.0
4,4.397000074386597,learn,55602.9999256134,Thu Mar 06 2025 18:36:30 GMT-0600 (Central Standard Time),495655.0,A,wh,O,h,161,1,582.0,495073.0,7080,WL,C,3.0
4,4.5309998989105225,learn,55469.00010108948,Thu Mar 06 2025 18:36:30 GMT-0600 (Central Standard Time),495789.5,A,whe,O,e,124,1,716.5,495073.0,7080,WL,C,3.0
4,4.66700005531311,learn,55332.99994468689,Thu Mar 06 2025 18:36:30 GMT-0600 (Central Standard Time),495925.299999997,A,whea,O,a,130,1,852.2999999970198,495073.0,7080,WL,C,3.0
4,4.7809998989105225,learn,55219.00010108948,Thu Mar 06 2025 18:36:30 GMT-0600 (Central Standard Time),496040.1000000015,A,wheat,O,t,92,1,967.1000000014901,495073.0,7080,WL,C,3.0
4,5.430000066757202,learn,54569.9999332428,Thu Mar 06 2025 18:36:30 GMT-0600 (Central Standard Time),496688.799999997,A,wheatenter,O,enter,626,1,1615.7999999970198,495073.0,7080,WL,C,3.0
4,6.430999994277954,learn,53569.000005722046,Thu Mar 06 2025 18:36:30 GMT-0600 (Central Standard Time),497689.6000000015,A,t,O,t,988,1,1000.6000000014901,496689.0,7080,WL,C,4.0
4,6.5980000495910645,learn,53401.999950408936,Thu Mar 06 2025 18:36:30 GMT-0600 (Central Standard Time),497856.0,A,to,O,o,146,1,1167.0,496689.0,7080,WL,C,4.0
4,6.746999979019165,learn,53253.000020980835,Thu Mar 06 2025 18:36:30 GMT-0600 (Central Standard Time),498005.200000003,A,tow,O,w,131,1,1316.2000000029802,496689.0,7080,WL,C,4.0
4,6.898999929428101,learn,53101.0000705719,Thu Mar 06 2025 18:36:30 GMT-0600 (Central Standard Time),498157.200000003,A,towe,O,e,133,1,1468.2000000029802,496689.0,7080,WL,C,4.0
4,6.944999933242798,learn,53055.0000667572,Thu Mar 06 2025 18:36:30 GMT-0600 (Central Standard Time),498203.5,A,tower,O,r,32,1,1514.5,496689.0,7080,WL,C,4.0
4,7.246000051498413,learn,52753.99994850159,Thu Mar 06 2025 18:36:30 GMT-0600 (Central Standard Time),498504.5,A,towerenter,O,enter,282,1,1815.5,496689.0,7080,WL,C,4.0
4,8.282000064849854,learn,51717.99993515015,Thu Mar 06 2025 18:36:30 GMT-0600 (Central Standard Time),499540.1000000015,A,h,O,h,1031,1,1035.3000000044703,498504.799999997,7080,WL,C,5.0
4,8.34500002861023,learn,51654.99997138977,Thu Mar 06 2025 18:36:30 GMT-0600 (Central Standard Time),499603.0,A,ho,O,o,54,1,1098.2000000029802,498504.799999997,7080,WL,C,5.0
4,8.52999997138977,learn,51470.00002861023,Thu Mar 06 2025 18:36:30 GMT-0600 (Central Standard Time),499787.8999999985,A,hom,O,m,171,1,1283.1000000014901,498504.799999997,7080,WL,C,5.0
4,8.69700002670288,learn,51302.99997329712,Thu Mar 06 2025 18:36:30 GMT-0600 (Central Standard Time),499955.0,A,home,O,e,152,1,1450.2000000029802,498504.799999997,7080,WL,C,5.0
4,8.864000082015991,learn,51135.99991798401,Thu Mar 06 2025 18:36:30 GMT-0600 (Central Standard Time),500122.3999999985,A,homeenter,O,enter,162,1,1617.6000000014901,498504.799999997,7080,WL,C,5.0
4,9.178999900817871,learn,50821.00009918213,Thu Mar 06 2025 18:36:30 GMT-0600 (Central Standard Time),500437.8999999985,A,n,O,n,299,1,315.19999999552965,500122.700000003,7080,WL,C,6.0
4,9.246000051498413,learn,50753.99994850159,Thu Mar 06 2025 18:36:30 GMT-0600 (Central Standard Time),500504.6000000015,A,no,O,o,53,1,381.8999999985099,500122.700000003,7080,WL,C,6.0
4,9.71399998664856,learn,50286.00001335144,Thu Mar 06 2025 18:36:30 GMT-0600 (Central Standard Time),500972.299999997,A,n,O,backspace,445,1,849.5999999940395,500122.700000003,7080,WL,C,6.0
4,9.845999956130981,learn,50154.00004386902,Thu Mar 06 2025 18:36:30 GMT-0600 (Central Standard Time),501104.3999999985,A,,O,backspace,119,1,981.6999999955297,500122.700000003,7080,WL,C,6.0
4,10.461999893188477,learn,49538.00010681152,Thu Mar 06 2025 18:36:30 GMT-0600 (Central Standard Time),501720.700000003,A,b,O,b,604,1,1598.0,500122.700000003,7080,WL,C,6.0
4,10.746000051498413,learn,49253.99994850159,Thu Mar 06 2025 18:36:30 GMT-0600 (Central Standard Time),502004.299999997,A,bo,O,o,277,1,1881.5999999940395,500122.700000003,7080,WL,C,6.0
4,10.961999893188477,learn,49038.00010681152,Thu Mar 06 2025 18:36:30 GMT-0600 (Central Standard Time),502220.799999997,A,boy,O,y,198,1,2098.0999999940395,500122.700000003,7080,WL,C,6.0
4,11.27999997138977,learn,48720.00002861023,Thu Mar 06 2025 18:36:30 GMT-0600 (Central Standard Time),502537.8999999985,A,boyd,O,d,302,1,2415.1999999955297,500122.700000003,7080,WL,C,6.0
4,11.898000001907349,learn,48101.99999809265,Thu Mar 06 2025 18:36:30 GMT-0600 (Central Standard Time),503156.1000000015,A,boy,O,backspace,612,1,3033.39999999851,500122.700000003,7080,WL,C,6.0
4,12.41100001335144,learn,47588.99998664856,Thu Mar 06 2025 18:36:30 GMT-0600 (Central Standard Time),503669.8999999985,A,boyenter,O,enter,494,1,3547.1999999955297,500122.700000003,7080,WL,C,6.0
4,12.494999885559082,learn,47505.00011444092,Thu Mar 06 2025 18:36:30 GMT-0600 (Central Standard Time),503753.799999997,A,enter,O,enter,79,1,83.69999999552965,503670.1000000015,7080,WL,C,7.0
4,16.378999948501587,learn,43621.00005149841,Thu Mar 06 2025 18:36:30 GMT-0600 (Central Standard Time),507637.1000000015,A,d,O,d,3878,1,3883.0,503754.1000000015,7080,WL,C,8.0
4,16.842999935150146,learn,43157.00006484985,Thu Mar 06 2025 18:36:30 GMT-0600 (Central Standard Time),508101.299999997,A,do,O,o,445,1,4347.19999999553,503754.1000000015,7080,WL,C,8.0
4,17.009999990463257,learn,42990.00000953674,Thu Mar 06 2025 18:36:30 GMT-0600 (Central Standard Time),508268.8999999985,A,doc,O,c,157,1,4514.79999999702,503754.1000000015,7080,WL,C,8.0
4,17.227999925613403,learn,42772.0000743866,Thu Mar 06 2025 18:36:30 GMT-0600 (Central Standard Time),508486.200000003,A,doct,O,t,199,1,4732.10000000149,503754.1000000015,7080,WL,C,8.0
4,17.41100001335144,learn,42588.99998664856,Thu Mar 06 2025 18:36:30 GMT-0600 (Central Standard Time),508669.1000000015,A,docto,O,o,174,1,4915.0,503754.1000000015,7080,WL,C,8.0
4,17.608999967575073,learn,42391.00003242493,Thu Mar 06 2025 18:36:30 GMT-0600 (Central Standard Time),508867.8999999985,A,doctor,O,r,189,1,5113.79999999702,503754.1000000015,7080,WL,C,8.0
4,18.32699990272522,learn,41673.00009727478,Thu Mar 06 2025 18:36:30 GMT-0600 (Central Standard Time),509585.799999997,A,doctorenter,O,enter,705,1,5831.69999999553,503754.1000000015,7080,WL,C,8.0
4,20.375999927520752,learn,39624.00007247925,Thu Mar 06 2025 18:36:30 GMT-0600 (Central Standard Time),511634.200000003,A,n,O,n,2035,1,2048.2000000029802,509586.0,7080,WL,C,9.0
4,20.675999879837036,learn,39324.000120162964,Thu Mar 06 2025 18:36:30 GMT-0600 (Central Standard Time),511934.3999999985,A,na,O,a,290,1,2348.39999999851,509586.0,7080,WL,C,9.0
4,20.793999910354614,learn,39206.000089645386,Thu Mar 06 2025 18:36:30 GMT-0600 (Central Standard Time),512052.0,A,nai,O,i,103,1,2466.0,509586.0,7080,WL,C,9.0
4,20.960999965667725,learn,39039.000034332275,Thu Mar 06 2025 18:36:30 GMT-0600 (Central Standard Time),512219.6000000015,A,nail,O,l,161,1,2633.60000000149,509586.0,7080,WL,C,9.0
4,21.259000062942505,learn,38740.999937057495,Thu Mar 06 2025 18:36:30 GMT-0600 (Central Standard Time),512517.3999999985,A,nailenter,O,enter,279,1,2931.39999999851,509586.0,7080,WL,C,9.0
4,21.693000078201294,learn,38306.999921798706,Thu Mar 06 2025 18:36:30 GMT-0600 (Central Standard Time),512951.700000003,A,c,O,c,414,1,434.0,512517.700000003,7080,WL,C,10.0
4,21.85800004005432,learn,38141.99995994568,Thu Mar 06 2025 18:36:30 GMT-0600 (Central Standard Time),513116.799999997,A,ca,O,a,147,1,599.0999999940395,512517.700000003,7080,WL,C,10.0
4,21.941999912261963,learn,38058.00008773804,Thu Mar 06 2025 18:36:30 GMT-0600 (Central Standard Time),513200.6000000015,A,cam,O,m,72,1,682.8999999985099,512517.700000003,7080,WL,C,10.0
4,22.141000032424927,learn,37858.99996757507,Thu Mar 06 2025 18:36:30 GMT-0600 (Central Standard Time),513399.1000000015,A,camp,O,p,178,1,881.3999999985099,512517.700000003,7080,WL,C,10.0
4,22.823999881744385,learn,37176.000118255615,Thu Mar 06 2025 18:36:30 GMT-0600 (Central Standard Time),514082.700000003,A,campenter,O,enter,670,1,1565.0,512517.700000003,7080,WL,C,10.0
4,23.292999982833862,learn,36707.00001716614,Thu Mar 06 2025 18:36:30 GMT-0600 (Central Standard Time),514551.200000003,A,f,O,f,452,1,468.30000000447035,514082.8999999985,7080,WL,C,11.0
4,23.424999952316284,learn,36575.000047683716,Thu Mar 06 2025 18:36:30 GMT-0600 (Central Standard Time),514683.8999999985,A,fl,O,l,118,1,601.0,514082.8999999985,7080,WL,C,11.0
4,23.558000087738037,learn,36441.99991226196,Thu Mar 06 2025 18:36:30 GMT-0600 (Central Standard Time),514816.799999997,A,fla,O,a,120,1,733.8999999985099,514082.8999999985,7080,WL,C,11.0
4,23.658999919891357,learn,36341.00008010864,Thu Mar 06 2025 18:36:30 GMT-0600 (Central Standard Time),514917.0,A,flat,O,t,95,1,834.1000000014901,514082.8999999985,7080,WL,C,11.0
4,24.276000022888184,learn,35723.99997711182,Thu Mar 06 2025 18:36:30 GMT-0600 (Central Standard Time),515534.200000003,A,fla,O,backspace,607,1,1451.3000000044703,514082.8999999985,7080,WL,C,11.0
4,24.45900011062622,learn,35540.99988937378,Thu Mar 06 2025 18:36:30 GMT-0600 (Central Standard Time),515717.299999997,A,flag,O,g,166,1,1634.3999999985099,514082.8999999985,7080,WL,C,11.0
4,24.70900011062622,learn,35290.99988937378,Thu Mar 06 2025 18:36:30 GMT-0600 (Central Standard Time),515967.0,A,flagenter,O,enter,238,1,1884.1000000014901,514082.8999999985,7080,WL,C,11.0
4,25.091000080108643,learn,34908.99991989136,Thu Mar 06 2025 18:36:30 GMT-0600 (Central Standard Time),516349.200000003,A,l,O,l,366,1,381.90000000596046,515967.299999997,7080,WL,C,12.0
4,25.223999977111816,learn,34776.00002288818,Thu Mar 06 2025 18:36:30 GMT-0600 (Central Standard Time),516482.799999997,A,le,O,e,117,1,515.5,515967.299999997,7080,WL,C,12.0
4,25.323999881744385,learn,34676.000118255615,Thu Mar 06 2025 18:36:30 GMT-0600 (Central Standard Time),516582.3999999985,A,let,O,t,81,1,615.1000000014901,515967.299999997,7080,WL,C,12.0
4,25.5239999294281,learn,34476.0000705719,Thu Mar 06 2025 18:36:30 GMT-0600 (Central Standard Time),516782.700000003,A,lett,O,t,188,1,815.4000000059605,515967.299999997,7080,WL,C,12.0
4,25.657999992370605,learn,34342.000007629395,Thu Mar 06 2025 18:36:30 GMT-0600 (Central Standard Time),516916.200000003,A,lette,O,e,111,1,948.9000000059605,515967.299999997,7080,WL,C,12.0
4,25.740999937057495,learn,34259.000062942505,Thu Mar 06 2025 18:36:30 GMT-0600 (Central Standard Time),516999.700000003,A,letter,O,r,63,1,1032.4000000059605,515967.299999997,7080,WL,C,12.0
4,26.122999906539917,learn,33877.00009346008,Thu Mar 06 2025 18:36:30 GMT-0600 (Central Standard Time),517381.3999999985,A,letterenter,O,enter,364,1,1414.1000000014901,515967.299999997,7080,WL,C,12.0
4,26.391000032424927,learn,33608.99996757507,Thu Mar 06 2025 18:36:30 GMT-0600 (Central Standard Time),517649.6000000015,A,c,O,c,256,1,267.8999999985099,517381.700000003,7080,WL,C,13.0
4,26.558000087738037,learn,33441.99991226196,Thu Mar 06 2025 18:36:30 GMT-0600 (Central Standard Time),517816.799999997,A,ca,O,a,154,1,435.09999999403954,517381.700000003,7080,WL,C,13.0
4,26.69099998474121,learn,33309.00001525879,Thu Mar 06 2025 18:36:30 GMT-0600 (Central Standard Time),517949.1000000015,A,cat,O,t,115,1,567.3999999985099,517381.700000003,7080,WL,C,13.0
4,26.875,learn,33125.0,Thu Mar 06 2025 18:36:30 GMT-0600 (Central Standard Time),518132.8999999985,A,catl,O,l,178,1,751.1999999955297,517381.700000003,7080,WL,C,13.0
4,27.0239999294281,learn,32976.0000705719,Thu Mar 06 2025 18:36:30 GMT-0600 (Central Standard Time),518282.5,A,catll,O,l,134,1,900.7999999970198,517381.700000003,7080,WL,C,13.0
4,27.177000045776367,learn,32822.99995422363,Thu Mar 06 2025 18:36:30 GMT-0600 (Central Standard Time),518435.200000003,A,catlle,O,e,130,1,1053.5,517381.700000003,7080,WL,C,13.0
4,27.789999961853027,learn,32210.000038146973,Thu Mar 06 2025 18:36:30 GMT-0600 (Central Standard Time),519048.5,A,catll,O,backspace,591,1,1666.7999999970198,517381.700000003,7080,WL,C,13.0
4,27.92300009727478,learn,32076.99990272522,Thu Mar 06 2025 18:36:30 GMT-0600 (Central Standard Time),519181.6000000015,A,catl,O,backspace,122,1,1799.8999999985099,517381.700000003,7080,WL,C,13.0
4,28.058000087738037,learn,31941.999912261963,Thu Mar 06 2025 18:36:30 GMT-0600 (Central Standard Time),519316.799999997,A,cat,O,backspace,129,1,1935.0999999940395,517381.700000003,7080,WL,C,13.0
4,28.22499990463257,learn,31775.00009536743,Thu Mar 06 2025 18:36:30 GMT-0600 (Central Standard Time),519483.700000003,A,catt,O,t,159,1,2102.0,517381.700000003,7080,WL,C,13.0
4,29.52300000190735,learn,30476.99999809265,Thu Mar 06 2025 18:36:30 GMT-0600 (Central Standard Time),520781.6000000015,A,cattl,O,l,1289,1,3399.89999999851,517381.700000003,7080,WL,C,13.0
4,29.67300009727478,learn,30326.99990272522,Thu Mar 06 2025 18:36:30 GMT-0600 (Central Standard Time),520931.3999999985,A,cattle,O,e,133,1,3549.6999999955297,517381.700000003,7080,WL,C,13.0
4,30.424000024795532,learn,29575.999975204468,Thu Mar 06 2025 18:36:30 GMT-0600 (Central Standard Time),521682.6000000015,A,cattleenter,O,enter,730,1,4300.89999999851,517381.700000003,7080,WL,C,13.0
4,31.973000049591064,learn,28026.999950408936,Thu Mar 06 2025 18:36:30 GMT-0600 (Central Standard Time),523231.1000000015,A,s,O,s,1530,1,1548.2000000029802,521682.8999999985,7080,WL,C,14.0
4,32.04099988937378,learn,27959.00011062622,Thu Mar 06 2025 18:36:30 GMT-0600 (Central Standard Time),523299.299999997,A,sh,O,h,44,1,1616.3999999985099,521682.8999999985,7080,WL,C,14.0
4,32.12299990653992,learn,27877.000093460083,Thu Mar 06 2025 18:36:30 GMT-0600 (Central Standard Time),523381.799999997,A,sho,O,o,65,1,1698.8999999985099,521682.8999999985,7080,WL,C,14.0
4,32.2739999294281,learn,27726.0000705719,Thu Mar 06 2025 18:36:30 GMT-0600 (Central Standard Time),523531.8999999985,A,shor,O,r,134,1,1849.0,521682.8999999985,7080,WL,C,14.0
4,32.371999979019165,learn,27628.000020980835,Thu Mar 06 2025 18:36:30 GMT-0600 (Central Standard Time),523630.700000003,A,shore,O,e,80,1,1947.8000000044703,521682.8999999985,7080,WL,C,14.0
4,32.90499997138977,learn,27095.00002861023,Thu Mar 06 2025 18:36:30 GMT-0600 (Central Standard Time),524163.8999999985,A,shoreenter,O,enter,517,1,2481.0,521682.8999999985,7080,WL,C,14.0
4,33.82200002670288,learn,26177.99997329712,Thu Mar 06 2025 18:36:30 GMT-0600 (Central Standard Time),525080.6000000015,A,b,O,b,897,1,916.5,524164.1000000015,7080,WL,C,15.0
4,33.90499997138977,learn,26095.00002861023,Thu Mar 06 2025 18:36:30 GMT-0600 (Central Standard Time),525163.799999997,A,bo,O,o,76,1,999.6999999955297,524164.1000000015,7080,WL,C,15.0
4,34.13800001144409,learn,25861.99998855591,Thu Mar 06 2025 18:36:30 GMT-0600 (Central Standard Time),525396.6000000015,A,bod,O,d,216,1,1232.5,524164.1000000015,7080,WL,C,15.0
4,34.355000019073486,learn,25644.999980926514,Thu Mar 06 2025 18:36:30 GMT-0600 (Central Standard Time),525613.5,A,body,O,y,210,1,1449.3999999985099,524164.1000000015,7080,WL,C,15.0
4,35.25600004196167,learn,24743.99995803833,Thu Mar 06 2025 18:36:30 GMT-0600 (Central Standard Time),526514.700000003,A,bodyenter,O,enter,896,1,2350.60000000149,524164.1000000015,7080,WL,C,15.0
5,1.4849998950958252,learn,60000.0,Thu Mar 06 2025 18:36:30 GMT-0600 (Central Standard Time),597709.599999994,A,q,O,q,1470,1,1485.0999999940395,596224.5,7080,WL,C,1.0
5,1.6499998569488525,learn,60000.0,Thu Mar 06 2025 18:36:30 GMT-0600 (Central Standard Time),597874.700000003,A,qu,O,u,144,1,1650.2000000029802,596224.5,7080,WL,C,1.0
5,1.816999912261963,learn,60000.0,Thu Mar 06 2025 18:36:30 GMT-0600 (Central Standard Time),598041.900000006,A,que,O,e,144,1,1817.4000000059605,596224.5,7080,WL,C,1.0
5,2.065999984741211,learn,60000.0,Thu Mar 06 2025 18:36:30 GMT-0600 (Central Standard Time),598290.900000006,A,quee,O,e,242,1,2066.4000000059605,596224.5,7080,WL,C,1.0
5,2.2170000076293945,learn,60000.0,Thu Mar 06 2025 18:36:30 GMT-0600 (Central Standard Time),598442.099999994,A,queen,O,n,145,1,2217.5999999940395,596224.5,7080,WL,C,1.0
5,2.7200000286102295,learn,60000.0,Thu Mar 06 2025 18:36:30 GMT-0600 (Central Standard Time),598944.299999997,A,queenenter,O,enter,495,1,2719.7999999970198,596224.5,7080,WL,C,1.0
5,2.997999906539917,learn,60000.0,Thu Mar 06 2025 18:36:30 GMT-0600 (Central Standard Time),599223.0,A,s,O,s,270,1,278.40000000596046,598944.599999994,7080,WL,C,2.0
5,3.1489999294281006,learn,60000.0,Thu Mar 06 2025 18:36:30 GMT-0600 (Central Standard Time),599373.700000003,A,su,O,u,132,1,429.1000000089407,598944.599999994,7080,WL,C,2.0
5,3.565999984741211,learn,60000.0,Thu Mar 06 2025 18:36:30 GMT-0600 (Central Standard Time),599790.400000006,A,sug,O,g,407,1,845.8000000119209,598944.599999994,7080,WL,C,2.0
5,3.747999906539917,learn,60000.0,Thu Mar 06 2025 18:36:30 GMT-0600 (Central Standard Time),599973.0,A,suga,O,a,165,1,1028.4000000059605,598944.599999994,7080,WL,C,2.0
5,3.8320000171661377,learn,60000.0,Thu Mar 06 2025 18:36:30 GMT-0600 (Central Standard Time),600057.200000003,A,sugar,O,r,62,1,1112.6000000089407,598944.599999994,7080,WL,C,2.0
5,4.115000009536743,learn,60000.0,Thu Mar 06 2025 18:36:30 GMT-0600 (Central Standard Time),600339.5,A,sugarenter,O,enter,274,1,1394.9000000059605,598944.599999994,7080,WL,C,2.0
5,4.365000009536743,learn,60000.0,Thu Mar 06 2025 18:36:30 GMT-0600 (Central Standard Time),600589.5,A,w,O,w,242,1,249.79999999701977,600339.700000003,7080,WL,C,3.0
5,4.56499981880188,learn,60000.0,Thu Mar 06 2025 18:36:30 GMT-0600 (Central Standard Time),600790.200000003,A,wh,O,h,181,1,450.5,600339.700000003,7080,WL,C,3.0
5,4.7159998416900635,learn,60000.0,Thu Mar 06 2025 18:36:30 GMT-0600 (Central Standard Time),600940.5,A,whe,O,e,144,1,600.7999999970198,600339.700000003,7080,WL,C,3.0
5,5.164999961853027,learn,60000.0,Thu Mar 06 2025 18:36:30 GMT-0600 (Central Standard Time),601389.299999997,A,whea,O,a,439,1,1049.5999999940395,600339.700000003,7080,WL,C,3.0
5,5.246999979019165,learn,60000.0,Thu Mar 06 2025 18:36:30 GMT-0600 (Central Standard Time),601471.400000006,A,wheat,O,t,62,1,1131.7000000029802,600339.700000003,7080,WL,C,3.0
5,5.6499998569488525,learn,60000.0,Thu Mar 06 2025 18:36:30 GMT-0600 (Central Standard Time),601874.299999997,A,wheatenter,O,enter,396,1,1534.5999999940395,600339.700000003,7080,WL,C,3.0
5,5.915999889373779,learn,60000.0,Thu Mar 06 2025 18:36:30 GMT-0600 (Central Standard Time),602140.5,A,t,O,t,261,1,265.90000000596046,601874.599999994,7080,WL,C,4.0
5,6.065999984741211,learn,60000.0,Thu Mar 06 2025 18:36:30 GMT-0600 (Central Standard Time),602290.700000003,A,to,O,o,142,1,416.1000000089407,601874.599999994,7080,WL,C,4.0
5,6.2149999141693115,learn,60000.0,Thu Mar 06 2025 18:36:30 GMT-0600 (Central Standard Time),602439.200000003,A,tow,O,w,129,1,564.6000000089407,601874.599999994,7080,WL,C,4.0
5,6.4649999141693115,learn,60000.0,Thu Mar 06 2025 18:36:30 GMT-0600 (Central Standard Time),602689.599999994,A,towe,O,e,237,1,815.0,601874.599999994,7080,WL,C,4.0
5,6.56499981880188,learn,60000.0,Thu Mar 06 2025 18:36:30 GMT-0600 (Central Standard Time),602789.400000006,A,tower,O,r,82,1,914.8000000119209,601874.599999994,7080,WL,C,4.0
5,6.863999843597412,learn,60000.0,Thu Mar 06 2025 18:36:30 GMT-0600 (Central Standard Time),603089.099999994,A,towerenter,O,enter,286,1,1214.5,601874.599999994,7080,WL,C,4.0
5,7.21399998664856,learn,60000.0,Thu Mar 06 2025 18:36:30 GMT-0600 (Central Standard Time),603438.799999997,A,h,O,h,340,1,349.3999999910593,603089.400000006,7080,WL,C,5.0
5,7.430999994277954,learn,60000.0,Thu Mar 06 2025 18:36:30 GMT-0600 (Central Standard Time),603655.5,A,ho,O,o,204,1,566.0999999940395,603089.400000006,7080,WL,C,5.0
5,7.56499981880188,learn,60000.0,Thu Mar 06 2025 18:36:30 GMT-0600 (Central Standard Time),603789.5,A,hom,O,m,128,1,700.0999999940395,603089.400000006,7080,WL,C,5.0
5,7.746999979019165,learn,60000.0,Thu Mar 06 2025 18:36:30 GMT-0600 (Central Standard Time),603972.0,A,home,O,e,176,1,882.5999999940395,603089.400000006,7080,WL,C,5.0
5,8.096999883651733,learn,60000.0,Thu Mar 06 2025 18:36:30 GMT-0600 (Central Standard Time),604321.5,A,homeenter,O,enter,330,1,1232.0999999940395,603089.400000006,7080,WL,C,5.0
5,8.498999834060669,learn,60000.0,Thu Mar 06 2025 18:36:30 GMT-0600 (Central Standard Time),604723.799999997,A,b,O,b,397,1,402.09999999403954,604321.700000003,7080,WL,C,6.0
5,8.697999954223633,learn,60000.0,Thu Mar 06 2025 18:36:30 GMT-0600 (Central Standard Time),604923.200000003,A,bo,O,o,193,1,601.5,604321.700000003,7080,WL,C,6.0
5,8.865000009536743,learn,60000.0,Thu Mar 06 2025 18:36:30 GMT-0600 (Central Standard Time),605089.5,A,boy,O,y,153,1,767.7999999970198,604321.700000003,7080,WL,C,6.0
5,9.930999994277954,learn,60000.0,Thu Mar 06 2025 18:36:30 GMT-0600 (Central Standard Time),606155.200000003,A,boyenter,O,enter,1051,1,1833.5,604321.700000003,7080,WL,C,6.0
5,10.129999876022339,learn,60000.0,Thu Mar 06 2025 18:36:30 GMT-0600 (Central Standard Time),606354.599999994,A,d,O,d,186,1,198.8999999910593,606155.700000003,7080,WL,C,7.0
5,10.313999891281128,learn,60000.0,Thu Mar 06 2025 18:36:30 GMT-0600 (Central Standard Time),606539.200000003,A,do,O,o,178,1,383.5,606155.700000003,7080,WL,C,7.0
5,10.44599986076355,learn,60000.0,Thu Mar 06 2025 18:36:30 GMT-0600 (Central Standard Time),606670.900000006,A,doc,O,c,122,1,515.2000000029802,606155.700000003,7080,WL,C,7.0
5,10.662999868392944,learn,60000.0,Thu Mar 06 2025 18:36:30 GMT-0600 (Central Standard Time),606887.5,A,doct,O,t,205,1,731.7999999970198,606155.700000003,7080,WL,C,7.0
5,10.914000034332275,learn,60000.0,Thu Mar 06 2025 18:36:30 GMT-0600 (Central Standard Time),607138.200000003,A,docto,O,o,237,1,982.5,606155.700000003,7080,WL,C,7.0
5,11.062999963760376,learn,60000.0,Thu Mar 06 2025 18:36:30 GMT-0600 (Central Standard Time),607287.5,A,doctor,O,r,138,1,1131.7999999970198,606155.700000003,7080,WL,C,7.0
5,11.478999853134155,learn,60000.0,Thu Mar 06 2025 18:36:30 GMT-0600 (Central Standard Time),607704.0,A,doctorenter,O,enter,405,1,1548.2999999970198,606155.700000003,7080,WL,C,7.0
5,11.69599986076355,learn,60000.0,Thu Mar 06 2025 18:36:30 GMT-0600 (Central Standard Time),607920.700000003,A,c,O,c,205,1,216.5,607704.200000003,7080,WL,C,8.0
5,11.947999954223633,learn,60000.0,Thu Mar 06 2025 18:36:30 GMT-0600 (Central Standard Time),608172.700000003,A,ca,O,a,245,1,468.5,607704.200000003,7080,WL,C,8.0
5,12.079999923706055,learn,60000.0,Thu Mar 06 2025 18:36:30 GMT-0600 (Central Standard Time),608304.5,A,cam,O,m,109,1,600.2999999970198,607704.200000003,7080,WL,C,8.0
5,12.245999813079834,learn,60000.0,Thu Mar 06 2025 18:36:30 GMT-0600 (Central Standard Time),608470.599999994,A,camp,O,p,146,1,766.3999999910593,607704.200000003,7080,WL,C,8.0
5,12.828999996185303,learn,60000.0,Thu Mar 06 2025 18:36:30 GMT-0600 (Central Standard Time),609054.0,A,campenter,O,enter,573,1,1349.7999999970198,607704.200000003,7080,WL,C,8.0
5,13.146999835968018,learn,60000.0,Thu Mar 06 2025 18:36:30 GMT-0600 (Central Standard Time),609371.900000006,A,f,O,f,303,1,317.6000000089407,609054.299999997,7080,WL,C,9.0
5,13.396999835968018,learn,60000.0,Thu Mar 06 2025 18:36:30 GMT-0600 (Central Standard Time),609621.5,A,fl,O,l,233,1,567.2000000029802,609054.299999997,7080,WL,C,9.0
5,13.730000019073486,learn,60000.0,Thu Mar 06 2025 18:36:30 GMT-0600 (Central Standard Time),609955.0,A,fla,O,a,326,1,900.7000000029802,609054.299999997,7080,WL,C,9.0
5,13.861999988555908,learn,60000.0,Thu Mar 06 2025 18:36:30 GMT-0600 (Central Standard Time),610087.099999994,A,flag,O,g,112,1,1032.7999999970198,609054.299999997,7080,WL,C,9.0
5,14.178999900817871,learn,60000.0,Thu Mar 06 2025 18:36:30 GMT-0600 (Central Standard Time),610404.0,A,flagenter,O,enter,311,1,1349.7000000029802,609054.299999997,7080,WL,C,9.0
5,14.52899980545044,learn,60000.0,Thu Mar 06 2025 18:36:30 GMT-0600 (Central Standard Time),610753.400000006,A,n,O,n,337,1,349.20000000298023,610404.200000003,7080,WL,C,10.0
5,14.745999813079834,learn,60000.0,Thu Mar 06 2025 18:36:30 GMT-0600 (Central Standard Time),610970.299999997,A,na,O,a,203,1,566.0999999940395,610404.200000003,7080,WL,C,10.0
5,14.894999980926514,learn,60000.0,Thu Mar 06 2025 18:36:30 GMT-0600 (Central Standard Time),611120.099999994,A,nai,O,i,138,1,715.8999999910593,610404.200000003,7080,WL,C,10.0
5,15.027999877929688,learn,60000.0,Thu Mar 06 2025 18:36:30 GMT-0600 (Central Standard Time),611253.0,A,nail,O,l,111,1,848.7999999970198,610404.200000003,7080,WL,C,10.0
5,15.494999885559082,learn,60000.0,Thu Mar 06 2025 18:36:30 GMT-0600 (Central Standard Time),611719.5,A,nailenter,O,enter,446,1,1315.2999999970198,610404.200000003,7080,WL,C,10.0
5,15.744999885559082,learn,60000.0,Thu Mar 06 2025 18:36:30 GMT-0600 (Central Standard Time),611969.200000003,A,c,O,c,237,1,249.40000000596046,611719.799999997,7080,WL,C,11.0
5,15.928999900817871,learn,60000.0,Thu Mar 06 2025 18:36:30 GMT-0600 (Central Standard Time),612154.0,A,co,O,o,179,1,434.20000000298023,611719.799999997,7080,WL,C,11.0
5,16.09500002861023,learn,60000.0,Thu Mar 06 2025 18:36:30 GMT-0600 (Central Standard Time),612319.400000006,A,cor,O,r,145,1,599.6000000089407,611719.799999997,7080,WL,C,11.0
5,16.26099991798401,learn,60000.0,Thu Mar 06 2025 18:36:30 GMT-0600 (Central Standard Time),612485.700000003,A,corn,O,n,147,1,765.9000000059605,611719.799999997,7080,WL,C,11.0
5,16.694000005722046,learn,60000.0,Thu Mar 06 2025 18:36:30 GMT-0600 (Central Standard Time),612918.5,A,cornenter,O,enter,423,1,1198.7000000029802,611719.799999997,7080,WL,C,11.0
5,17.227999925613403,learn,60000.0,Thu Mar 06 2025 18:36:30 GMT-0600 (Central Standard Time),613452.799999997,A,l,O,l,519,1,534.0,612918.799999997,7080,WL,C,12.0
5,17.393999814987183,learn,60000.0,Thu Mar 06 2025 18:36:30 GMT-0600 (Central Standard Time),613619.0,A,le,O,e,153,1,700.2000000029802,612918.799999997,7080,WL,C,12.0
5,17.49399995803833,learn,60000.0,Thu Mar 06 2025 18:36:30 GMT-0600 (Central Standard Time),613719.099999994,A,let,O,t,81,1,800.2999999970198,612918.799999997,7080,WL,C,12.0
5,17.692999839782715,learn,60000.0,Thu Mar 06 2025 18:36:30 GMT-0600 (Central Standard Time),613917.900000006,A,lett,O,t,188,1,999.1000000089407,612918.799999997,7080,WL,C,12.0
5,17.812999963760376,learn,60000.0,Thu Mar 06 2025 18:36:30 GMT-0600 (Central Standard Time),614037.299999997,A,lette,O,e,104,1,1118.5,612918.799999997,7080,WL,C,12.0
5,17.944000005722046,learn,60000.0,Thu Mar 06 2025 18:36:30 GMT-0600 (Central Standard Time),614169.200000003,A,letter,O,r,111,1,1250.4000000059605,612918.799999997,7080,WL,C,12.0
5,18.293999910354614,learn,60000.0,Thu Mar 06 2025 18:36:30 GMT-0600 (Central Standard Time),614518.400000006,A,letterenter,O,enter,330,1,1599.6000000089407,612918.799999997,7080,WL,C,12.0
5,18.526999950408936,learn,60000.0,Thu Mar 06 2025 18:36:30 GMT-0600 (Central Standard Time),614752.099999994,A,c,O,c,214,1,233.3999999910593,614518.700000003,7080,WL,C,13.0
5,18.727999925613403,learn,60000.0,Thu Mar 06 2025 18:36:30 GMT-0600 (Central Standard Time),614952.5,A,ca,O,a,178,1,433.79999999701977,614518.700000003,7080,WL,C,13.0
5,18.8439998626709,learn,60000.0,Thu Mar 06 2025 18:36:30 GMT-0600 (Central Standard Time),615068.799999997,A,cat,O,t,108,1,550.0999999940395,614518.700000003,7080,WL,C,13.0
5,19.05999994277954,learn,60000.0,Thu Mar 06 2025 18:36:30 GMT-0600 (Central Standard Time),615284.5,A,catt,O,t,207,1,765.7999999970198,614518.700000003,7080,WL,C,13.0
5,19.211999893188477,learn,60000.0,Thu Mar 06 2025 18:36:30 GMT-0600 (Central Standard Time),615436.299999997,A,cattl,O,l,144,1,917.5999999940395,614518.700000003,7080,WL,C,13.0
5,19.378000020980835,learn,60000.0,Thu Mar 06 2025 18:36:30 GMT-0600 (Central Standard Time),615602.700000003,A,cattle,O,e,159,1,1084.0,614518.700000003,7080,WL,C,13.0
5,19.625999927520752,learn,60000.0,Thu Mar 06 2025 18:36:30 GMT-0600 (Central Standard Time),615850.200000003,A,cattleenter,O,enter,233,1,1331.5,614518.700000003,7080,WL,C,13.0
5,19.960999965667725,learn,60000.0,Thu Mar 06 2025 18:36:30 GMT-0600 (Central Standard Time),616185.5,A,s,O,s,323,1,335.0,615850.5,7080,WL,C,14.0
5,20.14199995994568,learn,60000.0,Thu Mar 06 2025 18:36:30 GMT-0600 (Central Standard Time),616367.0,A,sh,O,h,162,1,516.5,615850.5,7080,WL,C,14.0
5,20.22599983215332,learn,60000.0,Thu Mar 06 2025 18:36:30 GMT-0600 (Central Standard Time),616450.5,A,sho,O,o,76,1,600.0,615850.5,7080,WL,C,14.0
5,20.526999950408936,learn,60000.0,Thu Mar 06 2025 18:36:30 GMT-0600 (Central Standard Time),616752.099999994,A,shor,O,r,290,1,901.5999999940395,615850.5,7080,WL,C,14.0
5,20.592000007629395,learn,60000.0,Thu Mar 06 2025 18:36:30 GMT-0600 (Central Standard Time),616816.799999997,A,shore,O,e,53,1,966.2999999970198,615850.5,7080,WL,C,14.0
5,21.075999975204468,learn,60000.0,Thu Mar 06 2025 18:36:30 GMT-0600 (Central Standard Time),617300.299999997,A,shoreenter,O,enter,474,1,1449.7999999970198,615850.5,7080,WL,C,14.0
5,21.8439998626709,learn,60000.0,Thu Mar 06 2025 18:36:30 GMT-0600 (Central Standard Time),618068.299999997,A,b,O,b,753,1,767.7000000029802,617300.599999994,7080,WL,C,15.0
5,21.97599983215332,learn,60000.0,Thu Mar 06 2025 18:36:30 GMT-0600 (Central Standard Time),618201.0,A,bo,O,o,120,1,900.4000000059605,617300.599999994,7080,WL,C,15.0
5,22.158999919891357,learn,60000.0,Thu Mar 06 2025 18:36:30 GMT-0600 (Central Standard Time),618383.799999997,A,bod,O,d,171,1,1083.2000000029802,617300.599999994,7080,WL,C,15.0
5,22.276000022888184,learn,60000.0,Thu Mar 06 2025 18:36:30 GMT-0600 (Central Standard Time),618500.599999994,A,body,O,y,108,1,1200.0,617300.599999994,7080,WL,C,15.0
5,23.108999967575073,learn,60000.0,Thu Mar 06 2025 18:36:30 GMT-0600 (Central Standard Time),619334.099999994,A,bodyenter,O,enter,815,1,2033.5,617300.599999994,7080,WL,C,15.0
6,1.1649999618530273,distr,58835.00003814697,Thu Mar 06 2025 18:36:30 GMT-0600 (Central Standard Time),704871.099999994,B,m,O,m,1148,1,1165.5,703705.599999994,7080,WL,C,1.0
6,1.249000072479248,distr,58750.99992752075,Thu Mar 06 2025 18:36:30 GMT-0600 (Central Standard Time),704955.299999997,B,mo,O,o,80,1,1249.7000000029802,703705.599999994,7080,WL,C,1.0
6,1.4179999828338623,distr,58582.00001716614,Thu Mar 06 2025 18:36:30 GMT-0600 (Central Standard Time),705123.799999997,B,mon,O,n,153,1,1418.2000000029802,703705.599999994,7080,WL,C,1.0
6,1.566999912261963,distr,58433.00008773804,Thu Mar 06 2025 18:36:30 GMT-0600 (Central Standard Time),705272.900000006,B,mone,O,e,126,1,1567.300000011921,703705.599999994,7080,WL,C,1.0
6,1.7679998874664307,distr,58232.00011253357,Thu Mar 06 2025 18:36:30 GMT-0600 (Central Standard Time),705474.200000003,B,money,O,y,178,1,1768.6000000089407,703705.599999994,7080,WL,C,1.0
6,2.549999952316284,distr,57450.000047683716,Thu Mar 06 2025 18:36:30 GMT-0600 (Central Standard Time),706255.799999997,B,moneyenter,O,enter,771,1,2550.2000000029802,703705.599999994,7080,WL,C,1.0
6,3.115999937057495,distr,56884.000062942505,Thu Mar 06 2025 18:36:30 GMT-0600 (Central Standard Time),706821.599999994,B,c,O,c,547,1,565.5999999940395,706256.0,7080,WL,C,2.0
6,3.2179999351501465,distr,56782.00006484985,Thu Mar 06 2025 18:36:30 GMT-0600 (Central Standard Time),706923.700000003,B,ch,O,h,98,1,667.7000000029802,706256.0,7080,WL,C,2.0
6,3.366999864578247,distr,56633.00013542175,Thu Mar 06 2025 18:36:30 GMT-0600 (Central Standard Time),707072.599999994,B,chr,O,r,128,1,816.5999999940395,706256.0,7080,WL,C,2.0
6,3.500999927520752,distr,56499.00007247925,Thu Mar 06 2025 18:36:30 GMT-0600 (Central Standard Time),707207.0,B,chri,O,i,116,1,951.0,706256.0,7080,WL,C,2.0
6,3.631999969482422,distr,56368.00003051758,Thu Mar 06 2025 18:36:30 GMT-0600 (Central Standard Time),707338.099999994,B,chris,O,s,118,1,1082.0999999940395,706256.0,7080,WL,C,2.0
6,3.7170000076293945,distr,56282.999992370605,Thu Mar 06 2025 18:36:30 GMT-0600 (Central Standard Time),707422.400000006,B,christ,O,t,74,1,1166.4000000059605,706256.0,7080,WL,C,2.0
6,4.0320000648498535,distr,55967.99993515015,Thu Mar 06 2025 18:36:30 GMT-0600 (Central Standard Time),707737.799999997,B,christm,O,m,300,1,1481.7999999970198,706256.0,7080,WL,C,2.0
6,4.200000047683716,distr,55799.999952316284,Thu Mar 06 2025 18:36:30 GMT-0600 (Central Standard Time),707906.0,B,christma,O,a,145,1,1650.0,706256.0,7080,WL,C,2.0
6,4.247999906539917,distr,55752.00009346008,Thu Mar 06 2025 18:36:30 GMT-0600 (Central Standard Time),707953.5,B,christmas,O,s,34,1,1697.5,706256.0,7080,WL,C,2.0
6,4.683000087738037,distr,55316.99991226196,Thu Mar 06 2025 18:36:30 GMT-0600 (Central Standard Time),708388.799999997,B,christmasenter,O,enter,420,1,2132.7999999970198,706256.0,7080,WL,C,2.0
6,5.832000017166138,distr,54167.99998283386,Thu Mar 06 2025 18:36:30 GMT-0600 (Central Standard Time),709538.200000003,B,m,O,m,1136,1,1149.1000000089407,708389.099999994,7080,WL,C,3.0
6,5.91700005531311,distr,54082.99994468689,Thu Mar 06 2025 18:36:30 GMT-0600 (Central Standard Time),709622.400000006,B,mo,O,o,75,1,1233.300000011921,708389.099999994,7080,WL,C,3.0
6,6.065999984741211,distr,53934.00001525879,Thu Mar 06 2025 18:36:30 GMT-0600 (Central Standard Time),709771.299999997,B,mot,O,t,142,1,1382.2000000029802,708389.099999994,7080,WL,C,3.0
6,6.216000080108643,distr,53783.99991989136,Thu Mar 06 2025 18:36:30 GMT-0600 (Central Standard Time),709921.700000003,B,moth,O,h,138,1,1532.6000000089407,708389.099999994,7080,WL,C,3.0
6,6.33299994468689,distr,53667.00005531311,Thu Mar 06 2025 18:36:30 GMT-0600 (Central Standard Time),710038.400000006,B,mothe,O,e,98,1,1649.300000011921,708389.099999994,7080,WL,C,3.0
6,6.398000001907349,distr,53601.99999809265,Thu Mar 06 2025 18:36:30 GMT-0600 (Central Standard Time),710104.200000003,B,mother,O,r,53,1,1715.1000000089407,708389.099999994,7080,WL,C,3.0
6,7.049000024795532,distr,52950.99997520447,Thu Mar 06 2025 18:36:30 GMT-0600 (Central Standard Time),710754.900000006,B,motherenter,O,enter,630,1,2365.800000011921,708389.099999994,7080,WL,C,3.0
6,7.448999881744385,distr,52551.000118255615,Thu Mar 06 2025 18:36:30 GMT-0600 (Central Standard Time),711154.599999994,B,v,O,v,394,1,399.3999999910593,710755.200000003,7080,WL,C,4.0
6,7.616999864578247,distr,52383.00013542175,Thu Mar 06 2025 18:36:30 GMT-0600 (Central Standard Time),711322.400000006,B,va,O,a,162,1,567.2000000029802,710755.200000003,7080,WL,C,4.0
6,7.73199987411499,distr,52268.00012588501,Thu Mar 06 2025 18:36:30 GMT-0600 (Central Standard Time),711438.200000003,B,val,O,l,99,1,683.0,710755.200000003,7080,WL,C,4.0
6,7.898999929428101,distr,52101.0000705719,Thu Mar 06 2025 18:36:30 GMT-0600 (Central Standard Time),711604.700000003,B,vall,O,l,160,1,849.5,710755.200000003,7080,WL,C,4.0
6,8.049000024795532,distr,51950.99997520447,Thu Mar 06 2025 18:36:30 GMT-0600 (Central Standard Time),711754.599999994,B,valle,O,e,127,1,999.3999999910593,710755.200000003,7080,WL,C,4.0
6,8.164999961853027,distr,51835.00003814697,Thu Mar 06 2025 18:36:30 GMT-0600 (Central Standard Time),711870.599999994,B,valley,O,y,105,1,1115.3999999910593,710755.200000003,7080,WL,C,4.0
6,8.848999977111816,distr,51151.00002288818,Thu Mar 06 2025 18:36:30 GMT-0600 (Central Standard Time),712554.5,B,valleyenter,O,enter,678,1,1799.2999999970198,710755.200000003,7080,WL,C,4.0
6,10.914000034332275,distr,49085.999965667725,Thu Mar 06 2025 18:36:30 GMT-0600 (Central Standard Time),714619.599999994,B,m,O,m,2051,1,2064.8999999910593,712554.700000003,7080,WL,C,5.0
6,11.098000049591064,distr,48901.999950408936,Thu Mar 06 2025 18:36:30 GMT-0600 (Central Standard Time),714803.400000006,B,mo,O,o,170,1,2248.7000000029802,712554.700000003,7080,WL,C,5.0
6,11.180000066757202,distr,48819.9999332428,Thu Mar 06 2025 18:36:30 GMT-0600 (Central Standard Time),714885.299999997,B,mon,O,n,73,1,2330.5999999940395,712554.700000003,7080,WL,C,5.0
6,15.194999933242798,distr,44805.0000667572,Thu Mar 06 2025 18:36:30 GMT-0600 (Central Standard Time),718901.099999994,B,mone,O,e,4005,1,6346.399999991059,712554.700000003,7080,WL,C,5.0
6,15.34500002861023,distr,44654.99997138977,Thu Mar 06 2025 18:36:30 GMT-0600 (Central Standard Time),719051.400000006,B,money,O,y,136,1,6496.70000000298,712554.700000003,7080,WL,C,5.0
6,16.59500002861023,distr,43404.99997138977,Thu Mar 06 2025 18:36:30 GMT-0600 (Central Standard Time),720301.200000003,B,moneyenter,O,enter,1241,1,7746.5,712554.700000003,7080,WL,C,5.0
6,20.09500002861023,distr,39904.99997138977,Thu Mar 06 2025 18:36:30 GMT-0600 (Central Standard Time),723800.799999997,B,m,O,m,3488,1,3499.2999999970198,720301.5,7080,WL,C,6.0
6,20.244999885559082,distr,39755.00011444092,Thu Mar 06 2025 18:36:30 GMT-0600 (Central Standard Time),723950.599999994,B,me,O,e,139,1,3649.0999999940395,720301.5,7080,WL,C,6.0
6,20.32699990272522,distr,39673.00009727478,Thu Mar 06 2025 18:36:30 GMT-0600 (Central Standard Time),724033.200000003,B,mea,O,a,69,1,3731.7000000029802,720301.5,7080,WL,C,6.0
6,20.444000005722046,distr,39555.999994277954,Thu Mar 06 2025 18:36:30 GMT-0600 (Central Standard Time),724150.400000006,B,meat,O,t,100,1,3848.9000000059605,720301.5,7080,WL,C,6.0
6,20.944000005722046,distr,39055.999994277954,Thu Mar 06 2025 18:36:30 GMT-0600 (Central Standard Time),724650.400000006,B,meatenter,O,enter,486,1,4348.9000000059605,720301.5,7080,WL,C,6.0
6,36.93899989128113,distr,23061.000108718872,Thu Mar 06 2025 18:36:30 GMT-0600 (Central Standard Time),740644.700000003,B,enter,O,enter,15979,1,15994.10000000894,724650.599999994,7080,WL,C,7.0
6,37.2720000743866,distr,22727.999925613403,Thu Mar 06 2025 18:36:30 GMT-0600 (Central Standard Time),740978.400000006,B,enter,O,enter,312,1,333.40000000596046,740645.0,7080,WL,C,8.0
6,37.537999868392944,distr,22462.000131607056,Thu Mar 06 2025 18:36:30 GMT-0600 (Central Standard Time),741243.900000006,B,enter,O,enter,244,1,265.20000000298023,740978.700000003,7080,WL,C,9.0
6,37.75499987602234,distr,22245.00012397766,Thu Mar 06 2025 18:36:30 GMT-0600 (Central Standard Time),741460.900000006,B,enter,O,enter,200,1,216.6000000089407,741244.299999997,7080,WL,C,10.0
6,37.95599985122681,distr,22044.000148773193,Thu Mar 06 2025 18:36:30 GMT-0600 (Central Standard Time),741661.599999994,B,enter,O,enter,192,1,200.3999999910593,741461.200000003,7080,WL,C,11.0
6,38.28699994087219,distr,21713.000059127808,Thu Mar 06 2025 18:36:30 GMT-0600 (Central Standard Time),741993.400000006,B,enter,O,enter,319,1,331.40000000596046,741662.0,7080,WL,C,12.0
6,38.57200002670288,distr,21427.99997329712,Thu Mar 06 2025 18:36:30 GMT-0600 (Central Standard Time),742278.200000003,B,enter,O,enter,267,1,284.5,741993.700000003,7080,WL,C,13.0
6,38.855000019073486,distr,21144.999980926514,Thu Mar 06 2025 18:36:30 GMT-0600 (Central Standard Time),742560.5,B,enter,O,enter,270,1,282.0,742278.5,7080,WL,C,14.0
6,39.23799991607666,distr,20762.00008392334,Thu Mar 06 2025 18:36:30 GMT-0600 (Central Standard Time),742943.900000006,B,enter,O,enter,371,1,383.1000000089407,742560.799999997,7080,WL,C,15.0
7,0.5840001106262207,immed,59415.99988937378,Thu Mar 06 2025 18:36:30 GMT-0600 (Central Standard Time),761438.799999997,A,q,O,q,565,1,583.0999999940395,760855.700000003,7080,WL,C,1.0
7,0.7999999523162842,immed,59200.000047683716,Thu Mar 06 2025 18:36:30 GMT-0600 (Central Standard Time),761654.700000003,A,qu,O,u,197,1,799.0,760855.700000003,7080,WL,C,1.0
7,1.315999984741211,immed,58684.00001525879,Thu Mar 06 2025 18:36:30 GMT-0600 (Central Standard Time),762171.200000003,A,que,O,e,499,1,1315.5,760855.700000003,7080,WL,C,1.0
7,1.4830000400543213,immed,58516.99995994568,Thu Mar 06 2025 18:36:30 GMT-0600 (Central Standard Time),762338.099999994,A,quee,O,e,143,1,1482.3999999910593,760855.700000003,7080,WL,C,1.0
7,1.633000135421753,immed,58366.99986457825,Thu Mar 06 2025 18:36:30 GMT-0600 (Central Standard Time),762488.200000003,A,queen,O,n,136,1,1632.5,760855.700000003,7080,WL,C,1.0
7,1.9830000400543213,immed,58016.99995994568,Thu Mar 06 2025 18:36:30 GMT-0600 (Central Standard Time),762838.200000003,A,queenenter,O,enter,330,1,1982.5,760855.700000003,7080,WL,C,1.0
7,2.1670000553131104,immed,57832.99994468689,Thu Mar 06 2025 18:36:30 GMT-0600 (Central Standard Time),763021.700000003,A,s,O,s,167,1,183.20000000298023,762838.5,7080,WL,C,2.0
7,2.4000000953674316,immed,57599.99990463257,Thu Mar 06 2025 18:36:30 GMT-0600 (Central Standard Time),763254.799999997,A,su,O,u,223,1,416.29999999701977,762838.5,7080,WL,C,2.0
7,2.7360000610351562,immed,57263.999938964844,Thu Mar 06 2025 18:36:30 GMT-0600 (Central Standard Time),763591.200000003,A,sug,O,g,316,1,752.7000000029802,762838.5,7080,WL,C,2.0
7,2.933000087738037,immed,57066.99991226196,Thu Mar 06 2025 18:36:30 GMT-0600 (Central Standard Time),763788.200000003,A,suga,O,a,191,1,949.7000000029802,762838.5,7080,WL,C,2.0
7,3.015000104904175,immed,56984.999895095825,Thu Mar 06 2025 18:36:30 GMT-0600 (Central Standard Time),763870.099999994,A,sugar,O,r,70,1,1031.5999999940395,762838.5,7080,WL,C,2.0
7,3.4160001277923584,immed,56583.99987220764,Thu Mar 06 2025 18:36:30 GMT-0600 (Central Standard Time),764271.200000003,A,sugarenter,O,enter,382,1,1432.7000000029802,762838.5,7080,WL,C,2.0
7,3.6500000953674316,immed,56349.99990463257,Thu Mar 06 2025 18:36:30 GMT-0600 (Central Standard Time),764505.299999997,A,w,O,w,213,1,233.79999999701977,764271.5,7080,WL,C,3.0
7,4.166000127792358,immed,55833.99987220764,Thu Mar 06 2025 18:36:30 GMT-0600 (Central Standard Time),765020.900000006,A,wh,O,h,497,1,749.4000000059605,764271.5,7080,WL,C,3.0
7,4.315999984741211,immed,55684.00001525879,Thu Mar 06 2025 18:36:30 GMT-0600 (Central Standard Time),765171.200000003,A,whe,O,e,135,1,899.7000000029802,764271.5,7080,WL,C,3.0
7,4.465000152587891,immed,55534.99984741211,Thu Mar 06 2025 18:36:30 GMT-0600 (Central Standard Time),765320.200000003,A,whea,O,a,137,1,1048.7000000029802,764271.5,7080,WL,C,3.0
7,4.546999931335449,immed,55453.00006866455,Thu Mar 06 2025 18:36:30 GMT-0600 (Central Standard Time),765402.0,A,wheat,O,t,75,1,1130.5,764271.5,7080,WL,C,3.0
7,4.763999938964844,immed,55236.000061035156,Thu Mar 06 2025 18:36:30 GMT-0600 (Central Standard Time),765619.0,A,wheatenter,O,enter,198,1,1347.5,764271.5,7080,WL,C,3.0
7,4.947000026702881,immed,55052.99997329712,Thu Mar 06 2025 18:36:30 GMT-0600 (Central Standard Time),765801.700000003,A,t,O,t,179,1,182.40000000596046,765619.299999997,7080,WL,C,4.0
7,5.146000146865845,immed,54853.999853134155,Thu Mar 06 2025 18:36:30 GMT-0600 (Central Standard Time),766001.400000006,A,to,O,o,195,1,382.1000000089407,765619.299999997,7080,WL,C,4.0
7,5.312999963760376,immed,54687.000036239624,Thu Mar 06 2025 18:36:30 GMT-0600 (Central Standard Time),766168.200000003,A,tow,O,w,156,1,548.9000000059605,765619.299999997,7080,WL,C,4.0
7,5.666000127792358,immed,54333.99987220764,Thu Mar 06 2025 18:36:30 GMT-0600 (Central Standard Time),766521.299999997,A,towe,O,e,334,1,902.0,765619.299999997,7080,WL,C,4.0
7,5.7820000648498535,immed,54217.99993515015,Thu Mar 06 2025 18:36:30 GMT-0600 (Central Standard Time),766637.400000006,A,tower,O,r,98,1,1018.1000000089407,765619.299999997,7080,WL,C,4.0
7,5.982000112533569,immed,54017.99988746643,Thu Mar 06 2025 18:36:30 GMT-0600 (Central Standard Time),766837.400000006,A,towerenter,O,enter,189,1,1218.1000000089407,765619.299999997,7080,WL,C,4.0
7,6.299000024795532,immed,53700.99997520447,Thu Mar 06 2025 18:36:30 GMT-0600 (Central Standard Time),767154.0,A,h,O,h,295,1,316.29999999701977,766837.700000003,7080,WL,C,5.0
7,6.414999961853027,immed,53585.00003814697,Thu Mar 06 2025 18:36:30 GMT-0600 (Central Standard Time),767269.799999997,A,ho,O,o,109,1,432.09999999403954,766837.700000003,7080,WL,C,5.0
7,6.546999931335449,immed,53453.00006866455,Thu Mar 06 2025 18:36:30 GMT-0600 (Central Standard Time),767402.099999994,A,hom,O,m,127,1,564.3999999910593,766837.700000003,7080,WL,C,5.0
7,6.763999938964844,immed,53236.000061035156,Thu Mar 06 2025 18:36:30 GMT-0600 (Central Standard Time),767619.099999994,A,home,O,e,209,1,781.3999999910593,766837.700000003,7080,WL,C,5.0
7,7.130000114440918,immed,52869.99988555908,Thu Mar 06 2025 18:36:30 GMT-0600 (Central Standard Time),767985.299999997,A,homeenter,O,enter,342,1,1147.5999999940395,766837.700000003,7080,WL,C,5.0
7,7.463000059127808,immed,52536.99994087219,Thu Mar 06 2025 18:36:30 GMT-0600 (Central Standard Time),768317.799999997,A,b,O,b,317,1,332.29999999701977,767985.5,7080,WL,C,6.0
7,7.581000089645386,immed,52418.999910354614,Thu Mar 06 2025 18:36:30 GMT-0600 (Central Standard Time),768435.599999994,A,bo,O,o,112,1,450.09999999403954,767985.5,7080,WL,C,6.0
7,7.815000057220459,immed,52184.99994277954,Thu Mar 06 2025 18:36:30 GMT-0600 (Central Standard Time),768670.200000003,A,boy,O,y,218,1,684.7000000029802,767985.5,7080,WL,C,6.0
7,9.097000122070312,immed,50902.99987792969,Thu Mar 06 2025 18:36:30 GMT-0600 (Central Standard Time),769951.900000006,A,boyenter,O,enter,1260,1,1966.4000000059605,767985.5,7080,WL,C,6.0
7,9.513000011444092,immed,50486.99998855591,Thu Mar 06 2025 18:36:30 GMT-0600 (Central Standard Time),770368.0,A,d,O,d,404,1,415.90000000596046,769952.099999994,7080,WL,C,7.0
7,9.680000066757202,immed,50319.9999332428,Thu Mar 06 2025 18:36:30 GMT-0600 (Central Standard Time),770535.299999997,A,do,O,o,156,1,583.2000000029802,769952.099999994,7080,WL,C,7.0
7,9.782999992370605,immed,50217.000007629395,Thu Mar 06 2025 18:36:30 GMT-0600 (Central Standard Time),770637.799999997,A,doc,O,c,96,1,685.7000000029802,769952.099999994,7080,WL,C,7.0
7,9.96500015258789,immed,50034.99984741211,Thu Mar 06 2025 18:36:30 GMT-0600 (Central Standard Time),770820.0,A,doct,O,t,177,1,867.9000000059605,769952.099999994,7080,WL,C,7.0
7,10.115000009536743,immed,49884.99999046326,Thu Mar 06 2025 18:36:30 GMT-0600 (Central Standard Time),770970.299999997,A,docto,O,o,130,1,1018.2000000029802,769952.099999994,7080,WL,C,7.0
7,10.411999940872192,immed,49588.00005912781,Thu Mar 06 2025 18:36:30 GMT-0600 (Central Standard Time),771266.599999994,A,doctor,O,r,273,1,1314.5,769952.099999994,7080,WL,C,7.0
7,10.611999988555908,immed,49388.00001144409,Thu Mar 06 2025 18:36:30 GMT-0600 (Central Standard Time),771466.900000006,A,doctorenter,O,enter,195,1,1514.800000011921,769952.099999994,7080,WL,C,7.0
7,10.828999996185303,immed,49171.0000038147,Thu Mar 06 2025 18:36:30 GMT-0600 (Central Standard Time),771683.900000006,A,c,O,c,209,1,216.6000000089407,771467.299999997,7080,WL,C,8.0
7,11.078999996185303,immed,48921.0000038147,Thu Mar 06 2025 18:36:30 GMT-0600 (Central Standard Time),771933.900000006,A,ca,O,a,233,1,466.6000000089407,771467.299999997,7080,WL,C,8.0
7,11.212000131607056,immed,48787.999868392944,Thu Mar 06 2025 18:36:30 GMT-0600 (Central Standard Time),772067.0,A,cam,O,m,118,1,599.7000000029802,771467.299999997,7080,WL,C,8.0
7,11.378999948501587,immed,48621.00005149841,Thu Mar 06 2025 18:36:30 GMT-0600 (Central Standard Time),772234.099999994,A,camp,O,p,154,1,766.7999999970198,771467.299999997,7080,WL,C,8.0
7,11.98200011253357,immed,48017.99988746643,Thu Mar 06 2025 18:36:30 GMT-0600 (Central Standard Time),772837.200000003,A,campenter,O,enter,599,1,1369.9000000059605,771467.299999997,7080,WL,C,8.0
7,12.281000137329102,immed,47718.9998626709,Thu Mar 06 2025 18:36:30 GMT-0600 (Central Standard Time),773135.700000003,A,f,O,f,278,1,298.29999999701977,772837.400000006,7080,WL,C,9.0
7,12.444999933242798,immed,47555.0000667572,Thu Mar 06 2025 18:36:30 GMT-0600 (Central Standard Time),773300.099999994,A,fl,O,l,157,1,462.69999998807907,772837.400000006,7080,WL,C,9.0
7,12.579999923706055,immed,47420.000076293945,Thu Mar 06 2025 18:36:30 GMT-0600 (Central Standard Time),773435.299999997,A,fla,O,a,119,1,597.8999999910593,772837.400000006,7080,WL,C,9.0
7,12.746000051498413,immed,47253.99994850159,Thu Mar 06 2025 18:36:30 GMT-0600 (Central Standard Time),773601.0,A,flat,O,t,153,1,763.5999999940395,772837.400000006,7080,WL,C,9.0
7,13.19700002670288,immed,46802.99997329712,Thu Mar 06 2025 18:36:30 GMT-0600 (Central Standard Time),774051.599999994,A,fla,O,backspace,436,1,1214.199999988079,772837.400000006,7080,WL,C,9.0
7,13.312999963760376,immed,46687.000036239624,Thu Mar 06 2025 18:36:30 GMT-0600 (Central Standard Time),774168.200000003,A,flag,O,g,96,1,1330.7999999970198,772837.400000006,7080,WL,C,9.0
7,13.746999979019165,immed,46253.000020980835,Thu Mar 06 2025 18:36:30 GMT-0600 (Central Standard Time),774601.900000006,A,flagenter,O,enter,415,1,1764.5,772837.400000006,7080,WL,C,9.0
7,14.896000146865845,immed,45103.999853134155,Thu Mar 06 2025 18:36:30 GMT-0600 (Central Standard Time),775751.0,A,n,O,n,1139,1,1148.9000000059605,774602.099999994,7080,WL,C,10.0
7,15.028000116348267,immed,44971.99988365173,Thu Mar 06 2025 18:36:30 GMT-0600 (Central Standard Time),775883.099999994,A,na,O,a,124,1,1281.0,774602.099999994,7080,WL,C,10.0
7,15.161999940872192,immed,44838.00005912781,Thu Mar 06 2025 18:36:30 GMT-0600 (Central Standard Time),776017.400000006,A,nai,O,i,112,1,1415.300000011921,774602.099999994,7080,WL,C,10.0
7,15.245000123977661,immed,44754.99987602234,Thu Mar 06 2025 18:36:30 GMT-0600 (Central Standard Time),776099.799999997,A,nail,O,l,68,1,1497.7000000029802,774602.099999994,7080,WL,C,10.0
7,15.529000043869019,immed,44470.99995613098,Thu Mar 06 2025 18:36:30 GMT-0600 (Central Standard Time),776384.099999994,A,nailenter,O,enter,270,1,1782.0,774602.099999994,7080,WL,C,10.0
7,15.729000091552734,immed,44270.999908447266,Thu Mar 06 2025 18:36:30 GMT-0600 (Central Standard Time),776584.299999997,A,c,O,c,188,1,199.8999999910593,776384.400000006,7080,WL,C,11.0
7,15.878999948501587,immed,44121.00005149841,Thu Mar 06 2025 18:36:30 GMT-0600 (Central Standard Time),776733.799999997,A,co,O,o,131,1,349.3999999910593,776384.400000006,7080,WL,C,11.0
7,16.01200008392334,immed,43987.99991607666,Thu Mar 06 2025 18:36:30 GMT-0600 (Central Standard Time),776867.400000006,A,cor,O,r,120,1,483.0,776384.400000006,7080,WL,C,11.0
7,16.16100001335144,immed,43838.99998664856,Thu Mar 06 2025 18:36:30 GMT-0600 (Central Standard Time),777016.099999994,A,corn,O,n,137,1,631.6999999880791,776384.400000006,7080,WL,C,11.0
7,16.57800006866455,immed,43421.99993133545,Thu Mar 06 2025 18:36:30 GMT-0600 (Central Standard Time),777433.0,A,cornenter,O,enter,400,1,1048.5999999940395,776384.400000006,7080,WL,C,11.0
7,16.878999948501587,immed,43121.00005149841,Thu Mar 06 2025 18:36:30 GMT-0600 (Central Standard Time),777733.700000003,A,c,O,c,283,1,300.40000000596046,777433.299999997,7080,WL,C,12.0
7,17.01200008392334,immed,42987.99991607666,Thu Mar 06 2025 18:36:30 GMT-0600 (Central Standard Time),777866.700000003,A,ca,O,a,111,1,433.40000000596046,777433.299999997,7080,WL,C,12.0
7,17.144999980926514,immed,42855.000019073486,Thu Mar 06 2025 18:36:30 GMT-0600 (Central Standard Time),778000.299999997,A,cat,O,t,123,1,567.0,777433.299999997,7080,WL,C,12.0
7,17.361999988555908,immed,42638.00001144409,Thu Mar 06 2025 18:36:30 GMT-0600 (Central Standard Time),778216.799999997,A,catt,O,t,196,1,783.5,777433.299999997,7080,WL,C,12.0
7,17.477999925613403,immed,42522.0000743866,Thu Mar 06 2025 18:36:30 GMT-0600 (Central Standard Time),778333.599999994,A,cattl,O,l,96,1,900.2999999970198,777433.299999997,7080,WL,C,12.0
7,17.611999988555908,immed,42388.00001144409,Thu Mar 06 2025 18:36:30 GMT-0600 (Central Standard Time),778467.599999994,A,cattle,O,e,128,1,1034.2999999970198,777433.299999997,7080,WL,C,12.0
7,17.878000020980835,immed,42121.999979019165,Thu Mar 06 2025 18:36:30 GMT-0600 (Central Standard Time),778732.799999997,A,cattleenter,O,enter,241,1,1299.5,777433.299999997,7080,WL,C,12.0
7,18.194000005722046,immed,41805.999994277954,Thu Mar 06 2025 18:36:30 GMT-0600 (Central Standard Time),779049.599999994,A,l,O,l,297,1,316.59999999403954,778733.0,7080,WL,C,13.0
7,18.294000148773193,immed,41705.99985122681,Thu Mar 06 2025 18:36:30 GMT-0600 (Central Standard Time),779149.599999994,A,le,O,e,89,1,416.59999999403954,778733.0,7080,WL,C,13.0
7,18.413000106811523,immed,41586.99989318848,Thu Mar 06 2025 18:36:30 GMT-0600 (Central Standard Time),779267.900000006,A,let,O,t,112,1,534.9000000059605,778733.0,7080,WL,C,13.0
7,18.611000061035156,immed,41388.999938964844,Thu Mar 06 2025 18:36:30 GMT-0600 (Central Standard Time),779465.799999997,A,lett,O,t,184,1,732.7999999970198,778733.0,7080,WL,C,13.0
7,18.710999965667725,immed,41289.000034332275,Thu Mar 06 2025 18:36:30 GMT-0600 (Central Standard Time),779566.599999994,A,lette,O,e,83,1,833.5999999940395,778733.0,7080,WL,C,13.0
7,18.960999965667725,immed,41039.000034332275,Thu Mar 06 2025 18:36:30 GMT-0600 (Central Standard Time),779816.400000006,A,letter,O,r,228,1,1083.4000000059605,778733.0,7080,WL,C,13.0
7,19.493000030517578,immed,40506.99996948242,Thu Mar 06 2025 18:36:30 GMT-0600 (Central Standard Time),780348.200000003,A,letterenter,O,enter,508,1,1615.2000000029802,778733.0,7080,WL,C,13.0
7,19.72699999809265,immed,40273.00000190735,Thu Mar 06 2025 18:36:30 GMT-0600 (Central Standard Time),780582.400000006,A,s,O,s,216,1,233.80000001192093,780348.599999994,7080,WL,C,14.0
7,19.877000093460083,immed,40122.99990653992,Thu Mar 06 2025 18:36:30 GMT-0600 (Central Standard Time),780732.0,A,sh,O,h,144,1,383.40000000596046,780348.599999994,7080,WL,C,14.0
7,20.860000133514404,immed,39139.999866485596,Thu Mar 06 2025 18:36:30 GMT-0600 (Central Standard Time),781715.400000006,A,sho,O,o,966,1,1366.800000011921,780348.599999994,7080,WL,C,14.0
7,21.045000076293945,immed,38954.999923706055,Thu Mar 06 2025 18:36:30 GMT-0600 (Central Standard Time),781900.099999994,A,shor,O,r,179,1,1551.5,780348.599999994,7080,WL,C,14.0
7,21.111000061035156,immed,38888.999938964844,Thu Mar 06 2025 18:36:30 GMT-0600 (Central Standard Time),781965.599999994,A,shore,O,e,54,1,1617.0,780348.599999994,7080,WL,C,14.0
7,21.492000102996826,immed,38507.999897003174,Thu Mar 06 2025 18:36:30 GMT-0600 (Central Standard Time),782347.5,A,shoreenter,O,enter,377,1,1998.9000000059605,780348.599999994,7080,WL,C,14.0
7,21.92799997329712,immed,38072.00002670288,Thu Mar 06 2025 18:36:30 GMT-0600 (Central Standard Time),782783.200000003,A,b,O,b,416,1,435.5,782347.700000003,7080,WL,C,15.0
7,22.95900011062622,immed,37040.99988937378,Thu Mar 06 2025 18:36:30 GMT-0600 (Central Standard Time),783814.099999994,A,bo,O,o,1011,1,1466.3999999910593,782347.700000003,7080,WL,C,15.0
