acc_sum,block,block_c,change,condition,correct,correct_response,datetime,endtime,face,project,response,response_time,row_sel,session_number,start_end,starttime,subject_id,task,task_vers,trial
0,prac,1,,1-Back,,,Tue Nov 05 2024 16:58:53 GMT-0600 (Central Standard Time),,124_o_f_d_a.png,O,space,12869,1,1,,,7029,VNB,A,0
1,prac,1,0.0,1-Back,1,m,Tue Nov 05 2024 16:58:53 GMT-0600 (Central Standard Time),159471.5,071_y_f_n_a.png,O,m,1266,2,1,2073.7000000001863,157397.7999999998,7029,VNB,A,1
2,prac,1,0.0,1-Back,1,m,Tue Nov 05 2024 16:58:53 GMT-0600 (Central Standard Time),161671.09999999963,165_m_m_h_a.png,O,m,1387,3,1,2189.899999999441,159481.2000000002,7029,VNB,A,2
3,prac,1,0.0,1-Back,1,m,Tue Nov 05 2024 16:58:53 GMT-0600 (Central Standard Time),163720.40000000037,109_y_m_d_a.png,O,m,1236,4,1,2041.4000000003725,161679.0,7029,VNB,A,3
4,prac,1,0.0,1-Back,1,m,Tue Nov 05 2024 16:58:53 GMT-0600 (Central Standard Time),165769.59999999963,124_o_f_n_a.png,O,m,1208,5,1,2041.0999999996275,163728.5,7029,VNB,A,4
5,prac,1,1.0,1-Back,1,z,Tue Nov 05 2024 16:58:53 GMT-0600 (Central Standard Time),167602.59999999963,109_y_m_n_a.png,O,z,1017,6,1,1824.8999999994412,165777.7000000002,7029,VNB,A,5
6,prac,1,0.0,1-Back,1,m,Tue Nov 05 2024 16:58:53 GMT-0600 (Central Standard Time),169319.40000000037,039_o_m_h_a.png,O,m,912,7,1,1708.4000000003725,167611.0,7029,VNB,A,6
7,prac,1,0.0,1-Back,1,m,Tue Nov 05 2024 16:58:53 GMT-0600 (Central Standard Time),171167.7000000002,139_m_f_d_a.png,O,m,1040,8,1,1840.2000000001863,169327.5,7029,VNB,A,7
8,prac,1,1.0,1-Back,1,z,Tue Nov 05 2024 16:58:53 GMT-0600 (Central Standard Time),173217.40000000037,071_y_f_d_a.png,O,z,1114,9,1,2041.1000000005588,171176.2999999998,7029,VNB,A,8
9,prac,1,0.0,1-Back,1,m,Tue Nov 05 2024 16:58:53 GMT-0600 (Central Standard Time),174968.0,165_m_m_n_a.png,O,m,959,10,1,1742.2000000001863,173225.7999999998,7029,VNB,A,9
10,prac,1,0.0,1-Back,1,m,Tue Nov 05 2024 16:58:53 GMT-0600 (Central Standard Time),176932.7000000002,124_o_f_h_a.png,O,m,1135,11,1,1956.7999999998137,174975.90000000037,7029,VNB,A,10
11,prac,1,0.0,1-Back,1,m,Tue Nov 05 2024 16:58:53 GMT-0600 (Central Standard Time),178615.59999999963,109_y_m_d_a.png,O,m,901,12,1,1674.5999999996275,176941.0,7029,VNB,A,11
0,test,1,0.0,1-Back,,,Tue Nov 05 2024 16:58:53 GMT-0600 (Central Standard Time),178615.59999999963,071_y_f_d_a.png,O,space,6915,1,1,1674.5999999996275,176941.0,7029,VNB,A,0
1,test,1,0.0,1-Back,1,m,Tue Nov 05 2024 16:58:53 GMT-0600 (Central Standard Time),210572.40000000037,139_m_f_n_a.png,O,m,1231,2,1,2240.800000000745,208331.59999999963,7029,VNB,A,1
2,test,1,0.0,1-Back,1,m,Tue Nov 05 2024 16:58:53 GMT-0600 (Central Standard Time),212488.2999999998,039_o_m_h_a.png,O,m,885,3,1,1909.0999999996275,210579.2000000002,7029,VNB,A,2
3,test,1,1.0,1-Back,1,z,Tue Nov 05 2024 16:58:53 GMT-0600 (Central Standard Time),214071.09999999963,165_m_m_h_a.png,O,z,562,4,1,1575.3999999994412,212495.7000000002,7029,VNB,A,3
4,test,1,0.0,1-Back,1,m,Tue Nov 05 2024 16:58:53 GMT-0600 (Central Standard Time),215803.90000000037,124_o_f_n_a.png,O,m,714,5,1,1725.800000000745,214078.09999999963,7029,VNB,A,4
5,test,1,0.0,1-Back,1,m,Tue Nov 05 2024 16:58:53 GMT-0600 (Central Standard Time),217721.0,109_y_m_d_a.png,O,m,885,6,1,1909.5,215811.5,7029,VNB,A,5
6,test,1,1.0,1-Back,1,z,Tue Nov 05 2024 16:58:53 GMT-0600 (Central Standard Time),220185.7999999998,139_m_f_d_a.png,O,z,1440,7,1,2457.2999999998137,217728.5,7029,VNB,A,6
7,test,1,0.0,1-Back,1,m,Tue Nov 05 2024 16:58:53 GMT-0600 (Central Standard Time),222201.7999999998,071_y_f_h_a.png,O,m,983,8,1,2009.0,220192.7999999998,7029,VNB,A,7
7,test,1,0.0,1-Back,0,m,Tue Nov 05 2024 16:58:53 GMT-0600 (Central Standard Time),224334.5,039_o_m_n_a.png,O,z,1105,9,1,2125.5999999996275,222208.90000000037,7029,VNB,A,8
8,test,1,0.0,1-Back,1,m,Tue Nov 05 2024 16:58:53 GMT-0600 (Central Standard Time),226917.2000000002,109_y_m_h_a.png,O,m,1564,10,1,2575.7999999998137,224341.40000000037,7029,VNB,A,9
9,test,1,0.0,1-Back,1,m,Tue Nov 05 2024 16:58:53 GMT-0600 (Central Standard Time),229116.5,039_o_m_d_a.png,O,m,1173,11,1,2192.4000000003725,226924.09999999963,7029,VNB,A,10
10,test,1,1.0,1-Back,1,z,Tue Nov 05 2024 16:58:53 GMT-0600 (Central Standard Time),230682.5,124_o_f_d_a.png,O,z,541,12,1,1559.2000000001863,229123.2999999998,7029,VNB,A,11
11,test,1,0.0,1-Back,1,m,Tue Nov 05 2024 16:58:53 GMT-0600 (Central Standard Time),232781.7999999998,165_m_m_n_a.png,O,m,1080,13,1,2091.0999999996275,230690.7000000002,7029,VNB,A,12
12,test,1,1.0,1-Back,1,z,Tue Nov 05 2024 16:58:53 GMT-0600 (Central Standard Time),234831.40000000037,071_y_f_n_a.png,O,z,1028,14,1,2042.7000000001863,232788.7000000002,7029,VNB,A,13
13,test,1,0.0,1-Back,1,m,Tue Nov 05 2024 16:58:53 GMT-0600 (Central Standard Time),236830.40000000037,139_m_f_h_a.png,O,m,978,15,1,1991.5,234838.90000000037,7029,VNB,A,14
14,test,1,0.0,1-Back,1,m,Tue Nov 05 2024 16:58:53 GMT-0600 (Central Standard Time),238996.5,165_m_m_d_a.png,O,m,1148,16,1,2159.2000000001863,236837.2999999998,7029,VNB,A,15
15,test,1,0.0,1-Back,1,m,Tue Nov 05 2024 16:58:53 GMT-0600 (Central Standard Time),241512.5,109_y_m_n_a.png,O,m,1493,17,1,2508.4000000003725,239004.09999999963,7029,VNB,A,16
16,test,1,0.0,1-Back,1,m,Tue Nov 05 2024 16:58:53 GMT-0600 (Central Standard Time),243645.09999999963,124_o_f_h_a.png,O,m,1105,18,1,2125.7999999998137,241519.2999999998,7029,VNB,A,17
0,test,2,0.0,1-Back,,,Tue Nov 05 2024 16:58:53 GMT-0600 (Central Standard Time),243645.09999999963,109_y_m_n_a.png,O,space,3525,1,1,2125.7999999998137,241519.2999999998,7029,VNB,A,0
1,test,2,0.0,1-Back,1,m,Tue Nov 05 2024 16:58:53 GMT-0600 (Central Standard Time),251243.0,071_y_f_h_a.png,O,m,1000,2,1,2025.5999999996275,249217.40000000037,7029,VNB,A,1
2,test,2,1.0,1-Back,1,m,Tue Nov 05 2024 16:58:53 GMT-0600 (Central Standard Time),253342.09999999963,039_o_m_n_a.png,O,m,1071,3,1,2092.699999999255,251249.40000000037,7029,VNB,A,2
3,test,2,0.0,1-Back,1,m,Tue Nov 05 2024 16:58:53 GMT-0600 (Central Standard Time),255457.90000000037,139_m_f_d_a.png,O,m,1083,4,1,2108.7000000001863,253349.2000000002,7029,VNB,A,3
4,test,2,0.0,1-Back,1,z,Tue Nov 05 2024 16:58:53 GMT-0600 (Central Standard Time),257257.59999999963,165_m_m_d_a.png,O,z,767,5,1,1792.2999999998137,255465.2999999998,7029,VNB,A,4
5,test,2,0.0,1-Back,1,m,Tue Nov 05 2024 16:58:53 GMT-0600 (Central Standard Time),259540.0,109_y_m_h_a.png,O,m,1264,6,1,2275.2999999998137,257264.7000000002,7029,VNB,A,5
6,test,2,1.0,1-Back,1,z,Tue Nov 05 2024 16:58:53 GMT-0600 (Central Standard Time),261856.09999999963,124_o_f_h_a.png,O,z,1293,7,1,2308.899999999441,259547.2000000002,7029,VNB,A,6
7,test,2,0.0,1-Back,1,m,Tue Nov 05 2024 16:58:53 GMT-0600 (Central Standard Time),264505.0999999996,139_m_f_n_a.png,O,m,1617,8,1,2641.699999999255,261863.40000000037,7029,VNB,A,7
8,test,2,0.0,1-Back,1,m,Tue Nov 05 2024 16:58:53 GMT-0600 (Central Standard Time),266721.0,071_y_f_d_a.png,O,m,1186,9,1,2208.7999999998137,264512.2000000002,7029,VNB,A,8
9,test,2,0.0,1-Back,1,m,Tue Nov 05 2024 16:58:53 GMT-0600 (Central Standard Time),268553.7999999998,165_m_m_n_a.png,O,m,800,10,1,1823.2000000001863,266730.5999999996,7029,VNB,A,9
10,test,2,1.0,1-Back,1,m,Tue Nov 05 2024 16:58:53 GMT-0600 (Central Standard Time),270603.2000000002,139_m_f_h_a.png,O,m,1031,11,1,2042.1000000005588,268561.0999999996,7029,VNB,A,10
11,test,2,0.0,1-Back,1,z,Tue Nov 05 2024 16:58:53 GMT-0600 (Central Standard Time),272602.5999999996,039_o_m_h_a.png,O,z,982,12,1,1992.0,270610.5999999996,7029,VNB,A,11
12,test,2,0.0,1-Back,1,m,Tue Nov 05 2024 16:58:53 GMT-0600 (Central Standard Time),274552.0,109_y_m_d_a.png,O,m,928,13,1,1941.7000000001863,272610.2999999998,7029,VNB,A,12
13,test,2,0.0,1-Back,1,m,Tue Nov 05 2024 16:58:53 GMT-0600 (Central Standard Time),276884.5999999996,124_o_f_n_a.png,O,m,1313,14,1,2324.7999999998137,274559.7999999998,7029,VNB,A,13
14,test,2,0.0,1-Back,1,z,Tue Nov 05 2024 16:58:53 GMT-0600 (Central Standard Time),279001.9000000004,071_y_f_n_a.png,O,z,1093,15,1,2110.100000000559,276891.7999999998,7029,VNB,A,14
15,test,2,1.0,1-Back,1,m,Tue Nov 05 2024 16:58:53 GMT-0600 (Central Standard Time),280950.0999999996,165_m_m_h_a.png,O,m,929,16,1,1941.0999999996275,279009.0,7029,VNB,A,15
15,test,2,0.0,1-Back,0,m,Tue Nov 05 2024 16:58:53 GMT-0600 (Central Standard Time),283016.2000000002,124_o_f_d_a.png,O,z,1035,17,1,2059.2000000001863,280957.0,7029,VNB,A,16
16,test,2,1.0,1-Back,1,z,Tue Nov 05 2024 16:58:53 GMT-0600 (Central Standard Time),285115.5999999996,039_o_m_d_a.png,O,z,1073,18,1,2091.699999999255,283023.9000000004,7029,VNB,A,17
0,test,3,1.0,1-Back,,,Tue Nov 05 2024 16:58:53 GMT-0600 (Central Standard Time),285115.5999999996,124_o_f_h_a.png,O,space,1150,1,1,2091.699999999255,283023.9000000004,7029,VNB,A,0
1,test,3,0.0,1-Back,1,m,Tue Nov 05 2024 16:58:53 GMT-0600 (Central Standard Time),290225.0,139_m_f_d_a.png,O,m,877,2,1,1886.5999999996275,288338.4000000004,7029,VNB,A,1
2,test,3,1.0,1-Back,1,m,Tue Nov 05 2024 16:58:53 GMT-0600 (Central Standard Time),292280.0,165_m_m_n_a.png,O,m,1027,3,1,2043.5999999996275,290236.4000000004,7029,VNB,A,2
3,test,3,0.0,1-Back,1,z,Tue Nov 05 2024 16:58:53 GMT-0600 (Central Standard Time),294295.7999999998,124_o_f_n_a.png,O,z,985,4,1,2008.5999999996275,292287.2000000002,7029,VNB,A,3
4,test,3,1.0,1-Back,1,m,Tue Nov 05 2024 16:58:53 GMT-0600 (Central Standard Time),296312.0999999996,039_o_m_d_a.png,O,m,995,5,1,2009.199999999255,294302.9000000004,7029,VNB,A,4
5,test,3,0.0,1-Back,1,m,Tue Nov 05 2024 16:58:53 GMT-0600 (Central Standard Time),298378.0,071_y_f_h_a.png,O,m,1033,6,1,2058.7000000001863,296319.2999999998,7029,VNB,A,5
6,test,3,0.0,1-Back,1,z,Tue Nov 05 2024 16:58:53 GMT-0600 (Central Standard Time),300194.7000000002,109_y_m_h_a.png,O,z,800,7,1,1809.5,298385.2000000002,7029,VNB,A,6
7,test,3,0.0,1-Back,1,m,Tue Nov 05 2024 16:58:53 GMT-0600 (Central Standard Time),302110.2999999998,139_m_f_n_a.png,O,m,895,8,1,1908.0999999996275,300202.2000000002,7029,VNB,A,7
8,test,3,0.0,1-Back,1,m,Tue Nov 05 2024 16:58:53 GMT-0600 (Central Standard Time),304159.5,071_y_f_d_a.png,O,m,1019,9,1,2042.0,302117.5,7029,VNB,A,8
9,test,3,1.0,1-Back,1,m,Tue Nov 05 2024 16:58:53 GMT-0600 (Central Standard Time),306242.4000000004,039_o_m_n_a.png,O,m,1050,10,1,2075.5,304166.9000000004,7029,VNB,A,9
10,test,3,0.0,1-Back,1,m,Tue Nov 05 2024 16:58:53 GMT-0600 (Central Standard Time),308641.4000000004,165_m_m_h_a.png,O,m,1367,11,1,2391.600000000559,306249.7999999998,7029,VNB,A,10
11,test,3,0.0,1-Back,1,z,Tue Nov 05 2024 16:58:53 GMT-0600 (Central Standard Time),310557.5999999996,139_m_f_h_a.png,O,z,889,12,1,1908.7999999998137,308648.7999999998,7029,VNB,A,11
12,test,3,1.0,1-Back,1,m,Tue Nov 05 2024 16:58:53 GMT-0600 (Central Standard Time),312407.0,124_o_f_d_a.png,O,m,821,13,1,1842.0999999996275,310564.9000000004,7029,VNB,A,12
13,test,3,0.0,1-Back,1,z,Tue Nov 05 2024 16:58:53 GMT-0600 (Central Standard Time),314139.2999999998,165_m_m_d_a.png,O,z,715,14,1,1724.7999999998137,312414.5,7029,VNB,A,13
14,test,3,0.0,1-Back,1,m,Tue Nov 05 2024 16:58:53 GMT-0600 (Central Standard Time),316722.0999999996,109_y_m_n_a.png,O,m,1550,15,1,2575.5999999996275,314146.5,7029,VNB,A,14
15,test,3,1.0,1-Back,1,m,Tue Nov 05 2024 16:58:53 GMT-0600 (Central Standard Time),318606.0999999996,039_o_m_h_a.png,O,m,863,16,1,1876.0999999996275,316730.0,7029,VNB,A,15
16,test,3,0.0,1-Back,1,m,Tue Nov 05 2024 16:58:53 GMT-0600 (Central Standard Time),320370.9000000004,109_y_m_d_a.png,O,m,748,17,1,1757.9000000003725,318613.0,7029,VNB,A,16
17,test,3,1.0,1-Back,1,m,Tue Nov 05 2024 16:58:53 GMT-0600 (Central Standard Time),322703.7000000002,071_y_f_n_a.png,O,m,1302,18,1,2325.9000000003725,320377.7999999998,7029,VNB,A,17
0,test,4,1.0,1-Back,,,Tue Nov 05 2024 16:58:53 GMT-0600 (Central Standard Time),322703.7000000002,165_m_m_d_a.png,O,space,1002,1,1,2325.9000000003725,320377.7999999998,7029,VNB,A,0
1,test,4,0.0,1-Back,1,z,Tue Nov 05 2024 16:58:53 GMT-0600 (Central Standard Time),328485.2000000002,039_o_m_d_a.png,O,z,1730,2,1,2741.600000000559,325743.5999999996,7029,VNB,A,1
2,test,4,0.0,1-Back,1,m,Tue Nov 05 2024 16:58:53 GMT-0600 (Central Standard Time),330484.2999999998,109_y_m_h_a.png,O,m,981,3,1,1991.3999999994412,328492.9000000004,7029,VNB,A,2
3,test,4,0.0,1-Back,1,m,Tue Nov 05 2024 16:58:53 GMT-0600 (Central Standard Time),332433.9000000004,139_m_f_n_a.png,O,m,917,4,1,1942.1000000005588,330491.7999999998,7029,VNB,A,3
4,test,4,1.0,1-Back,1,m,Tue Nov 05 2024 16:58:53 GMT-0600 (Central Standard Time),334333.0,124_o_f_h_a.png,O,m,880,5,1,1891.9000000003725,332441.0999999996,7029,VNB,A,4
5,test,4,0.0,1-Back,1,m,Tue Nov 05 2024 16:58:53 GMT-0600 (Central Standard Time),336399.2999999998,165_m_m_n_a.png,O,m,1037,6,1,2059.2000000001863,334340.0999999996,7029,VNB,A,5
6,test,4,0.0,1-Back,1,m,Tue Nov 05 2024 16:58:53 GMT-0600 (Central Standard Time),338648.5999999996,109_y_m_d_a.png,O,m,1218,7,1,2242.199999999255,336406.4000000004,7029,VNB,A,6
7,test,4,1.0,1-Back,1,z,Tue Nov 05 2024 16:58:53 GMT-0600 (Central Standard Time),340598.2000000002,071_y_f_d_a.png,O,z,930,8,1,1941.9000000003725,338656.2999999998,7029,VNB,A,7
8,test,4,0.0,1-Back,1,m,Tue Nov 05 2024 16:58:53 GMT-0600 (Central Standard Time),342564.2000000002,139_m_f_h_a.png,O,m,948,9,1,1958.2000000001863,340606.0,7029,VNB,A,8
9,test,4,0.0,1-Back,1,z,Tue Nov 05 2024 16:58:53 GMT-0600 (Central Standard Time),344446.4000000004,039_o_m_h_a.png,O,z,854,10,1,1875.4000000003725,342571.0,7029,VNB,A,9
10,test,4,1.0,1-Back,1,m,Tue Nov 05 2024 16:58:53 GMT-0600 (Central Standard Time),346395.7999999998,124_o_f_n_a.png,O,m,923,11,1,1940.7999999998137,344455.0,7029,VNB,A,10
11,test,4,0.0,1-Back,1,m,Tue Nov 05 2024 16:58:53 GMT-0600 (Central Standard Time),348661.7999999998,139_m_f_d_a.png,O,m,1238,12,1,2258.399999999441,346403.4000000004,7029,VNB,A,11
12,test,4,0.0,1-Back,1,m,Tue Nov 05 2024 16:58:53 GMT-0600 (Central Standard Time),350711.2000000002,071_y_f_n_a.png,O,m,1027,13,1,2042.2999999998137,348668.9000000004,7029,VNB,A,12
13,test,4,0.0,1-Back,1,m,Tue Nov 05 2024 16:58:53 GMT-0600 (Central Standard Time),352593.7999999998,124_o_f_d_a.png,O,m,850,14,1,1875.5,350718.2999999998,7029,VNB,A,13
14,test,4,0.0,1-Back,1,m,Tue Nov 05 2024 16:58:53 GMT-0600 (Central Standard Time),354593.2000000002,071_y_f_h_a.png,O,m,968,15,1,1992.0,352601.2000000002,7029,VNB,A,14
15,test,4,1.0,1-Back,1,z,Tue Nov 05 2024 16:58:53 GMT-0600 (Central Standard Time),356642.5,165_m_m_h_a.png,O,z,1024,16,1,2040.9000000003725,354601.5999999996,7029,VNB,A,15
16,test,4,0.0,1-Back,1,m,Tue Nov 05 2024 16:58:53 GMT-0600 (Central Standard Time),358475.2999999998,039_o_m_n_a.png,O,m,807,17,1,1825.2000000001863,356650.0999999996,7029,VNB,A,16
17,test,4,1.0,1-Back,1,z,Tue Nov 05 2024 16:58:53 GMT-0600 (Central Standard Time),360442.2999999998,109_y_m_n_a.png,O,z,950,18,1,1959.3999999994412,358482.9000000004,7029,VNB,A,17
0,test,5,1.0,1-Back,,,Tue Nov 05 2024 16:58:53 GMT-0600 (Central Standard Time),360442.2999999998,039_o_m_n_a.png,O,space,1111,1,1,1959.3999999994412,358482.9000000004,7029,VNB,A,0
1,test,5,1.0,1-Back,1,m,Tue Nov 05 2024 16:58:53 GMT-0600 (Central Standard Time),365473.4000000004,124_o_f_h_a.png,O,m,868,2,1,1888.1000000005588,363585.2999999998,7029,VNB,A,1
1,test,5,0.0,1-Back,0,m,Tue Nov 05 2024 16:58:53 GMT-0600 (Central Standard Time),368205.7999999998,109_y_m_d_a.png,O,z,1712,3,1,2723.899999999441,365481.9000000004,7029,VNB,A,2
2,test,5,0.0,1-Back,1,z,Tue Nov 05 2024 16:58:53 GMT-0600 (Central Standard Time),370421.5999999996,039_o_m_d_a.png,O,z,1196,4,1,2207.899999999441,368213.7000000002,7029,VNB,A,3
3,test,5,0.0,1-Back,1,m,Tue Nov 05 2024 16:58:53 GMT-0600 (Central Standard Time),372471.0,139_m_f_h_a.png,O,m,1020,5,1,2040.7000000001863,370430.2999999998,7029,VNB,A,4
3,test,5,0.0,1-Back,0,m,Tue Nov 05 2024 16:58:53 GMT-0600 (Central Standard Time),374170.5,071_y_f_n_a.png,O,z,682,6,1,1691.9000000003725,372478.5999999996,7029,VNB,A,5
3,test,5,1.0,1-Back,0,z,Tue Nov 05 2024 16:58:53 GMT-0600 (Central Standard Time),377202.9000000004,124_o_f_n_a.png,O,None,2016,7,1,3024.800000000745,374178.0999999996,7029,VNB,A,6
4,test,5,0.0,1-Back,1,m,Tue Nov 05 2024 16:58:53 GMT-0600 (Central Standard Time),379252.2000000002,139_m_f_d_a.png,O,m,1031,8,1,2041.7999999998137,377210.4000000004,7029,VNB,A,7
5,test,5,0.0,1-Back,1,m,Tue Nov 05 2024 16:58:53 GMT-0600 (Central Standard Time),381484.7999999998,109_y_m_h_a.png,O,m,1205,9,1,2224.7000000001863,379260.0999999996,7029,VNB,A,8
6,test,5,0.0,1-Back,1,m,Tue Nov 05 2024 16:58:53 GMT-0600 (Central Standard Time),383817.2999999998,071_y_f_d_a.png,O,m,1309,10,1,2324.5999999996275,381492.7000000002,7029,VNB,A,9
7,test,5,0.0,1-Back,1,m,Tue Nov 05 2024 16:58:53 GMT-0600 (Central Standard Time),386216.7999999998,165_m_m_n_a.png,O,m,1376,11,1,2392.0999999996275,383824.7000000002,7029,VNB,A,10
8,test,5,1.0,1-Back,1,z,Tue Nov 05 2024 16:58:53 GMT-0600 (Central Standard Time),388066.4000000004,139_m_f_n_a.png,O,z,825,12,1,1841.800000000745,386224.5999999996,7029,VNB,A,11
9,test,5,0.0,1-Back,1,m,Tue Nov 05 2024 16:58:53 GMT-0600 (Central Standard Time),390282.5,039_o_m_h_a.png,O,m,1199,13,1,2207.5,388075.0,7029,VNB,A,12
10,test,5,0.0,1-Back,1,z,Tue Nov 05 2024 16:58:53 GMT-0600 (Central Standard Time),392081.7000000002,165_m_m_h_a.png,O,z,767,14,1,1791.9000000003725,390289.7999999998,7029,VNB,A,13
11,test,5,1.0,1-Back,1,m,Tue Nov 05 2024 16:58:53 GMT-0600 (Central Standard Time),393914.5999999996,124_o_f_d_a.png,O,m,808,15,1,1825.699999999255,392088.9000000004,7029,VNB,A,14
12,test,5,0.0,1-Back,1,m,Tue Nov 05 2024 16:58:53 GMT-0600 (Central Standard Time),395630.7999999998,109_y_m_n_a.png,O,m,687,16,1,1709.0999999996275,393921.7000000002,7029,VNB,A,15
13,test,5,0.0,1-Back,1,m,Tue Nov 05 2024 16:58:53 GMT-0600 (Central Standard Time),397496.7999999998,071_y_f_h_a.png,O,m,835,17,1,1858.5999999996275,395638.2000000002,7029,VNB,A,16
14,test,5,0.0,1-Back,1,m,Tue Nov 05 2024 16:58:53 GMT-0600 (Central Standard Time),399213.9000000004,165_m_m_d_a.png,O,m,696,18,1,1709.7000000001863,397504.2000000002,7029,VNB,A,17
0,prac,1,0.0,2-Back,,,Tue Nov 05 2024 16:58:53 GMT-0600 (Central Standard Time),399213.9000000004,139_m_f_n_a.png,O,space,11064,1,1,1709.7000000001863,397504.2000000002,7029,VNB,A,0
0,prac,1,0.0,2-Back,,,Tue Nov 05 2024 16:58:53 GMT-0600 (Central Standard Time),399213.9000000004,124_o_f_h_a.png,O,space,11064,2,1,1709.7000000001863,397504.2000000002,7029,VNB,A,0
1,prac,1,0.0,2-Back,1,m,Tue Nov 05 2024 16:58:53 GMT-0600 (Central Standard Time),514044.0,039_o_m_d_a.png,O,m,1622,3,1,2424.5,511619.5,7029,VNB,A,1
1,prac,1,1.0,2-Back,0,z,Tue Nov 05 2024 16:58:53 GMT-0600 (Central Standard Time),516859.5,165_m_m_h_a.png,O,None,2013,4,1,2807.0999999996275,514052.4000000004,7029,VNB,A,2
1,prac,1,0.0,2-Back,0,m,Tue Nov 05 2024 16:58:53 GMT-0600 (Central Standard Time),519675.0999999996,071_y_f_n_a.png,O,None,2016,5,1,2807.5,516867.5999999996,7029,VNB,A,3
1,prac,1,1.0,2-Back,0,z,Tue Nov 05 2024 16:58:53 GMT-0600 (Central Standard Time),521958.0,039_o_m_h_a.png,O,m,1477,6,1,2273.9000000003725,519684.0999999996,7029,VNB,A,4
2,prac,1,1.0,2-Back,1,z,Tue Nov 05 2024 16:58:53 GMT-0600 (Central Standard Time),524473.7000000002,109_y_m_n_a.png,O,z,1702,7,1,2507.9000000003725,521965.7999999998,7029,VNB,A,5
3,prac,1,0.0,2-Back,1,m,Tue Nov 05 2024 16:58:53 GMT-0600 (Central Standard Time),526639.7999999998,139_m_f_d_a.png,O,m,1340,8,1,2156.899999999441,524482.9000000004,7029,VNB,A,6
3,prac,1,0.0,2-Back,0,m,Tue Nov 05 2024 16:58:53 GMT-0600 (Central Standard Time),528622.4000000004,124_o_f_d_a.png,O,z,1137,9,1,1974.300000000745,526648.0999999996,7029,VNB,A,7
4,prac,1,0.0,2-Back,1,m,Tue Nov 05 2024 16:58:53 GMT-0600 (Central Standard Time),530588.7000000002,165_m_m_h_a.png,O,m,1187,10,1,1956.9000000003725,528631.7999999998,7029,VNB,A,8
5,prac,1,1.0,2-Back,1,z,Tue Nov 05 2024 16:58:53 GMT-0600 (Central Standard Time),533287.7000000002,071_y_f_d_a.png,O,z,1892,11,1,2690.4000000003725,530597.2999999998,7029,VNB,A,9
5,prac,1,0.0,2-Back,0,m,Tue Nov 05 2024 16:58:53 GMT-0600 (Central Standard Time),536103.2000000002,039_o_m_n_a.png,O,None,2017,12,1,2806.7000000001863,533296.5,7029,VNB,A,10
0,prac,2,0.0,2-Back,,,Tue Nov 05 2024 16:58:53 GMT-0600 (Central Standard Time),536103.2000000002,139_m_f_n_a.png,O,a,9440,1,1,2806.7000000001863,533296.5,7029,VNB,A,0
0,prac,2,0.0,2-Back,,,Tue Nov 05 2024 16:58:53 GMT-0600 (Central Standard Time),536103.2000000002,124_o_f_h_a.png,O,a,9440,2,1,2806.7000000001863,533296.5,7029,VNB,A,0
1,prac,2,0.0,2-Back,1,m,Tue Nov 05 2024 16:58:53 GMT-0600 (Central Standard Time),552631.5999999996,039_o_m_d_a.png,O,m,1178,3,1,1975.0,550656.5999999996,7029,VNB,A,1
2,prac,2,1.0,2-Back,1,z,Tue Nov 05 2024 16:58:53 GMT-0600 (Central Standard Time),554764.2000000002,165_m_m_h_a.png,O,z,1346,4,1,2124.100000000559,552640.0999999996,7029,VNB,A,2
2,prac,2,0.0,2-Back,0,m,Tue Nov 05 2024 16:58:53 GMT-0600 (Central Standard Time),557113.5999999996,071_y_f_n_a.png,O,z,1540,5,1,2341.5,554772.0999999996,7029,VNB,A,3
3,prac,2,1.0,2-Back,1,z,Tue Nov 05 2024 16:58:53 GMT-0600 (Central Standard Time),559579.7000000002,039_o_m_h_a.png,O,z,1663,6,1,2457.0,557122.7000000002,7029,VNB,A,4
4,prac,2,1.0,2-Back,1,z,Tue Nov 05 2024 16:58:53 GMT-0600 (Central Standard Time),562028.7999999998,109_y_m_n_a.png,O,z,1629,7,1,2439.7000000001863,559589.0999999996,7029,VNB,A,5
4,prac,2,0.0,2-Back,0,m,Tue Nov 05 2024 16:58:53 GMT-0600 (Central Standard Time),564844.4000000004,139_m_f_d_a.png,O,None,2015,8,1,2807.0,562037.4000000004,7029,VNB,A,6
5,prac,2,0.0,2-Back,1,m,Tue Nov 05 2024 16:58:53 GMT-0600 (Central Standard Time),567593.5999999996,124_o_f_d_a.png,O,m,1907,9,1,2740.7999999998137,564852.7999999998,7029,VNB,A,7
5,prac,2,0.0,2-Back,0,m,Tue Nov 05 2024 16:58:53 GMT-0600 (Central Standard Time),569559.2999999998,165_m_m_h_a.png,O,z,1184,10,1,1957.3999999994412,567601.9000000004,7029,VNB,A,8
5,prac,2,1.0,2-Back,0,z,Tue Nov 05 2024 16:58:53 GMT-0600 (Central Standard Time),572125.5999999996,071_y_f_d_a.png,O,m,1760,11,1,2557.5,569568.0999999996,7029,VNB,A,9
5,prac,2,0.0,2-Back,0,m,Tue Nov 05 2024 16:58:53 GMT-0600 (Central Standard Time),574941.2000000002,039_o_m_n_a.png,O,None,2016,12,1,2806.9000000003725,572134.2999999998,7029,VNB,A,10
0,test,1,0.0,2-Back,,,Tue Nov 05 2024 16:58:53 GMT-0600 (Central Standard Time),574941.2000000002,109_y_m_h_a.png,O,space,16786,1,1,2806.9000000003725,572134.2999999998,7029,VNB,A,0
0,test,1,0.0,2-Back,,,Tue Nov 05 2024 16:58:53 GMT-0600 (Central Standard Time),574941.2000000002,124_o_f_n_a.png,O,space,16786,2,1,2806.9000000003725,572134.2999999998,7029,VNB,A,0
1,test,1,0.0,2-Back,1,z,Tue Nov 05 2024 16:58:53 GMT-0600 (Central Standard Time),622009.7000000002,039_o_m_h_a.png,O,z,1225,3,1,2243.7000000001863,619766.0,7029,VNB,A,1
2,test,1,0.0,2-Back,1,m,Tue Nov 05 2024 16:58:53 GMT-0600 (Central Standard Time),624109.2999999998,139_m_f_d_a.png,O,m,1080,4,1,2092.0999999996275,622017.2000000002,7029,VNB,A,2
3,test,1,1.0,2-Back,1,m,Tue Nov 05 2024 16:58:53 GMT-0600 (Central Standard Time),626325.2000000002,109_y_m_n_a.png,O,m,1196,5,1,2209.2000000001863,624116.0,7029,VNB,A,3
4,test,1,0.0,2-Back,1,z,Tue Nov 05 2024 16:58:53 GMT-0600 (Central Standard Time),629324.2000000002,071_y_f_d_a.png,O,z,1980,6,1,2991.9000000003725,626332.2999999998,7029,VNB,A,4
4,test,1,0.0,2-Back,0,m,Tue Nov 05 2024 16:58:53 GMT-0600 (Central Standard Time),631839.9000000004,165_m_m_h_a.png,O,z,1485,7,1,2508.2000000001863,629331.7000000002,7029,VNB,A,5
5,test,1,1.0,2-Back,1,m,Tue Nov 05 2024 16:58:53 GMT-0600 (Central Standard Time),634122.7000000002,071_y_f_n_a.png,O,m,1266,8,1,2275.5,631847.2000000002,7029,VNB,A,6
6,test,1,0.0,2-Back,1,z,Tue Nov 05 2024 16:58:53 GMT-0600 (Central Standard Time),637071.7000000002,124_o_f_h_a.png,O,z,1920,9,1,2941.7999999998137,634129.9000000004,7029,VNB,A,7
7,test,1,0.0,2-Back,1,m,Tue Nov 05 2024 16:58:53 GMT-0600 (Central Standard Time),639504.2000000002,039_o_m_d_a.png,O,m,1410,10,1,2425.2999999998137,637078.9000000004,7029,VNB,A,8
7,test,1,1.0,2-Back,0,m,Tue Nov 05 2024 16:58:53 GMT-0600 (Central Standard Time),641387.0,165_m_m_d_a.png,O,z,866,11,1,1875.2999999998137,639511.7000000002,7029,VNB,A,9
8,test,1,0.0,2-Back,1,m,Tue Nov 05 2024 16:58:53 GMT-0600 (Central Standard Time),643585.9000000004,139_m_f_n_a.png,O,m,1166,12,1,2191.100000000559,641394.7999999998,7029,VNB,A,10
9,test,1,0.0,2-Back,1,m,Tue Nov 05 2024 16:58:53 GMT-0600 (Central Standard Time),645802.2999999998,071_y_f_h_a.png,O,m,1192,13,1,2209.399999999441,643592.9000000004,7029,VNB,A,11
10,test,1,0.0,2-Back,1,z,Tue Nov 05 2024 16:58:53 GMT-0600 (Central Standard Time),647735.0999999996,165_m_m_n_a.png,O,z,904,14,1,1925.3999999994412,645809.7000000002,7029,VNB,A,12
10,test,1,0.0,2-Back,0,m,Tue Nov 05 2024 16:58:53 GMT-0600 (Central Standard Time),649901.0,109_y_m_d_a.png,O,z,1146,15,1,2158.4000000003725,647742.5999999996,7029,VNB,A,13
11,test,1,1.0,2-Back,1,m,Tue Nov 05 2024 16:58:53 GMT-0600 (Central Standard Time),651683.7000000002,139_m_f_h_a.png,O,m,757,16,1,1774.5,649909.2000000002,7029,VNB,A,14
11,test,1,0.0,2-Back,0,z,Tue Nov 05 2024 16:58:53 GMT-0600 (Central Standard Time),653583.2000000002,124_o_f_d_a.png,O,m,869,17,1,1892.0,651691.2000000002,7029,VNB,A,15
12,test,1,0.0,2-Back,1,m,Tue Nov 05 2024 16:58:53 GMT-0600 (Central Standard Time),655732.2999999998,039_o_m_n_a.png,O,m,1131,18,1,2141.0999999996275,653591.2000000002,7029,VNB,A,16
0,test,2,0.0,2-Back,,,Tue Nov 05 2024 16:58:53 GMT-0600 (Central Standard Time),655732.2999999998,165_m_m_h_a.png,O,space,5206,1,1,2141.0999999996275,653591.2000000002,7029,VNB,A,0
0,test,2,0.0,2-Back,,,Tue Nov 05 2024 16:58:53 GMT-0600 (Central Standard Time),655732.2999999998,071_y_f_n_a.png,O,space,5206,2,1,2141.0999999996275,653591.2000000002,7029,VNB,A,0
1,test,2,1.0,2-Back,1,z,Tue Nov 05 2024 16:58:53 GMT-0600 (Central Standard Time),668328.7000000002,124_o_f_h_a.png,O,z,1267,3,1,2292.4000000003725,666036.2999999998,7029,VNB,A,1
2,test,2,0.0,2-Back,1,m,Tue Nov 05 2024 16:58:53 GMT-0600 (Central Standard Time),670444.5,039_o_m_d_a.png,O,m,1090,4,1,2108.2999999998137,668336.2000000002,7029,VNB,A,2
3,test,2,0.0,2-Back,1,m,Tue Nov 05 2024 16:58:53 GMT-0600 (Central Standard Time),672577.2999999998,139_m_f_d_a.png,O,m,1102,5,1,2125.7999999998137,670451.5,7029,VNB,A,3
3,test,2,0.0,2-Back,0,m,Tue Nov 05 2024 16:58:53 GMT-0600 (Central Standard Time),675609.5999999996,109_y_m_h_a.png,O,None,2015,6,1,3025.199999999255,672584.4000000004,7029,VNB,A,4
3,test,2,0.0,2-Back,0,m,Tue Nov 05 2024 16:58:53 GMT-0600 (Central Standard Time),678092.0999999996,124_o_f_n_a.png,O,z,1456,7,1,2475.5,675616.5999999996,7029,VNB,A,5
3,test,2,1.0,2-Back,0,z,Tue Nov 05 2024 16:58:53 GMT-0600 (Central Standard Time),680241.5,039_o_m_h_a.png,O,m,1117,8,1,2142.5,678099.0,7029,VNB,A,6
3,test,2,0.0,2-Back,0,m,Tue Nov 05 2024 16:58:53 GMT-0600 (Central Standard Time),682690.5999999996,071_y_f_d_a.png,O,z,1417,9,1,2441.899999999441,680248.7000000002,7029,VNB,A,7
4,test,2,0.0,2-Back,1,m,Tue Nov 05 2024 16:58:53 GMT-0600 (Central Standard Time),685106.4000000004,109_y_m_d_a.png,O,m,1383,10,1,2408.600000000559,682697.7999999998,7029,VNB,A,8
4,test,2,0.0,2-Back,0,m,Tue Nov 05 2024 16:58:53 GMT-0600 (Central Standard Time),687372.5,165_m_m_n_a.png,O,z,1239,11,1,2258.5999999996275,685113.9000000004,7029,VNB,A,9
4,test,2,0.0,2-Back,0,m,Tue Nov 05 2024 16:58:53 GMT-0600 (Central Standard Time),689521.7999999998,139_m_f_h_a.png,O,z,1117,12,1,2141.7999999998137,687380.0,7029,VNB,A,10
4,test,2,1.0,2-Back,0,z,Tue Nov 05 2024 16:58:53 GMT-0600 (Central Standard Time),691871.2999999998,039_o_m_n_a.png,O,m,1312,13,1,2342.399999999441,689528.9000000004,7029,VNB,A,11
5,test,2,0.0,2-Back,1,m,Tue Nov 05 2024 16:58:53 GMT-0600 (Central Standard Time),694170.7000000002,124_o_f_d_a.png,O,m,1275,14,1,2292.0,691878.7000000002,7029,VNB,A,12
5,test,2,0.0,2-Back,0,m,Tue Nov 05 2024 16:58:53 GMT-0600 (Central Standard Time),696669.5,071_y_f_h_a.png,O,z,1471,15,1,2491.0,694178.5,7029,VNB,A,13
6,test,2,0.0,2-Back,1,z,Tue Nov 05 2024 16:58:53 GMT-0600 (Central Standard Time),698936.7999999998,165_m_m_d_a.png,O,z,1243,16,1,2259.7999999998137,696677.0,7029,VNB,A,14
7,test,2,0.0,2-Back,1,m,Tue Nov 05 2024 16:58:53 GMT-0600 (Central Standard Time),701035.0,109_y_m_n_a.png,O,m,1083,17,1,2090.0999999996275,698944.9000000004,7029,VNB,A,15
7,test,2,1.0,2-Back,0,m,Tue Nov 05 2024 16:58:53 GMT-0600 (Central Standard Time),703150.7000000002,139_m_f_n_a.png,O,z,1095,18,1,2108.2000000001863,701042.5,7029,VNB,A,16
0,test,3,1.0,2-Back,,,Tue Nov 05 2024 16:58:53 GMT-0600 (Central Standard Time),703150.7000000002,039_o_m_n_a.png,O,space,980,1,1,2108.2000000001863,701042.5,7029,VNB,A,0
0,test,3,1.0,2-Back,,,Tue Nov 05 2024 16:58:53 GMT-0600 (Central Standard Time),703150.7000000002,124_o_f_d_a.png,O,space,980,2,1,2108.2000000001863,701042.5,7029,VNB,A,0
1,test,3,0.0,2-Back,1,m,Tue Nov 05 2024 16:58:53 GMT-0600 (Central Standard Time),711365.0999999996,071_y_f_h_a.png,O,m,1147,3,1,2158.5,709206.5999999996,7029,VNB,A,1
2,test,3,0.0,2-Back,1,z,Tue Nov 05 2024 16:58:53 GMT-0600 (Central Standard Time),713430.9000000004,139_m_f_d_a.png,O,z,1044,4,1,2058.0,711372.9000000004,7029,VNB,A,2
3,test,3,1.0,2-Back,1,m,Tue Nov 05 2024 16:58:53 GMT-0600 (Central Standard Time),715980.2000000002,109_y_m_n_a.png,O,m,1522,5,1,2542.0,713438.2000000002,7029,VNB,A,3
3,test,3,0.0,2-Back,0,m,Tue Nov 05 2024 16:58:53 GMT-0600 (Central Standard Time),718780.4000000004,039_o_m_h_a.png,O,z,1781,6,1,2792.9000000003725,715987.5,7029,VNB,A,4
3,test,3,0.0,2-Back,0,z,Tue Nov 05 2024 16:58:53 GMT-0600 (Central Standard Time),721795.2000000002,071_y_f_n_a.png,O,m,1983,7,1,3007.7000000001863,718787.5,7029,VNB,A,5
3,test,3,1.0,2-Back,0,m,Tue Nov 05 2024 16:58:53 GMT-0600 (Central Standard Time),723944.4000000004,165_m_m_d_a.png,O,z,1126,8,1,2141.800000000745,721802.5999999996,7029,VNB,A,6
3,test,3,0.0,2-Back,0,m,Tue Nov 05 2024 16:58:53 GMT-0600 (Central Standard Time),726977.0999999996,109_y_m_d_a.png,O,None,2016,9,1,3025.0999999996275,723952.0,7029,VNB,A,7
3,test,3,0.0,2-Back,0,m,Tue Nov 05 2024 16:58:53 GMT-0600 (Central Standard Time),728876.2999999998,124_o_f_h_a.png,O,z,873,10,1,1892.0,726984.2999999998,7029,VNB,A,8
4,test,3,1.0,2-Back,1,m,Tue Nov 05 2024 16:58:53 GMT-0600 (Central Standard Time),731075.4000000004,139_m_f_n_a.png,O,m,1173,11,1,2191.600000000559,728883.7999999998,7029,VNB,A,9
5,test,3,1.0,2-Back,1,z,Tue Nov 05 2024 16:58:53 GMT-0600 (Central Standard Time),732658.2999999998,165_m_m_h_a.png,O,z,559,12,1,1575.3999999994412,731082.9000000004,7029,VNB,A,10
6,test,3,0.0,2-Back,1,m,Tue Nov 05 2024 16:58:53 GMT-0600 (Central Standard Time),734191.2000000002,071_y_f_d_a.png,O,m,503,13,1,1525.6000000005588,732665.5999999996,7029,VNB,A,11
6,test,3,0.0,2-Back,0,m,Tue Nov 05 2024 16:58:53 GMT-0600 (Central Standard Time),735807.4000000004,124_o_f_n_a.png,O,z,586,14,1,1609.300000000745,734198.0999999996,7029,VNB,A,12
7,test,3,0.0,2-Back,1,z,Tue Nov 05 2024 16:58:53 GMT-0600 (Central Standard Time),737503.0,039_o_m_d_a.png,O,z,679,15,1,1688.4000000003725,735814.5999999996,7029,VNB,A,13
8,test,3,1.0,2-Back,1,m,Tue Nov 05 2024 16:58:53 GMT-0600 (Central Standard Time),739956.0,139_m_f_h_a.png,O,m,1423,16,1,2446.0,737510.0,7029,VNB,A,14
9,test,3,0.0,2-Back,1,m,Tue Nov 05 2024 16:58:53 GMT-0600 (Central Standard Time),741805.4000000004,165_m_m_n_a.png,O,m,830,17,1,1841.5,739963.9000000004,7029,VNB,A,15
9,test,3,0.0,2-Back,0,z,Tue Nov 05 2024 16:58:53 GMT-0600 (Central Standard Time),744054.5999999996,109_y_m_h_a.png,O,m,1220,18,1,2242.0,741812.5999999996,7029,VNB,A,16
0,test,4,0.0,2-Back,,,Tue Nov 05 2024 16:58:53 GMT-0600 (Central Standard Time),744054.5999999996,139_m_f_n_a.png,O,space,995,1,1,2242.0,741812.5999999996,7029,VNB,A,0
0,test,4,0.0,2-Back,,,Tue Nov 05 2024 16:58:53 GMT-0600 (Central Standard Time),744054.5999999996,039_o_m_n_a.png,O,space,995,2,1,2242.0,741812.5999999996,7029,VNB,A,0
0,test,4,1.0,2-Back,0,m,Tue Nov 05 2024 16:58:53 GMT-0600 (Central Standard Time),753152.0,109_y_m_h_a.png,O,None,2016,3,1,3025.5,750126.5,7029,VNB,A,1
1,test,4,1.0,2-Back,1,m,Tue Nov 05 2024 16:58:53 GMT-0600 (Central Standard Time),755501.2999999998,124_o_f_d_a.png,O,m,1321,4,1,2342.2999999998137,753159.0,7029,VNB,A,2
2,test,4,0.0,2-Back,1,z,Tue Nov 05 2024 16:58:53 GMT-0600 (Central Standard Time),757517.2999999998,039_o_m_h_a.png,O,z,988,5,1,2008.5999999996275,755508.7000000002,7029,VNB,A,3
3,test,4,0.0,2-Back,1,m,Tue Nov 05 2024 16:58:53 GMT-0600 (Central Standard Time),759933.2999999998,165_m_m_n_a.png,O,m,1396,6,1,2408.5999999996275,757524.7000000002,7029,VNB,A,4
3,test,4,0.0,2-Back,0,m,Tue Nov 05 2024 16:58:53 GMT-0600 (Central Standard Time),762332.5,139_m_f_d_a.png,O,z,1317,7,1,2392.0999999996275,759940.4000000004,7029,VNB,A,5
3,test,4,0.0,2-Back,0,z,Tue Nov 05 2024 16:58:53 GMT-0600 (Central Standard Time),764498.4000000004,071_y_f_n_a.png,O,m,1141,8,1,2158.5,762339.9000000004,7029,VNB,A,6
3,test,4,1.0,2-Back,0,m,Tue Nov 05 2024 16:58:53 GMT-0600 (Central Standard Time),767531.0999999996,124_o_f_h_a.png,O,None,2016,9,1,3025.699999999255,764505.4000000004,7029,VNB,A,7
3,test,4,0.0,2-Back,0,m,Tue Nov 05 2024 16:58:53 GMT-0600 (Central Standard Time),769646.5999999996,165_m_m_h_a.png,O,z,1087,10,1,2108.2999999998137,767538.2999999998,7029,VNB,A,8
4,test,4,0.0,2-Back,1,m,Tue Nov 05 2024 16:58:53 GMT-0600 (Central Standard Time),771396.2000000002,071_y_f_d_a.png,O,m,723,11,1,1742.2000000001863,769654.0,7029,VNB,A,9
4,test,4,0.0,2-Back,0,m,Tue Nov 05 2024 16:58:53 GMT-0600 (Central Standard Time),773845.4000000004,109_y_m_n_a.png,O,z,1421,12,1,2441.7000000001863,771403.7000000002,7029,VNB,A,10
4,test,4,0.0,2-Back,0,z,Tue Nov 05 2024 16:58:53 GMT-0600 (Central Standard Time),776061.2999999998,039_o_m_d_a.png,O,m,1188,13,1,2208.2000000001863,773853.0999999996,7029,VNB,A,11
4,test,4,1.0,2-Back,0,m,Tue Nov 05 2024 16:58:53 GMT-0600 (Central Standard Time),778244.0,139_m_f_h_a.png,O,z,1157,14,1,2176.4000000003725,776067.5999999996,7029,VNB,A,12
4,test,4,1.0,2-Back,0,m,Tue Nov 05 2024 16:58:53 GMT-0600 (Central Standard Time),780143.4000000004,071_y_f_h_a.png,O,z,878,15,1,1891.1000000005588,778252.2999999998,7029,VNB,A,13
5,test,4,0.0,2-Back,1,m,Tue Nov 05 2024 16:58:53 GMT-0600 (Central Standard Time),782042.7999999998,124_o_f_n_a.png,O,m,874,16,1,1891.8999999994412,780150.9000000004,7029,VNB,A,14
6,test,4,0.0,2-Back,1,m,Tue Nov 05 2024 16:58:53 GMT-0600 (Central Standard Time),784076.5999999996,109_y_m_d_a.png,O,m,1015,17,1,2026.3999999994412,782050.2000000002,7029,VNB,A,15
6,test,4,1.0,2-Back,0,m,Tue Nov 05 2024 16:58:53 GMT-0600 (Central Standard Time),786258.5,165_m_m_d_a.png,O,z,1150,18,1,2174.5,784084.0,7029,VNB,A,16
0,test,5,1.0,2-Back,,,Tue Nov 05 2024 16:58:53 GMT-0600 (Central Standard Time),786258.5,071_y_f_d_a.png,O,space,1903,1,1,2174.5,784084.0,7029,VNB,A,0
0,test,5,1.0,2-Back,,,Tue Nov 05 2024 16:58:53 GMT-0600 (Central Standard Time),786258.5,124_o_f_h_a.png,O,space,1903,2,1,2174.5,784084.0,7029,VNB,A,0
1,test,5,1.0,2-Back,1,z,Tue Nov 05 2024 16:58:53 GMT-0600 (Central Standard Time),795322.0,039_o_m_d_a.png,O,z,1026,3,1,2041.7000000001863,793280.2999999998,7029,VNB,A,1
2,test,5,1.0,2-Back,1,m,Tue Nov 05 2024 16:58:53 GMT-0600 (Central Standard Time),797721.4000000004,139_m_f_n_a.png,O,m,1367,4,1,2392.9000000003725,795328.5,7029,VNB,A,2
3,test,5,0.0,2-Back,1,m,Tue Nov 05 2024 16:58:53 GMT-0600 (Central Standard Time),800537.0,165_m_m_h_a.png,O,m,1792,5,1,2808.2000000001863,797728.7999999998,7029,VNB,A,3
3,test,5,0.0,2-Back,0,z,Tue Nov 05 2024 16:58:53 GMT-0600 (Central Standard Time),803186.0999999996,071_y_f_n_a.png,O,m,1625,6,1,2642.199999999255,800543.9000000004,7029,VNB,A,4
3,test,5,0.0,2-Back,0,m,Tue Nov 05 2024 16:58:53 GMT-0600 (Central Standard Time),805518.7000000002,124_o_f_d_a.png,O,z,1304,7,1,2324.4000000003725,803194.2999999998,7029,VNB,A,5
3,test,5,0.0,2-Back,0,m,Tue Nov 05 2024 16:58:53 GMT-0600 (Central Standard Time),808228.5,039_o_m_h_a.png,O,z,1692,8,1,2702.5999999996275,805525.9000000004,7029,VNB,A,6
3,test,5,1.0,2-Back,0,z,Tue Nov 05 2024 16:58:53 GMT-0600 (Central Standard Time),810233.7999999998,139_m_f_d_a.png,O,m,976,9,1,1994.8999999994412,808238.9000000004,7029,VNB,A,7
3,test,5,0.0,2-Back,0,m,Tue Nov 05 2024 16:58:53 GMT-0600 (Central Standard Time),812849.9000000004,109_y_m_n_a.png,O,z,1592,10,1,2608.800000000745,810241.0999999996,7029,VNB,A,8
4,test,5,0.0,2-Back,1,m,Tue Nov 05 2024 16:58:53 GMT-0600 (Central Standard Time),815115.7000000002,165_m_m_n_a.png,O,m,1239,11,1,2258.0,812857.7000000002,7029,VNB,A,9
4,test,5,0.0,2-Back,0,m,Tue Nov 05 2024 16:58:53 GMT-0600 (Central Standard Time),817365.0,071_y_f_h_a.png,O,z,1229,12,1,2242.0,815123.0,7029,VNB,A,10
4,test,5,0.0,2-Back,0,m,Tue Nov 05 2024 16:58:53 GMT-0600 (Central Standard Time),820331.0,109_y_m_d_a.png,O,z,1933,13,1,2959.0,817372.0,7029,VNB,A,11
5,test,5,1.0,2-Back,1,z,Tue Nov 05 2024 16:58:53 GMT-0600 (Central Standard Time),822530.2000000002,139_m_f_h_a.png,O,z,1175,14,1,2191.2999999998137,820338.9000000004,7029,VNB,A,12
6,test,5,0.0,2-Back,1,m,Tue Nov 05 2024 16:58:53 GMT-0600 (Central Standard Time),825029.5999999996,039_o_m_n_a.png,O,m,1480,15,1,2492.199999999255,822537.4000000004,7029,VNB,A,13
6,test,5,0.0,2-Back,0,m,Tue Nov 05 2024 16:58:53 GMT-0600 (Central Standard Time),827911.7999999998,165_m_m_d_a.png,O,z,1853,16,1,2874.899999999441,825036.9000000004,7029,VNB,A,14
6,test,5,0.0,2-Back,0,z,Tue Nov 05 2024 16:58:53 GMT-0600 (Central Standard Time),830944.0999999996,124_o_f_n_a.png,O,None,2014,17,1,3024.899999999441,827919.2000000002,7029,VNB,A,15
6,test,5,1.0,2-Back,0,m,Tue Nov 05 2024 16:58:53 GMT-0600 (Central Standard Time),833193.5999999996,109_y_m_h_a.png,O,z,1218,18,1,2242.0999999996275,830951.5,7029,VNB,A,16
