Number,acc_sum,block,block_c,block_cond,con_img,correct,correct_response,datetime,endtime,jitter,project,response,response_time,row_sel,session_number,start_end,starttime,subject_id,task,task_vers,trial
8,1,prac,1,A,circle.png,1,m,Wed Mar 26 2025 10:27:27 GMT-0400 (Eastern Daylight Time),73245.2999997139,1600,I,m,634,7,2,3029.0999999046326,70216.19999980927,9005,NTS,C,1
6,2,prac,1,A,circle.png,1,m,Wed Mar 26 2025 10:27:27 GMT-0400 (Eastern Daylight Time),76845.0,1900,I,m,900,5,2,3585.300000190735,73259.69999980927,9005,NTS,C,2
3,3,prac,1,A,circle.png,1,z,Wed Mar 26 2025 10:27:27 GMT-0400 (Eastern Daylight Time),79478.39999961853,1200,I,z,642,3,2,2621.8999996185303,76856.5,9005,NTS,C,3
2,4,prac,1,A,circle.png,1,z,Wed Mar 26 2025 10:27:27 GMT-0400 (Eastern Daylight Time),83028.2999997139,2000,I,z,761,2,2,3536.9000000953674,79491.39999961853,9005,NTS,C,4
7,5,prac,1,A,circle.png,1,m,Wed Mar 26 2025 10:27:27 GMT-0400 (Eastern Daylight Time),86178.39999961853,1700,I,m,660,6,2,3138.199999809265,83040.19999980927,9005,NTS,C,5
6,6,prac,1,A,circle.png,1,m,Wed Mar 26 2025 10:27:27 GMT-0400 (Eastern Daylight Time),89528.2999997139,1900,I,m,657,5,2,3336.7999997138977,86191.5,9005,NTS,C,6
4,7,prac,1,A,circle.png,1,z,Wed Mar 26 2025 10:27:27 GMT-0400 (Eastern Daylight Time),92461.7999997139,1400,I,z,737,4,2,2920.199999809265,89541.59999990463,9005,NTS,C,7
9,8,prac,1,A,circle.png,1,m,Wed Mar 26 2025 10:27:27 GMT-0400 (Eastern Daylight Time),95511.69999980927,1500,I,m,773,8,2,3038.4000000953674,92473.2999997139,9005,NTS,C,8
1,9,prac,1,A,circle.png,1,z,Wed Mar 26 2025 10:27:27 GMT-0400 (Eastern Daylight Time),98078.2999997139,1000,I,z,769,1,2,2552.9000000953674,95525.39999961853,9005,NTS,C,9
1,10,prac,1,A,circle.png,1,z,Wed Mar 26 2025 10:27:27 GMT-0400 (Eastern Daylight Time),100494.7999997139,1000,I,z,616,1,2,2403.0,98091.7999997139,9005,NTS,C,10
9,11,prac,1,A,circle.png,1,m,Wed Mar 26 2025 10:27:27 GMT-0400 (Eastern Daylight Time),103361.69999980927,1500,I,m,580,8,2,2854.699999809265,100507.0,9005,NTS,C,11
3,12,prac,1,A,circle.png,1,z,Wed Mar 26 2025 10:27:27 GMT-0400 (Eastern Daylight Time),105928.2999997139,1200,I,z,574,3,2,2555.5,103372.7999997139,9005,NTS,C,12
3,1,prac,1,B,triangle.png,1,z,Wed Mar 26 2025 10:27:27 GMT-0400 (Eastern Daylight Time),152911.59999990463,1600,I,z,784,3,2,3173.4000000953674,149738.19999980927,9005,NTS,C,1
1,2,prac,1,B,triangle.png,1,z,Wed Mar 26 2025 10:27:27 GMT-0400 (Eastern Daylight Time),156294.69999980927,1900,I,z,676,1,2,3362.800000190735,152931.89999961853,9005,NTS,C,2
8,3,prac,1,B,triangle.png,1,m,Wed Mar 26 2025 10:27:27 GMT-0400 (Eastern Daylight Time),158878.19999980927,1200,I,m,585,7,2,2572.800000190735,156305.39999961853,9005,NTS,C,3
7,4,prac,1,B,triangle.png,1,z,Wed Mar 26 2025 10:27:27 GMT-0400 (Eastern Daylight Time),162277.39999961853,2000,I,z,610,6,2,3389.2999997138977,158888.09999990463,9005,NTS,C,4
9,5,prac,1,B,triangle.png,1,z,Wed Mar 26 2025 10:27:27 GMT-0400 (Eastern Daylight Time),165294.89999961853,1400,I,z,818,8,2,3010.199999809265,162284.69999980927,9005,NTS,C,5
2,5,prac,1,B,triangle.png,0,m,Wed Mar 26 2025 10:27:27 GMT-0400 (Eastern Daylight Time),168661.5,1700,I,z,877,2,2,3354.800000190735,165306.69999980927,9005,NTS,C,6
4,6,prac,1,B,triangle.png,1,m,Wed Mar 26 2025 10:27:27 GMT-0400 (Eastern Daylight Time),171728.09999990463,1500,I,m,767,4,2,3054.4000000953674,168673.69999980927,9005,NTS,C,7
4,7,prac,1,B,triangle.png,1,m,Wed Mar 26 2025 10:27:27 GMT-0400 (Eastern Daylight Time),174611.5,1500,I,m,596,4,2,2871.800000190735,171739.69999980927,9005,NTS,C,8
1,8,prac,1,B,triangle.png,1,z,Wed Mar 26 2025 10:27:27 GMT-0400 (Eastern Daylight Time),178094.89999961853,1900,I,z,785,1,2,3473.199999809265,174621.69999980927,9005,NTS,C,9
3,9,prac,1,B,triangle.png,1,z,Wed Mar 26 2025 10:27:27 GMT-0400 (Eastern Daylight Time),181278.09999990463,1600,I,z,785,3,2,3172.9000000953674,178105.19999980927,9005,NTS,C,10
7,10,prac,1,B,triangle.png,1,z,Wed Mar 26 2025 10:27:27 GMT-0400 (Eastern Daylight Time),185044.7999997139,2000,I,z,978,6,2,3754.7999997138977,181290.0,9005,NTS,C,11
6,11,prac,1,B,triangle.png,1,m,Wed Mar 26 2025 10:27:27 GMT-0400 (Eastern Daylight Time),187561.5,1000,I,m,723,5,2,2505.6000003814697,185055.89999961853,9005,NTS,C,12
9,1,test,1,A,circle.png,1,m,Wed Mar 26 2025 10:27:27 GMT-0400 (Eastern Daylight Time),215894.59999990463,1500,I,m,710,8,2,2222.9000000953674,213671.69999980927,9005,NTS,C,1
3,2,test,1,A,circle.png,1,z,Wed Mar 26 2025 10:27:27 GMT-0400 (Eastern Daylight Time),217728.19999980927,1200,I,z,601,3,2,1825.6999998092651,215902.5,9005,NTS,C,2
7,3,test,1,A,circle.png,1,m,Wed Mar 26 2025 10:27:27 GMT-0400 (Eastern Daylight Time),220044.59999990463,1700,I,m,588,6,2,2307.2000002861023,217737.39999961853,9005,NTS,C,3
9,4,test,1,A,circle.png,1,m,Wed Mar 26 2025 10:27:27 GMT-0400 (Eastern Daylight Time),222228.0,1500,I,m,662,8,2,2175.0,220053.0,9005,NTS,C,4
1,5,test,1,A,circle.png,1,z,Wed Mar 26 2025 10:27:27 GMT-0400 (Eastern Daylight Time),223994.69999980927,1000,I,z,739,1,2,1757.9000000953674,222236.7999997139,9005,NTS,C,5
2,6,test,1,A,circle.png,1,z,Wed Mar 26 2025 10:27:27 GMT-0400 (Eastern Daylight Time),226678.09999990463,2000,I,z,659,2,2,2675.7000002861023,224002.39999961853,9005,NTS,C,6
4,7,test,1,A,circle.png,1,z,Wed Mar 26 2025 10:27:27 GMT-0400 (Eastern Daylight Time),228961.09999990463,1400,I,z,849,4,2,2273.5999999046326,226687.5,9005,NTS,C,7
6,8,test,1,A,circle.png,1,m,Wed Mar 26 2025 10:27:27 GMT-0400 (Eastern Daylight Time),231528.0,1900,I,m,640,5,2,2558.1000003814697,228969.89999961853,9005,NTS,C,8
4,9,test,1,A,circle.png,1,z,Wed Mar 26 2025 10:27:27 GMT-0400 (Eastern Daylight Time),233528.09999990463,1400,I,z,576,4,2,1991.5,231536.59999990463,9005,NTS,C,9
9,10,test,1,A,circle.png,1,m,Wed Mar 26 2025 10:27:27 GMT-0400 (Eastern Daylight Time),235694.5,1500,I,m,636,8,2,2157.5,233537.0,9005,NTS,C,10
7,11,test,1,A,circle.png,1,m,Wed Mar 26 2025 10:27:27 GMT-0400 (Eastern Daylight Time),238128.0,1700,I,m,701,6,2,2424.4000000953674,235703.59999990463,9005,NTS,C,11
2,12,test,1,A,circle.png,1,z,Wed Mar 26 2025 10:27:27 GMT-0400 (Eastern Daylight Time),240761.2999997139,2000,I,z,607,2,2,2624.9000000953674,238136.39999961853,9005,NTS,C,12
7,13,test,1,A,circle.png,1,m,Wed Mar 26 2025 10:27:27 GMT-0400 (Eastern Daylight Time),243178.0,1700,I,m,690,6,2,2408.4000000953674,240769.59999990463,9005,NTS,C,13
1,14,test,1,A,circle.png,1,z,Wed Mar 26 2025 10:27:27 GMT-0400 (Eastern Daylight Time),244994.39999961853,1000,I,z,797,1,2,1807.5,243186.89999961853,9005,NTS,C,14
8,15,test,1,A,circle.png,1,m,Wed Mar 26 2025 10:27:27 GMT-0400 (Eastern Daylight Time),247511.19999980927,1600,I,m,893,7,2,2509.199999809265,245002.0,9005,NTS,C,15
6,16,test,1,A,circle.png,1,m,Wed Mar 26 2025 10:27:27 GMT-0400 (Eastern Daylight Time),250261.2999997139,1900,I,m,827,5,2,2741.4000000953674,247519.89999961853,9005,NTS,C,16
6,17,test,1,A,circle.png,1,m,Wed Mar 26 2025 10:27:27 GMT-0400 (Eastern Daylight Time),252961.2999997139,1900,I,m,765,5,2,2691.2999997138977,250270.0,9005,NTS,C,17
3,18,test,1,A,circle.png,1,z,Wed Mar 26 2025 10:27:27 GMT-0400 (Eastern Daylight Time),254928.0,1200,I,z,733,3,2,1957.7000002861023,252970.2999997139,9005,NTS,C,18
1,19,test,1,A,circle.png,1,z,Wed Mar 26 2025 10:27:27 GMT-0400 (Eastern Daylight Time),256594.39999961853,1000,I,z,648,1,2,1657.5999999046326,254936.7999997139,9005,NTS,C,19
8,20,test,1,A,circle.png,1,m,Wed Mar 26 2025 10:27:27 GMT-0400 (Eastern Daylight Time),258911.19999980927,1600,I,m,683,7,2,2309.4000000953674,256601.7999997139,9005,NTS,C,20
2,21,test,1,A,circle.png,1,z,Wed Mar 26 2025 10:27:27 GMT-0400 (Eastern Daylight Time),261778.39999961853,2000,I,z,848,2,2,2858.3999996185303,258920.0,9005,NTS,C,21
3,22,test,1,A,circle.png,1,z,Wed Mar 26 2025 10:27:27 GMT-0400 (Eastern Daylight Time),263761.19999980927,1200,I,z,747,3,2,1974.6999998092651,261786.5,9005,NTS,C,22
8,23,test,1,A,circle.png,1,m,Wed Mar 26 2025 10:27:27 GMT-0400 (Eastern Daylight Time),266144.0,1600,I,m,748,7,2,2374.5,263769.5,9005,NTS,C,23
1,24,test,1,A,circle.png,1,z,Wed Mar 26 2025 10:27:27 GMT-0400 (Eastern Daylight Time),267961.39999961853,1000,I,z,791,1,2,1805.1999998092651,266156.19999980927,9005,NTS,C,24
1,1,test,1,B,triangle.png,1,z,Wed Mar 26 2025 10:27:27 GMT-0400 (Eastern Daylight Time),291878.0,1900,I,z,578,1,2,2492.0,289386.0,9005,NTS,C,1
6,2,test,1,B,triangle.png,1,m,Wed Mar 26 2025 10:27:27 GMT-0400 (Eastern Daylight Time),294261.19999980927,1500,I,m,862,13,2,2374.699999809265,291886.5,9005,NTS,C,2
4,3,test,1,B,triangle.png,1,m,Wed Mar 26 2025 10:27:27 GMT-0400 (Eastern Daylight Time),295977.89999961853,1000,I,m,689,12,2,1707.6999998092651,294270.19999980927,9005,NTS,C,3
9,4,test,1,B,triangle.png,1,z,Wed Mar 26 2025 10:27:27 GMT-0400 (Eastern Daylight Time),298827.7999997139,1900,I,z,921,16,2,2841.0999999046326,295986.69999980927,9005,NTS,C,4
2,5,test,1,B,triangle.png,1,m,Wed Mar 26 2025 10:27:27 GMT-0400 (Eastern Daylight Time),301177.7999997139,1200,I,m,1124,10,2,2339.0999999046326,298838.69999980927,9005,NTS,C,5
7,6,test,1,B,triangle.png,1,z,Wed Mar 26 2025 10:27:27 GMT-0400 (Eastern Daylight Time),304277.89999961853,2000,I,z,1078,6,2,3090.0,301187.89999961853,9005,NTS,C,6
7,7,test,1,B,triangle.png,1,z,Wed Mar 26 2025 10:27:27 GMT-0400 (Eastern Daylight Time),306794.69999980927,1600,I,z,890,14,2,2508.300000190735,304286.39999961853,9005,NTS,C,7
9,8,test,1,B,triangle.png,1,z,Wed Mar 26 2025 10:27:27 GMT-0400 (Eastern Daylight Time),309594.39999961853,1900,I,z,873,16,2,2790.0999999046326,306804.2999997139,9005,NTS,C,8
2,9,test,1,B,triangle.png,1,m,Wed Mar 26 2025 10:27:27 GMT-0400 (Eastern Daylight Time),312028.0,1700,I,m,706,2,2,2425.0,309603.0,9005,NTS,C,9
3,10,test,1,B,triangle.png,1,z,Wed Mar 26 2025 10:27:27 GMT-0400 (Eastern Daylight Time),315011.19999980927,2000,I,z,963,11,2,2974.5,312036.69999980927,9005,NTS,C,10
1,11,test,1,B,triangle.png,1,z,Wed Mar 26 2025 10:27:27 GMT-0400 (Eastern Daylight Time),317194.5,1400,I,z,757,9,2,2174.1000003814697,315020.39999961853,9005,NTS,C,11
4,12,test,1,B,triangle.png,1,m,Wed Mar 26 2025 10:27:27 GMT-0400 (Eastern Daylight Time),319544.39999961853,1500,I,m,825,4,2,2341.199999809265,317203.19999980927,9005,NTS,C,12
3,13,test,1,B,triangle.png,1,z,Wed Mar 26 2025 10:27:27 GMT-0400 (Eastern Daylight Time),322011.19999980927,1600,I,z,838,3,2,2458.199999809265,319553.0,9005,NTS,C,13
8,14,test,1,B,triangle.png,1,m,Wed Mar 26 2025 10:27:27 GMT-0400 (Eastern Daylight Time),324177.89999961853,1200,I,m,933,7,2,2159.0,322018.89999961853,9005,NTS,C,14
6,15,test,1,B,triangle.png,1,m,Wed Mar 26 2025 10:27:27 GMT-0400 (Eastern Daylight Time),326544.5,1000,I,m,1333,5,2,2358.4000000953674,324186.09999990463,9005,NTS,C,15
6,16,test,1,B,triangle.png,1,m,Wed Mar 26 2025 10:27:27 GMT-0400 (Eastern Daylight Time),328227.7999997139,1000,I,m,662,5,2,1674.5999999046326,326553.19999980927,9005,NTS,C,16
9,17,test,1,B,triangle.png,1,z,Wed Mar 26 2025 10:27:27 GMT-0400 (Eastern Daylight Time),330360.7999997139,1400,I,z,707,8,2,2124.2999997138977,328236.5,9005,NTS,C,17
1,18,test,1,B,triangle.png,1,z,Wed Mar 26 2025 10:27:27 GMT-0400 (Eastern Daylight Time),333061.19999980927,1900,I,z,779,1,2,2694.699999809265,330366.5,9005,NTS,C,18
3,19,test,1,B,triangle.png,1,z,Wed Mar 26 2025 10:27:27 GMT-0400 (Eastern Daylight Time),335810.89999961853,2000,I,z,731,11,2,2740.8999996185303,333070.0,9005,NTS,C,19
8,20,test,1,B,triangle.png,1,m,Wed Mar 26 2025 10:27:27 GMT-0400 (Eastern Daylight Time),338244.5,1700,I,m,712,15,2,2425.9000000953674,335818.59999990463,9005,NTS,C,20
8,21,test,1,B,triangle.png,1,m,Wed Mar 26 2025 10:27:27 GMT-0400 (Eastern Daylight Time),340611.0,1700,I,m,648,15,2,2357.9000000953674,338253.09999990463,9005,NTS,C,21
7,22,test,1,B,triangle.png,1,z,Wed Mar 26 2025 10:27:27 GMT-0400 (Eastern Daylight Time),342994.2999997139,1600,I,z,765,14,2,2373.0,340621.2999997139,9005,NTS,C,22
3,23,test,1,B,triangle.png,1,z,Wed Mar 26 2025 10:27:27 GMT-0400 (Eastern Daylight Time),345394.09999990463,1600,I,z,782,3,2,2392.0999999046326,343002.0,9005,NTS,C,23
2,24,test,1,B,triangle.png,1,m,Wed Mar 26 2025 10:27:27 GMT-0400 (Eastern Daylight Time),347277.69999980927,1200,I,m,654,10,2,1876.4000000953674,345401.2999997139,9005,NTS,C,24
3,0,prac,1,C,triangle.png,0,z,Wed Mar 26 2025 10:27:27 GMT-0400 (Eastern Daylight Time),394111.09999990463,1500,I,m,1166,3,2,3456.2000002861023,390654.89999961853,9005,NTS,C,1
3,1,prac,1,C,triangle.png,1,z,Wed Mar 26 2025 10:27:27 GMT-0400 (Eastern Daylight Time),397177.7999997139,1500,I,z,772,3,2,3055.5,394122.2999997139,9005,NTS,C,2
7,2,prac,1,C,triangle.png,1,z,Wed Mar 26 2025 10:27:27 GMT-0400 (Eastern Daylight Time),399944.39999961853,1200,I,z,774,6,2,2756.2999997138977,397188.09999990463,9005,NTS,C,3
4,2,prac,1,C,circle.png,0,z,Wed Mar 26 2025 10:27:27 GMT-0400 (Eastern Daylight Time),402777.7999997139,1000,I,m,1040,4,2,2821.199999809265,399956.59999990463,9005,NTS,C,4
1,3,prac,1,C,circle.png,1,z,Wed Mar 26 2025 10:27:27 GMT-0400 (Eastern Daylight Time),406377.7999997139,1700,I,z,1105,1,2,3587.4000000953674,402790.39999961853,9005,NTS,C,5
6,4,prac,1,C,circle.png,1,m,Wed Mar 26 2025 10:27:27 GMT-0400 (Eastern Daylight Time),410577.7999997139,2000,I,m,1414,5,2,4190.099999904633,406387.69999980927,9005,NTS,C,6
8,5,prac,1,C,triangle.png,1,m,Wed Mar 26 2025 10:27:27 GMT-0400 (Eastern Daylight Time),413777.7999997139,1400,I,m,1014,7,2,3189.199999809265,410588.59999990463,9005,NTS,C,7
6,6,prac,1,C,circle.png,1,m,Wed Mar 26 2025 10:27:27 GMT-0400 (Eastern Daylight Time),417711.09999990463,2000,I,m,1133,5,2,3922.5,413788.59999990463,9005,NTS,C,8
9,7,prac,1,C,circle.png,1,m,Wed Mar 26 2025 10:27:27 GMT-0400 (Eastern Daylight Time),421461.19999980927,1900,I,m,1061,8,2,3739.199999809265,417722.0,9005,NTS,C,9
8,8,prac,1,C,triangle.png,1,m,Wed Mar 26 2025 10:27:27 GMT-0400 (Eastern Daylight Time),424777.7999997139,1400,I,m,1123,7,2,3305.699999809265,421472.09999990463,9005,NTS,C,10
2,9,prac,1,C,triangle.png,1,m,Wed Mar 26 2025 10:27:27 GMT-0400 (Eastern Daylight Time),427961.0,1600,I,m,790,2,2,3171.6000003814697,424789.39999961853,9005,NTS,C,11
4,10,prac,1,C,circle.png,1,z,Wed Mar 26 2025 10:27:27 GMT-0400 (Eastern Daylight Time),431161.0,1000,I,z,1406,4,2,3188.9000000953674,427972.09999990463,9005,NTS,C,12
6,1,test,1,C,circle.png,1,m,Wed Mar 26 2025 10:27:27 GMT-0400 (Eastern Daylight Time),457194.2999997139,1900,I,m,873,5,2,2792.0,454402.2999997139,9005,NTS,C,1
1,2,test,1,C,circle.png,1,z,Wed Mar 26 2025 10:27:27 GMT-0400 (Eastern Daylight Time),459260.89999961853,1000,I,z,1037,1,2,2056.5999999046326,457204.2999997139,9005,NTS,C,2
9,3,test,1,C,triangle.png,1,z,Wed Mar 26 2025 10:27:27 GMT-0400 (Eastern Daylight Time),461494.09999990463,1400,I,z,810,16,2,2224.5999999046326,459269.5,9005,NTS,C,3
8,4,test,1,C,circle.png,1,m,Wed Mar 26 2025 10:27:27 GMT-0400 (Eastern Daylight Time),463627.7999997139,1200,I,m,905,15,2,2122.7999997138977,461505.0,9005,NTS,C,4
7,5,test,1,C,triangle.png,1,z,Wed Mar 26 2025 10:27:27 GMT-0400 (Eastern Daylight Time),466277.5,1700,I,z,928,6,2,2640.800000190735,463636.69999980927,9005,NTS,C,5
7,6,test,1,C,circle.png,1,m,Wed Mar 26 2025 10:27:27 GMT-0400 (Eastern Daylight Time),469244.0,2000,I,m,937,14,2,2955.2000002861023,466288.7999997139,9005,NTS,C,6
8,7,test,1,C,triangle.png,1,m,Wed Mar 26 2025 10:27:27 GMT-0400 (Eastern Daylight Time),471944.2999997139,1600,I,m,1075,7,2,2691.9000000953674,469252.39999961853,9005,NTS,C,7
2,8,test,1,C,circle.png,1,z,Wed Mar 26 2025 10:27:27 GMT-0400 (Eastern Daylight Time),474627.69999980927,1700,I,z,963,10,2,2675.5,471952.19999980927,9005,NTS,C,8
9,9,test,1,C,circle.png,1,m,Wed Mar 26 2025 10:27:27 GMT-0400 (Eastern Daylight Time),477344.09999990463,1500,I,m,1184,8,2,2707.4000000953674,474636.69999980927,9005,NTS,C,9
3,10,test,1,C,triangle.png,1,z,Wed Mar 26 2025 10:27:27 GMT-0400 (Eastern Daylight Time),479594.09999990463,1200,I,z,1023,3,2,2241.2000002861023,477352.89999961853,9005,NTS,C,10
7,11,test,1,C,triangle.png,1,z,Wed Mar 26 2025 10:27:27 GMT-0400 (Eastern Daylight Time),482161.0,1700,I,z,833,22,2,2558.2000002861023,479602.7999997139,9005,NTS,C,11
1,12,test,1,C,triangle.png,1,z,Wed Mar 26 2025 10:27:27 GMT-0400 (Eastern Daylight Time),484777.59999990463,1900,I,z,690,17,2,2608.0999999046326,482169.5,9005,NTS,C,12
6,13,test,1,C,triangle.png,1,m,Wed Mar 26 2025 10:27:27 GMT-0400 (Eastern Daylight Time),487044.19999980927,1000,I,m,1245,13,2,2256.9000000953674,484787.2999997139,9005,NTS,C,13
3,14,test,1,C,circle.png,1,z,Wed Mar 26 2025 10:27:27 GMT-0400 (Eastern Daylight Time),490061.0,1600,I,z,1388,19,2,3007.0,487054.0,9005,NTS,C,14
2,15,test,1,C,circle.png,1,z,Wed Mar 26 2025 10:27:27 GMT-0400 (Eastern Daylight Time),493177.5,1700,I,z,1390,18,2,3104.800000190735,490072.69999980927,9005,NTS,C,15
3,16,test,1,C,circle.png,1,z,Wed Mar 26 2025 10:27:27 GMT-0400 (Eastern Daylight Time),495644.2999997139,1600,I,z,837,11,2,2457.699999809265,493186.59999990463,9005,NTS,C,16
4,17,test,1,C,circle.png,1,z,Wed Mar 26 2025 10:27:27 GMT-0400 (Eastern Daylight Time),497927.5,1400,I,z,860,4,2,2274.1000003814697,495653.39999961853,9005,NTS,C,17
6,18,test,1,C,circle.png,1,m,Wed Mar 26 2025 10:27:27 GMT-0400 (Eastern Daylight Time),500944.19999980927,1900,I,m,1084,21,2,3007.9000000953674,497936.2999997139,9005,NTS,C,18
8,19,test,1,C,triangle.png,1,m,Wed Mar 26 2025 10:27:27 GMT-0400 (Eastern Daylight Time),503844.19999980927,1600,I,m,1279,23,2,2892.0,500952.19999980927,9005,NTS,C,19
4,20,test,1,C,triangle.png,1,m,Wed Mar 26 2025 10:27:27 GMT-0400 (Eastern Daylight Time),506560.69999980927,1500,I,m,1183,12,2,2705.199999809265,503855.5,9005,NTS,C,20
1,21,test,1,C,triangle.png,1,z,Wed Mar 26 2025 10:27:27 GMT-0400 (Eastern Daylight Time),509694.19999980927,1900,I,z,1202,9,2,3120.4000000953674,506573.7999997139,9005,NTS,C,21
2,21,test,1,C,triangle.png,0,m,Wed Mar 26 2025 10:27:27 GMT-0400 (Eastern Daylight Time),513227.7999997139,2000,I,None,1517,2,2,3524.4000000953674,509703.39999961853,9005,NTS,C,22
4,22,test,1,C,triangle.png,1,m,Wed Mar 26 2025 10:27:27 GMT-0400 (Eastern Daylight Time),515711.0,1500,I,m,953,20,2,2474.1000003814697,513236.89999961853,9005,NTS,C,23
9,23,test,1,C,circle.png,1,m,Wed Mar 26 2025 10:27:27 GMT-0400 (Eastern Daylight Time),518527.5,1500,I,m,1284,24,2,2804.0,515723.5,9005,NTS,C,24
9,0,test,2,C,triangle.png,0,z,Wed Mar 26 2025 10:27:27 GMT-0400 (Eastern Daylight Time),537827.6999998093,1400,I,None,1515,24,2,2925.800000190735,534901.8999996185,9005,NTS,C,1
9,1,test,2,C,triangle.png,1,z,Wed Mar 26 2025 10:27:27 GMT-0400 (Eastern Daylight Time),540077.5999999046,1400,I,z,820,16,2,2240.0,537837.5999999046,9005,NTS,C,2
4,2,test,2,C,triangle.png,1,m,Wed Mar 26 2025 10:27:27 GMT-0400 (Eastern Daylight Time),542660.8999996185,1500,I,m,1062,12,2,2574.199999809265,540086.6999998093,9005,NTS,C,3
8,3,test,2,C,circle.png,1,m,Wed Mar 26 2025 10:27:27 GMT-0400 (Eastern Daylight Time),544993.6999998093,1200,I,m,1114,15,2,2322.5,542671.1999998093,9005,NTS,C,4
6,4,test,2,C,circle.png,1,m,Wed Mar 26 2025 10:27:27 GMT-0400 (Eastern Daylight Time),547910.8999996185,1900,I,m,993,5,2,2909.7999997138977,545001.0999999046,9005,NTS,C,5
7,5,test,2,C,circle.png,1,m,Wed Mar 26 2025 10:27:27 GMT-0400 (Eastern Daylight Time),551310.7999997139,2000,I,m,1368,22,2,3390.5,547920.2999997139,9005,NTS,C,6
2,6,test,2,C,circle.png,1,z,Wed Mar 26 2025 10:27:27 GMT-0400 (Eastern Daylight Time),554027.5999999046,1700,I,z,988,18,2,2708.2000002861023,551319.3999996185,9005,NTS,C,7
4,7,test,2,C,circle.png,1,z,Wed Mar 26 2025 10:27:27 GMT-0400 (Eastern Daylight Time),556294.1999998093,1400,I,z,828,4,2,2251.9000000953674,554042.2999997139,9005,NTS,C,8
6,8,test,2,C,triangle.png,1,m,Wed Mar 26 2025 10:27:27 GMT-0400 (Eastern Daylight Time),558360.7999997139,1000,I,m,1041,13,2,2056.199999809265,556304.5999999046,9005,NTS,C,9
3,9,test,2,C,circle.png,1,z,Wed Mar 26 2025 10:27:27 GMT-0400 (Eastern Daylight Time),561160.7999997139,1600,I,z,1174,19,2,2791.0999999046326,558369.6999998093,9005,NTS,C,10
9,10,test,2,C,circle.png,1,m,Wed Mar 26 2025 10:27:27 GMT-0400 (Eastern Daylight Time),563777.6999998093,1500,I,m,1098,8,2,2608.4000000953674,561169.2999997139,9005,NTS,C,11
8,11,test,2,C,circle.png,1,m,Wed Mar 26 2025 10:27:27 GMT-0400 (Eastern Daylight Time),565910.7999997139,1200,I,m,910,23,2,2125.0,563785.7999997139,9005,NTS,C,12
2,12,test,2,C,triangle.png,1,m,Wed Mar 26 2025 10:27:27 GMT-0400 (Eastern Daylight Time),568927.5,2000,I,m,984,2,2,3006.1000003814697,565921.3999996185,9005,NTS,C,13
8,13,test,2,C,triangle.png,1,m,Wed Mar 26 2025 10:27:27 GMT-0400 (Eastern Daylight Time),571294.0999999046,1600,I,m,736,7,2,2357.4000000953674,568936.6999998093,9005,NTS,C,14
7,14,test,2,C,triangle.png,1,z,Wed Mar 26 2025 10:27:27 GMT-0400 (Eastern Daylight Time),574044.1999998093,1700,I,z,1021,6,2,2741.4000000953674,571302.7999997139,9005,NTS,C,15
3,15,test,2,C,triangle.png,1,z,Wed Mar 26 2025 10:27:27 GMT-0400 (Eastern Daylight Time),575994.1999998093,1200,I,z,723,3,2,1940.0,574054.1999998093,9005,NTS,C,16
6,16,test,2,C,triangle.png,1,m,Wed Mar 26 2025 10:27:27 GMT-0400 (Eastern Daylight Time),578394.0999999046,1000,I,m,1373,21,2,2390.7000002861023,576003.3999996185,9005,NTS,C,17
2,17,test,2,C,circle.png,1,z,Wed Mar 26 2025 10:27:27 GMT-0400 (Eastern Daylight Time),581260.7999997139,1700,I,z,1139,10,2,2857.4000000953674,578403.3999996185,9005,NTS,C,18
1,17,test,2,C,triangle.png,0,z,Wed Mar 26 2025 10:27:27 GMT-0400 (Eastern Daylight Time),584326.7999997139,1900,I,m,1141,9,2,3057.4000000953674,581269.3999996185,9005,NTS,C,19
7,18,test,2,C,circle.png,1,m,Wed Mar 26 2025 10:27:27 GMT-0400 (Eastern Daylight Time),587794.0999999046,2000,I,m,1448,14,2,3462.4000000953674,584331.6999998093,9005,NTS,C,20
4,19,test,2,C,triangle.png,1,m,Wed Mar 26 2025 10:27:27 GMT-0400 (Eastern Daylight Time),590744.1999998093,1500,I,m,1425,20,2,2942.300000190735,587801.8999996185,9005,NTS,C,21
1,20,test,2,C,circle.png,1,z,Wed Mar 26 2025 10:27:27 GMT-0400 (Eastern Daylight Time),592695.5,1000,I,z,927,1,2,1942.3000001907349,590753.1999998093,9005,NTS,C,22
1,21,test,2,C,triangle.png,1,z,Wed Mar 26 2025 10:27:27 GMT-0400 (Eastern Daylight Time),595877.5,1900,I,z,1261,17,2,3175.2000002861023,592702.2999997139,9005,NTS,C,23
3,22,test,2,C,circle.png,1,z,Wed Mar 26 2025 10:27:27 GMT-0400 (Eastern Daylight Time),598627.3999996185,1600,I,z,1130,11,2,2741.2999997138977,595886.0999999046,9005,NTS,C,24
3,1,test,3,C,circle.png,1,z,Wed Mar 26 2025 10:27:27 GMT-0400 (Eastern Daylight Time),610594.1999998093,1600,I,z,1031,11,2,2641.9000000953674,607952.2999997139,9005,NTS,C,1
6,2,test,3,C,circle.png,1,m,Wed Mar 26 2025 10:27:27 GMT-0400 (Eastern Daylight Time),613360.8999996185,1900,I,m,833,21,2,2757.699999809265,610603.1999998093,9005,NTS,C,2
6,3,test,3,C,triangle.png,1,m,Wed Mar 26 2025 10:27:27 GMT-0400 (Eastern Daylight Time),615360.2999997139,1000,I,m,965,13,2,1990.4000000953674,613369.8999996185,9005,NTS,C,3
4,4,test,3,C,circle.png,1,z,Wed Mar 26 2025 10:27:27 GMT-0400 (Eastern Daylight Time),617960.8999996185,1400,I,z,1174,4,2,2595.7999997138977,615365.0999999046,9005,NTS,C,4
4,5,test,3,C,circle.png,1,z,Wed Mar 26 2025 10:27:27 GMT-0400 (Eastern Daylight Time),620110.7999997139,1400,I,z,718,20,2,2141.2999997138977,617969.5,9005,NTS,C,5
7,5,test,3,C,triangle.png,0,z,Wed Mar 26 2025 10:27:27 GMT-0400 (Eastern Daylight Time),623344.1999998093,1700,I,None,1515,22,2,3224.699999809265,620119.5,9005,NTS,C,6
1,6,test,3,C,circle.png,1,z,Wed Mar 26 2025 10:27:27 GMT-0400 (Eastern Daylight Time),625210.7999997139,1000,I,z,839,1,2,1857.9000000953674,623352.8999996185,9005,NTS,C,7
7,7,test,3,C,circle.png,1,m,Wed Mar 26 2025 10:27:27 GMT-0400 (Eastern Daylight Time),628310.6999998093,2000,I,m,1077,14,2,3090.800000190735,625219.8999996185,9005,NTS,C,8
7,7,test,3,C,triangle.png,0,z,Wed Mar 26 2025 10:27:27 GMT-0400 (Eastern Daylight Time),631544.0999999046,1700,I,None,1515,6,2,3224.7000002861023,628319.3999996185,9005,NTS,C,9
3,8,test,3,C,triangle.png,1,z,Wed Mar 26 2025 10:27:27 GMT-0400 (Eastern Daylight Time),633477.3999996185,1200,I,z,711,19,2,1923.0999999046326,631554.2999997139,9005,NTS,C,10
1,9,test,3,C,circle.png,1,z,Wed Mar 26 2025 10:27:27 GMT-0400 (Eastern Daylight Time),635560.6999998093,1000,I,z,1058,17,2,2074.4000000953674,633486.2999997139,9005,NTS,C,11
8,10,test,3,C,triangle.png,1,m,Wed Mar 26 2025 10:27:27 GMT-0400 (Eastern Daylight Time),638010.6999998093,1600,I,m,822,23,2,2441.699999809265,635569.0,9005,NTS,C,12
1,11,test,3,C,triangle.png,1,z,Wed Mar 26 2025 10:27:27 GMT-0400 (Eastern Daylight Time),641010.2999997139,1900,I,z,1081,9,2,2990.9000000953674,638019.3999996185,9005,NTS,C,13
9,12,test,3,C,circle.png,1,m,Wed Mar 26 2025 10:27:27 GMT-0400 (Eastern Daylight Time),643777.7999997139,1500,I,m,1248,24,2,2758.4000000953674,641019.3999996185,9005,NTS,C,14
4,13,test,3,C,triangle.png,1,m,Wed Mar 26 2025 10:27:27 GMT-0400 (Eastern Daylight Time),646577.7999997139,1500,I,m,1282,12,2,2791.2999997138977,643786.5,9005,NTS,C,15
2,14,test,3,C,triangle.png,1,m,Wed Mar 26 2025 10:27:27 GMT-0400 (Eastern Daylight Time),649327.0999999046,2000,I,m,717,18,2,2741.0999999046326,646586.0,9005,NTS,C,16
6,15,test,3,C,circle.png,1,m,Wed Mar 26 2025 10:27:27 GMT-0400 (Eastern Daylight Time),652327.5,1900,I,m,1076,5,2,2992.300000190735,649335.1999998093,9005,NTS,C,17
9,16,test,3,C,triangle.png,1,z,Wed Mar 26 2025 10:27:27 GMT-0400 (Eastern Daylight Time),654927.5,1400,I,z,1168,16,2,2591.4000000953674,652336.0999999046,9005,NTS,C,18
8,17,test,3,C,circle.png,1,m,Wed Mar 26 2025 10:27:27 GMT-0400 (Eastern Daylight Time),657377.6999998093,1200,I,m,1232,15,2,2441.699999809265,654936.0,9005,NTS,C,19
9,18,test,3,C,circle.png,1,m,Wed Mar 26 2025 10:27:27 GMT-0400 (Eastern Daylight Time),660227.3999996185,1500,I,m,1330,8,2,2842.2999997138977,657385.0999999046,9005,NTS,C,20
8,19,test,3,C,triangle.png,1,m,Wed Mar 26 2025 10:27:27 GMT-0400 (Eastern Daylight Time),663194.0999999046,1600,I,m,1340,7,2,2957.9000000953674,660236.1999998093,9005,NTS,C,21
3,20,test,3,C,triangle.png,1,z,Wed Mar 26 2025 10:27:27 GMT-0400 (Eastern Daylight Time),665377.2999997139,1200,I,z,949,3,2,2174.199999809265,663203.0999999046,9005,NTS,C,22
2,21,test,3,C,circle.png,1,z,Wed Mar 26 2025 10:27:27 GMT-0400 (Eastern Daylight Time),668294.0,1700,I,z,1194,10,2,2907.800000190735,665386.1999998093,9005,NTS,C,23
2,22,test,3,C,triangle.png,1,m,Wed Mar 26 2025 10:27:27 GMT-0400 (Eastern Daylight Time),671544.0999999046,2000,I,m,1225,2,2,3240.300000190735,668303.7999997139,9005,NTS,C,24
8,1,test,4,C,triangle.png,1,m,Wed Mar 26 2025 10:27:27 GMT-0400 (Eastern Daylight Time),682977.8999996185,1600,I,m,1249,23,2,2859.5999999046326,680118.2999997139,9005,NTS,C,1
2,2,test,4,C,triangle.png,1,m,Wed Mar 26 2025 10:27:27 GMT-0400 (Eastern Daylight Time),685777.2999997139,2000,I,m,766,2,2,2791.7999997138977,682985.5,9005,NTS,C,2
2,3,test,4,C,triangle.png,1,m,Wed Mar 26 2025 10:27:27 GMT-0400 (Eastern Daylight Time),688493.7999997139,2000,I,m,686,18,2,2701.2999997138977,685792.5,9005,NTS,C,3
1,4,test,4,C,circle.png,1,z,Wed Mar 26 2025 10:27:27 GMT-0400 (Eastern Daylight Time),690594.0,1000,I,z,1066,17,2,2084.7000002861023,688509.2999997139,9005,NTS,C,4
4,5,test,4,C,circle.png,1,z,Wed Mar 26 2025 10:27:27 GMT-0400 (Eastern Daylight Time),693177.2999997139,1400,I,z,1157,20,2,2573.5,690603.7999997139,9005,NTS,C,5
3,6,test,4,C,triangle.png,1,z,Wed Mar 26 2025 10:27:27 GMT-0400 (Eastern Daylight Time),695527.1999998093,1200,I,z,1126,19,2,2341.300000190735,693185.8999996185,9005,NTS,C,6
4,7,test,4,C,circle.png,1,z,Wed Mar 26 2025 10:27:27 GMT-0400 (Eastern Daylight Time),697994.0999999046,1400,I,z,1040,4,2,2457.5999999046326,695536.5,9005,NTS,C,7
6,7,test,4,C,triangle.png,0,m,Wed Mar 26 2025 10:27:27 GMT-0400 (Eastern Daylight Time),700527.1999998093,1000,I,None,1515,13,2,2522.5999999046326,698004.5999999046,9005,NTS,C,8
3,8,test,4,C,triangle.png,1,z,Wed Mar 26 2025 10:27:27 GMT-0400 (Eastern Daylight Time),702594.0,1200,I,z,849,3,2,2057.7000002861023,700536.2999997139,9005,NTS,C,9
8,9,test,4,C,triangle.png,1,m,Wed Mar 26 2025 10:27:27 GMT-0400 (Eastern Daylight Time),705527.3999996185,1600,I,m,1309,7,2,2925.2999997138977,702602.0999999046,9005,NTS,C,10
4,10,test,4,C,triangle.png,1,m,Wed Mar 26 2025 10:27:27 GMT-0400 (Eastern Daylight Time),708177.3999996185,1500,I,m,1116,12,2,2640.199999809265,705537.1999998093,9005,NTS,C,11
9,11,test,4,C,circle.png,1,m,Wed Mar 26 2025 10:27:27 GMT-0400 (Eastern Daylight Time),710794.0,1500,I,m,1090,24,2,2607.6000003814697,708186.3999996185,9005,NTS,C,12
6,12,test,4,C,circle.png,1,m,Wed Mar 26 2025 10:27:27 GMT-0400 (Eastern Daylight Time),713560.7999997139,1900,I,m,841,5,2,2757.0999999046326,710803.6999998093,9005,NTS,C,13
9,12,test,4,C,triangle.png,0,z,Wed Mar 26 2025 10:27:27 GMT-0400 (Eastern Daylight Time),716493.8999996185,1400,I,None,1516,16,2,2924.0,713569.8999996185,9005,NTS,C,14
3,13,test,4,C,circle.png,1,z,Wed Mar 26 2025 10:27:27 GMT-0400 (Eastern Daylight Time),719127.3999996185,1600,I,z,1009,11,2,2624.3999996185303,716503.0,9005,NTS,C,15
1,14,test,4,C,triangle.png,1,z,Wed Mar 26 2025 10:27:27 GMT-0400 (Eastern Daylight Time),722227.1999998093,1900,I,z,1180,9,2,3089.9000000953674,719137.2999997139,9005,NTS,C,16
2,15,test,4,C,circle.png,1,z,Wed Mar 26 2025 10:27:27 GMT-0400 (Eastern Daylight Time),724910.5999999046,1700,I,z,952,10,2,2675.0,722235.5999999046,9005,NTS,C,17
7,16,test,4,C,triangle.png,1,z,Wed Mar 26 2025 10:27:27 GMT-0400 (Eastern Daylight Time),727743.2999997139,1700,I,z,1100,6,2,2823.2999997138977,724920.0,9005,NTS,C,18
1,17,test,4,C,circle.png,1,z,Wed Mar 26 2025 10:27:27 GMT-0400 (Eastern Daylight Time),729977.2999997139,1000,I,z,1207,1,2,2228.0,727749.2999997139,9005,NTS,C,19
8,18,test,4,C,circle.png,1,m,Wed Mar 26 2025 10:27:27 GMT-0400 (Eastern Daylight Time),732127.0999999046,1200,I,m,918,15,2,2141.0,729986.0999999046,9005,NTS,C,20
7,19,test,4,C,triangle.png,1,z,Wed Mar 26 2025 10:27:27 GMT-0400 (Eastern Daylight Time),735077.2999997139,1700,I,z,1228,22,2,2941.2999997138977,732136.0,9005,NTS,C,21
9,20,test,4,C,circle.png,1,m,Wed Mar 26 2025 10:27:27 GMT-0400 (Eastern Daylight Time),737377.1999998093,1500,I,m,766,8,2,2289.5,735087.6999998093,9005,NTS,C,22
6,21,test,4,C,circle.png,1,m,Wed Mar 26 2025 10:27:27 GMT-0400 (Eastern Daylight Time),740177.0999999046,1900,I,m,866,21,2,2791.0999999046326,737386.0,9005,NTS,C,23
7,22,test,4,C,circle.png,1,m,Wed Mar 26 2025 10:27:27 GMT-0400 (Eastern Daylight Time),743144.0999999046,2000,I,m,942,14,2,2957.5999999046326,740186.5,9005,NTS,C,24
