acc_sum,block,block_c,change,condition,correct,correct_response,datetime,endtime,face,project,response,response_time,row_sel,session_number,start_end,starttime,subject_id,task,task_vers,trial
0,prac,1,,1-Back,,,Thu Apr 10 2025 17:23:22 GMT-0500 (Central Daylight Time),,093_m_f_n_a.png,O,space,4812,1,1,,,7109,NNB,C,0
1,prac,1,0.0,1-Back,1,m,Thu Apr 10 2025 17:23:22 GMT-0500 (Central Daylight Time),126281.1000000001,098_y_f_n_a.png,O,m,1816,2,1,2674.3000000000466,123606.80000000005,7109,NNB,C,1
2,prac,1,1.0,1-Back,1,z,Thu Apr 10 2025 17:23:22 GMT-0500 (Central Daylight Time),128963.8999999999,098_y_f_n_a.png,O,z,1908,3,1,2677.0,126286.8999999999,7109,NNB,C,2
3,prac,1,0.0,1-Back,1,m,Thu Apr 10 2025 17:23:22 GMT-0500 (Central Daylight Time),131364.19999999995,059_o_m_n_a.png,O,m,1545,4,1,2395.899999999907,128968.30000000005,7109,NNB,C,3
4,prac,1,0.0,1-Back,1,m,Thu Apr 10 2025 17:23:22 GMT-0500 (Central Daylight Time),133479.6000000001,092_m_m_n_a.png,O,m,1239,5,1,2109.3000000000466,131370.30000000005,7109,NNB,C,4
5,prac,1,1.0,1-Back,1,z,Thu Apr 10 2025 17:23:22 GMT-0500 (Central Daylight Time),135028.3999999999,092_m_m_n_a.png,O,z,775,6,1,1543.5999999998603,133484.80000000005,7109,NNB,C,5
6,prac,1,0.0,1-Back,1,m,Thu Apr 10 2025 17:23:22 GMT-0500 (Central Daylight Time),137511.5,130_o_f_n_a.png,O,m,1579,7,1,2475.1999999999534,135036.30000000005,7109,NNB,C,6
7,prac,1,0.0,1-Back,1,m,Thu Apr 10 2025 17:23:22 GMT-0500 (Central Daylight Time),139194.6000000001,082_m_m_n_a.png,O,m,804,8,1,1676.0,137518.6000000001,7109,NNB,C,7
8,prac,1,0.0,1-Back,1,m,Thu Apr 10 2025 17:23:22 GMT-0500 (Central Daylight Time),140710.69999999995,093_m_f_n_a.png,O,m,746,9,1,1509.0,139201.69999999995,7109,NNB,C,8
9,prac,1,1.0,1-Back,1,z,Thu Apr 10 2025 17:23:22 GMT-0500 (Central Daylight Time),142242.6000000001,093_m_f_n_a.png,O,z,740,10,1,1523.6000000000931,140719.0,7109,NNB,C,9
10,prac,1,0.0,1-Back,1,m,Thu Apr 10 2025 17:23:22 GMT-0500 (Central Daylight Time),143994.19999999995,059_o_m_n_a.png,O,m,964,11,1,1746.8000000000466,142247.3999999999,7109,NNB,C,10
11,prac,1,0.0,1-Back,1,m,Thu Apr 10 2025 17:23:22 GMT-0500 (Central Daylight Time),145658.3999999999,028_y_f_n_a.png,O,m,796,12,1,1660.0,143998.3999999999,7109,NNB,C,11
0,test,1,0.0,1-Back,,,Thu Apr 10 2025 17:23:22 GMT-0500 (Central Daylight Time),145658.3999999999,098_y_f_n_a.png,O,space,6285,1,1,1660.0,143998.3999999999,7109,NNB,C,0
1,test,1,0.0,1-Back,1,m,Thu Apr 10 2025 17:23:22 GMT-0500 (Central Daylight Time),166968.1000000001,006_m_f_n_a.png,O,m,1195,2,1,2206.5,164761.6000000001,7109,NNB,C,1
2,test,1,0.0,1-Back,1,m,Thu Apr 10 2025 17:23:22 GMT-0500 (Central Daylight Time),168868.6000000001,028_y_f_n_a.png,O,m,868,3,1,1897.9000000001397,166970.69999999995,7109,NNB,C,2
3,test,1,1.0,1-Back,1,z,Thu Apr 10 2025 17:23:22 GMT-0500 (Central Daylight Time),170467.80000000005,028_y_f_n_a.png,O,z,576,4,1,1595.0,168872.80000000005,7109,NNB,C,3
4,test,1,0.0,1-Back,1,m,Thu Apr 10 2025 17:23:22 GMT-0500 (Central Daylight Time),172483.3999999999,006_m_f_n_a.png,O,m,992,5,1,2012.7999999998137,170470.6000000001,7109,NNB,C,4
5,test,1,0.0,1-Back,1,m,Thu Apr 10 2025 17:23:22 GMT-0500 (Central Daylight Time),174282.5,059_o_m_n_a.png,O,m,773,6,1,1796.1999999999534,172486.30000000005,7109,NNB,C,5
6,test,1,1.0,1-Back,1,z,Thu Apr 10 2025 17:23:22 GMT-0500 (Central Daylight Time),176082.8999999999,059_o_m_n_a.png,O,z,768,7,1,1796.1999999999534,174286.69999999995,7109,NNB,C,6
7,test,1,0.0,1-Back,1,m,Thu Apr 10 2025 17:23:22 GMT-0500 (Central Daylight Time),178015.1000000001,092_m_m_n_a.png,O,m,913,8,1,1928.8000000000466,176086.30000000005,7109,NNB,C,7
8,test,1,0.0,1-Back,1,m,Thu Apr 10 2025 17:23:22 GMT-0500 (Central Daylight Time),179830.80000000005,130_o_f_n_a.png,O,m,797,9,1,1813.1000000000931,178017.69999999995,7109,NNB,C,8
9,test,1,0.0,1-Back,1,m,Thu Apr 10 2025 17:23:22 GMT-0500 (Central Daylight Time),181447.8999999999,092_m_m_n_a.png,O,m,595,10,1,1614.3999999999069,179833.5,7109,NNB,C,9
10,test,1,0.0,1-Back,1,m,Thu Apr 10 2025 17:23:22 GMT-0500 (Central Daylight Time),183263.6000000001,057_y_m_n_a.png,O,m,794,11,1,1809.5,181454.1000000001,7109,NNB,C,10
11,test,1,1.0,1-Back,1,z,Thu Apr 10 2025 17:23:22 GMT-0500 (Central Daylight Time),184962.5,057_y_m_n_a.png,O,z,667,12,1,1695.8999999999069,183266.6000000001,7109,NNB,C,11
12,test,1,0.0,1-Back,1,m,Thu Apr 10 2025 17:23:22 GMT-0500 (Central Daylight Time),186746.6000000001,030_o_f_n_a.png,O,m,760,13,1,1781.7000000001863,184964.8999999999,7109,NNB,C,12
13,test,1,1.0,1-Back,1,z,Thu Apr 10 2025 17:23:22 GMT-0500 (Central Daylight Time),188461.80000000005,030_o_f_n_a.png,O,z,689,14,1,1712.6999999999534,186749.1000000001,7109,NNB,C,13
14,test,1,0.0,1-Back,1,m,Thu Apr 10 2025 17:23:22 GMT-0500 (Central Daylight Time),190127.80000000005,031_y_m_n_a.png,O,m,646,15,1,1662.6999999999534,188465.1000000001,7109,NNB,C,14
15,test,1,0.0,1-Back,1,m,Thu Apr 10 2025 17:23:22 GMT-0500 (Central Daylight Time),191793.30000000005,093_m_f_n_a.png,O,m,644,16,1,1663.1999999999534,190130.1000000001,7109,NNB,C,15
16,test,1,0.0,1-Back,1,m,Thu Apr 10 2025 17:23:22 GMT-0500 (Central Daylight Time),193593.1000000001,146_o_m_n_a.png,O,m,775,17,1,1797.1000000000931,191796.0,7109,NNB,C,16
17,test,1,0.0,1-Back,1,m,Thu Apr 10 2025 17:23:22 GMT-0500 (Central Daylight Time),195526.69999999995,093_m_f_n_a.png,O,m,913,18,1,1930.0999999998603,193596.6000000001,7109,NNB,C,17
0,test,2,0.0,1-Back,,,Thu Apr 10 2025 17:23:22 GMT-0500 (Central Daylight Time),195526.69999999995,092_m_m_n_a.png,O,space,2629,1,1,1930.0999999998603,193596.6000000001,7109,NNB,C,0
1,test,2,0.0,1-Back,1,m,Thu Apr 10 2025 17:23:22 GMT-0500 (Central Daylight Time),201974.0,006_m_f_n_a.png,O,m,772,2,1,1796.1000000000931,200177.8999999999,7109,NNB,C,1
2,test,2,1.0,1-Back,1,z,Thu Apr 10 2025 17:23:22 GMT-0500 (Central Daylight Time),203607.6000000001,006_m_f_n_a.png,O,z,614,3,1,1630.7000000001863,201976.8999999999,7109,NNB,C,2
3,test,2,0.0,1-Back,1,m,Thu Apr 10 2025 17:23:22 GMT-0500 (Central Daylight Time),205173.1000000001,092_m_m_n_a.png,O,m,549,4,1,1562.8000000000466,203610.30000000005,7109,NNB,C,3
4,test,2,0.0,1-Back,1,m,Thu Apr 10 2025 17:23:22 GMT-0500 (Central Daylight Time),206921.80000000005,057_y_m_n_a.png,O,m,727,5,1,1744.9000000001397,205176.8999999999,7109,NNB,C,4
5,test,2,0.0,1-Back,1,m,Thu Apr 10 2025 17:23:22 GMT-0500 (Central Daylight Time),208672.8999999999,098_y_f_n_a.png,O,m,729,6,1,1748.1999999999534,206924.69999999995,7109,NNB,C,5
6,test,2,1.0,1-Back,1,z,Thu Apr 10 2025 17:23:22 GMT-0500 (Central Daylight Time),210421.30000000005,098_y_f_n_a.png,O,z,732,7,1,1745.9000000001397,208675.3999999999,7109,NNB,C,6
7,test,2,0.0,1-Back,1,m,Thu Apr 10 2025 17:23:22 GMT-0500 (Central Daylight Time),212037.69999999995,057_y_m_n_a.png,O,m,597,8,1,1613.8999999999069,210423.80000000005,7109,NNB,C,7
8,test,2,0.0,1-Back,1,m,Thu Apr 10 2025 17:23:22 GMT-0500 (Central Daylight Time),213622.0,030_o_f_n_a.png,O,m,566,9,1,1581.8000000000466,212040.19999999995,7109,NNB,C,8
9,test,2,0.0,1-Back,1,m,Thu Apr 10 2025 17:23:22 GMT-0500 (Central Daylight Time),215170.30000000005,082_m_m_n_a.png,O,m,527,10,1,1545.1999999999534,213625.1000000001,7109,NNB,C,9
10,test,2,1.0,1-Back,1,z,Thu Apr 10 2025 17:23:22 GMT-0500 (Central Daylight Time),216819.6000000001,082_m_m_n_a.png,O,z,618,11,1,1645.9000000001397,215173.69999999995,7109,NNB,C,10
11,test,2,0.0,1-Back,1,m,Thu Apr 10 2025 17:23:22 GMT-0500 (Central Daylight Time),218435.1000000001,030_o_f_n_a.png,O,m,591,12,1,1609.1000000000931,216826.0,7109,NNB,C,11
12,test,2,0.0,1-Back,1,m,Thu Apr 10 2025 17:23:22 GMT-0500 (Central Daylight Time),220501.0,130_o_f_n_a.png,O,m,1048,13,1,2063.399999999907,218437.6000000001,7109,NNB,C,12
13,test,2,0.0,1-Back,1,m,Thu Apr 10 2025 17:23:22 GMT-0500 (Central Daylight Time),222184.3999999999,059_o_m_n_a.png,O,m,661,14,1,1680.7999999998137,220503.6000000001,7109,NNB,C,13
13,test,2,0.0,1-Back,0,m,Thu Apr 10 2025 17:23:22 GMT-0500 (Central Daylight Time),223950.0,146_o_m_n_a.png,O,z,739,15,1,1762.6000000000931,222187.3999999999,7109,NNB,C,14
14,test,2,1.0,1-Back,1,z,Thu Apr 10 2025 17:23:22 GMT-0500 (Central Daylight Time),226116.1000000001,146_o_m_n_a.png,O,z,1141,16,1,2163.3000000000466,223952.80000000005,7109,NNB,C,15
15,test,2,0.0,1-Back,1,m,Thu Apr 10 2025 17:23:22 GMT-0500 (Central Daylight Time),227698.8999999999,031_y_m_n_a.png,O,m,551,17,1,1580.0999999998603,226118.80000000005,7109,NNB,C,16
16,test,2,1.0,1-Back,1,z,Thu Apr 10 2025 17:23:22 GMT-0500 (Central Daylight Time),229465.69999999995,031_y_m_n_a.png,O,z,745,18,1,1763.6999999999534,227702.0,7109,NNB,C,17
0,test,3,1.0,1-Back,,,Thu Apr 10 2025 17:23:22 GMT-0500 (Central Daylight Time),229465.69999999995,028_y_f_n_a.png,O,space,1802,1,1,1763.6999999999534,227702.0,7109,NNB,C,0
1,test,3,0.0,1-Back,1,m,Thu Apr 10 2025 17:23:22 GMT-0500 (Central Daylight Time),235084.30000000005,146_o_m_n_a.png,O,m,679,1,1,1697.4000000001397,233386.8999999999,7109,NNB,C,1
2,test,3,1.0,1-Back,1,z,Thu Apr 10 2025 17:23:22 GMT-0500 (Central Daylight Time),236846.19999999995,146_o_m_n_a.png,O,z,739,1,1,1758.3999999999069,235087.80000000005,7109,NNB,C,2
3,test,3,0.0,1-Back,1,m,Thu Apr 10 2025 17:23:22 GMT-0500 (Central Daylight Time),238396.30000000005,093_m_f_n_a.png,O,m,525,1,1,1545.9000000001397,236850.3999999999,7109,NNB,C,3
4,test,3,1.0,1-Back,1,z,Thu Apr 10 2025 17:23:22 GMT-0500 (Central Daylight Time),240128.19999999995,093_m_f_n_a.png,O,z,712,1,1,1728.8999999999069,238399.30000000005,7109,NNB,C,4
5,test,3,0.0,1-Back,1,m,Thu Apr 10 2025 17:23:22 GMT-0500 (Central Daylight Time),242028.5,030_o_f_n_a.png,O,m,874,1,1,1896.5,240132.0,7109,NNB,C,5
6,test,3,0.0,1-Back,1,m,Thu Apr 10 2025 17:23:22 GMT-0500 (Central Daylight Time),243677.19999999995,057_y_m_n_a.png,O,m,623,1,1,1643.0,242034.19999999995,7109,NNB,C,6
7,test,3,0.0,1-Back,1,m,Thu Apr 10 2025 17:23:22 GMT-0500 (Central Daylight Time),245276.3999999999,030_o_f_n_a.png,O,m,581,1,1,1594.0,243682.3999999999,7109,NNB,C,7
8,test,3,0.0,1-Back,1,m,Thu Apr 10 2025 17:23:22 GMT-0500 (Central Daylight Time),246909.30000000005,031_y_m_n_a.png,O,m,614,1,1,1630.4000000001397,245278.8999999999,7109,NNB,C,8
9,test,3,1.0,1-Back,1,z,Thu Apr 10 2025 17:23:22 GMT-0500 (Central Daylight Time),248559.0,031_y_m_n_a.png,O,z,622,1,1,1646.8000000000466,246912.19999999995,7109,NNB,C,9
10,test,3,0.0,1-Back,1,m,Thu Apr 10 2025 17:23:22 GMT-0500 (Central Daylight Time),250193.0,006_m_f_n_a.png,O,m,612,1,1,1631.3999999999069,248561.6000000001,7109,NNB,C,10
10,test,3,0.0,1-Back,0,m,Thu Apr 10 2025 17:23:22 GMT-0500 (Central Daylight Time),251974.6000000001,098_y_f_n_a.png,O,z,755,1,1,1778.4000000001397,250196.19999999995,7109,NNB,C,11
11,test,3,1.0,1-Back,1,z,Thu Apr 10 2025 17:23:22 GMT-0500 (Central Daylight Time),254573.6000000001,098_y_f_n_a.png,O,z,1573,1,1,2596.100000000093,251977.5,7109,NNB,C,12
12,test,3,0.0,1-Back,1,m,Thu Apr 10 2025 17:23:22 GMT-0500 (Central Daylight Time),256189.69999999995,006_m_f_n_a.png,O,m,598,1,1,1612.3000000000466,254577.3999999999,7109,NNB,C,13
13,test,3,0.0,1-Back,1,m,Thu Apr 10 2025 17:23:22 GMT-0500 (Central Daylight Time),257839.19999999995,092_m_m_n_a.png,O,m,629,1,1,1645.5,256193.69999999995,7109,NNB,C,14
14,test,3,1.0,1-Back,1,z,Thu Apr 10 2025 17:23:22 GMT-0500 (Central Daylight Time),259505.3999999999,092_m_m_n_a.png,O,z,635,1,1,1662.3999999999069,257843.0,7109,NNB,C,15
15,test,3,0.0,1-Back,1,m,Thu Apr 10 2025 17:23:22 GMT-0500 (Central Daylight Time),261122.5,130_o_f_n_a.png,O,m,594,1,1,1614.3000000000466,259508.19999999995,7109,NNB,C,16
16,test,3,1.0,1-Back,1,z,Thu Apr 10 2025 17:23:22 GMT-0500 (Central Daylight Time),262804.3999999999,130_o_f_n_a.png,O,z,650,1,1,1678.3999999999069,261126.0,7109,NNB,C,17
0,test,4,1.0,1-Back,,,Thu Apr 10 2025 17:23:22 GMT-0500 (Central Daylight Time),262804.3999999999,093_m_f_n_a.png,O,space,1711,1,1,1678.3999999999069,261126.0,7109,NNB,C,0
1,test,4,0.0,1-Back,1,m,Thu Apr 10 2025 17:23:22 GMT-0500 (Central Daylight Time),268335.8999999999,146_o_m_n_a.png,O,m,695,2,1,1710.6999999999534,266625.19999999995,7109,NNB,C,1
2,test,4,0.0,1-Back,1,m,Thu Apr 10 2025 17:23:22 GMT-0500 (Central Daylight Time),270252.69999999995,093_m_f_n_a.png,O,m,900,3,1,1914.1999999999534,268338.5,7109,NNB,C,2
3,test,4,0.0,1-Back,1,m,Thu Apr 10 2025 17:23:22 GMT-0500 (Central Daylight Time),271901.30000000005,030_o_f_n_a.png,O,m,630,4,1,1645.5,270255.80000000005,7109,NNB,C,3
4,test,4,1.0,1-Back,1,z,Thu Apr 10 2025 17:23:22 GMT-0500 (Central Daylight Time),273467.69999999995,030_o_f_n_a.png,O,z,534,5,1,1563.8999999999069,271903.80000000005,7109,NNB,C,4
5,test,4,0.0,1-Back,1,m,Thu Apr 10 2025 17:23:22 GMT-0500 (Central Daylight Time),275017.0,098_y_f_n_a.png,O,m,519,6,1,1546.6000000000931,273470.3999999999,7109,NNB,C,5
6,test,4,0.0,1-Back,1,m,Thu Apr 10 2025 17:23:22 GMT-0500 (Central Daylight Time),276900.69999999995,057_y_m_n_a.png,O,m,857,7,1,1878.8000000000466,275021.8999999999,7109,NNB,C,6
7,test,4,1.0,1-Back,1,z,Thu Apr 10 2025 17:23:22 GMT-0500 (Central Daylight Time),278582.69999999995,057_y_m_n_a.png,O,z,663,8,1,1678.8999999999069,276903.80000000005,7109,NNB,C,7
8,test,4,0.0,1-Back,1,m,Thu Apr 10 2025 17:23:22 GMT-0500 (Central Daylight Time),280199.69999999995,098_y_f_n_a.png,O,m,588,9,1,1611.8000000000466,278587.8999999999,7109,NNB,C,8
9,test,4,0.0,1-Back,1,m,Thu Apr 10 2025 17:23:22 GMT-0500 (Central Daylight Time),282038.6000000001,082_m_m_n_a.png,O,m,805,10,1,1836.4000000001397,280202.19999999995,7109,NNB,C,9
10,test,4,1.0,1-Back,1,z,Thu Apr 10 2025 17:23:22 GMT-0500 (Central Daylight Time),283681.1000000001,082_m_m_n_a.png,O,z,620,11,1,1640.0,282041.1000000001,7109,NNB,C,10
11,test,4,0.0,1-Back,1,m,Thu Apr 10 2025 17:23:22 GMT-0500 (Central Daylight Time),285264.3999999999,130_o_f_n_a.png,O,m,554,12,1,1579.3999999999069,283685.0,7109,NNB,C,11
12,test,4,0.0,1-Back,1,m,Thu Apr 10 2025 17:23:22 GMT-0500 (Central Daylight Time),286846.69999999995,059_o_m_n_a.png,O,m,555,13,1,1579.8999999999069,285266.80000000005,7109,NNB,C,12
13,test,4,0.0,1-Back,1,m,Thu Apr 10 2025 17:23:22 GMT-0500 (Central Daylight Time),288346.0,130_o_f_n_a.png,O,m,469,14,1,1495.6000000000931,286850.3999999999,7109,NNB,C,13
14,test,4,0.0,1-Back,1,m,Thu Apr 10 2025 17:23:22 GMT-0500 (Central Daylight Time),289929.80000000005,028_y_f_n_a.png,O,m,561,15,1,1581.5,288348.30000000005,7109,NNB,C,14
15,test,4,1.0,1-Back,1,z,Thu Apr 10 2025 17:23:22 GMT-0500 (Central Daylight Time),291578.5,028_y_f_n_a.png,O,z,626,16,1,1646.1000000000931,289932.3999999999,7109,NNB,C,15
16,test,4,0.0,1-Back,1,m,Thu Apr 10 2025 17:23:22 GMT-0500 (Central Daylight Time),293162.0,006_m_f_n_a.png,O,m,560,17,1,1581.1000000000931,291580.8999999999,7109,NNB,C,16
16,test,4,1.0,1-Back,0,z,Thu Apr 10 2025 17:23:22 GMT-0500 (Central Daylight Time),294644.19999999995,006_m_f_n_a.png,O,m,466,18,1,1478.6999999999534,293165.5,7109,NNB,C,17
0,test,5,1.0,1-Back,,,Thu Apr 10 2025 17:23:22 GMT-0500 (Central Daylight Time),294644.19999999995,059_o_m_n_a.png,O,space,1407,1,1,1478.6999999999534,293165.5,7109,NNB,C,0
1,test,5,1.0,1-Back,1,z,Thu Apr 10 2025 17:23:22 GMT-0500 (Central Daylight Time),300026.30000000005,059_o_m_n_a.png,O,z,918,2,1,1945.9000000001397,298080.3999999999,7109,NNB,C,1
2,test,5,0.0,1-Back,1,m,Thu Apr 10 2025 17:23:22 GMT-0500 (Central Daylight Time),301625.19999999995,098_y_f_n_a.png,O,m,570,3,1,1595.3000000000466,300029.8999999999,7109,NNB,C,2
3,test,5,0.0,1-Back,1,m,Thu Apr 10 2025 17:23:22 GMT-0500 (Central Daylight Time),303258.19999999995,057_y_m_n_a.png,O,m,601,4,1,1629.8999999999069,301628.30000000005,7109,NNB,C,3
4,test,5,0.0,1-Back,1,m,Thu Apr 10 2025 17:23:22 GMT-0500 (Central Daylight Time),304891.0,098_y_f_n_a.png,O,m,600,5,1,1629.5,303261.5,7109,NNB,C,4
5,test,5,0.0,1-Back,1,m,Thu Apr 10 2025 17:23:22 GMT-0500 (Central Daylight Time),306523.8999999999,092_m_m_n_a.png,O,m,616,6,1,1629.2999999998137,304894.6000000001,7109,NNB,C,5
6,test,5,1.0,1-Back,1,z,Thu Apr 10 2025 17:23:22 GMT-0500 (Central Daylight Time),308224.0,092_m_m_n_a.png,O,z,679,7,1,1697.3999999999069,306526.6000000001,7109,NNB,C,6
7,test,5,0.0,1-Back,1,m,Thu Apr 10 2025 17:23:22 GMT-0500 (Central Daylight Time),309807.0,028_y_f_n_a.png,O,m,564,8,1,1580.3999999999069,308226.6000000001,7109,NNB,C,7
8,test,5,0.0,1-Back,1,m,Thu Apr 10 2025 17:23:22 GMT-0500 (Central Daylight Time),311422.1000000001,031_y_m_n_a.png,O,m,596,9,1,1612.4000000001397,309809.69999999995,7109,NNB,C,8
9,test,5,0.0,1-Back,1,m,Thu Apr 10 2025 17:23:22 GMT-0500 (Central Daylight Time),313221.5,028_y_f_n_a.png,O,m,781,10,1,1796.6999999999534,311424.80000000005,7109,NNB,C,9
10,test,5,0.0,1-Back,1,m,Thu Apr 10 2025 17:23:22 GMT-0500 (Central Daylight Time),314772.30000000005,130_o_f_n_a.png,O,m,533,11,1,1547.6000000000931,313224.69999999995,7109,NNB,C,10
11,test,5,1.0,1-Back,1,z,Thu Apr 10 2025 17:23:22 GMT-0500 (Central Daylight Time),316405.1000000001,130_o_f_n_a.png,O,z,607,12,1,1629.2000000001863,314775.8999999999,7109,NNB,C,11
12,test,5,0.0,1-Back,1,m,Thu Apr 10 2025 17:23:22 GMT-0500 (Central Daylight Time),317953.5,146_o_m_n_a.png,O,m,527,13,1,1544.8000000000466,316408.69999999995,7109,NNB,C,12
13,test,5,0.0,1-Back,1,m,Thu Apr 10 2025 17:23:22 GMT-0500 (Central Daylight Time),319602.8999999999,093_m_f_n_a.png,O,m,617,14,1,1646.8999999999069,317956.0,7109,NNB,C,13
14,test,5,1.0,1-Back,1,z,Thu Apr 10 2025 17:23:22 GMT-0500 (Central Daylight Time),321219.8999999999,093_m_f_n_a.png,O,z,600,15,1,1613.5,319606.3999999999,7109,NNB,C,14
15,test,5,0.0,1-Back,1,m,Thu Apr 10 2025 17:23:22 GMT-0500 (Central Daylight Time),322869.69999999995,146_o_m_n_a.png,O,m,624,16,1,1647.3000000000466,321222.3999999999,7109,NNB,C,15
16,test,5,0.0,1-Back,1,m,Thu Apr 10 2025 17:23:22 GMT-0500 (Central Daylight Time),324434.69999999995,006_m_f_n_a.png,O,m,543,17,1,1556.8999999999069,322877.80000000005,7109,NNB,C,16
17,test,5,0.0,1-Back,1,m,Thu Apr 10 2025 17:23:22 GMT-0500 (Central Daylight Time),326067.6000000001,082_m_m_n_a.png,O,m,600,18,1,1630.4000000001397,324437.19999999995,7109,NNB,C,17
0,prac,1,0.0,2-Back,,,Thu Apr 10 2025 17:23:22 GMT-0500 (Central Daylight Time),326067.6000000001,031_y_m_n_a.png,O,space,4118,1,1,1630.4000000001397,324437.19999999995,7109,NNB,C,0
0,prac,1,0.0,2-Back,,,Thu Apr 10 2025 17:23:22 GMT-0500 (Central Daylight Time),326067.6000000001,006_m_f_n_a.png,O,space,4118,2,1,1630.4000000001397,324437.19999999995,7109,NNB,C,0
1,prac,1,1.0,2-Back,1,m,Thu Apr 10 2025 17:23:22 GMT-0500 (Central Daylight Time),427636.0,146_o_m_n_a.png,O,m,1766,3,1,2624.899999999907,425011.1000000001,7109,NNB,C,1
2,prac,1,0.0,2-Back,1,m,Thu Apr 10 2025 17:23:22 GMT-0500 (Central Daylight Time),429736.0,130_o_f_n_a.png,O,m,1206,4,1,2095.6999999999534,427640.30000000005,7109,NNB,C,2
3,prac,1,0.0,2-Back,1,z,Thu Apr 10 2025 17:23:22 GMT-0500 (Central Daylight Time),431451.80000000005,146_o_m_n_a.png,O,z,932,5,1,1709.0,429742.80000000005,7109,NNB,C,3
4,prac,1,1.0,2-Back,1,z,Thu Apr 10 2025 17:23:22 GMT-0500 (Central Daylight Time),433402.0,130_o_f_n_a.png,O,z,1172,6,1,1946.5,431455.5,7109,NNB,C,4
5,prac,1,0.0,2-Back,1,m,Thu Apr 10 2025 17:23:22 GMT-0500 (Central Daylight Time),435650.5,082_m_m_n_a.png,O,m,1377,7,1,2243.5,433407.0,7109,NNB,C,5
6,prac,1,0.0,2-Back,1,m,Thu Apr 10 2025 17:23:22 GMT-0500 (Central Daylight Time),438516.1000000001,059_o_m_n_a.png,O,m,1991,8,1,2859.2000000001863,435656.8999999999,7109,NNB,C,6
7,prac,1,0.0,2-Back,1,m,Thu Apr 10 2025 17:23:22 GMT-0500 (Central Daylight Time),440231.19999999995,028_y_f_n_a.png,O,m,848,9,1,1708.1999999999534,438523.0,7109,NNB,C,7
7,prac,1,1.0,2-Back,0,z,Thu Apr 10 2025 17:23:22 GMT-0500 (Central Daylight Time),442997.6000000001,059_o_m_n_a.png,O,None,2007,10,1,2758.2000000001863,440239.3999999999,7109,NNB,C,8
8,prac,1,0.0,2-Back,1,m,Thu Apr 10 2025 17:23:22 GMT-0500 (Central Daylight Time),445330.1000000001,098_y_f_n_a.png,O,m,1463,11,1,2326.0,443004.1000000001,7109,NNB,C,9
8,prac,1,0.0,2-Back,0,m,Thu Apr 10 2025 17:23:22 GMT-0500 (Central Daylight Time),447496.19999999995,082_m_m_n_a.png,O,z,1379,12,1,2159.899999999907,445336.30000000005,7109,NNB,C,10
0,test,1,0.0,2-Back,,,Thu Apr 10 2025 17:23:22 GMT-0500 (Central Daylight Time),447496.19999999995,057_y_m_n_a.png,O,space,3666,1,1,2159.899999999907,445336.30000000005,7109,NNB,C,0
0,test,1,0.0,2-Back,,,Thu Apr 10 2025 17:23:22 GMT-0500 (Central Daylight Time),447496.19999999995,057_y_m_n_a.png,O,space,3666,2,1,2159.899999999907,445336.30000000005,7109,NNB,C,0
1,test,1,0.0,2-Back,1,m,Thu Apr 10 2025 17:23:22 GMT-0500 (Central Daylight Time),464926.6000000001,130_o_f_n_a.png,O,m,1107,3,1,2126.3000000000466,462800.30000000005,7109,NNB,C,1
2,test,1,0.0,2-Back,1,m,Thu Apr 10 2025 17:23:22 GMT-0500 (Central Daylight Time),467142.80000000005,092_m_m_n_a.png,O,m,1198,4,1,2207.4000000001397,464935.3999999999,7109,NNB,C,2
3,test,1,1.0,2-Back,1,z,Thu Apr 10 2025 17:23:22 GMT-0500 (Central Daylight Time),469359.30000000005,130_o_f_n_a.png,O,z,1199,5,1,2208.4000000001397,467150.8999999999,7109,NNB,C,3
4,test,1,0.0,2-Back,1,m,Thu Apr 10 2025 17:23:22 GMT-0500 (Central Daylight Time),471189.8999999999,098_y_f_n_a.png,O,m,806,6,1,1823.8999999999069,469366.0,7109,NNB,C,4
5,test,1,0.0,2-Back,1,m,Thu Apr 10 2025 17:23:22 GMT-0500 (Central Daylight Time),473156.1000000001,092_m_m_n_a.png,O,m,941,7,1,1958.9000000001397,471197.19999999995,7109,NNB,C,5
6,test,1,1.0,2-Back,1,z,Thu Apr 10 2025 17:23:22 GMT-0500 (Central Daylight Time),475106.6000000001,098_y_f_n_a.png,O,z,927,8,1,1943.5,473163.1000000001,7109,NNB,C,6
7,test,1,0.0,2-Back,1,m,Thu Apr 10 2025 17:23:22 GMT-0500 (Central Daylight Time),477088.19999999995,031_y_m_n_a.png,O,m,949,9,1,1974.8999999999069,475113.30000000005,7109,NNB,C,7
8,test,1,0.0,2-Back,1,m,Thu Apr 10 2025 17:23:22 GMT-0500 (Central Daylight Time),478920.6000000001,030_o_f_n_a.png,O,m,803,10,1,1825.8000000000466,477094.80000000005,7109,NNB,C,8
8,test,1,1.0,2-Back,0,z,Thu Apr 10 2025 17:23:22 GMT-0500 (Central Daylight Time),481953.1000000001,031_y_m_n_a.png,O,None,2016,11,1,3027.100000000093,478926.0,7109,NNB,C,9
9,test,1,0.0,2-Back,1,m,Thu Apr 10 2025 17:23:22 GMT-0500 (Central Daylight Time),484104.6000000001,006_m_f_n_a.png,O,m,1133,12,1,2145.9000000001397,481958.69999999995,7109,NNB,C,10
10,test,1,0.0,2-Back,1,m,Thu Apr 10 2025 17:23:22 GMT-0500 (Central Daylight Time),486585.80000000005,006_m_f_n_a.png,O,m,1461,13,1,2474.9000000001397,484110.8999999999,7109,NNB,C,11
11,test,1,0.0,2-Back,1,m,Thu Apr 10 2025 17:23:22 GMT-0500 (Central Daylight Time),488418.30000000005,146_o_m_n_a.png,O,m,811,14,1,1825.1999999999534,486593.1000000001,7109,NNB,C,12
12,test,1,0.0,2-Back,1,m,Thu Apr 10 2025 17:23:22 GMT-0500 (Central Daylight Time),490784.1000000001,030_o_f_n_a.png,O,m,1337,15,1,2359.0,488425.1000000001,7109,NNB,C,13
13,test,1,1.0,2-Back,1,z,Thu Apr 10 2025 17:23:22 GMT-0500 (Central Daylight Time),493102.3999999999,146_o_m_n_a.png,O,z,1285,16,1,2312.0,490790.3999999999,7109,NNB,C,14
14,test,1,0.0,2-Back,1,m,Thu Apr 10 2025 17:23:22 GMT-0500 (Central Daylight Time),494866.30000000005,093_m_f_n_a.png,O,m,745,17,1,1757.9000000001397,493108.3999999999,7109,NNB,C,15
15,test,1,0.0,2-Back,1,m,Thu Apr 10 2025 17:23:22 GMT-0500 (Central Daylight Time),496732.8999999999,082_m_m_n_a.png,O,m,842,18,1,1861.2999999998137,494871.6000000001,7109,NNB,C,16
0,test,2,0.0,2-Back,,,Thu Apr 10 2025 17:23:22 GMT-0500 (Central Daylight Time),496732.8999999999,082_m_m_n_a.png,O,space,2167,1,1,1861.2999999998137,494871.6000000001,7109,NNB,C,0
0,test,2,0.0,2-Back,,,Thu Apr 10 2025 17:23:22 GMT-0500 (Central Daylight Time),496732.8999999999,028_y_f_n_a.png,O,space,2167,2,1,1861.2999999998137,494871.6000000001,7109,NNB,C,0
0,test,2,1.0,2-Back,0,z,Thu Apr 10 2025 17:23:22 GMT-0500 (Central Daylight Time),505778.2999999998,082_m_m_n_a.png,O,m,709,3,1,1723.6999999997206,504054.6000000001,7109,NNB,C,1
1,test,2,0.0,2-Back,1,m,Thu Apr 10 2025 17:23:22 GMT-0500 (Central Daylight Time),507862.8999999999,093_m_f_n_a.png,O,m,1066,4,1,2076.100000000093,505786.7999999998,7109,NNB,C,2
1,test,2,0.0,2-Back,0,m,Thu Apr 10 2025 17:23:22 GMT-0500 (Central Daylight Time),510895.8999999999,028_y_f_n_a.png,O,None,2016,5,1,3029.0,507866.8999999999,7109,NNB,C,3
2,test,2,0.0,2-Back,1,m,Thu Apr 10 2025 17:23:22 GMT-0500 (Central Daylight Time),513209.7000000002,146_o_m_n_a.png,O,m,1285,6,1,2306.4000000003725,510903.2999999998,7109,NNB,C,4
3,test,2,0.0,2-Back,1,m,Thu Apr 10 2025 17:23:22 GMT-0500 (Central Daylight Time),515226.7999999998,098_y_f_n_a.png,O,m,985,7,1,2009.5999999996275,513217.2000000002,7109,NNB,C,5
4,test,2,1.0,2-Back,1,z,Thu Apr 10 2025 17:23:22 GMT-0500 (Central Daylight Time),517308.8999999999,146_o_m_n_a.png,O,z,1057,8,1,2073.100000000093,515235.7999999998,7109,NNB,C,6
5,test,2,0.0,2-Back,1,m,Thu Apr 10 2025 17:23:22 GMT-0500 (Central Daylight Time),519275.1000000001,031_y_m_n_a.png,O,m,942,9,1,1961.8999999999069,517313.2000000002,7109,NNB,C,7
6,test,2,0.0,2-Back,1,m,Thu Apr 10 2025 17:23:22 GMT-0500 (Central Daylight Time),521724.2000000002,031_y_m_n_a.png,O,m,1424,10,1,2442.100000000093,519282.1000000001,7109,NNB,C,8
7,test,2,0.0,2-Back,1,m,Thu Apr 10 2025 17:23:22 GMT-0500 (Central Daylight Time),524255.6000000001,006_m_f_n_a.png,O,m,1505,11,1,2524.899999999907,521730.7000000002,7109,NNB,C,9
8,test,2,0.0,2-Back,1,m,Thu Apr 10 2025 17:23:22 GMT-0500 (Central Daylight Time),526557.2000000002,028_y_f_n_a.png,O,m,1275,12,1,2296.7000000001863,524260.5,7109,NNB,C,10
9,test,2,1.0,2-Back,1,z,Thu Apr 10 2025 17:23:22 GMT-0500 (Central Daylight Time),528555.7000000002,006_m_f_n_a.png,O,z,966,13,1,1991.3000000002794,526564.3999999999,7109,NNB,C,11
10,test,2,0.0,2-Back,1,m,Thu Apr 10 2025 17:23:22 GMT-0500 (Central Daylight Time),530337.8999999999,059_o_m_n_a.png,O,m,761,14,1,1776.1999999997206,528561.7000000002,7109,NNB,C,12
11,test,2,0.0,2-Back,1,m,Thu Apr 10 2025 17:23:22 GMT-0500 (Central Daylight Time),532752.7999999998,059_o_m_n_a.png,O,m,1386,15,1,2407.6999999997206,530345.1000000001,7109,NNB,C,13
12,test,2,0.0,2-Back,1,m,Thu Apr 10 2025 17:23:22 GMT-0500 (Central Daylight Time),534668.6000000001,030_o_f_n_a.png,O,m,897,16,1,1908.8000000002794,532759.7999999998,7109,NNB,C,14
13,test,2,0.0,2-Back,1,m,Thu Apr 10 2025 17:23:22 GMT-0500 (Central Daylight Time),536586.8999999999,092_m_m_n_a.png,O,m,885,17,1,1915.8999999999069,534671.0,7109,NNB,C,15
14,test,2,1.0,2-Back,1,z,Thu Apr 10 2025 17:23:22 GMT-0500 (Central Daylight Time),538401.2999999998,030_o_f_n_a.png,O,z,792,18,1,1806.5999999996275,536594.7000000002,7109,NNB,C,16
0,test,3,1.0,2-Back,,,Thu Apr 10 2025 17:23:22 GMT-0500 (Central Daylight Time),538401.2999999998,057_y_m_n_a.png,O,space,1554,1,1,1806.5999999996275,536594.7000000002,7109,NNB,C,0
0,test,3,1.0,2-Back,,,Thu Apr 10 2025 17:23:22 GMT-0500 (Central Daylight Time),538401.2999999998,057_y_m_n_a.png,O,space,1554,2,1,1806.5999999996275,536594.7000000002,7109,NNB,C,0
1,test,3,0.0,2-Back,1,m,Thu Apr 10 2025 17:23:22 GMT-0500 (Central Daylight Time),547283.7000000002,030_o_f_n_a.png,O,m,1134,3,1,2162.100000000093,545121.6000000001,7109,NNB,C,1
2,test,3,0.0,2-Back,1,m,Thu Apr 10 2025 17:23:22 GMT-0500 (Central Daylight Time),548999.1000000001,082_m_m_n_a.png,O,m,699,4,1,1708.1000000000931,547291.0,7109,NNB,C,2
3,test,3,1.0,2-Back,1,z,Thu Apr 10 2025 17:23:22 GMT-0500 (Central Daylight Time),550780.7999999998,030_o_f_n_a.png,O,z,757,5,1,1776.0,549004.7999999998,7109,NNB,C,3
4,test,3,0.0,2-Back,1,m,Thu Apr 10 2025 17:23:22 GMT-0500 (Central Daylight Time),553463.2000000002,031_y_m_n_a.png,O,m,1663,6,1,2676.8000000002794,550786.3999999999,7109,NNB,C,4
5,test,3,0.0,2-Back,1,m,Thu Apr 10 2025 17:23:22 GMT-0500 (Central Daylight Time),556297.0,082_m_m_n_a.png,O,m,1811,7,1,2826.100000000093,553470.8999999999,7109,NNB,C,5
6,test,3,1.0,2-Back,1,z,Thu Apr 10 2025 17:23:22 GMT-0500 (Central Daylight Time),558281.6000000001,031_y_m_n_a.png,O,z,957,8,1,1980.5,556301.1000000001,7109,NNB,C,6
7,test,3,0.0,2-Back,1,m,Thu Apr 10 2025 17:23:22 GMT-0500 (Central Daylight Time),560394.7999999998,028_y_f_n_a.png,O,m,1085,9,1,2107.5,558287.2999999998,7109,NNB,C,7
8,test,3,0.0,2-Back,1,m,Thu Apr 10 2025 17:23:22 GMT-0500 (Central Daylight Time),562261.7999999998,092_m_m_n_a.png,O,m,848,10,1,1861.1999999997206,560400.6000000001,7109,NNB,C,8
9,test,3,1.0,2-Back,1,z,Thu Apr 10 2025 17:23:22 GMT-0500 (Central Daylight Time),564194.0,028_y_f_n_a.png,O,z,911,11,1,1925.1000000000931,562268.8999999999,7109,NNB,C,9
10,test,3,1.0,2-Back,1,z,Thu Apr 10 2025 17:23:22 GMT-0500 (Central Daylight Time),566975.6000000001,092_m_m_n_a.png,O,z,1763,12,1,2777.100000000093,564198.5,7109,NNB,C,10
11,test,3,0.0,2-Back,1,m,Thu Apr 10 2025 17:23:22 GMT-0500 (Central Daylight Time),569311.7999999998,030_o_f_n_a.png,O,m,1318,13,1,2329.399999999907,566982.3999999999,7109,NNB,C,11
12,test,3,0.0,2-Back,1,m,Thu Apr 10 2025 17:23:22 GMT-0500 (Central Daylight Time),571175.5,093_m_f_n_a.png,O,m,840,14,1,1856.7000000001863,569318.7999999998,7109,NNB,C,12
13,test,3,0.0,2-Back,1,m,Thu Apr 10 2025 17:23:22 GMT-0500 (Central Daylight Time),573289.8999999999,146_o_m_n_a.png,O,m,1093,15,1,2107.399999999907,571182.5,7109,NNB,C,13
13,test,3,1.0,2-Back,0,z,Thu Apr 10 2025 17:23:22 GMT-0500 (Central Daylight Time),575839.8999999999,093_m_f_n_a.png,O,m,1526,16,1,2542.5,573297.3999999999,7109,NNB,C,14
14,test,3,0.0,2-Back,1,m,Thu Apr 10 2025 17:23:22 GMT-0500 (Central Daylight Time),577589.5,130_o_f_n_a.png,O,m,724,17,1,1742.7999999998137,575846.7000000002,7109,NNB,C,15
15,test,3,0.0,2-Back,1,m,Thu Apr 10 2025 17:23:22 GMT-0500 (Central Daylight Time),579756.0,130_o_f_n_a.png,O,m,1135,18,1,2159.899999999907,577596.1000000001,7109,NNB,C,16
0,test,4,0.0,2-Back,,,Thu Apr 10 2025 17:23:22 GMT-0500 (Central Daylight Time),579756.0,059_o_m_n_a.png,O,space,1720,1,1,2159.899999999907,577596.1000000001,7109,NNB,C,0
0,test,4,0.0,2-Back,,,Thu Apr 10 2025 17:23:22 GMT-0500 (Central Daylight Time),579756.0,098_y_f_n_a.png,O,space,1720,2,1,2159.899999999907,577596.1000000001,7109,NNB,C,0
1,test,4,1.0,2-Back,1,z,Thu Apr 10 2025 17:23:22 GMT-0500 (Central Daylight Time),588688.1000000001,059_o_m_n_a.png,O,z,967,3,1,1976.5,586711.6000000001,7109,NNB,C,1
2,test,4,1.0,2-Back,1,z,Thu Apr 10 2025 17:23:22 GMT-0500 (Central Daylight Time),590569.1000000001,098_y_f_n_a.png,O,z,862,4,1,1875.3000000002794,588693.7999999998,7109,NNB,C,2
3,test,4,0.0,2-Back,1,m,Thu Apr 10 2025 17:23:22 GMT-0500 (Central Daylight Time),592651.8999999999,030_o_f_n_a.png,O,m,1052,5,1,2075.7999999998137,590576.1000000001,7109,NNB,C,3
4,test,4,0.0,2-Back,1,m,Thu Apr 10 2025 17:23:22 GMT-0500 (Central Daylight Time),594967.2999999998,030_o_f_n_a.png,O,m,1287,6,1,2308.7999999998137,592658.5,7109,NNB,C,4
5,test,4,0.0,2-Back,1,m,Thu Apr 10 2025 17:23:22 GMT-0500 (Central Daylight Time),596899.2999999998,006_m_f_n_a.png,O,m,908,7,1,1925.0,594974.2999999998,7109,NNB,C,5
6,test,4,0.0,2-Back,1,m,Thu Apr 10 2025 17:23:22 GMT-0500 (Central Daylight Time),598599.7000000002,031_y_m_n_a.png,O,m,671,8,1,1695.1000000000931,596904.6000000001,7109,NNB,C,6
7,test,4,1.0,2-Back,1,z,Thu Apr 10 2025 17:23:22 GMT-0500 (Central Daylight Time),600682.2999999998,006_m_f_n_a.png,O,z,1061,9,1,2076.5999999996275,598605.7000000002,7109,NNB,C,7
8,test,4,0.0,2-Back,1,m,Thu Apr 10 2025 17:23:22 GMT-0500 (Central Daylight Time),602615.0,092_m_m_n_a.png,O,m,904,10,1,1927.1000000000931,600687.8999999999,7109,NNB,C,8
9,test,4,0.0,2-Back,1,m,Thu Apr 10 2025 17:23:22 GMT-0500 (Central Daylight Time),605063.7000000002,031_y_m_n_a.png,O,m,1416,11,1,2443.3000000002794,602620.3999999999,7109,NNB,C,9
10,test,4,0.0,2-Back,1,m,Thu Apr 10 2025 17:23:22 GMT-0500 (Central Daylight Time),606848.2999999998,130_o_f_n_a.png,O,m,755,12,1,1778.8999999999069,605069.3999999999,7109,NNB,C,10
11,test,4,0.0,2-Back,1,m,Thu Apr 10 2025 17:23:22 GMT-0500 (Central Daylight Time),609262.8999999999,057_y_m_n_a.png,O,m,1397,13,1,2408.6999999997206,606854.2000000002,7109,NNB,C,11
12,test,4,1.0,2-Back,1,z,Thu Apr 10 2025 17:23:22 GMT-0500 (Central Daylight Time),611128.2000000002,130_o_f_n_a.png,O,z,836,14,1,1859.7000000001863,609268.5,7109,NNB,C,12
12,test,4,1.0,2-Back,0,z,Thu Apr 10 2025 17:23:22 GMT-0500 (Central Daylight Time),614161.5,057_y_m_n_a.png,O,None,2015,15,1,3028.2999999998137,611133.2000000002,7109,NNB,C,13
13,test,4,0.0,2-Back,1,m,Thu Apr 10 2025 17:23:22 GMT-0500 (Central Daylight Time),616712.2000000002,082_m_m_n_a.png,O,m,1533,16,1,2543.0,614169.2000000002,7109,NNB,C,14
14,test,4,0.0,2-Back,1,m,Thu Apr 10 2025 17:23:22 GMT-0500 (Central Daylight Time),618527.7999999998,093_m_f_n_a.png,O,m,799,17,1,1809.3999999999069,616718.3999999999,7109,NNB,C,15
15,test,4,1.0,2-Back,1,z,Thu Apr 10 2025 17:23:22 GMT-0500 (Central Daylight Time),620393.1000000001,082_m_m_n_a.png,O,z,844,18,1,1859.3999999999069,618533.7000000002,7109,NNB,C,16
0,test,5,1.0,2-Back,,,Thu Apr 10 2025 17:23:22 GMT-0500 (Central Daylight Time),620393.1000000001,057_y_m_n_a.png,O,space,1587,1,1,1859.3999999999069,618533.7000000002,7109,NNB,C,0
0,test,5,1.0,2-Back,,,Thu Apr 10 2025 17:23:22 GMT-0500 (Central Daylight Time),620393.1000000001,093_m_f_n_a.png,O,space,1587,2,1,1859.3999999999069,618533.7000000002,7109,NNB,C,0
1,test,5,1.0,2-Back,1,z,Thu Apr 10 2025 17:23:22 GMT-0500 (Central Daylight Time),629306.1000000001,057_y_m_n_a.png,O,z,1242,3,1,2257.0,627049.1000000001,7109,NNB,C,1
2,test,5,1.0,2-Back,1,z,Thu Apr 10 2025 17:23:22 GMT-0500 (Central Daylight Time),631556.0,093_m_f_n_a.png,O,z,1226,4,1,2243.899999999907,629312.1000000001,7109,NNB,C,2
3,test,5,0.0,2-Back,1,m,Thu Apr 10 2025 17:23:22 GMT-0500 (Central Daylight Time),633389.3999999999,130_o_f_n_a.png,O,m,808,5,1,1827.8999999999069,631561.5,7109,NNB,C,3
4,test,5,0.0,2-Back,1,m,Thu Apr 10 2025 17:23:22 GMT-0500 (Central Daylight Time),635603.8999999999,057_y_m_n_a.png,O,m,1190,6,1,2209.2999999998137,633394.6000000001,7109,NNB,C,4
5,test,5,0.0,2-Back,1,m,Thu Apr 10 2025 17:23:22 GMT-0500 (Central Daylight Time),637522.2000000002,028_y_f_n_a.png,O,m,895,7,1,1912.7000000001863,635609.5,7109,NNB,C,5
6,test,5,0.0,2-Back,1,m,Thu Apr 10 2025 17:23:22 GMT-0500 (Central Daylight Time),639670.1000000001,130_o_f_n_a.png,O,m,1123,8,1,2140.8000000002794,637529.2999999998,7109,NNB,C,6
7,test,5,1.0,2-Back,1,z,Thu Apr 10 2025 17:23:22 GMT-0500 (Central Daylight Time),641584.6000000001,028_y_f_n_a.png,O,z,885,9,1,1907.0,639677.6000000001,7109,NNB,C,7
8,test,5,0.0,2-Back,1,m,Thu Apr 10 2025 17:23:22 GMT-0500 (Central Daylight Time),643403.7999999998,146_o_m_n_a.png,O,m,786,10,1,1811.5999999996275,641592.2000000002,7109,NNB,C,8
9,test,5,0.0,2-Back,1,m,Thu Apr 10 2025 17:23:22 GMT-0500 (Central Daylight Time),645552.2000000002,006_m_f_n_a.png,O,m,1122,11,1,2142.8000000002794,643409.3999999999,7109,NNB,C,9
10,test,5,0.0,2-Back,1,m,Thu Apr 10 2025 17:23:22 GMT-0500 (Central Daylight Time),647734.0,092_m_m_n_a.png,O,m,1157,12,1,2175.600000000093,645558.3999999999,7109,NNB,C,10
11,test,5,0.0,2-Back,1,m,Thu Apr 10 2025 17:23:22 GMT-0500 (Central Daylight Time),649849.6000000001,146_o_m_n_a.png,O,m,1093,13,1,2109.0,647740.6000000001,7109,NNB,C,11
12,test,5,1.0,2-Back,1,z,Thu Apr 10 2025 17:23:22 GMT-0500 (Central Daylight Time),651631.7999999998,092_m_m_n_a.png,O,z,753,14,1,1775.7999999998137,649856.0,7109,NNB,C,12
13,test,5,0.0,2-Back,1,m,Thu Apr 10 2025 17:23:22 GMT-0500 (Central Daylight Time),653465.7999999998,098_y_f_n_a.png,O,m,809,15,1,1828.0,651637.7999999998,7109,NNB,C,13
14,test,5,0.0,2-Back,1,m,Thu Apr 10 2025 17:23:22 GMT-0500 (Central Daylight Time),655447.3999999999,059_o_m_n_a.png,O,m,962,16,1,1975.2999999998137,653472.1000000001,7109,NNB,C,14
15,test,5,0.0,2-Back,1,m,Thu Apr 10 2025 17:23:22 GMT-0500 (Central Daylight Time),657316.1000000001,006_m_f_n_a.png,O,m,835,17,1,1860.7000000001863,655455.3999999999,7109,NNB,C,15
16,test,5,1.0,2-Back,1,z,Thu Apr 10 2025 17:23:22 GMT-0500 (Central Daylight Time),659430.2000000002,059_o_m_n_a.png,O,z,1090,18,1,2107.7000000001863,657322.5,7109,NNB,C,16
