acc_sum,block,block_c,change,condition,correct,correct_response,datetime,endtime,face,project,response,response_time,row_sel,session_number,start_end,starttime,subject_id,task,task_vers,trial
0,prac,1,,1-Back,,,Fri Mar 28 2025 16:17:39 GMT-0500 (Central Daylight Time),,124_o_f_d_a.png,I,space,3688,1,1,,,8034,VNB,A,0
1,prac,1,0.0,1-Back,1,m,Fri Mar 28 2025 16:17:39 GMT-0500 (Central Daylight Time),115335.80000000447,071_y_f_n_a.png,I,m,882,2,1,1691.5,113644.30000000447,8034,VNB,A,1
2,prac,1,0.0,1-Back,1,m,Fri Mar 28 2025 16:17:39 GMT-0500 (Central Daylight Time),117751.89999999851,165_m_m_h_a.png,I,m,1593,3,1,2407.1999999955297,115344.70000000298,8034,VNB,A,2
3,prac,1,0.0,1-Back,1,m,Fri Mar 28 2025 16:17:39 GMT-0500 (Central Daylight Time),119401.60000000149,109_y_m_d_a.png,I,m,844,4,1,1642.3999999985099,117759.20000000298,8034,VNB,A,3
4,prac,1,0.0,1-Back,1,m,Fri Mar 28 2025 16:17:39 GMT-0500 (Central Daylight Time),121067.5,124_o_f_n_a.png,I,m,825,5,1,1659.0,119408.5,8034,VNB,A,4
5,prac,1,1.0,1-Back,1,z,Fri Mar 28 2025 16:17:39 GMT-0500 (Central Daylight Time),122717.10000000149,109_y_m_n_a.png,I,z,823,6,1,1642.5,121074.60000000149,8034,VNB,A,5
6,prac,1,0.0,1-Back,1,m,Fri Mar 28 2025 16:17:39 GMT-0500 (Central Daylight Time),124600.0,039_o_m_h_a.png,I,m,1069,7,1,1874.8999999985099,122725.10000000149,8034,VNB,A,6
6,prac,1,0.0,1-Back,0,m,Fri Mar 28 2025 16:17:39 GMT-0500 (Central Daylight Time),126182.70000000298,139_m_f_d_a.png,I,z,769,8,1,1575.3000000044703,124607.39999999851,8034,VNB,A,7
7,prac,1,1.0,1-Back,1,z,Fri Mar 28 2025 16:17:39 GMT-0500 (Central Daylight Time),127932.20000000298,071_y_f_d_a.png,I,z,939,9,1,1742.3000000044703,126189.89999999851,8034,VNB,A,8
8,prac,1,0.0,1-Back,1,m,Fri Mar 28 2025 16:17:39 GMT-0500 (Central Daylight Time),129348.5,165_m_m_n_a.png,I,m,605,10,1,1409.1999999955297,127939.30000000447,8034,VNB,A,9
9,prac,1,0.0,1-Back,1,m,Fri Mar 28 2025 16:17:39 GMT-0500 (Central Daylight Time),130948.20000000298,124_o_f_h_a.png,I,m,771,11,1,1592.3000000044703,129355.89999999851,8034,VNB,A,10
10,prac,1,0.0,1-Back,1,m,Fri Mar 28 2025 16:17:39 GMT-0500 (Central Daylight Time),132397.20000000298,109_y_m_d_a.png,I,m,670,12,1,1441.6000000014901,130955.60000000149,8034,VNB,A,11
0,test,1,0.0,1-Back,,,Fri Mar 28 2025 16:17:39 GMT-0500 (Central Daylight Time),132397.20000000298,071_y_f_d_a.png,I,space,8483,1,1,1441.6000000014901,130955.60000000149,8034,VNB,A,0
1,test,1,0.0,1-Back,1,m,Fri Mar 28 2025 16:17:39 GMT-0500 (Central Daylight Time),150658.5,139_m_f_n_a.png,I,m,634,2,1,1660.5,148998.0,8034,VNB,A,1
2,test,1,0.0,1-Back,1,m,Fri Mar 28 2025 16:17:39 GMT-0500 (Central Daylight Time),152674.3999999985,039_o_m_h_a.png,I,m,991,3,1,2009.8999999985099,150664.5,8034,VNB,A,2
3,test,1,1.0,1-Back,1,z,Fri Mar 28 2025 16:17:39 GMT-0500 (Central Daylight Time),154290.30000000447,165_m_m_h_a.png,I,z,584,4,1,1609.8000000044703,152680.5,8034,VNB,A,3
4,test,1,0.0,1-Back,1,m,Fri Mar 28 2025 16:17:39 GMT-0500 (Central Daylight Time),155889.80000000447,124_o_f_n_a.png,I,m,575,5,1,1593.6000000014901,154296.20000000298,8034,VNB,A,4
5,test,1,0.0,1-Back,1,m,Fri Mar 28 2025 16:17:39 GMT-0500 (Central Daylight Time),157606.1000000015,109_y_m_d_a.png,I,m,695,6,1,1710.3999999985099,155895.70000000298,8034,VNB,A,5
6,test,1,1.0,1-Back,1,z,Fri Mar 28 2025 16:17:39 GMT-0500 (Central Daylight Time),159222.20000000298,139_m_f_d_a.png,I,z,595,7,1,1609.8999999985099,157612.30000000447,8034,VNB,A,6
7,test,1,0.0,1-Back,1,m,Fri Mar 28 2025 16:17:39 GMT-0500 (Central Daylight Time),160906.20000000298,071_y_f_h_a.png,I,m,650,8,1,1677.8999999985099,159228.30000000447,8034,VNB,A,7
8,test,1,0.0,1-Back,1,m,Fri Mar 28 2025 16:17:39 GMT-0500 (Central Daylight Time),162737.3999999985,039_o_m_n_a.png,I,m,808,9,1,1824.7999999970198,160912.6000000015,8034,VNB,A,8
9,test,1,0.0,1-Back,1,m,Fri Mar 28 2025 16:17:39 GMT-0500 (Central Daylight Time),164753.5,109_y_m_h_a.png,I,m,984,10,1,2009.7999999970198,162743.70000000298,8034,VNB,A,9
10,test,1,0.0,1-Back,1,m,Fri Mar 28 2025 16:17:39 GMT-0500 (Central Daylight Time),166436.5,039_o_m_d_a.png,I,m,655,11,1,1676.8999999985099,164759.6000000015,8034,VNB,A,10
11,test,1,1.0,1-Back,1,z,Fri Mar 28 2025 16:17:39 GMT-0500 (Central Daylight Time),168069.6000000015,124_o_f_d_a.png,I,z,613,12,1,1627.0,166442.6000000015,8034,VNB,A,11
12,test,1,0.0,1-Back,1,m,Fri Mar 28 2025 16:17:39 GMT-0500 (Central Daylight Time),169685.3999999985,165_m_m_n_a.png,I,m,596,13,1,1609.2999999970198,168076.1000000015,8034,VNB,A,12
12,test,1,1.0,1-Back,0,z,Fri Mar 28 2025 16:17:39 GMT-0500 (Central Daylight Time),171468.3999999985,071_y_f_n_a.png,I,m,755,14,1,1776.2999999970198,169692.1000000015,8034,VNB,A,13
13,test,1,0.0,1-Back,1,m,Fri Mar 28 2025 16:17:39 GMT-0500 (Central Daylight Time),173218.0,139_m_f_h_a.png,I,m,725,15,1,1743.6999999955297,171474.30000000447,8034,VNB,A,14
14,test,1,0.0,1-Back,1,m,Fri Mar 28 2025 16:17:39 GMT-0500 (Central Daylight Time),174967.1000000015,165_m_m_d_a.png,I,m,728,16,1,1743.2000000029802,173223.8999999985,8034,VNB,A,15
15,test,1,0.0,1-Back,1,m,Fri Mar 28 2025 16:17:39 GMT-0500 (Central Daylight Time),176850.30000000447,109_y_m_n_a.png,I,m,850,17,1,1877.1000000014901,174973.20000000298,8034,VNB,A,16
16,test,1,0.0,1-Back,1,m,Fri Mar 28 2025 16:17:39 GMT-0500 (Central Daylight Time),178499.70000000298,124_o_f_h_a.png,I,m,623,18,1,1643.3999999985099,176856.30000000447,8034,VNB,A,17
0,test,2,0.0,1-Back,,,Fri Mar 28 2025 16:17:39 GMT-0500 (Central Daylight Time),178499.70000000298,109_y_m_n_a.png,I,space,1567,1,1,1643.3999999985099,176856.30000000447,8034,VNB,A,0
1,test,2,0.0,1-Back,1,m,Fri Mar 28 2025 16:17:39 GMT-0500 (Central Daylight Time),183814.6000000015,071_y_f_h_a.png,I,m,694,2,1,1708.2999999970198,182106.30000000447,8034,VNB,A,1
2,test,2,1.0,1-Back,1,m,Fri Mar 28 2025 16:17:39 GMT-0500 (Central Daylight Time),185714.0,039_o_m_n_a.png,I,m,867,3,1,1891.7999999970198,183822.20000000298,8034,VNB,A,2
3,test,2,0.0,1-Back,1,m,Fri Mar 28 2025 16:17:39 GMT-0500 (Central Daylight Time),187363.30000000447,139_m_f_d_a.png,I,m,623,4,1,1643.2000000029802,185720.1000000015,8034,VNB,A,3
4,test,2,0.0,1-Back,1,z,Fri Mar 28 2025 16:17:39 GMT-0500 (Central Daylight Time),188879.6000000015,165_m_m_d_a.png,I,z,486,5,1,1510.0,187369.6000000015,8034,VNB,A,4
5,test,2,0.0,1-Back,1,m,Fri Mar 28 2025 16:17:39 GMT-0500 (Central Daylight Time),190710.70000000298,109_y_m_h_a.png,I,m,813,6,1,1824.7000000029802,188886.0,8034,VNB,A,5
6,test,2,1.0,1-Back,1,z,Fri Mar 28 2025 16:17:39 GMT-0500 (Central Daylight Time),192711.80000000447,124_o_f_h_a.png,I,z,969,7,1,1994.3000000044703,190717.5,8034,VNB,A,6
7,test,2,0.0,1-Back,1,m,Fri Mar 28 2025 16:17:39 GMT-0500 (Central Daylight Time),194294.6000000015,139_m_f_n_a.png,I,m,561,8,1,1576.6000000014901,192718.0,8034,VNB,A,7
8,test,2,0.0,1-Back,1,m,Fri Mar 28 2025 16:17:39 GMT-0500 (Central Daylight Time),196243.8999999985,071_y_f_d_a.png,I,m,922,9,1,1943.0999999940395,194300.80000000447,8034,VNB,A,8
9,test,2,0.0,1-Back,1,m,Fri Mar 28 2025 16:17:39 GMT-0500 (Central Daylight Time),198093.3999999985,165_m_m_n_a.png,I,m,829,10,1,1843.2999999970198,196250.1000000015,8034,VNB,A,9
10,test,2,1.0,1-Back,1,m,Fri Mar 28 2025 16:17:39 GMT-0500 (Central Daylight Time),199926.30000000447,139_m_f_h_a.png,I,m,804,11,1,1826.2000000029802,198100.1000000015,8034,VNB,A,10
11,test,2,0.0,1-Back,1,z,Fri Mar 28 2025 16:17:39 GMT-0500 (Central Daylight Time),201659.20000000298,039_o_m_h_a.png,I,z,707,12,1,1726.8000000044703,199932.3999999985,8034,VNB,A,11
12,test,2,0.0,1-Back,1,m,Fri Mar 28 2025 16:17:39 GMT-0500 (Central Daylight Time),203408.3999999985,109_y_m_d_a.png,I,m,718,13,1,1743.0999999940395,201665.30000000447,8034,VNB,A,12
13,test,2,0.0,1-Back,1,m,Fri Mar 28 2025 16:17:39 GMT-0500 (Central Daylight Time),205642.30000000447,124_o_f_n_a.png,I,m,1201,14,1,2227.8000000044703,203414.5,8034,VNB,A,13
14,test,2,0.0,1-Back,1,z,Fri Mar 28 2025 16:17:39 GMT-0500 (Central Daylight Time),207523.8999999985,071_y_f_n_a.png,I,z,864,15,1,1875.0,205648.8999999985,8034,VNB,A,14
15,test,2,1.0,1-Back,1,m,Fri Mar 28 2025 16:17:39 GMT-0500 (Central Daylight Time),209156.6000000015,165_m_m_h_a.png,I,m,605,16,1,1626.3999999985099,207530.20000000298,8034,VNB,A,15
16,test,2,0.0,1-Back,1,m,Fri Mar 28 2025 16:17:39 GMT-0500 (Central Daylight Time),211022.8999999985,124_o_f_d_a.png,I,m,844,17,1,1860.1999999955297,209162.70000000298,8034,VNB,A,16
17,test,2,1.0,1-Back,1,z,Fri Mar 28 2025 16:17:39 GMT-0500 (Central Daylight Time),213238.80000000447,039_o_m_d_a.png,I,z,1194,18,1,2209.7000000029802,211029.1000000015,8034,VNB,A,17
0,test,3,1.0,1-Back,,,Fri Mar 28 2025 16:17:39 GMT-0500 (Central Daylight Time),213238.80000000447,124_o_f_h_a.png,I,space,1530,1,1,2209.7000000029802,211029.1000000015,8034,VNB,A,0
1,test,3,0.0,1-Back,1,m,Fri Mar 28 2025 16:17:39 GMT-0500 (Central Daylight Time),218487.20000000298,139_m_f_d_a.png,I,m,636,2,1,1659.8999999985099,216827.30000000447,8034,VNB,A,1
2,test,3,1.0,1-Back,1,m,Fri Mar 28 2025 16:17:39 GMT-0500 (Central Daylight Time),220486.20000000298,165_m_m_n_a.png,I,m,978,3,1,1992.7000000029802,218493.5,8034,VNB,A,2
3,test,3,0.0,1-Back,1,z,Fri Mar 28 2025 16:17:39 GMT-0500 (Central Daylight Time),222019.1000000015,124_o_f_n_a.png,I,z,516,4,1,1526.2000000029802,220492.8999999985,8034,VNB,A,3
4,test,3,1.0,1-Back,1,m,Fri Mar 28 2025 16:17:39 GMT-0500 (Central Daylight Time),223618.70000000298,039_o_m_d_a.png,I,m,566,5,1,1592.3999999985099,222026.30000000447,8034,VNB,A,4
5,test,3,0.0,1-Back,1,m,Fri Mar 28 2025 16:17:39 GMT-0500 (Central Daylight Time),225335.0,071_y_f_h_a.png,I,m,694,6,1,1710.1999999955297,223624.80000000447,8034,VNB,A,5
6,test,3,0.0,1-Back,1,z,Fri Mar 28 2025 16:17:39 GMT-0500 (Central Daylight Time),227250.8999999985,109_y_m_h_a.png,I,z,890,7,1,1910.0999999940395,225340.80000000447,8034,VNB,A,6
7,test,3,0.0,1-Back,1,m,Fri Mar 28 2025 16:17:39 GMT-0500 (Central Daylight Time),228917.20000000298,139_m_f_n_a.png,I,m,638,8,1,1659.8000000044703,227257.3999999985,8034,VNB,A,7
8,test,3,0.0,1-Back,1,m,Fri Mar 28 2025 16:17:39 GMT-0500 (Central Daylight Time),230649.8999999985,071_y_f_d_a.png,I,m,708,9,1,1726.1999999955297,228923.70000000298,8034,VNB,A,8
9,test,3,1.0,1-Back,1,m,Fri Mar 28 2025 16:17:39 GMT-0500 (Central Daylight Time),232582.5,039_o_m_n_a.png,I,m,903,10,1,1926.5,230656.0,8034,VNB,A,9
9,test,3,0.0,1-Back,0,m,Fri Mar 28 2025 16:17:39 GMT-0500 (Central Daylight Time),234481.80000000447,165_m_m_h_a.png,I,z,866,11,1,1893.1000000014901,232588.70000000298,8034,VNB,A,10
9,test,3,0.0,1-Back,0,z,Fri Mar 28 2025 16:17:39 GMT-0500 (Central Daylight Time),236514.80000000447,139_m_f_h_a.png,I,m,1016,12,1,2026.2000000029802,234488.6000000015,8034,VNB,A,11
10,test,3,1.0,1-Back,1,m,Fri Mar 28 2025 16:17:39 GMT-0500 (Central Daylight Time),238747.30000000447,124_o_f_d_a.png,I,m,1206,13,1,2226.3000000044703,236521.0,8034,VNB,A,12
11,test,3,0.0,1-Back,1,z,Fri Mar 28 2025 16:17:39 GMT-0500 (Central Daylight Time),240763.30000000447,165_m_m_d_a.png,I,z,998,14,1,2009.6000000014901,238753.70000000298,8034,VNB,A,13
12,test,3,0.0,1-Back,1,m,Fri Mar 28 2025 16:17:39 GMT-0500 (Central Daylight Time),242346.5,109_y_m_n_a.png,I,m,558,15,1,1576.6999999955297,240769.80000000447,8034,VNB,A,14
13,test,3,1.0,1-Back,1,m,Fri Mar 28 2025 16:17:39 GMT-0500 (Central Daylight Time),244245.80000000447,039_o_m_h_a.png,I,m,879,16,1,1892.9000000059605,242352.8999999985,8034,VNB,A,15
14,test,3,0.0,1-Back,1,m,Fri Mar 28 2025 16:17:39 GMT-0500 (Central Daylight Time),246211.6000000015,109_y_m_d_a.png,I,m,947,17,1,1959.7999999970198,244251.80000000447,8034,VNB,A,16
15,test,3,1.0,1-Back,1,m,Fri Mar 28 2025 16:17:39 GMT-0500 (Central Daylight Time),247944.5,071_y_f_n_a.png,I,m,702,18,1,1726.6000000014901,246217.8999999985,8034,VNB,A,17
0,test,4,1.0,1-Back,,,Fri Mar 28 2025 16:17:39 GMT-0500 (Central Daylight Time),247944.5,165_m_m_d_a.png,I,space,1609,1,1,1726.6000000014901,246217.8999999985,8034,VNB,A,0
1,test,4,0.0,1-Back,1,z,Fri Mar 28 2025 16:17:39 GMT-0500 (Central Daylight Time),253292.80000000447,039_o_m_d_a.png,I,z,696,2,1,1709.9000000059605,251582.8999999985,8034,VNB,A,1
2,test,4,0.0,1-Back,1,m,Fri Mar 28 2025 16:17:39 GMT-0500 (Central Daylight Time),254925.70000000298,109_y_m_h_a.png,I,m,612,3,1,1627.0,253298.70000000298,8034,VNB,A,2
3,test,4,0.0,1-Back,1,m,Fri Mar 28 2025 16:17:39 GMT-0500 (Central Daylight Time),256541.80000000447,139_m_f_n_a.png,I,m,595,4,1,1610.2000000029802,254931.6000000015,8034,VNB,A,3
4,test,4,1.0,1-Back,1,m,Fri Mar 28 2025 16:17:39 GMT-0500 (Central Daylight Time),258324.5,124_o_f_h_a.png,I,m,763,5,1,1776.6000000014901,256547.8999999985,8034,VNB,A,4
5,test,4,0.0,1-Back,1,m,Fri Mar 28 2025 16:17:39 GMT-0500 (Central Daylight Time),260290.6000000015,165_m_m_n_a.png,I,m,940,6,1,1960.2000000029802,258330.3999999985,8034,VNB,A,5
6,test,4,0.0,1-Back,1,m,Fri Mar 28 2025 16:17:39 GMT-0500 (Central Daylight Time),262123.20000000298,109_y_m_d_a.png,I,m,678,7,1,1826.5,260296.70000000298,8034,VNB,A,6
7,test,4,1.0,1-Back,1,z,Fri Mar 28 2025 16:17:39 GMT-0500 (Central Daylight Time),263789.5,071_y_f_d_a.png,I,z,646,8,1,1659.8999999985099,262129.6000000015,8034,VNB,A,7
8,test,4,0.0,1-Back,1,m,Fri Mar 28 2025 16:17:39 GMT-0500 (Central Daylight Time),265472.200000003,139_m_f_h_a.png,I,m,659,9,1,1676.3000000044703,263795.8999999985,8034,VNB,A,8
9,test,4,0.0,1-Back,1,z,Fri Mar 28 2025 16:17:39 GMT-0500 (Central Daylight Time),267521.8999999985,039_o_m_h_a.png,I,z,1017,10,1,2043.3999999985099,265478.5,8034,VNB,A,9
10,test,4,1.0,1-Back,1,m,Fri Mar 28 2025 16:17:39 GMT-0500 (Central Daylight Time),269171.200000003,124_o_f_n_a.png,I,m,623,11,1,1642.3000000044703,267528.8999999985,8034,VNB,A,10
11,test,4,0.0,1-Back,1,m,Fri Mar 28 2025 16:17:39 GMT-0500 (Central Daylight Time),270870.6000000015,139_m_f_d_a.png,I,m,670,12,1,1692.7000000029802,269177.8999999985,8034,VNB,A,11
12,test,4,0.0,1-Back,1,m,Fri Mar 28 2025 16:17:39 GMT-0500 (Central Daylight Time),272770.1000000015,071_y_f_n_a.png,I,m,867,13,1,1893.3999999985099,270876.700000003,8034,VNB,A,12
13,test,4,0.0,1-Back,1,m,Fri Mar 28 2025 16:17:39 GMT-0500 (Central Daylight Time),274769.6000000015,124_o_f_d_a.png,I,m,975,14,1,1992.7000000029802,272776.8999999985,8034,VNB,A,13
14,test,4,0.0,1-Back,1,m,Fri Mar 28 2025 16:17:39 GMT-0500 (Central Daylight Time),276552.200000003,071_y_f_h_a.png,I,m,760,15,1,1776.5,274775.700000003,8034,VNB,A,14
15,test,4,1.0,1-Back,1,z,Fri Mar 28 2025 16:17:39 GMT-0500 (Central Daylight Time),278268.200000003,165_m_m_h_a.png,I,z,697,16,1,1709.8999999985099,276558.30000000447,8034,VNB,A,15
16,test,4,0.0,1-Back,1,m,Fri Mar 28 2025 16:17:39 GMT-0500 (Central Daylight Time),279851.0,039_o_m_n_a.png,I,m,556,17,1,1576.5,278274.5,8034,VNB,A,16
17,test,4,1.0,1-Back,1,z,Fri Mar 28 2025 16:17:39 GMT-0500 (Central Daylight Time),281717.30000000447,109_y_m_n_a.png,I,z,846,18,1,1859.5,279857.80000000447,8034,VNB,A,17
0,test,5,1.0,1-Back,,,Fri Mar 28 2025 16:17:39 GMT-0500 (Central Daylight Time),281717.30000000447,039_o_m_n_a.png,I,space,1340,1,1,1859.5,279857.80000000447,8034,VNB,A,0
1,test,5,1.0,1-Back,1,m,Fri Mar 28 2025 16:17:39 GMT-0500 (Central Daylight Time),286865.6000000015,124_o_f_h_a.png,I,m,750,2,1,1774.2999999970198,285091.30000000447,8034,VNB,A,1
2,test,5,0.0,1-Back,1,m,Fri Mar 28 2025 16:17:39 GMT-0500 (Central Daylight Time),288531.700000003,109_y_m_d_a.png,I,m,639,3,1,1659.8000000044703,286871.8999999985,8034,VNB,A,2
2,test,5,0.0,1-Back,0,z,Fri Mar 28 2025 16:17:39 GMT-0500 (Central Daylight Time),290381.1000000015,039_o_m_d_a.png,I,m,829,4,1,1843.2999999970198,288537.80000000447,8034,VNB,A,3
3,test,5,0.0,1-Back,1,m,Fri Mar 28 2025 16:17:39 GMT-0500 (Central Daylight Time),292014.0,139_m_f_h_a.png,I,m,612,5,1,1626.5,290387.5,8034,VNB,A,4
4,test,5,0.0,1-Back,1,m,Fri Mar 28 2025 16:17:39 GMT-0500 (Central Daylight Time),294130.200000003,071_y_f_n_a.png,I,m,1091,6,1,2110.0,292020.200000003,8034,VNB,A,5
5,test,5,1.0,1-Back,1,z,Fri Mar 28 2025 16:17:39 GMT-0500 (Central Daylight Time),295763.0,124_o_f_n_a.png,I,z,616,7,1,1626.6000000014901,294136.3999999985,8034,VNB,A,6
6,test,5,0.0,1-Back,1,m,Fri Mar 28 2025 16:17:39 GMT-0500 (Central Daylight Time),297412.3999999985,139_m_f_d_a.png,I,m,622,8,1,1642.8999999985099,295769.5,8034,VNB,A,7
7,test,5,0.0,1-Back,1,m,Fri Mar 28 2025 16:17:39 GMT-0500 (Central Daylight Time),299544.8999999985,109_y_m_h_a.png,I,m,1101,9,1,2125.7999999970198,297419.1000000015,8034,VNB,A,8
8,test,5,0.0,1-Back,1,m,Fri Mar 28 2025 16:17:39 GMT-0500 (Central Daylight Time),301527.80000000447,071_y_f_d_a.png,I,m,960,10,1,1976.2000000029802,299551.6000000015,8034,VNB,A,9
8,test,5,0.0,1-Back,0,m,Fri Mar 28 2025 16:17:39 GMT-0500 (Central Daylight Time),303377.30000000447,165_m_m_n_a.png,I,z,817,11,1,1843.2000000029802,301534.1000000015,8034,VNB,A,10
9,test,5,1.0,1-Back,1,z,Fri Mar 28 2025 16:17:39 GMT-0500 (Central Daylight Time),305210.0,139_m_f_n_a.png,I,z,800,12,1,1826.1999999955297,303383.80000000447,8034,VNB,A,11
10,test,5,0.0,1-Back,1,m,Fri Mar 28 2025 16:17:39 GMT-0500 (Central Daylight Time),306809.700000003,039_o_m_h_a.png,I,m,575,13,1,1593.6000000014901,305216.1000000015,8034,VNB,A,12
10,test,5,0.0,1-Back,0,z,Fri Mar 28 2025 16:17:39 GMT-0500 (Central Daylight Time),308808.700000003,165_m_m_h_a.png,I,m,968,14,1,1993.0,306815.700000003,8034,VNB,A,13
11,test,5,1.0,1-Back,1,m,Fri Mar 28 2025 16:17:39 GMT-0500 (Central Daylight Time),310891.3999999985,124_o_f_d_a.png,I,m,1056,15,1,2076.39999999851,308815.0,8034,VNB,A,14
12,test,5,0.0,1-Back,1,m,Fri Mar 28 2025 16:17:39 GMT-0500 (Central Daylight Time),312557.5,109_y_m_n_a.png,I,m,646,16,1,1660.0,310897.5,8034,VNB,A,15
13,test,5,0.0,1-Back,1,m,Fri Mar 28 2025 16:17:39 GMT-0500 (Central Daylight Time),314623.5,071_y_f_h_a.png,I,m,1036,17,1,2059.6999999955297,312563.80000000447,8034,VNB,A,16
14,test,5,0.0,1-Back,1,m,Fri Mar 28 2025 16:17:39 GMT-0500 (Central Daylight Time),316907.3999999985,165_m_m_d_a.png,I,m,1257,18,1,2278.2999999970198,314629.1000000015,8034,VNB,A,17
0,prac,1,0.0,2-Back,,,Fri Mar 28 2025 16:17:39 GMT-0500 (Central Daylight Time),316907.3999999985,139_m_f_n_a.png,I,space,6604,1,1,2278.2999999970198,314629.1000000015,8034,VNB,A,0
0,prac,1,0.0,2-Back,,,Fri Mar 28 2025 16:17:39 GMT-0500 (Central Daylight Time),316907.3999999985,124_o_f_h_a.png,I,space,6604,2,1,2278.2999999970198,314629.1000000015,8034,VNB,A,0
1,prac,1,0.0,2-Back,1,m,Fri Mar 28 2025 16:17:39 GMT-0500 (Central Daylight Time),423973.1000000015,039_o_m_d_a.png,I,m,947,3,1,1742.5,422230.6000000015,8034,VNB,A,1
2,prac,1,1.0,2-Back,1,z,Fri Mar 28 2025 16:17:39 GMT-0500 (Central Daylight Time),426355.3999999985,165_m_m_h_a.png,I,z,1571,4,1,2375.0,423980.3999999985,8034,VNB,A,2
3,prac,1,0.0,2-Back,1,m,Fri Mar 28 2025 16:17:39 GMT-0500 (Central Daylight Time),429021.1000000015,071_y_f_n_a.png,I,m,1852,5,1,2658.0,426363.1000000015,8034,VNB,A,3
4,prac,1,1.0,2-Back,1,z,Fri Mar 28 2025 16:17:39 GMT-0500 (Central Daylight Time),430970.80000000447,039_o_m_h_a.png,I,z,1141,6,1,1941.9000000059605,429028.8999999985,8034,VNB,A,4
4,prac,1,1.0,2-Back,0,z,Fri Mar 28 2025 16:17:39 GMT-0500 (Central Daylight Time),432970.1000000015,109_y_m_n_a.png,I,m,1184,7,1,1991.3999999985099,430978.700000003,8034,VNB,A,5
4,prac,1,0.0,2-Back,0,m,Fri Mar 28 2025 16:17:39 GMT-0500 (Central Daylight Time),435785.6000000015,139_m_f_d_a.png,I,None,2007,8,1,2807.7999999970198,432977.80000000447,8034,VNB,A,6
5,prac,1,0.0,2-Back,1,m,Fri Mar 28 2025 16:17:39 GMT-0500 (Central Daylight Time),437935.200000003,124_o_f_d_a.png,I,m,1303,9,1,2141.3000000044703,435793.8999999985,8034,VNB,A,7
5,prac,1,0.0,2-Back,0,m,Fri Mar 28 2025 16:17:39 GMT-0500 (Central Daylight Time),439784.700000003,165_m_m_h_a.png,I,z,1067,10,1,1841.7000000029802,437943.0,8034,VNB,A,8
5,prac,1,1.0,2-Back,0,z,Fri Mar 28 2025 16:17:39 GMT-0500 (Central Daylight Time),442083.80000000447,071_y_f_d_a.png,I,m,1497,11,1,2291.7000000029802,439792.1000000015,8034,VNB,A,9
6,prac,1,0.0,2-Back,1,m,Fri Mar 28 2025 16:17:39 GMT-0500 (Central Daylight Time),443750.1000000015,039_o_m_n_a.png,I,m,855,12,1,1658.5,442091.6000000015,8034,VNB,A,10
0,test,1,0.0,2-Back,,,Fri Mar 28 2025 16:17:39 GMT-0500 (Central Daylight Time),443750.1000000015,109_y_m_h_a.png,I,space,11202,1,1,1658.5,442091.6000000015,8034,VNB,A,0
0,test,1,0.0,2-Back,,,Fri Mar 28 2025 16:17:39 GMT-0500 (Central Daylight Time),443750.1000000015,124_o_f_n_a.png,I,space,11202,2,1,1658.5,442091.6000000015,8034,VNB,A,0
0,test,1,0.0,2-Back,0,z,Fri Mar 28 2025 16:17:39 GMT-0500 (Central Daylight Time),486703.200000003,039_o_m_h_a.png,I,m,1544,3,1,2559.60000000149,484143.6000000015,8034,VNB,A,1
1,test,1,0.0,2-Back,1,m,Fri Mar 28 2025 16:17:39 GMT-0500 (Central Daylight Time),488602.5,139_m_f_d_a.png,I,m,882,4,1,1892.6000000014901,486709.8999999985,8034,VNB,A,2
2,test,1,1.0,2-Back,1,m,Fri Mar 28 2025 16:17:39 GMT-0500 (Central Daylight Time),490568.6000000015,109_y_m_n_a.png,I,m,934,5,1,1959.7000000029802,488608.8999999985,8034,VNB,A,3
3,test,1,0.0,2-Back,1,z,Fri Mar 28 2025 16:17:39 GMT-0500 (Central Daylight Time),492768.0,071_y_f_d_a.png,I,z,1177,6,1,2192.89999999851,490575.1000000015,8034,VNB,A,4
4,test,1,0.0,2-Back,1,m,Fri Mar 28 2025 16:17:39 GMT-0500 (Central Daylight Time),494867.1000000015,165_m_m_h_a.png,I,m,1073,7,1,2092.60000000149,492774.5,8034,VNB,A,5
4,test,1,1.0,2-Back,0,m,Fri Mar 28 2025 16:17:39 GMT-0500 (Central Daylight Time),496714.700000003,071_y_f_n_a.png,I,z,830,8,1,1840.8999999985099,494873.80000000447,8034,VNB,A,6
4,test,1,0.0,2-Back,0,z,Fri Mar 28 2025 16:17:39 GMT-0500 (Central Daylight Time),499232.3999999985,124_o_f_h_a.png,I,m,1492,9,1,2511.0999999940395,496721.30000000447,8034,VNB,A,7
5,test,1,0.0,2-Back,1,m,Fri Mar 28 2025 16:17:39 GMT-0500 (Central Daylight Time),501365.200000003,039_o_m_d_a.png,I,m,1105,10,1,2126.3000000044703,499238.8999999985,8034,VNB,A,8
5,test,1,1.0,2-Back,0,m,Fri Mar 28 2025 16:17:39 GMT-0500 (Central Daylight Time),502964.8999999985,165_m_m_d_a.png,I,z,572,11,1,1593.0999999940395,501371.80000000447,8034,VNB,A,9
6,test,1,0.0,2-Back,1,m,Fri Mar 28 2025 16:17:39 GMT-0500 (Central Daylight Time),504880.80000000447,139_m_f_n_a.png,I,m,885,12,1,1909.1000000014901,502971.700000003,8034,VNB,A,10
6,test,1,0.0,2-Back,0,m,Fri Mar 28 2025 16:17:39 GMT-0500 (Central Daylight Time),506730.5,071_y_f_h_a.png,I,z,832,13,1,1843.5,504887.0,8034,VNB,A,11
6,test,1,0.0,2-Back,0,z,Fri Mar 28 2025 16:17:39 GMT-0500 (Central Daylight Time),508812.8999999985,165_m_m_n_a.png,I,m,1055,14,1,2075.89999999851,506737.0,8034,VNB,A,12
7,test,1,0.0,2-Back,1,m,Fri Mar 28 2025 16:17:39 GMT-0500 (Central Daylight Time),511195.200000003,109_y_m_d_a.png,I,m,1364,15,1,2376.10000000149,508819.1000000015,8034,VNB,A,13
7,test,1,1.0,2-Back,0,m,Fri Mar 28 2025 16:17:39 GMT-0500 (Central Daylight Time),512994.700000003,139_m_f_h_a.png,I,z,783,16,1,1793.3999999985099,511201.30000000447,8034,VNB,A,14
7,test,1,0.0,2-Back,0,z,Fri Mar 28 2025 16:17:39 GMT-0500 (Central Daylight Time),515427.5,124_o_f_d_a.png,I,m,1406,17,1,2426.1999999955297,513001.30000000447,8034,VNB,A,15
8,test,1,0.0,2-Back,1,m,Fri Mar 28 2025 16:17:39 GMT-0500 (Central Daylight Time),517493.3999999985,039_o_m_n_a.png,I,m,1038,18,1,2059.6999999955297,515433.700000003,8034,VNB,A,16
0,test,2,0.0,2-Back,,,Fri Mar 28 2025 16:17:39 GMT-0500 (Central Daylight Time),517493.3999999985,165_m_m_h_a.png,I,space,8572,1,1,2059.6999999955297,515433.700000003,8034,VNB,A,0
0,test,2,0.0,2-Back,,,Fri Mar 28 2025 16:17:39 GMT-0500 (Central Daylight Time),517493.3999999985,071_y_f_n_a.png,I,space,8572,2,1,2059.6999999955297,515433.700000003,8034,VNB,A,0
0,test,2,1.0,2-Back,0,z,Fri Mar 28 2025 16:17:39 GMT-0500 (Central Daylight Time),533523.0,124_o_f_h_a.png,I,m,1341,3,1,2360.6999999955297,531162.3000000045,8034,VNB,A,1
1,test,2,0.0,2-Back,1,m,Fri Mar 28 2025 16:17:39 GMT-0500 (Central Daylight Time),535637.700000003,039_o_m_d_a.png,I,m,1087,4,1,2108.60000000149,533529.1000000015,8034,VNB,A,2
2,test,2,0.0,2-Back,1,m,Fri Mar 28 2025 16:17:39 GMT-0500 (Central Daylight Time),537470.5,139_m_f_d_a.png,I,m,803,5,1,1826.5,535644.0,8034,VNB,A,3
3,test,2,0.0,2-Back,1,m,Fri Mar 28 2025 16:17:39 GMT-0500 (Central Daylight Time),539370.700000003,109_y_m_h_a.png,I,m,884,6,1,1893.6000000014901,537477.1000000015,8034,VNB,A,4
3,test,2,0.0,2-Back,0,m,Fri Mar 28 2025 16:17:39 GMT-0500 (Central Daylight Time),541236.1000000015,124_o_f_n_a.png,I,z,847,7,1,1859.2999999970198,539376.8000000045,8034,VNB,A,5
3,test,2,1.0,2-Back,0,z,Fri Mar 28 2025 16:17:39 GMT-0500 (Central Daylight Time),542885.5,039_o_m_h_a.png,I,m,629,8,1,1643.1000000014901,541242.3999999985,8034,VNB,A,6
4,test,2,0.0,2-Back,1,m,Fri Mar 28 2025 16:17:39 GMT-0500 (Central Daylight Time),544901.3999999985,071_y_f_d_a.png,I,m,967,9,1,2009.7999999970198,542891.6000000015,8034,VNB,A,7
5,test,2,0.0,2-Back,1,m,Fri Mar 28 2025 16:17:39 GMT-0500 (Central Daylight Time),546584.5,109_y_m_d_a.png,I,m,660,10,1,1676.6999999955297,544907.8000000045,8034,VNB,A,8
6,test,2,0.0,2-Back,1,m,Fri Mar 28 2025 16:17:39 GMT-0500 (Central Daylight Time),548517.200000003,165_m_m_n_a.png,I,m,913,11,1,1926.6000000014901,546590.6000000015,8034,VNB,A,9
7,test,2,0.0,2-Back,1,m,Fri Mar 28 2025 16:17:39 GMT-0500 (Central Daylight Time),550416.5,139_m_f_h_a.png,I,m,868,12,1,1892.7999999970198,548523.700000003,8034,VNB,A,10
8,test,2,1.0,2-Back,1,z,Fri Mar 28 2025 16:17:39 GMT-0500 (Central Daylight Time),552149.200000003,039_o_m_n_a.png,I,z,714,13,1,1726.6000000014901,550422.6000000015,8034,VNB,A,11
9,test,2,0.0,2-Back,1,m,Fri Mar 28 2025 16:17:39 GMT-0500 (Central Daylight Time),553815.700000003,124_o_f_d_a.png,I,m,644,14,1,1660.2000000029802,552155.5,8034,VNB,A,12
10,test,2,0.0,2-Back,1,m,Fri Mar 28 2025 16:17:39 GMT-0500 (Central Daylight Time),555514.8000000045,071_y_f_h_a.png,I,m,674,15,1,1693.0,553821.8000000045,8034,VNB,A,13
11,test,2,0.0,2-Back,1,z,Fri Mar 28 2025 16:17:39 GMT-0500 (Central Daylight Time),557114.3000000045,165_m_m_d_a.png,I,z,574,16,1,1593.1000000014901,555521.200000003,8034,VNB,A,14
12,test,2,0.0,2-Back,1,m,Fri Mar 28 2025 16:17:39 GMT-0500 (Central Daylight Time),558797.3000000045,109_y_m_n_a.png,I,m,662,17,1,1676.7000000029802,557120.6000000015,8034,VNB,A,15
13,test,2,1.0,2-Back,1,m,Fri Mar 28 2025 16:17:39 GMT-0500 (Central Daylight Time),561029.8000000045,139_m_f_n_a.png,I,m,1212,18,1,2226.5,558803.3000000045,8034,VNB,A,16
0,test,3,1.0,2-Back,,,Fri Mar 28 2025 16:17:39 GMT-0500 (Central Daylight Time),561029.8000000045,039_o_m_n_a.png,I,space,1355,1,1,2226.5,558803.3000000045,8034,VNB,A,0
0,test,3,1.0,2-Back,,,Fri Mar 28 2025 16:17:39 GMT-0500 (Central Daylight Time),561029.8000000045,124_o_f_d_a.png,I,space,1355,2,1,2226.5,558803.3000000045,8034,VNB,A,0
1,test,3,0.0,2-Back,1,m,Fri Mar 28 2025 16:17:39 GMT-0500 (Central Daylight Time),569610.3999999985,071_y_f_h_a.png,I,m,1140,3,1,2149.1999999955297,567461.200000003,8034,VNB,A,1
1,test,3,0.0,2-Back,0,z,Fri Mar 28 2025 16:17:39 GMT-0500 (Central Daylight Time),571676.3999999985,139_m_f_d_a.png,I,m,1047,4,1,2059.5999999940395,569616.8000000045,8034,VNB,A,2
2,test,3,1.0,2-Back,1,m,Fri Mar 28 2025 16:17:39 GMT-0500 (Central Daylight Time),573759.200000003,109_y_m_n_a.png,I,m,1060,5,1,2076.39999999851,571682.8000000045,8034,VNB,A,3
3,test,3,0.0,2-Back,1,m,Fri Mar 28 2025 16:17:39 GMT-0500 (Central Daylight Time),575625.200000003,039_o_m_h_a.png,I,m,834,6,1,1859.8999999985099,573765.3000000045,8034,VNB,A,4
3,test,3,0.0,2-Back,0,z,Fri Mar 28 2025 16:17:39 GMT-0500 (Central Daylight Time),577441.3999999985,071_y_f_n_a.png,I,m,792,7,1,1809.7999999970198,575631.6000000015,8034,VNB,A,5
4,test,3,1.0,2-Back,1,m,Fri Mar 28 2025 16:17:39 GMT-0500 (Central Daylight Time),579474.200000003,165_m_m_d_a.png,I,m,1016,8,1,2026.0,577448.200000003,8034,VNB,A,6
4,test,3,0.0,2-Back,0,m,Fri Mar 28 2025 16:17:39 GMT-0500 (Central Daylight Time),580973.5,109_y_m_d_a.png,I,z,471,9,1,1492.6999999955297,579480.8000000045,8034,VNB,A,7
5,test,3,0.0,2-Back,1,m,Fri Mar 28 2025 16:17:39 GMT-0500 (Central Daylight Time),582789.6000000015,124_o_f_h_a.png,I,m,796,10,1,1809.2999999970198,580980.3000000045,8034,VNB,A,8
6,test,3,1.0,2-Back,1,m,Fri Mar 28 2025 16:17:39 GMT-0500 (Central Daylight Time),584672.5,139_m_f_n_a.png,I,m,859,11,1,1876.1000000014901,582796.3999999985,8034,VNB,A,9
6,test,3,1.0,2-Back,0,z,Fri Mar 28 2025 16:17:39 GMT-0500 (Central Daylight Time),586522.0,165_m_m_h_a.png,I,m,817,12,1,1843.1999999955297,584678.8000000045,8034,VNB,A,10
7,test,3,0.0,2-Back,1,m,Fri Mar 28 2025 16:17:39 GMT-0500 (Central Daylight Time),588354.700000003,071_y_f_d_a.png,I,m,800,13,1,1826.1000000014901,586528.6000000015,8034,VNB,A,11
8,test,3,0.0,2-Back,1,m,Fri Mar 28 2025 16:17:39 GMT-0500 (Central Daylight Time),590387.1000000015,124_o_f_n_a.png,I,m,1015,14,1,2026.0,588361.1000000015,8034,VNB,A,12
8,test,3,0.0,2-Back,0,z,Fri Mar 28 2025 16:17:39 GMT-0500 (Central Daylight Time),592286.6000000015,039_o_m_d_a.png,I,m,869,15,1,1893.5,590393.1000000015,8034,VNB,A,13
9,test,3,1.0,2-Back,1,m,Fri Mar 28 2025 16:17:39 GMT-0500 (Central Daylight Time),594369.6000000015,139_m_f_h_a.png,I,m,1057,16,1,2076.7000000029802,592292.8999999985,8034,VNB,A,14
10,test,3,0.0,2-Back,1,m,Fri Mar 28 2025 16:17:39 GMT-0500 (Central Daylight Time),596302.1000000015,165_m_m_n_a.png,I,m,912,17,1,1926.2999999970198,594375.8000000045,8034,VNB,A,15
11,test,3,0.0,2-Back,1,z,Fri Mar 28 2025 16:17:39 GMT-0500 (Central Daylight Time),598368.3999999985,109_y_m_h_a.png,I,z,1043,18,1,2059.6999999955297,596308.700000003,8034,VNB,A,16
0,test,4,0.0,2-Back,,,Fri Mar 28 2025 16:17:39 GMT-0500 (Central Daylight Time),598368.3999999985,139_m_f_n_a.png,I,space,2121,1,1,2059.6999999955297,596308.700000003,8034,VNB,A,0
0,test,4,0.0,2-Back,,,Fri Mar 28 2025 16:17:39 GMT-0500 (Central Daylight Time),598368.3999999985,039_o_m_n_a.png,I,space,2121,2,1,2059.6999999955297,596308.700000003,8034,VNB,A,0
0,test,4,1.0,2-Back,0,m,Fri Mar 28 2025 16:17:39 GMT-0500 (Central Daylight Time),607532.1000000015,109_y_m_h_a.png,I,z,947,3,1,1960.0,605572.1000000015,8034,VNB,A,1
1,test,4,1.0,2-Back,1,m,Fri Mar 28 2025 16:17:39 GMT-0500 (Central Daylight Time),609847.8999999985,124_o_f_d_a.png,I,m,1285,4,1,2309.39999999851,607538.5,8034,VNB,A,2
1,test,4,0.0,2-Back,0,z,Fri Mar 28 2025 16:17:39 GMT-0500 (Central Daylight Time),612880.3000000045,039_o_m_h_a.png,I,None,2015,5,1,3026.2000000029802,609854.1000000015,8034,VNB,A,3
2,test,4,0.0,2-Back,1,m,Fri Mar 28 2025 16:17:39 GMT-0500 (Central Daylight Time),614796.3000000045,165_m_m_n_a.png,I,m,889,6,1,1909.7000000029802,612886.6000000015,8034,VNB,A,4
2,test,4,0.0,2-Back,0,m,Fri Mar 28 2025 16:17:39 GMT-0500 (Central Daylight Time),616862.3000000045,139_m_f_d_a.png,I,z,1045,7,1,2059.7000000029802,614802.6000000015,8034,VNB,A,5
2,test,4,0.0,2-Back,0,z,Fri Mar 28 2025 16:17:39 GMT-0500 (Central Daylight Time),618478.5,071_y_f_n_a.png,I,m,595,8,1,1609.7999999970198,616868.700000003,8034,VNB,A,6
3,test,4,1.0,2-Back,1,m,Fri Mar 28 2025 16:17:39 GMT-0500 (Central Daylight Time),620161.3000000045,124_o_f_h_a.png,I,m,659,9,1,1676.4000000059605,618484.8999999985,8034,VNB,A,7
3,test,4,0.0,2-Back,0,m,Fri Mar 28 2025 16:17:39 GMT-0500 (Central Daylight Time),622410.5,165_m_m_h_a.png,I,z,1232,10,1,2242.6999999955297,620167.8000000045,8034,VNB,A,8
4,test,4,0.0,2-Back,1,m,Fri Mar 28 2025 16:17:39 GMT-0500 (Central Daylight Time),624226.700000003,071_y_f_d_a.png,I,m,790,11,1,1809.8999999985099,622416.8000000045,8034,VNB,A,9
5,test,4,0.0,2-Back,1,m,Fri Mar 28 2025 16:17:39 GMT-0500 (Central Daylight Time),625959.5,109_y_m_n_a.png,I,m,710,12,1,1726.2999999970198,624233.200000003,8034,VNB,A,10
5,test,4,0.0,2-Back,0,z,Fri Mar 28 2025 16:17:39 GMT-0500 (Central Daylight Time),628325.3000000045,039_o_m_d_a.png,I,m,1339,13,1,2359.5,625965.8000000045,8034,VNB,A,11
6,test,4,1.0,2-Back,1,m,Fri Mar 28 2025 16:17:39 GMT-0500 (Central Daylight Time),630324.8000000045,139_m_f_h_a.png,I,m,972,14,1,1993.2000000029802,628331.6000000015,8034,VNB,A,12
7,test,4,1.0,2-Back,1,m,Fri Mar 28 2025 16:17:39 GMT-0500 (Central Daylight Time),632374.200000003,071_y_f_h_a.png,I,m,1020,15,1,2043.0,630331.200000003,8034,VNB,A,13
8,test,4,0.0,2-Back,1,m,Fri Mar 28 2025 16:17:39 GMT-0500 (Central Daylight Time),634990.1000000015,124_o_f_n_a.png,I,m,1595,16,1,2609.60000000149,632380.5,8034,VNB,A,14
9,test,4,0.0,2-Back,1,m,Fri Mar 28 2025 16:17:39 GMT-0500 (Central Daylight Time),637223.8999999985,109_y_m_d_a.png,I,m,1211,17,1,2227.39999999851,634996.5,8034,VNB,A,15
9,test,4,1.0,2-Back,0,m,Fri Mar 28 2025 16:17:39 GMT-0500 (Central Daylight Time),639538.700000003,165_m_m_d_a.png,I,z,1291,18,1,2308.7000000029802,637230.0,8034,VNB,A,16
0,test,5,1.0,2-Back,,,Fri Mar 28 2025 16:17:39 GMT-0500 (Central Daylight Time),639538.700000003,071_y_f_d_a.png,I,space,8551,1,1,2308.7000000029802,637230.0,8034,VNB,A,0
0,test,5,1.0,2-Back,,,Fri Mar 28 2025 16:17:39 GMT-0500 (Central Daylight Time),639538.700000003,124_o_f_h_a.png,I,space,8551,2,1,2308.7000000029802,637230.0,8034,VNB,A,0
0,test,5,1.0,2-Back,0,z,Fri Mar 28 2025 16:17:39 GMT-0500 (Central Daylight Time),655067.0,039_o_m_d_a.png,I,m,848,3,1,1858.2999999970198,653208.700000003,8034,VNB,A,1
1,test,5,1.0,2-Back,1,m,Fri Mar 28 2025 16:17:39 GMT-0500 (Central Daylight Time),657283.0,139_m_f_n_a.png,I,m,1190,4,1,2209.89999999851,655073.1000000015,8034,VNB,A,2
2,test,5,0.0,2-Back,1,m,Fri Mar 28 2025 16:17:39 GMT-0500 (Central Daylight Time),659299.1000000015,165_m_m_h_a.png,I,m,990,5,1,2009.6000000014901,657289.5,8034,VNB,A,3
3,test,5,0.0,2-Back,1,z,Fri Mar 28 2025 16:17:39 GMT-0500 (Central Daylight Time),661731.3000000045,071_y_f_n_a.png,I,z,1414,6,1,2425.9000000059605,659305.3999999985,8034,VNB,A,4
4,test,5,0.0,2-Back,1,m,Fri Mar 28 2025 16:17:39 GMT-0500 (Central Daylight Time),663748.700000003,124_o_f_d_a.png,I,m,998,7,1,2010.6000000014901,661738.1000000015,8034,VNB,A,5
5,test,5,0.0,2-Back,1,m,Fri Mar 28 2025 16:17:39 GMT-0500 (Central Daylight Time),666047.200000003,039_o_m_h_a.png,I,m,1270,8,1,2291.89999999851,663755.3000000045,8034,VNB,A,6
5,test,5,1.0,2-Back,0,z,Fri Mar 28 2025 16:17:39 GMT-0500 (Central Daylight Time),667896.3999999985,139_m_f_d_a.png,I,m,818,9,1,1842.6999999955297,666053.700000003,8034,VNB,A,7
5,test,5,0.0,2-Back,0,m,Fri Mar 28 2025 16:17:39 GMT-0500 (Central Daylight Time),669845.700000003,109_y_m_n_a.png,I,z,929,10,1,1943.1000000014901,667902.6000000015,8034,VNB,A,8
5,test,5,0.0,2-Back,0,m,Fri Mar 28 2025 16:17:39 GMT-0500 (Central Daylight Time),671878.6000000015,165_m_m_n_a.png,I,z,1003,11,1,2026.3999999985099,669852.200000003,8034,VNB,A,9
6,test,5,0.0,2-Back,1,m,Fri Mar 28 2025 16:17:39 GMT-0500 (Central Daylight Time),673694.3999999985,071_y_f_h_a.png,I,m,795,12,1,1809.5,671884.8999999985,8034,VNB,A,10
7,test,5,0.0,2-Back,1,m,Fri Mar 28 2025 16:17:39 GMT-0500 (Central Daylight Time),675627.0,109_y_m_d_a.png,I,m,915,13,1,1925.8999999985099,673701.1000000015,8034,VNB,A,11
7,test,5,1.0,2-Back,0,z,Fri Mar 28 2025 16:17:39 GMT-0500 (Central Daylight Time),677910.0,139_m_f_h_a.png,I,m,1262,14,1,2276.60000000149,675633.3999999985,8034,VNB,A,12
8,test,5,0.0,2-Back,1,m,Fri Mar 28 2025 16:17:39 GMT-0500 (Central Daylight Time),680143.8000000045,039_o_m_n_a.png,I,m,1211,15,1,2227.3000000044703,677916.5,8034,VNB,A,13
9,test,5,0.0,2-Back,1,m,Fri Mar 28 2025 16:17:39 GMT-0500 (Central Daylight Time),682458.8000000045,165_m_m_d_a.png,I,m,1284,16,1,2307.60000000149,680151.200000003,8034,VNB,A,14
9,test,5,0.0,2-Back,0,z,Fri Mar 28 2025 16:17:39 GMT-0500 (Central Daylight Time),684274.700000003,124_o_f_n_a.png,I,m,782,17,1,1809.7000000029802,682465.0,8034,VNB,A,15
10,test,5,1.0,2-Back,1,m,Fri Mar 28 2025 16:17:39 GMT-0500 (Central Daylight Time),686257.200000003,109_y_m_h_a.png,I,m,951,18,1,1975.8999999985099,684281.3000000045,8034,VNB,A,16
