block_c,block_dur,condition,countdown,datetime,endtime,list,multichar_response,project,response,response_time,session_number,start_end,starttime,subject_id,task,task_vers,trial
,,,,Thu Apr 03 2025 16:14:21 GMT-0500 (Central Daylight Time),,,,O,space,1080,1,,,7110,WL,C,
prac,,0,,Thu Apr 03 2025 16:14:21 GMT-0500 (Central Daylight Time),,NA,b,O,b,2892,1,,,7110,WL,C,1.0
prac,,0,,Thu Apr 03 2025 16:14:21 GMT-0500 (Central Daylight Time),,NA,bi,O,i,171,1,,,7110,WL,C,1.0
prac,,0,,Thu Apr 03 2025 16:14:21 GMT-0500 (Central Daylight Time),,NA,bio,O,o,186,1,,,7110,WL,C,1.0
prac,,0,,Thu Apr 03 2025 16:14:21 GMT-0500 (Central Daylight Time),,NA,bi,O,backspace,714,1,,,7110,WL,C,1.0
prac,,0,,Thu Apr 03 2025 16:14:21 GMT-0500 (Central Daylight Time),,NA,b,O,backspace,86,1,,,7110,WL,C,1.0
prac,,0,,Thu Apr 03 2025 16:14:21 GMT-0500 (Central Daylight Time),,NA,bo,O,o,738,1,,,7110,WL,C,1.0
prac,,0,,Thu Apr 03 2025 16:14:21 GMT-0500 (Central Daylight Time),,NA,boo,O,o,94,1,,,7110,WL,C,1.0
prac,,0,,Thu Apr 03 2025 16:14:21 GMT-0500 (Central Daylight Time),,NA,boos,O,s,214,1,,,7110,WL,C,1.0
prac,,0,,Thu Apr 03 2025 16:14:21 GMT-0500 (Central Daylight Time),,NA,boost,O,t,173,1,,,7110,WL,C,1.0
prac,,0,,Thu Apr 03 2025 16:14:21 GMT-0500 (Central Daylight Time),,NA,boostenter,O,enter,888,1,,,7110,WL,C,1.0
1,1.1019999980926514,learn,58898.00000190735,Thu Apr 03 2025 16:14:21 GMT-0500 (Central Daylight Time),145517.0,A,t,O,t,1081,1,1100.3999999985099,144416.6000000015,7110,WL,C,1.0
1,1.4020001888275146,learn,58597.999811172485,Thu Apr 03 2025 16:14:21 GMT-0500 (Central Daylight Time),145817.0,A,to,O,o,281,1,1400.3999999985099,144416.6000000015,7110,WL,C,1.0
1,1.501000165939331,learn,58498.99983406067,Thu Apr 03 2025 16:14:21 GMT-0500 (Central Daylight Time),145916.3999999985,A,tow,O,w,82,1,1499.7999999970198,144416.6000000015,7110,WL,C,1.0
1,1.565999984741211,learn,58434.00001525879,Thu Apr 03 2025 16:14:21 GMT-0500 (Central Daylight Time),145981.69999999553,A,towe,O,e,44,1,1565.0999999940395,144416.6000000015,7110,WL,C,1.0
1,1.7340002059936523,learn,58265.99979400635,Thu Apr 03 2025 16:14:21 GMT-0500 (Central Daylight Time),146149.1000000015,A,tower,O,r,160,1,1732.5,144416.6000000015,7110,WL,C,1.0
1,2.2340002059936523,learn,57765.99979400635,Thu Apr 03 2025 16:14:21 GMT-0500 (Central Daylight Time),146649.19999999553,A,towerenter,O,enter,487,1,2232.5999999940395,144416.6000000015,7110,WL,C,1.0
1,2.936000108718872,learn,57063.99989128113,Thu Apr 03 2025 16:14:21 GMT-0500 (Central Daylight Time),147351.19999999553,A,w,O,w,683,1,701.5,146649.69999999553,7110,WL,C,2.0
1,3.015000104904175,learn,56984.999895095825,Thu Apr 03 2025 16:14:21 GMT-0500 (Central Daylight Time),147430.5,A,wa,O,a,69,1,780.8000000044703,146649.69999999553,7110,WL,C,2.0
1,3.1660001277923584,learn,56833.99987220764,Thu Apr 03 2025 16:14:21 GMT-0500 (Central Daylight Time),147581.3999999985,A,wat,O,t,134,1,931.7000000029802,146649.69999999553,7110,WL,C,2.0
1,3.2660000324249268,learn,56733.99996757507,Thu Apr 03 2025 16:14:21 GMT-0500 (Central Daylight Time),147681.1000000015,A,wate,O,e,79,1,1031.4000000059605,146649.69999999553,7110,WL,C,2.0
1,3.3489999771118164,learn,56651.00002288818,Thu Apr 03 2025 16:14:21 GMT-0500 (Central Daylight Time),147764.19999999553,A,water,O,r,68,1,1114.5,146649.69999999553,7110,WL,C,2.0
1,3.5329999923706055,learn,56467.000007629395,Thu Apr 03 2025 16:14:21 GMT-0500 (Central Daylight Time),147948.19999999553,A,waterenter,O,enter,167,1,1298.5,146649.69999999553,7110,WL,C,2.0
1,3.7330000400543213,learn,56266.99995994568,Thu Apr 03 2025 16:14:21 GMT-0500 (Central Daylight Time),148148.1000000015,A,w,O,w,194,1,199.5,147948.6000000015,7110,WL,C,3.0
1,3.8990001678466797,learn,56100.99983215332,Thu Apr 03 2025 16:14:21 GMT-0500 (Central Daylight Time),148314.1000000015,A,wh,O,h,153,1,365.5,147948.6000000015,7110,WL,C,3.0
1,4.016000032424927,learn,55983.99996757507,Thu Apr 03 2025 16:14:21 GMT-0500 (Central Daylight Time),148431.69999999553,A,whe,O,e,107,1,483.09999999403954,147948.6000000015,7110,WL,C,3.0
1,4.267000198364258,learn,55732.99980163574,Thu Apr 03 2025 16:14:21 GMT-0500 (Central Daylight Time),148682.3999999985,A,whea,O,a,228,1,733.7999999970198,147948.6000000015,7110,WL,C,3.0
1,4.366000175476074,learn,55633.999824523926,Thu Apr 03 2025 16:14:21 GMT-0500 (Central Daylight Time),148780.79999999702,A,wheaa,O,a,80,1,832.1999999955297,147948.6000000015,7110,WL,C,3.0
1,5.201000213623047,learn,54798.99978637695,Thu Apr 03 2025 16:14:21 GMT-0500 (Central Daylight Time),149615.8999999985,A,whea,O,backspace,815,1,1667.2999999970198,147948.6000000015,7110,WL,C,3.0
1,5.400000095367432,learn,54599.99990463257,Thu Apr 03 2025 16:14:21 GMT-0500 (Central Daylight Time),149814.8999999985,A,wheat,O,t,190,1,1866.2999999970198,147948.6000000015,7110,WL,C,3.0
1,5.667999982833862,learn,54332.00001716614,Thu Apr 03 2025 16:14:21 GMT-0500 (Central Daylight Time),150083.19999999553,A,wheatenter,O,enter,261,1,2134.5999999940395,147948.6000000015,7110,WL,C,3.0
1,5.933000087738037,learn,54066.99991226196,Thu Apr 03 2025 16:14:21 GMT-0500 (Central Daylight Time),150348.29999999702,A,s,O,s,250,1,264.69999999552965,150083.6000000015,7110,WL,C,4.0
1,6.199000120162964,learn,53800.999879837036,Thu Apr 03 2025 16:14:21 GMT-0500 (Central Daylight Time),150614.5,A,su,O,u,253,1,530.8999999985099,150083.6000000015,7110,WL,C,4.0
1,6.39900016784668,learn,53600.99983215332,Thu Apr 03 2025 16:14:21 GMT-0500 (Central Daylight Time),150813.8999999985,A,sug,O,g,181,1,730.2999999970198,150083.6000000015,7110,WL,C,4.0
1,6.567000150680542,learn,53432.99984931946,Thu Apr 03 2025 16:14:21 GMT-0500 (Central Daylight Time),150982.1000000015,A,suga,O,a,159,1,898.5,150083.6000000015,7110,WL,C,4.0
1,6.683000087738037,learn,53316.99991226196,Thu Apr 03 2025 16:14:21 GMT-0500 (Central Daylight Time),151097.79999999702,A,sugar,O,r,103,1,1014.1999999955297,150083.6000000015,7110,WL,C,4.0
1,7.832000017166138,learn,52167.99998283386,Thu Apr 03 2025 16:14:21 GMT-0500 (Central Daylight Time),152247.29999999702,A,sugarenter,O,enter,1127,1,2163.6999999955297,150083.6000000015,7110,WL,C,4.0
1,8.133000135421753,learn,51866.99986457825,Thu Apr 03 2025 16:14:21 GMT-0500 (Central Daylight Time),152548.19999999553,A,h,O,h,288,1,300.3999999985099,152247.79999999702,7110,WL,C,5.0
1,9.015000104904175,learn,50984.999895095825,Thu Apr 03 2025 16:14:21 GMT-0500 (Central Daylight Time),153430.0,A,ho,O,o,863,1,1182.2000000029802,152247.79999999702,7110,WL,C,5.0
1,9.063000202178955,learn,50936.999797821045,Thu Apr 03 2025 16:14:21 GMT-0500 (Central Daylight Time),153477.8999999985,A,hom,O,m,38,1,1230.1000000014901,152247.79999999702,7110,WL,C,5.0
1,9.165000200271606,learn,50834.99979972839,Thu Apr 03 2025 16:14:21 GMT-0500 (Central Daylight Time),153580.69999999553,A,home,O,e,89,1,1332.8999999985099,152247.79999999702,7110,WL,C,5.0
1,9.914000034332275,learn,50085.999965667725,Thu Apr 03 2025 16:14:21 GMT-0500 (Central Daylight Time),154329.79999999702,A,homeenter,O,enter,728,1,2082.0,152247.79999999702,7110,WL,C,5.0
1,11.581000089645386,learn,48418.999910354614,Thu Apr 03 2025 16:14:21 GMT-0500 (Central Daylight Time),155995.8999999985,A,q,O,q,1645,1,1665.8999999985099,154330.0,7110,WL,C,6.0
1,11.764000177383423,learn,48235.99982261658,Thu Apr 03 2025 16:14:21 GMT-0500 (Central Daylight Time),156179.5,A,qu,O,u,169,1,1849.5,154330.0,7110,WL,C,6.0
1,11.963000059127808,learn,48036.99994087219,Thu Apr 03 2025 16:14:21 GMT-0500 (Central Daylight Time),156378.6000000015,A,que,O,e,177,1,2048.60000000149,154330.0,7110,WL,C,6.0
1,12.047000169754028,learn,47952.99983024597,Thu Apr 03 2025 16:14:21 GMT-0500 (Central Daylight Time),156462.29999999702,A,quee,O,e,74,1,2132.2999999970198,154330.0,7110,WL,C,6.0
1,12.297000169754028,learn,47702.99983024597,Thu Apr 03 2025 16:14:21 GMT-0500 (Central Daylight Time),156712.3999999985,A,queeb,O,b,229,1,2382.39999999851,154330.0,7110,WL,C,6.0
1,12.664000034332275,learn,47335.999965667725,Thu Apr 03 2025 16:14:21 GMT-0500 (Central Daylight Time),157079.29999999702,A,queebenter,O,enter,356,1,2749.2999999970198,154330.0,7110,WL,C,6.0
1,15.146000146865845,learn,44853.999853134155,Thu Apr 03 2025 16:14:21 GMT-0500 (Central Daylight Time),159561.3999999985,A,q,O,q,2462,1,2481.7000000029802,157079.69999999553,7110,WL,C,7.0
1,16.89800000190735,learn,43101.99999809265,Thu Apr 03 2025 16:14:21 GMT-0500 (Central Daylight Time),161313.5,A,,O,backspace,1729,1,4233.80000000447,157079.69999999553,7110,WL,C,7.0
1,21.930000066757202,learn,38069.9999332428,Thu Apr 03 2025 16:14:21 GMT-0500 (Central Daylight Time),166345.29999999702,A,q,O,q,5011,1,9265.60000000149,157079.69999999553,7110,WL,C,7.0
1,22.198000192642212,learn,37801.99980735779,Thu Apr 03 2025 16:14:21 GMT-0500 (Central Daylight Time),166613.29999999702,A,qu,O,u,261,1,9533.60000000149,157079.69999999553,7110,WL,C,7.0
1,22.443000078201294,learn,37556.999921798706,Thu Apr 03 2025 16:14:21 GMT-0500 (Central Daylight Time),166858.0,A,que,O,e,234,1,9778.30000000447,157079.69999999553,7110,WL,C,7.0
1,22.544000148773193,learn,37455.99985122681,Thu Apr 03 2025 16:14:21 GMT-0500 (Central Daylight Time),166959.19999999553,A,quee,O,e,94,1,9879.5,157079.69999999553,7110,WL,C,7.0
1,22.761000156402588,learn,37238.99984359741,Thu Apr 03 2025 16:14:21 GMT-0500 (Central Daylight Time),167176.3999999985,A,queen,O,n,206,1,10096.70000000298,157079.69999999553,7110,WL,C,7.0
1,23.292999982833862,learn,36707.00001716614,Thu Apr 03 2025 16:14:21 GMT-0500 (Central Daylight Time),167708.3999999985,A,queenenter,O,enter,514,1,10628.70000000298,157079.69999999553,7110,WL,C,7.0
1,25.311000108718872,learn,34688.99989128113,Thu Apr 03 2025 16:14:21 GMT-0500 (Central Daylight Time),169726.0,A,g,O,g,2011,1,2017.3000000044703,167708.69999999553,7110,WL,C,8.0
1,25.992000102996826,learn,34007.999897003174,Thu Apr 03 2025 16:14:21 GMT-0500 (Central Daylight Time),170407.19999999553,A,,O,backspace,669,1,2698.5,167708.69999999553,7110,WL,C,8.0
1,27.259000062942505,learn,32740.999937057495,Thu Apr 03 2025 16:14:21 GMT-0500 (Central Daylight Time),171674.29999999702,A,f,O,f,1256,1,3965.60000000149,167708.69999999553,7110,WL,C,8.0
1,27.544000148773193,learn,32455.999851226807,Thu Apr 03 2025 16:14:21 GMT-0500 (Central Daylight Time),171958.79999999702,A,fl,O,l,268,1,4250.10000000149,167708.69999999553,7110,WL,C,8.0
1,27.66100001335144,learn,32338.99998664856,Thu Apr 03 2025 16:14:21 GMT-0500 (Central Daylight Time),172076.29999999702,A,fla,O,a,95,1,4367.60000000149,167708.69999999553,7110,WL,C,8.0
1,27.861000061035156,learn,32138.999938964844,Thu Apr 03 2025 16:14:21 GMT-0500 (Central Daylight Time),172276.19999999553,A,flag,O,g,190,1,4567.5,167708.69999999553,7110,WL,C,8.0
1,28.509000062942505,learn,31490.999937057495,Thu Apr 03 2025 16:14:21 GMT-0500 (Central Daylight Time),172924.0,A,flagenter,O,enter,643,1,5215.30000000447,167708.69999999553,7110,WL,C,8.0
1,29.02500009536743,learn,30974.99990463257,Thu Apr 03 2025 16:14:21 GMT-0500 (Central Daylight Time),173440.29999999702,A,enter,O,enter,497,1,516.0,172924.29999999702,7110,WL,C,9.0
1,29.425000190734863,learn,30574.999809265137,Thu Apr 03 2025 16:14:21 GMT-0500 (Central Daylight Time),173840.6000000015,A,enter,O,enter,381,1,399.90000000596046,173440.69999999553,7110,WL,C,10.0
1,29.841000080108643,learn,30158.999919891357,Thu Apr 03 2025 16:14:21 GMT-0500 (Central Daylight Time),174256.3999999985,A,enter,O,enter,397,1,415.5,173840.8999999985,7110,WL,C,11.0
1,30.19099998474121,learn,29809.00001525879,Thu Apr 03 2025 16:14:21 GMT-0500 (Central Daylight Time),174606.0,A,enter,O,enter,327,1,349.30000000447035,174256.69999999553,7110,WL,C,12.0
1,30.35800004005432,learn,29641.99995994568,Thu Apr 03 2025 16:14:21 GMT-0500 (Central Daylight Time),174772.8999999985,A,enter,O,enter,152,1,166.60000000149012,174606.29999999702,7110,WL,C,13.0
1,30.692000150680542,learn,29307.999849319458,Thu Apr 03 2025 16:14:21 GMT-0500 (Central Daylight Time),175107.69999999553,A,enter,O,enter,329,1,334.3999999985099,174773.29999999702,7110,WL,C,14.0
1,31.076000213623047,learn,28923.999786376953,Thu Apr 03 2025 16:14:21 GMT-0500 (Central Daylight Time),175491.6000000015,A,enter,O,enter,378,1,383.70000000298023,175107.8999999985,7110,WL,C,15.0
2,1.0169999599456787,learn,58983.00004005432,Thu Apr 03 2025 16:14:21 GMT-0500 (Central Daylight Time),244651.19999999553,A,t,O,t,1004,1,1016.5999999940395,243634.6000000015,7110,WL,C,1.0
2,1.3329999446868896,learn,58667.00005531311,Thu Apr 03 2025 16:14:21 GMT-0500 (Central Daylight Time),244967.3999999985,A,to,O,o,298,1,1332.7999999970198,243634.6000000015,7110,WL,C,1.0
2,1.4660000801086426,learn,58533.99991989136,Thu Apr 03 2025 16:14:21 GMT-0500 (Central Daylight Time),245100.79999999702,A,toe,O,e,119,1,1466.1999999955297,243634.6000000015,7110,WL,C,1.0
2,2.497999906539917,learn,57502.00009346008,Thu Apr 03 2025 16:14:21 GMT-0500 (Central Daylight Time),246133.1000000015,A,to,O,backspace,1025,1,2498.5,243634.6000000015,7110,WL,C,1.0
2,2.6649999618530273,learn,57335.00003814697,Thu Apr 03 2025 16:14:21 GMT-0500 (Central Daylight Time),246300.19999999553,A,tow,O,w,151,1,2665.5999999940395,243634.6000000015,7110,WL,C,1.0
2,2.7320001125335693,learn,57267.99988746643,Thu Apr 03 2025 16:14:21 GMT-0500 (Central Daylight Time),246366.3999999985,A,towe,O,e,47,1,2731.7999999970198,243634.6000000015,7110,WL,C,1.0
2,2.933000087738037,learn,57066.99991226196,Thu Apr 03 2025 16:14:21 GMT-0500 (Central Daylight Time),246567.6000000015,A,tower,O,r,185,1,2933.0,243634.6000000015,7110,WL,C,1.0
2,3.2330000400543213,learn,56766.99995994568,Thu Apr 03 2025 16:14:21 GMT-0500 (Central Daylight Time),246867.5,A,towerenter,O,enter,293,1,3232.89999999851,243634.6000000015,7110,WL,C,1.0
2,4.015000104904175,learn,55984.999895095825,Thu Apr 03 2025 16:14:21 GMT-0500 (Central Daylight Time),247650.1000000015,A,w,O,w,771,1,782.4000000059605,246867.69999999553,7110,WL,C,2.0
2,4.431999921798706,learn,55568.000078201294,Thu Apr 03 2025 16:14:21 GMT-0500 (Central Daylight Time),248066.5,A,wh,O,h,402,1,1198.8000000044703,246867.69999999553,7110,WL,C,2.0
2,4.582000017166138,learn,55417.99998283386,Thu Apr 03 2025 16:14:21 GMT-0500 (Central Daylight Time),248216.6000000015,A,whe,O,e,141,1,1348.9000000059605,246867.69999999553,7110,WL,C,2.0
2,4.815000057220459,learn,55184.99994277954,Thu Apr 03 2025 16:14:21 GMT-0500 (Central Daylight Time),248449.8999999985,A,whea,O,a,221,1,1582.2000000029802,246867.69999999553,7110,WL,C,2.0
2,4.88100004196167,learn,55118.99995803833,Thu Apr 03 2025 16:14:21 GMT-0500 (Central Daylight Time),248515.8999999985,A,wheat,O,t,60,1,1648.2000000029802,246867.69999999553,7110,WL,C,2.0
2,5.249000072479248,learn,54750.99992752075,Thu Apr 03 2025 16:14:21 GMT-0500 (Central Daylight Time),248883.3999999985,A,wheatenter,O,enter,352,1,2015.7000000029802,246867.69999999553,7110,WL,C,2.0
2,6.4649999141693115,learn,53535.00008583069,Thu Apr 03 2025 16:14:21 GMT-0500 (Central Daylight Time),250099.3999999985,A,q,O,q,1195,1,1215.7999999970198,248883.6000000015,7110,WL,C,3.0
2,6.698999881744385,learn,53301.000118255615,Thu Apr 03 2025 16:14:21 GMT-0500 (Central Daylight Time),250333.5,A,qu,O,u,220,1,1449.8999999985099,248883.6000000015,7110,WL,C,3.0
2,6.881999969482422,learn,53118.00003051758,Thu Apr 03 2025 16:14:21 GMT-0500 (Central Daylight Time),250516.5,A,que,O,e,167,1,1632.8999999985099,248883.6000000015,7110,WL,C,3.0
2,6.999000072479248,learn,53000.99992752075,Thu Apr 03 2025 16:14:21 GMT-0500 (Central Daylight Time),250633.8999999985,A,quee,O,e,97,1,1750.2999999970198,248883.6000000015,7110,WL,C,3.0
2,7.129999876022339,learn,52870.00012397766,Thu Apr 03 2025 16:14:21 GMT-0500 (Central Daylight Time),250764.29999999702,A,queen,O,n,122,1,1880.6999999955297,248883.6000000015,7110,WL,C,3.0
2,8.04699993133545,learn,51953.00006866455,Thu Apr 03 2025 16:14:21 GMT-0500 (Central Daylight Time),251681.3999999985,A,queenenter,O,enter,903,1,2797.7999999970198,248883.6000000015,7110,WL,C,3.0
2,8.29800009727478,learn,51701.99990272522,Thu Apr 03 2025 16:14:21 GMT-0500 (Central Daylight Time),251932.5,A,f,O,f,236,1,250.80000000447035,251681.69999999553,7110,WL,C,4.0
2,8.698999881744385,learn,51301.000118255615,Thu Apr 03 2025 16:14:21 GMT-0500 (Central Daylight Time),252333.3999999985,A,fl,O,l,377,1,651.7000000029802,251681.69999999553,7110,WL,C,4.0
2,8.846999883651733,learn,51153.00011634827,Thu Apr 03 2025 16:14:21 GMT-0500 (Central Daylight Time),252481.19999999553,A,fla,O,a,126,1,799.5,251681.69999999553,7110,WL,C,4.0
2,9.02999997138977,learn,50970.00002861023,Thu Apr 03 2025 16:14:21 GMT-0500 (Central Daylight Time),252664.79999999702,A,flag,O,g,162,1,983.1000000014901,251681.69999999553,7110,WL,C,4.0
2,9.329999923706055,learn,50670.000076293945,Thu Apr 03 2025 16:14:21 GMT-0500 (Central Daylight Time),252964.19999999553,A,flagenter,O,enter,291,1,1282.5,251681.69999999553,7110,WL,C,4.0
2,9.579999923706055,learn,50420.000076293945,Thu Apr 03 2025 16:14:21 GMT-0500 (Central Daylight Time),253214.79999999702,A,s,O,s,243,1,250.29999999701977,252964.5,7110,WL,C,5.0
2,9.796000003814697,learn,50203.9999961853,Thu Apr 03 2025 16:14:21 GMT-0500 (Central Daylight Time),253430.8999999985,A,su,O,u,209,1,466.3999999985099,252964.5,7110,WL,C,5.0
2,9.963000059127808,learn,50036.99994087219,Thu Apr 03 2025 16:14:21 GMT-0500 (Central Daylight Time),253597.5,A,sug,O,g,149,1,633.0,252964.5,7110,WL,C,5.0
2,10.13100004196167,learn,49868.99995803833,Thu Apr 03 2025 16:14:21 GMT-0500 (Central Daylight Time),253766.1000000015,A,suga,O,a,153,1,801.6000000014901,252964.5,7110,WL,C,5.0
2,10.296000003814697,learn,49703.9999961853,Thu Apr 03 2025 16:14:21 GMT-0500 (Central Daylight Time),253931.1000000015,A,sugar,O,r,151,1,966.6000000014901,252964.5,7110,WL,C,5.0
2,10.598000049591064,learn,49401.999950408936,Thu Apr 03 2025 16:14:21 GMT-0500 (Central Daylight Time),254232.8999999985,A,sugarenter,O,enter,280,1,1268.3999999985099,252964.5,7110,WL,C,5.0
2,11.332000017166138,learn,48667.99998283386,Thu Apr 03 2025 16:14:21 GMT-0500 (Central Daylight Time),254966.3999999985,A,h,O,h,728,1,733.2999999970198,254233.1000000015,7110,WL,C,6.0
2,11.596999883651733,learn,48403.00011634827,Thu Apr 03 2025 16:14:21 GMT-0500 (Central Daylight Time),255231.69999999553,A,ho,O,o,245,1,998.5999999940395,254233.1000000015,7110,WL,C,6.0
2,11.644999980926514,learn,48355.000019073486,Thu Apr 03 2025 16:14:21 GMT-0500 (Central Daylight Time),255279.8999999985,A,hom,O,m,36,1,1046.7999999970198,254233.1000000015,7110,WL,C,6.0
2,11.713000059127808,learn,48286.99994087219,Thu Apr 03 2025 16:14:21 GMT-0500 (Central Daylight Time),255347.8999999985,A,home,O,e,61,1,1114.7999999970198,254233.1000000015,7110,WL,C,6.0
2,12.463000059127808,learn,47536.99994087219,Thu Apr 03 2025 16:14:21 GMT-0500 (Central Daylight Time),256097.19999999553,A,homeenter,O,enter,736,1,1864.0999999940395,254233.1000000015,7110,WL,C,6.0
2,13.263000011444092,learn,46736.99998855591,Thu Apr 03 2025 16:14:21 GMT-0500 (Central Daylight Time),256897.29999999702,A,b,O,b,780,1,799.6999999955297,256097.6000000015,7110,WL,C,7.0
2,13.545000076293945,learn,46454.999923706055,Thu Apr 03 2025 16:14:21 GMT-0500 (Central Daylight Time),257179.6000000015,A,bo,O,o,277,1,1082.0,256097.6000000015,7110,WL,C,7.0
2,13.628999948501587,learn,46371.00005149841,Thu Apr 03 2025 16:14:21 GMT-0500 (Central Daylight Time),257263.8999999985,A,boy,O,y,65,1,1166.2999999970198,256097.6000000015,7110,WL,C,7.0
2,13.976999998092651,learn,46023.00000190735,Thu Apr 03 2025 16:14:21 GMT-0500 (Central Daylight Time),257612.0,A,boyenter,O,enter,333,1,1514.3999999985099,256097.6000000015,7110,WL,C,7.0
2,17.24399995803833,learn,42756.00004196167,Thu Apr 03 2025 16:14:21 GMT-0500 (Central Daylight Time),260878.29999999702,A,enter,O,enter,3250,1,3266.10000000149,257612.19999999553,7110,WL,C,8.0
2,17.545000076293945,learn,42454.999923706055,Thu Apr 03 2025 16:14:21 GMT-0500 (Central Daylight Time),261179.19999999553,A,enter,O,enter,288,1,300.59999999403954,260878.6000000015,7110,WL,C,9.0
2,17.72699999809265,learn,42273.00000190735,Thu Apr 03 2025 16:14:21 GMT-0500 (Central Daylight Time),261361.3999999985,A,enter,O,enter,171,1,181.79999999701977,261179.6000000015,7110,WL,C,10.0
2,17.89400005340576,learn,42105.99994659424,Thu Apr 03 2025 16:14:21 GMT-0500 (Central Daylight Time),261528.29999999702,A,enter,O,enter,148,1,166.5,261361.79999999702,7110,WL,C,11.0
2,18.045000076293945,learn,41954.999923706055,Thu Apr 03 2025 16:14:21 GMT-0500 (Central Daylight Time),261679.3999999985,A,enter,O,enter,142,1,150.89999999850988,261528.5,7110,WL,C,12.0
2,18.194000005722046,learn,41805.999994277954,Thu Apr 03 2025 16:14:21 GMT-0500 (Central Daylight Time),261829.0,A,enter,O,enter,144,1,149.20000000298023,261679.79999999702,7110,WL,C,13.0
2,18.34500002861023,learn,41654.99997138977,Thu Apr 03 2025 16:14:21 GMT-0500 (Central Daylight Time),261979.8999999985,A,enter,O,enter,146,1,150.60000000149012,261829.29999999702,7110,WL,C,14.0
2,18.677000045776367,learn,41322.99995422363,Thu Apr 03 2025 16:14:21 GMT-0500 (Central Daylight Time),262311.19999999553,A,enter,O,enter,322,1,331.0,261980.19999999553,7110,WL,C,15.0
3,0.9000000953674316,learn,59099.99990463257,Thu Apr 03 2025 16:14:21 GMT-0500 (Central Daylight Time),329591.19999999553,A,t,O,t,879,1,899.6999999955297,328691.5,7110,WL,C,1.0
3,1.1679999828338623,learn,58832.00001716614,Thu Apr 03 2025 16:14:21 GMT-0500 (Central Daylight Time),329858.69999999553,A,to,O,o,246,1,1167.1999999955297,328691.5,7110,WL,C,1.0
3,1.249000072479248,learn,58750.99992752075,Thu Apr 03 2025 16:14:21 GMT-0500 (Central Daylight Time),329940.0,A,tow,O,w,74,1,1248.5,328691.5,7110,WL,C,1.0
3,1.3329999446868896,learn,58667.00005531311,Thu Apr 03 2025 16:14:21 GMT-0500 (Central Daylight Time),330024.19999999553,A,towe,O,e,64,1,1332.6999999955297,328691.5,7110,WL,C,1.0
3,1.6500000953674316,learn,58349.99990463257,Thu Apr 03 2025 16:14:21 GMT-0500 (Central Daylight Time),330341.19999999553,A,tower,O,r,300,1,1649.6999999955297,328691.5,7110,WL,C,1.0
3,2.134000062942505,learn,57865.999937057495,Thu Apr 03 2025 16:14:21 GMT-0500 (Central Daylight Time),330825.0,A,towerenter,O,enter,471,1,2133.5,328691.5,7110,WL,C,1.0
3,2.5829999446868896,learn,57417.00005531311,Thu Apr 03 2025 16:14:21 GMT-0500 (Central Daylight Time),331273.299999997,A,w,O,w,439,1,448.0,330825.299999997,7110,WL,C,2.0
3,2.8010001182556152,learn,57198.999881744385,Thu Apr 03 2025 16:14:21 GMT-0500 (Central Daylight Time),331491.5,A,wh,O,h,212,1,666.2000000029802,330825.299999997,7110,WL,C,2.0
3,2.999000072479248,learn,57000.99992752075,Thu Apr 03 2025 16:14:21 GMT-0500 (Central Daylight Time),331690.1000000015,A,whe,O,e,179,1,864.8000000044703,330825.299999997,7110,WL,C,2.0
3,3.2829999923706055,learn,56717.000007629395,Thu Apr 03 2025 16:14:21 GMT-0500 (Central Daylight Time),331973.6000000015,A,whea,O,a,267,1,1148.3000000044703,330825.299999997,7110,WL,C,2.0
3,3.5,learn,56500.0,Thu Apr 03 2025 16:14:21 GMT-0500 (Central Daylight Time),332191.19999999553,A,wheat,O,t,210,1,1365.8999999985099,330825.299999997,7110,WL,C,2.0
3,3.749000072479248,learn,56250.99992752075,Thu Apr 03 2025 16:14:21 GMT-0500 (Central Daylight Time),332439.8999999985,A,wheatenter,O,enter,230,1,1614.6000000014901,330825.299999997,7110,WL,C,2.0
3,4.650000095367432,learn,55349.99990463257,Thu Apr 03 2025 16:14:21 GMT-0500 (Central Daylight Time),333340.5,A,q,O,q,879,1,900.3000000044703,332440.19999999553,7110,WL,C,3.0
3,4.881999969482422,learn,55118.00003051758,Thu Apr 03 2025 16:14:21 GMT-0500 (Central Daylight Time),333572.8999999985,A,qu,O,u,228,1,1132.7000000029802,332440.19999999553,7110,WL,C,3.0
3,5.049999952316284,learn,54950.000047683716,Thu Apr 03 2025 16:14:21 GMT-0500 (Central Daylight Time),333741.19999999553,A,que,O,e,163,1,1301.0,332440.19999999553,7110,WL,C,3.0
3,5.41700005531311,learn,54582.99994468689,Thu Apr 03 2025 16:14:21 GMT-0500 (Central Daylight Time),334108.299999997,A,quee,O,e,361,1,1668.1000000014901,332440.19999999553,7110,WL,C,3.0
3,5.5320000648498535,learn,54467.99993515015,Thu Apr 03 2025 16:14:21 GMT-0500 (Central Daylight Time),334222.69999999553,A,queen,O,n,106,1,1782.5,332440.19999999553,7110,WL,C,3.0
3,5.914000034332275,learn,54085.999965667725,Thu Apr 03 2025 16:14:21 GMT-0500 (Central Daylight Time),334604.799999997,A,queenenter,O,enter,374,1,2164.60000000149,332440.19999999553,7110,WL,C,3.0
3,6.8480000495910645,learn,53151.999950408936,Thu Apr 03 2025 16:14:21 GMT-0500 (Central Daylight Time),335538.8999999985,A,s,O,s,921,1,933.7999999970198,334605.1000000015,7110,WL,C,4.0
3,7.04800009727478,learn,52951.99990272522,Thu Apr 03 2025 16:14:21 GMT-0500 (Central Daylight Time),335738.8999999985,A,su,O,u,188,1,1133.7999999970198,334605.1000000015,7110,WL,C,4.0
3,7.164999961853027,learn,52835.00003814697,Thu Apr 03 2025 16:14:21 GMT-0500 (Central Daylight Time),335855.69999999553,A,sug,O,g,99,1,1250.5999999940395,334605.1000000015,7110,WL,C,4.0
3,7.565000057220459,learn,52434.99994277954,Thu Apr 03 2025 16:14:21 GMT-0500 (Central Daylight Time),336255.3999999985,A,suga,O,a,381,1,1650.2999999970198,334605.1000000015,7110,WL,C,4.0
3,7.831000089645386,learn,52168.999910354614,Thu Apr 03 2025 16:14:21 GMT-0500 (Central Daylight Time),336522.0,A,sugar,O,r,244,1,1916.8999999985099,334605.1000000015,7110,WL,C,4.0
3,8.082000017166138,learn,51917.99998283386,Thu Apr 03 2025 16:14:21 GMT-0500 (Central Daylight Time),336772.5,A,sugarenter,O,enter,234,1,2167.39999999851,334605.1000000015,7110,WL,C,4.0
3,8.315000057220459,learn,51684.99994277954,Thu Apr 03 2025 16:14:21 GMT-0500 (Central Daylight Time),337005.6000000015,A,h,O,h,227,1,232.90000000596046,336772.69999999553,7110,WL,C,5.0
3,8.499000072479248,learn,51500.99992752075,Thu Apr 03 2025 16:14:21 GMT-0500 (Central Daylight Time),337190.0,A,ho,O,o,179,1,417.30000000447035,336772.69999999553,7110,WL,C,5.0
3,8.545000076293945,learn,51454.999923706055,Thu Apr 03 2025 16:14:21 GMT-0500 (Central Daylight Time),337236.299999997,A,hom,O,m,31,1,463.6000000014901,336772.69999999553,7110,WL,C,5.0
3,8.647000074386597,learn,51352.9999256134,Thu Apr 03 2025 16:14:21 GMT-0500 (Central Daylight Time),337338.3999999985,A,home,O,e,91,1,565.7000000029802,336772.69999999553,7110,WL,C,5.0
3,8.86299991607666,learn,51137.00008392334,Thu Apr 03 2025 16:14:21 GMT-0500 (Central Daylight Time),337553.6000000015,A,homeenter,O,enter,204,1,780.9000000059605,336772.69999999553,7110,WL,C,5.0
3,10.081000089645386,learn,49918.999910354614,Thu Apr 03 2025 16:14:21 GMT-0500 (Central Daylight Time),338771.299999997,A,f,O,f,1204,1,1217.3999999985099,337553.8999999985,7110,WL,C,6.0
3,10.447999954223633,learn,49552.00004577637,Thu Apr 03 2025 16:14:21 GMT-0500 (Central Daylight Time),339138.3999999985,A,fl,O,l,355,1,1584.5,337553.8999999985,7110,WL,C,6.0
3,10.796000003814697,learn,49203.9999961853,Thu Apr 03 2025 16:14:21 GMT-0500 (Central Daylight Time),339487.1000000015,A,fla,O,a,332,1,1933.2000000029802,337553.8999999985,7110,WL,C,6.0
3,11.04699993133545,learn,48953.00006866455,Thu Apr 03 2025 16:14:21 GMT-0500 (Central Daylight Time),339738.0,A,flag,O,g,237,1,2184.10000000149,337553.8999999985,7110,WL,C,6.0
3,12.196000099182129,learn,47803.99990081787,Thu Apr 03 2025 16:14:21 GMT-0500 (Central Daylight Time),340886.5,A,flagn,O,n,1130,1,3332.60000000149,337553.8999999985,7110,WL,C,6.0
3,12.36299991607666,learn,47637.00008392334,Thu Apr 03 2025 16:14:21 GMT-0500 (Central Daylight Time),341054.0,A,flagna,O,a,150,1,3500.10000000149,337553.8999999985,7110,WL,C,6.0
3,12.52999997138977,learn,47470.00002861023,Thu Apr 03 2025 16:14:21 GMT-0500 (Central Daylight Time),341221.0,A,flagnai,O,i,158,1,3667.10000000149,337553.8999999985,7110,WL,C,6.0
3,12.61299991607666,learn,47387.00008392334,Thu Apr 03 2025 16:14:21 GMT-0500 (Central Daylight Time),341303.6000000015,A,flagnail,O,l,70,1,3749.7000000029802,337553.8999999985,7110,WL,C,6.0
3,13.878000020980835,learn,46121.999979019165,Thu Apr 03 2025 16:14:21 GMT-0500 (Central Daylight Time),342568.8999999985,A,flagnai,O,backspace,1254,1,5015.0,337553.8999999985,7110,WL,C,6.0
3,14.029000043869019,learn,45970.99995613098,Thu Apr 03 2025 16:14:21 GMT-0500 (Central Daylight Time),342720.19999999553,A,flagna,O,backspace,133,1,5166.29999999702,337553.8999999985,7110,WL,C,6.0
3,14.147000074386597,learn,45852.9999256134,Thu Apr 03 2025 16:14:21 GMT-0500 (Central Daylight Time),342837.5,A,flagn,O,backspace,111,1,5283.60000000149,337553.8999999985,7110,WL,C,6.0
3,14.513999938964844,learn,45486.000061035156,Thu Apr 03 2025 16:14:21 GMT-0500 (Central Daylight Time),343204.799999997,A,flag,O,backspace,361,1,5650.89999999851,337553.8999999985,7110,WL,C,6.0
3,15.279000043869019,learn,44720.99995613098,Thu Apr 03 2025 16:14:21 GMT-0500 (Central Daylight Time),343969.8999999985,A,flagenter,O,enter,746,1,6416.0,337553.8999999985,7110,WL,C,6.0
3,16.494999885559082,learn,43505.00011444092,Thu Apr 03 2025 16:14:21 GMT-0500 (Central Daylight Time),345186.19999999553,A,n,O,n,1205,1,1216.0,343970.19999999553,7110,WL,C,7.0
3,16.76099991798401,learn,43239.00008201599,Thu Apr 03 2025 16:14:21 GMT-0500 (Central Daylight Time),345452.19999999553,A,na,O,a,254,1,1482.0,343970.19999999553,7110,WL,C,7.0
3,16.980000019073486,learn,43019.999980926514,Thu Apr 03 2025 16:14:21 GMT-0500 (Central Daylight Time),345671.1000000015,A,nau,O,u,214,1,1700.9000000059605,343970.19999999553,7110,WL,C,7.0
3,17.711999893188477,learn,42288.00010681152,Thu Apr 03 2025 16:14:21 GMT-0500 (Central Daylight Time),346402.3999999985,A,na,O,backspace,710,1,2432.2000000029802,343970.19999999553,7110,WL,C,7.0
3,18.128000020980835,learn,41871.999979019165,Thu Apr 03 2025 16:14:21 GMT-0500 (Central Daylight Time),346818.299999997,A,nai,O,i,404,1,2848.10000000149,343970.19999999553,7110,WL,C,7.0
3,18.17899990081787,learn,41821.00009918213,Thu Apr 03 2025 16:14:21 GMT-0500 (Central Daylight Time),346869.6000000015,A,nail,O,l,47,1,2899.4000000059605,343970.19999999553,7110,WL,C,7.0
3,18.97699999809265,learn,41023.00000190735,Thu Apr 03 2025 16:14:21 GMT-0500 (Central Daylight Time),347667.69999999553,A,nailenter,O,enter,784,1,3697.5,343970.19999999553,7110,WL,C,7.0
3,24.608999967575073,learn,35391.00003242493,Thu Apr 03 2025 16:14:21 GMT-0500 (Central Daylight Time),353299.5,A,enter,O,enter,5618,1,5631.60000000149,347667.8999999985,7110,WL,C,8.0
3,24.776999950408936,learn,35223.000049591064,Thu Apr 03 2025 16:14:21 GMT-0500 (Central Daylight Time),353468.0,A,enter,O,enter,163,1,168.20000000298023,353299.799999997,7110,WL,C,9.0
3,24.926000118255615,learn,35073.999881744385,Thu Apr 03 2025 16:14:21 GMT-0500 (Central Daylight Time),353617.19999999553,A,enter,O,enter,138,1,148.89999999850988,353468.299999997,7110,WL,C,10.0
3,25.075000047683716,learn,34924.999952316284,Thu Apr 03 2025 16:14:21 GMT-0500 (Central Daylight Time),353765.5,A,enter,O,enter,133,1,148.0,353617.5,7110,WL,C,11.0
3,25.210000038146973,learn,34789.99996185303,Thu Apr 03 2025 16:14:21 GMT-0500 (Central Daylight Time),353900.5,A,enter,O,enter,130,1,134.60000000149012,353765.8999999985,7110,WL,C,12.0
3,25.358999967575073,learn,34641.00003242493,Thu Apr 03 2025 16:14:21 GMT-0500 (Central Daylight Time),354049.799999997,A,enter,O,enter,129,1,149.0,353900.799999997,7110,WL,C,13.0
3,25.493000030517578,learn,34506.99996948242,Thu Apr 03 2025 16:14:21 GMT-0500 (Central Daylight Time),354183.299999997,A,enter,O,enter,126,1,133.19999999552965,354050.1000000015,7110,WL,C,14.0
3,25.858999967575073,learn,34141.00003242493,Thu Apr 03 2025 16:14:21 GMT-0500 (Central Daylight Time),354549.69999999553,A,enter,O,enter,359,1,366.09999999403954,354183.6000000015,7110,WL,C,15.0
4,0.4500000476837158,learn,59549.999952316284,Thu Apr 03 2025 16:14:21 GMT-0500 (Central Daylight Time),422045.1000000015,A,t,O,t,436,1,450.20000000298023,421594.8999999985,7110,WL,C,1.0
4,0.6679999828338623,learn,59332.00001716614,Thu Apr 03 2025 16:14:21 GMT-0500 (Central Daylight Time),422263.3999999985,A,to,O,o,212,1,668.5,421594.8999999985,7110,WL,C,1.0
4,0.8169999122619629,learn,59183.00008773804,Thu Apr 03 2025 16:14:21 GMT-0500 (Central Daylight Time),422412.0,A,tow,O,w,135,1,817.1000000014901,421594.8999999985,7110,WL,C,1.0
4,0.8819999694824219,learn,59118.00003051758,Thu Apr 03 2025 16:14:21 GMT-0500 (Central Daylight Time),422477.299999997,A,towe,O,e,49,1,882.3999999985099,421594.8999999985,7110,WL,C,1.0
4,1.0829999446868896,learn,58917.00005531311,Thu Apr 03 2025 16:14:21 GMT-0500 (Central Daylight Time),422677.69999999553,A,tower,O,r,178,1,1082.7999999970198,421594.8999999985,7110,WL,C,1.0
4,2.1670000553131104,learn,57832.99994468689,Thu Apr 03 2025 16:14:21 GMT-0500 (Central Daylight Time),423761.69999999553,A,towerenter,O,enter,1070,1,2166.7999999970198,421594.8999999985,7110,WL,C,1.0
4,2.7319998741149902,learn,57268.00012588501,Thu Apr 03 2025 16:14:21 GMT-0500 (Central Daylight Time),424327.3999999985,A,w,O,w,549,1,565.5,423761.8999999985,7110,WL,C,2.0
4,3.0160000324249268,learn,56983.99996757507,Thu Apr 03 2025 16:14:21 GMT-0500 (Central Daylight Time),424611.0,A,wh,O,h,262,1,849.1000000014901,423761.8999999985,7110,WL,C,2.0
4,3.180000066757202,learn,56819.9999332428,Thu Apr 03 2025 16:14:21 GMT-0500 (Central Daylight Time),424775.6000000015,A,whe,O,e,152,1,1013.7000000029802,423761.8999999985,7110,WL,C,2.0
4,3.434999942779541,learn,56565.00005722046,Thu Apr 03 2025 16:14:21 GMT-0500 (Central Daylight Time),425029.8999999985,A,whea,O,a,235,1,1268.0,423761.8999999985,7110,WL,C,2.0
4,3.5980000495910645,learn,56401.999950408936,Thu Apr 03 2025 16:14:21 GMT-0500 (Central Daylight Time),425193.6000000015,A,wheat,O,t,154,1,1431.7000000029802,423761.8999999985,7110,WL,C,2.0
4,3.8999998569488525,learn,56100.00014305115,Thu Apr 03 2025 16:14:21 GMT-0500 (Central Daylight Time),425495.19999999553,A,wheatenter,O,enter,285,1,1733.2999999970198,423761.8999999985,7110,WL,C,2.0
4,4.3480000495910645,learn,55651.999950408936,Thu Apr 03 2025 16:14:21 GMT-0500 (Central Daylight Time),425943.5,A,q,O,q,431,1,448.0,425495.5,7110,WL,C,3.0
4,4.682999849319458,learn,55317.00015068054,Thu Apr 03 2025 16:14:21 GMT-0500 (Central Daylight Time),426278.3999999985,A,qu,O,u,318,1,782.8999999985099,425495.5,7110,WL,C,3.0
4,4.997999906539917,learn,55002.00009346008,Thu Apr 03 2025 16:14:21 GMT-0500 (Central Daylight Time),426593.5,A,que,O,e,304,1,1098.0,425495.5,7110,WL,C,3.0
4,5.230999946594238,learn,54769.00005340576,Thu Apr 03 2025 16:14:21 GMT-0500 (Central Daylight Time),426826.3999999985,A,quee,O,e,219,1,1330.8999999985099,425495.5,7110,WL,C,3.0
4,5.414999961853027,learn,54585.00003814697,Thu Apr 03 2025 16:14:21 GMT-0500 (Central Daylight Time),427010.6000000015,A,queen,O,n,163,1,1515.1000000014901,425495.5,7110,WL,C,3.0
4,6.23199987411499,learn,53768.00012588501,Thu Apr 03 2025 16:14:21 GMT-0500 (Central Daylight Time),427826.6000000015,A,queenenter,O,enter,801,1,2331.10000000149,425495.5,7110,WL,C,3.0
4,6.4649999141693115,learn,53535.00008583069,Thu Apr 03 2025 16:14:21 GMT-0500 (Central Daylight Time),428060.299999997,A,c,O,c,212,1,233.39999999850988,427826.8999999985,7110,WL,C,4.0
4,6.63100004196167,learn,53368.99995803833,Thu Apr 03 2025 16:14:21 GMT-0500 (Central Daylight Time),428226.19999999553,A,ca,O,a,145,1,399.29999999701977,427826.8999999985,7110,WL,C,4.0
4,6.832000017166138,learn,53167.99998283386,Thu Apr 03 2025 16:14:21 GMT-0500 (Central Daylight Time),428427.19999999553,A,cat,O,t,178,1,600.2999999970198,427826.8999999985,7110,WL,C,4.0
4,6.947999954223633,learn,53052.00004577637,Thu Apr 03 2025 16:14:21 GMT-0500 (Central Daylight Time),428543.5,A,catt,O,t,93,1,716.6000000014901,427826.8999999985,7110,WL,C,4.0
4,7.096999883651733,learn,52903.00011634827,Thu Apr 03 2025 16:14:21 GMT-0500 (Central Daylight Time),428692.19999999553,A,cattl,O,l,139,1,865.2999999970198,427826.8999999985,7110,WL,C,4.0
4,7.161999940872192,learn,52838.00005912781,Thu Apr 03 2025 16:14:21 GMT-0500 (Central Daylight Time),428757.3999999985,A,cattle,O,e,55,1,930.5,427826.8999999985,7110,WL,C,4.0
4,7.36299991607666,learn,52637.00008392334,Thu Apr 03 2025 16:14:21 GMT-0500 (Central Daylight Time),428958.299999997,A,cattleenter,O,enter,184,1,1131.3999999985099,427826.8999999985,7110,WL,C,4.0
4,8.013999938964844,learn,51986.000061035156,Thu Apr 03 2025 16:14:21 GMT-0500 (Central Daylight Time),429609.299999997,A,n,O,n,640,1,650.6000000014901,428958.69999999553,7110,WL,C,5.0
4,8.266000032424927,learn,51733.99996757507,Thu Apr 03 2025 16:14:21 GMT-0500 (Central Daylight Time),429860.799999997,A,na,O,a,240,1,902.1000000014901,428958.69999999553,7110,WL,C,5.0
4,8.44700002670288,learn,51552.99997329712,Thu Apr 03 2025 16:14:21 GMT-0500 (Central Daylight Time),430042.299999997,A,nai,O,i,168,1,1083.6000000014901,428958.69999999553,7110,WL,C,5.0
4,8.513999938964844,learn,51486.000061035156,Thu Apr 03 2025 16:14:21 GMT-0500 (Central Daylight Time),430109.0,A,nail,O,l,51,1,1150.3000000044703,428958.69999999553,7110,WL,C,5.0
4,8.86299991607666,learn,51137.00008392334,Thu Apr 03 2025 16:14:21 GMT-0500 (Central Daylight Time),430458.1000000015,A,nailenter,O,enter,337,1,1499.4000000059605,428958.69999999553,7110,WL,C,5.0
4,10.529000043869019,learn,49470.99995613098,Thu Apr 03 2025 16:14:21 GMT-0500 (Central Daylight Time),432123.8999999985,A,f,O,f,1653,1,1665.6000000014901,430458.299999997,7110,WL,C,6.0
4,10.680000066757202,learn,49319.9999332428,Thu Apr 03 2025 16:14:21 GMT-0500 (Central Daylight Time),432274.6000000015,A,fl,O,l,130,1,1816.3000000044703,430458.299999997,7110,WL,C,6.0
4,10.763000011444092,learn,49236.99998855591,Thu Apr 03 2025 16:14:21 GMT-0500 (Central Daylight Time),432357.69999999553,A,fla,O,a,77,1,1899.3999999985099,430458.299999997,7110,WL,C,6.0
4,10.94700002670288,learn,49052.99997329712,Thu Apr 03 2025 16:14:21 GMT-0500 (Central Daylight Time),432541.8999999985,A,flag,O,g,176,1,2083.60000000149,430458.299999997,7110,WL,C,6.0
4,11.161999940872192,learn,48838.00005912781,Thu Apr 03 2025 16:14:21 GMT-0500 (Central Daylight Time),432757.5,A,flagenter,O,enter,207,1,2299.2000000029802,430458.299999997,7110,WL,C,6.0
4,15.779000043869019,learn,44220.99995613098,Thu Apr 03 2025 16:14:21 GMT-0500 (Central Daylight Time),437373.69999999553,A,enter,O,enter,4600,1,4615.89999999851,432757.799999997,7110,WL,C,7.0
4,15.944999933242798,learn,44055.0000667572,Thu Apr 03 2025 16:14:21 GMT-0500 (Central Daylight Time),437540.19999999553,A,enter,O,enter,161,1,166.19999999552965,437374.0,7110,WL,C,8.0
4,16.09500002861023,learn,43904.99997138977,Thu Apr 03 2025 16:14:21 GMT-0500 (Central Daylight Time),437689.799999997,A,enter,O,enter,138,1,149.29999999701977,437540.5,7110,WL,C,9.0
4,16.361999988555908,learn,43638.00001144409,Thu Apr 03 2025 16:14:21 GMT-0500 (Central Daylight Time),437956.69999999553,A,enter,O,enter,252,1,266.59999999403954,437690.1000000015,7110,WL,C,10.0
4,16.51199984550476,learn,43488.00015449524,Thu Apr 03 2025 16:14:21 GMT-0500 (Central Daylight Time),438106.69999999553,A,enter,O,enter,138,1,149.79999999701977,437956.8999999985,7110,WL,C,11.0
4,16.64400005340576,learn,43355.99994659424,Thu Apr 03 2025 16:14:21 GMT-0500 (Central Daylight Time),438239.3999999985,A,enter,O,enter,116,1,132.39999999850988,438107.0,7110,WL,C,12.0
4,16.76199984550476,learn,43238.00015449524,Thu Apr 03 2025 16:14:21 GMT-0500 (Central Daylight Time),438356.69999999553,A,enter,O,enter,113,1,117.0,438239.69999999553,7110,WL,C,13.0
4,16.89400005340576,learn,43105.99994659424,Thu Apr 03 2025 16:14:21 GMT-0500 (Central Daylight Time),438489.1000000015,A,enter,O,enter,122,1,132.10000000149012,438357.0,7110,WL,C,14.0
4,17.277999877929688,learn,42722.00012207031,Thu Apr 03 2025 16:14:21 GMT-0500 (Central Daylight Time),438873.299999997,A,enter,O,enter,366,1,384.0,438489.299999997,7110,WL,C,15.0
5,0.43400001525878906,learn,60000.0,Thu Apr 03 2025 16:14:21 GMT-0500 (Central Daylight Time),505786.8999999985,A,t,O,t,412,1,433.79999999701977,505353.1000000015,7110,WL,C,1.0
5,0.7669999599456787,learn,60000.0,Thu Apr 03 2025 16:14:21 GMT-0500 (Central Daylight Time),506118.8999999985,A,to,O,o,319,1,765.7999999970198,505353.1000000015,7110,WL,C,1.0
5,0.8829998970031738,learn,60000.0,Thu Apr 03 2025 16:14:21 GMT-0500 (Central Daylight Time),506235.19999999553,A,tow,O,w,100,1,882.0999999940395,505353.1000000015,7110,WL,C,1.0
5,0.9500000476837158,learn,60000.0,Thu Apr 03 2025 16:14:21 GMT-0500 (Central Daylight Time),506302.0,A,towe,O,e,62,1,948.8999999985099,505353.1000000015,7110,WL,C,1.0
5,1.1489999294281006,learn,60000.0,Thu Apr 03 2025 16:14:21 GMT-0500 (Central Daylight Time),506501.6000000015,A,tower,O,r,183,1,1148.5,505353.1000000015,7110,WL,C,1.0
5,1.8489999771118164,learn,60000.0,Thu Apr 03 2025 16:14:21 GMT-0500 (Central Daylight Time),507201.1000000015,A,towerenter,O,enter,679,1,1848.0,505353.1000000015,7110,WL,C,1.0
5,2.1989998817443848,learn,60000.0,Thu Apr 03 2025 16:14:21 GMT-0500 (Central Daylight Time),507551.299999997,A,w,O,w,341,1,349.8999999985099,507201.3999999985,7110,WL,C,2.0
5,2.4149999618530273,learn,60000.0,Thu Apr 03 2025 16:14:21 GMT-0500 (Central Daylight Time),507767.6000000015,A,wh,O,h,208,1,566.2000000029802,507201.3999999985,7110,WL,C,2.0
5,2.5820000171661377,learn,60000.0,Thu Apr 03 2025 16:14:21 GMT-0500 (Central Daylight Time),507934.5,A,whe,O,e,148,1,733.1000000014901,507201.3999999985,7110,WL,C,2.0
5,2.8499999046325684,learn,60000.0,Thu Apr 03 2025 16:14:21 GMT-0500 (Central Daylight Time),508202.19999999553,A,whea,O,a,255,1,1000.7999999970198,507201.3999999985,7110,WL,C,2.0
5,2.9649999141693115,learn,60000.0,Thu Apr 03 2025 16:14:21 GMT-0500 (Central Daylight Time),508317.1000000015,A,wheat,O,t,99,1,1115.7000000029802,507201.3999999985,7110,WL,C,2.0
5,3.197999954223633,learn,60000.0,Thu Apr 03 2025 16:14:21 GMT-0500 (Central Daylight Time),508549.8999999985,A,wheatenter,O,enter,224,1,1348.5,507201.3999999985,7110,WL,C,2.0
5,3.6480000019073486,learn,60000.0,Thu Apr 03 2025 16:14:21 GMT-0500 (Central Daylight Time),509000.3999999985,A,q,O,q,440,1,450.1000000014901,508550.299999997,7110,WL,C,3.0
5,3.933000087738037,learn,60000.0,Thu Apr 03 2025 16:14:21 GMT-0500 (Central Daylight Time),509285.0,A,qu,O,u,276,1,734.7000000029802,508550.299999997,7110,WL,C,3.0
5,4.197999954223633,learn,60000.0,Thu Apr 03 2025 16:14:21 GMT-0500 (Central Daylight Time),509550.0,A,que,O,e,258,1,999.7000000029802,508550.299999997,7110,WL,C,3.0
5,4.315999984741211,learn,60000.0,Thu Apr 03 2025 16:14:21 GMT-0500 (Central Daylight Time),509668.6000000015,A,quee,O,e,112,1,1118.3000000044703,508550.299999997,7110,WL,C,3.0
5,4.615000009536743,learn,60000.0,Thu Apr 03 2025 16:14:21 GMT-0500 (Central Daylight Time),509967.0,A,queen,O,n,292,1,1416.7000000029802,508550.299999997,7110,WL,C,3.0
5,5.096999883651733,learn,60000.0,Thu Apr 03 2025 16:14:21 GMT-0500 (Central Daylight Time),510449.799999997,A,queenenter,O,enter,463,1,1899.5,508550.299999997,7110,WL,C,3.0
5,5.497999906539917,learn,60000.0,Thu Apr 03 2025 16:14:21 GMT-0500 (Central Daylight Time),510850.19999999553,A,s,O,s,380,1,400.19999999552965,510450.0,7110,WL,C,4.0
5,5.71399998664856,learn,60000.0,Thu Apr 03 2025 16:14:21 GMT-0500 (Central Daylight Time),511066.3999999985,A,su,O,u,202,1,616.3999999985099,510450.0,7110,WL,C,4.0
5,5.848999977111816,learn,60000.0,Thu Apr 03 2025 16:14:21 GMT-0500 (Central Daylight Time),511201.69999999553,A,sug,O,g,117,1,751.6999999955297,510450.0,7110,WL,C,4.0
5,6.016000032424927,learn,60000.0,Thu Apr 03 2025 16:14:21 GMT-0500 (Central Daylight Time),511367.8999999985,A,suga,O,a,157,1,917.8999999985099,510450.0,7110,WL,C,4.0
5,6.115999937057495,learn,60000.0,Thu Apr 03 2025 16:14:21 GMT-0500 (Central Daylight Time),511468.1000000015,A,sugar,O,r,86,1,1018.1000000014901,510450.0,7110,WL,C,4.0
5,6.898000001907349,learn,60000.0,Thu Apr 03 2025 16:14:21 GMT-0500 (Central Daylight Time),512250.0,A,sugarenter,O,enter,769,1,1800.0,510450.0,7110,WL,C,4.0
5,7.263000011444092,learn,60000.0,Thu Apr 03 2025 16:14:21 GMT-0500 (Central Daylight Time),512615.6000000015,A,h,O,h,357,1,365.20000000298023,512250.3999999985,7110,WL,C,5.0
5,7.447000026702881,learn,60000.0,Thu Apr 03 2025 16:14:21 GMT-0500 (Central Daylight Time),512799.6000000015,A,ho,O,o,174,1,549.2000000029802,512250.3999999985,7110,WL,C,5.0
5,7.513999938964844,learn,60000.0,Thu Apr 03 2025 16:14:21 GMT-0500 (Central Daylight Time),512866.3999999985,A,hom,O,m,46,1,616.0,512250.3999999985,7110,WL,C,5.0
5,7.578999996185303,learn,60000.0,Thu Apr 03 2025 16:14:21 GMT-0500 (Central Daylight Time),512931.299999997,A,home,O,e,50,1,680.8999999985099,512250.3999999985,7110,WL,C,5.0
5,7.864000082015991,learn,60000.0,Thu Apr 03 2025 16:14:21 GMT-0500 (Central Daylight Time),513216.3999999985,A,homeenter,O,enter,267,1,966.0,512250.3999999985,7110,WL,C,5.0
5,8.497999906539917,learn,60000.0,Thu Apr 03 2025 16:14:21 GMT-0500 (Central Daylight Time),513850.3999999985,A,n,O,n,623,1,633.6000000014901,513216.799999997,7110,WL,C,6.0
5,8.79699993133545,learn,60000.0,Thu Apr 03 2025 16:14:21 GMT-0500 (Central Daylight Time),514149.5,A,na,O,a,278,1,932.7000000029802,513216.799999997,7110,WL,C,6.0
5,8.946000099182129,learn,60000.0,Thu Apr 03 2025 16:14:21 GMT-0500 (Central Daylight Time),514298.3999999985,A,nai,O,i,138,1,1081.6000000014901,513216.799999997,7110,WL,C,6.0
5,8.996000051498413,learn,60000.0,Thu Apr 03 2025 16:14:21 GMT-0500 (Central Daylight Time),514348.19999999553,A,nail,O,l,43,1,1131.3999999985099,513216.799999997,7110,WL,C,6.0
5,9.379999876022339,learn,60000.0,Thu Apr 03 2025 16:14:21 GMT-0500 (Central Daylight Time),514732.5,A,nailenter,O,enter,376,1,1515.7000000029802,513216.799999997,7110,WL,C,6.0
5,9.730000019073486,learn,60000.0,Thu Apr 03 2025 16:14:21 GMT-0500 (Central Daylight Time),515082.6000000015,A,b,O,b,328,1,349.6000000014901,514733.0,7110,WL,C,7.0
5,9.897000074386597,learn,60000.0,Thu Apr 03 2025 16:14:21 GMT-0500 (Central Daylight Time),515249.1000000015,A,bo,O,o,147,1,516.1000000014901,514733.0,7110,WL,C,7.0
5,10.045000076293945,learn,60000.0,Thu Apr 03 2025 16:14:21 GMT-0500 (Central Daylight Time),515397.69999999553,A,bod,O,d,126,1,664.6999999955297,514733.0,7110,WL,C,7.0
5,10.161999940872192,learn,60000.0,Thu Apr 03 2025 16:14:21 GMT-0500 (Central Daylight Time),515514.5,A,body,O,y,102,1,781.5,514733.0,7110,WL,C,7.0
5,10.82800006866455,learn,60000.0,Thu Apr 03 2025 16:14:21 GMT-0500 (Central Daylight Time),516180.299999997,A,bodyenter,O,enter,651,1,1447.2999999970198,514733.0,7110,WL,C,7.0
5,11.546000003814697,learn,60000.0,Thu Apr 03 2025 16:14:21 GMT-0500 (Central Daylight Time),516898.6000000015,A,s,O,s,698,1,718.0,516180.6000000015,7110,WL,C,8.0
5,11.696000099182129,learn,60000.0,Thu Apr 03 2025 16:14:21 GMT-0500 (Central Daylight Time),517047.8999999985,A,sh,O,h,131,1,867.2999999970198,516180.6000000015,7110,WL,C,8.0
5,11.861999988555908,learn,60000.0,Thu Apr 03 2025 16:14:21 GMT-0500 (Central Daylight Time),517213.8999999985,A,sho,O,o,148,1,1033.2999999970198,516180.6000000015,7110,WL,C,8.0
5,11.994999885559082,learn,60000.0,Thu Apr 03 2025 16:14:21 GMT-0500 (Central Daylight Time),517347.6000000015,A,shor,O,r,124,1,1167.0,516180.6000000015,7110,WL,C,8.0
5,12.046000003814697,learn,60000.0,Thu Apr 03 2025 16:14:21 GMT-0500 (Central Daylight Time),517397.69999999553,A,shore,O,e,43,1,1217.0999999940395,516180.6000000015,7110,WL,C,8.0
5,12.26200008392334,learn,60000.0,Thu Apr 03 2025 16:14:21 GMT-0500 (Central Daylight Time),517614.1000000015,A,shoreenter,O,enter,199,1,1433.5,516180.6000000015,7110,WL,C,8.0
5,12.944999933242798,learn,60000.0,Thu Apr 03 2025 16:14:21 GMT-0500 (Central Daylight Time),518296.799999997,A,enter,O,enter,673,1,682.6000000014901,517614.19999999553,7110,WL,C,9.0
5,13.07800006866455,learn,60000.0,Thu Apr 03 2025 16:14:21 GMT-0500 (Central Daylight Time),518429.8999999985,A,enter,O,enter,125,1,132.79999999701977,518297.1000000015,7110,WL,C,10.0
5,13.213000059127808,learn,60000.0,Thu Apr 03 2025 16:14:21 GMT-0500 (Central Daylight Time),518565.0,A,enter,O,enter,130,1,134.89999999850988,518430.1000000015,7110,WL,C,11.0
5,13.361999988555908,learn,60000.0,Thu Apr 03 2025 16:14:21 GMT-0500 (Central Daylight Time),518714.19999999553,A,enter,O,enter,137,1,148.89999999850988,518565.299999997,7110,WL,C,12.0
5,13.494999885559082,learn,60000.0,Thu Apr 03 2025 16:14:21 GMT-0500 (Central Daylight Time),518847.5,A,enter,O,enter,121,1,133.10000000149012,518714.3999999985,7110,WL,C,13.0
5,13.64299988746643,learn,60000.0,Thu Apr 03 2025 16:14:21 GMT-0500 (Central Daylight Time),518995.1000000015,A,enter,O,enter,134,1,147.30000000447035,518847.799999997,7110,WL,C,14.0
5,14.027999877929688,learn,60000.0,Thu Apr 03 2025 16:14:21 GMT-0500 (Central Daylight Time),519380.299999997,A,enter,O,enter,366,1,385.0,518995.299999997,7110,WL,C,15.0
6,0.5,distr,59500.0,Thu Apr 03 2025 16:14:21 GMT-0500 (Central Daylight Time),586193.3999999985,B,s,O,s,481,1,500.0,585693.3999999985,7110,WL,C,1.0
6,0.6989998817443848,distr,59301.000118255615,Thu Apr 03 2025 16:14:21 GMT-0500 (Central Daylight Time),586392.1999999955,B,sk,O,k,189,1,698.7999999970198,585693.3999999985,7110,WL,C,1.0
6,0.8819999694824219,distr,59118.00003051758,Thu Apr 03 2025 16:14:21 GMT-0500 (Central Daylight Time),586575.0,B,sky,O,y,163,1,881.6000000014901,585693.3999999985,7110,WL,C,1.0
6,1.2319998741149902,distr,58768.00012588501,Thu Apr 03 2025 16:14:21 GMT-0500 (Central Daylight Time),586925.1999999955,B,skyenter,O,enter,334,1,1231.7999999970198,585693.3999999985,7110,WL,C,1.0
6,1.5319998264312744,distr,58468.000173568726,Thu Apr 03 2025 16:14:21 GMT-0500 (Central Daylight Time),587225.6000000015,B,b,O,b,290,1,300.30000000447035,586925.299999997,7110,WL,C,2.0
6,1.6989998817443848,distr,58301.000118255615,Thu Apr 03 2025 16:14:21 GMT-0500 (Central Daylight Time),587392.3999999985,B,bu,O,u,148,1,467.1000000014901,586925.299999997,7110,WL,C,2.0
6,1.8650000095367432,distr,58134.99999046326,Thu Apr 03 2025 16:14:21 GMT-0500 (Central Daylight Time),587557.8999999985,B,but,O,t,151,1,632.6000000014901,586925.299999997,7110,WL,C,2.0
6,2.0,distr,58000.0,Thu Apr 03 2025 16:14:21 GMT-0500 (Central Daylight Time),587693.299999997,B,butt,O,t,121,1,768.0,586925.299999997,7110,WL,C,2.0
6,2.2819998264312744,distr,57718.000173568726,Thu Apr 03 2025 16:14:21 GMT-0500 (Central Daylight Time),587975.799999997,B,butte,O,e,265,1,1050.5,586925.299999997,7110,WL,C,2.0
6,2.381999969482422,distr,57618.00003051758,Thu Apr 03 2025 16:14:21 GMT-0500 (Central Daylight Time),588075.1999999955,B,butter,O,r,84,1,1149.8999999985099,586925.299999997,7110,WL,C,2.0
6,2.5139999389648438,distr,57486.000061035156,Thu Apr 03 2025 16:14:21 GMT-0500 (Central Daylight Time),588207.8999999985,B,butterenter,O,enter,124,1,1282.6000000014901,586925.299999997,7110,WL,C,2.0
6,3.5789999961853027,distr,56421.0000038147,Thu Apr 03 2025 16:14:21 GMT-0500 (Central Daylight Time),589272.8999999985,B,v,O,v,1054,1,1064.7000000029802,588208.1999999955,7110,WL,C,3.0
6,3.732999801635742,distr,56267.00019836426,Thu Apr 03 2025 16:14:21 GMT-0500 (Central Daylight Time),589426.1000000015,B,va,O,a,143,1,1217.9000000059605,588208.1999999955,7110,WL,C,3.0
6,3.9010000228881836,distr,56098.99997711182,Thu Apr 03 2025 16:14:21 GMT-0500 (Central Daylight Time),589594.799999997,B,val,O,l,156,1,1386.6000000014901,588208.1999999955,7110,WL,C,3.0
6,4.013999938964844,distr,55986.000061035156,Thu Apr 03 2025 16:14:21 GMT-0500 (Central Daylight Time),589707.6999999955,B,vall,O,l,100,1,1499.5,588208.1999999955,7110,WL,C,3.0
6,4.062999963760376,distr,55937.000036239624,Thu Apr 03 2025 16:14:21 GMT-0500 (Central Daylight Time),589756.6999999955,B,valle,O,e,42,1,1548.5,588208.1999999955,7110,WL,C,3.0
6,4.247999906539917,distr,55752.00009346008,Thu Apr 03 2025 16:14:21 GMT-0500 (Central Daylight Time),589941.6000000015,B,valley,O,y,180,1,1733.4000000059605,588208.1999999955,7110,WL,C,3.0
6,4.412999868392944,distr,55587.000131607056,Thu Apr 03 2025 16:14:21 GMT-0500 (Central Daylight Time),590106.8999999985,B,valleyenter,O,enter,150,1,1898.7000000029802,588208.1999999955,7110,WL,C,3.0
6,4.597999811172485,distr,55402.000188827515,Thu Apr 03 2025 16:14:21 GMT-0500 (Central Daylight Time),590291.6999999955,B,d,O,d,163,1,184.5,590107.1999999955,7110,WL,C,4.0
6,4.747999906539917,distr,55252.00009346008,Thu Apr 03 2025 16:14:21 GMT-0500 (Central Daylight Time),590441.299999997,B,do,O,o,128,1,334.1000000014901,590107.1999999955,7110,WL,C,4.0
6,4.898000001907349,distr,55101.99999809265,Thu Apr 03 2025 16:14:21 GMT-0500 (Central Daylight Time),590591.6000000015,B,dol,O,l,132,1,484.40000000596046,590107.1999999955,7110,WL,C,4.0
6,4.995999813079834,distr,55004.000186920166,Thu Apr 03 2025 16:14:21 GMT-0500 (Central Daylight Time),590689.1000000015,B,doll,O,l,86,1,581.9000000059605,590107.1999999955,7110,WL,C,4.0
6,5.097999811172485,distr,54902.000188827515,Thu Apr 03 2025 16:14:21 GMT-0500 (Central Daylight Time),590791.299999997,B,dolla,O,a,80,1,684.1000000014901,590107.1999999955,7110,WL,C,4.0
6,5.180999994277954,distr,54819.000005722046,Thu Apr 03 2025 16:14:21 GMT-0500 (Central Daylight Time),590874.799999997,B,dollar,O,r,68,1,767.6000000014901,590107.1999999955,7110,WL,C,4.0
6,5.996999979019165,distr,54003.000020980835,Thu Apr 03 2025 16:14:21 GMT-0500 (Central Daylight Time),591690.299999997,B,dollarh,O,h,794,1,1583.1000000014901,590107.1999999955,7110,WL,C,4.0
6,6.162999868392944,distr,53837.000131607056,Thu Apr 03 2025 16:14:21 GMT-0500 (Central Daylight Time),591857.0,B,dollarha,O,a,146,1,1749.8000000044703,590107.1999999955,7110,WL,C,4.0
6,6.263999938964844,distr,53736.000061035156,Thu Apr 03 2025 16:14:21 GMT-0500 (Central Daylight Time),591957.5,B,dollarhal,O,l,93,1,1850.3000000044703,590107.1999999955,7110,WL,C,4.0
6,6.379999876022339,distr,53620.00012397766,Thu Apr 03 2025 16:14:21 GMT-0500 (Central Daylight Time),592073.799999997,B,dollarhall,O,l,100,1,1966.6000000014901,590107.1999999955,7110,WL,C,4.0
6,6.5299999713897705,distr,53470.00002861023,Thu Apr 03 2025 16:14:21 GMT-0500 (Central Daylight Time),592223.5,B,dollarhallenter,O,enter,136,1,2116.3000000044703,590107.1999999955,7110,WL,C,4.0
6,8.230000019073486,distr,51769.999980926514,Thu Apr 03 2025 16:14:21 GMT-0500 (Central Daylight Time),593923.6999999955,B,d,O,d,1688,1,1700.0,592223.6999999955,7110,WL,C,5.0
6,8.363999843597412,distr,51636.00015640259,Thu Apr 03 2025 16:14:21 GMT-0500 (Central Daylight Time),594057.799999997,B,di,O,i,122,1,1834.1000000014901,592223.6999999955,7110,WL,C,5.0
6,8.478999853134155,distr,51521.000146865845,Thu Apr 03 2025 16:14:21 GMT-0500 (Central Daylight Time),594172.5,B,dia,O,a,99,1,1948.8000000044703,592223.6999999955,7110,WL,C,5.0
6,8.61299991607666,distr,51387.00008392334,Thu Apr 03 2025 16:14:21 GMT-0500 (Central Daylight Time),594307.0,B,dian,O,n,113,1,2083.3000000044703,592223.6999999955,7110,WL,C,5.0
6,8.913999795913696,distr,51086.000204086304,Thu Apr 03 2025 16:14:21 GMT-0500 (Central Daylight Time),594607.1000000015,B,diani,O,i,282,1,2383.4000000059605,592223.6999999955,7110,WL,C,5.0
6,8.978999853134155,distr,51021.000146865845,Thu Apr 03 2025 16:14:21 GMT-0500 (Central Daylight Time),594672.5,B,dianib,O,b,44,1,2448.8000000044703,592223.6999999955,7110,WL,C,5.0
6,9.04699993133545,distr,50953.00006866455,Thu Apr 03 2025 16:14:21 GMT-0500 (Central Daylight Time),594740.1000000015,B,dianibd,O,d,63,1,2516.4000000059605,592223.6999999955,7110,WL,C,5.0
6,10.128999948501587,distr,49871.00005149841,Thu Apr 03 2025 16:14:21 GMT-0500 (Central Daylight Time),595822.3999999985,B,dianib,O,backspace,1061,1,3598.7000000029802,592223.6999999955,7110,WL,C,5.0
6,10.246999979019165,distr,49753.000020980835,Thu Apr 03 2025 16:14:21 GMT-0500 (Central Daylight Time),595940.1000000015,B,diani,O,backspace,102,1,3716.4000000059605,592223.6999999955,7110,WL,C,5.0
6,10.378999948501587,distr,49621.00005149841,Thu Apr 03 2025 16:14:21 GMT-0500 (Central Daylight Time),596072.6000000015,B,dian,O,backspace,112,1,3848.9000000059605,592223.6999999955,7110,WL,C,5.0
6,10.513000011444092,distr,49486.99998855591,Thu Apr 03 2025 16:14:21 GMT-0500 (Central Daylight Time),596206.1000000015,B,dia,O,backspace,116,1,3982.4000000059605,592223.6999999955,7110,WL,C,5.0
6,11.327999830245972,distr,48672.00016975403,Thu Apr 03 2025 16:14:21 GMT-0500 (Central Daylight Time),597021.6999999955,B,dian,O,n,808,1,4798.0,592223.6999999955,7110,WL,C,5.0
6,11.728999853134155,distr,48271.000146865845,Thu Apr 03 2025 16:14:21 GMT-0500 (Central Daylight Time),597422.6000000015,B,diano,O,o,394,1,5198.9000000059605,592223.6999999955,7110,WL,C,5.0
6,11.759999990463257,distr,48240.00000953674,Thu Apr 03 2025 16:14:21 GMT-0500 (Central Daylight Time),597453.6000000015,B,dianob,O,b,23,1,5229.9000000059605,592223.6999999955,7110,WL,C,5.0
6,12.611999988555908,distr,47388.00001144409,Thu Apr 03 2025 16:14:21 GMT-0500 (Central Daylight Time),598305.5,B,diano,O,backspace,834,1,6081.80000000447,592223.6999999955,7110,WL,C,5.0
6,12.730000019073486,distr,47269.999980926514,Thu Apr 03 2025 16:14:21 GMT-0500 (Central Daylight Time),598423.5,B,dian,O,backspace,110,1,6199.80000000447,592223.6999999955,7110,WL,C,5.0
6,13.361999988555908,distr,46638.00001144409,Thu Apr 03 2025 16:14:21 GMT-0500 (Central Daylight Time),599055.5,B,dia,O,backspace,622,1,6831.80000000447,592223.6999999955,7110,WL,C,5.0
6,14.027999877929688,distr,45972.00012207031,Thu Apr 03 2025 16:14:21 GMT-0500 (Central Daylight Time),599722.1000000015,B,dian,O,n,646,1,7498.4000000059605,592223.6999999955,7110,WL,C,5.0
6,14.294999837875366,distr,45705.000162124634,Thu Apr 03 2025 16:14:21 GMT-0500 (Central Daylight Time),599988.5,B,diano,O,o,250,1,7764.80000000447,592223.6999999955,7110,WL,C,5.0
6,14.52899980545044,distr,45471.00019454956,Thu Apr 03 2025 16:14:21 GMT-0500 (Central Daylight Time),600222.1999999955,B,dianob,O,b,219,1,7998.5,592223.6999999955,7110,WL,C,5.0
6,14.643999814987183,distr,45356.00018501282,Thu Apr 03 2025 16:14:21 GMT-0500 (Central Daylight Time),600337.299999997,B,dianobd,O,d,94,1,8113.60000000149,592223.6999999955,7110,WL,C,5.0
6,14.878000020980835,distr,45121.999979019165,Thu Apr 03 2025 16:14:21 GMT-0500 (Central Daylight Time),600571.799999997,B,dianobdenter,O,enter,210,1,8348.10000000149,592223.6999999955,7110,WL,C,5.0
6,15.40999984741211,distr,44590.00015258789,Thu Apr 03 2025 16:14:21 GMT-0500 (Central Daylight Time),601103.8999999985,B,enter,O,enter,522,1,531.7999999970198,600572.1000000015,7110,WL,C,6.0
6,15.593999862670898,distr,44406.0001373291,Thu Apr 03 2025 16:14:21 GMT-0500 (Central Daylight Time),601287.1999999955,B,enter,O,enter,167,1,183.0,601104.1999999955,7110,WL,C,7.0
6,15.742999792098999,distr,44257.000207901,Thu Apr 03 2025 16:14:21 GMT-0500 (Central Daylight Time),601437.0,B,enter,O,enter,144,1,149.5,601287.5,7110,WL,C,8.0
6,15.91100001335144,distr,44088.99998664856,Thu Apr 03 2025 16:14:21 GMT-0500 (Central Daylight Time),601604.799999997,B,enter,O,enter,154,1,167.5,601437.299999997,7110,WL,C,9.0
6,16.07699990272522,distr,43923.00009727478,Thu Apr 03 2025 16:14:21 GMT-0500 (Central Daylight Time),601770.3999999985,B,enter,O,enter,145,1,165.20000000298023,601605.1999999955,7110,WL,C,10.0
6,16.24399995803833,distr,43756.00004196167,Thu Apr 03 2025 16:14:21 GMT-0500 (Central Daylight Time),601937.5,B,enter,O,enter,149,1,166.80000000447035,601770.6999999955,7110,WL,C,11.0
6,16.39299988746643,distr,43607.00011253357,Thu Apr 03 2025 16:14:21 GMT-0500 (Central Daylight Time),602087.0,B,enter,O,enter,132,1,149.20000000298023,601937.799999997,7110,WL,C,12.0
6,16.57699990272522,distr,43423.00009727478,Thu Apr 03 2025 16:14:21 GMT-0500 (Central Daylight Time),602270.8999999985,B,enter,O,enter,177,1,183.60000000149012,602087.299999997,7110,WL,C,13.0
6,16.91100001335144,distr,43088.99998664856,Thu Apr 03 2025 16:14:21 GMT-0500 (Central Daylight Time),602604.6000000015,B,enter,O,enter,328,1,333.40000000596046,602271.1999999955,7110,WL,C,14.0
6,17.276000022888184,distr,42723.99997711182,Thu Apr 03 2025 16:14:21 GMT-0500 (Central Daylight Time),602969.8999999985,B,enter,O,enter,346,1,365.0,602604.8999999985,7110,WL,C,15.0
7,1.000999927520752,immed,58999.00007247925,Thu Apr 03 2025 16:14:21 GMT-0500 (Central Daylight Time),609735.299999997,A,w,O,w,982,1,1000.1999999955297,608735.1000000015,7110,WL,C,1.0
7,1.3350000381469727,immed,58664.99996185303,Thu Apr 03 2025 16:14:21 GMT-0500 (Central Daylight Time),610069.3999999985,A,we,O,e,309,1,1334.2999999970198,608735.1000000015,7110,WL,C,1.0
7,1.5829999446868896,immed,58417.00005531311,Thu Apr 03 2025 16:14:21 GMT-0500 (Central Daylight Time),610317.5,A,wea,O,a,232,1,1582.3999999985099,608735.1000000015,7110,WL,C,1.0
7,1.8499999046325684,immed,58150.00009536743,Thu Apr 03 2025 16:14:21 GMT-0500 (Central Daylight Time),610584.5,A,weat,O,t,256,1,1849.3999999985099,608735.1000000015,7110,WL,C,1.0
7,2.249000072479248,immed,57750.99992752075,Thu Apr 03 2025 16:14:21 GMT-0500 (Central Daylight Time),610983.8999999985,A,weatenter,O,enter,389,1,2248.7999999970198,608735.1000000015,7110,WL,C,1.0
7,2.5180001258850098,immed,57481.99987411499,Thu Apr 03 2025 16:14:21 GMT-0500 (Central Daylight Time),611252.1000000015,A,enter,O,enter,255,1,268.0,610984.1000000015,7110,WL,C,2.0
7,4.164000034332275,immed,55835.999965667725,Thu Apr 03 2025 16:14:21 GMT-0500 (Central Daylight Time),612899.0,A,v,O,v,1642,1,1646.6000000014901,611252.3999999985,7110,WL,C,3.0
7,4.36899995803833,immed,55631.00004196167,Thu Apr 03 2025 16:14:21 GMT-0500 (Central Daylight Time),613103.799999997,A,va,O,a,186,1,1851.3999999985099,611252.3999999985,7110,WL,C,3.0
7,4.683000087738037,immed,55316.99991226196,Thu Apr 03 2025 16:14:21 GMT-0500 (Central Daylight Time),613417.1999999955,A,val,O,l,304,1,2164.7999999970198,611252.3999999985,7110,WL,C,3.0
7,4.783999919891357,immed,55216.00008010864,Thu Apr 03 2025 16:14:21 GMT-0500 (Central Daylight Time),613518.3999999985,A,vall,O,l,95,1,2266.0,611252.3999999985,7110,WL,C,3.0
7,4.966000080108643,immed,55033.99991989136,Thu Apr 03 2025 16:14:21 GMT-0500 (Central Daylight Time),613700.799999997,A,valle,O,e,167,1,2448.39999999851,611252.3999999985,7110,WL,C,3.0
7,5.164999961853027,immed,54835.00003814697,Thu Apr 03 2025 16:14:21 GMT-0500 (Central Daylight Time),613900.0,A,valley,O,y,184,1,2647.60000000149,611252.3999999985,7110,WL,C,3.0
7,5.716000080108643,immed,54283.99991989136,Thu Apr 03 2025 16:14:21 GMT-0500 (Central Daylight Time),614450.1000000015,A,valleyenter,O,enter,529,1,3197.7000000029802,611252.3999999985,7110,WL,C,3.0
7,7.865999937057495,immed,52134.000062942505,Thu Apr 03 2025 16:14:21 GMT-0500 (Central Daylight Time),616600.299999997,A,f,O,f,2133,1,2149.89999999851,614450.3999999985,7110,WL,C,4.0
7,8.049000024795532,immed,51950.99997520447,Thu Apr 03 2025 16:14:21 GMT-0500 (Central Daylight Time),616783.799999997,A,fk,O,k,166,1,2333.39999999851,614450.3999999985,7110,WL,C,4.0
7,8.166000127792358,immed,51833.99987220764,Thu Apr 03 2025 16:14:21 GMT-0500 (Central Daylight Time),616900.299999997,A,fka,O,a,109,1,2449.89999999851,614450.3999999985,7110,WL,C,4.0
7,9.365999937057495,immed,50634.000062942505,Thu Apr 03 2025 16:14:21 GMT-0500 (Central Daylight Time),618100.6999999955,A,fk,O,backspace,1184,1,3650.2999999970198,614450.3999999985,7110,WL,C,4.0
7,9.680999994277954,immed,50319.000005722046,Thu Apr 03 2025 16:14:21 GMT-0500 (Central Daylight Time),618415.799999997,A,f,O,backspace,306,1,3965.39999999851,614450.3999999985,7110,WL,C,4.0
7,10.348000049591064,immed,49651.999950408936,Thu Apr 03 2025 16:14:21 GMT-0500 (Central Daylight Time),619082.1999999955,A,fl,O,l,643,1,4631.79999999702,614450.3999999985,7110,WL,C,4.0
7,10.782000064849854,immed,49217.99993515015,Thu Apr 03 2025 16:14:21 GMT-0500 (Central Daylight Time),619516.6999999955,A,fla,O,a,410,1,5066.29999999702,614450.3999999985,7110,WL,C,4.0
7,11.13100004196167,immed,48868.99995803833,Thu Apr 03 2025 16:14:21 GMT-0500 (Central Daylight Time),619865.5,A,flag,O,g,339,1,5415.10000000149,614450.3999999985,7110,WL,C,4.0
7,11.463000059127808,immed,48536.99994087219,Thu Apr 03 2025 16:14:21 GMT-0500 (Central Daylight Time),620197.299999997,A,flagenter,O,enter,325,1,5746.89999999851,614450.3999999985,7110,WL,C,4.0
7,11.880000114440918,immed,48119.99988555908,Thu Apr 03 2025 16:14:21 GMT-0500 (Central Daylight Time),620614.299999997,A,s,O,s,411,1,416.79999999701977,620197.5,7110,WL,C,5.0
7,12.04699993133545,immed,47953.00006866455,Thu Apr 03 2025 16:14:21 GMT-0500 (Central Daylight Time),620781.799999997,A,sh,O,h,150,1,584.2999999970198,620197.5,7110,WL,C,5.0
7,12.214999914169312,immed,47785.00008583069,Thu Apr 03 2025 16:14:21 GMT-0500 (Central Daylight Time),620949.299999997,A,sho,O,o,149,1,751.7999999970198,620197.5,7110,WL,C,5.0
7,12.398000001907349,immed,47601.99999809265,Thu Apr 03 2025 16:14:21 GMT-0500 (Central Daylight Time),621133.0,A,shor,O,r,168,1,935.5,620197.5,7110,WL,C,5.0
7,12.52999997138977,immed,47470.00002861023,Thu Apr 03 2025 16:14:21 GMT-0500 (Central Daylight Time),621264.1999999955,A,shore,O,e,110,1,1066.6999999955297,620197.5,7110,WL,C,5.0
7,12.831000089645386,immed,47168.999910354614,Thu Apr 03 2025 16:14:21 GMT-0500 (Central Daylight Time),621565.6999999955,A,shoreenter,O,enter,276,1,1368.1999999955297,620197.5,7110,WL,C,5.0
7,17.663000106811523,immed,42336.99989318848,Thu Apr 03 2025 16:14:21 GMT-0500 (Central Daylight Time),626397.299999997,A,b,O,b,4826,1,4831.39999999851,621565.8999999985,7110,WL,C,6.0
7,17.996000051498413,immed,42003.99994850159,Thu Apr 03 2025 16:14:21 GMT-0500 (Central Daylight Time),626730.6000000015,A,bo,O,o,314,1,5164.70000000298,621565.8999999985,7110,WL,C,6.0
7,18.078999996185303,immed,41921.0000038147,Thu Apr 03 2025 16:14:21 GMT-0500 (Central Daylight Time),626813.3999999985,A,boy,O,y,67,1,5247.5,621565.8999999985,7110,WL,C,6.0
7,18.34500002861023,immed,41654.99997138977,Thu Apr 03 2025 16:14:21 GMT-0500 (Central Daylight Time),627080.0,A,boyenter,O,enter,255,1,5514.10000000149,621565.8999999985,7110,WL,C,6.0
7,19.82699990272522,immed,40173.00009727478,Thu Apr 03 2025 16:14:21 GMT-0500 (Central Daylight Time),628561.799999997,A,enter,O,enter,1470,1,1481.6000000014901,627080.1999999955,7110,WL,C,7.0
7,19.99399995803833,immed,40006.00004196167,Thu Apr 03 2025 16:14:21 GMT-0500 (Central Daylight Time),628728.1999999955,A,enter,O,enter,156,1,166.09999999403954,628562.1000000015,7110,WL,C,8.0
7,20.17899990081787,immed,39821.00009918213,Thu Apr 03 2025 16:14:21 GMT-0500 (Central Daylight Time),628913.1000000015,A,enter,O,enter,175,1,184.70000000298023,628728.3999999985,7110,WL,C,9.0
7,20.49500012397766,immed,39504.99987602234,Thu Apr 03 2025 16:14:21 GMT-0500 (Central Daylight Time),629229.6000000015,A,enter,O,enter,295,1,316.20000000298023,628913.3999999985,7110,WL,C,10.0
7,20.66000008583069,immed,39339.99991416931,Thu Apr 03 2025 16:14:21 GMT-0500 (Central Daylight Time),629395.1000000015,A,enter,O,enter,144,1,165.10000000149012,629230.0,7110,WL,C,11.0
7,20.796000003814697,immed,39203.9999961853,Thu Apr 03 2025 16:14:21 GMT-0500 (Central Daylight Time),629530.6999999955,A,enter,O,enter,116,1,135.39999999850988,629395.299999997,7110,WL,C,12.0
7,20.99399995803833,immed,39006.00004196167,Thu Apr 03 2025 16:14:21 GMT-0500 (Central Daylight Time),629728.299999997,A,enter,O,enter,179,1,197.39999999850988,629530.8999999985,7110,WL,C,13.0
7,21.125999927520752,immed,38874.00007247925,Thu Apr 03 2025 16:14:21 GMT-0500 (Central Daylight Time),629860.8999999985,A,enter,O,enter,128,1,132.20000000298023,629728.6999999955,7110,WL,C,14.0
7,21.377000093460083,immed,38622.99990653992,Thu Apr 03 2025 16:14:21 GMT-0500 (Central Daylight Time),630111.6000000015,A,enter,O,enter,241,1,250.5,629861.1000000015,7110,WL,C,15.0
