acc_sum,block,block_c,block_cond,con_img,correct,correct_response,datetime,endtime,face,jitter,line,project,response,response_time,row_sel,session_number,start_end,starttime,subject_id,task,task_vers,trial
1,prac,1,A,haborder.png,1,m,Fri Oct 11 2024 13:38:31 GMT-0500 (Central Daylight Time),52320.39999999851,CFD-BM-034-035-HC.jpg,1700,solid,O,m,1141,1,1,3632.60000000149,48687.79999999702,7024,ATS,C,1
2,prac,1,A,haborder.png,1,z,Fri Oct 11 2024 13:38:31 GMT-0500 (Central Daylight Time),54819.5,CFD-BF-031-020-A.jpg,1000,solid,O,z,706,4,1,6131.70000000298,48687.79999999702,7024,ATS,C,2
3,prac,1,A,haborder.png,1,m,Fri Oct 11 2024 13:38:31 GMT-0500 (Central Daylight Time),58285.09999999404,CFD-BF-019-004-HC.jpg,2000,solid,O,m,679,5,1,9597.29999999702,48687.79999999702,7024,ATS,C,3
4,prac,1,A,haborder.png,1,m,Fri Oct 11 2024 13:38:31 GMT-0500 (Central Daylight Time),61317.39999999851,CFD-WF-013-009-HC.jpg,1500,solid,O,m,737,11,1,12629.60000000149,48687.79999999702,7024,ATS,C,4
5,prac,1,A,haborder.png,1,m,Fri Oct 11 2024 13:38:31 GMT-0500 (Central Daylight Time),64283.09999999404,CFD-WM-028-005-HC.jpg,1400,solid,O,m,776,7,1,15595.29999999702,48687.79999999702,7024,ATS,C,5
6,prac,1,A,haborder.png,1,m,Fri Oct 11 2024 13:38:31 GMT-0500 (Central Daylight Time),67316.69999999553,CFD-BM-022-004-HC.jpg,1500,solid,O,m,763,3,1,18628.89999999851,48687.79999999702,7024,ATS,C,6
7,prac,1,A,haborder.png,1,z,Fri Oct 11 2024 13:38:31 GMT-0500 (Central Daylight Time),69664.89999999851,CFD-WF-023-013-A.jpg,1000,solid,O,z,557,12,1,20977.10000000149,48687.79999999702,7024,ATS,C,7
8,prac,1,A,haborder.png,1,z,Fri Oct 11 2024 13:38:31 GMT-0500 (Central Daylight Time),72247.29999999702,CFD-BF-002-018-A.jpg,1200,solid,O,z,586,6,1,23559.5,48687.79999999702,7024,ATS,C,8
9,prac,1,A,haborder.png,1,z,Fri Oct 11 2024 13:38:31 GMT-0500 (Central Daylight Time),75213.0,CFD-WF-037-016-A.jpg,1600,solid,O,z,578,10,1,26525.20000000298,48687.79999999702,7024,ATS,C,9
10,prac,1,A,haborder.png,1,m,Fri Oct 11 2024 13:38:31 GMT-0500 (Central Daylight Time),78362.19999999553,CFD-WM-035-036-HC.jpg,1700,solid,O,m,657,9,1,29674.39999999851,48687.79999999702,7024,ATS,C,10
11,prac,1,A,haborder.png,1,z,Fri Oct 11 2024 13:38:31 GMT-0500 (Central Daylight Time),81777.69999999553,CFD-WM-036-018-A.jpg,1900,solid,O,z,732,8,1,33089.89999999851,48687.79999999702,7024,ATS,C,11
12,prac,1,A,haborder.png,1,z,Fri Oct 11 2024 13:38:31 GMT-0500 (Central Daylight Time),84876.59999999404,CFD-BM-043-014-A.jpg,1600,solid,O,z,705,2,1,36188.79999999702,48687.79999999702,7024,ATS,C,12
0,prac,1,B,mfborder.png,0,z,Fri Oct 11 2024 13:38:31 GMT-0500 (Central Daylight Time),109518.89999999851,CFD-BF-042-031-HC.jpg,1500,3,O,m,818,dash,1,3115.7000000029802,106403.19999999553,7024,ATS,C,1
1,prac,1,B,mfborder.png,1,m,Fri Oct 11 2024 13:38:31 GMT-0500 (Central Daylight Time),113017.79999999702,CFD-BM-043-014-A.jpg,2000,5,O,m,707,dash,1,6614.60000000149,106403.19999999553,7024,ATS,C,2
2,prac,1,B,mfborder.png,1,z,Fri Oct 11 2024 13:38:31 GMT-0500 (Central Daylight Time),115433.89999999851,CFD-BF-031-020-A.jpg,1000,4,O,z,624,dash,1,9030.70000000298,106403.19999999553,7024,ATS,C,3
3,prac,1,B,mfborder.png,1,m,Fri Oct 11 2024 13:38:31 GMT-0500 (Central Daylight Time),118534.0,CFD-BM-021-026-A.jpg,1600,2,O,m,713,dash,1,12130.80000000447,106403.19999999553,7024,ATS,C,4
4,prac,1,B,mfborder.png,1,m,Fri Oct 11 2024 13:38:31 GMT-0500 (Central Daylight Time),121815.19999999553,CFD-WM-036-018-A.jpg,1700,9,O,m,793,dash,1,15412.0,106403.19999999553,7024,ATS,C,5
5,prac,1,B,mfborder.png,1,z,Fri Oct 11 2024 13:38:31 GMT-0500 (Central Daylight Time),124147.59999999404,CFD-WF-013-009-HC.jpg,1000,12,O,z,547,dash,1,17744.39999999851,106403.19999999553,7024,ATS,C,6
6,prac,1,B,mfborder.png,1,z,Fri Oct 11 2024 13:38:31 GMT-0500 (Central Daylight Time),127096.89999999851,CFD-BF-019-004-HC.jpg,1400,7,O,z,759,dash,1,20693.70000000298,106403.19999999553,7024,ATS,C,7
7,prac,1,B,mfborder.png,1,m,Fri Oct 11 2024 13:38:31 GMT-0500 (Central Daylight Time),129912.79999999702,CFD-WM-034-040-A.jpg,1200,6,O,m,816,dash,1,23509.60000000149,106403.19999999553,7024,ATS,C,8
8,prac,1,B,mfborder.png,1,m,Fri Oct 11 2024 13:38:31 GMT-0500 (Central Daylight Time),133515.79999999702,CFD-WM-035-036-HC.jpg,1600,10,O,m,1225,dash,1,27112.60000000149,106403.19999999553,7024,ATS,C,9
9,prac,1,B,mfborder.png,1,z,Fri Oct 11 2024 13:38:31 GMT-0500 (Central Daylight Time),136843.79999999702,CFD-WF-001-010-HC.jpg,1900,8,O,z,639,dash,1,30440.60000000149,106403.19999999553,7024,ATS,C,10
10,prac,1,B,mfborder.png,1,z,Fri Oct 11 2024 13:38:31 GMT-0500 (Central Daylight Time),139776.09999999404,CFD-WF-037-016-A.jpg,1500,11,O,z,634,dash,1,33372.89999999851,106403.19999999553,7024,ATS,C,11
11,prac,1,B,mfborder.png,1,m,Fri Oct 11 2024 13:38:31 GMT-0500 (Central Daylight Time),142859.69999999553,CFD-BM-022-004-HC.jpg,1700,1,O,m,598,dash,1,36456.5,106403.19999999553,7024,ATS,C,12
1,test,1,A,haborder.png,1,z,Fri Oct 11 2024 13:38:31 GMT-0500 (Central Daylight Time),165834.59999999404,CFD-WF-037-016-A.jpg,1600,solid,O,z,684,10,1,2316.0,163518.59999999404,7024,ATS,C,1
2,test,1,A,haborder.png,1,m,Fri Oct 11 2024 13:38:31 GMT-0500 (Central Daylight Time),168683.5,CFD-BF-019-004-HC.jpg,2000,solid,O,m,823,5,1,5164.9000000059605,163518.59999999404,7024,ATS,C,2
3,test,1,A,haborder.png,1,m,Fri Oct 11 2024 13:38:31 GMT-0500 (Central Daylight Time),171083.09999999404,CFD-BM-034-035-HC.jpg,1700,solid,O,m,683,1,1,7564.5,163518.59999999404,7024,ATS,C,3
4,test,1,A,haborder.png,1,m,Fri Oct 11 2024 13:38:31 GMT-0500 (Central Daylight Time),173082.29999999702,CFD-WM-028-005-HC.jpg,1400,solid,O,m,574,7,1,9563.70000000298,163518.59999999404,7024,ATS,C,4
5,test,1,A,haborder.png,1,z,Fri Oct 11 2024 13:38:31 GMT-0500 (Central Daylight Time),174881.8999999985,CFD-BF-002-018-A.jpg,1200,solid,O,z,567,6,1,11363.30000000447,163518.59999999404,7024,ATS,C,5
6,test,1,A,haborder.png,1,m,Fri Oct 11 2024 13:38:31 GMT-0500 (Central Daylight Time),177182.09999999404,CFD-WM-035-036-HC.jpg,1700,solid,O,m,573,9,1,13663.5,163518.59999999404,7024,ATS,C,6
7,test,1,A,haborder.png,1,z,Fri Oct 11 2024 13:38:31 GMT-0500 (Central Daylight Time),178764.59999999404,CFD-BF-031-020-A.jpg,1000,solid,O,z,563,4,1,15246.0,163518.59999999404,7024,ATS,C,7
8,test,1,A,haborder.png,1,m,Fri Oct 11 2024 13:38:31 GMT-0500 (Central Daylight Time),180730.0,CFD-WM-028-005-HC.jpg,1400,solid,O,m,533,7,1,17211.40000000596,163518.59999999404,7024,ATS,C,8
9,test,1,A,haborder.png,1,z,Fri Oct 11 2024 13:38:31 GMT-0500 (Central Daylight Time),182412.59999999404,CFD-WF-023-013-A.jpg,1000,solid,O,z,664,12,1,18894.0,163518.59999999404,7024,ATS,C,9
10,test,1,A,haborder.png,1,z,Fri Oct 11 2024 13:38:31 GMT-0500 (Central Daylight Time),184179.69999999553,CFD-BF-002-018-A.jpg,1200,solid,O,z,533,6,1,20661.10000000149,163518.59999999404,7024,ATS,C,10
11,test,1,A,haborder.png,1,m,Fri Oct 11 2024 13:38:31 GMT-0500 (Central Daylight Time),186344.69999999553,CFD-WM-035-036-HC.jpg,1700,solid,O,m,444,9,1,22826.10000000149,163518.59999999404,7024,ATS,C,11
12,test,1,A,haborder.png,1,m,Fri Oct 11 2024 13:38:31 GMT-0500 (Central Daylight Time),188510.8999999985,CFD-BM-022-004-HC.jpg,1500,solid,O,m,636,3,1,24992.30000000447,163518.59999999404,7024,ATS,C,12
13,test,1,A,haborder.png,1,z,Fri Oct 11 2024 13:38:31 GMT-0500 (Central Daylight Time),190960.09999999404,CFD-BM-043-014-A.jpg,1600,solid,O,z,827,2,1,27441.5,163518.59999999404,7024,ATS,C,13
14,test,1,A,haborder.png,1,m,Fri Oct 11 2024 13:38:31 GMT-0500 (Central Daylight Time),193492.5,CFD-BF-019-004-HC.jpg,2000,solid,O,m,514,5,1,29973.90000000596,163518.59999999404,7024,ATS,C,14
15,test,1,A,haborder.png,1,z,Fri Oct 11 2024 13:38:31 GMT-0500 (Central Daylight Time),196175.09999999404,CFD-WM-036-018-A.jpg,1900,solid,O,z,753,8,1,32656.5,163518.59999999404,7024,ATS,C,15
16,test,1,A,haborder.png,1,z,Fri Oct 11 2024 13:38:31 GMT-0500 (Central Daylight Time),197807.8999999985,CFD-BF-031-020-A.jpg,1000,solid,O,z,610,4,1,34289.30000000447,163518.59999999404,7024,ATS,C,16
17,test,1,A,haborder.png,1,m,Fri Oct 11 2024 13:38:31 GMT-0500 (Central Daylight Time),200123.5,CFD-BM-034-035-HC.jpg,1700,solid,O,m,598,1,1,36604.90000000596,163518.59999999404,7024,ATS,C,17
18,test,1,A,haborder.png,1,z,Fri Oct 11 2024 13:38:31 GMT-0500 (Central Daylight Time),203156.19999999553,CFD-BM-043-014-A.jpg,1600,solid,O,z,1415,2,1,39637.60000000149,163518.59999999404,7024,ATS,C,18
19,test,1,A,haborder.png,1,m,Fri Oct 11 2024 13:38:31 GMT-0500 (Central Daylight Time),205405.3999999985,CFD-WF-013-009-HC.jpg,1500,solid,O,m,722,11,1,41886.80000000447,163518.59999999404,7024,ATS,C,19
20,test,1,A,haborder.png,1,z,Fri Oct 11 2024 13:38:31 GMT-0500 (Central Daylight Time),207771.3999999985,CFD-WF-037-016-A.jpg,1600,solid,O,z,741,10,1,44252.80000000447,163518.59999999404,7024,ATS,C,20
21,test,1,A,haborder.png,1,m,Fri Oct 11 2024 13:38:31 GMT-0500 (Central Daylight Time),210037.3999999985,CFD-BM-022-004-HC.jpg,1500,solid,O,m,739,3,1,46518.80000000447,163518.59999999404,7024,ATS,C,21
22,test,1,A,haborder.png,1,z,Fri Oct 11 2024 13:38:31 GMT-0500 (Central Daylight Time),211820.29999999702,CFD-WF-023-013-A.jpg,1000,solid,O,z,756,12,1,48301.70000000298,163518.59999999404,7024,ATS,C,22
23,test,1,A,haborder.png,1,z,Fri Oct 11 2024 13:38:31 GMT-0500 (Central Daylight Time),214802.5,CFD-WM-036-018-A.jpg,1900,solid,O,z,1051,8,1,51283.90000000596,163518.59999999404,7024,ATS,C,23
24,test,1,A,haborder.png,1,m,Fri Oct 11 2024 13:38:31 GMT-0500 (Central Daylight Time),217018.69999999553,CFD-WF-013-009-HC.jpg,1500,solid,O,m,699,11,1,53500.10000000149,163518.59999999404,7024,ATS,C,24
1,test,1,B,mfborder.png,1,z,Fri Oct 11 2024 13:38:31 GMT-0500 (Central Daylight Time),228731.19999999553,CFD-BF-019-004-HC.jpg,1400,dash,O,z,966,7,1,2382.0,226349.19999999553,7024,ATS,C,1
2,test,1,B,mfborder.png,1,z,Fri Oct 11 2024 13:38:31 GMT-0500 (Central Daylight Time),230780.69999999553,CFD-WF-037-016-A.jpg,1500,dash,O,z,530,11,1,4431.5,226349.19999999553,7024,ATS,C,2
3,test,1,B,mfborder.png,1,z,Fri Oct 11 2024 13:38:31 GMT-0500 (Central Daylight Time),232347.29999999702,CFD-BF-031-020-A.jpg,1000,dash,O,z,541,4,1,5998.10000000149,226349.19999999553,7024,ATS,C,3
4,test,1,B,mfborder.png,1,m,Fri Oct 11 2024 13:38:31 GMT-0500 (Central Daylight Time),234596.3999999985,CFD-BM-021-026-A.jpg,1600,dash,O,m,631,2,1,8247.20000000298,226349.19999999553,7024,ATS,C,4
5,test,1,B,mfborder.png,1,m,Fri Oct 11 2024 13:38:31 GMT-0500 (Central Daylight Time),236812.3999999985,CFD-BM-021-026-A.jpg,1600,dash,O,m,590,2,1,10463.20000000298,226349.19999999553,7024,ATS,C,5
6,test,1,B,mfborder.png,1,m,Fri Oct 11 2024 13:38:31 GMT-0500 (Central Daylight Time),239461.59999999404,CFD-BM-043-014-A.jpg,2000,dash,O,m,622,5,1,13112.39999999851,226349.19999999553,7024,ATS,C,6
7,test,1,B,mfborder.png,1,m,Fri Oct 11 2024 13:38:31 GMT-0500 (Central Daylight Time),241960.59999999404,CFD-BM-022-004-HC.jpg,1700,dash,O,m,768,1,1,15611.39999999851,226349.19999999553,7024,ATS,C,7
8,test,1,B,mfborder.png,1,z,Fri Oct 11 2024 13:38:31 GMT-0500 (Central Daylight Time),243976.69999999553,CFD-BF-019-004-HC.jpg,1400,dash,O,z,593,7,1,17627.5,226349.19999999553,7024,ATS,C,8
9,test,1,B,mfborder.png,1,z,Fri Oct 11 2024 13:38:31 GMT-0500 (Central Daylight Time),246575.8999999985,CFD-WF-001-010-HC.jpg,1900,dash,O,z,668,8,1,20226.70000000298,226349.19999999553,7024,ATS,C,9
10,test,1,B,mfborder.png,1,z,Fri Oct 11 2024 13:38:31 GMT-0500 (Central Daylight Time),248193.29999999702,CFD-WF-013-009-HC.jpg,1000,dash,O,z,586,12,1,21844.10000000149,226349.19999999553,7024,ATS,C,10
11,test,1,B,mfborder.png,1,z,Fri Oct 11 2024 13:38:31 GMT-0500 (Central Daylight Time),250358.19999999553,CFD-WF-037-016-A.jpg,1500,dash,O,z,646,11,1,24009.0,226349.19999999553,7024,ATS,C,11
12,test,1,B,mfborder.png,1,m,Fri Oct 11 2024 13:38:31 GMT-0500 (Central Daylight Time),253040.69999999553,CFD-BM-022-004-HC.jpg,1700,dash,O,m,960,1,1,26691.5,226349.19999999553,7024,ATS,C,12
13,test,1,B,mfborder.png,1,m,Fri Oct 11 2024 13:38:31 GMT-0500 (Central Daylight Time),255840.8999999985,CFD-BM-043-014-A.jpg,2000,dash,O,m,777,5,1,29491.70000000298,226349.19999999553,7024,ATS,C,13
14,test,1,B,mfborder.png,1,z,Fri Oct 11 2024 13:38:31 GMT-0500 (Central Daylight Time),258322.3999999985,CFD-WF-001-010-HC.jpg,1900,dash,O,z,559,8,1,31973.20000000298,226349.19999999553,7024,ATS,C,14
15,test,1,B,mfborder.png,1,z,Fri Oct 11 2024 13:38:31 GMT-0500 (Central Daylight Time),260721.59999999404,CFD-BF-042-031-HC.jpg,1500,dash,O,z,876,3,1,34372.39999999851,226349.19999999553,7024,ATS,C,15
16,test,1,B,mfborder.png,1,m,Fri Oct 11 2024 13:38:31 GMT-0500 (Central Daylight Time),263370.799999997,CFD-WM-036-018-A.jpg,1700,dash,O,m,933,9,1,37021.60000000149,226349.19999999553,7024,ATS,C,16
17,test,1,B,mfborder.png,1,m,Fri Oct 11 2024 13:38:31 GMT-0500 (Central Daylight Time),265886.799999997,CFD-WM-035-036-HC.jpg,1600,dash,O,m,895,10,1,39537.60000000149,226349.19999999553,7024,ATS,C,17
18,test,1,B,mfborder.png,1,m,Fri Oct 11 2024 13:38:31 GMT-0500 (Central Daylight Time),267919.299999997,CFD-WM-034-040-A.jpg,1200,dash,O,m,812,6,1,41570.10000000149,226349.19999999553,7024,ATS,C,18
19,test,1,B,mfborder.png,1,z,Fri Oct 11 2024 13:38:31 GMT-0500 (Central Daylight Time),269569.09999999404,CFD-WF-013-009-HC.jpg,1000,dash,O,z,618,12,1,43219.89999999851,226349.19999999553,7024,ATS,C,19
20,test,1,B,mfborder.png,1,m,Fri Oct 11 2024 13:38:31 GMT-0500 (Central Daylight Time),271851.3999999985,CFD-WM-036-018-A.jpg,1700,dash,O,m,565,9,1,45502.20000000298,226349.19999999553,7024,ATS,C,20
21,test,1,B,mfborder.png,1,z,Fri Oct 11 2024 13:38:31 GMT-0500 (Central Daylight Time),274017.3999999985,CFD-BF-042-031-HC.jpg,1500,dash,O,z,635,3,1,47668.20000000298,226349.19999999553,7024,ATS,C,21
22,test,1,B,mfborder.png,1,z,Fri Oct 11 2024 13:38:31 GMT-0500 (Central Daylight Time),275849.69999999553,CFD-BF-031-020-A.jpg,1000,dash,O,z,800,4,1,49500.5,226349.19999999553,7024,ATS,C,22
23,test,1,B,mfborder.png,1,m,Fri Oct 11 2024 13:38:31 GMT-0500 (Central Daylight Time),277566.3999999985,CFD-WM-034-040-A.jpg,1200,dash,O,m,496,6,1,51217.20000000298,226349.19999999553,7024,ATS,C,23
24,test,1,B,mfborder.png,1,m,Fri Oct 11 2024 13:38:31 GMT-0500 (Central Daylight Time),279815.5,CFD-WM-035-036-HC.jpg,1600,dash,O,m,627,10,1,53466.30000000447,226349.19999999553,7024,ATS,C,24
0,prac,1,C,mfborder.png,0,m,Fri Oct 11 2024 13:38:31 GMT-0500 (Central Daylight Time),314971.3999999985,CFD-BM-043-014-A.jpg,1200,dash,O,None,1516,10,1,3499.10000000149,311472.299999997,7024,ATS,C,1
0,prac,1,C,mfborder.png,0,m,Fri Oct 11 2024 13:38:31 GMT-0500 (Central Daylight Time),318320.19999999553,CFD-WM-036-018-A.jpg,1700,solid,O,z,859,10,1,6847.89999999851,311472.299999997,7024,ATS,C,2
1,prac,1,C,haborder.png,1,m,Fri Oct 11 2024 13:38:31 GMT-0500 (Central Daylight Time),321920.5,CFD-WM-028-005-HC.jpg,1400,solid,O,m,1418,10,1,10448.20000000298,311472.299999997,7024,ATS,C,3
2,prac,1,C,haborder.png,1,z,Fri Oct 11 2024 13:38:31 GMT-0500 (Central Daylight Time),325584.69999999553,CFD-WF-037-016-A.jpg,1600,dash,O,z,1266,10,1,14112.39999999851,311472.299999997,7024,ATS,C,4
3,prac,1,C,haborder.png,1,z,Fri Oct 11 2024 13:38:31 GMT-0500 (Central Daylight Time),328883.59999999404,CFD-BF-002-018-A.jpg,1700,solid,O,z,813,10,1,17411.29999999702,311472.299999997,7024,ATS,C,5
3,prac,1,C,mfborder.png,0,m,Fri Oct 11 2024 13:38:31 GMT-0500 (Central Daylight Time),333182.09999999404,CFD-BM-034-035-HC.jpg,2000,solid,O,None,1516,10,1,21709.79999999702,311472.299999997,7024,ATS,C,6
4,prac,1,C,haborder.png,1,m,Fri Oct 11 2024 13:38:31 GMT-0500 (Central Daylight Time),336298.09999999404,CFD-WM-028-005-HC.jpg,1000,dash,O,m,1332,10,1,24825.79999999702,311472.299999997,7024,ATS,C,7
5,prac,1,C,mfborder.png,1,z,Fri Oct 11 2024 13:38:31 GMT-0500 (Central Daylight Time),339280.3999999985,CFD-BF-019-004-HC.jpg,1000,dash,O,z,1184,10,1,27808.10000000149,311472.299999997,7024,ATS,C,8
6,prac,1,C,haborder.png,1,z,Fri Oct 11 2024 13:38:31 GMT-0500 (Central Daylight Time),342845.3999999985,CFD-BF-031-020-A.jpg,1900,dash,O,z,871,10,1,31373.10000000149,311472.299999997,7024,ATS,C,9
7,prac,1,C,mfborder.png,1,z,Fri Oct 11 2024 13:38:31 GMT-0500 (Central Daylight Time),346544.799999997,CFD-WF-013-009-HC.jpg,1600,dash,O,z,1309,10,1,35072.5,311472.299999997,7024,ATS,C,10
8,prac,1,C,haborder.png,1,m,Fri Oct 11 2024 13:38:31 GMT-0500 (Central Daylight Time),349744.8999999985,CFD-BM-022-004-HC.jpg,1500,solid,O,m,910,10,1,38272.60000000149,311472.299999997,7024,ATS,C,11
9,prac,1,C,mfborder.png,1,z,Fri Oct 11 2024 13:38:31 GMT-0500 (Central Daylight Time),353209.19999999553,CFD-WF-023-013-A.jpg,1500,solid,O,z,1167,10,1,41736.89999999851,311472.299999997,7024,ATS,C,12
1,test,1,C,mfborder.png,1,m,Fri Oct 11 2024 13:38:31 GMT-0500 (Central Daylight Time),390814.19999999553,CFD-BM-022-004-HC.jpg,1200,dash,O,m,1013,6,1,2232.6999999955297,388581.5,7024,ATS,C,1
2,test,1,C,haborder.png,1,z,Fri Oct 11 2024 13:38:31 GMT-0500 (Central Daylight Time),393646.5,CFD-BM-043-014-A.jpg,1900,solid,O,z,904,8,1,5065.0,388581.5,7024,ATS,C,2
3,test,1,C,haborder.png,1,z,Fri Oct 11 2024 13:38:31 GMT-0500 (Central Daylight Time),396095.69999999553,CFD-WM-036-018-A.jpg,1400,solid,O,z,1019,7,1,7514.19999999553,388581.5,7024,ATS,C,3
4,test,1,C,haborder.png,1,m,Fri Oct 11 2024 13:38:31 GMT-0500 (Central Daylight Time),398494.799999997,CFD-WF-013-009-HC.jpg,1000,solid,O,m,1370,12,1,9913.29999999702,388581.5,7024,ATS,C,4
5,test,1,C,haborder.png,1,z,Fri Oct 11 2024 13:38:31 GMT-0500 (Central Daylight Time),401327.5,CFD-BM-043-014-A.jpg,1900,solid,O,z,904,8,1,12746.0,388581.5,7024,ATS,C,5
6,test,1,C,mfborder.png,1,m,Fri Oct 11 2024 13:38:31 GMT-0500 (Central Daylight Time),404143.19999999553,CFD-WM-034-040-A.jpg,2000,dash,O,m,786,5,1,15561.69999999553,388581.5,7024,ATS,C,6
7,test,1,C,mfborder.png,1,z,Fri Oct 11 2024 13:38:31 GMT-0500 (Central Daylight Time),406659.09999999404,CFD-WF-037-016-A.jpg,1500,dash,O,z,983,3,1,18077.59999999404,388581.5,7024,ATS,C,7
8,test,1,C,haborder.png,1,m,Fri Oct 11 2024 13:38:31 GMT-0500 (Central Daylight Time),409108.19999999553,CFD-BF-019-004-HC.jpg,1600,solid,O,m,831,10,1,20526.69999999553,388581.5,7024,ATS,C,8
9,test,1,C,mfborder.png,1,m,Fri Oct 11 2024 13:38:31 GMT-0500 (Central Daylight Time),411390.8999999985,CFD-WM-035-036-HC.jpg,1000,dash,O,m,1254,4,1,22809.39999999851,388581.5,7024,ATS,C,9
10,test,1,C,haborder.png,1,m,Fri Oct 11 2024 13:38:31 GMT-0500 (Central Daylight Time),414440.0,CFD-BF-019-004-HC.jpg,1600,solid,O,m,1420,10,1,25858.5,388581.5,7024,ATS,C,10
10,test,1,C,mfborder.png,0,m,Fri Oct 11 2024 13:38:31 GMT-0500 (Central Daylight Time),416807.19999999553,CFD-BM-022-004-HC.jpg,1200,dash,O,z,1146,6,1,28225.69999999553,388581.5,7024,ATS,C,11
11,test,1,C,mfborder.png,1,z,Fri Oct 11 2024 13:38:31 GMT-0500 (Central Daylight Time),419622.0,CFD-WF-037-016-A.jpg,1500,dash,O,z,1287,3,1,31040.5,388581.5,7024,ATS,C,12
11,test,1,C,haborder.png,0,z,Fri Oct 11 2024 13:38:31 GMT-0500 (Central Daylight Time),422387.59999999404,CFD-WM-036-018-A.jpg,1400,solid,O,m,1341,7,1,33806.09999999404,388581.5,7024,ATS,C,13
12,test,1,C,haborder.png,1,z,Fri Oct 11 2024 13:38:31 GMT-0500 (Central Daylight Time),425169.8999999985,CFD-BM-021-026-A.jpg,1700,solid,O,z,1059,9,1,36588.39999999851,388581.5,7024,ATS,C,14
13,test,1,C,haborder.png,1,m,Fri Oct 11 2024 13:38:31 GMT-0500 (Central Daylight Time),427020.3999999985,CFD-WF-013-009-HC.jpg,1000,solid,O,m,831,12,1,38438.89999999851,388581.5,7024,ATS,C,15
14,test,1,C,mfborder.png,1,z,Fri Oct 11 2024 13:38:31 GMT-0500 (Central Daylight Time),429885.19999999553,CFD-BF-031-020-A.jpg,1600,dash,O,z,1239,2,1,41303.69999999553,388581.5,7024,ATS,C,16
14,test,1,C,haborder.png,0,m,Fri Oct 11 2024 13:38:31 GMT-0500 (Central Daylight Time),432234.299999997,CFD-WF-001-010-HC.jpg,1500,solid,O,z,816,11,1,43652.79999999702,388581.5,7024,ATS,C,17
15,test,1,C,mfborder.png,1,z,Fri Oct 11 2024 13:38:31 GMT-0500 (Central Daylight Time),434766.8999999985,CFD-BF-031-020-A.jpg,1600,dash,O,z,904,2,1,46185.39999999851,388581.5,7024,ATS,C,18
16,test,1,C,haborder.png,1,z,Fri Oct 11 2024 13:38:31 GMT-0500 (Central Daylight Time),437532.799999997,CFD-BM-021-026-A.jpg,1700,solid,O,z,1039,9,1,48951.29999999702,388581.5,7024,ATS,C,19
16,test,1,C,haborder.png,0,m,Fri Oct 11 2024 13:38:31 GMT-0500 (Central Daylight Time),440565.19999999553,CFD-WF-001-010-HC.jpg,1500,solid,O,None,1516,11,1,51983.69999999553,388581.5,7024,ATS,C,20
17,test,1,C,mfborder.png,1,z,Fri Oct 11 2024 13:38:31 GMT-0500 (Central Daylight Time),443181.09999999404,CFD-BF-042-031-HC.jpg,1700,dash,O,z,889,1,1,54599.59999999404,388581.5,7024,ATS,C,21
18,test,1,C,mfborder.png,1,m,Fri Oct 11 2024 13:38:31 GMT-0500 (Central Daylight Time),445796.69999999553,CFD-WM-034-040-A.jpg,2000,dash,O,m,590,5,1,57215.19999999553,388581.5,7024,ATS,C,22
19,test,1,C,mfborder.png,1,z,Fri Oct 11 2024 13:38:31 GMT-0500 (Central Daylight Time),448329.5,CFD-BF-042-031-HC.jpg,1700,dash,O,z,802,1,1,59748.0,388581.5,7024,ATS,C,23
20,test,1,C,mfborder.png,1,m,Fri Oct 11 2024 13:38:31 GMT-0500 (Central Daylight Time),450112.19999999553,CFD-WM-035-036-HC.jpg,1000,dash,O,m,753,4,1,61530.69999999553,388581.5,7024,ATS,C,24
1,test,2,C,mfborder.png,1,z,Fri Oct 11 2024 13:38:31 GMT-0500 (Central Daylight Time),461175.5,CFD-WF-023-013-A.jpg,1600,dash,O,z,1218,2,1,2849.2000000029802,458326.299999997,7024,ATS,C,1
2,test,2,C,mfborder.png,1,z,Fri Oct 11 2024 13:38:31 GMT-0500 (Central Daylight Time),463691.19999999553,CFD-BF-019-004-HC.jpg,1500,dash,O,z,991,3,1,5364.89999999851,458326.299999997,7024,ATS,C,2
2,test,2,C,haborder.png,0,m,Fri Oct 11 2024 13:38:31 GMT-0500 (Central Daylight Time),466224.09999999404,CFD-WM-028-005-HC.jpg,1000,solid,O,None,1516,12,1,7897.79999999702,458326.299999997,7024,ATS,C,3
2,test,2,C,mfborder.png,0,m,Fri Oct 11 2024 13:38:31 GMT-0500 (Central Daylight Time),469306.09999999404,CFD-BM-043-014-A.jpg,2000,dash,O,z,1059,5,1,10979.79999999702,458326.299999997,7024,ATS,C,4
3,test,2,C,mfborder.png,1,m,Fri Oct 11 2024 13:38:31 GMT-0500 (Central Daylight Time),471755.299999997,CFD-BM-034-035-HC.jpg,1000,dash,O,m,1424,4,1,13429.0,458326.299999997,7024,ATS,C,5
4,test,2,C,mfborder.png,1,z,Fri Oct 11 2024 13:38:31 GMT-0500 (Central Daylight Time),474287.8999999985,CFD-WF-013-009-HC.jpg,1700,dash,O,z,810,1,1,15961.60000000149,458326.299999997,7024,ATS,C,6
5,test,2,C,haborder.png,1,z,Fri Oct 11 2024 13:38:31 GMT-0500 (Central Daylight Time),476870.5,CFD-BF-002-018-A.jpg,1900,solid,O,z,654,8,1,18544.20000000298,458326.299999997,7024,ATS,C,7
6,test,2,C,haborder.png,1,z,Fri Oct 11 2024 13:38:31 GMT-0500 (Central Daylight Time),479269.69999999553,CFD-WF-037-016-A.jpg,1700,solid,O,z,680,9,1,20943.39999999851,458326.299999997,7024,ATS,C,8
7,test,2,C,haborder.png,1,z,Fri Oct 11 2024 13:38:31 GMT-0500 (Central Daylight Time),481985.5,CFD-BF-002-018-A.jpg,1900,solid,O,z,793,8,1,23659.20000000298,458326.299999997,7024,ATS,C,9
7,test,2,C,mfborder.png,0,m,Fri Oct 11 2024 13:38:31 GMT-0500 (Central Daylight Time),484717.8999999985,CFD-WM-036-018-A.jpg,1200,dash,O,None,1516,6,1,26391.60000000149,458326.299999997,7024,ATS,C,10
8,test,2,C,mfborder.png,1,z,Fri Oct 11 2024 13:38:31 GMT-0500 (Central Daylight Time),487868.09999999404,CFD-WF-023-013-A.jpg,1600,dash,O,z,1446,2,1,29541.79999999702,458326.299999997,7024,ATS,C,11
9,test,2,C,haborder.png,1,m,Fri Oct 11 2024 13:38:31 GMT-0500 (Central Daylight Time),490249.69999999553,CFD-WM-028-005-HC.jpg,1000,solid,O,m,1359,12,1,31923.39999999851,458326.299999997,7024,ATS,C,12
10,test,2,C,haborder.png,1,m,Fri Oct 11 2024 13:38:31 GMT-0500 (Central Daylight Time),492816.299999997,CFD-BM-022-004-HC.jpg,1600,solid,O,m,945,10,1,34490.0,458326.299999997,7024,ATS,C,13
11,test,2,C,haborder.png,1,z,Fri Oct 11 2024 13:38:31 GMT-0500 (Central Daylight Time),495298.299999997,CFD-BF-031-020-A.jpg,1400,solid,O,z,1050,7,1,36972.0,458326.299999997,7024,ATS,C,14
12,test,2,C,haborder.png,1,m,Fri Oct 11 2024 13:38:31 GMT-0500 (Central Daylight Time),497748.3999999985,CFD-WM-028-005-HC.jpg,1500,solid,O,m,932,11,1,39422.10000000149,458326.299999997,7024,ATS,C,15
13,test,2,C,mfborder.png,1,m,Fri Oct 11 2024 13:38:31 GMT-0500 (Central Daylight Time),499579.8999999985,CFD-BM-034-035-HC.jpg,1000,dash,O,m,807,4,1,41253.60000000149,458326.299999997,7024,ATS,C,16
14,test,2,C,haborder.png,1,m,Fri Oct 11 2024 13:38:31 GMT-0500 (Central Daylight Time),502062.59999999404,CFD-WM-028-005-HC.jpg,1500,solid,O,m,962,11,1,43736.29999999702,458326.299999997,7024,ATS,C,17
15,test,2,C,haborder.png,1,z,Fri Oct 11 2024 13:38:31 GMT-0500 (Central Daylight Time),504595.09999999404,CFD-BF-031-020-A.jpg,1400,solid,O,z,1108,7,1,46268.79999999702,458326.299999997,7024,ATS,C,18
16,test,2,C,mfborder.png,1,z,Fri Oct 11 2024 13:38:31 GMT-0500 (Central Daylight Time),506844.299999997,CFD-BF-019-004-HC.jpg,1500,dash,O,z,730,3,1,48518.0,458326.299999997,7024,ATS,C,19
17,test,2,C,mfborder.png,1,z,Fri Oct 11 2024 13:38:31 GMT-0500 (Central Daylight Time),509143.59999999404,CFD-WF-013-009-HC.jpg,1700,dash,O,z,578,1,1,50817.29999999702,458326.299999997,7024,ATS,C,20
18,test,2,C,haborder.png,1,m,Fri Oct 11 2024 13:38:31 GMT-0500 (Central Daylight Time),511459.5,CFD-BM-022-004-HC.jpg,1600,solid,O,m,699,10,1,53133.20000000298,458326.299999997,7024,ATS,C,21
19,test,2,C,haborder.png,1,z,Fri Oct 11 2024 13:38:31 GMT-0500 (Central Daylight Time),513892.09999999404,CFD-WF-037-016-A.jpg,1700,solid,O,z,706,9,1,55565.79999999702,458326.299999997,7024,ATS,C,22
20,test,2,C,mfborder.png,1,m,Fri Oct 11 2024 13:38:31 GMT-0500 (Central Daylight Time),517007.69999999553,CFD-BM-043-014-A.jpg,2000,dash,O,m,1086,5,1,58681.39999999851,458326.299999997,7024,ATS,C,23
21,test,2,C,mfborder.png,1,m,Fri Oct 11 2024 13:38:31 GMT-0500 (Central Daylight Time),519590.3999999985,CFD-WM-036-018-A.jpg,1200,dash,O,m,1354,6,1,61264.10000000149,458326.299999997,7024,ATS,C,24
0,test,3,C,haborder.png,0,m,Fri Oct 11 2024 13:38:31 GMT-0500 (Central Daylight Time),526471.6999999955,CFD-WF-001-010-HC.jpg,1500,solid,O,z,886,11,1,2416.0,524055.69999999553,7024,ATS,C,1
1,test,3,C,mfborder.png,1,z,Fri Oct 11 2024 13:38:31 GMT-0500 (Central Daylight Time),529187.1999999955,CFD-BF-031-020-A.jpg,1600,dash,O,z,1099,2,1,5131.5,524055.69999999553,7024,ATS,C,2
2,test,3,C,mfborder.png,1,m,Fri Oct 11 2024 13:38:31 GMT-0500 (Central Daylight Time),531136.799999997,CFD-BM-022-004-HC.jpg,1200,dash,O,m,718,6,1,7081.10000000149,524055.69999999553,7024,ATS,C,3
3,test,3,C,haborder.png,1,z,Fri Oct 11 2024 13:38:31 GMT-0500 (Central Daylight Time),534385.6999999955,CFD-BM-043-014-A.jpg,1900,solid,O,z,1316,8,1,10330.0,524055.69999999553,7024,ATS,C,4
3,test,3,C,mfborder.png,0,z,Fri Oct 11 2024 13:38:31 GMT-0500 (Central Daylight Time),537168.1999999955,CFD-WF-037-016-A.jpg,1500,dash,O,m,1261,3,1,13112.5,524055.69999999553,7024,ATS,C,5
3,test,3,C,haborder.png,0,z,Fri Oct 11 2024 13:38:31 GMT-0500 (Central Daylight Time),540084.0,CFD-BM-021-026-A.jpg,1700,solid,O,m,1196,9,1,16028.30000000447,524055.69999999553,7024,ATS,C,6
4,test,3,C,mfborder.png,1,m,Fri Oct 11 2024 13:38:31 GMT-0500 (Central Daylight Time),542716.599999994,CFD-BM-022-004-HC.jpg,1200,dash,O,m,1406,6,1,18660.89999999851,524055.69999999553,7024,ATS,C,7
5,test,3,C,haborder.png,1,m,Fri Oct 11 2024 13:38:31 GMT-0500 (Central Daylight Time),545082.1999999955,CFD-BF-019-004-HC.jpg,1600,solid,O,m,734,10,1,21026.5,524055.69999999553,7024,ATS,C,8
6,test,3,C,mfborder.png,1,m,Fri Oct 11 2024 13:38:31 GMT-0500 (Central Daylight Time),547232.8999999985,CFD-WM-035-036-HC.jpg,1000,dash,O,m,1120,4,1,23177.20000000298,524055.69999999553,7024,ATS,C,9
7,test,3,C,haborder.png,1,m,Fri Oct 11 2024 13:38:31 GMT-0500 (Central Daylight Time),550230.6999999955,CFD-WF-001-010-HC.jpg,1500,solid,O,m,1478,11,1,26175.0,524055.69999999553,7024,ATS,C,10
7,test,3,C,haborder.png,0,z,Fri Oct 11 2024 13:38:31 GMT-0500 (Central Daylight Time),553163.3999999985,CFD-WM-036-018-A.jpg,1400,solid,O,None,1515,7,1,29107.70000000298,524055.69999999553,7024,ATS,C,11
7,test,3,C,haborder.png,0,m,Fri Oct 11 2024 13:38:31 GMT-0500 (Central Daylight Time),555245.6999999955,CFD-WF-013-009-HC.jpg,1000,solid,O,z,1063,12,1,31190.0,524055.69999999553,7024,ATS,C,12
8,test,3,C,mfborder.png,1,z,Fri Oct 11 2024 13:38:31 GMT-0500 (Central Daylight Time),557746.299999997,CFD-WF-037-016-A.jpg,1500,dash,O,z,969,3,1,33690.60000000149,524055.69999999553,7024,ATS,C,13
9,test,3,C,mfborder.png,1,m,Fri Oct 11 2024 13:38:31 GMT-0500 (Central Daylight Time),560794.099999994,CFD-WM-034-040-A.jpg,2000,dash,O,m,1026,5,1,36738.39999999851,524055.69999999553,7024,ATS,C,14
10,test,3,C,mfborder.png,1,m,Fri Oct 11 2024 13:38:31 GMT-0500 (Central Daylight Time),562360.3999999985,CFD-WM-035-036-HC.jpg,1000,dash,O,m,544,4,1,38304.70000000298,524055.69999999553,7024,ATS,C,15
11,test,3,C,haborder.png,1,z,Fri Oct 11 2024 13:38:31 GMT-0500 (Central Daylight Time),565559.5,CFD-BM-043-014-A.jpg,1900,solid,O,z,1270,8,1,41503.80000000447,524055.69999999553,7024,ATS,C,16
12,test,3,C,haborder.png,1,m,Fri Oct 11 2024 13:38:31 GMT-0500 (Central Daylight Time),567941.599999994,CFD-BF-019-004-HC.jpg,1600,solid,O,m,763,10,1,43885.89999999851,524055.69999999553,7024,ATS,C,17
13,test,3,C,haborder.png,1,z,Fri Oct 11 2024 13:38:31 GMT-0500 (Central Daylight Time),570224.3999999985,CFD-WM-036-018-A.jpg,1400,solid,O,z,860,7,1,46168.70000000298,524055.69999999553,7024,ATS,C,18
14,test,3,C,mfborder.png,1,z,Fri Oct 11 2024 13:38:31 GMT-0500 (Central Daylight Time),572941.5,CFD-BF-042-031-HC.jpg,1700,dash,O,z,998,1,1,48885.80000000447,524055.69999999553,7024,ATS,C,19
15,test,3,C,haborder.png,1,m,Fri Oct 11 2024 13:38:31 GMT-0500 (Central Daylight Time),574922.8999999985,CFD-WF-013-009-HC.jpg,1000,solid,O,m,958,12,1,50867.20000000298,524055.69999999553,7024,ATS,C,20
16,test,3,C,mfborder.png,1,m,Fri Oct 11 2024 13:38:31 GMT-0500 (Central Daylight Time),577588.8999999985,CFD-WM-034-040-A.jpg,2000,dash,O,m,639,5,1,53533.20000000298,524055.69999999553,7024,ATS,C,21
17,test,3,C,mfborder.png,1,z,Fri Oct 11 2024 13:38:31 GMT-0500 (Central Daylight Time),580287.8999999985,CFD-BF-031-020-A.jpg,1600,dash,O,z,1077,2,1,56232.20000000298,524055.69999999553,7024,ATS,C,22
18,test,3,C,haborder.png,1,z,Fri Oct 11 2024 13:38:31 GMT-0500 (Central Daylight Time),582704.0,CFD-BM-021-026-A.jpg,1700,solid,O,z,686,9,1,58648.30000000447,524055.69999999553,7024,ATS,C,23
19,test,3,C,mfborder.png,1,z,Fri Oct 11 2024 13:38:31 GMT-0500 (Central Daylight Time),585203.099999994,CFD-BF-042-031-HC.jpg,1700,dash,O,z,783,1,1,61147.39999999851,524055.69999999553,7024,ATS,C,24
1,test,4,C,haborder.png,1,m,Fri Oct 11 2024 13:38:31 GMT-0500 (Central Daylight Time),588885.299999997,CFD-WM-028-005-HC.jpg,1000,solid,O,m,1047,12,1,2066.0,586819.299999997,7024,ATS,C,1
1,test,4,C,mfborder.png,0,m,Fri Oct 11 2024 13:38:31 GMT-0500 (Central Daylight Time),592417.799999997,CFD-BM-043-014-A.jpg,2000,dash,O,None,1516,5,1,5598.5,586819.299999997,7024,ATS,C,2
2,test,4,C,haborder.png,1,z,Fri Oct 11 2024 13:38:31 GMT-0500 (Central Daylight Time),595050.099999994,CFD-BF-002-018-A.jpg,1900,solid,O,z,701,8,1,8230.79999999702,586819.299999997,7024,ATS,C,3
2,test,4,C,mfborder.png,0,z,Fri Oct 11 2024 13:38:31 GMT-0500 (Central Daylight Time),597732.599999994,CFD-WF-013-009-HC.jpg,1700,dash,O,m,965,1,1,10913.29999999702,586819.299999997,7024,ATS,C,4
3,test,4,C,haborder.png,1,m,Fri Oct 11 2024 13:38:31 GMT-0500 (Central Daylight Time),599665.299999997,CFD-WM-028-005-HC.jpg,1000,solid,O,m,900,12,1,12846.0,586819.299999997,7024,ATS,C,5
4,test,4,C,mfborder.png,1,z,Fri Oct 11 2024 13:38:31 GMT-0500 (Central Daylight Time),602647.599999994,CFD-WF-023-013-A.jpg,1600,dash,O,z,1361,2,1,15828.29999999702,586819.299999997,7024,ATS,C,6
5,test,4,C,haborder.png,1,z,Fri Oct 11 2024 13:38:31 GMT-0500 (Central Daylight Time),605263.6999999955,CFD-BF-002-018-A.jpg,1900,solid,O,z,694,8,1,18444.39999999851,586819.299999997,7024,ATS,C,7
6,test,4,C,mfborder.png,1,m,Fri Oct 11 2024 13:38:31 GMT-0500 (Central Daylight Time),606996.299999997,CFD-WM-036-018-A.jpg,1200,dash,O,m,507,6,1,20177.0,586819.299999997,7024,ATS,C,8
7,test,4,C,haborder.png,1,z,Fri Oct 11 2024 13:38:31 GMT-0500 (Central Daylight Time),609095.6999999955,CFD-BF-031-020-A.jpg,1400,solid,O,z,670,7,1,22276.39999999851,586819.299999997,7024,ATS,C,9
8,test,4,C,mfborder.png,1,m,Fri Oct 11 2024 13:38:31 GMT-0500 (Central Daylight Time),612044.799999997,CFD-BM-043-014-A.jpg,2000,dash,O,m,931,5,1,25225.5,586819.299999997,7024,ATS,C,10
9,test,4,C,mfborder.png,1,z,Fri Oct 11 2024 13:38:31 GMT-0500 (Central Daylight Time),614177.3999999985,CFD-BF-019-004-HC.jpg,1500,dash,O,z,610,3,1,27358.10000000149,586819.299999997,7024,ATS,C,11
10,test,4,C,haborder.png,1,m,Fri Oct 11 2024 13:38:31 GMT-0500 (Central Daylight Time),616626.799999997,CFD-BM-022-004-HC.jpg,1600,solid,O,m,833,10,1,29807.5,586819.299999997,7024,ATS,C,12
11,test,4,C,haborder.png,1,m,Fri Oct 11 2024 13:38:31 GMT-0500 (Central Daylight Time),618976.099999994,CFD-BM-022-004-HC.jpg,1600,solid,O,m,720,10,1,32156.79999999702,586819.299999997,7024,ATS,C,13
12,test,4,C,haborder.png,1,m,Fri Oct 11 2024 13:38:31 GMT-0500 (Central Daylight Time),621125.1999999955,CFD-WM-028-005-HC.jpg,1500,solid,O,m,630,11,1,34305.89999999851,586819.299999997,7024,ATS,C,14
13,test,4,C,mfborder.png,1,z,Fri Oct 11 2024 13:38:31 GMT-0500 (Central Daylight Time),623475.8999999985,CFD-WF-013-009-HC.jpg,1700,dash,O,z,625,1,1,36656.60000000149,586819.299999997,7024,ATS,C,15
14,test,4,C,mfborder.png,1,z,Fri Oct 11 2024 13:38:31 GMT-0500 (Central Daylight Time),625857.099999994,CFD-WF-023-013-A.jpg,1600,dash,O,z,760,2,1,39037.79999999702,586819.299999997,7024,ATS,C,16
15,test,4,C,haborder.png,1,m,Fri Oct 11 2024 13:38:31 GMT-0500 (Central Daylight Time),628039.799999997,CFD-WM-028-005-HC.jpg,1500,solid,O,m,654,11,1,41220.5,586819.299999997,7024,ATS,C,17
16,test,4,C,mfborder.png,1,m,Fri Oct 11 2024 13:38:31 GMT-0500 (Central Daylight Time),630522.5,CFD-WM-036-018-A.jpg,1200,dash,O,m,1250,6,1,43703.20000000298,586819.299999997,7024,ATS,C,18
17,test,4,C,mfborder.png,1,m,Fri Oct 11 2024 13:38:31 GMT-0500 (Central Daylight Time),632188.5,CFD-BM-034-035-HC.jpg,1000,dash,O,m,647,4,1,45369.20000000298,586819.299999997,7024,ATS,C,19
18,test,4,C,haborder.png,1,z,Fri Oct 11 2024 13:38:31 GMT-0500 (Central Daylight Time),634937.6999999955,CFD-BF-031-020-A.jpg,1400,solid,O,z,1326,7,1,48118.39999999851,586819.299999997,7024,ATS,C,20
19,test,4,C,haborder.png,1,z,Fri Oct 11 2024 13:38:31 GMT-0500 (Central Daylight Time),637653.3999999985,CFD-WF-037-016-A.jpg,1700,solid,O,z,997,9,1,50834.10000000149,586819.299999997,7024,ATS,C,21
20,test,4,C,mfborder.png,1,m,Fri Oct 11 2024 13:38:31 GMT-0500 (Central Daylight Time),639402.6999999955,CFD-BM-034-035-HC.jpg,1000,dash,O,m,724,4,1,52583.39999999851,586819.299999997,7024,ATS,C,22
21,test,4,C,haborder.png,1,z,Fri Oct 11 2024 13:38:31 GMT-0500 (Central Daylight Time),642301.799999997,CFD-WF-037-016-A.jpg,1700,solid,O,z,1179,9,1,55482.5,586819.299999997,7024,ATS,C,23
21,test,4,C,mfborder.png,0,z,Fri Oct 11 2024 13:38:31 GMT-0500 (Central Daylight Time),644667.6999999955,CFD-BF-019-004-HC.jpg,1500,dash,O,m,848,3,1,57848.39999999851,586819.299999997,7024,ATS,C,24
