Number,acc_sum,block,block_c,block_cond,con_img,correct,correct_response,datetime,endtime,jitter,project,response,response_time,row_sel,session_number,start_end,starttime,subject_id,task,task_vers,trial
6,1,prac,1,A,circle.png,1,m,Thu Apr 17 2025 16:32:11 GMT-0500 (Central Daylight Time),68385.40000003576,1900,O,m,1222,5,1,3907.5,64477.90000003576,7130,NTS,B,1
8,2,prac,1,A,circle.png,1,m,Thu Apr 17 2025 16:32:11 GMT-0500 (Central Daylight Time),71684.5,1600,O,m,867,7,1,3263.899999976158,68420.60000002384,7130,NTS,B,2
9,3,prac,1,A,circle.png,1,m,Thu Apr 17 2025 16:32:11 GMT-0500 (Central Daylight Time),74666.40000003576,1500,O,m,658,8,1,2952.900000035763,71713.5,7130,NTS,B,3
4,4,prac,1,A,circle.png,1,z,Thu Apr 17 2025 16:32:11 GMT-0500 (Central Daylight Time),77565.40000003576,1400,O,z,677,4,1,2867.800000011921,74697.60000002384,7130,NTS,B,4
8,5,prac,1,A,circle.png,1,m,Thu Apr 17 2025 16:32:11 GMT-0500 (Central Daylight Time),80664.70000004768,1600,O,m,665,7,1,3069.400000035763,77595.30000001192,7130,NTS,B,5
7,6,prac,1,A,circle.png,1,m,Thu Apr 17 2025 16:32:11 GMT-0500 (Central Daylight Time),83979.90000003576,1700,O,m,795,6,1,3284.300000011921,80695.60000002384,7130,NTS,B,6
3,7,prac,1,A,circle.png,1,z,Thu Apr 17 2025 16:32:11 GMT-0500 (Central Daylight Time),86712.5,1200,O,z,717,3,1,2709.399999976158,84003.10000002384,7130,NTS,B,7
2,8,prac,1,A,circle.png,1,z,Thu Apr 17 2025 16:32:11 GMT-0500 (Central Daylight Time),90394.70000004768,2000,O,z,874,2,1,3660.5,86734.20000004768,7130,NTS,B,8
1,9,prac,1,A,circle.png,1,z,Thu Apr 17 2025 16:32:11 GMT-0500 (Central Daylight Time),92827.40000003576,1000,O,z,631,1,1,2405.5,90421.90000003576,7130,NTS,B,9
6,10,prac,1,A,circle.png,1,m,Thu Apr 17 2025 16:32:11 GMT-0500 (Central Daylight Time),96459.40000003576,1900,O,m,931,5,1,3606.400000035763,92853.0,7130,NTS,B,10
4,11,prac,1,A,circle.png,1,z,Thu Apr 17 2025 16:32:11 GMT-0500 (Central Daylight Time),99475.40000003576,1400,O,z,814,4,1,2991.0,96484.40000003576,7130,NTS,B,11
9,12,prac,1,A,circle.png,1,m,Thu Apr 17 2025 16:32:11 GMT-0500 (Central Daylight Time),102507.20000004768,1500,O,m,714,8,1,3001.100000023842,99506.10000002384,7130,NTS,B,12
2,1,prac,1,B,triangle.png,1,m,Thu Apr 17 2025 16:32:11 GMT-0500 (Central Daylight Time),135746.30000001192,1700,O,m,1268,2,1,3754.199999988079,131992.10000002384,7130,NTS,B,1
8,2,prac,1,B,triangle.png,1,m,Thu Apr 17 2025 16:32:11 GMT-0500 (Central Daylight Time),138445.30000001192,1200,O,m,687,7,1,2670.0,135775.30000001192,7130,NTS,B,2
3,3,prac,1,B,triangle.png,1,z,Thu Apr 17 2025 16:32:11 GMT-0500 (Central Daylight Time),141877.60000002384,1600,O,z,1019,3,1,3404.399999976158,138473.20000004768,7130,NTS,B,3
3,4,prac,1,B,triangle.png,1,z,Thu Apr 17 2025 16:32:11 GMT-0500 (Central Daylight Time),145026.40000003576,1600,O,z,732,3,1,3124.600000023842,141901.80000001192,7130,NTS,B,4
6,5,prac,1,B,triangle.png,1,m,Thu Apr 17 2025 16:32:11 GMT-0500 (Central Daylight Time),147841.90000003576,1000,O,m,1014,5,1,2791.699999988079,145050.20000004768,7130,NTS,B,5
7,6,prac,1,B,triangle.png,1,z,Thu Apr 17 2025 16:32:11 GMT-0500 (Central Daylight Time),151641.5,2000,O,z,1009,6,1,3786.099999964237,147855.40000003576,7130,NTS,B,6
7,7,prac,1,B,triangle.png,1,z,Thu Apr 17 2025 16:32:11 GMT-0500 (Central Daylight Time),155406.30000001192,2000,O,z,936,6,1,3734.699999988079,151671.60000002384,7130,NTS,B,7
4,8,prac,1,B,triangle.png,1,m,Thu Apr 17 2025 16:32:11 GMT-0500 (Central Daylight Time),158621.30000001192,1500,O,m,913,4,1,3189.199999988079,155432.10000002384,7130,NTS,B,8
1,9,prac,1,B,triangle.png,1,z,Thu Apr 17 2025 16:32:11 GMT-0500 (Central Daylight Time),162037.60000002384,1900,O,z,720,1,1,3407.100000023842,158630.5,7130,NTS,B,9
8,10,prac,1,B,triangle.png,1,m,Thu Apr 17 2025 16:32:11 GMT-0500 (Central Daylight Time),164836.70000004768,1200,O,m,795,7,1,2775.400000035763,162061.30000001192,7130,NTS,B,10
6,11,prac,1,B,triangle.png,1,m,Thu Apr 17 2025 16:32:11 GMT-0500 (Central Daylight Time),167719.20000004768,1000,O,m,1075,5,1,2854.400000035763,164864.80000001192,7130,NTS,B,11
9,12,prac,1,B,triangle.png,1,z,Thu Apr 17 2025 16:32:11 GMT-0500 (Central Daylight Time),170868.10000002384,1400,O,z,941,8,1,3122.0,167746.10000002384,7130,NTS,B,12
1,1,test,1,A,circle.png,1,z,Thu Apr 17 2025 16:32:11 GMT-0500 (Central Daylight Time),191077.90000003576,1000,O,z,861,1,1,1874.1000000238419,189203.80000001192,7130,NTS,B,1
7,2,test,1,A,circle.png,1,m,Thu Apr 17 2025 16:32:11 GMT-0500 (Central Daylight Time),193544.10000002384,1700,O,m,726,6,1,2446.0,191098.10000002384,7130,NTS,B,2
1,3,test,1,A,circle.png,1,z,Thu Apr 17 2025 16:32:11 GMT-0500 (Central Daylight Time),195443.30000001192,1000,O,z,848,1,1,1882.8999999761581,193560.40000003576,7130,NTS,B,3
3,4,test,1,A,circle.png,1,z,Thu Apr 17 2025 16:32:11 GMT-0500 (Central Daylight Time),197359.30000001192,1200,O,z,667,3,1,1896.8999999761581,195462.40000003576,7130,NTS,B,4
4,4,test,1,A,circle.png,0,z,Thu Apr 17 2025 16:32:11 GMT-0500 (Central Daylight Time),199591.90000003576,1400,O,m,794,4,1,2212.5,197379.40000003576,7130,NTS,B,5
2,4,test,1,A,circle.png,0,z,Thu Apr 17 2025 16:32:11 GMT-0500 (Central Daylight Time),202507.5,2000,O,m,863,2,1,2896.0,199611.5,7130,NTS,B,6
8,5,test,1,A,circle.png,1,m,Thu Apr 17 2025 16:32:11 GMT-0500 (Central Daylight Time),204840.20000004768,1600,O,m,685,7,1,2312.400000035763,202527.80000001192,7130,NTS,B,7
1,6,test,1,A,circle.png,1,z,Thu Apr 17 2025 16:32:11 GMT-0500 (Central Daylight Time),206539.60000002384,1000,O,z,646,1,1,1680.5,204859.10000002384,7130,NTS,B,8
4,6,test,1,A,circle.png,0,z,Thu Apr 17 2025 16:32:11 GMT-0500 (Central Daylight Time),208621.90000003576,1400,O,m,645,4,1,2063.0,206558.90000003576,7130,NTS,B,9
9,6,test,1,A,circle.png,0,m,Thu Apr 17 2025 16:32:11 GMT-0500 (Central Daylight Time),211088.10000002384,1500,O,z,917,8,1,2446.300000011921,208641.80000001192,7130,NTS,B,10
7,6,test,1,A,circle.png,0,m,Thu Apr 17 2025 16:32:11 GMT-0500 (Central Daylight Time),213720.5,1700,O,z,885,6,1,2612.099999964237,211108.40000003576,7130,NTS,B,11
6,7,test,1,A,circle.png,1,m,Thu Apr 17 2025 16:32:11 GMT-0500 (Central Daylight Time),216352.40000003576,1900,O,m,681,5,1,2611.900000035763,213740.5,7130,NTS,B,12
7,7,test,1,A,circle.png,0,m,Thu Apr 17 2025 16:32:11 GMT-0500 (Central Daylight Time),218852.60000002384,1700,O,z,764,6,1,2494.899999976158,216357.70000004768,7130,NTS,B,13
6,8,test,1,A,circle.png,1,m,Thu Apr 17 2025 16:32:11 GMT-0500 (Central Daylight Time),221451.70000004768,1900,O,m,657,5,1,2577.400000035763,218874.30000001192,7130,NTS,B,14
4,8,test,1,A,circle.png,0,z,Thu Apr 17 2025 16:32:11 GMT-0500 (Central Daylight Time),223733.70000004768,1400,O,m,845,4,1,2260.5,221473.20000004768,7130,NTS,B,15
2,8,test,1,A,circle.png,0,z,Thu Apr 17 2025 16:32:11 GMT-0500 (Central Daylight Time),226399.70000004768,2000,O,m,626,2,1,2646.300000011921,223753.40000003576,7130,NTS,B,16
1,9,test,1,A,circle.png,1,z,Thu Apr 17 2025 16:32:11 GMT-0500 (Central Daylight Time),228132.5,1000,O,z,689,1,1,1713.8999999761581,226418.60000002384,7130,NTS,B,17
6,10,test,1,A,circle.png,1,m,Thu Apr 17 2025 16:32:11 GMT-0500 (Central Daylight Time),230798.30000001192,1900,O,m,720,5,1,2647.0,228151.30000001192,7130,NTS,B,18
8,11,test,1,A,circle.png,1,m,Thu Apr 17 2025 16:32:11 GMT-0500 (Central Daylight Time),233181.20000004768,1600,O,m,730,7,1,2363.900000035763,230817.30000001192,7130,NTS,B,19
3,12,test,1,A,circle.png,1,z,Thu Apr 17 2025 16:32:11 GMT-0500 (Central Daylight Time),235130.30000001192,1200,O,z,699,3,1,1928.3999999761581,233201.90000003576,7130,NTS,B,20
4,12,test,1,A,circle.png,0,z,Thu Apr 17 2025 16:32:11 GMT-0500 (Central Daylight Time),237296.5,1400,O,m,717,4,1,2146.2999999523163,235150.20000004768,7130,NTS,B,21
6,13,test,1,A,circle.png,1,m,Thu Apr 17 2025 16:32:11 GMT-0500 (Central Daylight Time),239945.40000003576,1900,O,m,717,5,1,2637.800000011921,237307.60000002384,7130,NTS,B,22
9,13,test,1,A,circle.png,0,m,Thu Apr 17 2025 16:32:11 GMT-0500 (Central Daylight Time),242127.90000003576,1500,O,z,642,8,1,2163.800000011921,239964.10000002384,7130,NTS,B,23
8,14,test,1,A,circle.png,1,m,Thu Apr 17 2025 16:32:11 GMT-0500 (Central Daylight Time),244510.40000003576,1600,O,m,738,7,1,2363.800000011921,242146.60000002384,7130,NTS,B,24
8,1,test,1,B,triangle.png,1,m,Thu Apr 17 2025 16:32:11 GMT-0500 (Central Daylight Time),259422.30000001192,1700,O,m,621,15,1,2347.0,257075.30000001192,7130,NTS,B,1
6,2,test,1,B,triangle.png,1,m,Thu Apr 17 2025 16:32:11 GMT-0500 (Central Daylight Time),261588.60000002384,1500,O,m,616,13,1,2146.899999976158,259441.70000004768,7130,NTS,B,2
3,3,test,1,B,triangle.png,1,z,Thu Apr 17 2025 16:32:11 GMT-0500 (Central Daylight Time),263887.40000003576,1600,O,z,653,3,1,2278.699999988079,261608.70000004768,7130,NTS,B,3
6,4,test,1,B,triangle.png,1,m,Thu Apr 17 2025 16:32:11 GMT-0500 (Central Daylight Time),266070.10000002384,1500,O,m,638,13,1,2162.399999976158,263907.7000000477,7130,NTS,B,4
1,5,test,1,B,triangle.png,1,z,Thu Apr 17 2025 16:32:11 GMT-0500 (Central Daylight Time),268169.5,1400,O,z,652,9,1,2080.7999999523163,266088.7000000477,7130,NTS,B,5
4,6,test,1,B,triangle.png,1,m,Thu Apr 17 2025 16:32:11 GMT-0500 (Central Daylight Time),270018.8000000119,1000,O,m,802,12,1,1830.5,268188.3000000119,7130,NTS,B,6
3,7,test,1,B,triangle.png,1,z,Thu Apr 17 2025 16:32:11 GMT-0500 (Central Daylight Time),272701.3000000119,2000,O,z,639,11,1,2663.399999976158,270037.90000003576,7130,NTS,B,7
4,8,test,1,B,triangle.png,1,m,Thu Apr 17 2025 16:32:11 GMT-0500 (Central Daylight Time),274333.8000000119,1000,O,m,596,12,1,1612.3999999761581,272721.40000003576,7130,NTS,B,8
3,9,test,1,B,triangle.png,1,z,Thu Apr 17 2025 16:32:11 GMT-0500 (Central Daylight Time),276616.90000003576,1600,O,z,635,3,1,2266.0,274350.90000003576,7130,NTS,B,9
1,10,test,1,B,triangle.png,1,z,Thu Apr 17 2025 16:32:11 GMT-0500 (Central Daylight Time),279116.0,1900,O,z,558,1,1,2478.2999999523163,276637.7000000477,7130,NTS,B,10
9,11,test,1,B,triangle.png,1,z,Thu Apr 17 2025 16:32:11 GMT-0500 (Central Daylight Time),281881.7000000477,1900,O,z,818,16,1,2746.5,279135.2000000477,7130,NTS,B,11
7,12,test,1,B,triangle.png,1,z,Thu Apr 17 2025 16:32:11 GMT-0500 (Central Daylight Time),284330.60000002384,1600,O,z,808,14,1,2429.100000023842,281901.5,7130,NTS,B,12
2,13,test,1,B,triangle.png,1,m,Thu Apr 17 2025 16:32:11 GMT-0500 (Central Daylight Time),286597.60000002384,1700,O,m,532,2,1,2247.5,284350.10000002384,7130,NTS,B,13
4,14,test,1,B,triangle.png,1,m,Thu Apr 17 2025 16:32:11 GMT-0500 (Central Daylight Time),288762.7000000477,1500,O,m,625,4,1,2146.400000035763,286616.3000000119,7130,NTS,B,14
8,15,test,1,B,triangle.png,1,m,Thu Apr 17 2025 16:32:11 GMT-0500 (Central Daylight Time),291111.90000003576,1700,O,m,604,15,1,2330.400000035763,288781.5,7130,NTS,B,15
4,16,test,1,B,triangle.png,1,m,Thu Apr 17 2025 16:32:11 GMT-0500 (Central Daylight Time),293311.10000002384,1500,O,m,654,4,1,2178.199999988079,291132.90000003576,7130,NTS,B,16
7,17,test,1,B,triangle.png,1,z,Thu Apr 17 2025 16:32:11 GMT-0500 (Central Daylight Time),296060.2000000477,2000,O,z,707,6,1,2730.600000023842,293329.60000002384,7130,NTS,B,17
2,18,test,1,B,triangle.png,1,m,Thu Apr 17 2025 16:32:11 GMT-0500 (Central Daylight Time),298042.90000003576,1200,O,m,733,10,1,1963.6000000238419,296079.3000000119,7130,NTS,B,18
9,19,test,1,B,triangle.png,1,z,Thu Apr 17 2025 16:32:11 GMT-0500 (Central Daylight Time),300175.60000002384,1400,O,z,686,8,1,2112.600000023842,298063.0,7130,NTS,B,19
7,20,test,1,B,triangle.png,1,z,Thu Apr 17 2025 16:32:11 GMT-0500 (Central Daylight Time),302924.60000002384,2000,O,z,707,6,1,2730.5,300194.10000002384,7130,NTS,B,20
6,21,test,1,B,triangle.png,1,m,Thu Apr 17 2025 16:32:11 GMT-0500 (Central Daylight Time),304623.7000000477,1000,O,m,661,5,1,1677.7000000476837,302946.0,7130,NTS,B,21
8,22,test,1,B,triangle.png,1,m,Thu Apr 17 2025 16:32:11 GMT-0500 (Central Daylight Time),306490.60000002384,1200,O,m,634,7,1,1855.8999999761581,304634.7000000477,7130,NTS,B,22
3,23,test,1,B,triangle.png,1,z,Thu Apr 17 2025 16:32:11 GMT-0500 (Central Daylight Time),309539.60000002384,2000,O,z,1000,11,1,3030.100000023842,306509.5,7130,NTS,B,23
2,24,test,1,B,triangle.png,1,m,Thu Apr 17 2025 16:32:11 GMT-0500 (Central Daylight Time),311521.90000003576,1200,O,m,742,10,1,1962.699999988079,309559.2000000477,7130,NTS,B,24
3,0,prac,1,C,triangle.png,0,z,Thu Apr 17 2025 16:32:11 GMT-0500 (Central Daylight Time),343727.3000000119,1500,O,None,1514,3,1,3793.399999976158,339933.90000003576,7130,NTS,B,1
7,0,prac,1,C,triangle.png,0,z,Thu Apr 17 2025 16:32:11 GMT-0500 (Central Daylight Time),347226.7000000477,1200,O,None,1514,6,1,3485.5,343741.2000000477,7130,NTS,B,2
6,1,prac,1,C,circle.png,1,m,Thu Apr 17 2025 16:32:11 GMT-0500 (Central Daylight Time),351075.7000000477,2000,O,m,1039,5,1,3824.400000035763,347251.3000000119,7130,NTS,B,3
7,1,prac,1,C,triangle.png,0,z,Thu Apr 17 2025 16:32:11 GMT-0500 (Central Daylight Time),354257.40000003576,1200,O,m,1167,6,1,3154.800000011921,351102.60000002384,7130,NTS,B,4
9,1,prac,1,C,circle.png,0,m,Thu Apr 17 2025 16:32:11 GMT-0500 (Central Daylight Time),358473.0,1900,O,None,1514,8,1,4199.899999976158,354273.10000002384,7130,NTS,B,5
9,2,prac,1,C,circle.png,1,m,Thu Apr 17 2025 16:32:11 GMT-0500 (Central Daylight Time),362405.10000002384,1900,O,m,1229,8,1,3906.399999976158,358498.7000000477,7130,NTS,B,6
6,3,prac,1,C,circle.png,1,m,Thu Apr 17 2025 16:32:11 GMT-0500 (Central Daylight Time),366004.10000002384,2000,O,m,789,5,1,3574.100000023842,362430.0,7130,NTS,B,7
1,3,prac,1,C,circle.png,0,z,Thu Apr 17 2025 16:32:11 GMT-0500 (Central Daylight Time),370019.2000000477,1700,O,None,1514,1,1,3988.800000011921,366030.40000003576,7130,NTS,B,8
8,3,prac,1,C,triangle.png,0,m,Thu Apr 17 2025 16:32:11 GMT-0500 (Central Daylight Time),373501.60000002384,1400,O,z,1270,7,1,3454.699999988079,370046.90000003576,7130,NTS,B,9
2,3,prac,1,C,triangle.png,0,m,Thu Apr 17 2025 16:32:11 GMT-0500 (Central Daylight Time),377166.90000003576,1600,O,z,1263,2,1,3638.699999988079,373528.2000000477,7130,NTS,B,10
4,3,prac,1,C,circle.png,0,z,Thu Apr 17 2025 16:32:11 GMT-0500 (Central Daylight Time),379965.90000003576,1000,O,m,993,4,1,2773.800000011921,377192.10000002384,7130,NTS,B,11
4,4,prac,1,C,circle.png,1,z,Thu Apr 17 2025 16:32:11 GMT-0500 (Central Daylight Time),383165.10000002384,1000,O,z,1388,4,1,3172.100000023842,379993.0,7130,NTS,B,12
7,1,prac,2,C,triangle.png,1,z,Thu Apr 17 2025 16:32:11 GMT-0500 (Central Daylight Time),399426.7000000477,1200,O,z,865,6,1,2856.2000000476837,396570.5,7130,NTS,B,1
9,1,prac,2,C,circle.png,0,m,Thu Apr 17 2025 16:32:11 GMT-0500 (Central Daylight Time),403641.40000003576,1900,O,None,1514,8,1,4190.100000023842,399451.3000000119,7130,NTS,B,2
4,2,prac,2,C,circle.png,1,z,Thu Apr 17 2025 16:32:11 GMT-0500 (Central Daylight Time),406574.2000000477,1000,O,z,1128,4,1,2906.100000023842,403668.10000002384,7130,NTS,B,3
8,3,prac,2,C,triangle.png,1,m,Thu Apr 17 2025 16:32:11 GMT-0500 (Central Daylight Time),409689.60000002384,1400,O,m,901,7,1,3087.600000023842,406602.0,7130,NTS,B,4
2,3,prac,2,C,triangle.png,0,m,Thu Apr 17 2025 16:32:11 GMT-0500 (Central Daylight Time),413155.0,1600,O,z,1057,2,1,3442.699999988079,409712.3000000119,7130,NTS,B,5
6,4,prac,2,C,circle.png,1,m,Thu Apr 17 2025 16:32:11 GMT-0500 (Central Daylight Time),416887.10000002384,2000,O,m,919,5,1,3706.0,413181.10000002384,7130,NTS,B,6
3,5,prac,2,C,triangle.png,1,z,Thu Apr 17 2025 16:32:11 GMT-0500 (Central Daylight Time),420236.5,1500,O,z,1063,3,1,3335.5,416901.0,7130,NTS,B,7
3,6,prac,2,C,triangle.png,1,z,Thu Apr 17 2025 16:32:11 GMT-0500 (Central Daylight Time),423901.8000000119,1500,O,z,1362,3,1,3638.099999964237,420263.7000000477,7130,NTS,B,8
1,7,prac,2,C,circle.png,1,z,Thu Apr 17 2025 16:32:11 GMT-0500 (Central Daylight Time),427417.10000002384,1700,O,z,1000,1,1,3488.699999988079,423928.40000003576,7130,NTS,B,9
7,7,prac,2,C,triangle.png,0,z,Thu Apr 17 2025 16:32:11 GMT-0500 (Central Daylight Time),430666.40000003576,1200,O,m,1233,6,1,3224.199999988079,427442.2000000477,7130,NTS,B,10
4,8,prac,2,C,circle.png,1,z,Thu Apr 17 2025 16:32:11 GMT-0500 (Central Daylight Time),433680.8000000119,1000,O,z,1207,4,1,2987.300000011921,430693.5,7130,NTS,B,11
1,9,prac,2,C,circle.png,1,z,Thu Apr 17 2025 16:32:11 GMT-0500 (Central Daylight Time),437163.90000003576,1700,O,z,999,1,1,3476.100000023842,433687.8000000119,7130,NTS,B,12
8,0,test,1,C,triangle.png,0,m,Thu Apr 17 2025 16:32:11 GMT-0500 (Central Daylight Time),453924.90000003576,1600,O,z,1189,7,1,2811.100000023842,451113.8000000119,7130,NTS,B,1
9,1,test,1,C,circle.png,1,m,Thu Apr 17 2025 16:32:11 GMT-0500 (Central Daylight Time),456457.5,1500,O,m,1010,24,1,2520.2999999523163,453937.2000000477,7130,NTS,B,2
4,2,test,1,C,circle.png,1,z,Thu Apr 17 2025 16:32:11 GMT-0500 (Central Daylight Time),459339.90000003576,1400,O,z,1441,4,1,2863.199999988079,456476.7000000477,7130,NTS,B,3
7,3,test,1,C,triangle.png,1,z,Thu Apr 17 2025 16:32:11 GMT-0500 (Central Daylight Time),462522.3000000119,1700,O,z,1442,6,1,3162.800000011921,459359.5,7130,NTS,B,4
7,4,test,1,C,triangle.png,1,z,Thu Apr 17 2025 16:32:11 GMT-0500 (Central Daylight Time),465104.8000000119,1700,O,z,844,22,1,2563.699999988079,462541.10000002384,7130,NTS,B,5
9,5,test,1,C,circle.png,1,m,Thu Apr 17 2025 16:32:11 GMT-0500 (Central Daylight Time),467787.10000002384,1500,O,m,1144,8,1,2661.5,465125.60000002384,7130,NTS,B,6
8,6,test,1,C,circle.png,1,m,Thu Apr 17 2025 16:32:11 GMT-0500 (Central Daylight Time),469820.10000002384,1200,O,m,782,15,1,2013.3999999761581,467806.7000000477,7130,NTS,B,7
6,7,test,1,C,circle.png,1,m,Thu Apr 17 2025 16:32:11 GMT-0500 (Central Daylight Time),472735.90000003576,1900,O,m,979,5,1,2896.699999988079,469839.2000000477,7130,NTS,B,8
1,8,test,1,C,triangle.png,1,z,Thu Apr 17 2025 16:32:11 GMT-0500 (Central Daylight Time),475901.3000000119,1900,O,z,1223,17,1,3145.5,472755.8000000119,7130,NTS,B,9
1,8,test,1,C,circle.png,0,z,Thu Apr 17 2025 16:32:11 GMT-0500 (Central Daylight Time),478450.40000003576,1000,O,None,1514,1,1,2528.100000023842,475922.3000000119,7130,NTS,B,10
2,8,test,1,C,triangle.png,0,m,Thu Apr 17 2025 16:32:11 GMT-0500 (Central Daylight Time),481715.40000003576,2000,O,z,1223,2,1,3246.900000035763,478468.5,7130,NTS,B,11
6,9,test,1,C,triangle.png,1,m,Thu Apr 17 2025 16:32:11 GMT-0500 (Central Daylight Time),483948.7000000477,1000,O,m,1199,13,1,2221.900000035763,481726.8000000119,7130,NTS,B,12
8,10,test,1,C,triangle.png,1,m,Thu Apr 17 2025 16:32:11 GMT-0500 (Central Daylight Time),486414.40000003576,1600,O,m,830,23,1,2444.699999988079,483969.7000000477,7130,NTS,B,13
3,10,test,1,C,circle.png,0,z,Thu Apr 17 2025 16:32:11 GMT-0500 (Central Daylight Time),489563.60000002384,1600,O,None,1514,19,1,3129.300000011921,486434.3000000119,7130,NTS,B,14
3,11,test,1,C,triangle.png,1,z,Thu Apr 17 2025 16:32:11 GMT-0500 (Central Daylight Time),492062.7000000477,1200,O,z,1255,3,1,2477.0,489585.7000000477,7130,NTS,B,15
1,12,test,1,C,triangle.png,1,z,Thu Apr 17 2025 16:32:11 GMT-0500 (Central Daylight Time),494894.8000000119,1900,O,z,896,9,1,2812.300000011921,492082.5,7130,NTS,B,16
6,13,test,1,C,circle.png,1,m,Thu Apr 17 2025 16:32:11 GMT-0500 (Central Daylight Time),497993.90000003576,1900,O,m,1160,21,1,3080.0,494913.90000003576,7130,NTS,B,17
4,13,test,1,C,triangle.png,0,m,Thu Apr 17 2025 16:32:11 GMT-0500 (Central Daylight Time),500826.3000000119,1500,O,z,1292,20,1,2812.099999964237,498014.2000000477,7130,NTS,B,18
4,14,test,1,C,triangle.png,1,m,Thu Apr 17 2025 16:32:11 GMT-0500 (Central Daylight Time),503692.40000003576,1500,O,m,1315,12,1,2844.400000035763,500848.0,7130,NTS,B,19
2,15,test,1,C,circle.png,1,z,Thu Apr 17 2025 16:32:11 GMT-0500 (Central Daylight Time),506691.3000000119,1700,O,z,1259,18,1,2978.399999976158,503712.90000003576,7130,NTS,B,20
3,16,test,1,C,circle.png,1,z,Thu Apr 17 2025 16:32:11 GMT-0500 (Central Daylight Time),509673.8000000119,1600,O,z,1335,11,1,2963.699999988079,506710.10000002384,7130,NTS,B,21
2,17,test,1,C,circle.png,1,z,Thu Apr 17 2025 16:32:11 GMT-0500 (Central Daylight Time),512272.60000002384,1700,O,z,862,10,1,2578.699999988079,509693.90000003576,7130,NTS,B,22
7,18,test,1,C,circle.png,1,m,Thu Apr 17 2025 16:32:11 GMT-0500 (Central Daylight Time),515638.2000000477,2000,O,m,1330,14,1,3346.300000011921,512291.90000003576,7130,NTS,B,23
9,18,test,1,C,triangle.png,0,z,Thu Apr 17 2025 16:32:11 GMT-0500 (Central Daylight Time),518537.3000000119,1400,O,m,1452,16,1,2879.399999976158,515657.90000003576,7130,NTS,B,24
1,1,test,2,C,triangle.png,1,z,Thu Apr 17 2025 16:32:11 GMT-0500 (Central Daylight Time),526117.4000000358,1900,O,z,870,9,1,2797.5,523319.90000003576,7130,NTS,B,1
6,2,test,2,C,triangle.png,1,m,Thu Apr 17 2025 16:32:11 GMT-0500 (Central Daylight Time),528416.6000000238,1000,O,m,1268,13,1,2293.800000011921,526122.8000000119,7130,NTS,B,2
9,2,test,2,C,triangle.png,0,z,Thu Apr 17 2025 16:32:11 GMT-0500 (Central Daylight Time),531066.5,1400,O,m,1226,24,1,2644.5,528422.0,7130,NTS,B,3
3,3,test,2,C,triangle.png,1,z,Thu Apr 17 2025 16:32:11 GMT-0500 (Central Daylight Time),533516.0,1200,O,z,1200,3,1,2430.899999976158,531085.1000000238,7130,NTS,B,4
1,3,test,2,C,circle.png,0,z,Thu Apr 17 2025 16:32:11 GMT-0500 (Central Daylight Time),536064.8000000119,1000,O,None,1515,1,1,2529.699999988079,533535.1000000238,7130,NTS,B,5
4,3,test,2,C,triangle.png,0,m,Thu Apr 17 2025 16:32:11 GMT-0500 (Central Daylight Time),539113.7000000477,1500,O,None,1515,12,1,3028.7000000476837,536085.0,7130,NTS,B,6
9,4,test,2,C,circle.png,1,m,Thu Apr 17 2025 16:32:11 GMT-0500 (Central Daylight Time),541729.2000000477,1500,O,m,1068,8,1,2598.300000011921,539130.9000000358,7130,NTS,B,7
8,5,test,2,C,circle.png,1,m,Thu Apr 17 2025 16:32:11 GMT-0500 (Central Daylight Time),543495.8000000119,1200,O,m,537,23,1,1755.699999988079,541740.1000000238,7130,NTS,B,8
8,6,test,2,C,circle.png,1,m,Thu Apr 17 2025 16:32:11 GMT-0500 (Central Daylight Time),545428.1000000238,1200,O,m,698,15,1,1912.1000000238419,543516.0,7130,NTS,B,9
8,7,test,2,C,triangle.png,1,m,Thu Apr 17 2025 16:32:11 GMT-0500 (Central Daylight Time),548510.7000000477,1600,O,m,1463,7,1,3075.900000035763,545434.8000000119,7130,NTS,B,10
3,8,test,2,C,circle.png,1,z,Thu Apr 17 2025 16:32:11 GMT-0500 (Central Daylight Time),551460.4000000358,1600,O,z,1308,19,1,2929.900000035763,548530.5,7130,NTS,B,11
2,9,test,2,C,circle.png,1,z,Thu Apr 17 2025 16:32:11 GMT-0500 (Central Daylight Time),553925.7000000477,1700,O,z,730,18,1,2437.2000000476837,551488.5,7130,NTS,B,12
2,10,test,2,C,circle.png,1,z,Thu Apr 17 2025 16:32:11 GMT-0500 (Central Daylight Time),556591.6000000238,1700,O,z,921,10,1,2646.0,553945.6000000238,7130,NTS,B,13
7,11,test,2,C,circle.png,1,m,Thu Apr 17 2025 16:32:11 GMT-0500 (Central Daylight Time),559973.9000000358,2000,O,m,1347,22,1,3362.300000011921,556611.6000000238,7130,NTS,B,14
6,12,test,2,C,circle.png,1,m,Thu Apr 17 2025 16:32:11 GMT-0500 (Central Daylight Time),563072.5,1900,O,m,1159,5,1,3078.899999976158,559993.6000000238,7130,NTS,B,15
9,12,test,2,C,triangle.png,0,z,Thu Apr 17 2025 16:32:11 GMT-0500 (Central Daylight Time),565905.2000000477,1400,O,m,1386,16,1,2811.800000011921,563093.4000000358,7130,NTS,B,16
2,12,test,2,C,triangle.png,0,m,Thu Apr 17 2025 16:32:11 GMT-0500 (Central Daylight Time),569153.9000000358,2000,O,z,1212,2,1,3228.699999988079,565925.2000000477,7130,NTS,B,17
4,13,test,2,C,circle.png,1,z,Thu Apr 17 2025 16:32:11 GMT-0500 (Central Daylight Time),572053.2000000477,1400,O,z,1449,4,1,2880.300000011921,569172.9000000358,7130,NTS,B,18
1,14,test,2,C,triangle.png,1,z,Thu Apr 17 2025 16:32:11 GMT-0500 (Central Daylight Time),575385.3000000119,1900,O,z,1385,17,1,3315.0,572070.3000000119,7130,NTS,B,19
7,15,test,2,C,circle.png,1,m,Thu Apr 17 2025 16:32:11 GMT-0500 (Central Daylight Time),578901.8000000119,2000,O,m,1481,14,1,3496.699999988079,575405.1000000238,7130,NTS,B,20
4,16,test,2,C,triangle.png,1,m,Thu Apr 17 2025 16:32:11 GMT-0500 (Central Daylight Time),581799.3000000119,1500,O,m,1354,20,1,2877.800000011921,578921.5,7130,NTS,B,21
6,16,test,2,C,triangle.png,0,m,Thu Apr 17 2025 16:32:11 GMT-0500 (Central Daylight Time),584332.4000000358,1000,O,None,1514,21,1,2523.300000011921,581809.1000000238,7130,NTS,B,22
7,17,test,2,C,triangle.png,1,z,Thu Apr 17 2025 16:32:11 GMT-0500 (Central Daylight Time),587098.1000000238,1700,O,z,1018,6,1,2745.199999988079,584352.9000000358,7130,NTS,B,23
3,18,test,2,C,circle.png,1,z,Thu Apr 17 2025 16:32:11 GMT-0500 (Central Daylight Time),590180.4000000358,1600,O,z,1432,11,1,3063.300000011921,587117.1000000238,7130,NTS,B,24
8,1,test,3,C,circle.png,1,m,Thu Apr 17 2025 16:32:11 GMT-0500 (Central Daylight Time),594545.9000000358,1200,O,m,1093,15,1,2315.0,592230.9000000358,7130,NTS,B,1
9,1,test,3,C,triangle.png,0,z,Thu Apr 17 2025 16:32:11 GMT-0500 (Central Daylight Time),597494.9000000358,1400,O,None,1515,16,1,2928.100000023842,594566.8000000119,7130,NTS,B,2
3,2,test,3,C,circle.png,1,z,Thu Apr 17 2025 16:32:11 GMT-0500 (Central Daylight Time),600077.1000000238,1600,O,z,939,11,1,2560.699999988079,597516.4000000358,7130,NTS,B,3
7,2,test,3,C,circle.png,0,m,Thu Apr 17 2025 16:32:11 GMT-0500 (Central Daylight Time),603626.1000000238,2000,O,None,1515,14,1,3530.199999988079,600095.9000000358,7130,NTS,B,4
8,3,test,3,C,triangle.png,1,m,Thu Apr 17 2025 16:32:11 GMT-0500 (Central Daylight Time),606658.1000000238,1600,O,m,1384,7,1,3010.5,603647.6000000238,7130,NTS,B,5
7,4,test,3,C,triangle.png,1,z,Thu Apr 17 2025 16:32:11 GMT-0500 (Central Daylight Time),609324.1000000238,1700,O,z,924,6,1,2645.899999976158,606678.2000000477,7130,NTS,B,6
6,5,test,3,C,triangle.png,1,m,Thu Apr 17 2025 16:32:11 GMT-0500 (Central Daylight Time),611790.3000000119,1000,O,m,1430,13,1,2445.699999988079,609344.6000000238,7130,NTS,B,7
8,6,test,3,C,triangle.png,1,m,Thu Apr 17 2025 16:32:11 GMT-0500 (Central Daylight Time),614505.8000000119,1600,O,m,1077,23,1,2697.0,611808.8000000119,7130,NTS,B,8
4,7,test,3,C,circle.png,1,z,Thu Apr 17 2025 16:32:11 GMT-0500 (Central Daylight Time),617055.1000000238,1400,O,z,1105,4,1,2530.100000023842,614525.0,7130,NTS,B,9
9,8,test,3,C,circle.png,1,m,Thu Apr 17 2025 16:32:11 GMT-0500 (Central Daylight Time),619870.3000000119,1500,O,m,1280,24,1,2795.0,617075.3000000119,7130,NTS,B,10
4,9,test,3,C,circle.png,1,z,Thu Apr 17 2025 16:32:11 GMT-0500 (Central Daylight Time),622470.0,1400,O,z,1156,20,1,2581.0,619889.0,7130,NTS,B,11
2,9,test,3,C,triangle.png,0,m,Thu Apr 17 2025 16:32:11 GMT-0500 (Central Daylight Time),625902.0,2000,O,z,1389,18,1,3413.099999964237,622488.9000000358,7130,NTS,B,12
2,9,test,3,C,triangle.png,0,m,Thu Apr 17 2025 16:32:11 GMT-0500 (Central Daylight Time),629450.7000000477,2000,O,None,1515,2,1,3530.600000023842,625920.1000000238,7130,NTS,B,13
3,10,test,3,C,triangle.png,1,z,Thu Apr 17 2025 16:32:11 GMT-0500 (Central Daylight Time),631866.7000000477,1200,O,z,1175,19,1,2395.100000023842,629471.6000000238,7130,NTS,B,14
1,11,test,3,C,circle.png,1,z,Thu Apr 17 2025 16:32:11 GMT-0500 (Central Daylight Time),634299.4000000358,1000,O,z,1383,17,1,2413.0,631886.4000000358,7130,NTS,B,15
6,12,test,3,C,circle.png,1,m,Thu Apr 17 2025 16:32:11 GMT-0500 (Central Daylight Time),637398.1000000238,1900,O,m,1164,21,1,3079.399999976158,634318.7000000477,7130,NTS,B,16
9,13,test,3,C,circle.png,1,m,Thu Apr 17 2025 16:32:11 GMT-0500 (Central Daylight Time),639764.2000000477,1500,O,m,824,8,1,2345.5,637418.7000000477,7130,NTS,B,17
2,13,test,3,C,circle.png,0,z,Thu Apr 17 2025 16:32:11 GMT-0500 (Central Daylight Time),643013.3000000119,1700,O,None,1515,10,1,3228.899999976158,639784.4000000358,7130,NTS,B,18
1,14,test,3,C,triangle.png,1,z,Thu Apr 17 2025 16:32:11 GMT-0500 (Central Daylight Time),646061.9000000358,1900,O,z,1105,9,1,3028.600000023842,643033.3000000119,7130,NTS,B,19
4,14,test,3,C,triangle.png,0,m,Thu Apr 17 2025 16:32:11 GMT-0500 (Central Daylight Time),649111.0,1500,O,None,1514,12,1,3030.5,646080.5,7130,NTS,B,20
3,15,test,3,C,triangle.png,1,z,Thu Apr 17 2025 16:32:11 GMT-0500 (Central Daylight Time),651476.7000000477,1200,O,z,1115,3,1,2346.300000011921,649130.4000000358,7130,NTS,B,21
1,16,test,3,C,circle.png,1,z,Thu Apr 17 2025 16:32:11 GMT-0500 (Central Daylight Time),653809.7000000477,1000,O,z,1293,1,1,2308.400000035763,651501.3000000119,7130,NTS,B,22
7,16,test,3,C,triangle.png,0,z,Thu Apr 17 2025 16:32:11 GMT-0500 (Central Daylight Time),657058.8000000119,1700,O,None,1515,22,1,3227.599999964237,653831.2000000477,7130,NTS,B,23
6,17,test,3,C,circle.png,1,m,Thu Apr 17 2025 16:32:11 GMT-0500 (Central Daylight Time),660057.5,1900,O,m,1052,5,1,2980.199999988079,657077.3000000119,7130,NTS,B,24
4,0,test,4,C,circle.png,0,z,Thu Apr 17 2025 16:32:11 GMT-0500 (Central Daylight Time),665506.2000000477,1400,O,m,1160,20,1,2581.600000023842,662924.6000000238,7130,NTS,B,1
6,0,test,4,C,triangle.png,0,m,Thu Apr 17 2025 16:32:11 GMT-0500 (Central Daylight Time),668055.0,1000,O,None,1514,13,1,2529.099999964237,665525.9000000358,7130,NTS,B,2
9,0,test,4,C,circle.png,0,m,Thu Apr 17 2025 16:32:11 GMT-0500 (Central Daylight Time),671104.3000000119,1500,O,None,1514,24,1,3031.899999976158,668072.4000000358,7130,NTS,B,3
3,1,test,4,C,triangle.png,1,z,Thu Apr 17 2025 16:32:11 GMT-0500 (Central Daylight Time),673320.2000000477,1200,O,z,978,19,1,2191.7000000476837,671128.5,7130,NTS,B,4
2,2,test,4,C,circle.png,1,z,Thu Apr 17 2025 16:32:11 GMT-0500 (Central Daylight Time),676285.8000000119,1700,O,z,1231,10,1,2945.399999976158,673340.4000000358,7130,NTS,B,5
7,2,test,4,C,triangle.png,0,z,Thu Apr 17 2025 16:32:11 GMT-0500 (Central Daylight Time),679534.5,1700,O,None,1514,6,1,3229.399999976158,676305.1000000238,7130,NTS,B,6
9,3,test,4,C,triangle.png,1,z,Thu Apr 17 2025 16:32:11 GMT-0500 (Central Daylight Time),682217.0,1400,O,z,1236,16,1,2661.899999976158,679555.1000000238,7130,NTS,B,7
8,3,test,4,C,triangle.png,0,m,Thu Apr 17 2025 16:32:11 GMT-0500 (Central Daylight Time),685082.6000000238,1600,O,z,1226,23,1,2846.699999988079,682235.9000000358,7130,NTS,B,8
7,3,test,4,C,triangle.png,0,z,Thu Apr 17 2025 16:32:11 GMT-0500 (Central Daylight Time),688331.6000000238,1700,O,None,1514,22,1,3229.199999988079,685102.4000000358,7130,NTS,B,9
4,3,test,4,C,circle.png,0,z,Thu Apr 17 2025 16:32:11 GMT-0500 (Central Daylight Time),690647.8000000119,1400,O,m,871,4,1,2298.199999988079,688349.6000000238,7130,NTS,B,10
1,4,test,4,C,circle.png,1,z,Thu Apr 17 2025 16:32:11 GMT-0500 (Central Daylight Time),693030.2000000477,1000,O,z,1341,17,1,2362.400000035763,690667.8000000119,7130,NTS,B,11
2,4,test,4,C,triangle.png,0,m,Thu Apr 17 2025 16:32:11 GMT-0500 (Central Daylight Time),696578.8000000119,2000,O,None,1515,18,1,3528.899999976158,693049.9000000358,7130,NTS,B,12
1,5,test,4,C,triangle.png,1,z,Thu Apr 17 2025 16:32:11 GMT-0500 (Central Daylight Time),699694.2000000477,1900,O,z,1180,9,1,3095.800000011921,696598.4000000358,7130,NTS,B,13
6,6,test,4,C,circle.png,1,m,Thu Apr 17 2025 16:32:11 GMT-0500 (Central Daylight Time),702676.9000000358,1900,O,m,1040,21,1,2963.600000023842,699713.3000000119,7130,NTS,B,14
4,7,test,4,C,triangle.png,1,m,Thu Apr 17 2025 16:32:11 GMT-0500 (Central Daylight Time),705609.3000000119,1500,O,m,1394,12,1,2913.699999988079,702695.6000000238,7130,NTS,B,15
3,8,test,4,C,circle.png,1,z,Thu Apr 17 2025 16:32:11 GMT-0500 (Central Daylight Time),708325.0,1600,O,z,1073,11,1,2697.0,705628.0,7130,NTS,B,16
3,9,test,4,C,triangle.png,1,z,Thu Apr 17 2025 16:32:11 GMT-0500 (Central Daylight Time),710674.1000000238,1200,O,z,1109,3,1,2329.399999976158,708344.7000000477,7130,NTS,B,17
7,10,test,4,C,circle.png,1,m,Thu Apr 17 2025 16:32:11 GMT-0500 (Central Daylight Time),714006.3000000119,2000,O,m,1298,14,1,3312.199999988079,710694.1000000238,7130,NTS,B,18
8,11,test,4,C,circle.png,1,m,Thu Apr 17 2025 16:32:11 GMT-0500 (Central Daylight Time),716122.5,1200,O,m,868,15,1,2096.399999976158,714026.1000000238,7130,NTS,B,19
8,11,test,4,C,triangle.png,0,m,Thu Apr 17 2025 16:32:11 GMT-0500 (Central Daylight Time),719021.6000000238,1600,O,z,1256,7,1,2880.0,716141.6000000238,7130,NTS,B,20
6,12,test,4,C,circle.png,1,m,Thu Apr 17 2025 16:32:11 GMT-0500 (Central Daylight Time),721954.0,1900,O,m,985,5,1,2914.899999976158,719039.1000000238,7130,NTS,B,21
1,13,test,4,C,circle.png,1,z,Thu Apr 17 2025 16:32:11 GMT-0500 (Central Daylight Time),724253.3000000119,1000,O,z,1256,1,1,2279.699999988079,721973.6000000238,7130,NTS,B,22
2,13,test,4,C,triangle.png,0,m,Thu Apr 17 2025 16:32:11 GMT-0500 (Central Daylight Time),727635.4000000358,2000,O,z,1342,2,1,3359.800000011921,724275.6000000238,7130,NTS,B,23
9,14,test,4,C,circle.png,1,m,Thu Apr 17 2025 16:32:11 GMT-0500 (Central Daylight Time),730285.1000000238,1500,O,m,1115,8,1,2629.899999976158,727655.2000000477,7130,NTS,B,24
