Q,Q1,Q2,Q3,Q4,acc_sum,block,block_c,correct,correct_response,datetime,endtime,project,response,response_time,row_sel,session_number,squiggle1,squiggle1x,squiggle1y,squiggle2,squiggle2x,squiggle2y,squiggle3,squiggle3x,squiggle3y,squiggle4,squiggle4x,squiggle4y,start_end,starttime,subject_id,target_congruent,task,task_vers,testsquiggle,testsquigglex,testsquiggley,time_practice_delay,time_practice_fixation,time_practice_stimuli,time_practice_study,time_test_delay,time_test_fixation,time_test_stimuli,time_test_study,trial
1,1,0,0,0,1,prac,1,1,z,Tue Apr 22 2025 18:43:53 GMT-0500 (Central Daylight Time),101273.89999997616,I,z,877,1,2,66.bmp,-120,-120,67.bmp,120,-120,68.bmp,-120,120,69.bmp,120,120,9694.09999999404,91579.79999998212,8019,yes,SM,C,66.bmp,-120,-120,93975,87947,95992,89960,,,,,1
3,0,0,1,0,2,prac,1,1,m,Tue Apr 22 2025 18:43:53 GMT-0500 (Central Daylight Time),111837.29999998212,I,m,1733,2,2,70.bmp,-120,-120,71.bmp,120,-120,72.bmp,-120,120,73.bmp,120,120,10559.59999999404,101277.69999998808,8019,no,SM,C,73.bmp,-120,120,103672,97645,105689,99657,,,,,2
4,0,0,0,1,3,prac,1,1,m,Tue Apr 22 2025 18:43:53 GMT-0500 (Central Daylight Time),122067.39999997616,I,m,1401,3,2,74.bmp,-120,-120,75.bmp,120,-120,76.bmp,-120,120,77.bmp,120,120,10226.399999976158,111841.0,8019,no,SM,C,74.bmp,120,120,114236,108208,116252,110220,,,,,3
2,0,1,0,0,3,prac,1,0,z,Tue Apr 22 2025 18:43:53 GMT-0500 (Central Daylight Time),132564.0,I,m,1667,4,2,78.bmp,-120,-120,79.bmp,120,-120,80.bmp,-120,120,81.bmp,120,120,10493.40000000596,122070.59999999404,8019,yes,SM,C,79.bmp,120,-120,124466,118438,126482,120451,,,,,4
3,0,0,1,0,4,prac,1,1,z,Tue Apr 22 2025 18:43:53 GMT-0500 (Central Daylight Time),142560.89999997616,I,z,1170,5,2,82.bmp,-120,-120,83.bmp,120,-120,84.bmp,-120,120,85.bmp,120,120,9993.399999976158,132567.5,8019,yes,SM,C,84.bmp,-120,120,134963,128935,136979,130947,,,,,5
1,1,0,0,0,5,prac,1,1,m,Tue Apr 22 2025 18:43:53 GMT-0500 (Central Daylight Time),153090.89999997616,I,m,1709,6,2,86.bmp,-120,-120,87.bmp,120,-120,88.bmp,-120,120,89.bmp,120,120,10526.59999999404,142564.29999998212,8019,no,SM,C,89.bmp,-120,-120,144959,138932,146976,140944,,,,,6
2,0,1,0,0,6,prac,1,1,m,Tue Apr 22 2025 18:43:53 GMT-0500 (Central Daylight Time),163621.0,I,m,1707,7,2,90.bmp,-120,-120,91.bmp,120,-120,92.bmp,-120,120,93.bmp,120,120,10526.5,153094.5,8019,no,SM,C,90.bmp,120,-120,155490,149462,157506,151474,,,,,7
4,0,0,0,1,6,prac,1,0,z,Tue Apr 22 2025 18:43:53 GMT-0500 (Central Daylight Time),174317.5,I,m,1881,8,2,94.bmp,-120,-120,95.bmp,120,-120,96.bmp,-120,120,97.bmp,120,120,10692.700000017881,163624.79999998212,8019,yes,SM,C,97.bmp,120,120,166020,159992,168036,162004,,,,,8
4,0,0,0,1,1,test,1,1,m,Tue Apr 22 2025 18:43:53 GMT-0500 (Central Daylight Time),190196.0,I,m,1526,1,2,98.bmp,-120,-120,99.bmp,120,-120,100.bmp,-120,120,93.bmp,120,120,9577.700000017881,180618.29999998212,8019,yes,SM,C,100.bmp,120,120,166020,159992,168036,162004,183014.0,176986.0,185031.0,178999.0,1
2,0,1,0,0,2,test,1,1,m,Tue Apr 22 2025 18:43:53 GMT-0500 (Central Daylight Time),199743.0,I,m,1490,2,2,51.bmp,-120,-120,52.bmp,120,-120,53.bmp,-120,120,54.bmp,120,120,9543.100000023842,190199.89999997616,8019,yes,SM,C,53.bmp,120,-120,166020,159992,168036,162004,192595.0,186567.0,194611.0,188580.0,2
1,1,0,0,0,3,test,1,1,z,Tue Apr 22 2025 18:43:53 GMT-0500 (Central Daylight Time),209283.19999998808,I,z,1492,3,2,55.bmp,-120,-120,56.bmp,120,-120,57.bmp,-120,120,58.bmp,120,120,9536.90000000596,199746.29999998212,8019,yes,SM,C,55.bmp,-120,-120,166020,159992,168036,162004,202141.0,196114.0,204158.0,198126.0,3
3,0,0,1,0,4,test,1,1,m,Tue Apr 22 2025 18:43:53 GMT-0500 (Central Daylight Time),218870.69999998808,I,m,1550,4,2,59.bmp,-120,-120,60.bmp,120,-120,61.bmp,-120,120,62.bmp,120,120,9583.90000000596,209286.79999998212,8019,yes,SM,C,59.bmp,-120,120,166020,159992,168036,162004,211672.0,205654.0,213688.0,207657.0,4
2,0,1,0,0,5,test,1,1,z,Tue Apr 22 2025 18:43:53 GMT-0500 (Central Daylight Time),228367.09999999404,I,z,1449,5,2,63.bmp,-120,-120,64.bmp,120,-120,65.bmp,-120,120,66.bmp,120,120,9493.0,218874.09999999404,8019,yes,SM,C,64.bmp,120,-120,166020,159992,168036,162004,221269.0,215241.0,223285.0,217254.0,5
3,0,0,1,0,6,test,1,1,z,Tue Apr 22 2025 18:43:53 GMT-0500 (Central Daylight Time),237614.39999997616,I,z,1184,6,2,67.bmp,-120,-120,68.bmp,120,-120,69.bmp,-120,120,70.bmp,120,120,9244.299999982119,228370.09999999404,8019,yes,SM,C,69.bmp,-120,120,166020,159992,168036,162004,230766.0,224737.0,232782.0,226751.0,6
4,0,0,0,1,6,test,1,0,z,Tue Apr 22 2025 18:43:53 GMT-0500 (Central Daylight Time),247677.79999998212,I,None,2015,7,2,71.bmp,-120,-120,72.bmp,120,-120,73.bmp,-120,120,74.bmp,120,120,10060.299999982119,237617.5,8019,yes,SM,C,74.bmp,120,120,166020,159992,168036,162004,240013.0,233985.0,242030.0,235998.0,7
2,0,1,0,0,7,test,1,1,m,Tue Apr 22 2025 18:43:53 GMT-0500 (Central Daylight Time),257591.5,I,m,1856,8,2,75.bmp,-120,-120,76.bmp,120,-120,77.bmp,-120,120,78.bmp,120,120,9910.600000023842,247680.89999997616,8019,yes,SM,C,75.bmp,120,-120,166020,159992,168036,162004,250076.0,244048.0,252093.0,246061.0,8
3,0,0,1,0,8,test,1,1,m,Tue Apr 22 2025 18:43:53 GMT-0500 (Central Daylight Time),267338.39999997616,I,m,1687,9,2,79.bmp,-120,-120,80.bmp,120,-120,81.bmp,-120,120,82.bmp,120,120,9743.199999988079,257595.19999998808,8019,yes,SM,C,80.bmp,-120,120,166020,159992,168036,162004,259990.0,253962.0,262007.0,255975.0,9
4,0,0,0,1,9,test,1,1,z,Tue Apr 22 2025 18:43:53 GMT-0500 (Central Daylight Time),276719.0,I,z,1323,10,2,87.bmp,-120,-120,88.bmp,120,-120,89.bmp,-120,120,90.bmp,120,120,9377.40000000596,267341.59999999404,8019,yes,SM,C,90.bmp,120,120,166020,159992,168036,162004,269737.0,263709.0,271754.0,265722.0,10
3,0,0,1,0,9,test,1,0,z,Tue Apr 22 2025 18:43:53 GMT-0500 (Central Daylight Time),286782.6999999881,I,None,2016,11,2,83.bmp,-120,-120,84.bmp,120,-120,85.bmp,-120,120,86.bmp,120,120,10058.09999999404,276724.59999999404,8019,yes,SM,C,85.bmp,-120,120,166020,159992,168036,162004,279117.0,273092.0,281134.0,275103.0,11
2,0,1,0,0,10,test,1,1,m,Tue Apr 22 2025 18:43:53 GMT-0500 (Central Daylight Time),296496.0,I,m,1664,12,2,91.bmp,-120,-120,92.bmp,120,-120,93.bmp,-120,120,94.bmp,120,120,9709.200000017881,286786.7999999821,8019,yes,SM,C,91.bmp,120,-120,166020,159992,168036,162004,289181.0,283154.0,291197.0,285166.0,12
3,0,0,1,0,11,test,1,1,m,Tue Apr 22 2025 18:43:53 GMT-0500 (Central Daylight Time),305876.5,I,m,1326,13,2,95.bmp,-120,-120,96.bmp,120,-120,97.bmp,-120,120,98.bmp,120,120,9377.200000017881,296499.2999999821,8019,yes,SM,C,96.bmp,-120,120,166020,159992,168036,162004,298895.0,292866.0,300911.0,294879.0,13
1,1,0,0,0,12,test,1,1,z,Tue Apr 22 2025 18:43:53 GMT-0500 (Central Daylight Time),315406.7999999821,I,z,1483,14,2,99.bmp,-120,-120,100.bmp,120,-120,54.bmp,-120,120,51.bmp,120,120,9526.799999982119,305880.0,8019,yes,SM,C,99.bmp,-120,-120,166020,159992,168036,162004,308275.0,302247.0,310291.0,304260.0,14
4,0,0,0,1,12,test,1,0,m,Tue Apr 22 2025 18:43:53 GMT-0500 (Central Daylight Time),325470.5,I,None,2015,15,2,60.bmp,-120,-120,61.bmp,120,-120,62.bmp,-120,120,63.bmp,120,120,10060.5,315410.0,8019,yes,SM,C,61.bmp,120,120,166020,159992,168036,162004,317806.0,311777.0,319822.0,313790.0,15
1,1,0,0,0,13,test,1,1,m,Tue Apr 22 2025 18:43:53 GMT-0500 (Central Daylight Time),334785.09999999404,I,m,1264,16,2,52.bmp,-120,-120,53.bmp,120,-120,54.bmp,-120,120,55.bmp,120,120,9311.0,325474.09999999404,8019,yes,SM,C,55.bmp,-120,-120,166020,159992,168036,162004,327869.0,321841.0,329885.0,323854.0,16
3,0,0,1,0,14,test,1,1,m,Tue Apr 22 2025 18:43:53 GMT-0500 (Central Daylight Time),344697.7999999821,I,m,1855,17,2,72.bmp,-120,-120,73.bmp,120,-120,74.bmp,-120,120,75.bmp,120,120,9909.0,334788.7999999821,8019,yes,SM,C,72.bmp,-120,120,166020,159992,168036,162004,337184.0,331156.0,339199.0,333168.0,17
1,1,0,0,0,15,test,1,1,z,Tue Apr 22 2025 18:43:53 GMT-0500 (Central Daylight Time),353811.5,I,z,1061,18,2,56.bmp,-120,-120,57.bmp,120,-120,58.bmp,-120,120,59.bmp,120,120,9110.600000023842,344700.89999997616,8019,yes,SM,C,56.bmp,-120,-120,166020,159992,168036,162004,347096.0,341068.0,349113.0,343081.0,18
2,0,1,0,0,16,test,1,1,z,Tue Apr 22 2025 18:43:53 GMT-0500 (Central Daylight Time),363775.09999999404,I,z,1899,19,2,76.bmp,-120,-120,77.bmp,120,-120,78.bmp,-120,120,79.bmp,120,120,9960.300000011921,353814.7999999821,8019,yes,SM,C,77.bmp,120,-120,166020,159992,168036,162004,356210.0,350182.0,358227.0,352195.0,19
3,0,0,1,0,17,test,1,1,z,Tue Apr 22 2025 18:43:53 GMT-0500 (Central Daylight Time),372588.89999997616,I,z,751,20,2,80.bmp,-120,-120,81.bmp,120,-120,82.bmp,-120,120,83.bmp,120,120,8811.0,363777.89999997616,8019,yes,SM,C,82.bmp,-120,120,166020,159992,168036,162004,366174.0,360145.0,368190.0,362159.0,20
1,1,0,0,0,18,test,1,1,m,Tue Apr 22 2025 18:43:53 GMT-0500 (Central Daylight Time),381886.09999999404,I,m,1242,21,2,64.bmp,-120,-120,65.bmp,120,-120,66.bmp,-120,120,67.bmp,120,120,9294.200000017881,372591.89999997616,8019,yes,SM,C,66.bmp,-120,-120,166020,159992,168036,162004,374987.0,368959.0,377004.0,370973.0,21
4,0,0,0,1,19,test,1,1,z,Tue Apr 22 2025 18:43:53 GMT-0500 (Central Daylight Time),391666.2999999821,I,z,1729,22,2,68.bmp,-120,-120,69.bmp,120,-120,70.bmp,-120,120,71.bmp,120,120,9777.09999999404,381889.1999999881,8019,yes,SM,C,71.bmp,120,120,166020,159992,168036,162004,384285.0,378256.0,386301.0,380270.0,22
1,1,0,0,0,19,test,1,0,m,Tue Apr 22 2025 18:43:53 GMT-0500 (Central Daylight Time),401713.39999997616,I,None,2015,23,2,84.bmp,-120,-120,85.bmp,120,-120,86.bmp,-120,120,87.bmp,120,120,10044.09999999404,391669.2999999821,8019,yes,SM,C,87.bmp,-120,-120,166020,159992,168036,162004,394060.0,388037.0,396065.0,390050.0,23
2,0,1,0,0,20,test,1,1,z,Tue Apr 22 2025 18:43:53 GMT-0500 (Central Daylight Time),411726.5,I,z,1957,24,2,92.bmp,-120,-120,93.bmp,120,-120,94.bmp,-120,120,95.bmp,120,120,10009.200000017881,401717.2999999821,8019,yes,SM,C,93.bmp,120,-120,166020,159992,168036,162004,404112.0,398085.0,406128.0,400097.0,24
4,0,0,0,1,21,test,1,1,m,Tue Apr 22 2025 18:43:53 GMT-0500 (Central Daylight Time),421258.5,I,m,1474,25,2,96.bmp,-120,-120,97.bmp,120,-120,98.bmp,-120,120,99.bmp,120,120,9528.90000000596,411729.59999999404,8019,yes,SM,C,98.bmp,120,120,166020,159992,168036,162004,414125.0,408097.0,416141.0,410110.0,25
1,1,0,0,0,22,test,1,1,z,Tue Apr 22 2025 18:43:53 GMT-0500 (Central Daylight Time),430788.7999999821,I,z,1470,26,2,88.bmp,-120,-120,89.bmp,120,-120,90.bmp,-120,120,91.bmp,120,120,9526.799999982119,421262.0,8019,yes,SM,C,88.bmp,-120,-120,166020,159992,168036,162004,423656.0,417629.0,425672.0,419640.0,26
4,0,0,0,1,22,test,1,0,z,Tue Apr 22 2025 18:43:53 GMT-0500 (Central Daylight Time),440750.7999999821,I,m,1916,27,2,100.bmp,-120,-120,61.bmp,120,-120,51.bmp,-120,120,52.bmp,120,120,9958.40000000596,430792.39999997616,8019,yes,SM,C,52.bmp,120,120,166020,159992,168036,162004,433186.0,427160.0,435202.0,429171.0,27
3,0,0,1,0,23,test,1,1,m,Tue Apr 22 2025 18:43:53 GMT-0500 (Central Daylight Time),450647.7999999821,I,m,1847,28,2,53.bmp,-120,-120,54.bmp,120,-120,55.bmp,-120,120,56.bmp,120,120,9893.199999988079,440754.59999999404,8019,yes,SM,C,53.bmp,-120,120,166020,159992,168036,162004,443149.0,437122.0,445166.0,439134.0,28
2,0,1,0,0,23,test,1,0,z,Tue Apr 22 2025 18:43:53 GMT-0500 (Central Daylight Time),460711.39999997616,I,None,2015,29,2,57.bmp,-120,-120,58.bmp,120,-120,59.bmp,-120,120,60.bmp,120,120,10059.799999982119,450651.59999999404,8019,yes,SM,C,58.bmp,120,-120,166020,159992,168036,162004,453046.0,447019.0,455063.0,449031.0,29
3,0,0,1,0,23,test,1,0,z,Tue Apr 22 2025 18:43:53 GMT-0500 (Central Daylight Time),470324.7999999821,I,m,1559,30,2,61.bmp,-120,-120,62.bmp,120,-120,63.bmp,-120,120,64.bmp,120,120,9609.699999988079,460715.09999999404,8019,yes,SM,C,63.bmp,-120,120,166020,159992,168036,162004,463110.0,457082.0,465127.0,459095.0,30
1,1,0,0,0,23,test,1,0,z,Tue Apr 22 2025 18:43:53 GMT-0500 (Central Daylight Time),480221.7999999821,I,m,1842,31,2,65.bmp,-120,-120,66.bmp,120,-120,67.bmp,-120,120,68.bmp,120,120,9894.0,470327.7999999821,8019,yes,SM,C,65.bmp,-120,-120,166020,159992,168036,162004,472724.0,466695.0,474740.0,468708.0,31
2,0,1,0,0,24,test,1,1,m,Tue Apr 22 2025 18:43:53 GMT-0500 (Central Daylight Time),489568.89999997616,I,m,1297,32,2,69.bmp,-120,-120,70.bmp,120,-120,71.bmp,-120,120,72.bmp,120,120,9343.699999988079,480225.1999999881,8019,yes,SM,C,69.bmp,120,-120,166020,159992,168036,162004,482620.0,476592.0,484637.0,478605.0,32
4,0,0,0,1,25,test,1,1,z,Tue Apr 22 2025 18:43:53 GMT-0500 (Central Daylight Time),498932.5,I,z,1310,33,2,81.bmp,-120,-120,82.bmp,120,-120,83.bmp,-120,120,84.bmp,120,120,9360.200000017881,489572.2999999821,8019,yes,SM,C,84.bmp,120,120,166020,159992,168036,162004,491968.0,485940.0,493984.0,487952.0,33
2,0,1,0,0,25,test,1,0,z,Tue Apr 22 2025 18:43:53 GMT-0500 (Central Daylight Time),508996.2999999821,I,None,2015,34,2,73.bmp,-120,-120,74.bmp,120,-120,75.bmp,-120,120,76.bmp,120,120,10060.59999999404,498935.6999999881,8019,yes,SM,C,74.bmp,120,-120,166020,159992,168036,162004,501331.0,495303.0,503348.0,497316.0,34
4,0,0,0,1,25,test,1,0,m,Tue Apr 22 2025 18:43:53 GMT-0500 (Central Daylight Time),519060.0,I,None,2016,35,2,77.bmp,-120,-120,78.bmp,120,-120,79.bmp,-120,120,80.bmp,120,120,10057.90000000596,509002.09999999404,8019,yes,SM,C,79.bmp,120,120,166020,159992,168036,162004,511395.0,505369.0,513411.0,507380.0,35
3,0,0,1,0,25,test,1,0,m,Tue Apr 22 2025 18:43:53 GMT-0500 (Central Daylight Time),529089.8999999762,I,z,1971,36,2,85.bmp,-120,-120,86.bmp,120,-120,87.bmp,-120,120,88.bmp,120,120,10026.5,519063.39999997616,8019,yes,SM,C,85.bmp,-120,120,166020,159992,168036,162004,521458.0,515431.0,523475.0,517443.0,36
1,1,0,0,0,26,test,1,1,m,Tue Apr 22 2025 18:43:53 GMT-0500 (Central Daylight Time),538303.599999994,I,m,1165,37,2,89.bmp,-120,-120,90.bmp,120,-120,91.bmp,-120,120,92.bmp,120,120,9210.40000000596,529093.1999999881,8019,yes,SM,C,90.bmp,-120,-120,166020,159992,168036,162004,531488.0,525461.0,533505.0,527473.0,37
2,0,1,0,0,27,test,1,1,m,Tue Apr 22 2025 18:43:53 GMT-0500 (Central Daylight Time),547900.599999994,I,m,1534,38,2,93.bmp,-120,-120,94.bmp,120,-120,95.bmp,-120,120,96.bmp,120,120,9593.90000000596,538306.6999999881,8019,yes,SM,C,95.bmp,120,-120,166020,159992,168036,162004,540702.0,534674.0,542719.0,536687.0,38
4,0,0,0,1,27,test,1,0,z,Tue Apr 22 2025 18:43:53 GMT-0500 (Central Daylight Time),557964.1999999881,I,None,2015,39,2,97.bmp,-120,-120,98.bmp,120,-120,99.bmp,-120,120,100.bmp,120,120,10060.40000000596,547903.7999999821,8019,yes,SM,C,100.bmp,120,120,166020,159992,168036,162004,550300.0,544271.0,552316.0,546284.0,39
3,0,0,1,0,28,test,1,1,m,Tue Apr 22 2025 18:43:53 GMT-0500 (Central Daylight Time),567311.099999994,I,m,1299,40,2,54.bmp,-120,-120,55.bmp,120,-120,56.bmp,-120,120,57.bmp,120,120,9343.200000017881,557967.8999999762,8019,yes,SM,C,55.bmp,-120,120,166020,159992,168036,162004,560363.0,554335.0,562379.0,556348.0,40
1,1,0,0,0,29,test,1,1,z,Tue Apr 22 2025 18:43:53 GMT-0500 (Central Daylight Time),576375.099999994,I,z,1000,41,2,58.bmp,-120,-120,59.bmp,120,-120,60.bmp,-120,120,61.bmp,120,120,9061.09999999404,567314.0,8019,yes,SM,C,58.bmp,-120,-120,166020,159992,168036,162004,569710.0,563681.0,571726.0,565695.0,41
4,0,0,0,1,30,test,1,1,z,Tue Apr 22 2025 18:43:53 GMT-0500 (Central Daylight Time),586147.599999994,I,z,1724,42,2,62.bmp,-120,-120,63.bmp,120,-120,64.bmp,-120,120,65.bmp,120,120,9769.09999999404,576378.5,8019,yes,SM,C,65.bmp,120,120,166020,159992,168036,162004,578774.0,572746.0,580790.0,574759.0,42
1,1,0,0,0,31,test,1,1,z,Tue Apr 22 2025 18:43:53 GMT-0500 (Central Daylight Time),595485.599999994,I,z,1283,43,2,66.bmp,-120,-120,67.bmp,120,-120,68.bmp,-120,120,69.bmp,120,120,9334.40000000596,586151.1999999881,8019,yes,SM,C,66.bmp,-120,-120,166020,159992,168036,162004,588537.0,582518.0,590554.0,584522.0,43
4,0,0,0,1,32,test,1,1,m,Tue Apr 22 2025 18:43:53 GMT-0500 (Central Daylight Time),604617.2999999821,I,m,1080,44,2,54.bmp,-120,-120,51.bmp,120,-120,52.bmp,-120,120,53.bmp,120,120,9128.799999982119,595488.5,8019,yes,SM,C,54.bmp,120,120,166020,159992,168036,162004,597884.0,591856.0,599901.0,593869.0,44
1,1,0,0,0,32,test,1,0,m,Tue Apr 22 2025 18:43:53 GMT-0500 (Central Daylight Time),614679.6999999881,I,None,2016,45,2,78.bmp,-120,-120,79.bmp,120,-120,80.bmp,-120,120,81.bmp,120,120,10059.0,604620.6999999881,8019,yes,SM,C,81.bmp,-120,-120,166020,159992,168036,162004,607015.0,600988.0,609031.0,603000.0,45
1,1,0,0,0,33,test,1,1,m,Tue Apr 22 2025 18:43:53 GMT-0500 (Central Daylight Time),624127.099999994,I,m,1399,46,2,70.bmp,-120,-120,71.bmp,120,-120,72.bmp,-120,120,73.bmp,120,120,9444.5,614682.599999994,8019,yes,SM,C,71.bmp,-120,-120,166020,159992,168036,162004,617079.0,611050.0,619095.0,613064.0,46
3,0,0,1,0,34,test,1,1,z,Tue Apr 22 2025 18:43:53 GMT-0500 (Central Daylight Time),633090.5,I,z,912,47,2,74.bmp,-120,-120,75.bmp,120,-120,76.bmp,-120,120,77.bmp,120,120,8960.800000011921,624129.6999999881,8019,yes,SM,C,76.bmp,-120,120,166020,159992,168036,162004,626526.0,620497.0,628542.0,622510.0,47
3,0,0,1,0,35,test,1,1,z,Tue Apr 22 2025 18:43:53 GMT-0500 (Central Daylight Time),642187.6999999881,I,z,1044,48,2,90.bmp,-120,-120,91.bmp,120,-120,92.bmp,-120,120,93.bmp,120,120,9094.0,633093.6999999881,8019,yes,SM,C,92.bmp,-120,120,166020,159992,168036,162004,635489.0,629461.0,637506.0,631474.0,48
2,0,1,0,0,35,test,1,0,z,Tue Apr 22 2025 18:43:53 GMT-0500 (Central Daylight Time),652251.099999994,I,None,2015,49,2,86.bmp,-120,-120,87.bmp,120,-120,88.bmp,-120,120,89.bmp,120,120,10060.200000017881,642190.8999999762,8019,yes,SM,C,87.bmp,120,-120,166020,159992,168036,162004,644586.0,638558.0,646603.0,640571.0,49
3,0,0,1,0,36,test,1,1,m,Tue Apr 22 2025 18:43:53 GMT-0500 (Central Daylight Time),661431.6999999881,I,m,1122,50,2,82.bmp,-120,-120,83.bmp,120,-120,84.bmp,-120,120,85.bmp,120,120,9177.199999988079,652254.5,8019,yes,SM,C,82.bmp,-120,120,166020,159992,168036,162004,654650.0,648622.0,656668.0,650635.0,50
2,0,1,0,0,36,test,1,0,z,Tue Apr 22 2025 18:43:53 GMT-0500 (Central Daylight Time),671495.3999999762,I,None,2015,51,2,94.bmp,-120,-120,95.bmp,120,-120,96.bmp,-120,120,97.bmp,120,120,10060.699999988079,661434.6999999881,8019,yes,SM,C,95.bmp,120,-120,166020,159992,168036,162004,663830.0,657802.0,665847.0,659815.0,51
4,0,0,0,1,37,test,1,1,m,Tue Apr 22 2025 18:43:53 GMT-0500 (Central Daylight Time),681475.599999994,I,m,1920,52,2,98.bmp,-120,-120,99.bmp,120,-120,100.bmp,-120,120,81.bmp,120,120,9977.09999999404,671498.5,8019,yes,SM,C,98.bmp,120,120,166020,159992,168036,162004,673894.0,667866.0,675910.0,669879.0,52
3,0,0,1,0,38,test,1,1,z,Tue Apr 22 2025 18:43:53 GMT-0500 (Central Daylight Time),690706.0,I,z,1179,53,2,51.bmp,-120,-120,52.bmp,120,-120,53.bmp,-120,120,54.bmp,120,120,9227.300000011921,681478.6999999881,8019,yes,SM,C,53.bmp,-120,120,166020,159992,168036,162004,683874.0,677846.0,685890.0,679859.0,53
1,1,0,0,0,39,test,1,1,m,Tue Apr 22 2025 18:43:53 GMT-0500 (Central Daylight Time),700069.599999994,I,m,1309,54,2,55.bmp,-120,-120,56.bmp,120,-120,57.bmp,-120,120,58.bmp,120,120,9360.5,690709.099999994,8019,yes,SM,C,57.bmp,-120,-120,166020,159992,168036,162004,693105.0,687076.0,695121.0,689090.0,54
4,0,0,0,1,40,test,1,1,z,Tue Apr 22 2025 18:43:53 GMT-0500 (Central Daylight Time),709566.7999999821,I,z,1441,55,2,59.bmp,-120,-120,60.bmp,120,-120,61.bmp,-120,120,62.bmp,120,120,9494.199999988079,700072.599999994,8019,yes,SM,C,62.bmp,120,120,166020,159992,168036,162004,702468.0,696440.0,704485.0,698453.0,55
2,0,1,0,0,40,test,1,0,m,Tue Apr 22 2025 18:43:53 GMT-0500 (Central Daylight Time),719630.099999994,I,None,2015,56,2,63.bmp,-120,-120,64.bmp,120,-120,65.bmp,-120,120,66.bmp,120,120,10060.09999999404,709570.0,8019,yes,SM,C,63.bmp,120,-120,166020,159992,168036,162004,711965.0,705937.0,713982.0,707950.0,56
4,0,0,0,1,41,test,1,1,m,Tue Apr 22 2025 18:43:53 GMT-0500 (Central Daylight Time),728710.599999994,I,m,1025,57,2,67.bmp,-120,-120,68.bmp,120,-120,69.bmp,-120,120,70.bmp,120,120,9077.59999999404,719633.0,8019,yes,SM,C,68.bmp,120,120,166020,159992,168036,162004,722029.0,716000.0,724045.0,718014.0,57
3,0,0,1,0,42,test,1,1,z,Tue Apr 22 2025 18:43:53 GMT-0500 (Central Daylight Time),738440.6999999881,I,z,1680,58,2,71.bmp,-120,-120,72.bmp,120,-120,73.bmp,-120,120,74.bmp,120,120,9727.199999988079,728713.5,8019,yes,SM,C,73.bmp,-120,120,166020,159992,168036,162004,731109.0,725081.0,733126.0,727094.0,58
2,0,1,0,0,43,test,1,1,m,Tue Apr 22 2025 18:43:53 GMT-0500 (Central Daylight Time),748237.599999994,I,m,1741,59,2,75.bmp,-120,-120,76.bmp,120,-120,77.bmp,-120,120,78.bmp,120,120,9794.0,738443.599999994,8019,yes,SM,C,78.bmp,120,-120,166020,159992,168036,162004,740840.0,734811.0,742856.0,736824.0,59
1,1,0,0,0,43,test,1,0,z,Tue Apr 22 2025 18:43:53 GMT-0500 (Central Daylight Time),757818.1999999881,I,m,1521,60,2,79.bmp,-120,-120,80.bmp,120,-120,81.bmp,-120,120,82.bmp,120,120,9577.699999988079,748240.5,8019,yes,SM,C,79.bmp,-120,-120,166020,159992,168036,162004,750637.0,744608.0,752653.0,746621.0,60
2,0,1,0,0,44,test,1,1,z,Tue Apr 22 2025 18:43:53 GMT-0500 (Central Daylight Time),767382.0,I,z,1509,61,2,83.bmp,-120,-120,84.bmp,120,-120,85.bmp,-120,120,86.bmp,120,120,9560.600000023842,757821.3999999762,8019,yes,SM,C,84.bmp,120,-120,166020,159992,168036,162004,760217.0,754189.0,762233.0,756202.0,61
4,0,0,0,1,44,test,1,0,z,Tue Apr 22 2025 18:43:53 GMT-0500 (Central Daylight Time),776512.599999994,I,m,1073,62,2,91.bmp,-120,-120,92.bmp,120,-120,93.bmp,-120,120,94.bmp,120,120,9127.5,767385.099999994,8019,yes,SM,C,94.bmp,120,120,166020,159992,168036,162004,769780.0,763752.0,771797.0,765765.0,62
1,1,0,0,0,45,test,1,1,m,Tue Apr 22 2025 18:43:53 GMT-0500 (Central Daylight Time),786142.7999999821,I,m,1574,63,2,95.bmp,-120,-120,96.bmp,120,-120,97.bmp,-120,120,98.bmp,120,120,9627.199999988079,776515.599999994,8019,yes,SM,C,95.bmp,-120,120,166020,159992,168036,162004,778911.0,772883.0,780928.0,774896.0,63
2,0,1,0,0,45,test,1,0,z,Tue Apr 22 2025 18:43:53 GMT-0500 (Central Daylight Time),796206.1999999881,I,None,2015,64,2,99.bmp,-120,-120,100.bmp,120,-120,62.bmp,-120,120,51.bmp,120,120,10060.40000000596,786145.7999999821,8019,yes,SM,C,100.bmp,120,-120,166020,159992,168036,162004,788541.0,782513.0,790558.0,784526.0,64
4,0,0,0,1,46,test,1,1,m,Tue Apr 22 2025 18:43:53 GMT-0500 (Central Daylight Time),805470.0,I,m,1209,65,2,52.bmp,-120,-120,53.bmp,120,-120,54.bmp,-120,120,55.bmp,120,120,9260.600000023842,796209.3999999762,8019,yes,SM,C,54.bmp,120,120,166020,159992,168036,162004,798605.0,792577.0,800621.0,794589.0,65
3,0,0,1,0,46,test,1,0,m,Tue Apr 22 2025 18:43:53 GMT-0500 (Central Daylight Time),815283.599999994,I,z,1761,66,2,56.bmp,-120,-120,57.bmp,120,-120,58.bmp,-120,120,59.bmp,120,120,9810.700000017881,805472.8999999762,8019,yes,SM,C,59.bmp,-120,120,166020,159992,168036,162004,807869.0,801840.0,809885.0,803854.0,66
2,0,1,0,0,46,test,1,0,m,Tue Apr 22 2025 18:43:53 GMT-0500 (Central Daylight Time),824530.8999999762,I,z,1187,67,2,87.bmp,-120,-120,88.bmp,120,-120,89.bmp,-120,120,90.bmp,120,120,9243.799999982119,815287.099999994,8019,yes,SM,C,89.bmp,120,-120,166020,159992,168036,162004,817682.0,811654.0,819699.0,813667.0,67
3,0,0,1,0,47,test,1,1,z,Tue Apr 22 2025 18:43:53 GMT-0500 (Central Daylight Time),833994.3999999762,I,z,1412,68,2,60.bmp,-120,-120,61.bmp,120,-120,62.bmp,-120,120,63.bmp,120,120,9460.699999988079,824533.6999999881,8019,yes,SM,C,62.bmp,-120,120,166020,159992,168036,162004,826929.0,820901.0,828946.0,822914.0,68
1,1,0,0,0,48,test,1,1,m,Tue Apr 22 2025 18:43:53 GMT-0500 (Central Daylight Time),843341.5,I,m,1293,69,2,64.bmp,-120,-120,65.bmp,120,-120,66.bmp,-120,120,67.bmp,120,120,9343.800000011921,833997.6999999881,8019,yes,SM,C,65.bmp,-120,-120,166020,159992,168036,162004,836393.0,830365.0,838409.0,832378.0,69
2,0,1,0,0,49,test,1,1,m,Tue Apr 22 2025 18:43:53 GMT-0500 (Central Daylight Time),852938.5,I,m,1545,70,2,68.bmp,-120,-120,69.bmp,120,-120,70.bmp,-120,120,71.bmp,120,120,9593.90000000596,843344.599999994,8019,yes,SM,C,70.bmp,120,-120,166020,159992,168036,162004,845740.0,839712.0,847757.0,841725.0,70
4,0,0,0,1,50,test,1,1,z,Tue Apr 22 2025 18:43:53 GMT-0500 (Central Daylight Time),862335.599999994,I,z,1340,71,2,72.bmp,-120,-120,73.bmp,120,-120,74.bmp,-120,120,75.bmp,120,120,9393.800000011921,852941.7999999821,8019,yes,SM,C,75.bmp,120,120,166020,159992,168036,162004,855337.0,849309.0,857353.0,851322.0,71
1,1,0,0,0,51,test,1,1,z,Tue Apr 22 2025 18:43:53 GMT-0500 (Central Daylight Time),871232.5,I,z,848,72,2,76.bmp,-120,-120,77.bmp,120,-120,78.bmp,-120,120,79.bmp,120,120,8893.90000000596,862338.599999994,8019,yes,SM,C,76.bmp,-120,-120,166020,159992,168036,162004,864735.0,858706.0,866750.0,860719.0,72
2,0,1,0,0,52,test,1,1,z,Tue Apr 22 2025 18:43:53 GMT-0500 (Central Daylight Time),881029.7999999821,I,z,1734,73,2,80.bmp,-120,-120,81.bmp,120,-120,82.bmp,-120,120,83.bmp,120,120,9794.40000000596,871235.3999999762,8019,yes,SM,C,81.bmp,120,-120,166020,159992,168036,162004,873631.0,867603.0,875648.0,869616.0,73
4,0,0,0,1,53,test,1,1,m,Tue Apr 22 2025 18:43:53 GMT-0500 (Central Daylight Time),890976.7999999821,I,m,1897,74,2,84.bmp,-120,-120,85.bmp,120,-120,86.bmp,-120,120,87.bmp,120,120,9943.40000000596,881033.3999999762,8019,yes,SM,C,86.bmp,120,120,166020,159992,168036,162004,883428.0,877401.0,885445.0,879413.0,74
2,0,1,0,0,53,test,1,0,m,Tue Apr 22 2025 18:43:53 GMT-0500 (Central Daylight Time),901040.2999999821,I,None,2015,75,2,88.bmp,-120,-120,89.bmp,120,-120,90.bmp,-120,120,91.bmp,120,120,10060.699999988079,890979.599999994,8019,yes,SM,C,91.bmp,120,-120,166020,159992,168036,162004,893375.0,887347.0,895392.0,889360.0,75
1,1,0,0,0,54,test,1,1,z,Tue Apr 22 2025 18:43:53 GMT-0500 (Central Daylight Time),910320.599999994,I,z,1231,76,2,92.bmp,-120,-120,93.bmp,120,-120,94.bmp,-120,120,95.bmp,120,120,9277.200000017881,901043.3999999762,8019,yes,SM,C,92.bmp,-120,-120,166020,159992,168036,162004,903439.0,897411.0,905455.0,899424.0,76
3,0,0,1,0,55,test,1,1,z,Tue Apr 22 2025 18:43:53 GMT-0500 (Central Daylight Time),919351.099999994,I,z,982,77,2,100.bmp,-120,-120,61.bmp,120,-120,51.bmp,-120,120,52.bmp,120,120,9027.40000000596,910323.6999999881,8019,yes,SM,C,51.bmp,-120,120,166020,159992,168036,162004,912719.0,906691.0,914736.0,908704.0,77
1,1,0,0,0,56,test,1,1,m,Tue Apr 22 2025 18:43:53 GMT-0500 (Central Daylight Time),929314.7999999821,I,m,1904,78,2,96.bmp,-120,-120,97.bmp,120,-120,98.bmp,-120,120,99.bmp,120,120,9960.299999982119,919354.5,8019,yes,SM,C,97.bmp,-120,-120,166020,159992,168036,162004,921749.0,915722.0,923766.0,917734.0,78
4,0,0,0,1,57,test,1,1,m,Tue Apr 22 2025 18:43:53 GMT-0500 (Central Daylight Time),938961.599999994,I,m,1596,79,2,57.bmp,-120,-120,58.bmp,120,-120,59.bmp,-120,120,60.bmp,120,120,9638.800000011921,929322.7999999821,8019,yes,SM,C,57.bmp,120,120,166020,159992,168036,162004,931714.0,925690.0,933730.0,927698.0,79
3,0,0,1,0,58,test,1,1,m,Tue Apr 22 2025 18:43:53 GMT-0500 (Central Daylight Time),948075.5,I,m,1061,80,2,53.bmp,-120,-120,54.bmp,120,-120,55.bmp,-120,120,56.bmp,120,120,9110.300000011921,938965.1999999881,8019,yes,SM,C,56.bmp,-120,120,166020,159992,168036,162004,941360.0,935332.0,943376.0,937345.0,80
