acc_sum,block,block_c,block_cond,con_img,correct,correct_response,datetime,endtime,face,jitter,line,project,response,response_time,row_sel,session_number,start_end,starttime,subject_id,task,task_vers,trial
1,prac,1,A,haborder.png,1,m,Thu Oct 24 2024 15:10:55 GMT-0500 (Central Daylight Time),47395.30000001192,CFD-WF-011-006-HC.jpg,1500,solid,O,m,948,11,1,3266.0,44129.30000001192,7030,ATS,B,1
2,prac,1,A,haborder.png,1,z,Thu Oct 24 2024 15:10:55 GMT-0500 (Central Daylight Time),50544.10000002384,CFD-WF-026-008-A.jpg,1600,solid,O,z,727,10,1,6414.800000011921,44129.30000001192,7030,ATS,B,2
3,prac,1,A,haborder.png,1,z,Thu Oct 24 2024 15:10:55 GMT-0500 (Central Daylight Time),53243.0,CFD-WF-013-015-A.jpg,1000,solid,O,z,874,12,1,9113.699999988079,44129.30000001192,7030,ATS,B,3
4,prac,1,A,haborder.png,1,z,Thu Oct 24 2024 15:10:55 GMT-0500 (Central Daylight Time),56475.30000001192,CFD-BF-050-012-A.jpg,1200,solid,O,z,1200,6,1,12346.0,44129.30000001192,7030,ATS,B,4
5,prac,1,A,haborder.png,1,z,Thu Oct 24 2024 15:10:55 GMT-0500 (Central Daylight Time),59674.200000047684,CFD-BM-037-041-A.jpg,1600,solid,O,z,766,2,1,15544.900000035763,44129.30000001192,7030,ATS,B,5
6,prac,1,A,haborder.png,1,m,Thu Oct 24 2024 15:10:55 GMT-0500 (Central Daylight Time),63406.200000047684,CFD-BF-035-007-HC.jpg,2000,solid,O,m,912,5,1,19276.900000035763,44129.30000001192,7030,ATS,B,6
7,prac,1,A,haborder.png,1,m,Thu Oct 24 2024 15:10:55 GMT-0500 (Central Daylight Time),66554.40000003576,CFD-BM-020-024-HC.jpg,1500,solid,O,m,815,3,1,22425.100000023842,44129.30000001192,7030,ATS,B,7
8,prac,1,A,haborder.png,1,z,Thu Oct 24 2024 15:10:55 GMT-0500 (Central Daylight Time),69420.80000001192,CFD-BF-051-043-A.jpg,1000,solid,O,z,1072,4,1,25291.5,44129.30000001192,7030,ATS,B,8
9,prac,1,A,haborder.png,1,m,Thu Oct 24 2024 15:10:55 GMT-0500 (Central Daylight Time),73436.90000003576,CFD-BM-015-017-HC.jpg,1700,solid,O,m,1497,1,1,29307.600000023842,44129.30000001192,7030,ATS,B,9
10,prac,1,A,haborder.png,1,m,Thu Oct 24 2024 15:10:55 GMT-0500 (Central Daylight Time),76368.60000002384,CFD-WM-011-006-HC.jpg,1400,solid,O,m,726,7,1,32239.30000001192,44129.30000001192,7030,ATS,B,10
11,prac,1,A,haborder.png,1,z,Thu Oct 24 2024 15:10:55 GMT-0500 (Central Daylight Time),80016.90000003576,CFD-WM-009-009-A.jpg,1900,solid,O,z,926,8,1,35887.60000002384,44129.30000001192,7030,ATS,B,11
12,prac,1,A,haborder.png,1,m,Thu Oct 24 2024 15:10:55 GMT-0500 (Central Daylight Time),83483.0,CFD-WM-012-007-HC.jpg,1700,solid,O,m,949,9,1,39353.69999998808,44129.30000001192,7030,ATS,B,12
1,prac,1,B,mfborder.png,1,m,Thu Oct 24 2024 15:10:55 GMT-0500 (Central Daylight Time),107208.60000002384,CFD-WM-037-060-A.jpg,1200,dash,O,m,1442,6,1,3465.600000023842,103743.0,7030,ATS,B,1
2,prac,1,B,mfborder.png,1,z,Thu Oct 24 2024 15:10:55 GMT-0500 (Central Daylight Time),110490.80000001192,CFD-WF-026-008-A.jpg,1500,dash,O,z,957,11,1,6747.800000011921,103743.0,7030,ATS,B,2
3,prac,1,B,mfborder.png,1,m,Thu Oct 24 2024 15:10:55 GMT-0500 (Central Daylight Time),113723.10000002384,CFD-BM-041-048-A.jpg,1600,dash,O,m,806,2,1,9980.100000023842,103743.0,7030,ATS,B,3
4,prac,1,B,mfborder.png,1,m,Thu Oct 24 2024 15:10:55 GMT-0500 (Central Daylight Time),117537.40000003576,CFD-WM-009-009-A.jpg,1700,dash,O,m,1282,9,1,13794.400000035763,103743.0,7030,ATS,B,4
5,prac,1,B,mfborder.png,1,m,Thu Oct 24 2024 15:10:55 GMT-0500 (Central Daylight Time),121437.10000002384,CFD-BM-037-041-A.jpg,2000,dash,O,m,1104,5,1,17694.100000023842,103743.0,7030,ATS,B,5
6,prac,1,B,mfborder.png,1,m,Thu Oct 24 2024 15:10:55 GMT-0500 (Central Daylight Time),124536.20000004768,CFD-WM-012-007-HC.jpg,1600,dash,O,m,668,10,1,20793.200000047684,103743.0,7030,ATS,B,6
7,prac,1,B,mfborder.png,1,m,Thu Oct 24 2024 15:10:55 GMT-0500 (Central Daylight Time),127769.0,CFD-BM-020-024-HC.jpg,1700,dash,O,m,709,1,1,24026.0,103743.0,7030,ATS,B,7
8,prac,1,B,mfborder.png,1,z,Thu Oct 24 2024 15:10:55 GMT-0500 (Central Daylight Time),130450.70000004768,CFD-WF-011-006-HC.jpg,1000,dash,O,z,857,12,1,26707.700000047684,103743.0,7030,ATS,B,8
8,prac,1,B,mfborder.png,0,z,Thu Oct 24 2024 15:10:55 GMT-0500 (Central Daylight Time),133733.0,CFD-BF-035-007-HC.jpg,1400,dash,O,m,1073,7,1,29990.0,103743.0,7030,ATS,B,9
9,prac,1,B,mfborder.png,1,z,Thu Oct 24 2024 15:10:55 GMT-0500 (Central Daylight Time),137599.0,CFD-WF-027-007-HC.jpg,1900,dash,O,z,1144,8,1,33856.0,103743.0,7030,ATS,B,10
9,prac,1,B,mfborder.png,0,z,Thu Oct 24 2024 15:10:55 GMT-0500 (Central Daylight Time),140930.70000004768,CFD-BF-051-043-A.jpg,1000,dash,O,None,1515,4,1,37187.700000047684,103743.0,7030,ATS,B,11
10,prac,1,B,mfborder.png,1,z,Thu Oct 24 2024 15:10:55 GMT-0500 (Central Daylight Time),144146.30000001192,CFD-BF-027-013-HC.jpg,1500,dash,O,z,907,3,1,40403.30000001192,103743.0,7030,ATS,B,12
1,test,1,A,haborder.png,1,z,Thu Oct 24 2024 15:10:55 GMT-0500 (Central Daylight Time),163073.5,CFD-WF-026-008-A.jpg,1600,solid,O,z,1043,10,1,2682.399999976158,160391.10000002384,7030,ATS,B,1
2,test,1,A,haborder.png,1,z,Thu Oct 24 2024 15:10:55 GMT-0500 (Central Daylight Time),164939.5,CFD-BF-051-043-A.jpg,1000,solid,O,z,817,4,1,4548.399999976158,160391.10000002384,7030,ATS,B,2
3,test,1,A,haborder.png,1,z,Thu Oct 24 2024 15:10:55 GMT-0500 (Central Daylight Time),167421.90000003576,CFD-BM-037-041-A.jpg,1600,solid,O,z,839,2,1,7030.800000011921,160391.10000002384,7030,ATS,B,3
4,test,1,A,haborder.png,1,m,Thu Oct 24 2024 15:10:55 GMT-0500 (Central Daylight Time),169571.10000002384,CFD-BM-020-024-HC.jpg,1500,solid,O,m,608,3,1,9180.0,160391.10000002384,7030,ATS,B,4
5,test,1,A,haborder.png,1,z,Thu Oct 24 2024 15:10:55 GMT-0500 (Central Daylight Time),171570.60000002384,CFD-WF-013-015-A.jpg,1000,solid,O,z,950,12,1,11179.5,160391.10000002384,7030,ATS,B,5
6,test,1,A,haborder.png,1,z,Thu Oct 24 2024 15:10:55 GMT-0500 (Central Daylight Time),174203.0,CFD-WM-009-009-A.jpg,1900,solid,O,z,692,8,1,13811.899999976158,160391.10000002384,7030,ATS,B,6
7,test,1,A,haborder.png,1,m,Thu Oct 24 2024 15:10:55 GMT-0500 (Central Daylight Time),176885.5,CFD-BF-035-007-HC.jpg,2000,solid,O,m,639,5,1,16494.399999976158,160391.10000002384,7030,ATS,B,7
7,test,1,A,haborder.png,0,m,Thu Oct 24 2024 15:10:55 GMT-0500 (Central Daylight Time),180134.70000004768,CFD-WM-012-007-HC.jpg,1700,solid,O,None,1515,9,1,19743.600000023842,160391.10000002384,7030,ATS,B,8
8,test,1,A,haborder.png,1,m,Thu Oct 24 2024 15:10:55 GMT-0500 (Central Daylight Time),182633.70000004768,CFD-WF-011-006-HC.jpg,1500,solid,O,m,952,11,1,22242.600000023842,160391.10000002384,7030,ATS,B,9
9,test,1,A,haborder.png,1,m,Thu Oct 24 2024 15:10:55 GMT-0500 (Central Daylight Time),185449.40000003576,CFD-BF-035-007-HC.jpg,2000,solid,O,m,769,5,1,25058.30000001192,160391.10000002384,7030,ATS,B,10
10,test,1,A,haborder.png,1,m,Thu Oct 24 2024 15:10:55 GMT-0500 (Central Daylight Time),187681.80000001192,CFD-BM-020-024-HC.jpg,1500,solid,O,m,693,3,1,27290.69999998808,160391.10000002384,7030,ATS,B,11
11,test,1,A,haborder.png,1,z,Thu Oct 24 2024 15:10:55 GMT-0500 (Central Daylight Time),190564.80000001192,CFD-WM-009-009-A.jpg,1900,solid,O,z,948,8,1,30173.69999998808,160391.10000002384,7030,ATS,B,12
12,test,1,A,haborder.png,1,z,Thu Oct 24 2024 15:10:55 GMT-0500 (Central Daylight Time),192713.5,CFD-BF-050-012-A.jpg,1200,solid,O,z,909,6,1,32322.399999976158,160391.10000002384,7030,ATS,B,13
13,test,1,A,haborder.png,1,m,Thu Oct 24 2024 15:10:55 GMT-0500 (Central Daylight Time),195645.70000004768,CFD-BM-015-017-HC.jpg,1700,solid,O,m,1196,1,1,35254.60000002384,160391.10000002384,7030,ATS,B,14
14,test,1,A,haborder.png,1,z,Thu Oct 24 2024 15:10:55 GMT-0500 (Central Daylight Time),197528.5,CFD-WF-013-015-A.jpg,1000,solid,O,z,836,12,1,37137.39999997616,160391.10000002384,7030,ATS,B,15
15,test,1,A,haborder.png,1,m,Thu Oct 24 2024 15:10:55 GMT-0500 (Central Daylight Time),199595.0,CFD-WM-011-006-HC.jpg,1400,solid,O,m,626,7,1,39203.89999997616,160391.10000002384,7030,ATS,B,16
16,test,1,A,haborder.png,1,z,Thu Oct 24 2024 15:10:55 GMT-0500 (Central Daylight Time),202377.0,CFD-BM-037-041-A.jpg,1600,solid,O,z,1135,2,1,41985.89999997616,160391.10000002384,7030,ATS,B,17
17,test,1,A,haborder.png,1,z,Thu Oct 24 2024 15:10:55 GMT-0500 (Central Daylight Time),204393.0,CFD-BF-050-012-A.jpg,1200,solid,O,z,777,6,1,44001.89999997616,160391.10000002384,7030,ATS,B,18
18,test,1,A,haborder.png,1,z,Thu Oct 24 2024 15:10:55 GMT-0500 (Central Daylight Time),206725.70000004768,CFD-WF-026-008-A.jpg,1600,solid,O,z,689,10,1,46334.60000002384,160391.10000002384,7030,ATS,B,19
19,test,1,A,haborder.png,1,m,Thu Oct 24 2024 15:10:55 GMT-0500 (Central Daylight Time),209574.90000003576,CFD-WM-012-007-HC.jpg,1700,solid,O,m,1112,9,1,49183.80000001192,160391.10000002384,7030,ATS,B,20
20,test,1,A,haborder.png,1,m,Thu Oct 24 2024 15:10:55 GMT-0500 (Central Daylight Time),211773.90000003576,CFD-WF-011-006-HC.jpg,1500,solid,O,m,655,11,1,51382.80000001192,160391.10000002384,7030,ATS,B,21
21,test,1,A,haborder.png,1,m,Thu Oct 24 2024 15:10:55 GMT-0500 (Central Daylight Time),213856.60000002384,CFD-WM-011-006-HC.jpg,1400,solid,O,m,644,7,1,53465.5,160391.10000002384,7030,ATS,B,22
22,test,1,A,haborder.png,1,m,Thu Oct 24 2024 15:10:55 GMT-0500 (Central Daylight Time),216405.80000001192,CFD-BM-015-017-HC.jpg,1700,solid,O,m,806,1,1,56014.69999998808,160391.10000002384,7030,ATS,B,23
23,test,1,A,haborder.png,1,z,Thu Oct 24 2024 15:10:55 GMT-0500 (Central Daylight Time),218238.5,CFD-BF-051-043-A.jpg,1000,solid,O,z,788,4,1,57847.39999997616,160391.10000002384,7030,ATS,B,24
1,test,1,B,mfborder.png,1,m,Thu Oct 24 2024 15:10:55 GMT-0500 (Central Daylight Time),235082.90000003576,CFD-BM-020-024-HC.jpg,1700,dash,O,m,643,1,1,2382.400000035763,232700.5,7030,ATS,B,1
2,test,1,B,mfborder.png,1,z,Thu Oct 24 2024 15:10:55 GMT-0500 (Central Daylight Time),237115.60000002384,CFD-BF-051-043-A.jpg,1000,dash,O,z,982,4,1,4415.100000023842,232700.5,7030,ATS,B,2
3,test,1,B,mfborder.png,1,m,Thu Oct 24 2024 15:10:55 GMT-0500 (Central Daylight Time),239731.30000001192,CFD-WM-012-007-HC.jpg,1600,dash,O,m,966,10,1,7030.800000011921,232700.5,7030,ATS,B,3
4,test,1,B,mfborder.png,1,m,Thu Oct 24 2024 15:10:55 GMT-0500 (Central Daylight Time),241764.70000004768,CFD-WM-037-060-A.jpg,1200,dash,O,m,783,6,1,9064.200000047684,232700.5,7030,ATS,B,4
5,test,1,B,mfborder.png,1,z,Thu Oct 24 2024 15:10:55 GMT-0500 (Central Daylight Time),244379.90000003576,CFD-WF-026-008-A.jpg,1500,dash,O,z,1074,11,1,11679.400000035763,232700.5,7030,ATS,B,5
6,test,1,B,mfborder.png,1,z,Thu Oct 24 2024 15:10:55 GMT-0500 (Central Daylight Time),246179.30000001192,CFD-WF-011-006-HC.jpg,1000,dash,O,z,758,12,1,13478.800000011921,232700.5,7030,ATS,B,6
7,test,1,B,mfborder.png,1,m,Thu Oct 24 2024 15:10:55 GMT-0500 (Central Daylight Time),248695.20000004768,CFD-WM-009-009-A.jpg,1700,dash,O,m,762,9,1,15994.700000047684,232700.5,7030,ATS,B,7
8,test,1,B,mfborder.png,1,z,Thu Oct 24 2024 15:10:55 GMT-0500 (Central Daylight Time),251510.80000001192,CFD-WF-027-007-HC.jpg,1900,dash,O,z,871,8,1,18810.30000001192,232700.5,7030,ATS,B,8
8,test,1,B,mfborder.png,0,z,Thu Oct 24 2024 15:10:55 GMT-0500 (Central Daylight Time),254477.30000001192,CFD-BF-035-007-HC.jpg,1400,dash,O,None,1513,7,1,21776.80000001192,232700.5,7030,ATS,B,9
9,test,1,B,mfborder.png,1,m,Thu Oct 24 2024 15:10:55 GMT-0500 (Central Daylight Time),256992.40000003576,CFD-BM-020-024-HC.jpg,1700,dash,O,m,777,1,1,24291.900000035763,232700.5,7030,ATS,B,10
10,test,1,B,mfborder.png,1,z,Thu Oct 24 2024 15:10:55 GMT-0500 (Central Daylight Time),259291.60000002384,CFD-BF-027-013-HC.jpg,1500,dash,O,z,757,3,1,26591.100000023842,232700.5,7030,ATS,B,11
11,test,1,B,mfborder.png,1,m,Thu Oct 24 2024 15:10:55 GMT-0500 (Central Daylight Time),261724.10000002384,CFD-WM-012-007-HC.jpg,1600,dash,O,m,790,10,1,29023.600000023842,232700.5,7030,ATS,B,12
11,test,1,B,mfborder.png,0,z,Thu Oct 24 2024 15:10:55 GMT-0500 (Central Daylight Time),264189.8000000119,CFD-BF-035-007-HC.jpg,1400,dash,O,m,1030,7,1,31489.30000001192,232700.5,7030,ATS,B,13
12,test,1,B,mfborder.png,1,z,Thu Oct 24 2024 15:10:55 GMT-0500 (Central Daylight Time),266256.0,CFD-BF-051-043-A.jpg,1000,dash,O,z,1019,4,1,33555.5,232700.5,7030,ATS,B,14
13,test,1,B,mfborder.png,1,z,Thu Oct 24 2024 15:10:55 GMT-0500 (Central Daylight Time),268522.10000002384,CFD-WF-026-008-A.jpg,1500,dash,O,z,701,11,1,35821.60000002384,232700.5,7030,ATS,B,15
14,test,1,B,mfborder.png,1,m,Thu Oct 24 2024 15:10:55 GMT-0500 (Central Daylight Time),270987.8000000119,CFD-WM-037-060-A.jpg,1200,dash,O,m,1226,6,1,38287.30000001192,232700.5,7030,ATS,B,16
15,test,1,B,mfborder.png,1,m,Thu Oct 24 2024 15:10:55 GMT-0500 (Central Daylight Time),273503.60000002384,CFD-BM-041-048-A.jpg,1600,dash,O,m,877,2,1,40803.10000002384,232700.5,7030,ATS,B,17
16,test,1,B,mfborder.png,1,z,Thu Oct 24 2024 15:10:55 GMT-0500 (Central Daylight Time),276402.8000000119,CFD-WF-027-007-HC.jpg,1900,dash,O,z,958,8,1,43702.30000001192,232700.5,7030,ATS,B,18
17,test,1,B,mfborder.png,1,m,Thu Oct 24 2024 15:10:55 GMT-0500 (Central Daylight Time),279068.40000003576,CFD-BM-041-048-A.jpg,1600,dash,O,m,1023,2,1,46367.90000003576,232700.5,7030,ATS,B,19
18,test,1,B,mfborder.png,1,m,Thu Oct 24 2024 15:10:55 GMT-0500 (Central Daylight Time),281751.0,CFD-WM-009-009-A.jpg,1700,dash,O,m,945,9,1,49050.5,232700.5,7030,ATS,B,20
19,test,1,B,mfborder.png,1,z,Thu Oct 24 2024 15:10:55 GMT-0500 (Central Daylight Time),284167.10000002384,CFD-WF-011-006-HC.jpg,1000,dash,O,z,1371,12,1,51466.60000002384,232700.5,7030,ATS,B,21
20,test,1,B,mfborder.png,1,m,Thu Oct 24 2024 15:10:55 GMT-0500 (Central Daylight Time),287215.7000000477,CFD-BM-037-041-A.jpg,2000,dash,O,m,1003,5,1,54515.200000047684,232700.5,7030,ATS,B,22
21,test,1,B,mfborder.png,1,z,Thu Oct 24 2024 15:10:55 GMT-0500 (Central Daylight Time),289965.10000002384,CFD-BF-027-013-HC.jpg,1500,dash,O,z,1206,3,1,57264.60000002384,232700.5,7030,ATS,B,23
22,test,1,B,mfborder.png,1,m,Thu Oct 24 2024 15:10:55 GMT-0500 (Central Daylight Time),293213.5,CFD-BM-037-041-A.jpg,2000,dash,O,m,1213,5,1,60513.0,232700.5,7030,ATS,B,24
0,6,1,C,mfborder.png,0,m,Thu Oct 24 2024 15:10:55 GMT-0500 (Central Daylight Time),334216.10000002384,CFD-WM-009-009-A.jpg,1700,solid,O,None,1516,prac,1,3998.699999988079,330217.40000003576,7030,ATS,B,1
1,2,1,C,mfborder.png,1,z,Thu Oct 24 2024 15:10:55 GMT-0500 (Central Daylight Time),337765.90000003576,CFD-WF-013-015-A.jpg,1500,solid,O,z,1263,prac,1,7548.5,330217.40000003576,7030,ATS,B,2
2,3,1,C,mfborder.png,1,z,Thu Oct 24 2024 15:10:55 GMT-0500 (Central Daylight Time),340448.40000003576,CFD-BF-035-007-HC.jpg,1000,dash,O,z,852,prac,1,10231.0,330217.40000003576,7030,ATS,B,3
3,9,1,C,haborder.png,1,z,Thu Oct 24 2024 15:10:55 GMT-0500 (Central Daylight Time),344146.3000000119,CFD-WF-026-008-A.jpg,1600,dash,O,z,1284,prac,1,13928.899999976158,330217.40000003576,7030,ATS,B,4
4,4,1,C,mfborder.png,1,m,Thu Oct 24 2024 15:10:55 GMT-0500 (Central Daylight Time),347945.0,CFD-BM-015-017-HC.jpg,2000,solid,O,m,1008,prac,1,17727.599999964237,330217.40000003576,7030,ATS,B,5
5,10,1,C,haborder.png,1,m,Thu Oct 24 2024 15:10:55 GMT-0500 (Central Daylight Time),351578.0,CFD-BM-020-024-HC.jpg,1500,solid,O,m,1350,prac,1,21360.599999964237,330217.40000003576,7030,ATS,B,6
6,7,1,C,haborder.png,1,z,Thu Oct 24 2024 15:10:55 GMT-0500 (Central Daylight Time),355276.0,CFD-BF-051-043-A.jpg,1900,dash,O,z,981,prac,1,25058.599999964237,330217.40000003576,7030,ATS,B,7
6,12,1,C,haborder.png,0,m,Thu Oct 24 2024 15:10:55 GMT-0500 (Central Daylight Time),358974.60000002384,CFD-WM-011-006-HC.jpg,1400,solid,O,None,1516,prac,1,28757.19999998808,330217.40000003576,7030,ATS,B,8
6,8,1,C,haborder.png,0,z,Thu Oct 24 2024 15:10:55 GMT-0500 (Central Daylight Time),362974.3000000119,CFD-BF-050-012-A.jpg,1700,solid,O,None,1516,prac,1,32756.899999976158,330217.40000003576,7030,ATS,B,9
6,1,1,C,mfborder.png,0,z,Thu Oct 24 2024 15:10:55 GMT-0500 (Central Daylight Time),366522.2000000477,CFD-WF-011-006-HC.jpg,1600,dash,O,m,1135,prac,1,36304.80000001192,330217.40000003576,7030,ATS,B,10
6,5,1,C,mfborder.png,0,m,Thu Oct 24 2024 15:10:55 GMT-0500 (Central Daylight Time),369887.7000000477,CFD-BM-037-041-A.jpg,1200,dash,O,z,1368,prac,1,39670.30000001192,330217.40000003576,7030,ATS,B,11
6,11,1,C,haborder.png,0,m,Thu Oct 24 2024 15:10:55 GMT-0500 (Central Daylight Time),373186.60000002384,CFD-WM-011-006-HC.jpg,1000,dash,O,None,1516,prac,1,42969.19999998808,330217.40000003576,7030,ATS,B,12
1,6,2,C,mfborder.png,1,m,Thu Oct 24 2024 15:10:55 GMT-0500 (Central Daylight Time),386466.5,CFD-WM-009-009-A.jpg,1700,solid,O,m,1091,prac,1,56249.09999996424,330217.40000003576,7030,ATS,B,1
2,7,2,C,haborder.png,1,z,Thu Oct 24 2024 15:10:55 GMT-0500 (Central Daylight Time),390237.40000003576,CFD-BF-051-043-A.jpg,1900,dash,O,z,1059,prac,1,60020.0,330217.40000003576,7030,ATS,B,2
3,11,2,C,haborder.png,1,m,Thu Oct 24 2024 15:10:55 GMT-0500 (Central Daylight Time),393064.5,CFD-WM-011-006-HC.jpg,1000,dash,O,m,1018,prac,1,62847.09999996424,330217.40000003576,7030,ATS,B,3
4,3,2,C,mfborder.png,1,z,Thu Oct 24 2024 15:10:55 GMT-0500 (Central Daylight Time),396230.40000003576,CFD-BF-035-007-HC.jpg,1000,dash,O,z,1361,prac,1,66013.0,330217.40000003576,7030,ATS,B,4
5,12,2,C,haborder.png,1,m,Thu Oct 24 2024 15:10:55 GMT-0500 (Central Daylight Time),399578.90000003576,CFD-WM-011-006-HC.jpg,1400,solid,O,m,1116,prac,1,69361.5,330217.40000003576,7030,ATS,B,5
6,5,2,C,mfborder.png,1,m,Thu Oct 24 2024 15:10:55 GMT-0500 (Central Daylight Time),402727.90000003576,CFD-BM-037-041-A.jpg,1200,dash,O,m,1119,prac,1,72510.5,330217.40000003576,7030,ATS,B,6
6,2,2,C,mfborder.png,0,z,Thu Oct 24 2024 15:10:55 GMT-0500 (Central Daylight Time),406543.2000000477,CFD-WF-013-015-A.jpg,1500,solid,O,None,1515,prac,1,76325.80000001192,330217.40000003576,7030,ATS,B,7
7,8,2,C,haborder.png,1,z,Thu Oct 24 2024 15:10:55 GMT-0500 (Central Daylight Time),410308.90000003576,CFD-BF-050-012-A.jpg,1700,solid,O,z,1239,prac,1,80091.5,330217.40000003576,7030,ATS,B,8
7,1,2,C,mfborder.png,0,z,Thu Oct 24 2024 15:10:55 GMT-0500 (Central Daylight Time),413974.10000002384,CFD-WF-011-006-HC.jpg,1600,dash,O,m,1237,prac,1,83756.69999998808,330217.40000003576,7030,ATS,B,9
8,9,2,C,haborder.png,1,z,Thu Oct 24 2024 15:10:55 GMT-0500 (Central Daylight Time),417706.2000000477,CFD-WF-026-008-A.jpg,1600,dash,O,z,1300,prac,1,87488.80000001192,330217.40000003576,7030,ATS,B,10
9,4,2,C,mfborder.png,1,m,Thu Oct 24 2024 15:10:55 GMT-0500 (Central Daylight Time),421721.90000003576,CFD-BM-015-017-HC.jpg,2000,solid,O,m,1192,prac,1,91504.5,330217.40000003576,7030,ATS,B,11
10,10,2,C,haborder.png,1,m,Thu Oct 24 2024 15:10:55 GMT-0500 (Central Daylight Time),425320.7000000477,CFD-BM-020-024-HC.jpg,1500,solid,O,m,1276,prac,1,95103.30000001192,330217.40000003576,7030,ATS,B,12
1,test,1,C,mfborder.png,1,z,Thu Oct 24 2024 15:10:55 GMT-0500 (Central Daylight Time),442998.5,CFD-BF-027-013-HC.jpg,1700,dash,O,z,1339,1,1,3083.0,439915.5,7030,ATS,B,1
1,test,1,C,haborder.png,0,z,Thu Oct 24 2024 15:10:55 GMT-0500 (Central Daylight Time),445963.8000000119,CFD-WM-009-009-A.jpg,1400,solid,O,None,1515,7,1,6048.300000011921,439915.5,7030,ATS,B,2
1,test,1,C,mfborder.png,0,m,Thu Oct 24 2024 15:10:55 GMT-0500 (Central Daylight Time),448712.7000000477,CFD-BM-020-024-HC.jpg,1200,dash,O,None,1515,6,1,8797.200000047684,439915.5,7030,ATS,B,3
1,test,1,C,haborder.png,0,z,Thu Oct 24 2024 15:10:55 GMT-0500 (Central Daylight Time),451411.7000000477,CFD-BM-041-048-A.jpg,1700,solid,O,m,934,9,1,11496.200000047684,439915.5,7030,ATS,B,4
2,test,1,C,mfborder.png,1,z,Thu Oct 24 2024 15:10:55 GMT-0500 (Central Daylight Time),454192.60000002384,CFD-BF-051-043-A.jpg,1600,dash,O,z,1147,2,1,14277.100000023842,439915.5,7030,ATS,B,5
2,test,1,C,haborder.png,0,z,Thu Oct 24 2024 15:10:55 GMT-0500 (Central Daylight Time),456526.7000000477,CFD-WM-009-009-A.jpg,1400,solid,O,m,896,7,1,16611.200000047684,439915.5,7030,ATS,B,6
3,test,1,C,haborder.png,1,m,Thu Oct 24 2024 15:10:55 GMT-0500 (Central Daylight Time),459525.10000002384,CFD-BF-035-007-HC.jpg,1600,solid,O,m,1355,10,1,19609.600000023842,439915.5,7030,ATS,B,7
4,test,1,C,haborder.png,1,z,Thu Oct 24 2024 15:10:55 GMT-0500 (Central Daylight Time),462224.90000003576,CFD-BM-041-048-A.jpg,1700,solid,O,z,969,9,1,22309.400000035763,439915.5,7030,ATS,B,8
5,test,1,C,mfborder.png,1,z,Thu Oct 24 2024 15:10:55 GMT-0500 (Central Daylight Time),465240.5,CFD-BF-027-013-HC.jpg,1700,dash,O,z,1269,1,1,25325.0,439915.5,7030,ATS,B,9
6,test,1,C,mfborder.png,1,z,Thu Oct 24 2024 15:10:55 GMT-0500 (Central Daylight Time),468039.7000000477,CFD-WF-026-008-A.jpg,1500,dash,O,z,1261,3,1,28124.200000047684,439915.5,7030,ATS,B,10
6,test,1,C,haborder.png,0,z,Thu Oct 24 2024 15:10:55 GMT-0500 (Central Daylight Time),471488.7000000477,CFD-BM-037-041-A.jpg,1900,solid,O,None,1512,8,1,31573.200000047684,439915.5,7030,ATS,B,11
7,test,1,C,haborder.png,1,m,Thu Oct 24 2024 15:10:55 GMT-0500 (Central Daylight Time),474004.40000003576,CFD-WF-027-007-HC.jpg,1500,solid,O,m,967,11,1,34088.90000003576,439915.5,7030,ATS,B,12
8,test,1,C,mfborder.png,1,m,Thu Oct 24 2024 15:10:55 GMT-0500 (Central Daylight Time),476153.60000002384,CFD-WM-012-007-HC.jpg,1000,dash,O,m,1110,4,1,36238.10000002384,439915.5,7030,ATS,B,13
9,test,1,C,haborder.png,1,m,Thu Oct 24 2024 15:10:55 GMT-0500 (Central Daylight Time),478286.0,CFD-WF-011-006-HC.jpg,1000,solid,O,m,1096,12,1,38370.5,439915.5,7030,ATS,B,14
10,test,1,C,haborder.png,1,m,Thu Oct 24 2024 15:10:55 GMT-0500 (Central Daylight Time),480085.60000002384,CFD-WF-011-006-HC.jpg,1000,solid,O,m,763,12,1,40170.10000002384,439915.5,7030,ATS,B,15
11,test,1,C,mfborder.png,1,m,Thu Oct 24 2024 15:10:55 GMT-0500 (Central Daylight Time),483567.90000003576,CFD-WM-037-060-A.jpg,2000,dash,O,m,1444,5,1,43652.40000003576,439915.5,7030,ATS,B,16
12,test,1,C,mfborder.png,1,m,Thu Oct 24 2024 15:10:55 GMT-0500 (Central Daylight Time),485450.40000003576,CFD-WM-012-007-HC.jpg,1000,dash,O,m,834,4,1,45534.90000003576,439915.5,7030,ATS,B,17
13,test,1,C,mfborder.png,1,m,Thu Oct 24 2024 15:10:55 GMT-0500 (Central Daylight Time),487399.90000003576,CFD-BM-020-024-HC.jpg,1200,dash,O,m,704,6,1,47484.40000003576,439915.5,7030,ATS,B,18
14,test,1,C,mfborder.png,1,z,Thu Oct 24 2024 15:10:55 GMT-0500 (Central Daylight Time),489984.10000002384,CFD-BF-051-043-A.jpg,1600,dash,O,z,931,2,1,50068.60000002384,439915.5,7030,ATS,B,19
15,test,1,C,haborder.png,1,m,Thu Oct 24 2024 15:10:55 GMT-0500 (Central Daylight Time),492698.3000000119,CFD-WF-027-007-HC.jpg,1500,solid,O,m,1168,11,1,52782.80000001192,439915.5,7030,ATS,B,20
16,test,1,C,haborder.png,1,m,Thu Oct 24 2024 15:10:55 GMT-0500 (Central Daylight Time),495197.40000003576,CFD-BF-035-007-HC.jpg,1600,solid,O,m,856,10,1,55281.90000003576,439915.5,7030,ATS,B,21
17,test,1,C,haborder.png,1,z,Thu Oct 24 2024 15:10:55 GMT-0500 (Central Daylight Time),498146.60000002384,CFD-BM-037-041-A.jpg,1900,solid,O,z,1001,8,1,58231.10000002384,439915.5,7030,ATS,B,22
18,test,1,C,mfborder.png,1,z,Thu Oct 24 2024 15:10:55 GMT-0500 (Central Daylight Time),501046.8000000119,CFD-WF-026-008-A.jpg,1500,dash,O,z,1356,3,1,61131.30000001192,439915.5,7030,ATS,B,23
19,test,1,C,mfborder.png,1,m,Thu Oct 24 2024 15:10:55 GMT-0500 (Central Daylight Time),504510.90000003576,CFD-WM-037-060-A.jpg,2000,dash,O,m,1428,5,1,64595.40000003576,439915.5,7030,ATS,B,24
0,test,2,C,haborder.png,0,z,Thu Oct 24 2024 15:10:55 GMT-0500 (Central Daylight Time),512492.0,CFD-BF-050-012-A.jpg,1900,solid,O,None,1516,8,1,3449.199999988079,509042.8000000119,7030,ATS,B,1
0,test,2,C,haborder.png,0,z,Thu Oct 24 2024 15:10:55 GMT-0500 (Central Daylight Time),515740.60000002384,CFD-WF-026-008-A.jpg,1700,solid,O,None,1515,9,1,6697.800000011921,509042.8000000119,7030,ATS,B,2
1,test,2,C,mfborder.png,1,m,Thu Oct 24 2024 15:10:55 GMT-0500 (Central Daylight Time),517939.7000000477,CFD-WM-009-009-A.jpg,1200,dash,O,m,958,6,1,8896.900000035763,509042.8000000119,7030,ATS,B,3
2,test,2,C,haborder.png,1,z,Thu Oct 24 2024 15:10:55 GMT-0500 (Central Daylight Time),520955.5,CFD-BF-050-012-A.jpg,1900,solid,O,z,1058,8,1,11912.699999988079,509042.8000000119,7030,ATS,B,4
3,test,2,C,mfborder.png,1,z,Thu Oct 24 2024 15:10:55 GMT-0500 (Central Daylight Time),523721.3000000119,CFD-WF-013-015-A.jpg,1600,dash,O,z,1127,2,1,14678.5,509042.8000000119,7030,ATS,B,5
4,test,2,C,mfborder.png,1,z,Thu Oct 24 2024 15:10:55 GMT-0500 (Central Daylight Time),526220.8000000119,CFD-BF-035-007-HC.jpg,1500,dash,O,z,965,3,1,17178.0,509042.8000000119,7030,ATS,B,6
5,test,2,C,haborder.png,1,z,Thu Oct 24 2024 15:10:55 GMT-0500 (Central Daylight Time),528652.8000000119,CFD-BF-051-043-A.jpg,1400,solid,O,z,998,7,1,19610.0,509042.8000000119,7030,ATS,B,7
6,test,2,C,mfborder.png,1,z,Thu Oct 24 2024 15:10:55 GMT-0500 (Central Daylight Time),531035.6000000238,CFD-BF-035-007-HC.jpg,1500,dash,O,z,823,3,1,21992.80000001192,509042.8000000119,7030,ATS,B,8
7,test,2,C,mfborder.png,1,z,Thu Oct 24 2024 15:10:55 GMT-0500 (Central Daylight Time),533568.2000000477,CFD-WF-011-006-HC.jpg,1700,dash,O,z,795,1,1,24525.400000035763,509042.8000000119,7030,ATS,B,9
7,test,2,C,mfborder.png,0,m,Thu Oct 24 2024 15:10:55 GMT-0500 (Central Daylight Time),537117.6000000238,CFD-BM-037-041-A.jpg,2000,dash,O,None,1515,5,1,28074.80000001192,509042.8000000119,7030,ATS,B,10
8,test,2,C,mfborder.png,1,m,Thu Oct 24 2024 15:10:55 GMT-0500 (Central Daylight Time),539882.5,CFD-BM-037-041-A.jpg,2000,dash,O,m,717,5,1,30839.69999998808,509042.8000000119,7030,ATS,B,11
8,test,2,C,mfborder.png,0,z,Thu Oct 24 2024 15:10:55 GMT-0500 (Central Daylight Time),543031.6000000238,CFD-WF-013-015-A.jpg,1600,dash,O,None,1515,2,1,33988.80000001192,509042.8000000119,7030,ATS,B,12
8,test,2,C,haborder.png,0,z,Thu Oct 24 2024 15:10:55 GMT-0500 (Central Daylight Time),545764.3000000119,CFD-WF-026-008-A.jpg,1700,solid,O,m,990,9,1,36721.5,509042.8000000119,7030,ATS,B,13
9,test,2,C,haborder.png,1,m,Thu Oct 24 2024 15:10:55 GMT-0500 (Central Daylight Time),548563.2000000477,CFD-BM-020-024-HC.jpg,1600,solid,O,m,1158,10,1,39520.40000003576,509042.8000000119,7030,ATS,B,14
10,test,2,C,haborder.png,1,z,Thu Oct 24 2024 15:10:55 GMT-0500 (Central Daylight Time),550945.6000000238,CFD-BF-051-043-A.jpg,1400,solid,O,z,935,7,1,41902.80000001192,509042.8000000119,7030,ATS,B,15
11,test,2,C,haborder.png,1,m,Thu Oct 24 2024 15:10:55 GMT-0500 (Central Daylight Time),553528.2000000477,CFD-WM-011-006-HC.jpg,1500,solid,O,m,1044,11,1,44485.40000003576,509042.8000000119,7030,ATS,B,16
12,test,2,C,mfborder.png,1,m,Thu Oct 24 2024 15:10:55 GMT-0500 (Central Daylight Time),555677.7000000477,CFD-BM-015-017-HC.jpg,1000,dash,O,m,1106,4,1,46634.90000003576,509042.8000000119,7030,ATS,B,17
13,test,2,C,haborder.png,1,m,Thu Oct 24 2024 15:10:55 GMT-0500 (Central Daylight Time),557743.5,CFD-WM-011-006-HC.jpg,1000,solid,O,m,1029,12,1,48700.69999998808,509042.8000000119,7030,ATS,B,18
14,test,2,C,mfborder.png,1,m,Thu Oct 24 2024 15:10:55 GMT-0500 (Central Daylight Time),559876.4000000358,CFD-WM-009-009-A.jpg,1200,dash,O,m,890,6,1,50833.60000002384,509042.8000000119,7030,ATS,B,19
15,test,2,C,mfborder.png,1,z,Thu Oct 24 2024 15:10:55 GMT-0500 (Central Daylight Time),563041.8000000119,CFD-WF-011-006-HC.jpg,1700,dash,O,z,1426,1,1,53999.0,509042.8000000119,7030,ATS,B,20
16,test,2,C,haborder.png,1,m,Thu Oct 24 2024 15:10:55 GMT-0500 (Central Daylight Time),565507.9000000358,CFD-WM-011-006-HC.jpg,1500,solid,O,m,917,11,1,56465.10000002384,509042.8000000119,7030,ATS,B,21
17,test,2,C,mfborder.png,1,m,Thu Oct 24 2024 15:10:55 GMT-0500 (Central Daylight Time),567656.8000000119,CFD-BM-015-017-HC.jpg,1000,dash,O,m,1111,4,1,58614.0,509042.8000000119,7030,ATS,B,22
18,test,2,C,haborder.png,1,m,Thu Oct 24 2024 15:10:55 GMT-0500 (Central Daylight Time),569722.7000000477,CFD-WM-011-006-HC.jpg,1000,solid,O,m,1024,12,1,60679.90000003576,509042.8000000119,7030,ATS,B,23
19,test,2,C,haborder.png,1,m,Thu Oct 24 2024 15:10:55 GMT-0500 (Central Daylight Time),572205.2000000477,CFD-BM-020-024-HC.jpg,1600,solid,O,m,847,10,1,63162.40000003576,509042.8000000119,7030,ATS,B,24
1,test,3,C,haborder.png,1,m,Thu Oct 24 2024 15:10:55 GMT-0500 (Central Daylight Time),576687.4000000358,CFD-WF-011-006-HC.jpg,1000,solid,O,m,1112,12,1,2149.400000035763,574538.0,7030,ATS,B,1
2,test,3,C,mfborder.png,1,m,Thu Oct 24 2024 15:10:55 GMT-0500 (Central Daylight Time),579136.6000000238,CFD-BM-020-024-HC.jpg,1200,dash,O,m,1203,6,1,4598.600000023842,574538.0,7030,ATS,B,2
3,test,3,C,haborder.png,1,m,Thu Oct 24 2024 15:10:55 GMT-0500 (Central Daylight Time),581569.1000000238,CFD-WF-027-007-HC.jpg,1500,solid,O,m,886,11,1,7031.100000023842,574538.0,7030,ATS,B,3
3,test,3,C,haborder.png,0,z,Thu Oct 24 2024 15:10:55 GMT-0500 (Central Daylight Time),584784.6000000238,CFD-BM-037-041-A.jpg,1900,solid,O,m,1277,8,1,10246.600000023842,574538.0,7030,ATS,B,4
4,test,3,C,haborder.png,1,m,Thu Oct 24 2024 15:10:55 GMT-0500 (Central Daylight Time),587450.3000000119,CFD-BF-035-007-HC.jpg,1600,solid,O,m,1018,10,1,12912.300000011921,574538.0,7030,ATS,B,5
4,test,3,C,mfborder.png,0,m,Thu Oct 24 2024 15:10:55 GMT-0500 (Central Daylight Time),590216.4000000358,CFD-BM-020-024-HC.jpg,1200,dash,O,None,1515,6,1,15678.400000035763,574538.0,7030,ATS,B,6
5,test,3,C,haborder.png,1,z,Thu Oct 24 2024 15:10:55 GMT-0500 (Central Daylight Time),592948.9000000358,CFD-WM-009-009-A.jpg,1400,solid,O,z,1298,7,1,18410.900000035763,574538.0,7030,ATS,B,7
5,test,3,C,haborder.png,0,m,Thu Oct 24 2024 15:10:55 GMT-0500 (Central Daylight Time),595847.6000000238,CFD-WF-027-007-HC.jpg,1500,solid,O,z,1354,11,1,21309.600000023842,574538.0,7030,ATS,B,8
5,test,3,C,mfborder.png,0,m,Thu Oct 24 2024 15:10:55 GMT-0500 (Central Daylight Time),598396.8000000119,CFD-WM-012-007-HC.jpg,1000,dash,O,None,1515,4,1,23858.80000001192,574538.0,7030,ATS,B,9
5,test,3,C,haborder.png,0,z,Thu Oct 24 2024 15:10:55 GMT-0500 (Central Daylight Time),601345.7000000477,CFD-WM-009-009-A.jpg,1400,solid,O,None,1514,7,1,26807.700000047684,574538.0,7030,ATS,B,10
5,test,3,C,mfborder.png,0,z,Thu Oct 24 2024 15:10:55 GMT-0500 (Central Daylight Time),603895.0,CFD-BF-027-013-HC.jpg,1700,dash,O,m,813,1,1,29357.0,574538.0,7030,ATS,B,11
6,test,3,C,mfborder.png,1,m,Thu Oct 24 2024 15:10:55 GMT-0500 (Central Daylight Time),607010.8000000119,CFD-WM-037-060-A.jpg,2000,dash,O,m,1068,5,1,32472.80000001192,574538.0,7030,ATS,B,12
7,test,3,C,haborder.png,1,m,Thu Oct 24 2024 15:10:55 GMT-0500 (Central Daylight Time),609259.9000000358,CFD-WF-011-006-HC.jpg,1000,solid,O,m,1200,12,1,34721.90000003576,574538.0,7030,ATS,B,13
8,test,3,C,haborder.png,1,m,Thu Oct 24 2024 15:10:55 GMT-0500 (Central Daylight Time),611659.0,CFD-BF-035-007-HC.jpg,1600,solid,O,m,758,10,1,37121.0,574538.0,7030,ATS,B,14
9,test,3,C,mfborder.png,1,z,Thu Oct 24 2024 15:10:55 GMT-0500 (Central Daylight Time),614108.3000000119,CFD-WF-026-008-A.jpg,1500,dash,O,z,907,3,1,39570.30000001192,574538.0,7030,ATS,B,15
10,test,3,C,mfborder.png,1,m,Thu Oct 24 2024 15:10:55 GMT-0500 (Central Daylight Time),616857.3000000119,CFD-WM-037-060-A.jpg,2000,dash,O,m,710,5,1,42319.30000001192,574538.0,7030,ATS,B,16
11,test,3,C,mfborder.png,1,z,Thu Oct 24 2024 15:10:55 GMT-0500 (Central Daylight Time),619573.3000000119,CFD-BF-051-043-A.jpg,1600,dash,O,z,1082,2,1,45035.30000001192,574538.0,7030,ATS,B,17
12,test,3,C,mfborder.png,1,m,Thu Oct 24 2024 15:10:55 GMT-0500 (Central Daylight Time),621422.5,CFD-WM-012-007-HC.jpg,1000,dash,O,m,813,4,1,46884.5,574538.0,7030,ATS,B,18
13,test,3,C,mfborder.png,1,z,Thu Oct 24 2024 15:10:55 GMT-0500 (Central Daylight Time),623971.6000000238,CFD-WF-026-008-A.jpg,1500,dash,O,z,991,3,1,49433.60000002384,574538.0,7030,ATS,B,19
13,test,3,C,haborder.png,0,z,Thu Oct 24 2024 15:10:55 GMT-0500 (Central Daylight Time),627153.9000000358,CFD-BM-041-048-A.jpg,1700,solid,O,m,1460,9,1,52615.90000003576,574538.0,7030,ATS,B,20
14,test,3,C,mfborder.png,1,z,Thu Oct 24 2024 15:10:55 GMT-0500 (Central Daylight Time),630253.3000000119,CFD-BF-027-013-HC.jpg,1700,dash,O,z,1365,1,1,55715.30000001192,574538.0,7030,ATS,B,21
15,test,3,C,mfborder.png,1,z,Thu Oct 24 2024 15:10:55 GMT-0500 (Central Daylight Time),632969.2000000477,CFD-BF-051-043-A.jpg,1600,dash,O,z,1082,2,1,58431.200000047684,574538.0,7030,ATS,B,22
15,test,3,C,haborder.png,0,z,Thu Oct 24 2024 15:10:55 GMT-0500 (Central Daylight Time),635967.7000000477,CFD-BM-037-041-A.jpg,1900,solid,O,m,1062,8,1,61429.700000047684,574538.0,7030,ATS,B,23
16,test,3,C,haborder.png,1,z,Thu Oct 24 2024 15:10:55 GMT-0500 (Central Daylight Time),638633.5,CFD-BM-041-048-A.jpg,1700,solid,O,z,927,9,1,64095.5,574538.0,7030,ATS,B,24
1,test,4,C,haborder.png,1,m,Thu Oct 24 2024 15:10:55 GMT-0500 (Central Daylight Time),643733.1000000238,CFD-WM-011-006-HC.jpg,1000,solid,O,m,982,12,1,2017.199999988079,641715.9000000358,7030,ATS,B,1
2,test,4,C,haborder.png,1,m,Thu Oct 24 2024 15:10:55 GMT-0500 (Central Daylight Time),646014.6000000238,CFD-BM-020-024-HC.jpg,1600,solid,O,m,646,10,1,4298.699999988079,641715.9000000358,7030,ATS,B,2
3,test,4,C,haborder.png,1,z,Thu Oct 24 2024 15:10:55 GMT-0500 (Central Daylight Time),648813.5,CFD-BF-050-012-A.jpg,1900,solid,O,z,856,8,1,7097.599999964237,641715.9000000358,7030,ATS,B,3
3,test,4,C,mfborder.png,0,z,Thu Oct 24 2024 15:10:55 GMT-0500 (Central Daylight Time),651662.5,CFD-BF-035-007-HC.jpg,1500,dash,O,m,1313,3,1,9946.599999964237,641715.9000000358,7030,ATS,B,4
4,test,4,C,mfborder.png,1,z,Thu Oct 24 2024 15:10:55 GMT-0500 (Central Daylight Time),654661.3000000119,CFD-WF-011-006-HC.jpg,1700,dash,O,z,1264,1,1,12945.399999976158,641715.9000000358,7030,ATS,B,5
4,test,4,C,haborder.png,0,z,Thu Oct 24 2024 15:10:55 GMT-0500 (Central Daylight Time),658110.5,CFD-BF-050-012-A.jpg,1900,solid,O,None,1515,8,1,16394.599999964237,641715.9000000358,7030,ATS,B,6
5,test,4,C,haborder.png,1,z,Thu Oct 24 2024 15:10:55 GMT-0500 (Central Daylight Time),660876.1000000238,CFD-WF-026-008-A.jpg,1700,solid,O,z,1025,9,1,19160.19999998808,641715.9000000358,7030,ATS,B,7
6,test,4,C,mfborder.png,1,m,Thu Oct 24 2024 15:10:55 GMT-0500 (Central Daylight Time),662941.3000000119,CFD-BM-015-017-HC.jpg,1000,dash,O,m,1030,4,1,21225.399999976158,641715.9000000358,7030,ATS,B,8
7,test,4,C,mfborder.png,1,z,Thu Oct 24 2024 15:10:55 GMT-0500 (Central Daylight Time),665807.9000000358,CFD-WF-013-015-A.jpg,1600,dash,O,z,1245,2,1,24092.0,641715.9000000358,7030,ATS,B,9
8,test,4,C,haborder.png,1,m,Thu Oct 24 2024 15:10:55 GMT-0500 (Central Daylight Time),668207.1000000238,CFD-WM-011-006-HC.jpg,1500,solid,O,m,863,11,1,26491.19999998808,641715.9000000358,7030,ATS,B,10
9,test,4,C,haborder.png,1,z,Thu Oct 24 2024 15:10:55 GMT-0500 (Central Daylight Time),670523.1000000238,CFD-BF-051-043-A.jpg,1400,solid,O,z,875,7,1,28807.19999998808,641715.9000000358,7030,ATS,B,11
10,test,4,C,mfborder.png,1,m,Thu Oct 24 2024 15:10:55 GMT-0500 (Central Daylight Time),673788.8000000119,CFD-BM-037-041-A.jpg,2000,dash,O,m,1231,5,1,32072.899999976158,641715.9000000358,7030,ATS,B,12
11,test,4,C,mfborder.png,1,m,Thu Oct 24 2024 15:10:55 GMT-0500 (Central Daylight Time),675721.2000000477,CFD-WM-009-009-A.jpg,1200,dash,O,m,686,6,1,34005.30000001192,641715.9000000358,7030,ATS,B,13
12,test,4,C,mfborder.png,1,m,Thu Oct 24 2024 15:10:55 GMT-0500 (Central Daylight Time),677604.1000000238,CFD-WM-009-009-A.jpg,1200,dash,O,m,633,6,1,35888.19999998808,641715.9000000358,7030,ATS,B,14
13,test,4,C,haborder.png,1,m,Thu Oct 24 2024 15:10:55 GMT-0500 (Central Daylight Time),680486.6000000238,CFD-BM-020-024-HC.jpg,1600,solid,O,m,1219,10,1,38770.69999998808,641715.9000000358,7030,ATS,B,15
14,test,4,C,haborder.png,1,z,Thu Oct 24 2024 15:10:55 GMT-0500 (Central Daylight Time),683235.6000000238,CFD-WF-026-008-A.jpg,1700,solid,O,z,1000,9,1,41519.69999998808,641715.9000000358,7030,ATS,B,16
15,test,4,C,haborder.png,1,m,Thu Oct 24 2024 15:10:55 GMT-0500 (Central Daylight Time),685101.2000000477,CFD-WM-011-006-HC.jpg,1000,solid,O,m,831,12,1,43385.30000001192,641715.9000000358,7030,ATS,B,17
15,test,4,C,mfborder.png,0,z,Thu Oct 24 2024 15:10:55 GMT-0500 (Central Daylight Time),687701.0,CFD-WF-011-006-HC.jpg,1700,dash,O,m,865,1,1,45985.09999996424,641715.9000000358,7030,ATS,B,18
15,test,4,C,mfborder.png,0,z,Thu Oct 24 2024 15:10:55 GMT-0500 (Central Daylight Time),690749.8000000119,CFD-BF-035-007-HC.jpg,1500,dash,O,None,1515,3,1,49033.89999997616,641715.9000000358,7030,ATS,B,19
16,test,4,C,mfborder.png,1,m,Thu Oct 24 2024 15:10:55 GMT-0500 (Central Daylight Time),693632.0,CFD-BM-037-041-A.jpg,2000,dash,O,m,845,5,1,51916.09999996424,641715.9000000358,7030,ATS,B,20
17,test,4,C,haborder.png,1,m,Thu Oct 24 2024 15:10:55 GMT-0500 (Central Daylight Time),696164.5,CFD-WM-011-006-HC.jpg,1500,solid,O,m,990,11,1,54448.59999996424,641715.9000000358,7030,ATS,B,21
18,test,4,C,mfborder.png,1,z,Thu Oct 24 2024 15:10:55 GMT-0500 (Central Daylight Time),699230.3000000119,CFD-WF-013-015-A.jpg,1600,dash,O,z,1422,2,1,57514.39999997616,641715.9000000358,7030,ATS,B,22
18,test,4,C,mfborder.png,0,m,Thu Oct 24 2024 15:10:55 GMT-0500 (Central Daylight Time),701779.4000000358,CFD-BM-015-017-HC.jpg,1000,dash,O,None,1515,4,1,60063.5,641715.9000000358,7030,ATS,B,23
18,test,4,C,haborder.png,0,z,Thu Oct 24 2024 15:10:55 GMT-0500 (Central Daylight Time),704745.1000000238,CFD-BF-051-043-A.jpg,1400,solid,O,None,1515,7,1,63029.19999998808,641715.9000000358,7030,ATS,B,24
