block_c,block_dur,condition,countdown,datetime,endtime,list,multichar_response,project,response,response_time,session_number,start_end,starttime,subject_id,task,task_vers,trial
,,,,Wed Apr 09 2025 17:47:37 GMT-0500 (Central Daylight Time),,,,O,space,583,1,,,7124,WL,B,
prac,,0,,Wed Apr 09 2025 17:47:37 GMT-0500 (Central Daylight Time),,NA,b,O,b,3671,1,,,7124,WL,B,1.0
prac,,0,,Wed Apr 09 2025 17:47:37 GMT-0500 (Central Daylight Time),,NA,bo,O,o,512,1,,,7124,WL,B,1.0
prac,,0,,Wed Apr 09 2025 17:47:37 GMT-0500 (Central Daylight Time),,NA,boo,O,o,107,1,,,7124,WL,B,1.0
prac,,0,,Wed Apr 09 2025 17:47:37 GMT-0500 (Central Daylight Time),,NA,boos,O,s,326,1,,,7124,WL,B,1.0
prac,,0,,Wed Apr 09 2025 17:47:37 GMT-0500 (Central Daylight Time),,NA,boost,O,t,457,1,,,7124,WL,B,1.0
prac,,0,,Wed Apr 09 2025 17:47:37 GMT-0500 (Central Daylight Time),,NA,boostenter,O,enter,2094,1,,,7124,WL,B,1.0
1,2.7820000648498535,learn,57217.99993515015,Wed Apr 09 2025 17:47:37 GMT-0500 (Central Daylight Time),151024.3999999985,A,s,O,s,2769,1,2781.800000000745,148242.59999999776,7124,WL,B,1.0
1,5.0320000648498535,learn,54967.99993515015,Wed Apr 09 2025 17:47:37 GMT-0500 (Central Daylight Time),153274.0,A,st,O,t,2243,1,5031.400000002235,148242.59999999776,7124,WL,B,1.0
1,5.29800009727478,learn,54701.99990272522,Wed Apr 09 2025 17:47:37 GMT-0500 (Central Daylight Time),153540.5,A,str,O,r,249,1,5297.900000002235,148242.59999999776,7124,WL,B,1.0
1,5.5970001220703125,learn,54402.99987792969,Wed Apr 09 2025 17:47:37 GMT-0500 (Central Daylight Time),153839.8999999985,A,stre,O,e,279,1,5597.300000000745,148242.59999999776,7124,WL,B,1.0
1,5.764000177383423,learn,54235.99982261658,Wed Apr 09 2025 17:47:37 GMT-0500 (Central Daylight Time),154006.8999999985,A,stree,O,e,148,1,5764.300000000745,148242.59999999776,7124,WL,B,1.0
1,5.981000185012817,learn,54018.99981498718,Wed Apr 09 2025 17:47:37 GMT-0500 (Central Daylight Time),154223.59999999776,A,street,O,t,197,1,5981.0,148242.59999999776,7124,WL,B,1.0
1,11.546000003814697,learn,48453.9999961853,Wed Apr 09 2025 17:47:37 GMT-0500 (Central Daylight Time),159788.30000000075,A,streetenter,O,enter,5556,1,11545.70000000298,148242.59999999776,7124,WL,B,1.0
1,12.462000131607056,learn,47537.999868392944,Wed Apr 09 2025 17:47:37 GMT-0500 (Central Daylight Time),160704.80000000075,A,g,O,g,894,1,915.8000000007451,159789.0,7124,WL,B,2.0
1,12.712000131607056,learn,47287.999868392944,Wed Apr 09 2025 17:47:37 GMT-0500 (Central Daylight Time),160954.59999999776,A,gr,O,r,235,1,1165.5999999977648,159789.0,7124,WL,B,2.0
1,12.92900013923645,learn,47070.99986076355,Wed Apr 09 2025 17:47:37 GMT-0500 (Central Daylight Time),161171.19999999925,A,gra,O,a,201,1,1382.199999999255,159789.0,7124,WL,B,2.0
1,13.394999980926514,learn,46605.000019073486,Wed Apr 09 2025 17:47:37 GMT-0500 (Central Daylight Time),161637.80000000075,A,gras,O,s,448,1,1848.800000000745,159789.0,7124,WL,B,2.0
1,13.545000076293945,learn,46454.999923706055,Wed Apr 09 2025 17:47:37 GMT-0500 (Central Daylight Time),161787.69999999925,A,grass,O,s,141,1,1998.699999999255,159789.0,7124,WL,B,2.0
1,14.01200008392334,learn,45987.99991607666,Wed Apr 09 2025 17:47:37 GMT-0500 (Central Daylight Time),162254.19999999925,A,grassenter,O,enter,448,1,2465.199999999255,159789.0,7124,WL,B,2.0
1,14.712000131607056,learn,45287.999868392944,Wed Apr 09 2025 17:47:37 GMT-0500 (Central Daylight Time),162954.19999999925,A,d,O,d,685,1,699.5,162254.69999999925,7124,WL,B,3.0
1,14.995000123977661,learn,45004.99987602234,Wed Apr 09 2025 17:47:37 GMT-0500 (Central Daylight Time),163237.5,A,do,O,o,265,1,982.8000000007451,162254.69999999925,7124,WL,B,3.0
1,15.128000020980835,learn,44871.999979019165,Wed Apr 09 2025 17:47:37 GMT-0500 (Central Daylight Time),163370.59999999776,A,doo,O,o,118,1,1115.8999999985099,162254.69999999925,7124,WL,B,3.0
1,15.34500002861023,learn,44654.99997138977,Wed Apr 09 2025 17:47:37 GMT-0500 (Central Daylight Time),163587.5,A,door,O,r,201,1,1332.800000000745,162254.69999999925,7124,WL,B,3.0
1,15.778000116348267,learn,44221.99988365173,Wed Apr 09 2025 17:47:37 GMT-0500 (Central Daylight Time),164020.59999999776,A,doorenter,O,enter,416,1,1765.8999999985099,162254.69999999925,7124,WL,B,3.0
1,16.211000204086304,learn,43788.999795913696,Wed Apr 09 2025 17:47:37 GMT-0500 (Central Daylight Time),164453.69999999925,A,a,O,a,423,1,432.69999999925494,164021.0,7124,WL,B,4.0
1,16.561000108718872,learn,43438.99989128113,Wed Apr 09 2025 17:47:37 GMT-0500 (Central Daylight Time),164803.69999999925,A,ar,O,r,342,1,782.6999999992549,164021.0,7124,WL,B,4.0
1,16.711000204086304,learn,43288.999795913696,Wed Apr 09 2025 17:47:37 GMT-0500 (Central Daylight Time),164953.59999999776,A,are,O,e,136,1,932.5999999977648,164021.0,7124,WL,B,4.0
1,18.277000188827515,learn,41722.999811172485,Wed Apr 09 2025 17:47:37 GMT-0500 (Central Daylight Time),166519.59999999776,A,arem,O,m,1547,1,2498.599999997765,164021.0,7124,WL,B,4.0
1,20.39300012588501,learn,39606.99987411499,Wed Apr 09 2025 17:47:37 GMT-0500 (Central Daylight Time),168635.59999999776,A,are,O,backspace,2108,1,4614.599999997765,164021.0,7124,WL,B,4.0
1,20.677000045776367,learn,39322.99995422363,Wed Apr 09 2025 17:47:37 GMT-0500 (Central Daylight Time),168919.0,A,ar,O,backspace,272,1,4898.0,164021.0,7124,WL,B,4.0
1,21.526000022888184,learn,38473.99997711182,Wed Apr 09 2025 17:47:37 GMT-0500 (Central Daylight Time),169768.59999999776,A,arm,O,m,829,1,5747.599999997765,164021.0,7124,WL,B,4.0
1,22.110000133514404,learn,37889.999866485596,Wed Apr 09 2025 17:47:37 GMT-0500 (Central Daylight Time),170352.0,A,armenter,O,enter,571,1,6331.0,164021.0,7124,WL,B,4.0
1,23.642000198364258,learn,36357.99980163574,Wed Apr 09 2025 17:47:37 GMT-0500 (Central Daylight Time),171884.5,A,f,O,f,1523,1,1532.0,170352.5,7124,WL,B,5.0
1,23.825000047683716,learn,36174.999952316284,Wed Apr 09 2025 17:47:37 GMT-0500 (Central Daylight Time),172068.0,A,fi,O,i,175,1,1715.5,170352.5,7124,WL,B,5.0
1,23.975000143051147,learn,36024.99985694885,Wed Apr 09 2025 17:47:37 GMT-0500 (Central Daylight Time),172217.80000000075,A,fir,O,r,136,1,1865.300000000745,170352.5,7124,WL,B,5.0
1,24.192000150680542,learn,35807.99984931946,Wed Apr 09 2025 17:47:37 GMT-0500 (Central Daylight Time),172434.3999999985,A,fire,O,e,202,1,2081.89999999851,170352.5,7124,WL,B,5.0
1,24.442000150680542,learn,35557.99984931946,Wed Apr 09 2025 17:47:37 GMT-0500 (Central Daylight Time),172684.3999999985,A,fires,O,s,243,1,2331.89999999851,170352.5,7124,WL,B,5.0
1,25.808000087738037,learn,34191.99991226196,Wed Apr 09 2025 17:47:37 GMT-0500 (Central Daylight Time),174050.3999999985,A,fire,O,backspace,1351,1,3697.89999999851,170352.5,7124,WL,B,5.0
1,26.641000032424927,learn,33358.99996757507,Wed Apr 09 2025 17:47:37 GMT-0500 (Central Daylight Time),174883.59999999776,A,fireenter,O,enter,816,1,4531.099999997765,170352.5,7124,WL,B,5.0
1,27.624000072479248,learn,32375.999927520752,Wed Apr 09 2025 17:47:37 GMT-0500 (Central Daylight Time),175866.5,A,w,O,w,976,1,982.5,174884.0,7124,WL,B,6.0
1,27.841000080108643,learn,32158.999919891357,Wed Apr 09 2025 17:47:37 GMT-0500 (Central Daylight Time),176083.3999999985,A,wi,O,i,200,1,1199.3999999985099,174884.0,7124,WL,B,6.0
1,28.174000024795532,learn,31825.999975204468,Wed Apr 09 2025 17:47:37 GMT-0500 (Central Daylight Time),176416.5,A,wif,O,f,313,1,1532.5,174884.0,7124,WL,B,6.0
1,28.407000064849854,learn,31592.999935150146,Wed Apr 09 2025 17:47:37 GMT-0500 (Central Daylight Time),176649.80000000075,A,wife,O,e,228,1,1765.800000000745,174884.0,7124,WL,B,6.0
1,28.707000017166138,learn,31292.999982833862,Wed Apr 09 2025 17:47:37 GMT-0500 (Central Daylight Time),176949.69999999925,A,wifeenter,O,enter,283,1,2065.699999999255,174884.0,7124,WL,B,6.0
1,29.473000049591064,learn,30526.999950408936,Wed Apr 09 2025 17:47:37 GMT-0500 (Central Daylight Time),177715.8999999985,A,c,O,c,758,1,765.8999999985099,176950.0,7124,WL,B,7.0
1,29.707000017166138,learn,30292.999982833862,Wed Apr 09 2025 17:47:37 GMT-0500 (Central Daylight Time),177949.30000000075,A,ca,O,a,216,1,999.3000000007451,176950.0,7124,WL,B,7.0
1,30.057000160217285,learn,29942.999839782715,Wed Apr 09 2025 17:47:37 GMT-0500 (Central Daylight Time),178299.3999999985,A,cab,O,b,335,1,1349.3999999985099,176950.0,7124,WL,B,7.0
1,30.240000009536743,learn,29759.999990463257,Wed Apr 09 2025 17:47:37 GMT-0500 (Central Daylight Time),178482.3999999985,A,cabi,O,i,168,1,1532.3999999985099,176950.0,7124,WL,B,7.0
1,30.44000005722046,learn,29559.99994277954,Wed Apr 09 2025 17:47:37 GMT-0500 (Central Daylight Time),178682.30000000075,A,cabin,O,n,194,1,1732.300000000745,176950.0,7124,WL,B,7.0
1,35.50500011444092,learn,24494.999885559082,Wed Apr 09 2025 17:47:37 GMT-0500 (Central Daylight Time),183747.5,A,cabinenter,O,enter,5058,1,6797.5,176950.0,7124,WL,B,7.0
1,60.01400017738342,learn,-14.000177383422852,Wed Apr 09 2025 17:47:37 GMT-0500 (Central Daylight Time),208256.69999999925,A,None,O,None,24504,1,24508.800000000745,183747.8999999985,7124,WL,B,8.0
2,1.7319998741149902,learn,58268.00012588501,Wed Apr 09 2025 17:47:37 GMT-0500 (Central Daylight Time),281383.69999999925,A,c,O,c,1721,1,1731.5,279652.19999999925,7124,WL,B,1.0
2,2.1649999618530273,learn,57835.00003814697,Wed Apr 09 2025 17:47:37 GMT-0500 (Central Daylight Time),281816.80000000075,A,ca,O,a,412,1,2164.60000000149,279652.19999999925,7124,WL,B,1.0
2,2.3480000495910645,learn,57651.999950408936,Wed Apr 09 2025 17:47:37 GMT-0500 (Central Daylight Time),282000.5,A,cab,O,b,171,1,2348.300000000745,279652.19999999925,7124,WL,B,1.0
2,2.6649999618530273,learn,57335.00003814697,Wed Apr 09 2025 17:47:37 GMT-0500 (Central Daylight Time),282317.0,A,cabi,O,i,307,1,2664.800000000745,279652.19999999925,7124,WL,B,1.0
2,2.997999906539917,learn,57002.00009346008,Wed Apr 09 2025 17:47:37 GMT-0500 (Central Daylight Time),282649.80000000075,A,cabin,O,n,327,1,2997.60000000149,279652.19999999925,7124,WL,B,1.0
2,4.46399998664856,learn,55536.00001335144,Wed Apr 09 2025 17:47:37 GMT-0500 (Central Daylight Time),284116.30000000075,A,cabinenter,O,enter,1451,1,4464.10000000149,279652.19999999925,7124,WL,B,1.0
2,5.230000019073486,learn,54769.999980926514,Wed Apr 09 2025 17:47:37 GMT-0500 (Central Daylight Time),284882.5,A,f,O,f,760,1,765.8000000007451,284116.69999999925,7124,WL,B,2.0
2,5.396999835968018,learn,54603.00016403198,Wed Apr 09 2025 17:47:37 GMT-0500 (Central Daylight Time),285049.30000000075,A,fi,O,i,154,1,932.6000000014901,284116.69999999925,7124,WL,B,2.0
2,5.496999979019165,learn,54503.000020980835,Wed Apr 09 2025 17:47:37 GMT-0500 (Central Daylight Time),285149.3999999985,A,fir,O,r,83,1,1032.699999999255,284116.69999999925,7124,WL,B,2.0
2,5.629999876022339,learn,54370.00012397766,Wed Apr 09 2025 17:47:37 GMT-0500 (Central Daylight Time),285282.30000000075,A,fire,O,e,127,1,1165.6000000014901,284116.69999999925,7124,WL,B,2.0
2,6.563999891281128,learn,53436.00010871887,Wed Apr 09 2025 17:47:37 GMT-0500 (Central Daylight Time),286215.69999999925,A,fireenter,O,enter,914,1,2099.0,284116.69999999925,7124,WL,B,2.0
2,7.230000019073486,learn,52769.999980926514,Wed Apr 09 2025 17:47:37 GMT-0500 (Central Daylight Time),286882.19999999925,A,s,O,s,652,1,666.1000000014901,286216.09999999776,7124,WL,B,3.0
2,7.61299991607666,learn,52387.00008392334,Wed Apr 09 2025 17:47:37 GMT-0500 (Central Daylight Time),287265.09999999776,A,st,O,t,362,1,1049.0,286216.09999999776,7124,WL,B,3.0
2,7.829999923706055,learn,52170.000076293945,Wed Apr 09 2025 17:47:37 GMT-0500 (Central Daylight Time),287481.8999999985,A,sta,O,a,195,1,1265.800000000745,286216.09999999776,7124,WL,B,3.0
2,8.079999923706055,learn,51920.000076293945,Wed Apr 09 2025 17:47:37 GMT-0500 (Central Daylight Time),287731.69999999925,A,stat,O,t,242,1,1515.6000000014901,286216.09999999776,7124,WL,B,3.0
2,9.828999996185303,learn,50171.0000038147,Wed Apr 09 2025 17:47:37 GMT-0500 (Central Daylight Time),289481.19999999925,A,sta,O,backspace,1737,1,3265.10000000149,286216.09999999776,7124,WL,B,3.0
2,10.062000036239624,learn,49937.999963760376,Wed Apr 09 2025 17:47:37 GMT-0500 (Central Daylight Time),289714.3999999985,A,star,O,r,228,1,3498.300000000745,286216.09999999776,7124,WL,B,3.0
2,10.395999908447266,learn,49604.000091552734,Wed Apr 09 2025 17:47:37 GMT-0500 (Central Daylight Time),290047.69999999925,A,starenter,O,enter,314,1,3831.60000000149,286216.09999999776,7124,WL,B,3.0
2,11.327999830245972,learn,48672.00016975403,Wed Apr 09 2025 17:47:37 GMT-0500 (Central Daylight Time),290980.69999999925,A,c,O,c,917,1,932.6999999992549,290048.0,7124,WL,B,4.0
2,11.527999877929688,learn,48472.00012207031,Wed Apr 09 2025 17:47:37 GMT-0500 (Central Daylight Time),291180.5,A,cl,O,l,183,1,1132.5,290048.0,7124,WL,B,4.0
2,11.744999885559082,learn,48255.00011444092,Wed Apr 09 2025 17:47:37 GMT-0500 (Central Daylight Time),291397.30000000075,A,clo,O,o,208,1,1349.300000000745,290048.0,7124,WL,B,4.0
2,12.01199984550476,learn,47988.00015449524,Wed Apr 09 2025 17:47:37 GMT-0500 (Central Daylight Time),291663.80000000075,A,cloc,O,c,247,1,1615.800000000745,290048.0,7124,WL,B,4.0
2,12.277999877929688,learn,47722.00012207031,Wed Apr 09 2025 17:47:37 GMT-0500 (Central Daylight Time),291930.19999999925,A,clock,O,k,261,1,1882.199999999255,290048.0,7124,WL,B,4.0
2,13.077999830245972,learn,46922.00016975403,Wed Apr 09 2025 17:47:37 GMT-0500 (Central Daylight Time),292730.09999999776,A,clockenter,O,enter,794,1,2682.099999997765,290048.0,7124,WL,B,4.0
2,14.077999830245972,learn,45922.00016975403,Wed Apr 09 2025 17:47:37 GMT-0500 (Central Daylight Time),293730.09999999776,A,s,O,s,978,1,999.6999999992549,292730.3999999985,7124,WL,B,5.0
2,14.41100001335144,learn,45588.99998664856,Wed Apr 09 2025 17:47:37 GMT-0500 (Central Daylight Time),294063.19999999925,A,st,O,t,323,1,1332.800000000745,292730.3999999985,7124,WL,B,5.0
2,14.644000053405762,learn,45355.99994659424,Wed Apr 09 2025 17:47:37 GMT-0500 (Central Daylight Time),294296.5,A,str,O,r,221,1,1566.1000000014901,292730.3999999985,7124,WL,B,5.0
2,14.91100001335144,learn,45088.99998664856,Wed Apr 09 2025 17:47:37 GMT-0500 (Central Daylight Time),294563.09999999776,A,stre,O,e,260,1,1832.699999999255,292730.3999999985,7124,WL,B,5.0
2,15.060999870300293,learn,44939.00012969971,Wed Apr 09 2025 17:47:37 GMT-0500 (Central Daylight Time),294713.0,A,stree,O,e,137,1,1982.6000000014901,292730.3999999985,7124,WL,B,5.0
2,15.293999910354614,learn,44706.000089645386,Wed Apr 09 2025 17:47:37 GMT-0500 (Central Daylight Time),294946.0,A,street,O,t,228,1,2215.60000000149,292730.3999999985,7124,WL,B,5.0
2,20.158999919891357,learn,39841.00008010864,Wed Apr 09 2025 17:47:37 GMT-0500 (Central Daylight Time),299811.30000000075,A,streetenter,O,enter,4859,1,7080.900000002235,292730.3999999985,7124,WL,B,5.0
2,25.35800004005432,learn,34641.99995994568,Wed Apr 09 2025 17:47:37 GMT-0500 (Central Daylight Time),305009.8999999985,A,p,O,p,5194,1,5198.199999999255,299811.69999999925,7124,WL,B,6.0
2,25.840999841690063,learn,34159.00015830994,Wed Apr 09 2025 17:47:37 GMT-0500 (Central Daylight Time),305492.80000000075,A,pu,O,u,467,1,5681.10000000149,299811.69999999925,7124,WL,B,6.0
2,26.156999826431274,learn,33843.000173568726,Wed Apr 09 2025 17:47:37 GMT-0500 (Central Daylight Time),305809.5,A,pup,O,p,296,1,5997.800000000745,299811.69999999925,7124,WL,B,6.0
2,26.556999921798706,learn,33443.000078201294,Wed Apr 09 2025 17:47:37 GMT-0500 (Central Daylight Time),306209.30000000075,A,pupi,O,i,388,1,6397.60000000149,299811.69999999925,7124,WL,B,6.0
2,26.87399983406067,learn,33126.00016593933,Wed Apr 09 2025 17:47:37 GMT-0500 (Central Daylight Time),306525.8999999985,A,pupil,O,l,299,1,6714.199999999255,299811.69999999925,7124,WL,B,6.0
2,27.506999969482422,learn,32493.000030517578,Wed Apr 09 2025 17:47:37 GMT-0500 (Central Daylight Time),307159.09999999776,A,pupilenter,O,enter,614,1,7347.39999999851,299811.69999999925,7124,WL,B,6.0
2,60.01300001144409,learn,-13.000011444091797,Wed Apr 09 2025 17:47:37 GMT-0500 (Central Daylight Time),339665.59999999776,A,None,O,None,32501,1,32506.0,307159.59999999776,7124,WL,B,7.0
3,1.5829999446868896,learn,58417.00005531311,Wed Apr 09 2025 17:47:37 GMT-0500 (Central Daylight Time),413175.80000000075,A,s,O,s,1565,1,1582.6000000014901,411593.19999999925,7124,WL,B,1.0
3,1.816999912261963,learn,58183.00008773804,Wed Apr 09 2025 17:47:37 GMT-0500 (Central Daylight Time),413409.19999999925,A,sk,O,k,221,1,1816.0,411593.19999999925,7124,WL,B,1.0
3,2.0159997940063477,learn,57984.00020599365,Wed Apr 09 2025 17:47:37 GMT-0500 (Central Daylight Time),413609.09999999776,A,ski,O,i,179,1,2015.8999999985099,411593.19999999925,7124,WL,B,1.0
3,2.299999952316284,learn,57700.000047683716,Wed Apr 09 2025 17:47:37 GMT-0500 (Central Daylight Time),413892.69999999925,A,skin,O,n,267,1,2299.5,411593.19999999925,7124,WL,B,1.0
3,2.6659998893737793,learn,57334.00011062622,Wed Apr 09 2025 17:47:37 GMT-0500 (Central Daylight Time),414259.0,A,skinenter,O,enter,351,1,2665.800000000745,411593.19999999925,7124,WL,B,1.0
3,3.7339999675750732,learn,56266.00003242493,Wed Apr 09 2025 17:47:37 GMT-0500 (Central Daylight Time),415326.3999999985,A,f,O,f,1050,1,1067.0999999977648,414259.30000000075,7124,WL,B,2.0
3,3.932999849319458,learn,56067.00015068054,Wed Apr 09 2025 17:47:37 GMT-0500 (Central Daylight Time),415525.19999999925,A,fi,O,i,191,1,1265.8999999985099,414259.30000000075,7124,WL,B,2.0
3,4.031999826431274,learn,55968.000173568726,Wed Apr 09 2025 17:47:37 GMT-0500 (Central Daylight Time),415625.19999999925,A,fir,O,r,79,1,1365.8999999985099,414259.30000000075,7124,WL,B,2.0
3,4.148999929428101,learn,55851.0000705719,Wed Apr 09 2025 17:47:37 GMT-0500 (Central Daylight Time),415741.80000000075,A,fire,O,e,107,1,1482.5,414259.30000000075,7124,WL,B,2.0
3,4.348999977111816,learn,55651.00002288818,Wed Apr 09 2025 17:47:37 GMT-0500 (Central Daylight Time),415941.69999999925,A,fireenter,O,enter,182,1,1682.3999999985099,414259.30000000075,7124,WL,B,2.0
3,8.46399998664856,learn,51536.00001335144,Wed Apr 09 2025 17:47:37 GMT-0500 (Central Daylight Time),420057.0,A,s,O,s,4095,1,4115.0,415942.0,7124,WL,B,3.0
3,9.063999891281128,learn,50936.00010871887,Wed Apr 09 2025 17:47:37 GMT-0500 (Central Daylight Time),420656.80000000075,A,sk,O,k,587,1,4714.800000000745,415942.0,7124,WL,B,3.0
3,9.846999883651733,learn,50153.00011634827,Wed Apr 09 2025 17:47:37 GMT-0500 (Central Daylight Time),421440.0,A,ski,O,i,771,1,5498.0,415942.0,7124,WL,B,3.0
3,10.146999835968018,learn,49853.00016403198,Wed Apr 09 2025 17:47:37 GMT-0500 (Central Daylight Time),421739.80000000075,A,skin,O,n,284,1,5797.800000000745,415942.0,7124,WL,B,3.0
3,10.496999979019165,learn,49503.000020980835,Wed Apr 09 2025 17:47:37 GMT-0500 (Central Daylight Time),422089.59999999776,A,skinenter,O,enter,344,1,6147.599999997765,415942.0,7124,WL,B,3.0
3,17.26199984550476,learn,42738.00015449524,Wed Apr 09 2025 17:47:37 GMT-0500 (Central Daylight Time),428854.5,A,p,O,p,6755,1,6764.800000000745,422089.69999999925,7124,WL,B,4.0
3,17.711999893188477,learn,42288.00010681152,Wed Apr 09 2025 17:47:37 GMT-0500 (Central Daylight Time),429304.19999999925,A,pu,O,u,429,1,7214.5,422089.69999999925,7124,WL,B,4.0
3,18.044999837875366,learn,41955.000162124634,Wed Apr 09 2025 17:47:37 GMT-0500 (Central Daylight Time),429637.3999999985,A,pup,O,p,315,1,7547.699999999255,422089.69999999925,7124,WL,B,4.0
3,18.360999822616577,learn,41639.00017738342,Wed Apr 09 2025 17:47:37 GMT-0500 (Central Daylight Time),429953.8999999985,A,pupi,O,i,303,1,7864.199999999255,422089.69999999925,7124,WL,B,4.0
3,18.66099977493286,learn,41339.00022506714,Wed Apr 09 2025 17:47:37 GMT-0500 (Central Daylight Time),430253.8999999985,A,pupil,O,l,282,1,8164.199999999255,422089.69999999925,7124,WL,B,4.0
3,19.227999925613403,learn,40772.0000743866,Wed Apr 09 2025 17:47:37 GMT-0500 (Central Daylight Time),430820.3999999985,A,pupilenter,O,enter,550,1,8730.699999999255,422089.69999999925,7124,WL,B,4.0
3,34.68999981880188,learn,25310.00018119812,Wed Apr 09 2025 17:47:37 GMT-0500 (Central Daylight Time),446282.3999999985,A,s,O,s,15440,1,15461.599999997765,430820.80000000075,7124,WL,B,5.0
3,36.08899998664856,learn,23911.00001335144,Wed Apr 09 2025 17:47:37 GMT-0500 (Central Daylight Time),447681.8999999985,A,,O,backspace,1394,1,16861.099999997765,430820.80000000075,7124,WL,B,5.0
3,48.51899981498718,learn,11481.000185012817,Wed Apr 09 2025 17:47:37 GMT-0500 (Central Daylight Time),460111.30000000075,A,p,O,p,12419,1,29290.5,430820.80000000075,7124,WL,B,5.0
3,48.88499999046326,learn,11115.000009536743,Wed Apr 09 2025 17:47:37 GMT-0500 (Central Daylight Time),460477.80000000075,A,pi,O,i,348,1,29657.0,430820.80000000075,7124,WL,B,5.0
3,49.13499999046326,learn,10865.000009536743,Wed Apr 09 2025 17:47:37 GMT-0500 (Central Daylight Time),460727.69999999925,A,pip,O,p,238,1,29906.89999999851,430820.80000000075,7124,WL,B,5.0
3,50.00099992752075,learn,9999.000072479248,Wed Apr 09 2025 17:47:37 GMT-0500 (Central Daylight Time),461594.09999999776,A,pipe,O,e,846,1,30773.29999999702,430820.80000000075,7124,WL,B,5.0
3,51.117999792099,learn,8882.000207901001,Wed Apr 09 2025 17:47:37 GMT-0500 (Central Daylight Time),462710.19999999925,A,pipeenter,O,enter,1106,1,31889.39999999851,430820.80000000075,7124,WL,B,5.0
3,60.014999866485596,learn,-14.999866485595703,Wed Apr 09 2025 17:47:37 GMT-0500 (Central Daylight Time),471607.59999999776,A,None,O,None,8892,1,8897.099999997765,462710.5,7124,WL,B,6.0
4,1.4830000400543213,learn,58516.99995994568,Wed Apr 09 2025 17:47:37 GMT-0500 (Central Daylight Time),545584.5999999978,A,f,O,f,1471,1,1482.7999999970198,544101.8000000007,7124,WL,B,1.0
4,1.7170000076293945,learn,58282.999992370605,Wed Apr 09 2025 17:47:37 GMT-0500 (Central Daylight Time),545818.0,A,fi,O,i,212,1,1716.199999999255,544101.8000000007,7124,WL,B,1.0
4,1.7990000247955322,learn,58200.99997520447,Wed Apr 09 2025 17:47:37 GMT-0500 (Central Daylight Time),545900.5999999978,A,fir,O,r,75,1,1798.7999999970198,544101.8000000007,7124,WL,B,1.0
4,1.933000087738037,learn,58066.99991226196,Wed Apr 09 2025 17:47:37 GMT-0500 (Central Daylight Time),546033.8999999985,A,fire,O,e,120,1,1932.0999999977648,544101.8000000007,7124,WL,B,1.0
4,2.9660000801086426,learn,57033.99991989136,Wed Apr 09 2025 17:47:37 GMT-0500 (Central Daylight Time),547067.3999999985,A,fireenter,O,enter,1018,1,2965.599999997765,544101.8000000007,7124,WL,B,1.0
4,4.115999937057495,learn,55884.000062942505,Wed Apr 09 2025 17:47:37 GMT-0500 (Central Daylight Time),548217.0,A,c,O,c,1129,1,1149.300000000745,547067.6999999993,7124,WL,B,2.0
4,4.33299994468689,learn,55667.00005531311,Wed Apr 09 2025 17:47:37 GMT-0500 (Central Daylight Time),548433.8999999985,A,cl,O,l,212,1,1366.199999999255,547067.6999999993,7124,WL,B,2.0
4,4.516000032424927,learn,55483.99996757507,Wed Apr 09 2025 17:47:37 GMT-0500 (Central Daylight Time),548616.8000000007,A,clo,O,o,170,1,1549.1000000014901,547067.6999999993,7124,WL,B,2.0
4,4.749000072479248,learn,55250.99992752075,Wed Apr 09 2025 17:47:37 GMT-0500 (Central Daylight Time),548850.0,A,cloc,O,c,227,1,1782.300000000745,547067.6999999993,7124,WL,B,2.0
4,6.450000047683716,learn,53549.999952316284,Wed Apr 09 2025 17:47:37 GMT-0500 (Central Daylight Time),550551.0,A,clock,O,k,1691,1,3483.300000000745,547067.6999999993,7124,WL,B,2.0
4,6.764999866485596,learn,53235.000133514404,Wed Apr 09 2025 17:47:37 GMT-0500 (Central Daylight Time),550866.3000000007,A,clockenter,O,enter,301,1,3798.60000000149,547067.6999999993,7124,WL,B,2.0
4,7.514999866485596,learn,52485.000133514404,Wed Apr 09 2025 17:47:37 GMT-0500 (Central Daylight Time),551616.0,A,c,O,c,730,1,749.4000000022352,550866.5999999978,7124,WL,B,3.0
4,7.681999921798706,learn,52318.000078201294,Wed Apr 09 2025 17:47:37 GMT-0500 (Central Daylight Time),551782.6999999993,A,ca,O,a,156,1,916.1000000014901,550866.5999999978,7124,WL,B,3.0
4,8.115000009536743,learn,51884.99999046326,Wed Apr 09 2025 17:47:37 GMT-0500 (Central Daylight Time),552215.6999999993,A,cab,O,b,414,1,1349.1000000014901,550866.5999999978,7124,WL,B,3.0
4,8.29800009727478,learn,51701.99990272522,Wed Apr 09 2025 17:47:37 GMT-0500 (Central Daylight Time),552399.0999999978,A,cabi,O,i,172,1,1532.5,550866.5999999978,7124,WL,B,3.0
4,8.480999946594238,learn,51519.00005340576,Wed Apr 09 2025 17:47:37 GMT-0500 (Central Daylight Time),552582.5,A,cabin,O,n,165,1,1715.9000000022352,550866.5999999978,7124,WL,B,3.0
4,8.864000082015991,learn,51135.99991798401,Wed Apr 09 2025 17:47:37 GMT-0500 (Central Daylight Time),552965.5,A,cabinenter,O,enter,374,1,2098.900000002235,550866.5999999978,7124,WL,B,3.0
4,9.980999946594238,learn,50019.00005340576,Wed Apr 09 2025 17:47:37 GMT-0500 (Central Daylight Time),554082.0999999978,A,p,O,p,1096,1,1116.199999999255,552965.8999999985,7124,WL,B,4.0
4,10.46399998664856,learn,49536.00001335144,Wed Apr 09 2025 17:47:37 GMT-0500 (Central Daylight Time),554565.0,A,pu,O,u,475,1,1599.1000000014901,552965.8999999985,7124,WL,B,4.0
4,10.780999898910522,learn,49219.00010108948,Wed Apr 09 2025 17:47:37 GMT-0500 (Central Daylight Time),554881.8000000007,A,pup,O,p,311,1,1915.9000000022352,552965.8999999985,7124,WL,B,4.0
4,11.079999923706055,learn,48920.000076293945,Wed Apr 09 2025 17:47:37 GMT-0500 (Central Daylight Time),555181.5999999978,A,pupi,O,i,283,1,2215.699999999255,552965.8999999985,7124,WL,B,4.0
4,11.746999979019165,learn,48253.000020980835,Wed Apr 09 2025 17:47:37 GMT-0500 (Central Daylight Time),555847.8999999985,A,pupil,O,l,655,1,2882.0,552965.8999999985,7124,WL,B,4.0
4,14.115000009536743,learn,45884.99999046326,Wed Apr 09 2025 17:47:37 GMT-0500 (Central Daylight Time),558216.3999999985,A,pupilenter,O,enter,2356,1,5250.5,552965.8999999985,7124,WL,B,4.0
4,17.211999893188477,learn,42788.00010681152,Wed Apr 09 2025 17:47:37 GMT-0500 (Central Daylight Time),561313.0,A,s,O,s,3076,1,3096.400000002235,558216.5999999978,7124,WL,B,5.0
4,17.411999940872192,learn,42588.00005912781,Wed Apr 09 2025 17:47:37 GMT-0500 (Central Daylight Time),561512.8999999985,A,sk,O,k,179,1,3296.300000000745,558216.5999999978,7124,WL,B,5.0
4,17.611999988555908,learn,42388.00001144409,Wed Apr 09 2025 17:47:37 GMT-0500 (Central Daylight Time),561712.6999999993,A,ski,O,i,188,1,3496.10000000149,558216.5999999978,7124,WL,B,5.0
4,17.911999940872192,learn,42088.00005912781,Wed Apr 09 2025 17:47:37 GMT-0500 (Central Daylight Time),562012.8000000007,A,skin,O,n,284,1,3796.2000000029802,558216.5999999978,7124,WL,B,5.0
4,18.244999885559082,learn,41755.00011444092,Wed Apr 09 2025 17:47:37 GMT-0500 (Central Daylight Time),562346.0,A,skinenter,O,enter,329,1,4129.400000002235,558216.5999999978,7124,WL,B,5.0
4,26.108999967575073,learn,33891.00003242493,Wed Apr 09 2025 17:47:37 GMT-0500 (Central Daylight Time),570209.8999999985,A,w,O,w,7844,1,7863.599999997765,562346.3000000007,7124,WL,B,6.0
4,26.276000022888184,learn,33723.99997711182,Wed Apr 09 2025 17:47:37 GMT-0500 (Central Daylight Time),570376.6999999993,A,wi,O,i,146,1,8030.39999999851,562346.3000000007,7124,WL,B,6.0
4,26.39199995994568,learn,33608.00004005432,Wed Apr 09 2025 17:47:37 GMT-0500 (Central Daylight Time),570493.3999999985,A,win,O,n,107,1,8147.099999997765,562346.3000000007,7124,WL,B,6.0
4,26.691999912261963,learn,33308.00008773804,Wed Apr 09 2025 17:47:37 GMT-0500 (Central Daylight Time),570793.3999999985,A,wind,O,d,279,1,8447.099999997765,562346.3000000007,7124,WL,B,6.0
4,27.009000062942505,learn,32990.999937057495,Wed Apr 09 2025 17:47:37 GMT-0500 (Central Daylight Time),571109.8999999985,A,windo,O,o,308,1,8763.599999997765,562346.3000000007,7124,WL,B,6.0
4,27.342999935150146,learn,32657.000064849854,Wed Apr 09 2025 17:47:37 GMT-0500 (Central Daylight Time),571444.3000000007,A,window,O,w,327,1,9098.0,562346.3000000007,7124,WL,B,6.0
4,28.308000087738037,learn,31691.999912261963,Wed Apr 09 2025 17:47:37 GMT-0500 (Central Daylight Time),572409.3999999985,A,windowenter,O,enter,944,1,10063.099999997765,562346.3000000007,7124,WL,B,6.0
4,30.707000017166138,learn,29292.999982833862,Wed Apr 09 2025 17:47:37 GMT-0500 (Central Daylight Time),574808.5999999978,A,p,O,p,2387,1,2398.89999999851,572409.6999999993,7124,WL,B,7.0
4,31.056999921798706,learn,28943.000078201294,Wed Apr 09 2025 17:47:37 GMT-0500 (Central Daylight Time),575158.5999999978,A,pu,O,u,331,1,2748.89999999851,572409.6999999993,7124,WL,B,7.0
4,31.306999921798706,learn,28693.000078201294,Wed Apr 09 2025 17:47:37 GMT-0500 (Central Daylight Time),575408.6999999993,A,pup,O,p,239,1,2999.0,572409.6999999993,7124,WL,B,7.0
4,31.60699987411499,learn,28393.00012588501,Wed Apr 09 2025 17:47:37 GMT-0500 (Central Daylight Time),575708.5999999978,A,pupi,O,i,293,1,3298.89999999851,572409.6999999993,7124,WL,B,7.0
4,32.056999921798706,learn,27943.000078201294,Wed Apr 09 2025 17:47:37 GMT-0500 (Central Daylight Time),576158.3000000007,A,pupil,O,l,431,1,3748.60000000149,572409.6999999993,7124,WL,B,7.0
4,32.342000007629395,learn,27657.999992370605,Wed Apr 09 2025 17:47:37 GMT-0500 (Central Daylight Time),576442.8000000007,A,pupilenter,O,enter,271,1,4033.10000000149,572409.6999999993,7124,WL,B,7.0
4,60.014999866485596,learn,-14.999866485595703,Wed Apr 09 2025 17:47:37 GMT-0500 (Central Daylight Time),604116.3000000007,A,None,O,None,27669,1,27673.300000000745,576443.0,7124,WL,B,8.0
5,1.4499998092651367,learn,60000.0,Wed Apr 09 2025 17:47:37 GMT-0500 (Central Daylight Time),686290.3000000007,A,c,O,c,1444,1,1449.1000000014901,684841.1999999993,7124,WL,B,1.0
5,1.6329998970031738,learn,60000.0,Wed Apr 09 2025 17:47:37 GMT-0500 (Central Daylight Time),686473.5,A,ca,O,a,161,1,1632.300000000745,684841.1999999993,7124,WL,B,1.0
5,1.9829998016357422,learn,60000.0,Wed Apr 09 2025 17:47:37 GMT-0500 (Central Daylight Time),686823.8000000007,A,cab,O,b,331,1,1982.6000000014901,684841.1999999993,7124,WL,B,1.0
5,2.232999801635742,learn,60000.0,Wed Apr 09 2025 17:47:37 GMT-0500 (Central Daylight Time),687073.5,A,cabi,O,i,237,1,2232.300000000745,684841.1999999993,7124,WL,B,1.0
5,2.4670000076293945,learn,60000.0,Wed Apr 09 2025 17:47:37 GMT-0500 (Central Daylight Time),687307.0999999978,A,cabin,O,n,220,1,2465.89999999851,684841.1999999993,7124,WL,B,1.0
5,2.748999834060669,learn,60000.0,Wed Apr 09 2025 17:47:37 GMT-0500 (Central Daylight Time),687590.0,A,cabinenter,O,enter,265,1,2748.800000000745,684841.1999999993,7124,WL,B,1.0
5,4.148999929428101,learn,60000.0,Wed Apr 09 2025 17:47:37 GMT-0500 (Central Daylight Time),688989.3999999985,A,c,O,c,1382,1,1399.199999999255,687590.1999999993,7124,WL,B,2.0
5,4.332000017166138,learn,60000.0,Wed Apr 09 2025 17:47:37 GMT-0500 (Central Daylight Time),689172.6999999993,A,ci,O,i,174,1,1582.5,687590.1999999993,7124,WL,B,2.0
5,4.48199987411499,learn,60000.0,Wed Apr 09 2025 17:47:37 GMT-0500 (Central Daylight Time),689322.5999999978,A,cit,O,t,143,1,1732.3999999985099,687590.1999999993,7124,WL,B,2.0
5,4.615000009536743,learn,60000.0,Wed Apr 09 2025 17:47:37 GMT-0500 (Central Daylight Time),689456.0,A,city,O,y,113,1,1865.800000000745,687590.1999999993,7124,WL,B,2.0
5,4.931999921798706,learn,60000.0,Wed Apr 09 2025 17:47:37 GMT-0500 (Central Daylight Time),689772.3999999985,A,cityenter,O,enter,300,1,2182.199999999255,687590.1999999993,7124,WL,B,2.0
5,6.398000001907349,learn,60000.0,Wed Apr 09 2025 17:47:37 GMT-0500 (Central Daylight Time),691239.0,A,s,O,s,1457,1,1466.4000000022352,689772.5999999978,7124,WL,B,3.0
5,6.697999954223633,learn,60000.0,Wed Apr 09 2025 17:47:37 GMT-0500 (Central Daylight Time),691539.0999999978,A,st,O,t,285,1,1766.5,689772.5999999978,7124,WL,B,3.0
5,6.914999961853027,learn,60000.0,Wed Apr 09 2025 17:47:37 GMT-0500 (Central Daylight Time),691755.5999999978,A,str,O,r,201,1,1983.0,689772.5999999978,7124,WL,B,3.0
5,7.198999881744385,learn,60000.0,Wed Apr 09 2025 17:47:37 GMT-0500 (Central Daylight Time),692039.0999999978,A,stre,O,e,266,1,2266.5,689772.5999999978,7124,WL,B,3.0
5,7.31499981880188,learn,60000.0,Wed Apr 09 2025 17:47:37 GMT-0500 (Central Daylight Time),692155.5,A,stree,O,e,110,1,2382.900000002235,689772.5999999978,7124,WL,B,3.0
5,7.514999866485596,learn,60000.0,Wed Apr 09 2025 17:47:37 GMT-0500 (Central Daylight Time),692355.3999999985,A,street,O,t,185,1,2582.800000000745,689772.5999999978,7124,WL,B,3.0
5,7.865000009536743,learn,60000.0,Wed Apr 09 2025 17:47:37 GMT-0500 (Central Daylight Time),692705.1999999993,A,streetenter,O,enter,338,1,2932.60000000149,689772.5999999978,7124,WL,B,3.0
5,8.247999906539917,learn,60000.0,Wed Apr 09 2025 17:47:37 GMT-0500 (Central Daylight Time),693088.5,A,f,O,f,363,1,382.9000000022352,692705.5999999978,7124,WL,B,4.0
5,8.414999961853027,learn,60000.0,Wed Apr 09 2025 17:47:37 GMT-0500 (Central Daylight Time),693255.1999999993,A,fi,O,i,156,1,549.6000000014901,692705.5999999978,7124,WL,B,4.0
5,8.530999898910522,learn,60000.0,Wed Apr 09 2025 17:47:37 GMT-0500 (Central Daylight Time),693371.8999999985,A,fir,O,r,110,1,666.3000000007451,692705.5999999978,7124,WL,B,4.0
5,8.615000009536743,learn,60000.0,Wed Apr 09 2025 17:47:37 GMT-0500 (Central Daylight Time),693455.0999999978,A,fire,O,e,74,1,749.5,692705.5999999978,7124,WL,B,4.0
5,8.930999994277954,learn,60000.0,Wed Apr 09 2025 17:47:37 GMT-0500 (Central Daylight Time),693771.6999999993,A,fireenter,O,enter,309,1,1066.1000000014901,692705.5999999978,7124,WL,B,4.0
5,9.54699993133545,learn,60000.0,Wed Apr 09 2025 17:47:37 GMT-0500 (Central Daylight Time),694388.0,A,c,O,c,610,1,616.0,693772.0,7124,WL,B,5.0
5,9.71399998664856,learn,60000.0,Wed Apr 09 2025 17:47:37 GMT-0500 (Central Daylight Time),694554.3000000007,A,cl,O,l,160,1,782.3000000007451,693772.0,7124,WL,B,5.0
5,9.913999795913696,learn,60000.0,Wed Apr 09 2025 17:47:37 GMT-0500 (Central Daylight Time),694754.6999999993,A,clo,O,o,187,1,982.6999999992549,693772.0,7124,WL,B,5.0
5,10.146999835968018,learn,60000.0,Wed Apr 09 2025 17:47:37 GMT-0500 (Central Daylight Time),694987.8000000007,A,cloc,O,c,218,1,1215.800000000745,693772.0,7124,WL,B,5.0
5,10.396999835968018,learn,60000.0,Wed Apr 09 2025 17:47:37 GMT-0500 (Central Daylight Time),695237.8999999985,A,clock,O,k,242,1,1465.8999999985099,693772.0,7124,WL,B,5.0
5,10.663999795913696,learn,60000.0,Wed Apr 09 2025 17:47:37 GMT-0500 (Central Daylight Time),695504.5,A,clockenter,O,enter,256,1,1732.5,693772.0,7124,WL,B,5.0
5,11.263999938964844,learn,60000.0,Wed Apr 09 2025 17:47:37 GMT-0500 (Central Daylight Time),696104.1999999993,A,p,O,p,589,1,599.1999999992549,695505.0,7124,WL,B,6.0
5,11.513999938964844,learn,60000.0,Wed Apr 09 2025 17:47:37 GMT-0500 (Central Daylight Time),696354.0999999978,A,pi,O,i,245,1,849.0999999977648,695505.0,7124,WL,B,6.0
5,11.730000019073486,learn,60000.0,Wed Apr 09 2025 17:47:37 GMT-0500 (Central Daylight Time),696570.5,A,pip,O,p,211,1,1065.5,695505.0,7124,WL,B,6.0
5,11.962999820709229,learn,60000.0,Wed Apr 09 2025 17:47:37 GMT-0500 (Central Daylight Time),696803.8999999985,A,pipe,O,e,226,1,1298.8999999985099,695505.0,7124,WL,B,6.0
5,14.013000011444092,learn,60000.0,Wed Apr 09 2025 17:47:37 GMT-0500 (Central Daylight Time),698853.3000000007,A,pipeenter,O,enter,2033,1,3348.300000000745,695505.0,7124,WL,B,6.0
5,19.710999965667725,learn,60000.0,Wed Apr 09 2025 17:47:37 GMT-0500 (Central Daylight Time),704551.5,A,w,O,w,5680,1,5697.800000000745,698853.6999999993,7124,WL,B,7.0
5,20.01099991798401,learn,60000.0,Wed Apr 09 2025 17:47:37 GMT-0500 (Central Daylight Time),704851.5,A,wi,O,i,294,1,5997.800000000745,698853.6999999993,7124,WL,B,7.0
5,20.310999870300293,learn,60000.0,Wed Apr 09 2025 17:47:37 GMT-0500 (Central Daylight Time),705151.3999999985,A,wif,O,f,290,1,6297.699999999255,698853.6999999993,7124,WL,B,7.0
5,20.560999870300293,learn,60000.0,Wed Apr 09 2025 17:47:37 GMT-0500 (Central Daylight Time),705401.1999999993,A,wife,O,e,230,1,6547.5,698853.6999999993,7124,WL,B,7.0
5,21.143999814987183,learn,60000.0,Wed Apr 09 2025 17:47:37 GMT-0500 (Central Daylight Time),705984.5,A,wifeenter,O,enter,564,1,7130.800000000745,698853.6999999993,7124,WL,B,7.0
5,81.1579999923706,learn,60000.0,Wed Apr 09 2025 17:47:37 GMT-0500 (Central Daylight Time),765999.0,A,None,O,None,60010,1,60014.10000000149,705984.8999999985,7124,WL,B,8.0
6,0.932999849319458,distr,59067.00015068054,Wed Apr 09 2025 17:47:37 GMT-0500 (Central Daylight Time),845074.3999999985,B,b,O,b,921,1,933.0999999977648,844141.3000000007,7124,WL,B,1.0
6,1.7999999523162842,distr,58200.000047683716,Wed Apr 09 2025 17:47:37 GMT-0500 (Central Daylight Time),845940.6999999993,B,ba,O,a,851,1,1799.3999999985099,844141.3000000007,7124,WL,B,1.0
6,2.0329999923706055,distr,57967.000007629395,Wed Apr 09 2025 17:47:37 GMT-0500 (Central Daylight Time),846173.8000000007,B,bab,O,b,217,1,2032.5,844141.3000000007,7124,WL,B,1.0
6,2.382999897003174,distr,57617.000102996826,Wed Apr 09 2025 17:47:37 GMT-0500 (Central Daylight Time),846523.8999999985,B,baby,O,y,343,1,2382.599999997765,844141.3000000007,7124,WL,B,1.0
6,2.8329999446868896,distr,57167.00005531311,Wed Apr 09 2025 17:47:37 GMT-0500 (Central Daylight Time),846973.8999999985,B,babyenter,O,enter,441,1,2832.599999997765,844141.3000000007,7124,WL,B,1.0
6,3.748999834060669,distr,56251.00016593933,Wed Apr 09 2025 17:47:37 GMT-0500 (Central Daylight Time),847890.0,B,o,O,o,903,1,915.6999999992549,846974.3000000007,7124,WL,B,2.0
6,3.998999834060669,distr,56001.00016593933,Wed Apr 09 2025 17:47:37 GMT-0500 (Central Daylight Time),848139.8999999985,B,oc,O,c,243,1,1165.5999999977648,846974.3000000007,7124,WL,B,2.0
6,4.248999834060669,distr,55751.00016593933,Wed Apr 09 2025 17:47:37 GMT-0500 (Central Daylight Time),848390.0,B,oce,O,e,241,1,1415.699999999255,846974.3000000007,7124,WL,B,2.0
6,5.580999851226807,distr,54419.00014877319,Wed Apr 09 2025 17:47:37 GMT-0500 (Central Daylight Time),849722.5999999978,B,ocen,O,n,1327,1,2748.2999999970198,846974.3000000007,7124,WL,B,2.0
6,5.881999969482422,distr,54118.00003051758,Wed Apr 09 2025 17:47:37 GMT-0500 (Central Daylight Time),850022.5999999978,B,ocenenter,O,enter,291,1,3048.2999999970198,846974.3000000007,7124,WL,B,2.0
6,6.23199987411499,distr,53768.00012588501,Wed Apr 09 2025 17:47:37 GMT-0500 (Central Daylight Time),850372.6999999993,B,s,O,s,335,1,349.69999999925494,850023.0,7124,WL,B,3.0
6,6.5320000648498535,distr,53467.99993515015,Wed Apr 09 2025 17:47:37 GMT-0500 (Central Daylight Time),850672.5999999978,B,st,O,t,281,1,649.5999999977648,850023.0,7124,WL,B,3.0
6,6.898000001907349,distr,53101.99999809265,Wed Apr 09 2025 17:47:37 GMT-0500 (Central Daylight Time),851039.0,B,sta,O,a,349,1,1016.0,850023.0,7124,WL,B,3.0
6,7.148000001907349,distr,52851.99999809265,Wed Apr 09 2025 17:47:37 GMT-0500 (Central Daylight Time),851289.0,B,stat,O,t,229,1,1266.0,850023.0,7124,WL,B,3.0
6,8.530999898910522,distr,51469.00010108948,Wed Apr 09 2025 17:47:37 GMT-0500 (Central Daylight Time),852671.8000000007,B,sta,O,backspace,1364,1,2648.800000000745,850023.0,7124,WL,B,3.0
6,9.396999835968018,distr,50603.00016403198,Wed Apr 09 2025 17:47:37 GMT-0500 (Central Daylight Time),853538.3000000007,B,star,O,r,854,1,3515.300000000745,850023.0,7124,WL,B,3.0
6,9.680000066757202,distr,50319.9999332428,Wed Apr 09 2025 17:47:37 GMT-0500 (Central Daylight Time),853821.5999999978,B,starenter,O,enter,275,1,3798.599999997765,850023.0,7124,WL,B,3.0
6,10.079999923706055,distr,49920.000076293945,Wed Apr 09 2025 17:47:37 GMT-0500 (Central Daylight Time),854221.3999999985,B,d,O,d,392,1,399.5,853821.8999999985,7124,WL,B,4.0
6,10.313999891281128,distr,49686.00010871887,Wed Apr 09 2025 17:47:37 GMT-0500 (Central Daylight Time),854454.6999999993,B,dr,O,r,215,1,632.8000000007451,853821.8999999985,7124,WL,B,4.0
6,10.44700002670288,distr,49552.99997329712,Wed Apr 09 2025 17:47:37 GMT-0500 (Central Daylight Time),854587.8999999985,B,dre,O,e,119,1,766.0,853821.8999999985,7124,WL,B,4.0
6,10.77999997138977,distr,49220.00002861023,Wed Apr 09 2025 17:47:37 GMT-0500 (Central Daylight Time),854921.3999999985,B,dres,O,s,312,1,1099.5,853821.8999999985,7124,WL,B,4.0
6,10.895999908447266,distr,49104.000091552734,Wed Apr 09 2025 17:47:37 GMT-0500 (Central Daylight Time),855037.5999999978,B,dress,O,s,108,1,1215.699999999255,853821.8999999985,7124,WL,B,4.0
6,11.61299991607666,distr,48387.00008392334,Wed Apr 09 2025 17:47:37 GMT-0500 (Central Daylight Time),855754.0999999978,B,dressenter,O,enter,712,1,1932.199999999255,853821.8999999985,7124,WL,B,4.0
6,12.013000011444092,distr,47986.99998855591,Wed Apr 09 2025 17:47:37 GMT-0500 (Central Daylight Time),856154.0999999978,B,s,O,s,385,1,399.69999999925494,855754.3999999985,7124,WL,B,5.0
6,12.412999868392944,distr,47587.000131607056,Wed Apr 09 2025 17:47:37 GMT-0500 (Central Daylight Time),856553.8999999985,B,st,O,t,387,1,799.5,855754.3999999985,7124,WL,B,5.0
6,12.69599986076355,distr,47304.00013923645,Wed Apr 09 2025 17:47:37 GMT-0500 (Central Daylight Time),856837.3999999985,B,ste,O,e,268,1,1083.0,855754.3999999985,7124,WL,B,5.0
6,12.828999996185303,distr,47171.0000038147,Wed Apr 09 2025 17:47:37 GMT-0500 (Central Daylight Time),856970.3999999985,B,stea,O,a,128,1,1216.0,855754.3999999985,7124,WL,B,5.0
6,13.828999996185303,distr,46171.0000038147,Wed Apr 09 2025 17:47:37 GMT-0500 (Central Daylight Time),857970.3999999985,B,steam,O,m,979,1,2216.0,855754.3999999985,7124,WL,B,5.0
6,18.39400005340576,distr,41605.99994659424,Wed Apr 09 2025 17:47:37 GMT-0500 (Central Daylight Time),862535.3999999985,B,steamenter,O,enter,4547,1,6781.0,855754.3999999985,7124,WL,B,5.0
6,60.014999866485596,distr,-14.999866485595703,Wed Apr 09 2025 17:47:37 GMT-0500 (Central Daylight Time),904156.8000000007,B,None,O,None,41617,1,41621.0,862535.8000000007,7124,WL,B,6.0
7,10.830000162124634,immed,49169.999837875366,Wed Apr 09 2025 17:47:37 GMT-0500 (Central Daylight Time),932147.0999999978,A,p,O,p,10817,1,10829.699999999255,921317.3999999985,7124,WL,B,1.0
7,11.345999956130981,immed,48654.00004386902,Wed Apr 09 2025 17:47:37 GMT-0500 (Central Daylight Time),932663.5999999978,A,pi,O,i,497,1,11346.199999999255,921317.3999999985,7124,WL,B,1.0
7,11.663000106811523,immed,48336.99989318848,Wed Apr 09 2025 17:47:37 GMT-0500 (Central Daylight Time),932980.1999999993,A,pip,O,p,309,1,11662.800000000745,921317.3999999985,7124,WL,B,1.0
7,12.345999956130981,immed,47654.00004386902,Wed Apr 09 2025 17:47:37 GMT-0500 (Central Daylight Time),933663.3999999985,A,pipe,O,e,665,1,12346.0,921317.3999999985,7124,WL,B,1.0
7,16.028000116348267,immed,43971.99988365173,Wed Apr 09 2025 17:47:37 GMT-0500 (Central Daylight Time),937345.3999999985,A,pipeenter,O,enter,3670,1,16028.0,921317.3999999985,7124,WL,B,1.0
7,17.34500002861023,immed,42654.99997138977,Wed Apr 09 2025 17:47:37 GMT-0500 (Central Daylight Time),938661.8000000007,A,l,O,l,1300,1,1316.1000000014901,937345.6999999993,7124,WL,B,2.0
7,20.97699999809265,immed,39023.00000190735,Wed Apr 09 2025 17:47:37 GMT-0500 (Central Daylight Time),942294.0,A,,O,backspace,3624,1,4948.300000000745,937345.6999999993,7124,WL,B,2.0
7,60.01400017738342,immed,-14.000177383422852,Wed Apr 09 2025 17:47:37 GMT-0500 (Central Daylight Time),981331.8999999985,A,None,O,None,39033,1,43986.199999999255,937345.6999999993,7124,WL,B,2.0
