acc_sum,block,block_c,condition,correct,correct_response,datetime,endtime,flanker,jitter,project,response,response_test_buffer_response,response_test_target_response,response_time,response_time_test_buffer_response,response_time_test_target_response,row_sel,session_number,start_end,starttime,subject_id,target,task,task_vers,time_test_buffer,time_test_buffer_response,time_test_constants,time_test_flanker,time_test_jitter,time_test_logger,time_test_target,time_test_target_response,time_test_variables,trial
0,prac,1,inc,0,m,Fri Mar 07 2025 14:03:44 GMT-0600 (Central Standard Time),144970.40000000596,pear,900,I,z,,,40,,,14,1,2230.3000000044703,142740.1000000015,7099,iron,NF,C,,,,,,,,,,1
1,prac,1,inc,1,m,Fri Mar 07 2025 14:03:44 GMT-0600 (Central Standard Time),147869.40000000596,plum,1100,I,m,,,503,,,16,1,2892.60000000149,144976.80000000447,7099,lead,NF,C,,,,,,,,,,2
2,prac,1,con,1,m,Fri Mar 07 2025 14:03:44 GMT-0600 (Central Standard Time),150751.80000000447,zinc,1000,I,m,,,577,,,15,1,2876.0,147875.80000000447,7099,zinc,NF,C,,,,,,,,,,3
3,prac,1,con,1,z,Fri Mar 07 2025 14:03:44 GMT-0600 (Central Standard Time),153283.20000000298,banana,800,I,z,,,423,,,1,1,2524.2999999970198,150758.90000000596,7099,banana,NF,C,,,,,,,,,,4
4,prac,1,inc,1,z,Fri Mar 07 2025 14:03:44 GMT-0600 (Central Standard Time),155983.40000000596,iron,900,I,z,,,510,,,6,1,2695.3000000044703,153288.1000000015,7099,pear,NF,C,,,,,,,,,,5
5,prac,1,con,1,z,Fri Mar 07 2025 14:03:44 GMT-0600 (Central Standard Time),158514.90000000596,lime,800,I,z,,,422,,,5,1,2526.10000000149,155988.80000000447,7099,lime,NF,C,,,,,,,,,,6
6,prac,1,inc,1,z,Fri Mar 07 2025 14:03:44 GMT-0600 (Central Standard Time),161464.0,cobalt,1100,I,z,,,535,,,4,1,2942.89999999851,158521.1000000015,7099,raisin,NF,C,,,,,,,,,,7
7,prac,1,inc,1,m,Fri Mar 07 2025 14:03:44 GMT-0600 (Central Standard Time),164446.40000000596,raisin,1100,I,m,,,569,,,12,1,2976.4000000059605,161470.0,7099,cobalt,NF,C,,,,,,,,,,8
8,prac,1,con,1,m,Fri Mar 07 2025 14:03:44 GMT-0600 (Central Standard Time),167013.70000000298,bronze,800,I,m,,,456,,,9,1,2560.2999999970198,164453.40000000596,7099,bronze,NF,C,,,,,,,,,,9
9,prac,1,con,1,m,Fri Mar 07 2025 14:03:44 GMT-0600 (Central Standard Time),169695.0,silver,1000,I,m,,,378,,,11,1,2676.0,167019.0,7099,silver,NF,C,,,,,,,,,,10
10,prac,1,con,1,z,Fri Mar 07 2025 14:03:44 GMT-0600 (Central Standard Time),172428.30000000447,orange,1000,I,z,,,425,,,3,1,2727.89999999851,169700.40000000596,7099,orange,NF,C,,,,,,,,,,11
11,prac,1,con,1,z,Fri Mar 07 2025 14:03:44 GMT-0600 (Central Standard Time),175159.0,kiwi,1000,I,z,,,425,,,7,1,2725.0999999940395,172433.90000000596,7099,kiwi,NF,C,,,,,,,,,,12
12,prac,1,inc,1,z,Fri Mar 07 2025 14:03:44 GMT-0600 (Central Standard Time),178159.30000000447,lead,1100,I,z,,,586,,,8,1,2992.89999999851,175166.40000000596,7099,plum,NF,C,,,,,,,,,,13
13,prac,1,inc,1,m,Fri Mar 07 2025 14:03:44 GMT-0600 (Central Standard Time),180941.90000000596,cherry,900,I,m,,,572,,,10,1,2777.0,178164.90000000596,7099,copper,NF,C,,,,,,,,,,14
14,prac,1,con,1,m,Fri Mar 07 2025 14:03:44 GMT-0600 (Central Standard Time),183508.1000000015,gold,800,I,m,,,466,,,13,1,2559.89999999851,180948.20000000298,7099,gold,NF,C,,,,,,,,,,15
15,prac,1,inc,1,z,Fri Mar 07 2025 14:03:44 GMT-0600 (Central Standard Time),186273.40000000596,copper,900,I,z,,,566,,,2,1,2759.8000000044703,183513.6000000015,7099,cherry,NF,C,,,,,,,,,,16
1,test,1,con,1,z,Fri Mar 07 2025 14:03:44 GMT-0600 (Central Standard Time),208598.80000000447,orange,1100,I,z,z,None,499,300.0,199.0,20,1,2126.60000000149,206472.20000000298,7099,orange,NF,C,203078,203078,201266,202375,201267,203393,202879,202879,203393,1
2,test,1,inc,1,m,Fri Mar 07 2025 14:03:44 GMT-0600 (Central Standard Time),210531.70000000298,pear,900,I,m,m,None,489,273.0,216.0,126,1,1926.8999999985099,208604.80000000447,7099,lead,NF,C,205045,205045,203399,204310,203399,205326,204828,204828,205326,2
3,test,1,inc,1,m,Fri Mar 07 2025 14:03:44 GMT-0600 (Central Standard Time),212498.80000000447,cherry,900,I,m,m,None,525,326.0,199.0,70,1,1961.1000000014901,210537.70000000298,7099,bronze,NF,C,206960,206960,205332,206243,205332,207293,206760,206760,207293,3
4,test,1,con,1,z,Fri Mar 07 2025 14:03:44 GMT-0600 (Central Standard Time),214298.80000000447,orange,800,I,z,z,None,453,253.0,200.0,17,1,1796.2000000029802,212502.6000000015,7099,orange,NF,C,208825,208825,207297,208109,207297,209093,208625,208625,209093,4
5,test,1,con,1,m,Fri Mar 07 2025 14:03:44 GMT-0600 (Central Standard Time),216212.90000000596,iron,900,I,m,m,None,480,280.0,200.0,106,1,1909.2000000029802,214303.70000000298,7099,iron,NF,C,210726,210726,209098,210008,209098,211007,210526,210526,211007,5
6,test,1,con,1,z,Fri Mar 07 2025 14:03:44 GMT-0600 (Central Standard Time),218397.0,plum,1100,I,z,z,None,550,350.0,200.0,60,1,2176.5999999940395,216220.40000000596,7099,plum,NF,C,212841,212841,211014,212126,211015,213191,212641,212641,213191,6
7,test,1,inc,1,z,Fri Mar 07 2025 14:03:44 GMT-0600 (Central Standard Time),220378.40000000596,copper,900,I,z,z,None,533,334.0,199.0,14,1,1975.8000000044703,218402.6000000015,7099,cherry,NF,C,214823,214823,213197,214107,213197,215173,214624,214624,215172,7
8,test,1,con,1,m,Fri Mar 07 2025 14:03:44 GMT-0600 (Central Standard Time),222394.20000000298,gold,1000,I,m,m,None,473,274.0,199.0,99,1,2010.8999999985099,220383.30000000447,7099,gold,NF,C,216907,216907,215177,216191,215178,217188,216708,216708,217188,8
9,test,1,inc,1,z,Fri Mar 07 2025 14:03:44 GMT-0600 (Central Standard Time),224496.70000000298,silver,1000,I,z,z,None,567,367.0,200.0,15,1,2098.7000000029802,222398.0,7099,cherry,NF,C,218923,218923,217192,218207,217192,219291,218722,218722,219291,9
10,test,1,inc,1,z,Fri Mar 07 2025 14:03:44 GMT-0600 (Central Standard Time),226360.5,bronze,800,I,z,z,None,533,319.0,214.0,5,1,1859.3999999985099,224501.1000000015,7099,banana,NF,C,220822,220822,219295,220106,219296,221155,220607,220608,221155,10
11,test,1,con,1,m,Fri Mar 07 2025 14:03:44 GMT-0600 (Central Standard Time),228395.70000000298,silver,1000,I,m,m,None,499,300.0,199.0,83,1,2030.5,226365.20000000298,7099,silver,NF,C,222888,222889,221159,222172,221160,223190,222689,222689,223190,11
12,test,1,inc,1,m,Fri Mar 07 2025 14:03:44 GMT-0600 (Central Standard Time),230442.30000000447,cherry,900,I,m,m,None,608,409.0,199.0,94,1,2041.8000000044703,228400.5,7099,cobalt,NF,C,224821,224821,223195,224105,223195,225236,224621,224621,225236,12
13,test,1,inc,1,m,Fri Mar 07 2025 14:03:44 GMT-0600 (Central Standard Time),232640.30000000447,plum,1100,I,m,m,None,566,352.0,214.0,120,1,2190.0,230450.30000000447,7099,zinc,NF,C,227069,227069,225244,226352,225245,227434,226855,226855,227434,13
14,test,1,con,1,z,Fri Mar 07 2025 14:03:44 GMT-0600 (Central Standard Time),234624.1000000015,pear,1100,I,z,z,None,345,146.0,199.0,44,1,1979.6999999955297,232644.40000000596,7099,pear,NF,C,229268,229268,227438,228553,227439,229418,229069,229069,229418,14
15,test,1,con,1,z,Fri Mar 07 2025 14:03:44 GMT-0600 (Central Standard Time),236689.20000000298,kiwi,1100,I,z,z,None,426,210.0,216.0,52,1,2058.2999999970198,234630.90000000596,7099,kiwi,NF,C,231268,231268,229425,230536,229425,231483,231052,231052,231483,15
16,test,1,con,1,m,Fri Mar 07 2025 14:03:44 GMT-0600 (Central Standard Time),238621.90000000596,lead,1000,I,m,m,None,386,171.0,215.0,123,1,1928.6000000014901,236693.30000000447,7099,lead,NF,C,233234,233234,231487,232502,231488,233416,233019,233019,233416,16
17,test,1,con,1,m,Fri Mar 07 2025 14:03:44 GMT-0600 (Central Standard Time),240772.40000000596,lead,1100,I,m,m,None,500,301.0,199.0,124,1,2145.0,238627.40000000596,7099,lead,NF,C,235250,235250,233421,234535,233422,235567,235050,235050,235566,17
18,test,1,con,1,m,Fri Mar 07 2025 14:03:44 GMT-0600 (Central Standard Time),242704.70000000298,bronze,900,I,m,m,None,501,301.0,200.0,66,1,1924.2000000029802,240780.5,7099,bronze,NF,C,237183,237184,235575,236482,235575,237499,236983,236983,237499,18
19,test,1,inc,1,z,Fri Mar 07 2025 14:03:44 GMT-0600 (Central Standard Time),244820.80000000447,lead,1100,I,z,z,None,473,273.0,200.0,48,1,2111.5,242709.30000000447,7099,pear,NF,C,239333,239333,237503,238617,237504,239615,239133,239133,239615,19
20,test,1,inc,1,z,Fri Mar 07 2025 14:03:44 GMT-0600 (Central Standard Time),246919.70000000298,silver,1000,I,z,z,None,560,361.0,199.0,31,1,2089.89999999851,244829.80000000447,7099,raisin,NF,C,241349,241349,239624,240633,239624,241714,241149,241149,241714,20
21,test,1,inc,1,m,Fri Mar 07 2025 14:03:44 GMT-0600 (Central Standard Time),249003.20000000298,pear,900,I,m,m,None,633,433.0,200.0,118,1,2078.5,246924.70000000298,7099,zinc,NF,C,243348,243348,241719,242633,241719,243797,243148,243148,243797,21
22,test,1,con,1,z,Fri Mar 07 2025 14:03:44 GMT-0600 (Central Standard Time),250969.6000000015,lime,900,I,z,z,None,518,319.0,199.0,34,1,1961.7999999970198,249007.80000000447,7099,lime,NF,C,245430,245430,243802,244716,243802,245764,245231,245231,245764,22
23,test,1,inc,1,z,Fri Mar 07 2025 14:03:44 GMT-0600 (Central Standard Time),252901.80000000447,iron,900,I,z,z,None,516,316.0,200.0,54,1,1928.3000000044703,250973.5,7099,kiwi,NF,C,247380,247380,245768,246677,245768,247696,247180,247180,247696,23
24,test,1,inc,1,z,Fri Mar 07 2025 14:03:44 GMT-0600 (Central Standard Time),255033.6000000015,zinc,1000,I,z,z,None,586,381.0,205.0,63,1,2127.1999999955297,252906.40000000596,7099,plum,NF,C,249432,249432,247700,248712,247701,249828,249227,249227,249828,24
25,test,1,inc,1,z,Fri Mar 07 2025 14:03:44 GMT-0600 (Central Standard Time),256947.70000000298,copper,900,I,z,z,None,480,279.0,201.0,6,1,1911.0,255036.70000000298,7099,banana,NF,C,251461,251462,249831,250745,249831,251742,251260,251260,251742,25
26,test,1,con,1,z,Fri Mar 07 2025 14:03:44 GMT-0600 (Central Standard Time),258750.6000000015,kiwi,900,I,z,z,None,366,152.0,214.0,50,1,1799.6999999955297,256950.90000000596,7099,kiwi,NF,C,253392,253392,251745,252660,251745,253545,253178,253178,253545,26
27,test,1,con,1,m,Fri Mar 07 2025 14:03:44 GMT-0600 (Central Standard Time),260549.40000000596,silver,900,I,m,m,None,365,166.0,199.0,82,1,1793.4000000059605,258756.0,7099,silver,NF,C,255177,255177,253550,254461,253550,255343,254977,254977,255343,27
28,test,1,con,1,z,Fri Mar 07 2025 14:03:44 GMT-0600 (Central Standard Time),262413.90000000596,pear,800,I,z,z,None,515,316.0,199.0,41,1,1859.4000000059605,260554.5,7099,pear,NF,C,256877,256877,255349,256160,255349,257208,256678,256678,257208,28
29,test,1,con,1,z,Fri Mar 07 2025 14:03:44 GMT-0600 (Central Standard Time),264414.0,lime,1000,I,z,z,None,453,238.0,215.0,35,1,1994.6999999955297,262419.30000000447,7099,lime,NF,C,258960,258960,257213,258225,257214,259208,258745,258745,259208,29
30,test,1,con,1,z,Fri Mar 07 2025 14:03:44 GMT-0600 (Central Standard Time),266350.5,banana,1100,I,z,z,None,286,86.0,200.0,4,1,1930.0999999940395,264420.40000000596,7099,banana,NF,C,261042,261042,259214,260329,259215,261145,260842,260842,261145,30
31,test,1,con,1,z,Fri Mar 07 2025 14:03:44 GMT-0600 (Central Standard Time),268430.0,banana,1000,I,z,z,None,547,333.0,214.0,3,1,2074.6999999955297,266355.30000000447,7099,banana,NF,C,262891,262891,261149,262158,261150,263224,262676,262676,263224,31
32,test,1,inc,1,z,Fri Mar 07 2025 14:03:44 GMT-0600 (Central Standard Time),270580.6000000015,lead,1100,I,z,z,None,532,333.0,199.0,56,1,2145.89999999851,268434.700000003,7099,kiwi,NF,C,265041,265041,263229,264339,263229,265375,264841,264841,265375,32
33,test,1,inc,1,m,Fri Mar 07 2025 14:03:44 GMT-0600 (Central Standard Time),272743.700000003,plum,1100,I,m,m,None,541,328.0,213.0,104,1,2158.0,270585.700000003,7099,gold,NF,C,267206,267206,265380,266490,265380,267538,266992,266992,267538,33
34,test,1,inc,1,z,Fri Mar 07 2025 14:03:44 GMT-0600 (Central Standard Time),274944.700000003,cobalt,1100,I,z,z,None,548,335.0,213.0,16,1,2196.2000000029802,272748.5,7099,cherry,NF,C,269390,269390,267542,268657,267543,269739,269176,269176,269739,34
35,test,1,con,1,z,Fri Mar 07 2025 14:03:44 GMT-0600 (Central Standard Time),276926.6000000015,pear,1000,I,z,z,None,441,241.0,200.0,43,1,1974.5,274952.1000000015,7099,pear,NF,C,271469,271469,269746,270753,269747,271721,271269,271269,271721,35
36,test,1,con,1,m,Fri Mar 07 2025 14:03:44 GMT-0600 (Central Standard Time),278709.90000000596,silver,800,I,m,m,None,438,238.0,200.0,81,1,1778.3000000044703,276931.6000000015,7099,silver,NF,C,273255,273256,271726,272539,271726,273504,273055,273055,273504,36
37,test,1,inc,1,m,Fri Mar 07 2025 14:03:44 GMT-0600 (Central Standard Time),280825.6000000015,kiwi,1000,I,m,m,None,575,376.0,199.0,103,1,2110.0,278715.6000000015,7099,gold,NF,C,275238,275238,273510,274521,273510,275620,275038,275038,275620,37
38,test,1,inc,1,m,Fri Mar 07 2025 14:03:44 GMT-0600 (Central Standard Time),282758.30000000447,lime,800,I,m,m,None,588,389.0,199.0,125,1,1928.3999999985099,280829.90000000596,7099,lead,NF,C,277153,277153,275624,276438,275624,277552,276954,276954,277552,38
39,test,1,con,1,m,Fri Mar 07 2025 14:03:44 GMT-0600 (Central Standard Time),284807.0,iron,1000,I,m,m,None,510,311.0,199.0,107,1,2043.7999999970198,282763.200000003,7099,iron,NF,C,279287,279287,277557,278571,277558,279601,279088,279088,279601,39
40,test,1,inc,1,z,Fri Mar 07 2025 14:03:44 GMT-0600 (Central Standard Time),286824.1000000015,zinc,1000,I,z,z,None,468,267.0,201.0,39,1,2013.2999999970198,284810.80000000447,7099,lime,NF,C,281338,281338,279605,280619,279605,281618,281137,281137,281618,40
41,test,1,con,1,z,Fri Mar 07 2025 14:03:44 GMT-0600 (Central Standard Time),288573.5,banana,800,I,z,z,None,404,205.0,199.0,1,1,1743.3999999985099,286830.1000000015,7099,banana,NF,C,283152,283152,281624,282436,281625,283368,282953,282953,283368,41
42,test,1,con,1,z,Fri Mar 07 2025 14:03:44 GMT-0600 (Central Standard Time),290689.700000003,raisin,1100,I,z,z,None,467,252.0,215.0,28,1,2112.2000000029802,288577.5,7099,raisin,NF,C,285217,285217,283372,284484,283372,285484,285002,285002,285484,42
43,test,1,inc,1,z,Fri Mar 07 2025 14:03:44 GMT-0600 (Central Standard Time),292790.0,silver,1000,I,z,z,None,567,366.0,201.0,7,1,2095.6999999955297,290694.30000000447,7099,banana,NF,C,287218,287218,285488,286502,285489,287584,287016,287016,287584,43
44,test,1,con,1,z,Fri Mar 07 2025 14:03:44 GMT-0600 (Central Standard Time),294720.40000000596,raisin,800,I,z,z,None,607,395.0,212.0,25,1,1926.2000000029802,292794.200000003,7099,raisin,NF,C,289114,289114,287588,288400,287589,289514,288902,288902,289514,44
45,test,1,inc,1,m,Fri Mar 07 2025 14:03:44 GMT-0600 (Central Standard Time),296621.5,cherry,900,I,m,m,None,465,265.0,200.0,78,1,1898.3999999985099,294723.1000000015,7099,copper,NF,C,291150,291150,289517,290433,289517,291416,290950,290950,291416,45
45,test,1,inc,0,m,Fri Mar 07 2025 14:03:44 GMT-0600 (Central Standard Time),298653.700000003,orange,1000,I,z,z,None,497,298.0,199.0,95,1,2027.7000000029802,296626.0,7099,cobalt,NF,C,293149,293149,291420,292433,291420,293448,292949,292949,293448,46
46,test,1,con,1,m,Fri Mar 07 2025 14:03:44 GMT-0600 (Central Standard Time),300869.80000000447,lead,900,I,m,m,None,766,566.0,200.0,122,1,2210.39999999851,298659.40000000596,7099,lead,NF,C,295081,295081,293453,294366,293454,295664,294881,294881,295664,47
47,test,1,inc,1,m,Fri Mar 07 2025 14:03:44 GMT-0600 (Central Standard Time),303002.6000000015,banana,800,I,m,m,None,800,599.0,201.0,85,1,2127.60000000149,300875.0,7099,silver,NF,C,297182,297182,295669,296480,295669,297797,296981,296981,297797,48
48,test,1,inc,1,m,Fri Mar 07 2025 14:03:44 GMT-0600 (Central Standard Time),305001.5,lime,800,I,m,m,None,650,451.0,199.0,109,1,1994.0999999940395,303007.40000000596,7099,iron,NF,C,299330,299330,297801,298613,297802,299796,299130,299130,299795,49
49,test,1,con,1,m,Fri Mar 07 2025 14:03:44 GMT-0600 (Central Standard Time),306934.40000000596,zinc,900,I,m,m,None,487,288.0,199.0,114,1,1927.8000000044703,305006.6000000015,7099,zinc,NF,C,301429,301429,299801,300714,299801,301728,301229,301229,301728,50
50,test,1,inc,1,m,Fri Mar 07 2025 14:03:44 GMT-0600 (Central Standard Time),308799.5,banana,800,I,m,m,None,535,336.0,199.0,93,1,1860.5,306939.0,7099,cobalt,NF,C,303246,303246,301733,302545,301733,303594,303047,303047,303594,51
51,test,1,con,1,z,Fri Mar 07 2025 14:03:44 GMT-0600 (Central Standard Time),310700.1000000015,raisin,900,I,z,z,None,457,258.0,199.0,26,1,1894.7999999970198,308805.30000000447,7099,raisin,NF,C,305227,305227,303599,304512,303600,305494,305028,305028,305494,52
52,test,1,con,1,z,Fri Mar 07 2025 14:03:44 GMT-0600 (Central Standard Time),312615.30000000447,cherry,900,I,z,z,None,494,278.0,216.0,10,1,1911.5,310703.80000000447,7099,cherry,NF,C,307128,307128,305498,306410,305498,307409,306912,306912,307409,53
53,test,1,con,1,z,Fri Mar 07 2025 14:03:44 GMT-0600 (Central Standard Time),314532.700000003,plum,1000,I,z,z,None,398,199.0,199.0,59,1,1912.1000000014901,312620.6000000015,7099,plum,NF,C,309127,309127,307415,308426,307415,309327,308928,308928,309327,54
54,test,1,con,1,m,Fri Mar 07 2025 14:03:44 GMT-0600 (Central Standard Time),316731.1000000015,cobalt,1100,I,m,m,None,558,359.0,199.0,92,1,2193.39999999851,314537.700000003,7099,cobalt,NF,C,311159,311159,309332,310443,309332,311525,310960,310960,311525,55
55,test,1,con,1,m,Fri Mar 07 2025 14:03:44 GMT-0600 (Central Standard Time),318831.1000000015,silver,1100,I,m,m,None,448,248.0,200.0,84,1,2094.10000000149,316737.0,7099,silver,NF,C,313360,313360,311531,312642,311531,313625,313159,313159,313625,56
56,test,1,inc,1,m,Fri Mar 07 2025 14:03:44 GMT-0600 (Central Standard Time),320828.200000003,banana,800,I,m,m,None,662,447.0,215.0,69,1,1989.6000000014901,318838.6000000015,7099,bronze,NF,C,315174,315174,313633,314442,313633,315622,314959,314959,315622,57
57,test,1,inc,1,m,Fri Mar 07 2025 14:03:44 GMT-0600 (Central Standard Time),322895.40000000596,kiwi,1000,I,m,m,None,535,320.0,215.0,111,1,2063.60000000149,320831.80000000447,7099,iron,NF,C,317357,317357,315626,316640,315626,317689,317142,317142,317689,58
58,test,1,con,1,m,Fri Mar 07 2025 14:03:44 GMT-0600 (Central Standard Time),324728.5,cobalt,900,I,m,m,None,394,195.0,199.0,90,1,1828.1999999955297,322900.30000000447,7099,cobalt,NF,C,319324,319324,317694,318608,317695,319523,319124,319124,319523,59
59,test,1,inc,1,z,Fri Mar 07 2025 14:03:44 GMT-0600 (Central Standard Time),326727.40000000596,copper,900,I,z,z,None,561,347.0,214.0,30,1,1993.6000000014901,324733.80000000447,7099,raisin,NF,C,321172,321172,319528,320439,319528,321521,320957,320957,321521,60
60,test,1,inc,1,z,Fri Mar 07 2025 14:03:44 GMT-0600 (Central Standard Time),328894.30000000447,cobalt,1100,I,z,z,None,529,330.0,199.0,24,1,2162.10000000149,326732.200000003,7099,orange,NF,C,323356,323356,321526,322639,321527,323688,323156,323156,323688,61
61,test,1,con,1,m,Fri Mar 07 2025 14:03:44 GMT-0600 (Central Standard Time),330826.90000000596,cobalt,800,I,m,m,None,606,391.0,215.0,89,1,1928.8000000044703,328898.1000000015,7099,cobalt,NF,C,325222,325222,323692,324505,323692,325621,325007,325007,325621,62
62,test,1,con,1,m,Fri Mar 07 2025 14:03:44 GMT-0600 (Central Standard Time),333009.0,zinc,1000,I,m,m,None,642,443.0,199.0,115,1,2177.5999999940395,330831.40000000596,7099,zinc,NF,C,327354,327354,325625,326639,325626,327803,327154,327154,327803,63
63,test,1,con,1,z,Fri Mar 07 2025 14:03:44 GMT-0600 (Central Standard Time),334958.90000000596,orange,900,I,z,z,None,505,289.0,216.0,18,1,1944.7000000029802,333014.200000003,7099,orange,NF,C,329454,329454,327808,328720,327809,329753,329238,329238,329753,64
64,test,1,con,1,m,Fri Mar 07 2025 14:03:44 GMT-0600 (Central Standard Time),337042.90000000596,copper,1100,I,m,m,None,457,244.0,213.0,76,1,2079.10000000149,334963.80000000447,7099,copper,NF,C,331586,331586,329758,330870,329758,331837,331372,331372,331837,65
65,test,1,con,1,z,Fri Mar 07 2025 14:03:44 GMT-0600 (Central Standard Time),339007.0,plum,900,I,z,z,None,520,305.0,215.0,58,1,1959.0,337048.0,7099,plum,NF,C,333485,333485,331842,332752,331842,333801,333270,333270,333801,66
66,test,1,inc,1,m,Fri Mar 07 2025 14:03:44 GMT-0600 (Central Standard Time),340908.30000000447,banana,800,I,m,m,None,565,366.0,199.0,77,1,1896.5,339011.80000000447,7099,copper,NF,C,335336,335336,333806,334619,333806,335702,335136,335136,335702,67
67,test,1,inc,1,z,Fri Mar 07 2025 14:03:44 GMT-0600 (Central Standard Time),342839.1000000015,gold,800,I,z,z,None,595,395.0,200.0,37,1,1925.8999999985099,340913.200000003,7099,lime,NF,C,337236,337236,335707,336519,335708,337633,337035,337035,337633,68
68,test,1,inc,1,z,Fri Mar 07 2025 14:03:44 GMT-0600 (Central Standard Time),345123.700000003,cobalt,1100,I,z,z,None,658,459.0,199.0,8,1,2275.7000000029802,342848.0,7099,banana,NF,C,339451,339451,337642,338750,337642,339918,339251,339252,339918,69
69,test,1,inc,1,m,Fri Mar 07 2025 14:03:44 GMT-0600 (Central Standard Time),347103.700000003,lime,800,I,m,m,None,643,428.0,215.0,101,1,1973.7999999970198,345129.90000000596,7099,gold,NF,C,341465,341465,339924,340734,339925,341898,341250,341250,341898,70
70,test,1,inc,1,z,Fri Mar 07 2025 14:03:44 GMT-0600 (Central Standard Time),349153.80000000447,silver,1000,I,z,z,None,524,309.0,215.0,23,1,2043.3999999985099,347110.40000000596,7099,orange,NF,C,343633,343633,341904,342915,341905,343948,343417,343417,343948,71
71,test,1,con,1,m,Fri Mar 07 2025 14:03:44 GMT-0600 (Central Standard Time),351370.1000000015,cobalt,1000,I,m,m,None,674,475.0,199.0,91,1,2211.0,349159.1000000015,7099,cobalt,NF,C,345682,345682,343953,344966,343954,346164,345483,345483,346164,72
72,test,1,inc,1,m,Fri Mar 07 2025 14:03:44 GMT-0600 (Central Standard Time),353586.5,raisin,1100,I,m,m,None,592,376.0,216.0,96,1,2206.6999999955297,351379.80000000447,7099,cobalt,NF,C,347999,347999,346174,347278,346175,348381,347782,347782,348380,73
73,test,1,inc,1,m,Fri Mar 07 2025 14:03:44 GMT-0600 (Central Standard Time),355719.5,lime,800,I,m,m,None,799,599.0,200.0,117,1,2124.89999999851,353594.6000000015,7099,zinc,NF,C,349914,349914,348389,349198,348389,350514,349713,349713,350513,74
74,test,1,con,1,m,Fri Mar 07 2025 14:03:44 GMT-0600 (Central Standard Time),357868.700000003,copper,1000,I,m,m,None,599,399.0,200.0,75,1,2143.89999999851,355724.80000000447,7099,copper,NF,C,352247,352247,350519,351530,350519,352663,352047,352047,352663,75
75,test,1,con,1,m,Fri Mar 07 2025 14:03:44 GMT-0600 (Central Standard Time),359783.90000000596,gold,900,I,m,m,None,478,279.0,199.0,98,1,1907.7000000029802,357876.200000003,7099,gold,NF,C,354295,354295,352670,353580,352671,354578,354096,354096,354578,76
76,test,1,con,1,z,Fri Mar 07 2025 14:03:44 GMT-0600 (Central Standard Time),361783.0,pear,900,I,z,z,None,562,361.0,201.0,42,1,1993.0,359790.0,7099,pear,NF,C,356213,356213,354584,355497,354585,356577,356011,356011,356577,77
77,test,1,con,1,m,Fri Mar 07 2025 14:03:44 GMT-0600 (Central Standard Time),363667.5,copper,900,I,m,m,None,441,242.0,199.0,74,1,1873.8999999985099,361793.6000000015,7099,copper,NF,C,358212,358212,356588,357495,356588,358462,358013,358013,358462,78
78,test,1,con,1,m,Fri Mar 07 2025 14:03:44 GMT-0600 (Central Standard Time),365765.30000000447,lead,800,I,m,m,None,764,565.0,199.0,121,1,2092.60000000149,363672.700000003,7099,lead,NF,C,359994,359994,358467,359280,358467,360559,359794,359794,360559,79
79,test,1,inc,1,m,Fri Mar 07 2025 14:03:44 GMT-0600 (Central Standard Time),367964.80000000447,plum,1100,I,m,m,None,563,348.0,215.0,128,1,2193.3000000044703,365771.5,7099,lead,NF,C,362410,362410,360566,361678,360566,362759,362195,362195,362759,80
80,test,1,inc,1,z,Fri Mar 07 2025 14:03:44 GMT-0600 (Central Standard Time),370064.40000000596,zinc,1000,I,z,z,None,575,376.0,199.0,47,1,2092.4000000059605,367972.0,7099,pear,NF,C,364478,364478,362766,363775,362766,364858,364278,364278,364858,81
81,test,1,inc,1,z,Fri Mar 07 2025 14:03:44 GMT-0600 (Central Standard Time),372030.200000003,gold,800,I,z,z,None,620,421.0,199.0,53,1,1956.3999999985099,370073.80000000447,7099,kiwi,NF,C,366393,366393,364868,365676,364869,366824,366193,366193,366824,82
82,test,1,con,1,z,Fri Mar 07 2025 14:03:44 GMT-0600 (Central Standard Time),374197.0,cherry,1100,I,z,z,None,525,325.0,200.0,12,1,2159.5,372037.5,7099,cherry,NF,C,368657,368657,366832,367941,366832,368991,368457,368457,368991,83
83,test,1,inc,1,m,Fri Mar 07 2025 14:03:44 GMT-0600 (Central Standard Time),376180.0,pear,900,I,m,m,None,535,335.0,200.0,110,1,1977.6999999955297,374202.30000000447,7099,iron,NF,C,370624,370624,368996,369907,368997,370974,370424,370424,370974,84
84,test,1,inc,1,z,Fri Mar 07 2025 14:03:44 GMT-0600 (Central Standard Time),378412.40000000596,zinc,1000,I,z,z,None,683,483.0,200.0,55,1,2226.60000000149,376185.80000000447,7099,kiwi,NF,C,372707,372707,370980,371990,370980,373206,372506,372506,373206,85
85,test,1,inc,1,m,Fri Mar 07 2025 14:03:44 GMT-0600 (Central Standard Time),380577.40000000596,orange,1000,I,m,m,None,616,400.0,216.0,71,1,2158.7000000029802,378418.700000003,7099,bronze,NF,C,374957,374957,373213,374224,373213,375372,374740,374740,375371,86
86,test,1,inc,1,m,Fri Mar 07 2025 14:03:44 GMT-0600 (Central Standard Time),382860.40000000596,raisin,1100,I,m,m,None,647,447.0,200.0,80,1,2277.5,380582.90000000596,7099,copper,NF,C,377207,377207,375377,376488,375377,377654,377006,377006,377654,87
87,test,1,inc,1,m,Fri Mar 07 2025 14:03:44 GMT-0600 (Central Standard Time),384842.90000000596,pear,900,I,m,m,None,557,358.0,199.0,102,1,1976.2000000029802,382866.700000003,7099,gold,NF,C,379272,379272,377661,378571,377661,379637,379072,379072,379637,88
88,test,1,inc,1,z,Fri Mar 07 2025 14:03:44 GMT-0600 (Central Standard Time),387175.80000000447,cobalt,1100,I,z,z,None,682,483.0,199.0,32,1,2327.7000000029802,384848.1000000015,7099,raisin,NF,C,381471,381471,379642,380753,379643,381970,381271,381271,381970,89
89,test,1,con,1,m,Fri Mar 07 2025 14:03:44 GMT-0600 (Central Standard Time),389392.0,gold,1100,I,m,m,None,593,377.0,216.0,100,1,2210.1999999955297,387181.80000000447,7099,gold,NF,C,383804,383804,381976,383086,381976,384186,383587,383587,384186,90
90,test,1,inc,1,m,Fri Mar 07 2025 14:03:44 GMT-0600 (Central Standard Time),391559.0,raisin,1100,I,m,m,None,533,317.0,216.0,88,1,2164.0999999940395,389394.90000000596,7099,silver,NF,C,386036,386036,384189,385303,384189,386353,385820,385820,386353,91
91,test,1,con,1,m,Fri Mar 07 2025 14:03:44 GMT-0600 (Central Standard Time),393472.30000000447,copper,800,I,m,m,None,567,351.0,216.0,73,1,1907.8000000044703,391564.5,7099,copper,NF,C,387902,387902,386359,387168,386359,388266,387686,387686,388266,92
92,test,1,con,1,m,Fri Mar 07 2025 14:03:44 GMT-0600 (Central Standard Time),395423.0,bronze,800,I,m,m,None,605,390.0,215.0,65,1,1945.2999999970198,393477.700000003,7099,bronze,NF,C,389816,389816,388272,389085,388272,390217,389601,389601,390217,93
93,test,1,con,1,m,Fri Mar 07 2025 14:03:44 GMT-0600 (Central Standard Time),397356.5,iron,800,I,m,m,None,599,400.0,199.0,105,1,1928.1999999955297,395428.30000000447,7099,iron,NF,C,391750,391750,390222,391034,390223,392151,391551,391551,392151,94
94,test,1,con,1,z,Fri Mar 07 2025 14:03:44 GMT-0600 (Central Standard Time),399556.6000000015,lime,1100,I,z,z,None,583,383.0,200.0,36,1,2194.10000000149,397362.5,7099,lime,NF,C,393967,393967,392157,393266,392157,394351,393767,393767,394351,95
95,test,1,inc,1,z,Fri Mar 07 2025 14:03:44 GMT-0600 (Central Standard Time),401787.40000000596,lead,1100,I,z,z,None,591,391.0,200.0,64,1,2225.2000000029802,399562.200000003,7099,plum,NF,C,396183,396183,394356,395466,394357,396581,395983,395983,396581,96
96,test,1,con,1,z,Fri Mar 07 2025 14:03:44 GMT-0600 (Central Standard Time),403569.1000000015,lime,800,I,z,z,None,450,250.0,200.0,33,1,1777.6999999955297,401791.40000000596,7099,lime,NF,C,398099,398099,396585,397396,396586,398363,397899,397899,398363,97
97,test,1,con,1,z,Fri Mar 07 2025 14:03:44 GMT-0600 (Central Standard Time),405636.5,kiwi,1000,I,z,z,None,531,316.0,215.0,51,1,2062.0999999940395,403574.40000000596,7099,kiwi,NF,C,400114,400114,398368,399383,398369,400431,399899,399899,400430,98
98,test,1,con,1,z,Fri Mar 07 2025 14:03:44 GMT-0600 (Central Standard Time),407602.30000000447,banana,900,I,z,z,None,517,318.0,199.0,2,1,1960.6000000014901,405641.700000003,7099,banana,NF,C,402064,402064,400436,401347,400436,402396,401865,401865,402396,99
99,test,1,inc,1,m,Fri Mar 07 2025 14:03:44 GMT-0600 (Central Standard Time),409734.6000000015,raisin,1100,I,m,m,None,512,297.0,215.0,72,1,2127.0,407607.6000000015,7099,bronze,NF,C,404229,404229,402402,403512,402402,404529,404014,404014,404529,100
100,test,1,inc,1,m,Fri Mar 07 2025 14:03:44 GMT-0600 (Central Standard Time),411966.700000003,kiwi,1000,I,m,m,None,711,512.0,199.0,127,1,2226.7000000029802,409740.0,7099,lead,NF,C,406246,406246,404534,405545,404535,406761,406047,406047,406761,101
101,test,1,con,1,z,Fri Mar 07 2025 14:03:44 GMT-0600 (Central Standard Time),413799.40000000596,plum,800,I,z,z,None,502,302.0,200.0,57,1,1828.2000000029802,411971.200000003,7099,plum,NF,C,408279,408279,406765,407577,406766,408593,408078,408079,408593,102
102,test,1,inc,1,z,Fri Mar 07 2025 14:03:44 GMT-0600 (Central Standard Time),415718.0,bronze,800,I,z,z,None,584,384.0,200.0,29,1,1914.0999999940395,413803.90000000596,7099,raisin,NF,C,410128,410128,408598,409412,408598,410512,409928,409928,410512,103
103,test,1,con,1,m,Fri Mar 07 2025 14:03:44 GMT-0600 (Central Standard Time),417616.40000000596,gold,800,I,m,m,None,561,362.0,199.0,97,1,1892.9000000059605,415723.5,7099,gold,NF,C,412044,412044,410518,411330,410518,412411,411844,411844,412410,104
104,test,1,inc,1,z,Fri Mar 07 2025 14:03:44 GMT-0600 (Central Standard Time),419482.30000000447,gold,800,I,z,z,None,528,328.0,200.0,61,1,1860.7000000029802,417621.6000000015,7099,plum,NF,C,413942,413942,412416,413226,412416,414276,413742,413742,414276,105
105,test,1,con,1,m,Fri Mar 07 2025 14:03:44 GMT-0600 (Central Standard Time),421731.0,zinc,1100,I,m,m,None,624,425.0,199.0,116,1,2244.39999999851,419486.6000000015,7099,zinc,NF,C,416093,416093,414281,415392,414281,416525,415894,415894,416525,106
106,test,1,inc,1,z,Fri Mar 07 2025 14:03:44 GMT-0600 (Central Standard Time),423846.6000000015,bronze,800,I,z,z,None,766,566.0,200.0,13,1,2110.89999999851,421735.700000003,7099,cherry,NF,C,418059,418059,416530,417343,416530,418641,417859,417859,418641,107
107,test,1,inc,1,m,Fri Mar 07 2025 14:03:44 GMT-0600 (Central Standard Time),425980.200000003,kiwi,1000,I,m,m,None,582,367.0,215.0,119,1,2127.2000000029802,423853.0,7099,zinc,NF,C,420391,420391,418647,419658,418647,420774,420176,420176,420774,108
108,test,1,inc,1,z,Fri Mar 07 2025 14:03:44 GMT-0600 (Central Standard Time),427996.80000000447,iron,900,I,z,z,None,583,367.0,216.0,62,1,2012.0,425984.80000000447,7099,plum,NF,C,422424,422424,420779,421691,420779,422791,422208,422208,422791,109
109,test,1,inc,1,z,Fri Mar 07 2025 14:03:44 GMT-0600 (Central Standard Time),430178.200000003,lead,1100,I,z,z,None,558,344.0,214.0,40,1,2176.2999999970198,428001.90000000596,7099,lime,NF,C,424622,424622,422796,423906,422796,424972,424408,424408,424972,110
110,test,1,inc,1,m,Fri Mar 07 2025 14:03:44 GMT-0600 (Central Standard Time),432111.0,cherry,900,I,m,m,None,495,280.0,215.0,86,1,1928.5,430182.5,7099,silver,NF,C,426622,426622,424977,425890,424977,426905,426407,426407,426905,111
111,test,1,con,1,z,Fri Mar 07 2025 14:03:44 GMT-0600 (Central Standard Time),433893.40000000596,cherry,800,I,z,z,None,438,224.0,214.0,9,1,1777.5,432115.90000000596,7099,cherry,NF,C,428454,428454,426910,427722,426910,428688,428240,428240,428687,112
112,test,1,con,1,z,Fri Mar 07 2025 14:03:44 GMT-0600 (Central Standard Time),435877.700000003,orange,1000,I,z,z,None,466,266.0,200.0,19,1,1979.2000000029802,433898.5,7099,orange,NF,C,430405,430405,428693,429704,428693,430672,430205,430205,430672,113
113,test,1,inc,1,m,Fri Mar 07 2025 14:03:44 GMT-0600 (Central Standard Time),437976.30000000447,orange,1000,I,m,m,None,561,361.0,200.0,79,1,2093.8000000044703,435882.5,7099,copper,NF,C,432405,432405,430677,431688,430677,432770,432205,432205,432770,114
114,test,1,con,1,z,Fri Mar 07 2025 14:03:44 GMT-0600 (Central Standard Time),440075.80000000447,cherry,1000,I,z,z,None,557,357.0,200.0,11,1,2094.39999999851,437981.40000000596,7099,cherry,NF,C,434503,434504,432775,433786,432776,434870,434303,434303,434870,115
115,test,1,inc,1,z,Fri Mar 07 2025 14:03:44 GMT-0600 (Central Standard Time),442206.90000000596,iron,900,I,z,z,None,697,497.0,200.0,38,1,2128.5,440078.40000000596,7099,lime,NF,C,436502,436502,434872,435787,434873,437001,436301,436301,437001,116
116,test,1,con,1,m,Fri Mar 07 2025 14:03:44 GMT-0600 (Central Standard Time),444291.200000003,iron,1100,I,m,m,None,434,218.0,216.0,108,1,2079.39999999851,442211.80000000447,7099,iron,NF,C,438852,438852,437006,438121,437006,439085,438636,438636,439085,117
117,test,1,con,1,z,Fri Mar 07 2025 14:03:44 GMT-0600 (Central Standard Time),446323.80000000447,raisin,1000,I,z,z,None,498,299.0,199.0,27,1,2027.6000000014901,444296.200000003,7099,raisin,NF,C,440818,440818,439090,440102,439091,441118,440618,440618,441118,118
118,test,1,con,1,m,Fri Mar 07 2025 14:03:44 GMT-0600 (Central Standard Time),448574.1000000015,bronze,1100,I,m,m,None,632,433.0,199.0,68,1,2246.10000000149,446328.0,7099,bronze,NF,C,442935,442935,441122,442232,441122,443368,442735,442735,443368,119
119,test,1,inc,1,z,Fri Mar 07 2025 14:03:44 GMT-0600 (Central Standard Time),450705.200000003,copper,900,I,z,z,None,686,486.0,200.0,22,1,2125.60000000149,448579.6000000015,7099,orange,NF,C,445000,445000,443374,444283,443374,445499,444800,444800,445499,120
120,test,1,inc,1,z,Fri Mar 07 2025 14:03:44 GMT-0600 (Central Standard Time),452737.6000000015,iron,900,I,z,z,None,593,394.0,199.0,46,1,2029.5,450708.1000000015,7099,pear,NF,C,447132,447132,445502,446416,445502,447532,446933,446933,447532,121
121,test,1,con,1,m,Fri Mar 07 2025 14:03:44 GMT-0600 (Central Standard Time),454921.40000000596,bronze,1000,I,m,m,None,636,421.0,215.0,67,1,2179.5,452741.90000000596,7099,bronze,NF,C,449281,449281,447536,448549,447536,449715,449066,449066,449715,122
122,test,1,inc,1,z,Fri Mar 07 2025 14:03:44 GMT-0600 (Central Standard Time),456835.40000000596,bronze,800,I,z,z,None,576,376.0,200.0,21,1,1909.4000000059605,454926.0,7099,orange,NF,C,451245,451245,449720,450529,449720,451629,451045,451045,451629,123
123,test,1,inc,1,m,Fri Mar 07 2025 14:03:44 GMT-0600 (Central Standard Time),459053.700000003,orange,1000,I,m,m,None,684,482.0,202.0,87,1,2215.2999999970198,456838.40000000596,7099,silver,NF,C,453365,453365,451632,452645,451633,453848,453162,453162,453848,124
124,test,1,inc,1,z,Fri Mar 07 2025 14:03:44 GMT-0600 (Central Standard Time),461201.90000000596,gold,800,I,z,z,None,801,601.0,200.0,45,1,2141.0,459060.90000000596,7099,pear,NF,C,455380,455380,453855,454663,453855,455996,455180,455180,455996,125
125,test,1,con,1,m,Fri Mar 07 2025 14:03:44 GMT-0600 (Central Standard Time),463150.90000000596,zinc,800,I,m,m,None,614,415.0,199.0,113,1,1946.0,461204.90000000596,7099,zinc,NF,C,457530,457530,455999,456815,455999,457945,457331,457331,457945,126
126,test,1,inc,1,m,Fri Mar 07 2025 14:03:44 GMT-0600 (Central Standard Time),465400.90000000596,plum,1100,I,m,m,None,602,387.0,215.0,112,1,2245.3000000044703,463155.6000000015,7099,iron,NF,C,459795,459795,457950,459063,457950,460195,459580,459580,460195,127
127,test,1,con,1,z,Fri Mar 07 2025 14:03:44 GMT-0600 (Central Standard Time),467284.700000003,kiwi,800,I,z,z,None,533,317.0,216.0,49,1,1878.7000000029802,465406.0,7099,kiwi,NF,C,461745,461745,460200,461012,460200,462079,461529,461529,462079,128
