Number,acc_sum,block,block_c,block_cond,con_img,correct,correct_response,datetime,endtime,jitter,project,response,response_time,row_sel,session_number,start_end,starttime,subject_id,task,task_vers,trial
6,1,prac,1,A,circle.png,1,m,Wed Jan 08 2025 10:17:42 GMT-0600 (Central Standard Time),76921.20000004768,1900,I,m,945,5,1,3626.7999999523163,73294.40000009537,8012,NTS,A,1
9,2,prac,1,A,circle.png,1,m,Wed Jan 08 2025 10:17:42 GMT-0600 (Central Standard Time),79936.79999995232,1500,I,m,730,8,1,3009.2000000476837,76927.59999990463,8012,NTS,A,2
8,3,prac,1,A,circle.png,1,m,Wed Jan 08 2025 10:17:42 GMT-0600 (Central Standard Time),83052.40000009537,1600,I,m,727,7,1,3110.2000000476837,79942.20000004768,8012,NTS,A,3
7,4,prac,1,A,circle.png,1,m,Wed Jan 08 2025 10:17:42 GMT-0600 (Central Standard Time),86234.90000009537,1700,I,m,686,6,1,3176.600000143051,83058.29999995232,8012,NTS,A,4
2,5,prac,1,A,circle.png,1,z,Wed Jan 08 2025 10:17:42 GMT-0600 (Central Standard Time),89600.40000009537,2000,I,z,564,2,1,3359.7000000476837,86240.70000004768,8012,NTS,A,5
4,6,prac,1,A,circle.png,1,z,Wed Jan 08 2025 10:17:42 GMT-0600 (Central Standard Time),92366.29999995232,1400,I,z,567,4,1,2760.2999999523163,89606.0,8012,NTS,A,6
9,7,prac,1,A,circle.png,1,m,Wed Jan 08 2025 10:17:42 GMT-0600 (Central Standard Time),95430.29999995232,1500,I,m,702,8,1,3058.7000000476837,92371.59999990463,8012,NTS,A,7
3,8,prac,1,A,circle.png,1,z,Wed Jan 08 2025 10:17:42 GMT-0600 (Central Standard Time),98331.0,1200,I,z,904,3,1,2895.2999999523163,95435.70000004768,8012,NTS,A,8
2,9,prac,1,A,circle.png,1,z,Wed Jan 08 2025 10:17:42 GMT-0600 (Central Standard Time),101813.29999995232,2000,I,z,685,2,1,3477.0,98336.29999995232,8012,NTS,A,9
7,10,prac,1,A,circle.png,1,m,Wed Jan 08 2025 10:17:42 GMT-0600 (Central Standard Time),105064.09999990463,1700,I,m,751,6,1,3245.5,101818.59999990463,8012,NTS,A,10
1,11,prac,1,A,circle.png,1,z,Wed Jan 08 2025 10:17:42 GMT-0600 (Central Standard Time),107644.79999995232,1000,I,z,785,1,1,2574.7000000476837,105070.09999990463,8012,NTS,A,11
3,12,prac,1,A,circle.png,1,z,Wed Jan 08 2025 10:17:42 GMT-0600 (Central Standard Time),110310.59999990463,1200,I,z,667,3,1,2660.5999999046326,107650.0,8012,NTS,A,12
4,1,prac,1,B,triangle.png,1,m,Wed Jan 08 2025 10:17:42 GMT-0600 (Central Standard Time),141017.5,1500,I,m,1113,4,1,3394.2999999523163,137623.20000004768,8012,NTS,A,1
9,2,prac,1,B,triangle.png,1,z,Wed Jan 08 2025 10:17:42 GMT-0600 (Central Standard Time),143966.5,1400,I,z,720,8,1,2942.9000000953674,141023.59999990463,8012,NTS,A,2
8,3,prac,1,B,triangle.png,1,m,Wed Jan 08 2025 10:17:42 GMT-0600 (Central Standard Time),146715.59999990463,1200,I,m,762,7,1,2744.0999999046326,143971.5,8012,NTS,A,3
7,4,prac,1,B,triangle.png,1,z,Wed Jan 08 2025 10:17:42 GMT-0600 (Central Standard Time),150197.70000004768,2000,I,z,692,6,1,3476.4000000953674,146721.29999995232,8012,NTS,A,4
1,5,prac,1,B,triangle.png,1,z,Wed Jan 08 2025 10:17:42 GMT-0600 (Central Standard Time),154263.70000004768,1900,I,z,1367,1,1,4060.600000143051,150203.09999990463,8012,NTS,A,5
2,6,prac,1,B,triangle.png,1,m,Wed Jan 08 2025 10:17:42 GMT-0600 (Central Standard Time),157728.79999995232,1700,I,m,981,2,1,3460.0999999046326,154268.70000004768,8012,NTS,A,6
8,7,prac,1,B,triangle.png,1,m,Wed Jan 08 2025 10:17:42 GMT-0600 (Central Standard Time),160628.0,1200,I,m,903,7,1,2893.9000000953674,157734.09999990463,8012,NTS,A,7
6,8,prac,1,B,triangle.png,1,m,Wed Jan 08 2025 10:17:42 GMT-0600 (Central Standard Time),163277.40000009537,1000,I,m,852,5,1,2644.300000190735,160633.09999990463,8012,NTS,A,8
6,9,prac,1,B,triangle.png,1,m,Wed Jan 08 2025 10:17:42 GMT-0600 (Central Standard Time),165793.0,1000,I,m,716,5,1,2510.9000000953674,163282.09999990463,8012,NTS,A,9
1,10,prac,1,B,triangle.png,1,z,Wed Jan 08 2025 10:17:42 GMT-0600 (Central Standard Time),169276.40000009537,1900,I,z,788,1,1,3478.600000143051,165797.79999995232,8012,NTS,A,10
3,11,prac,1,B,triangle.png,1,z,Wed Jan 08 2025 10:17:42 GMT-0600 (Central Standard Time),172657.70000004768,1600,I,z,988,3,1,3373.600000143051,169284.09999990463,8012,NTS,A,11
2,12,prac,1,B,triangle.png,1,m,Wed Jan 08 2025 10:17:42 GMT-0600 (Central Standard Time),176056.5,1700,I,m,898,2,1,3393.7999999523163,172662.70000004768,8012,NTS,A,12
1,1,test,1,A,circle.png,1,z,Wed Jan 08 2025 10:17:42 GMT-0600 (Central Standard Time),196316.79999995232,1000,I,z,645,1,1,1661.0,194655.79999995232,8012,NTS,A,1
3,2,test,1,A,circle.png,1,z,Wed Jan 08 2025 10:17:42 GMT-0600 (Central Standard Time),198083.0,1200,I,z,539,3,1,1761.5999999046326,196321.40000009537,8012,NTS,A,2
9,3,test,1,A,circle.png,1,m,Wed Jan 08 2025 10:17:42 GMT-0600 (Central Standard Time),200298.79999995232,1500,I,m,697,8,1,2212.0999999046326,198086.70000004768,8012,NTS,A,3
1,4,test,1,A,circle.png,1,z,Wed Jan 08 2025 10:17:42 GMT-0600 (Central Standard Time),202015.0,1000,I,z,685,1,1,1712.7999999523163,200302.20000004768,8012,NTS,A,4
3,5,test,1,A,circle.png,1,z,Wed Jan 08 2025 10:17:42 GMT-0600 (Central Standard Time),203781.09999990463,1200,I,z,546,3,1,1762.2999999523163,202018.79999995232,8012,NTS,A,5
2,6,test,1,A,circle.png,1,z,Wed Jan 08 2025 10:17:42 GMT-0600 (Central Standard Time),206647.70000004768,2000,I,z,842,2,1,2863.2000000476837,203784.5,8012,NTS,A,6
8,7,test,1,A,circle.png,1,m,Wed Jan 08 2025 10:17:42 GMT-0600 (Central Standard Time),208779.59999990463,1600,I,m,513,7,1,2128.399999856949,206651.20000004768,8012,NTS,A,7
3,8,test,1,A,circle.png,1,z,Wed Jan 08 2025 10:17:42 GMT-0600 (Central Standard Time),210628.90000009537,1200,I,z,628,3,1,1845.7000000476837,208783.20000004768,8012,NTS,A,8
8,9,test,1,A,circle.png,1,m,Wed Jan 08 2025 10:17:42 GMT-0600 (Central Standard Time),213092.29999995232,1600,I,m,699,7,1,2459.7000000476837,210632.59999990463,8012,NTS,A,9
7,10,test,1,A,circle.png,1,m,Wed Jan 08 2025 10:17:42 GMT-0600 (Central Standard Time),215710.70000004768,1700,I,m,893,6,1,2614.600000143051,213096.09999990463,8012,NTS,A,10
2,11,test,1,A,circle.png,1,z,Wed Jan 08 2025 10:17:42 GMT-0600 (Central Standard Time),218426.5,2000,I,z,682,2,1,2712.4000000953674,215714.09999990463,8012,NTS,A,11
2,12,test,1,A,circle.png,1,z,Wed Jan 08 2025 10:17:42 GMT-0600 (Central Standard Time),221209.0,2000,I,z,757,2,1,2778.5999999046326,218430.40000009537,8012,NTS,A,12
1,13,test,1,A,circle.png,1,z,Wed Jan 08 2025 10:17:42 GMT-0600 (Central Standard Time),222925.09999990463,1000,I,z,694,1,1,1712.1999998092651,221212.90000009537,8012,NTS,A,13
4,14,test,1,A,circle.png,1,z,Wed Jan 08 2025 10:17:42 GMT-0600 (Central Standard Time),225091.09999990463,1400,I,z,739,4,1,2162.0,222929.09999990463,8012,NTS,A,14
7,15,test,1,A,circle.png,1,m,Wed Jan 08 2025 10:17:42 GMT-0600 (Central Standard Time),227490.70000004768,1700,I,m,681,6,1,2393.4000000953674,225097.29999995232,8012,NTS,A,15
7,16,test,1,A,circle.png,1,m,Wed Jan 08 2025 10:17:42 GMT-0600 (Central Standard Time),229739.5,1700,I,m,521,6,1,2245.2999999523163,227494.20000004768,8012,NTS,A,16
8,17,test,1,A,circle.png,1,m,Wed Jan 08 2025 10:17:42 GMT-0600 (Central Standard Time),232055.70000004768,1600,I,m,684,7,1,2312.4000000953674,229743.29999995232,8012,NTS,A,17
4,18,test,1,A,circle.png,1,z,Wed Jan 08 2025 10:17:42 GMT-0600 (Central Standard Time),234155.90000009537,1400,I,z,680,4,1,2096.4000000953674,232059.5,8012,NTS,A,18
6,19,test,1,A,circle.png,1,m,Wed Jan 08 2025 10:17:42 GMT-0600 (Central Standard Time),236784.59999990463,1900,I,m,681,5,1,2624.899999856949,234159.70000004768,8012,NTS,A,19
6,20,test,1,A,circle.png,1,m,Wed Jan 08 2025 10:17:42 GMT-0600 (Central Standard Time),239386.70000004768,1900,I,m,665,5,1,2597.2999999523163,236789.40000009537,8012,NTS,A,20
7,21,test,1,A,circle.png,1,m,Wed Jan 08 2025 10:17:42 GMT-0600 (Central Standard Time),241802.5,1700,I,m,682,6,1,2412.2999999523163,239390.20000004768,8012,NTS,A,21
8,22,test,1,A,circle.png,1,m,Wed Jan 08 2025 10:17:42 GMT-0600 (Central Standard Time),244368.09999990463,1600,I,m,941,7,1,2562.0,241806.09999990463,8012,NTS,A,22
9,23,test,1,A,circle.png,1,m,Wed Jan 08 2025 10:17:42 GMT-0600 (Central Standard Time),246567.5,1500,I,m,667,8,1,2195.5999999046326,244371.90000009537,8012,NTS,A,23
6,24,test,1,A,circle.png,1,m,Wed Jan 08 2025 10:17:42 GMT-0600 (Central Standard Time),249383.40000009537,1900,I,m,892,5,1,2812.100000143051,246571.29999995232,8012,NTS,A,24
4,1,test,1,B,triangle.png,1,m,Wed Jan 08 2025 10:17:42 GMT-0600 (Central Standard Time),266494.7999999523,1500,I,m,760,4,1,2279.399999856949,264215.40000009537,8012,NTS,A,1
6,2,test,1,B,triangle.png,1,m,Wed Jan 08 2025 10:17:42 GMT-0600 (Central Standard Time),268194.5,1000,I,m,665,5,1,1695.5999999046326,266498.90000009537,8012,NTS,A,2
3,3,test,1,B,triangle.png,1,z,Wed Jan 08 2025 10:17:42 GMT-0600 (Central Standard Time),270943.2999999523,2000,I,z,726,11,1,2745.0,268198.2999999523,8012,NTS,A,3
9,4,test,1,B,triangle.png,1,z,Wed Jan 08 2025 10:17:42 GMT-0600 (Central Standard Time),273209.59999990463,1400,I,z,833,8,1,2262.0,270947.59999990463,8012,NTS,A,4
1,5,test,1,B,triangle.png,1,z,Wed Jan 08 2025 10:17:42 GMT-0600 (Central Standard Time),275258.59999990463,1400,I,z,631,9,1,2045.5,273213.09999990463,8012,NTS,A,5
6,6,test,1,B,triangle.png,1,m,Wed Jan 08 2025 10:17:42 GMT-0600 (Central Standard Time),277857.90000009537,1500,I,m,1064,13,1,2595.9000000953674,275262.0,8012,NTS,A,6
2,7,test,1,B,triangle.png,1,m,Wed Jan 08 2025 10:17:42 GMT-0600 (Central Standard Time),280357.0,1200,I,m,1270,10,1,2495.5,277861.5,8012,NTS,A,7
1,8,test,1,B,triangle.png,1,z,Wed Jan 08 2025 10:17:42 GMT-0600 (Central Standard Time),282923.0,1900,I,z,632,1,1,2562.2000000476837,280360.7999999523,8012,NTS,A,8
8,9,test,1,B,triangle.png,1,m,Wed Jan 08 2025 10:17:42 GMT-0600 (Central Standard Time),285022.2999999523,1200,I,m,869,7,1,2095.7000000476837,282926.59999990463,8012,NTS,A,9
6,10,test,1,B,triangle.png,1,m,Wed Jan 08 2025 10:17:42 GMT-0600 (Central Standard Time),286638.59999990463,1000,I,m,594,5,1,1612.3999998569489,285026.2000000477,8012,NTS,A,10
8,11,test,1,B,triangle.png,1,m,Wed Jan 08 2025 10:17:42 GMT-0600 (Central Standard Time),288987.7000000477,1700,I,m,622,15,1,2345.7000000476837,286642.0,8012,NTS,A,11
2,12,test,1,B,triangle.png,1,m,Wed Jan 08 2025 10:17:42 GMT-0600 (Central Standard Time),291453.40000009537,1700,I,m,737,2,1,2462.2000000476837,288991.2000000477,8012,NTS,A,12
7,13,test,1,B,triangle.png,1,z,Wed Jan 08 2025 10:17:42 GMT-0600 (Central Standard Time),294252.7000000477,2000,I,z,771,6,1,2795.4000000953674,291457.2999999523,8012,NTS,A,13
8,14,test,1,B,triangle.png,1,m,Wed Jan 08 2025 10:17:42 GMT-0600 (Central Standard Time),296085.5,1200,I,m,611,7,1,1829.2000000476837,294256.2999999523,8012,NTS,A,14
4,15,test,1,B,triangle.png,1,m,Wed Jan 08 2025 10:17:42 GMT-0600 (Central Standard Time),298134.90000009537,1000,I,m,1019,12,1,2045.7000000476837,296089.2000000477,8012,NTS,A,15
2,16,test,1,B,triangle.png,1,m,Wed Jan 08 2025 10:17:42 GMT-0600 (Central Standard Time),300567.5,1700,I,m,709,2,1,2428.9000000953674,298138.59999990463,8012,NTS,A,16
4,17,test,1,B,triangle.png,1,m,Wed Jan 08 2025 10:17:42 GMT-0600 (Central Standard Time),302116.90000009537,1000,I,m,521,12,1,1545.9000000953674,300571.0,8012,NTS,A,17
4,18,test,1,B,triangle.png,1,m,Wed Jan 08 2025 10:17:42 GMT-0600 (Central Standard Time),304282.7999999523,1500,I,m,639,4,1,2162.399999856949,302120.40000009537,8012,NTS,A,18
3,19,test,1,B,triangle.png,1,z,Wed Jan 08 2025 10:17:42 GMT-0600 (Central Standard Time),306798.7000000477,1600,I,z,894,3,1,2512.4000000953674,304286.2999999523,8012,NTS,A,19
9,20,test,1,B,triangle.png,1,z,Wed Jan 08 2025 10:17:42 GMT-0600 (Central Standard Time),309914.40000009537,1900,I,z,1183,16,1,3112.2000000476837,306802.2000000477,8012,NTS,A,20
2,21,test,1,B,triangle.png,1,m,Wed Jan 08 2025 10:17:42 GMT-0600 (Central Standard Time),312080.2999999523,1200,I,m,941,10,1,2162.0999999046326,309918.2000000477,8012,NTS,A,21
7,22,test,1,B,triangle.png,1,z,Wed Jan 08 2025 10:17:42 GMT-0600 (Central Standard Time),315179.2999999523,1600,I,z,1472,14,1,3095.2999999523163,312084.0,8012,NTS,A,22
9,23,test,1,B,triangle.png,1,z,Wed Jan 08 2025 10:17:42 GMT-0600 (Central Standard Time),318178.59999990463,1900,I,z,1081,16,1,2995.7999999523163,315182.7999999523,8012,NTS,A,23
6,24,test,1,B,triangle.png,1,m,Wed Jan 08 2025 10:17:42 GMT-0600 (Central Standard Time),320478.0,1500,I,m,770,13,1,2296.0,318182.0,8012,NTS,A,24
7,1,prac,1,C,triangle.png,1,z,Wed Jan 08 2025 10:17:42 GMT-0600 (Central Standard Time),373377.7999999523,1200,I,z,1122,6,1,3110.7999999523163,370267.0,8012,NTS,A,1
6,2,prac,1,C,circle.png,1,m,Wed Jan 08 2025 10:17:42 GMT-0600 (Central Standard Time),377376.59999990463,2000,I,m,1214,5,1,3993.5,373383.09999990463,8012,NTS,A,2
2,3,prac,1,C,triangle.png,1,m,Wed Jan 08 2025 10:17:42 GMT-0600 (Central Standard Time),380792.2999999523,1600,I,m,1015,2,1,3410.899999856949,377381.40000009537,8012,NTS,A,3
9,4,prac,1,C,circle.png,1,m,Wed Jan 08 2025 10:17:42 GMT-0600 (Central Standard Time),384541.09999990463,1900,I,m,1060,8,1,3743.899999856949,380797.2000000477,8012,NTS,A,4
8,5,prac,1,C,triangle.png,1,m,Wed Jan 08 2025 10:17:42 GMT-0600 (Central Standard Time),387623.59999990463,1400,I,m,891,7,1,3077.699999809265,384545.90000009537,8012,NTS,A,5
4,6,prac,1,C,circle.png,1,z,Wed Jan 08 2025 10:17:42 GMT-0600 (Central Standard Time),390539.2000000477,1000,I,z,1128,4,1,2910.2000000476837,387629.0,8012,NTS,A,6
1,7,prac,1,C,circle.png,1,z,Wed Jan 08 2025 10:17:42 GMT-0600 (Central Standard Time),393871.2000000477,1700,I,z,841,1,1,3327.2999999523163,390543.90000009537,8012,NTS,A,7
1,8,prac,1,C,circle.png,1,z,Wed Jan 08 2025 10:17:42 GMT-0600 (Central Standard Time),397203.7000000477,1700,I,z,845,1,1,3327.7000000476837,393876.0,8012,NTS,A,8
6,9,prac,1,C,circle.png,1,m,Wed Jan 08 2025 10:17:42 GMT-0600 (Central Standard Time),401136.90000009537,2000,I,m,1156,5,1,3928.600000143051,397208.2999999523,8012,NTS,A,9
3,10,prac,1,C,triangle.png,1,z,Wed Jan 08 2025 10:17:42 GMT-0600 (Central Standard Time),404318.0,1500,I,z,884,3,1,3176.0999999046326,401141.90000009537,8012,NTS,A,10
3,11,prac,1,C,triangle.png,1,z,Wed Jan 08 2025 10:17:42 GMT-0600 (Central Standard Time),407367.09999990463,1500,I,z,750,3,1,3044.0,404323.09999990463,8012,NTS,A,11
8,12,prac,1,C,triangle.png,1,m,Wed Jan 08 2025 10:17:42 GMT-0600 (Central Standard Time),410332.90000009537,1400,I,m,777,7,1,2960.800000190735,407372.09999990463,8012,NTS,A,12
6,1,test,1,C,triangle.png,1,m,Wed Jan 08 2025 10:17:42 GMT-0600 (Central Standard Time),428793.59999990463,1000,I,m,1172,13,1,2196.2999999523163,426597.2999999523,8012,NTS,A,1
4,2,test,1,C,circle.png,1,z,Wed Jan 08 2025 10:17:42 GMT-0600 (Central Standard Time),431176.2000000477,1400,I,z,958,4,1,2378.600000143051,428797.59999990463,8012,NTS,A,2
7,3,test,1,C,circle.png,1,m,Wed Jan 08 2025 10:17:42 GMT-0600 (Central Standard Time),434558.7000000477,2000,I,m,1352,14,1,3378.7999999523163,431179.90000009537,8012,NTS,A,3
3,4,test,1,C,circle.png,1,z,Wed Jan 08 2025 10:17:42 GMT-0600 (Central Standard Time),437007.7999999523,1600,I,z,825,19,1,2445.399999856949,434562.40000009537,8012,NTS,A,4
9,5,test,1,C,triangle.png,1,z,Wed Jan 08 2025 10:17:42 GMT-0600 (Central Standard Time),439490.40000009537,1400,I,z,1064,16,1,2478.800000190735,437011.59999990463,8012,NTS,A,5
2,6,test,1,C,circle.png,1,z,Wed Jan 08 2025 10:17:42 GMT-0600 (Central Standard Time),442322.7999999523,1700,I,z,1106,10,1,2828.399999856949,439494.40000009537,8012,NTS,A,6
1,7,test,1,C,triangle.png,1,z,Wed Jan 08 2025 10:17:42 GMT-0600 (Central Standard Time),445121.7999999523,1900,I,z,865,9,1,2795.399999856949,442326.40000009537,8012,NTS,A,7
9,8,test,1,C,circle.png,1,m,Wed Jan 08 2025 10:17:42 GMT-0600 (Central Standard Time),447737.7000000477,1500,I,m,1082,8,1,2612.0,445125.7000000477,8012,NTS,A,8
8,9,test,1,C,circle.png,1,m,Wed Jan 08 2025 10:17:42 GMT-0600 (Central Standard Time),449803.90000009537,1200,I,m,838,15,1,2062.100000143051,447741.7999999523,8012,NTS,A,9
2,10,test,1,C,circle.png,1,z,Wed Jan 08 2025 10:17:42 GMT-0600 (Central Standard Time),452669.7000000477,1700,I,z,1136,18,1,2862.0,449807.7000000477,8012,NTS,A,10
1,11,test,1,C,circle.png,1,z,Wed Jan 08 2025 10:17:42 GMT-0600 (Central Standard Time),454369.0,1000,I,z,666,1,1,1695.5999999046326,452673.40000009537,8012,NTS,A,11
9,12,test,1,C,circle.png,1,m,Wed Jan 08 2025 10:17:42 GMT-0600 (Central Standard Time),456668.2999999523,1500,I,m,771,24,1,2295.7999999523163,454372.5,8012,NTS,A,12
8,13,test,1,C,triangle.png,1,m,Wed Jan 08 2025 10:17:42 GMT-0600 (Central Standard Time),459250.59999990463,1600,I,m,964,7,1,2578.5999999046326,456672.0,8012,NTS,A,13
3,14,test,1,C,triangle.png,1,z,Wed Jan 08 2025 10:17:42 GMT-0600 (Central Standard Time),461416.7000000477,1200,I,z,933,3,1,2162.4000000953674,459254.2999999523,8012,NTS,A,14
2,15,test,1,C,triangle.png,1,m,Wed Jan 08 2025 10:17:42 GMT-0600 (Central Standard Time),464482.5,2000,I,m,1047,2,1,3061.9000000953674,461420.59999990463,8012,NTS,A,15
3,16,test,1,C,circle.png,1,z,Wed Jan 08 2025 10:17:42 GMT-0600 (Central Standard Time),467481.59999990463,1600,I,z,1373,11,1,2995.2999999523163,464486.2999999523,8012,NTS,A,16
1,16,test,1,C,triangle.png,0,z,Wed Jan 08 2025 10:17:42 GMT-0600 (Central Standard Time),470913.90000009537,1900,I,None,1514,17,1,3424.100000143051,467489.7999999523,8012,NTS,A,17
4,16,test,1,C,triangle.png,0,m,Wed Jan 08 2025 10:17:42 GMT-0600 (Central Standard Time),473946.09999990463,1500,I,None,1515,12,1,3028.5,470917.59999990463,8012,NTS,A,18
6,16,test,1,C,circle.png,0,m,Wed Jan 08 2025 10:17:42 GMT-0600 (Central Standard Time),477378.5,1900,I,None,1514,21,1,3429.0,473949.5,8012,NTS,A,19
8,17,test,1,C,triangle.png,1,m,Wed Jan 08 2025 10:17:42 GMT-0600 (Central Standard Time),480394.09999990463,1600,I,m,1389,23,1,3011.899999856949,477382.2000000477,8012,NTS,A,20
4,18,test,1,C,triangle.png,1,m,Wed Jan 08 2025 10:17:42 GMT-0600 (Central Standard Time),482776.7000000477,1500,I,m,858,20,1,2379.0,480397.7000000477,8012,NTS,A,21
6,19,test,1,C,circle.png,1,m,Wed Jan 08 2025 10:17:42 GMT-0600 (Central Standard Time),485709.09999990463,1900,I,m,1010,5,1,2928.699999809265,482780.40000009537,8012,NTS,A,22
7,20,test,1,C,triangle.png,1,z,Wed Jan 08 2025 10:17:42 GMT-0600 (Central Standard Time),488425.2000000477,1700,I,z,991,22,1,2712.5,485712.7000000477,8012,NTS,A,23
7,21,test,1,C,triangle.png,1,z,Wed Jan 08 2025 10:17:42 GMT-0600 (Central Standard Time),491074.2000000477,1700,I,z,923,6,1,2645.4000000953674,488428.7999999523,8012,NTS,A,24
3,1,test,2,C,circle.png,1,z,Wed Jan 08 2025 10:17:42 GMT-0600 (Central Standard Time),499154.7000000477,1600,I,z,780,11,1,2395.7000000476837,496759.0,8012,NTS,A,1
2,2,test,2,C,circle.png,1,z,Wed Jan 08 2025 10:17:42 GMT-0600 (Central Standard Time),501720.7000000477,1700,I,z,833,10,1,2562.2000000476837,499158.5,8012,NTS,A,2
7,3,test,2,C,triangle.png,1,z,Wed Jan 08 2025 10:17:42 GMT-0600 (Central Standard Time),504603.0,1700,I,z,1163,6,1,2878.5,501724.5,8012,NTS,A,3
3,4,test,2,C,circle.png,1,z,Wed Jan 08 2025 10:17:42 GMT-0600 (Central Standard Time),507035.5,1600,I,z,813,19,1,2429.2000000476837,504606.2999999523,8012,NTS,A,4
7,5,test,2,C,circle.png,1,m,Wed Jan 08 2025 10:17:42 GMT-0600 (Central Standard Time),509901.59999990463,2000,I,m,836,14,1,2862.5,507039.09999990463,8012,NTS,A,5
8,6,test,2,C,circle.png,1,m,Wed Jan 08 2025 10:17:42 GMT-0600 (Central Standard Time),511984.40000009537,1200,I,m,858,15,1,2079.100000143051,509905.2999999523,8012,NTS,A,6
2,7,test,2,C,triangle.png,1,m,Wed Jan 08 2025 10:17:42 GMT-0600 (Central Standard Time),515133.2000000477,2000,I,m,1120,2,1,3145.2000000476837,511988.0,8012,NTS,A,7
4,8,test,2,C,triangle.png,1,m,Wed Jan 08 2025 10:17:42 GMT-0600 (Central Standard Time),517682.2999999523,1500,I,m,1016,12,1,2545.399999856949,515136.90000009537,8012,NTS,A,8
3,9,test,2,C,triangle.png,1,z,Wed Jan 08 2025 10:17:42 GMT-0600 (Central Standard Time),519698.40000009537,1200,I,z,789,3,1,2012.4000000953674,517686.0,8012,NTS,A,9
4,10,test,2,C,triangle.png,1,m,Wed Jan 08 2025 10:17:42 GMT-0600 (Central Standard Time),522214.2999999523,1500,I,m,993,20,1,2510.7000000476837,519703.59999990463,8012,NTS,A,10
7,11,test,2,C,circle.png,1,m,Wed Jan 08 2025 10:17:42 GMT-0600 (Central Standard Time),525696.4000000954,2000,I,m,1458,22,1,3478.2000000476837,522218.2000000477,8012,NTS,A,11
9,12,test,2,C,circle.png,1,m,Wed Jan 08 2025 10:17:42 GMT-0600 (Central Standard Time),528013.5,1500,I,m,787,8,1,2313.5,525700.0,8012,NTS,A,12
1,13,test,2,C,circle.png,1,z,Wed Jan 08 2025 10:17:42 GMT-0600 (Central Standard Time),529778.5999999046,1000,I,z,739,1,1,1761.0999999046326,528017.5,8012,NTS,A,13
6,14,test,2,C,triangle.png,1,m,Wed Jan 08 2025 10:17:42 GMT-0600 (Central Standard Time),531761.2999999523,1000,I,m,949,13,1,1979.2000000476837,529782.0999999046,8012,NTS,A,14
4,14,test,2,C,circle.png,0,z,Wed Jan 08 2025 10:17:42 GMT-0600 (Central Standard Time),534694.0,1400,I,None,1515,4,1,2928.5,531765.5,8012,NTS,A,15
6,15,test,2,C,triangle.png,1,m,Wed Jan 08 2025 10:17:42 GMT-0600 (Central Standard Time),536859.7000000477,1000,I,m,1138,21,1,2162.0,534697.7000000477,8012,NTS,A,16
2,16,test,2,C,circle.png,1,z,Wed Jan 08 2025 10:17:42 GMT-0600 (Central Standard Time),539908.7999999523,1700,I,z,1329,18,1,3045.5,536863.2999999523,8012,NTS,A,17
8,17,test,2,C,circle.png,1,m,Wed Jan 08 2025 10:17:42 GMT-0600 (Central Standard Time),542008.2999999523,1200,I,m,875,23,1,2095.7000000476837,539912.5999999046,8012,NTS,A,18
9,18,test,2,C,triangle.png,1,z,Wed Jan 08 2025 10:17:42 GMT-0600 (Central Standard Time),544657.2000000477,1400,I,z,1216,24,1,2644.4000000953674,542012.7999999523,8012,NTS,A,19
1,19,test,2,C,triangle.png,1,z,Wed Jan 08 2025 10:17:42 GMT-0600 (Central Standard Time),547622.9000000954,1900,I,z,1043,9,1,2962.0,544660.9000000954,8012,NTS,A,20
8,20,test,2,C,triangle.png,1,m,Wed Jan 08 2025 10:17:42 GMT-0600 (Central Standard Time),550138.9000000954,1600,I,m,897,7,1,2512.100000143051,547626.7999999523,8012,NTS,A,21
9,21,test,2,C,triangle.png,1,z,Wed Jan 08 2025 10:17:42 GMT-0600 (Central Standard Time),552338.4000000954,1400,I,z,781,16,1,2196.100000143051,550142.2999999523,8012,NTS,A,22
1,22,test,2,C,triangle.png,1,z,Wed Jan 08 2025 10:17:42 GMT-0600 (Central Standard Time),555270.7000000477,1900,I,z,1010,17,1,2928.7000000476837,552342.0,8012,NTS,A,23
6,22,test,2,C,circle.png,0,m,Wed Jan 08 2025 10:17:42 GMT-0600 (Central Standard Time),558703.0,1900,I,None,1514,5,1,3428.7000000476837,555274.2999999523,8012,NTS,A,24
9,1,test,3,C,circle.png,1,m,Wed Jan 08 2025 10:17:42 GMT-0600 (Central Standard Time),564201.2000000477,1500,I,m,616,24,1,2146.600000143051,562054.5999999046,8012,NTS,A,1
7,2,test,3,C,circle.png,1,m,Wed Jan 08 2025 10:17:42 GMT-0600 (Central Standard Time),566966.7000000477,2000,I,m,743,14,1,2761.7000000476837,564205.0,8012,NTS,A,2
2,3,test,3,C,triangle.png,1,m,Wed Jan 08 2025 10:17:42 GMT-0600 (Central Standard Time),570082.9000000954,2000,I,m,1082,2,1,3112.800000190735,566970.0999999046,8012,NTS,A,3
1,4,test,3,C,circle.png,1,z,Wed Jan 08 2025 10:17:42 GMT-0600 (Central Standard Time),572065.2000000477,1000,I,z,957,1,1,1978.7000000476837,570086.5,8012,NTS,A,4
2,5,test,3,C,circle.png,1,z,Wed Jan 08 2025 10:17:42 GMT-0600 (Central Standard Time),574664.5999999046,1700,I,z,867,10,1,2595.899999856949,572068.7000000477,8012,NTS,A,5
6,6,test,3,C,circle.png,1,m,Wed Jan 08 2025 10:17:42 GMT-0600 (Central Standard Time),577397.2000000477,1900,I,m,812,5,1,2729.0,574668.2000000477,8012,NTS,A,6
8,7,test,3,C,triangle.png,1,m,Wed Jan 08 2025 10:17:42 GMT-0600 (Central Standard Time),579946.5,1600,I,m,924,7,1,2545.7999999523163,577400.7000000477,8012,NTS,A,7
9,8,test,3,C,triangle.png,1,z,Wed Jan 08 2025 10:17:42 GMT-0600 (Central Standard Time),582128.7999999523,1400,I,z,758,16,1,2177.5999999046326,579951.2000000477,8012,NTS,A,8
3,9,test,3,C,triangle.png,1,z,Wed Jan 08 2025 10:17:42 GMT-0600 (Central Standard Time),584095.0,1200,I,z,743,19,1,1962.2000000476837,582132.7999999523,8012,NTS,A,9
4,10,test,3,C,circle.png,1,z,Wed Jan 08 2025 10:17:42 GMT-0600 (Central Standard Time),586227.4000000954,1400,I,z,713,4,1,2129.100000143051,584098.2999999523,8012,NTS,A,10
3,11,test,3,C,circle.png,1,z,Wed Jan 08 2025 10:17:42 GMT-0600 (Central Standard Time),588543.7999999523,1600,I,z,684,11,1,2313.0,586230.7999999523,8012,NTS,A,11
4,12,test,3,C,circle.png,1,z,Wed Jan 08 2025 10:17:42 GMT-0600 (Central Standard Time),590809.2000000477,1400,I,z,727,20,1,2261.9000000953674,588547.2999999523,8012,NTS,A,12
6,13,test,3,C,triangle.png,1,m,Wed Jan 08 2025 10:17:42 GMT-0600 (Central Standard Time),592925.5,1000,I,m,1094,13,1,2108.7000000476837,590816.7999999523,8012,NTS,A,13
7,14,test,3,C,triangle.png,1,z,Wed Jan 08 2025 10:17:42 GMT-0600 (Central Standard Time),595357.9000000954,1700,I,z,710,22,1,2428.100000143051,592929.7999999523,8012,NTS,A,14
8,15,test,3,C,circle.png,1,m,Wed Jan 08 2025 10:17:42 GMT-0600 (Central Standard Time),597391.0999999046,1200,I,m,810,15,1,2029.6999998092651,595361.4000000954,8012,NTS,A,15
2,16,test,3,C,triangle.png,1,m,Wed Jan 08 2025 10:17:42 GMT-0600 (Central Standard Time),600456.5,2000,I,m,1033,18,1,3062.0999999046326,597394.4000000954,8012,NTS,A,16
9,17,test,3,C,circle.png,1,m,Wed Jan 08 2025 10:17:42 GMT-0600 (Central Standard Time),603455.4000000954,1500,I,m,1475,8,1,2995.300000190735,600460.0999999046,8012,NTS,A,17
1,18,test,3,C,triangle.png,1,z,Wed Jan 08 2025 10:17:42 GMT-0600 (Central Standard Time),606854.5,1900,I,z,1475,9,1,3395.4000000953674,603459.0999999046,8012,NTS,A,18
8,19,test,3,C,triangle.png,1,m,Wed Jan 08 2025 10:17:42 GMT-0600 (Central Standard Time),609670.2999999523,1600,I,m,1185,23,1,2812.2000000476837,606858.0999999046,8012,NTS,A,19
4,20,test,3,C,triangle.png,1,m,Wed Jan 08 2025 10:17:42 GMT-0600 (Central Standard Time),612219.4000000954,1500,I,m,1022,12,1,2545.5,609673.9000000954,8012,NTS,A,20
7,21,test,3,C,triangle.png,1,z,Wed Jan 08 2025 10:17:42 GMT-0600 (Central Standard Time),614885.0999999046,1700,I,z,937,6,1,2662.0999999046326,612223.0,8012,NTS,A,21
3,22,test,3,C,triangle.png,1,z,Wed Jan 08 2025 10:17:42 GMT-0600 (Central Standard Time),617284.2999999523,1200,I,z,1179,3,1,2395.2999999523163,614889.0,8012,NTS,A,22
1,23,test,3,C,circle.png,1,z,Wed Jan 08 2025 10:17:42 GMT-0600 (Central Standard Time),619417.0,1000,I,z,1106,17,1,2128.9000000953674,617288.0999999046,8012,NTS,A,23
6,24,test,3,C,circle.png,1,m,Wed Jan 08 2025 10:17:42 GMT-0600 (Central Standard Time),622233.2000000477,1900,I,m,891,21,1,2812.2999999523163,619420.9000000954,8012,NTS,A,24
7,1,test,4,C,triangle.png,1,z,Wed Jan 08 2025 10:17:42 GMT-0600 (Central Standard Time),627764.7000000477,1700,I,z,1145,22,1,2862.7999999523163,624901.9000000954,8012,NTS,A,1
3,2,test,4,C,triangle.png,1,z,Wed Jan 08 2025 10:17:42 GMT-0600 (Central Standard Time),629847.2000000477,1200,I,z,859,19,1,2078.4000000953674,627768.7999999523,8012,NTS,A,2
9,3,test,4,C,circle.png,1,m,Wed Jan 08 2025 10:17:42 GMT-0600 (Central Standard Time),632396.4000000954,1500,I,m,1021,8,1,2544.7000000476837,629851.7000000477,8012,NTS,A,3
2,4,test,4,C,circle.png,1,z,Wed Jan 08 2025 10:17:42 GMT-0600 (Central Standard Time),634895.5999999046,1700,I,z,776,10,1,2495.5,632400.0999999046,8012,NTS,A,4
8,5,test,4,C,triangle.png,1,m,Wed Jan 08 2025 10:17:42 GMT-0600 (Central Standard Time),637528.0999999046,1600,I,m,1000,23,1,2628.7999999523163,634899.2999999523,8012,NTS,A,5
1,6,test,4,C,circle.png,1,z,Wed Jan 08 2025 10:17:42 GMT-0600 (Central Standard Time),639727.2999999523,1000,I,z,1176,1,1,2195.5,637531.7999999523,8012,NTS,A,6
6,7,test,4,C,circle.png,1,m,Wed Jan 08 2025 10:17:42 GMT-0600 (Central Standard Time),642626.7000000477,1900,I,m,965,21,1,2895.600000143051,639731.0999999046,8012,NTS,A,7
4,8,test,4,C,circle.png,1,z,Wed Jan 08 2025 10:17:42 GMT-0600 (Central Standard Time),644842.2999999523,1400,I,z,782,4,1,2212.0,642630.2999999523,8012,NTS,A,8
6,9,test,4,C,circle.png,1,m,Wed Jan 08 2025 10:17:42 GMT-0600 (Central Standard Time),647491.4000000954,1900,I,m,729,5,1,2645.5,644845.9000000954,8012,NTS,A,9
1,10,test,4,C,triangle.png,1,z,Wed Jan 08 2025 10:17:42 GMT-0600 (Central Standard Time),650374.0,1900,I,z,960,9,1,2879.2999999523163,647494.7000000477,8012,NTS,A,10
2,11,test,4,C,triangle.png,1,m,Wed Jan 08 2025 10:17:42 GMT-0600 (Central Standard Time),653406.2999999523,2000,I,m,1010,18,1,3028.399999856949,650377.9000000954,8012,NTS,A,11
3,12,test,4,C,triangle.png,1,z,Wed Jan 08 2025 10:17:42 GMT-0600 (Central Standard Time),655289.4000000954,1200,I,z,649,3,1,1879.3000001907349,653410.0999999046,8012,NTS,A,12
7,13,test,4,C,circle.png,1,m,Wed Jan 08 2025 10:17:42 GMT-0600 (Central Standard Time),658671.2999999523,2000,I,m,1351,14,1,3376.5999999046326,655294.7000000477,8012,NTS,A,13
1,14,test,4,C,circle.png,1,z,Wed Jan 08 2025 10:17:42 GMT-0600 (Central Standard Time),660337.5999999046,1000,I,z,640,17,1,1662.3999998569489,658675.2000000477,8012,NTS,A,14
8,15,test,4,C,triangle.png,1,m,Wed Jan 08 2025 10:17:42 GMT-0600 (Central Standard Time),663369.9000000954,1600,I,m,1406,7,1,3028.600000143051,660341.2999999523,8012,NTS,A,15
7,16,test,4,C,triangle.png,1,z,Wed Jan 08 2025 10:17:42 GMT-0600 (Central Standard Time),665852.5,1700,I,z,754,6,1,2478.5,663374.0,8012,NTS,A,16
8,17,test,4,C,circle.png,1,m,Wed Jan 08 2025 10:17:42 GMT-0600 (Central Standard Time),667851.7999999523,1200,I,m,771,15,1,1995.5999999046326,665856.2000000477,8012,NTS,A,17
4,18,test,4,C,circle.png,1,z,Wed Jan 08 2025 10:17:42 GMT-0600 (Central Standard Time),669951.2000000477,1400,I,z,676,20,1,2095.7000000476837,667855.5,8012,NTS,A,18
4,19,test,4,C,triangle.png,1,m,Wed Jan 08 2025 10:17:42 GMT-0600 (Central Standard Time),672500.2999999523,1500,I,m,1029,12,1,2545.5999999046326,669954.7000000477,8012,NTS,A,19
3,20,test,4,C,circle.png,1,z,Wed Jan 08 2025 10:17:42 GMT-0600 (Central Standard Time),675166.2999999523,1600,I,z,1045,11,1,2662.5,672503.7999999523,8012,NTS,A,20
2,21,test,4,C,triangle.png,1,m,Wed Jan 08 2025 10:17:42 GMT-0600 (Central Standard Time),678515.0999999046,2000,I,m,1331,2,1,3344.5999999046326,675170.5,8012,NTS,A,21
9,22,test,4,C,triangle.png,1,z,Wed Jan 08 2025 10:17:42 GMT-0600 (Central Standard Time),680730.9000000954,1400,I,z,797,16,1,2212.4000000953674,678518.5,8012,NTS,A,22
9,23,test,4,C,circle.png,1,m,Wed Jan 08 2025 10:17:42 GMT-0600 (Central Standard Time),683230.2999999523,1500,I,m,977,24,1,2495.899999856949,680734.4000000954,8012,NTS,A,23
6,24,test,4,C,triangle.png,1,m,Wed Jan 08 2025 10:17:42 GMT-0600 (Central Standard Time),685229.9000000954,1000,I,m,970,13,1,1996.0,683233.9000000954,8012,NTS,A,24
