Q,Q1,Q2,Q3,Q4,acc_sum,block,block_c,correct,correct_response,datetime,endtime,project,response,response_time,row_sel,session_number,squiggle1,squiggle1x,squiggle1y,squiggle2,squiggle2x,squiggle2y,squiggle3,squiggle3x,squiggle3y,squiggle4,squiggle4x,squiggle4y,start_end,starttime,subject_id,target_congruent,task,task_vers,testsquiggle,testsquigglex,testsquiggley,time_practice_delay,time_practice_fixation,time_practice_stimuli,time_practice_study,time_test_delay,time_test_fixation,time_test_stimuli,time_test_study,trial
1,1,0,0,0,0,prac,1,0,z,Tue Nov 12 2024 10:40:27 GMT-0600 (Central Standard Time),137606.59999990463,O,None,2015,1,1,66.bmp,-120,-120,67.bmp,120,-120,68.bmp,-120,120,69.bmp,120,120,10831.299999952316,126775.29999995232,7032,yes,SM,C,66.bmp,-120,-120,129821,123788,131837,125805,,,,,1
3,0,0,1,0,1,prac,1,1,m,Tue Nov 12 2024 10:40:27 GMT-0600 (Central Standard Time),147886.89999985695,O,m,1445,2,1,70.bmp,-120,-120,71.bmp,120,-120,72.bmp,-120,120,73.bmp,120,120,10262.899999856949,137624.0,7032,no,SM,C,73.bmp,-120,120,140667,134637,142683,136652,,,,,2
4,0,0,0,1,1,prac,1,0,m,Tue Nov 12 2024 10:40:27 GMT-0600 (Central Standard Time),158066.5,O,z,1333,3,1,74.bmp,-120,-120,75.bmp,120,-120,76.bmp,-120,120,77.bmp,120,120,10163.5,147903.0,7032,no,SM,C,74.bmp,120,120,150947,144916,152963,146932,,,,,3
2,0,1,0,0,1,prac,1,0,z,Tue Nov 12 2024 10:40:27 GMT-0600 (Central Standard Time),168912.79999995232,O,None,2015,4,1,78.bmp,-120,-120,79.bmp,120,-120,80.bmp,-120,120,81.bmp,120,120,10831.799999952316,158081.0,7032,yes,SM,C,79.bmp,120,-120,161127,155094,163143,157112,,,,,4
3,0,0,1,0,2,prac,1,1,z,Tue Nov 12 2024 10:40:27 GMT-0600 (Central Standard Time),179542.89999985695,O,z,1803,5,1,82.bmp,-120,-120,83.bmp,120,-120,84.bmp,-120,120,85.bmp,120,120,10615.699999809265,168927.20000004768,7032,yes,SM,C,84.bmp,-120,120,171956,165940,173973,167942,,,,,5
1,1,0,0,0,2,prac,1,0,m,Tue Nov 12 2024 10:40:27 GMT-0600 (Central Standard Time),190022.5,O,z,1636,6,1,86.bmp,-120,-120,87.bmp,120,-120,88.bmp,-120,120,89.bmp,120,120,10462.600000143051,179559.89999985695,7032,no,SM,C,89.bmp,-120,-120,182603,176573,184619,178588,,,,,6
2,0,1,0,0,3,prac,1,1,m,Tue Nov 12 2024 10:40:27 GMT-0600 (Central Standard Time),200502.5,O,m,1637,7,1,90.bmp,-120,-120,91.bmp,120,-120,92.bmp,-120,120,93.bmp,120,120,10465.200000047684,190037.29999995232,7032,no,SM,C,90.bmp,120,-120,193083,187051,195099,189068,,,,,7
4,0,0,0,1,3,prac,1,0,z,Tue Nov 12 2024 10:40:27 GMT-0600 (Central Standard Time),211332.0,O,None,2014,8,1,94.bmp,-120,-120,95.bmp,120,-120,96.bmp,-120,120,97.bmp,120,120,10815.400000095367,200516.59999990463,7032,yes,SM,C,97.bmp,120,120,203546,197529,205562,199531,,,,,8
1,1,0,0,0,0,prac,2,0,z,Tue Nov 12 2024 10:40:27 GMT-0600 (Central Standard Time),227210.29999995232,O,None,2015,1,1,66.bmp,-120,-120,67.bmp,120,-120,68.bmp,-120,120,69.bmp,120,120,10816.099999904633,216394.20000004768,7032,yes,SM,C,66.bmp,-120,-120,219424,213407,221441,215409,,,,,1
3,0,0,1,0,0,prac,2,0,m,Tue Nov 12 2024 10:40:27 GMT-0600 (Central Standard Time),237340.59999990463,O,z,1306,2,1,70.bmp,-120,-120,71.bmp,120,-120,72.bmp,-120,120,73.bmp,120,120,10116.299999952316,227224.29999995232,7032,no,SM,C,73.bmp,-120,120,230253,224237,232270,226238,,,,,2
4,0,0,0,1,1,prac,2,1,m,Tue Nov 12 2024 10:40:27 GMT-0600 (Central Standard Time),247753.79999995232,O,m,1575,3,1,74.bmp,-120,-120,75.bmp,120,-120,76.bmp,-120,120,77.bmp,120,120,10398.5,237355.29999995232,7032,no,SM,C,74.bmp,120,120,240401,234368,242417,236386,,,,,3
2,0,1,0,0,1,prac,2,0,z,Tue Nov 12 2024 10:40:27 GMT-0600 (Central Standard Time),258599.79999995232,O,None,2014,4,1,78.bmp,-120,-120,79.bmp,120,-120,80.bmp,-120,120,81.bmp,120,120,10831.599999904633,247768.20000004768,7032,yes,SM,C,79.bmp,120,-120,250814,244781,252831,246799,,,,,4
3,0,0,1,0,2,prac,2,1,z,Tue Nov 12 2024 10:40:27 GMT-0600 (Central Standard Time),268662.7999999523,O,z,1227,5,1,82.bmp,-120,-120,83.bmp,120,-120,84.bmp,-120,120,85.bmp,120,120,10048.0,258614.79999995232,7032,yes,SM,C,84.bmp,-120,120,261660,255628,263677,257645,,,,,5
1,1,0,0,0,3,prac,2,1,m,Tue Nov 12 2024 10:40:27 GMT-0600 (Central Standard Time),278710.09999990463,O,m,1228,6,1,86.bmp,-120,-120,87.bmp,120,-120,88.bmp,-120,120,89.bmp,120,120,10043.200000047684,268666.89999985695,7032,no,SM,C,89.bmp,-120,-120,271707,265679,273724,267692,,,,,6
2,0,1,0,0,4,prac,2,1,m,Tue Nov 12 2024 10:40:27 GMT-0600 (Central Standard Time),288873.59999990463,O,m,1317,7,1,90.bmp,-120,-120,91.bmp,120,-120,92.bmp,-120,120,93.bmp,120,120,10148.299999952316,278725.2999999523,7032,no,SM,C,90.bmp,120,-120,281770,275738,283787,277755,,,,,7
4,0,0,0,1,4,prac,2,0,z,Tue Nov 12 2024 10:40:27 GMT-0600 (Central Standard Time),298903.5,O,m,1194,8,1,94.bmp,-120,-120,95.bmp,120,-120,96.bmp,-120,120,97.bmp,120,120,10015.400000095367,288888.09999990463,7032,yes,SM,C,97.bmp,120,120,291934,285901,293950,287919,,,,,8
4,0,0,0,1,1,test,1,1,m,Tue Nov 12 2024 10:40:27 GMT-0600 (Central Standard Time),321462.7999999523,O,m,1829,1,1,98.bmp,-120,-120,99.bmp,120,-120,100.bmp,-120,120,93.bmp,120,120,9867.799999952316,311595.0,7032,yes,SM,C,100.bmp,120,120,291934,285901,293950,287919,314626.0,308608.0,316643.0,310611.0,1
2,0,1,0,0,2,test,1,1,m,Tue Nov 12 2024 10:40:27 GMT-0600 (Central Standard Time),331376.2000000477,O,m,1861,2,1,51.bmp,-120,-120,52.bmp,120,-120,53.bmp,-120,120,54.bmp,120,120,9899.700000047684,321476.5,7032,yes,SM,C,53.bmp,120,-120,291934,285901,293950,287919,324506.0,318489.0,326523.0,320492.0,2
1,1,0,0,0,3,test,1,1,z,Tue Nov 12 2024 10:40:27 GMT-0600 (Central Standard Time),340289.59999990463,O,z,861,3,1,55.bmp,-120,-120,56.bmp,120,-120,57.bmp,-120,120,58.bmp,120,120,8900.399999856949,331389.2000000477,7032,yes,SM,C,55.bmp,-120,-120,291934,285901,293950,287919,334420.0,328402.0,336435.0,330404.0,3
3,0,0,1,0,4,test,1,1,m,Tue Nov 12 2024 10:40:27 GMT-0600 (Central Standard Time),349770.0,O,m,1409,4,1,59.bmp,-120,-120,60.bmp,120,-120,61.bmp,-120,120,62.bmp,120,120,9465.0,340305.0,7032,yes,SM,C,59.bmp,-120,120,291934,285901,293950,287919,343350.0,337318.0,345367.0,339335.0,4
2,0,1,0,0,5,test,1,1,z,Tue Nov 12 2024 10:40:27 GMT-0600 (Central Standard Time),359050.2000000477,O,z,1226,5,1,63.bmp,-120,-120,64.bmp,120,-120,65.bmp,-120,120,66.bmp,120,120,9267.100000143051,349783.09999990463,7032,yes,SM,C,64.bmp,120,-120,291934,285901,293950,287919,352814.0,346796.0,354830.0,348799.0,5
3,0,0,1,0,6,test,1,1,z,Tue Nov 12 2024 10:40:27 GMT-0600 (Central Standard Time),368363.7999999523,O,z,1249,6,1,67.bmp,-120,-120,68.bmp,120,-120,69.bmp,-120,120,70.bmp,120,120,9301.099999904633,359062.7000000477,7032,yes,SM,C,69.bmp,-120,120,291934,285901,293950,287919,362094.0,356075.0,364110.0,358079.0,6
4,0,0,0,1,6,test,1,0,z,Tue Nov 12 2024 10:40:27 GMT-0600 (Central Standard Time),377844.0,O,m,1416,7,1,71.bmp,-120,-120,72.bmp,120,-120,73.bmp,-120,120,74.bmp,120,120,9465.900000095367,368378.09999990463,7032,yes,SM,C,74.bmp,120,120,291934,285901,293950,287919,371407.0,365391.0,373424.0,367393.0,7
2,0,1,0,0,7,test,1,1,m,Tue Nov 12 2024 10:40:27 GMT-0600 (Central Standard Time),387724.39999985695,O,m,1823,8,1,75.bmp,-120,-120,76.bmp,120,-120,77.bmp,-120,120,78.bmp,120,120,9865.899999856949,377858.5,7032,yes,SM,C,75.bmp,120,-120,291934,285901,293950,287919,380888.0,374871.0,382905.0,376873.0,8
3,0,0,1,0,8,test,1,1,m,Tue Nov 12 2024 10:40:27 GMT-0600 (Central Standard Time),397054.39999985695,O,m,1273,9,1,79.bmp,-120,-120,80.bmp,120,-120,81.bmp,-120,120,82.bmp,120,120,9316.0,387738.39999985695,7032,yes,SM,C,80.bmp,-120,120,291934,285901,293950,287919,390768.0,384751.0,392783.0,386753.0,9
4,0,0,0,1,8,test,1,0,z,Tue Nov 12 2024 10:40:27 GMT-0600 (Central Standard Time),406984.5,O,m,1877,10,1,87.bmp,-120,-120,88.bmp,120,-120,89.bmp,-120,120,90.bmp,120,120,9916.5,397068.0,7032,yes,SM,C,90.bmp,120,120,291934,285901,293950,287919,400098.0,394081.0,402115.0,396083.0,10
3,0,0,1,0,9,test,1,1,z,Tue Nov 12 2024 10:40:27 GMT-0600 (Central Standard Time),416148.0,O,z,1107,11,1,83.bmp,-120,-120,84.bmp,120,-120,85.bmp,-120,120,86.bmp,120,120,9150.299999952316,406997.7000000477,7032,yes,SM,C,85.bmp,-120,120,291934,285901,293950,287919,410028.0,404010.0,412045.0,406013.0,11
2,0,1,0,0,10,test,1,1,m,Tue Nov 12 2024 10:40:27 GMT-0600 (Central Standard Time),426011.5,O,m,1808,12,1,91.bmp,-120,-120,92.bmp,120,-120,93.bmp,-120,120,94.bmp,120,120,9850.600000143051,416160.89999985695,7032,yes,SM,C,91.bmp,120,-120,291934,285901,293950,287919,419192.0,413174.0,421208.0,415177.0,12
3,0,0,1,0,10,test,1,0,m,Tue Nov 12 2024 10:40:27 GMT-0600 (Central Standard Time),436075.0,O,None,2015,13,1,95.bmp,-120,-120,96.bmp,120,-120,97.bmp,-120,120,98.bmp,120,120,10049.700000047684,426025.2999999523,7032,yes,SM,C,96.bmp,-120,120,291934,285901,293950,287919,429055.0,423038.0,431072.0,425040.0,13
1,1,0,0,0,11,test,1,1,z,Tue Nov 12 2024 10:40:27 GMT-0600 (Central Standard Time),445155.2000000477,O,z,1025,14,1,99.bmp,-120,-120,100.bmp,120,-120,54.bmp,-120,120,51.bmp,120,120,9066.400000095367,436088.7999999523,7032,yes,SM,C,99.bmp,-120,-120,291934,285901,293950,287919,439119.0,433102.0,441135.0,435104.0,14
4,0,0,0,1,12,test,1,1,m,Tue Nov 12 2024 10:40:27 GMT-0600 (Central Standard Time),454619.2000000477,O,m,1400,15,1,60.bmp,-120,-120,61.bmp,120,-120,62.bmp,-120,120,63.bmp,120,120,9450.200000047684,445169.0,7032,yes,SM,C,61.bmp,120,120,291934,285901,293950,287919,448199.0,442182.0,450215.0,444184.0,15
1,1,0,0,0,13,test,1,1,m,Tue Nov 12 2024 10:40:27 GMT-0600 (Central Standard Time),463932.2999999523,O,m,1249,16,1,52.bmp,-120,-120,53.bmp,120,-120,54.bmp,-120,120,55.bmp,120,120,9299.299999952316,454633.0,7032,yes,SM,C,55.bmp,-120,-120,291934,285901,293950,287919,457663.0,451646.0,459679.0,453648.0,16
3,0,0,1,0,14,test,1,1,m,Tue Nov 12 2024 10:40:27 GMT-0600 (Central Standard Time),473429.2999999523,O,m,1439,17,1,72.bmp,-120,-120,73.bmp,120,-120,74.bmp,-120,120,75.bmp,120,120,9483.5,463945.7999999523,7032,yes,SM,C,72.bmp,-120,120,291934,285901,293950,287919,466976.0,460958.0,468993.0,462961.0,17
1,1,0,0,0,15,test,1,1,z,Tue Nov 12 2024 10:40:27 GMT-0600 (Central Standard Time),482859.5,O,z,1374,18,1,56.bmp,-120,-120,57.bmp,120,-120,58.bmp,-120,120,59.bmp,120,120,9417.200000047684,473442.2999999523,7032,yes,SM,C,56.bmp,-120,-120,291934,285901,293950,287919,476473.0,470455.0,478490.0,472458.0,18
2,0,1,0,0,16,test,1,1,z,Tue Nov 12 2024 10:40:27 GMT-0600 (Central Standard Time),492756.2000000477,O,z,1807,19,1,76.bmp,-120,-120,77.bmp,120,-120,78.bmp,-120,120,79.bmp,120,120,9864.700000047684,482891.5,7032,yes,SM,C,77.bmp,120,-120,291934,285901,293950,287919,485936.0,479904.0,487953.0,481920.0,19
3,0,0,1,0,17,test,1,1,z,Tue Nov 12 2024 10:40:27 GMT-0600 (Central Standard Time),502019.7000000477,O,z,1208,20,1,80.bmp,-120,-120,81.bmp,120,-120,82.bmp,-120,120,83.bmp,120,120,9249.300000190735,492770.39999985695,7032,yes,SM,C,82.bmp,-120,120,291934,285901,293950,287919,495800.0,489783.0,497816.0,491785.0,20
1,1,0,0,0,18,test,1,1,m,Tue Nov 12 2024 10:40:27 GMT-0600 (Central Standard Time),511883.39999985695,O,m,1800,21,1,64.bmp,-120,-120,65.bmp,120,-120,66.bmp,-120,120,67.bmp,120,120,9851.0,502032.39999985695,7032,yes,SM,C,66.bmp,-120,-120,291934,285901,293950,287919,505063.0,499045.0,507080.0,501049.0,21
4,0,0,0,1,18,test,1,0,z,Tue Nov 12 2024 10:40:27 GMT-0600 (Central Standard Time),521846.59999990463,O,m,1904,22,1,68.bmp,-120,-120,69.bmp,120,-120,70.bmp,-120,120,71.bmp,120,120,9950.399999856949,511896.2000000477,7032,yes,SM,C,71.bmp,120,120,291934,285901,293950,287919,514927.0,508909.0,516944.0,510912.0,22
1,1,0,0,0,18,test,1,0,m,Tue Nov 12 2024 10:40:27 GMT-0600 (Central Standard Time),531910.0999999046,O,None,2015,23,1,84.bmp,-120,-120,85.bmp,120,-120,86.bmp,-120,120,87.bmp,120,120,10051.099999904633,521859.0,7032,yes,SM,C,87.bmp,-120,-120,291934,285901,293950,287919,524890.0,518872.0,526907.0,520876.0,23
2,0,1,0,0,19,test,1,1,z,Tue Nov 12 2024 10:40:27 GMT-0600 (Central Standard Time),541356.7999999523,O,z,1390,24,1,92.bmp,-120,-120,93.bmp,120,-120,94.bmp,-120,120,95.bmp,120,120,9432.299999952316,531924.5,7032,yes,SM,C,93.bmp,120,-120,291934,285901,293950,287919,534954.0,528937.0,536970.0,530939.0,24
4,0,0,0,1,20,test,1,1,m,Tue Nov 12 2024 10:40:27 GMT-0600 (Central Standard Time),550870.5,O,m,1455,25,1,96.bmp,-120,-120,97.bmp,120,-120,98.bmp,-120,120,99.bmp,120,120,9499.900000095367,541370.5999999046,7032,yes,SM,C,98.bmp,120,120,291934,285901,293950,287919,544401.0,538383.0,546417.0,540386.0,25
1,1,0,0,0,21,test,1,1,z,Tue Nov 12 2024 10:40:27 GMT-0600 (Central Standard Time),560350.399999857,O,z,1429,26,1,88.bmp,-120,-120,89.bmp,120,-120,90.bmp,-120,120,91.bmp,120,120,9466.899999856949,550883.5,7032,yes,SM,C,88.bmp,-120,-120,291934,285901,293950,287919,553914.0,547896.0,555931.0,549898.0,26
4,0,0,0,1,21,test,1,0,z,Tue Nov 12 2024 10:40:27 GMT-0600 (Central Standard Time),570397.2999999523,O,m,1997,27,1,100.bmp,-120,-120,61.bmp,120,-120,51.bmp,-120,120,52.bmp,120,120,10034.200000047684,560363.0999999046,7032,yes,SM,C,52.bmp,120,120,291934,285901,293950,287919,563394.0,557376.0,565411.0,559378.0,27
3,0,0,1,0,22,test,1,1,m,Tue Nov 12 2024 10:40:27 GMT-0600 (Central Standard Time),580394.0,O,m,1933,28,1,53.bmp,-120,-120,54.bmp,120,-120,55.bmp,-120,120,56.bmp,120,120,9984.100000143051,570409.899999857,7032,yes,SM,C,53.bmp,-120,120,291934,285901,293950,287919,573441.0,567423.0,575458.0,569426.0,28
2,0,1,0,0,23,test,1,1,z,Tue Nov 12 2024 10:40:27 GMT-0600 (Central Standard Time),589524.5,O,z,1074,29,1,57.bmp,-120,-120,58.bmp,120,-120,59.bmp,-120,120,60.bmp,120,120,9117.799999952316,580406.7000000477,7032,yes,SM,C,58.bmp,120,-120,291934,285901,293950,287919,583438.0,577419.0,585454.0,579423.0,29
3,0,0,1,0,24,test,1,1,z,Tue Nov 12 2024 10:40:27 GMT-0600 (Central Standard Time),598704.7000000477,O,z,1127,30,1,61.bmp,-120,-120,62.bmp,120,-120,63.bmp,-120,120,64.bmp,120,120,9167.100000143051,589537.5999999046,7032,yes,SM,C,63.bmp,-120,120,291934,285901,293950,287919,592568.0,586550.0,594585.0,588553.0,30
1,1,0,0,0,24,test,1,0,z,Tue Nov 12 2024 10:40:27 GMT-0600 (Central Standard Time),608251.5999999046,O,m,1491,31,1,65.bmp,-120,-120,66.bmp,120,-120,67.bmp,-120,120,68.bmp,120,120,9532.799999952316,598718.7999999523,7032,yes,SM,C,65.bmp,-120,-120,291934,285901,293950,287919,601749.0,595732.0,603765.0,597734.0,31
2,0,1,0,0,25,test,1,1,m,Tue Nov 12 2024 10:40:27 GMT-0600 (Central Standard Time),617748.5999999046,O,m,1423,32,1,69.bmp,-120,-120,70.bmp,120,-120,71.bmp,-120,120,72.bmp,120,120,9482.0,608266.5999999046,7032,yes,SM,C,69.bmp,120,-120,291934,285901,293950,287919,611312.0,605279.0,613329.0,607297.0,32
4,0,0,0,1,26,test,1,1,z,Tue Nov 12 2024 10:40:27 GMT-0600 (Central Standard Time),627212.7000000477,O,z,1383,33,1,81.bmp,-120,-120,82.bmp,120,-120,83.bmp,-120,120,84.bmp,120,120,9449.5,617763.2000000477,7032,yes,SM,C,84.bmp,120,120,291934,285901,293950,287919,620809.0,614776.0,622825.0,616794.0,33
2,0,1,0,0,27,test,1,1,z,Tue Nov 12 2024 10:40:27 GMT-0600 (Central Standard Time),636459.0,O,z,1192,34,1,73.bmp,-120,-120,74.bmp,120,-120,75.bmp,-120,120,76.bmp,120,120,9234.100000143051,627224.899999857,7032,yes,SM,C,74.bmp,120,-120,291934,285901,293950,287919,630256.0,624238.0,632272.0,626241.0,34
4,0,0,0,1,28,test,1,1,m,Tue Nov 12 2024 10:40:27 GMT-0600 (Central Standard Time),646305.7000000477,O,m,1785,35,1,77.bmp,-120,-120,78.bmp,120,-120,79.bmp,-120,120,80.bmp,120,120,9833.300000190735,636472.399999857,7032,yes,SM,C,79.bmp,120,120,291934,285901,293950,287919,639503.0,633485.0,641519.0,635488.0,35
3,0,0,1,0,28,test,1,0,m,Tue Nov 12 2024 10:40:27 GMT-0600 (Central Standard Time),656002.5999999046,O,z,1642,36,1,85.bmp,-120,-120,86.bmp,120,-120,87.bmp,-120,120,88.bmp,120,120,9683.399999856949,646319.2000000477,7032,yes,SM,C,85.bmp,-120,120,291934,285901,293950,287919,649349.0,643332.0,651366.0,645334.0,36
1,1,0,0,0,29,test,1,1,m,Tue Nov 12 2024 10:40:27 GMT-0600 (Central Standard Time),665166.0999999046,O,m,1114,37,1,89.bmp,-120,-120,90.bmp,120,-120,91.bmp,-120,120,92.bmp,120,120,9151.099999904633,656015.0,7032,yes,SM,C,90.bmp,-120,-120,291934,285901,293950,287919,659046.0,653028.0,661062.0,655031.0,37
2,0,1,0,0,29,test,1,0,m,Tue Nov 12 2024 10:40:27 GMT-0600 (Central Standard Time),675229.5999999046,O,None,2016,38,1,93.bmp,-120,-120,94.bmp,120,-120,95.bmp,-120,120,96.bmp,120,120,10051.200000047684,665178.399999857,7032,yes,SM,C,95.bmp,120,-120,291934,285901,293950,287919,668210.0,662191.0,670225.0,664195.0,38
4,0,0,0,1,30,test,1,1,z,Tue Nov 12 2024 10:40:27 GMT-0600 (Central Standard Time),684692.7999999523,O,z,1414,39,1,97.bmp,-120,-120,98.bmp,120,-120,99.bmp,-120,120,100.bmp,120,120,9449.599999904633,675243.2000000477,7032,yes,SM,C,100.bmp,120,120,291934,285901,293950,287919,678273.0,672256.0,680290.0,674258.0,39
3,0,0,1,0,30,test,1,0,m,Tue Nov 12 2024 10:40:27 GMT-0600 (Central Standard Time),694756.5999999046,O,None,2015,40,1,54.bmp,-120,-120,55.bmp,120,-120,56.bmp,-120,120,57.bmp,120,120,10051.799999952316,684704.7999999523,7032,yes,SM,C,55.bmp,-120,120,291934,285901,293950,287919,687737.0,681718.0,689753.0,683722.0,40
1,1,0,0,0,31,test,1,1,z,Tue Nov 12 2024 10:40:27 GMT-0600 (Central Standard Time),703953.399999857,O,z,1143,41,1,58.bmp,-120,-120,59.bmp,120,-120,60.bmp,-120,120,61.bmp,120,120,9184.5,694768.899999857,7032,yes,SM,C,58.bmp,-120,-120,291934,285901,293950,287919,697800.0,691781.0,699817.0,693786.0,41
4,0,0,0,1,32,test,1,1,z,Tue Nov 12 2024 10:40:27 GMT-0600 (Central Standard Time),713533.2000000477,O,z,1530,42,1,62.bmp,-120,-120,63.bmp,120,-120,64.bmp,-120,120,65.bmp,120,120,9566.900000095367,703966.2999999523,7032,yes,SM,C,65.bmp,120,120,291934,285901,293950,287919,706997.0,700979.0,709014.0,702982.0,42
1,1,0,0,0,33,test,1,1,z,Tue Nov 12 2024 10:40:27 GMT-0600 (Central Standard Time),722613.7000000477,O,z,1030,43,1,66.bmp,-120,-120,67.bmp,120,-120,68.bmp,-120,120,69.bmp,120,120,9068.100000143051,713545.5999999046,7032,yes,SM,C,66.bmp,-120,-120,291934,285901,293950,287919,716577.0,710558.0,718593.0,712561.0,43
4,0,0,0,1,33,test,1,0,m,Tue Nov 12 2024 10:40:27 GMT-0600 (Central Standard Time),732677.2999999523,O,None,2015,44,1,54.bmp,-120,-120,51.bmp,120,-120,52.bmp,-120,120,53.bmp,120,120,10049.700000047684,722627.5999999046,7032,yes,SM,C,54.bmp,120,120,291934,285901,293950,287919,725657.0,719640.0,727674.0,721643.0,44
1,1,0,0,0,34,test,1,1,m,Tue Nov 12 2024 10:40:27 GMT-0600 (Central Standard Time),742723.899999857,O,m,1982,45,1,78.bmp,-120,-120,79.bmp,120,-120,80.bmp,-120,120,81.bmp,120,120,10033.599999904633,732690.2999999523,7032,yes,SM,C,81.bmp,-120,-120,291934,285901,293950,287919,735721.0,729703.0,737738.0,731706.0,45
1,1,0,0,0,35,test,1,1,m,Tue Nov 12 2024 10:40:27 GMT-0600 (Central Standard Time),752454.2000000477,O,m,1655,46,1,70.bmp,-120,-120,71.bmp,120,-120,72.bmp,-120,120,73.bmp,120,120,9715.400000095367,742738.7999999523,7032,yes,SM,C,71.bmp,-120,-120,291934,285901,293950,287919,745784.0,739752.0,747801.0,741769.0,46
3,0,0,1,0,36,test,1,1,z,Tue Nov 12 2024 10:40:27 GMT-0600 (Central Standard Time),762034.2999999523,O,z,1517,47,1,74.bmp,-120,-120,75.bmp,120,-120,76.bmp,-120,120,77.bmp,120,120,9567.900000095367,752466.399999857,7032,yes,SM,C,76.bmp,-120,120,291934,285901,293950,287919,755498.0,749479.0,757514.0,751483.0,47
3,0,0,1,0,37,test,1,1,z,Tue Nov 12 2024 10:40:27 GMT-0600 (Central Standard Time),771881.0999999046,O,z,1793,48,1,90.bmp,-120,-120,91.bmp,120,-120,92.bmp,-120,120,93.bmp,120,120,9834.5,762046.5999999046,7032,yes,SM,C,92.bmp,-120,120,291934,285901,293950,287919,765078.0,759059.0,767095.0,761063.0,48
2,0,1,0,0,37,test,1,0,z,Tue Nov 12 2024 10:40:27 GMT-0600 (Central Standard Time),781944.5,O,None,2015,49,1,86.bmp,-120,-120,87.bmp,120,-120,88.bmp,-120,120,89.bmp,120,120,10050.900000095367,771893.5999999046,7032,yes,SM,C,87.bmp,120,-120,291934,285901,293950,287919,774924.0,768906.0,776941.0,770910.0,49
3,0,0,1,0,38,test,1,1,m,Tue Nov 12 2024 10:40:27 GMT-0600 (Central Standard Time),791491.399999857,O,m,1491,50,1,82.bmp,-120,-120,83.bmp,120,-120,84.bmp,-120,120,85.bmp,120,120,9535.199999809265,781956.2000000477,7032,yes,SM,C,82.bmp,-120,120,291934,285901,293950,287919,784988.0,778969.0,787005.0,780973.0,50
2,0,1,0,0,39,test,1,1,z,Tue Nov 12 2024 10:40:27 GMT-0600 (Central Standard Time),801004.7999999523,O,z,1457,51,1,94.bmp,-120,-120,95.bmp,120,-120,96.bmp,-120,120,97.bmp,120,120,9501.0,791503.7999999523,7032,yes,SM,C,95.bmp,120,-120,291934,285901,293950,287919,794535.0,788516.0,796551.0,790520.0,51
4,0,0,0,1,40,test,1,1,m,Tue Nov 12 2024 10:40:27 GMT-0600 (Central Standard Time),810418.399999857,O,m,1359,52,1,98.bmp,-120,-120,99.bmp,120,-120,100.bmp,-120,120,81.bmp,120,120,9400.199999809265,801018.2000000477,7032,yes,SM,C,98.bmp,120,120,291934,285901,293950,287919,804049.0,798031.0,806065.0,800034.0,52
3,0,0,1,0,41,test,1,1,z,Tue Nov 12 2024 10:40:27 GMT-0600 (Central Standard Time),819732.5999999046,O,z,1266,53,1,51.bmp,-120,-120,52.bmp,120,-120,53.bmp,-120,120,54.bmp,120,120,9301.399999856949,810431.2000000477,7032,yes,SM,C,53.bmp,-120,120,291934,285901,293950,287919,813462.0,807444.0,815478.0,809447.0,53
1,1,0,0,0,42,test,1,1,m,Tue Nov 12 2024 10:40:27 GMT-0600 (Central Standard Time),829262.2000000477,O,m,1480,54,1,55.bmp,-120,-120,56.bmp,120,-120,57.bmp,-120,120,58.bmp,120,120,9517.900000095367,819744.2999999523,7032,yes,SM,C,57.bmp,-120,-120,291934,285901,293950,287919,822775.0,816757.0,824792.0,818761.0,54
4,0,0,0,1,43,test,1,1,z,Tue Nov 12 2024 10:40:27 GMT-0600 (Central Standard Time),838925.5,O,z,1614,55,1,59.bmp,-120,-120,60.bmp,120,-120,61.bmp,-120,120,62.bmp,120,120,9651.299999952316,829274.2000000477,7032,yes,SM,C,62.bmp,120,120,291934,285901,293950,287919,832306.0,826287.0,834322.0,828290.0,55
2,0,1,0,0,43,test,1,0,m,Tue Nov 12 2024 10:40:27 GMT-0600 (Central Standard Time),848972.399999857,O,z,1991,56,1,63.bmp,-120,-120,64.bmp,120,-120,65.bmp,-120,120,66.bmp,120,120,10034.699999809265,838937.7000000477,7032,yes,SM,C,63.bmp,120,-120,291934,285901,293950,287919,841969.0,835950.0,843985.0,837954.0,56
4,0,0,0,1,43,test,1,0,m,Tue Nov 12 2024 10:40:27 GMT-0600 (Central Standard Time),859035.7000000477,O,None,2015,57,1,67.bmp,-120,-120,68.bmp,120,-120,69.bmp,-120,120,70.bmp,120,120,10051.100000143051,848984.5999999046,7032,yes,SM,C,68.bmp,120,120,291934,285901,293950,287919,852016.0,845997.0,854032.0,848001.0,57
3,0,0,1,0,44,test,1,1,z,Tue Nov 12 2024 10:40:27 GMT-0600 (Central Standard Time),868049.0999999046,O,z,959,58,1,71.bmp,-120,-120,72.bmp,120,-120,73.bmp,-120,120,74.bmp,120,120,9001.399999856949,859047.7000000477,7032,yes,SM,C,73.bmp,-120,120,291934,285901,293950,287919,862080.0,856060.0,864096.0,858065.0,58
2,0,1,0,0,45,test,1,1,m,Tue Nov 12 2024 10:40:27 GMT-0600 (Central Standard Time),877696.2000000477,O,m,1586,59,1,75.bmp,-120,-120,76.bmp,120,-120,77.bmp,-120,120,78.bmp,120,120,9638.800000190735,868057.399999857,7032,yes,SM,C,78.bmp,120,-120,291934,285901,293950,287919,871093.0,865070.0,873109.0,867078.0,59
1,1,0,0,0,46,test,1,1,z,Tue Nov 12 2024 10:40:27 GMT-0600 (Central Standard Time),886743.2999999523,O,z,995,60,1,79.bmp,-120,-120,80.bmp,120,-120,81.bmp,-120,120,82.bmp,120,120,9035.400000095367,877707.899999857,7032,yes,SM,C,79.bmp,-120,-120,291934,285901,293950,287919,880740.0,874721.0,882757.0,876725.0,60
2,0,1,0,0,47,test,1,1,z,Tue Nov 12 2024 10:40:27 GMT-0600 (Central Standard Time),895807.0999999046,O,z,1005,61,1,83.bmp,-120,-120,84.bmp,120,-120,85.bmp,-120,120,86.bmp,120,120,9052.099999904633,886755.0,7032,yes,SM,C,84.bmp,120,-120,291934,285901,293950,287919,889787.0,883768.0,891803.0,885772.0,61
4,0,0,0,1,48,test,1,1,z,Tue Nov 12 2024 10:40:27 GMT-0600 (Central Standard Time),904903.0999999046,O,z,1043,62,1,91.bmp,-120,-120,92.bmp,120,-120,93.bmp,-120,120,94.bmp,120,120,9082.5,895820.5999999046,7032,yes,SM,C,94.bmp,120,120,291934,285901,293950,287919,898851.0,892833.0,900867.0,894836.0,62
1,1,0,0,0,49,test,1,1,m,Tue Nov 12 2024 10:40:27 GMT-0600 (Central Standard Time),914567.5,O,m,1612,63,1,95.bmp,-120,-120,96.bmp,120,-120,97.bmp,-120,120,98.bmp,120,120,9660.900000095367,904906.5999999046,7032,yes,SM,C,95.bmp,-120,120,291934,285901,293950,287919,907948.0,901919.0,909964.0,903933.0,63
2,0,1,0,0,50,test,1,1,z,Tue Nov 12 2024 10:40:27 GMT-0600 (Central Standard Time),923814.399999857,O,z,1188,64,1,99.bmp,-120,-120,100.bmp,120,-120,62.bmp,-120,120,51.bmp,120,120,9235.0,914579.399999857,7032,yes,SM,C,100.bmp,120,-120,291934,285901,293950,287919,917611.0,911592.0,919627.0,913596.0,64
4,0,0,0,1,51,test,1,1,m,Tue Nov 12 2024 10:40:27 GMT-0600 (Central Standard Time),933394.7000000477,O,m,1525,65,1,52.bmp,-120,-120,53.bmp,120,-120,54.bmp,-120,120,55.bmp,120,120,9568.0,923826.7000000477,7032,yes,SM,C,54.bmp,120,120,291934,285901,293950,287919,926858.0,920839.0,928875.0,922843.0,65
3,0,0,1,0,52,test,1,1,m,Tue Nov 12 2024 10:40:27 GMT-0600 (Central Standard Time),942941.5,O,m,1473,66,1,56.bmp,-120,-120,57.bmp,120,-120,58.bmp,-120,120,59.bmp,120,120,9531.799999952316,933409.7000000477,7032,yes,SM,C,59.bmp,-120,120,291934,285901,293950,287919,936455.0,930423.0,938471.0,932440.0,66
2,0,1,0,0,53,test,1,1,m,Tue Nov 12 2024 10:40:27 GMT-0600 (Central Standard Time),952288.399999857,O,m,1253,67,1,87.bmp,-120,-120,88.bmp,120,-120,89.bmp,-120,120,90.bmp,120,120,9309.5,942978.899999857,7032,yes,SM,C,89.bmp,120,-120,291934,285901,293950,287919,946018.0,939991.0,948035.0,942003.0,67
3,0,0,1,0,54,test,1,1,z,Tue Nov 12 2024 10:40:27 GMT-0600 (Central Standard Time),961635.2999999523,O,z,1275,68,1,60.bmp,-120,-120,61.bmp,120,-120,62.bmp,-120,120,63.bmp,120,120,9331.400000095367,952303.899999857,7032,yes,SM,C,62.bmp,-120,120,291934,285901,293950,287919,955349.0,949317.0,957365.0,951334.0,68
1,1,0,0,0,55,test,1,1,m,Tue Nov 12 2024 10:40:27 GMT-0600 (Central Standard Time),971298.899999857,O,m,1601,69,1,64.bmp,-120,-120,65.bmp,120,-120,66.bmp,-120,120,67.bmp,120,120,9651.5,961647.399999857,7032,yes,SM,C,65.bmp,-120,-120,291934,285901,293950,287919,964679.0,958660.0,966695.0,960664.0,69
2,0,1,0,0,56,test,1,1,m,Tue Nov 12 2024 10:40:27 GMT-0600 (Central Standard Time),980612.399999857,O,m,1257,70,1,68.bmp,-120,-120,69.bmp,120,-120,70.bmp,-120,120,71.bmp,120,120,9301.199999809265,971311.2000000477,7032,yes,SM,C,70.bmp,120,-120,291934,285901,293950,287919,974342.0,968324.0,976359.0,970327.0,70
4,0,0,0,1,57,test,1,1,z,Tue Nov 12 2024 10:40:27 GMT-0600 (Central Standard Time),989692.899999857,O,z,1032,71,1,72.bmp,-120,-120,73.bmp,120,-120,74.bmp,-120,120,75.bmp,120,120,9068.299999952316,980624.5999999046,7032,yes,SM,C,75.bmp,120,120,291934,285901,293950,287919,983656.0,977637.0,985672.0,979640.0,71
1,1,0,0,0,58,test,1,1,z,Tue Nov 12 2024 10:40:27 GMT-0600 (Central Standard Time),998656.5999999046,O,z,903,72,1,76.bmp,-120,-120,77.bmp,120,-120,78.bmp,-120,120,79.bmp,120,120,8951.0,989705.5999999046,7032,yes,SM,C,76.bmp,-120,-120,291934,285901,293950,287919,992735.0,986718.0,994753.0,988721.0,72
2,0,1,0,0,59,test,1,1,z,Tue Nov 12 2024 10:40:27 GMT-0600 (Central Standard Time),1007920.0999999046,O,z,1204,73,1,80.bmp,-120,-120,81.bmp,120,-120,82.bmp,-120,120,83.bmp,120,120,9251.5,998668.5999999046,7032,yes,SM,C,81.bmp,120,-120,291934,285901,293950,287919,1001700.0,995681.0,1003716.0,997685.0,73
4,0,0,0,1,60,test,1,1,m,Tue Nov 12 2024 10:40:27 GMT-0600 (Central Standard Time),1017249.5,O,m,1274,74,1,84.bmp,-120,-120,85.bmp,120,-120,86.bmp,-120,120,87.bmp,120,120,9317.100000143051,1007932.399999857,7032,yes,SM,C,86.bmp,120,120,291934,285901,293950,287919,1010964.0,1004945.0,1012980.0,1006949.0,74
2,0,1,0,0,61,test,1,1,m,Tue Nov 12 2024 10:40:27 GMT-0600 (Central Standard Time),1026863.899999857,O,m,1561,75,1,88.bmp,-120,-120,89.bmp,120,-120,90.bmp,-120,120,91.bmp,120,120,9610.699999809265,1017253.2000000477,7032,yes,SM,C,91.bmp,120,-120,291934,285901,293950,287919,1020294.0,1014265.0,1022311.0,1016279.0,75
1,1,0,0,0,62,test,1,1,z,Tue Nov 12 2024 10:40:27 GMT-0600 (Central Standard Time),1035944.5999999046,O,z,1020,76,1,92.bmp,-120,-120,93.bmp,120,-120,94.bmp,-120,120,95.bmp,120,120,9068.799999952316,1026875.7999999523,7032,yes,SM,C,92.bmp,-120,-120,291934,285901,293950,287919,1029907.0,1023888.0,1031924.0,1025893.0,76
3,0,0,1,0,63,test,1,1,z,Tue Nov 12 2024 10:40:27 GMT-0600 (Central Standard Time),1045074.5,O,z,1076,77,1,100.bmp,-120,-120,61.bmp,120,-120,51.bmp,-120,120,52.bmp,120,120,9116.100000143051,1035958.399999857,7032,yes,SM,C,51.bmp,-120,120,291934,285901,293950,287919,1038988.0,1032971.0,1041004.0,1034972.0,77
1,1,0,0,0,64,test,1,1,m,Tue Nov 12 2024 10:40:27 GMT-0600 (Central Standard Time),1054387.399999857,O,m,1264,78,1,96.bmp,-120,-120,97.bmp,120,-120,98.bmp,-120,120,99.bmp,120,120,9299.699999809265,1045087.7000000477,7032,yes,SM,C,97.bmp,-120,-120,291934,285901,293950,287919,1048118.0,1042100.0,1050135.0,1044103.0,78
4,0,0,0,1,64,test,1,0,m,Tue Nov 12 2024 10:40:27 GMT-0600 (Central Standard Time),1064135.0,O,z,1683,79,1,57.bmp,-120,-120,58.bmp,120,-120,59.bmp,-120,120,60.bmp,120,120,9744.0,1054391.0,7032,yes,SM,C,57.bmp,120,120,291934,285901,293950,287919,1057432.0,1051403.0,1059453.0,1053417.0,79
3,0,0,1,0,64,test,1,0,m,Tue Nov 12 2024 10:40:27 GMT-0600 (Central Standard Time),1073848.5,O,z,1660,80,1,53.bmp,-120,-120,54.bmp,120,-120,55.bmp,-120,120,56.bmp,120,120,9701.700000047684,1064146.7999999523,7032,yes,SM,C,56.bmp,-120,120,291934,285901,293950,287919,1067179.0,1061159.0,1069196.0,1063163.0,80
