acc_sum,block,block_c,block_cond,con_img,correct,correct_response,datetime,endtime,face,jitter,line,project,response,response_time,row_sel,session_number,start_end,starttime,subject_id,task,task_vers,trial
0,prac,1,A,haborder.png,0,z,Fri May 02 2025 11:26:57 GMT-0400 (Eastern Daylight Time),55299.0,CFD-BF-031-020-A.jpg,1000,solid,I,None,1515,4,3,3316.5,51982.5,9002,ATS,C,1
0,prac,1,A,haborder.png,0,m,Fri May 02 2025 11:26:57 GMT-0400 (Eastern Daylight Time),59015.699999809265,CFD-WM-028-005-HC.jpg,1400,solid,I,None,1515,7,3,7033.199999809265,51982.5,9002,ATS,C,2
1,prac,1,A,haborder.png,1,z,Fri May 02 2025 11:26:57 GMT-0400 (Eastern Daylight Time),62265.599999427795,CFD-BF-002-018-A.jpg,1200,solid,I,z,1249,6,3,10283.099999427795,51982.5,9002,ATS,C,3
2,prac,1,A,haborder.png,1,m,Fri May 02 2025 11:26:57 GMT-0400 (Eastern Daylight Time),66348.89999961853,CFD-BF-019-004-HC.jpg,2000,solid,I,m,1279,5,3,14366.39999961853,51982.5,9002,ATS,C,4
3,prac,1,A,haborder.png,1,z,Fri May 02 2025 11:26:57 GMT-0400 (Eastern Daylight Time),69782.5,CFD-BM-043-014-A.jpg,1600,solid,I,z,1019,2,3,17800.0,51982.5,9002,ATS,C,5
4,prac,1,A,haborder.png,1,m,Fri May 02 2025 11:26:57 GMT-0400 (Eastern Daylight Time),73032.30000019073,CFD-WM-035-036-HC.jpg,1700,solid,I,m,735,9,3,21049.800000190735,51982.5,9002,ATS,C,6
5,prac,1,A,haborder.png,1,z,Fri May 02 2025 11:26:57 GMT-0400 (Eastern Daylight Time),76682.30000019073,CFD-WM-036-018-A.jpg,1900,solid,I,z,948,8,3,24699.800000190735,51982.5,9002,ATS,C,7
6,prac,1,A,haborder.png,1,m,Fri May 02 2025 11:26:57 GMT-0400 (Eastern Daylight Time),80132.80000019073,CFD-BM-034-035-HC.jpg,1700,solid,I,m,954,1,3,28150.300000190735,51982.5,9002,ATS,C,8
7,prac,1,A,haborder.png,1,z,Fri May 02 2025 11:26:57 GMT-0400 (Eastern Daylight Time),83482.30000019073,CFD-WF-037-016-A.jpg,1600,solid,I,z,965,10,3,31499.800000190735,51982.5,9002,ATS,C,9
8,prac,1,A,haborder.png,1,m,Fri May 02 2025 11:26:57 GMT-0400 (Eastern Daylight Time),86582.19999980927,CFD-BM-022-004-HC.jpg,1500,solid,I,m,786,3,3,34599.699999809265,51982.5,9002,ATS,C,10
9,prac,1,A,haborder.png,1,z,Fri May 02 2025 11:26:57 GMT-0400 (Eastern Daylight Time),89365.69999980927,CFD-WF-023-013-A.jpg,1000,solid,I,z,970,12,3,37383.199999809265,51982.5,9002,ATS,C,11
10,prac,1,A,haborder.png,1,m,Fri May 02 2025 11:26:57 GMT-0400 (Eastern Daylight Time),92632.5,CFD-WF-013-009-HC.jpg,1500,solid,I,m,950,11,3,40650.0,51982.5,9002,ATS,C,12
1,prac,1,B,mfborder.png,1,z,Fri May 02 2025 11:26:57 GMT-0400 (Eastern Daylight Time),117465.5999994278,CFD-WF-037-016-A.jpg,1500,11,I,z,899,dash,3,3216.5,114249.0999994278,9002,ATS,C,1
2,prac,1,B,mfborder.png,1,m,Fri May 02 2025 11:26:57 GMT-0400 (Eastern Daylight Time),120582.30000019073,CFD-BM-021-026-A.jpg,1600,2,I,m,703,dash,3,6333.200000762939,114249.0999994278,9002,ATS,C,2
3,prac,1,B,mfborder.png,1,m,Fri May 02 2025 11:26:57 GMT-0400 (Eastern Daylight Time),123999.0,CFD-WM-036-018-A.jpg,1700,9,I,m,909,dash,3,9749.900000572205,114249.0999994278,9002,ATS,C,3
4,prac,1,B,mfborder.png,1,z,Fri May 02 2025 11:26:57 GMT-0400 (Eastern Daylight Time),127265.5,CFD-BF-042-031-HC.jpg,1500,3,I,z,957,dash,3,13016.400000572205,114249.0999994278,9002,ATS,C,4
5,prac,1,B,mfborder.png,1,z,Fri May 02 2025 11:26:57 GMT-0400 (Eastern Daylight Time),129965.39999961853,CFD-BF-031-020-A.jpg,1000,4,I,z,894,dash,3,15716.300000190735,114249.0999994278,9002,ATS,C,5
6,prac,1,B,mfborder.png,1,z,Fri May 02 2025 11:26:57 GMT-0400 (Eastern Daylight Time),133148.89999961853,CFD-WF-013-009-HC.jpg,1000,12,I,z,1396,dash,3,18899.800000190735,114249.0999994278,9002,ATS,C,6
7,prac,1,B,mfborder.png,1,z,Fri May 02 2025 11:26:57 GMT-0400 (Eastern Daylight Time),136298.89999961853,CFD-BF-019-004-HC.jpg,1400,7,I,z,946,dash,3,22049.800000190735,114249.0999994278,9002,ATS,C,7
8,prac,1,B,mfborder.png,1,m,Fri May 02 2025 11:26:57 GMT-0400 (Eastern Daylight Time),139015.5,CFD-WM-034-040-A.jpg,1200,6,I,m,700,dash,3,24766.400000572205,114249.0999994278,9002,ATS,C,8
9,prac,1,B,mfborder.png,1,m,Fri May 02 2025 11:26:57 GMT-0400 (Eastern Daylight Time),142699.0999994278,CFD-BM-043-014-A.jpg,2000,5,I,m,881,dash,3,28450.0,114249.0999994278,9002,ATS,C,9
10,prac,1,B,mfborder.png,1,m,Fri May 02 2025 11:26:57 GMT-0400 (Eastern Daylight Time),145948.89999961853,CFD-WM-035-036-HC.jpg,1600,10,I,m,845,dash,3,31699.800000190735,114249.0999994278,9002,ATS,C,10
11,prac,1,B,mfborder.png,1,z,Fri May 02 2025 11:26:57 GMT-0400 (Eastern Daylight Time),149532.0999994278,CFD-WF-001-010-HC.jpg,1900,8,I,z,879,dash,3,35283.0,114249.0999994278,9002,ATS,C,11
12,prac,1,B,mfborder.png,1,m,Fri May 02 2025 11:26:57 GMT-0400 (Eastern Daylight Time),153248.80000019073,CFD-BM-022-004-HC.jpg,1700,1,I,m,1207,dash,3,38999.70000076294,114249.0999994278,9002,ATS,C,12
1,test,1,A,haborder.png,1,m,Fri May 02 2025 11:26:57 GMT-0400 (Eastern Daylight Time),172049.0,CFD-WF-013-009-HC.jpg,1500,solid,I,m,934,11,3,2466.9000005722046,169582.0999994278,9002,ATS,C,1
2,test,1,A,haborder.png,1,z,Fri May 02 2025 11:26:57 GMT-0400 (Eastern Daylight Time),174632.30000019073,CFD-BF-002-018-A.jpg,1200,solid,I,z,1343,6,3,5050.200000762939,169582.0999994278,9002,ATS,C,2
3,test,1,A,haborder.png,1,z,Fri May 02 2025 11:26:57 GMT-0400 (Eastern Daylight Time),176648.80000019073,CFD-WF-023-013-A.jpg,1000,solid,I,z,977,12,3,7066.700000762939,169582.0999994278,9002,ATS,C,3
4,test,1,A,haborder.png,1,m,Fri May 02 2025 11:26:57 GMT-0400 (Eastern Daylight Time),179081.89999961853,CFD-BM-022-004-HC.jpg,1500,solid,I,m,899,3,3,9499.800000190735,169582.0999994278,9002,ATS,C,4
5,test,1,A,haborder.png,1,z,Fri May 02 2025 11:26:57 GMT-0400 (Eastern Daylight Time),181099.19999980927,CFD-BF-031-020-A.jpg,1000,solid,I,z,1000,4,3,11517.10000038147,169582.0999994278,9002,ATS,C,5
5,test,1,A,haborder.png,0,m,Fri May 02 2025 11:26:57 GMT-0400 (Eastern Daylight Time),184332.19999980927,CFD-WM-035-036-HC.jpg,1700,solid,I,None,1515,9,3,14750.10000038147,169582.0999994278,9002,ATS,C,6
6,test,1,A,haborder.png,1,m,Fri May 02 2025 11:26:57 GMT-0400 (Eastern Daylight Time),186482.0999994278,CFD-WM-028-005-HC.jpg,1400,solid,I,m,724,7,3,16900.0,169582.0999994278,9002,ATS,C,7
7,test,1,A,haborder.png,1,m,Fri May 02 2025 11:26:57 GMT-0400 (Eastern Daylight Time),188932.0999994278,CFD-WM-028-005-HC.jpg,1400,solid,I,m,1023,7,3,19350.0,169582.0999994278,9002,ATS,C,8
8,test,1,A,haborder.png,1,m,Fri May 02 2025 11:26:57 GMT-0400 (Eastern Daylight Time),191315.5999994278,CFD-BM-034-035-HC.jpg,1700,solid,I,m,657,1,3,21733.5,169582.0999994278,9002,ATS,C,9
9,test,1,A,haborder.png,1,z,Fri May 02 2025 11:26:57 GMT-0400 (Eastern Daylight Time),193265.30000019073,CFD-WF-023-013-A.jpg,1000,solid,I,z,924,12,3,23683.20000076294,169582.0999994278,9002,ATS,C,10
9,test,1,A,haborder.png,0,z,Fri May 02 2025 11:26:57 GMT-0400 (Eastern Daylight Time),195598.69999980927,CFD-BF-002-018-A.jpg,1200,solid,I,m,1103,6,3,26016.60000038147,169582.0999994278,9002,ATS,C,11
10,test,1,A,haborder.png,1,m,Fri May 02 2025 11:26:57 GMT-0400 (Eastern Daylight Time),198048.5999994278,CFD-BM-034-035-HC.jpg,1700,solid,I,m,726,1,3,28466.5,169582.0999994278,9002,ATS,C,12
11,test,1,A,haborder.png,1,z,Fri May 02 2025 11:26:57 GMT-0400 (Eastern Daylight Time),200898.0999994278,CFD-WM-036-018-A.jpg,1900,solid,I,z,916,8,3,31316.0,169582.0999994278,9002,ATS,C,13
12,test,1,A,haborder.png,1,z,Fri May 02 2025 11:26:57 GMT-0400 (Eastern Daylight Time),203048.39999961853,CFD-BF-031-020-A.jpg,1000,solid,I,z,1110,4,3,33466.300000190735,169582.0999994278,9002,ATS,C,14
13,test,1,A,haborder.png,1,z,Fri May 02 2025 11:26:57 GMT-0400 (Eastern Daylight Time),205565.39999961853,CFD-WF-037-016-A.jpg,1600,solid,I,z,888,10,3,35983.300000190735,169582.0999994278,9002,ATS,C,15
14,test,1,A,haborder.png,1,m,Fri May 02 2025 11:26:57 GMT-0400 (Eastern Daylight Time),208148.80000019073,CFD-WM-035-036-HC.jpg,1700,solid,I,m,847,9,3,38566.70000076294,169582.0999994278,9002,ATS,C,16
15,test,1,A,haborder.png,1,m,Fri May 02 2025 11:26:57 GMT-0400 (Eastern Daylight Time),210532.0,CFD-WF-013-009-HC.jpg,1500,solid,I,m,855,11,3,40949.900000572205,169582.0999994278,9002,ATS,C,17
16,test,1,A,haborder.png,1,z,Fri May 02 2025 11:26:57 GMT-0400 (Eastern Daylight Time),213798.80000019073,CFD-WM-036-018-A.jpg,1900,solid,I,z,1338,8,3,44216.70000076294,169582.0999994278,9002,ATS,C,18
17,test,1,A,haborder.png,1,z,Fri May 02 2025 11:26:57 GMT-0400 (Eastern Daylight Time),216798.69999980927,CFD-BM-043-014-A.jpg,1600,solid,I,z,1377,2,3,47216.60000038147,169582.0999994278,9002,ATS,C,19
18,test,1,A,haborder.png,1,m,Fri May 02 2025 11:26:57 GMT-0400 (Eastern Daylight Time),219632.0999994278,CFD-BF-019-004-HC.jpg,2000,solid,I,m,803,5,3,50050.0,169582.0999994278,9002,ATS,C,20
19,test,1,A,haborder.png,1,z,Fri May 02 2025 11:26:57 GMT-0400 (Eastern Daylight Time),222282.19999980927,CFD-WF-037-016-A.jpg,1600,solid,I,z,1016,10,3,52700.10000038147,169582.0999994278,9002,ATS,C,21
20,test,1,A,haborder.png,1,m,Fri May 02 2025 11:26:57 GMT-0400 (Eastern Daylight Time),225248.69999980927,CFD-BF-019-004-HC.jpg,2000,solid,I,m,943,5,3,55666.60000038147,169582.0999994278,9002,ATS,C,22
21,test,1,A,haborder.png,1,m,Fri May 02 2025 11:26:57 GMT-0400 (Eastern Daylight Time),227531.69999980927,CFD-BM-022-004-HC.jpg,1500,solid,I,m,756,3,3,57949.60000038147,169582.0999994278,9002,ATS,C,23
22,test,1,A,haborder.png,1,z,Fri May 02 2025 11:26:57 GMT-0400 (Eastern Daylight Time),230148.0999994278,CFD-BM-043-014-A.jpg,1600,solid,I,z,988,2,3,60566.0,169582.0999994278,9002,ATS,C,24
1,test,1,B,mfborder.png,1,z,Fri May 02 2025 11:26:57 GMT-0400 (Eastern Daylight Time),244215.39999961853,CFD-BF-042-031-HC.jpg,1500,dash,I,z,978,3,3,2516.5,241698.89999961853,9002,ATS,C,1
2,test,1,B,mfborder.png,1,m,Fri May 02 2025 11:26:57 GMT-0400 (Eastern Daylight Time),246382.0,CFD-WM-035-036-HC.jpg,1600,dash,I,m,537,10,3,4683.10000038147,241698.89999961853,9002,ATS,C,2
3,test,1,B,mfborder.png,1,m,Fri May 02 2025 11:26:57 GMT-0400 (Eastern Daylight Time),248914.5999994278,CFD-BM-021-026-A.jpg,1600,dash,I,m,899,2,3,7215.699999809265,241698.89999961853,9002,ATS,C,3
4,test,1,B,mfborder.png,1,z,Fri May 02 2025 11:26:57 GMT-0400 (Eastern Daylight Time),250981.80000019073,CFD-WF-013-009-HC.jpg,1000,dash,I,z,1029,12,3,9282.900000572205,241698.89999961853,9002,ATS,C,4
5,test,1,B,mfborder.png,1,z,Fri May 02 2025 11:26:57 GMT-0400 (Eastern Daylight Time),254081.89999961853,CFD-WF-001-010-HC.jpg,1900,dash,I,z,1175,8,3,12383.0,241698.89999961853,9002,ATS,C,5
6,test,1,B,mfborder.png,1,z,Fri May 02 2025 11:26:57 GMT-0400 (Eastern Daylight Time),256331.5999994278,CFD-BF-019-004-HC.jpg,1400,dash,I,z,823,7,3,14632.699999809265,241698.89999961853,9002,ATS,C,6
6,test,1,B,mfborder.png,0,m,Fri May 02 2025 11:26:57 GMT-0400 (Eastern Daylight Time),259031.89999961853,CFD-BM-043-014-A.jpg,2000,dash,I,z,660,5,3,17333.0,241698.89999961853,9002,ATS,C,7
7,test,1,B,mfborder.png,1,z,Fri May 02 2025 11:26:57 GMT-0400 (Eastern Daylight Time),261114.89999961853,CFD-BF-019-004-HC.jpg,1400,dash,I,z,664,7,3,19416.0,241698.89999961853,9002,ATS,C,8
8,test,1,B,mfborder.png,1,z,Fri May 02 2025 11:26:57 GMT-0400 (Eastern Daylight Time),262832.0999994278,CFD-WF-013-009-HC.jpg,1000,dash,I,z,685,12,3,21133.199999809265,241698.89999961853,9002,ATS,C,9
9,test,1,B,mfborder.png,1,m,Fri May 02 2025 11:26:57 GMT-0400 (Eastern Daylight Time),264748.39999961853,CFD-WM-034-040-A.jpg,1200,dash,I,m,689,6,3,23049.5,241698.89999961853,9002,ATS,C,10
10,test,1,B,mfborder.png,1,z,Fri May 02 2025 11:26:57 GMT-0400 (Eastern Daylight Time),267032.0,CFD-WF-037-016-A.jpg,1500,dash,I,z,751,11,3,25333.10000038147,241698.89999961853,9002,ATS,C,11
11,test,1,B,mfborder.png,1,m,Fri May 02 2025 11:26:57 GMT-0400 (Eastern Daylight Time),269265.19999980927,CFD-WM-035-036-HC.jpg,1600,dash,I,m,601,10,3,27566.300000190735,241698.89999961853,9002,ATS,C,12
12,test,1,B,mfborder.png,1,m,Fri May 02 2025 11:26:57 GMT-0400 (Eastern Daylight Time),271715.30000019073,CFD-BM-022-004-HC.jpg,1700,dash,I,m,715,1,3,30016.400000572205,241698.89999961853,9002,ATS,C,13
13,test,1,B,mfborder.png,1,m,Fri May 02 2025 11:26:57 GMT-0400 (Eastern Daylight Time),274198.5999994278,CFD-BM-021-026-A.jpg,1600,dash,I,m,853,2,3,32499.699999809265,241698.89999961853,9002,ATS,C,14
14,test,1,B,mfborder.png,1,z,Fri May 02 2025 11:26:57 GMT-0400 (Eastern Daylight Time),276231.89999961853,CFD-BF-031-020-A.jpg,1000,dash,I,z,1002,4,3,34533.0,241698.89999961853,9002,ATS,C,15
15,test,1,B,mfborder.png,1,m,Fri May 02 2025 11:26:57 GMT-0400 (Eastern Daylight Time),278615.30000019073,CFD-WM-036-018-A.jpg,1700,dash,I,m,652,9,3,36916.400000572205,241698.89999961853,9002,ATS,C,16
16,test,1,B,mfborder.png,1,m,Fri May 02 2025 11:26:57 GMT-0400 (Eastern Daylight Time),280531.89999961853,CFD-WM-034-040-A.jpg,1200,dash,I,m,672,6,3,38833.0,241698.89999961853,9002,ATS,C,17
17,test,1,B,mfborder.png,1,z,Fri May 02 2025 11:26:57 GMT-0400 (Eastern Daylight Time),282465.30000019073,CFD-BF-031-020-A.jpg,1000,dash,I,z,908,4,3,40766.400000572205,241698.89999961853,9002,ATS,C,18
18,test,1,B,mfborder.png,1,m,Fri May 02 2025 11:26:57 GMT-0400 (Eastern Daylight Time),284848.5,CFD-WM-036-018-A.jpg,1700,dash,I,m,658,9,3,43149.60000038147,241698.89999961853,9002,ATS,C,19
19,test,1,B,mfborder.png,1,m,Fri May 02 2025 11:26:57 GMT-0400 (Eastern Daylight Time),287715.5,CFD-BM-022-004-HC.jpg,1700,dash,I,m,1140,1,3,46016.60000038147,241698.89999961853,9002,ATS,C,20
20,test,1,B,mfborder.png,1,z,Fri May 02 2025 11:26:57 GMT-0400 (Eastern Daylight Time),290131.89999961853,CFD-WF-037-016-A.jpg,1500,dash,I,z,889,11,3,48433.0,241698.89999961853,9002,ATS,C,21
21,test,1,B,mfborder.png,1,m,Fri May 02 2025 11:26:57 GMT-0400 (Eastern Daylight Time),292915.30000019073,CFD-BM-043-014-A.jpg,2000,dash,I,m,756,5,3,51216.400000572205,241698.89999961853,9002,ATS,C,22
22,test,1,B,mfborder.png,1,z,Fri May 02 2025 11:26:57 GMT-0400 (Eastern Daylight Time),295498.5999994278,CFD-BF-042-031-HC.jpg,1500,dash,I,z,1041,3,3,53799.699999809265,241698.89999961853,9002,ATS,C,23
23,test,1,B,mfborder.png,1,z,Fri May 02 2025 11:26:57 GMT-0400 (Eastern Daylight Time),298431.89999961853,CFD-WF-001-010-HC.jpg,1900,dash,I,z,1003,8,3,56733.0,241698.89999961853,9002,ATS,C,24
0,prac,1,C,haborder.png,0,m,Fri May 02 2025 11:26:57 GMT-0400 (Eastern Daylight Time),336415.0999994278,CFD-BM-022-004-HC.jpg,1500,solid,I,None,1515,8,3,3799.5999994277954,332615.5,9002,ATS,C,1
1,prac,1,C,mfborder.png,1,m,Fri May 02 2025 11:26:57 GMT-0400 (Eastern Daylight Time),339598.80000019073,CFD-BM-043-014-A.jpg,1200,dash,I,m,1193,8,3,6983.300000190735,332615.5,9002,ATS,C,2
1,prac,1,C,mfborder.png,0,z,Fri May 02 2025 11:26:57 GMT-0400 (Eastern Daylight Time),342415.0999994278,CFD-BF-019-004-HC.jpg,1000,dash,I,m,1009,8,3,9799.599999427795,332615.5,9002,ATS,C,3
2,prac,1,C,mfborder.png,1,z,Fri May 02 2025 11:26:57 GMT-0400 (Eastern Daylight Time),345498.5999994278,CFD-WF-023-013-A.jpg,1500,solid,I,z,780,8,3,12883.099999427795,332615.5,9002,ATS,C,4
2,prac,1,C,haborder.png,0,z,Fri May 02 2025 11:26:57 GMT-0400 (Eastern Daylight Time),348698.39999961853,CFD-WF-037-016-A.jpg,1600,dash,I,m,814,8,3,16082.89999961853,332615.5,9002,ATS,C,5
2,prac,1,C,mfborder.png,0,m,Fri May 02 2025 11:26:57 GMT-0400 (Eastern Daylight Time),353015.0999994278,CFD-BM-034-035-HC.jpg,2000,solid,I,None,1515,8,3,20399.599999427795,332615.5,9002,ATS,C,6
3,prac,1,C,haborder.png,1,z,Fri May 02 2025 11:26:57 GMT-0400 (Eastern Daylight Time),356832.0,CFD-BF-002-018-A.jpg,1700,solid,I,z,1326,8,3,24216.5,332615.5,9002,ATS,C,7
4,prac,1,C,haborder.png,1,m,Fri May 02 2025 11:26:57 GMT-0400 (Eastern Daylight Time),359465.19999980927,CFD-WM-028-005-HC.jpg,1000,dash,I,m,816,8,3,26849.699999809265,332615.5,9002,ATS,C,8
5,prac,1,C,haborder.png,1,m,Fri May 02 2025 11:26:57 GMT-0400 (Eastern Daylight Time),362665.0999994278,CFD-WM-028-005-HC.jpg,1400,solid,I,m,998,8,3,30049.599999427795,332615.5,9002,ATS,C,9
6,prac,1,C,haborder.png,1,z,Fri May 02 2025 11:26:57 GMT-0400 (Eastern Daylight Time),366315.0999994278,CFD-BF-031-020-A.jpg,1900,dash,I,z,947,8,3,33699.599999427795,332615.5,9002,ATS,C,10
7,prac,1,C,mfborder.png,1,m,Fri May 02 2025 11:26:57 GMT-0400 (Eastern Daylight Time),369782.0,CFD-WM-036-018-A.jpg,1700,solid,I,m,953,8,3,37166.5,332615.5,9002,ATS,C,11
8,prac,1,C,mfborder.png,1,z,Fri May 02 2025 11:26:57 GMT-0400 (Eastern Daylight Time),373531.80000019073,CFD-WF-013-009-HC.jpg,1600,dash,I,z,1346,8,3,40916.300000190735,332615.5,9002,ATS,C,12
0,test,1,C,mfborder.png,0,m,Fri May 02 2025 11:26:57 GMT-0400 (Eastern Daylight Time),435631.5999994278,CFD-BM-022-004-HC.jpg,1200,dash,I,None,1507,6,3,2733.0,432898.5999994278,9002,ATS,C,1
0,test,1,C,mfborder.png,0,z,Fri May 02 2025 11:26:57 GMT-0400 (Eastern Daylight Time),438665.30000019073,CFD-WF-037-016-A.jpg,1500,dash,I,None,1508,3,3,5766.700000762939,432898.5999994278,9002,ATS,C,2
0,test,1,C,mfborder.png,0,m,Fri May 02 2025 11:26:57 GMT-0400 (Eastern Daylight Time),442198.0,CFD-WM-034-040-A.jpg,2000,dash,I,None,1516,5,3,9299.400000572205,432898.5999994278,9002,ATS,C,3
0,test,1,C,haborder.png,0,m,Fri May 02 2025 11:26:57 GMT-0400 (Eastern Daylight Time),445331.5999994278,CFD-BF-019-004-HC.jpg,1600,solid,I,None,1507,10,3,12433.0,432898.5999994278,9002,ATS,C,4
0,test,1,C,haborder.png,0,z,Fri May 02 2025 11:26:57 GMT-0400 (Eastern Daylight Time),448764.5999994278,CFD-BM-043-014-A.jpg,1900,solid,I,None,1515,8,3,15866.0,432898.5999994278,9002,ATS,C,5
1,test,1,C,haborder.png,1,z,Fri May 02 2025 11:26:57 GMT-0400 (Eastern Daylight Time),451931.5999994278,CFD-BM-043-014-A.jpg,1900,solid,I,z,1247,8,3,19033.0,432898.5999994278,9002,ATS,C,6
2,test,1,C,haborder.png,1,m,Fri May 02 2025 11:26:57 GMT-0400 (Eastern Daylight Time),454048.30000019073,CFD-WF-013-009-HC.jpg,1000,solid,I,m,1093,12,3,21149.70000076294,432898.5999994278,9002,ATS,C,7
3,test,1,C,haborder.png,1,z,Fri May 02 2025 11:26:57 GMT-0400 (Eastern Daylight Time),456631.80000019073,CFD-WM-036-018-A.jpg,1400,solid,I,z,1152,7,3,23733.20000076294,432898.5999994278,9002,ATS,C,8
3,test,1,C,mfborder.png,0,m,Fri May 02 2025 11:26:57 GMT-0400 (Eastern Daylight Time),459364.80000019073,CFD-BM-022-004-HC.jpg,1200,dash,I,None,1516,6,3,26466.20000076294,432898.5999994278,9002,ATS,C,9
3,test,1,C,haborder.png,0,z,Fri May 02 2025 11:26:57 GMT-0400 (Eastern Daylight Time),462598.30000019073,CFD-BM-021-026-A.jpg,1700,solid,I,None,1515,9,3,29699.70000076294,432898.5999994278,9002,ATS,C,10
4,test,1,C,mfborder.png,1,m,Fri May 02 2025 11:26:57 GMT-0400 (Eastern Daylight Time),464865.0999994278,CFD-WM-035-036-HC.jpg,1000,dash,I,m,1242,4,3,31966.5,432898.5999994278,9002,ATS,C,11
5,test,1,C,haborder.png,1,m,Fri May 02 2025 11:26:57 GMT-0400 (Eastern Daylight Time),467765.0999994278,CFD-BF-019-004-HC.jpg,1600,solid,I,m,1271,10,3,34866.5,432898.5999994278,9002,ATS,C,12
5,test,1,C,haborder.png,0,m,Fri May 02 2025 11:26:57 GMT-0400 (Eastern Daylight Time),470798.5,CFD-WF-001-010-HC.jpg,1500,solid,I,None,1515,11,3,37899.900000572205,432898.5999994278,9002,ATS,C,13
6,test,1,C,mfborder.png,1,z,Fri May 02 2025 11:26:57 GMT-0400 (Eastern Daylight Time),473481.5,CFD-WF-037-016-A.jpg,1500,dash,I,z,1150,3,3,40582.900000572205,432898.5999994278,9002,ATS,C,14
7,test,1,C,mfborder.png,1,m,Fri May 02 2025 11:26:57 GMT-0400 (Eastern Daylight Time),476515.0,CFD-WM-034-040-A.jpg,2000,dash,I,m,1006,5,3,43616.400000572205,432898.5999994278,9002,ATS,C,15
8,test,1,C,haborder.png,1,z,Fri May 02 2025 11:26:57 GMT-0400 (Eastern Daylight Time),479298.30000019073,CFD-WM-036-018-A.jpg,1400,solid,I,z,1358,7,3,46399.70000076294,432898.5999994278,9002,ATS,C,16
9,test,1,C,haborder.png,1,m,Fri May 02 2025 11:26:57 GMT-0400 (Eastern Daylight Time),482065.0,CFD-WF-001-010-HC.jpg,1500,solid,I,m,1242,11,3,49166.400000572205,432898.5999994278,9002,ATS,C,17
10,test,1,C,mfborder.png,1,z,Fri May 02 2025 11:26:57 GMT-0400 (Eastern Daylight Time),485181.5999994278,CFD-BF-031-020-A.jpg,1600,dash,I,z,1495,2,3,52283.0,432898.5999994278,9002,ATS,C,18
11,test,1,C,mfborder.png,1,m,Fri May 02 2025 11:26:57 GMT-0400 (Eastern Daylight Time),487381.69999980927,CFD-WM-035-036-HC.jpg,1000,dash,I,m,1170,4,3,54483.10000038147,432898.5999994278,9002,ATS,C,19
12,test,1,C,haborder.png,1,m,Fri May 02 2025 11:26:57 GMT-0400 (Eastern Daylight Time),489798.30000019073,CFD-WF-013-009-HC.jpg,1000,solid,I,m,1387,12,3,56899.70000076294,432898.5999994278,9002,ATS,C,20
13,test,1,C,haborder.png,1,z,Fri May 02 2025 11:26:57 GMT-0400 (Eastern Daylight Time),492531.69999980927,CFD-BM-021-026-A.jpg,1700,solid,I,z,1006,9,3,59633.10000038147,432898.5999994278,9002,ATS,C,21
14,test,1,C,mfborder.png,1,z,Fri May 02 2025 11:26:57 GMT-0400 (Eastern Daylight Time),495547.89999961853,CFD-BF-031-020-A.jpg,1600,dash,I,z,1397,2,3,62649.300000190735,432898.5999994278,9002,ATS,C,22
15,test,1,C,mfborder.png,1,z,Fri May 02 2025 11:26:57 GMT-0400 (Eastern Daylight Time),498698.5999994278,CFD-BF-042-031-HC.jpg,1700,dash,I,z,1432,1,3,65800.0,432898.5999994278,9002,ATS,C,23
16,test,1,C,mfborder.png,1,z,Fri May 02 2025 11:26:57 GMT-0400 (Eastern Daylight Time),501864.89999961853,CFD-BF-042-031-HC.jpg,1700,dash,I,z,1417,1,3,68966.30000019073,432898.5999994278,9002,ATS,C,24
1,test,2,C,haborder.png,1,z,Fri May 02 2025 11:26:57 GMT-0400 (Eastern Daylight Time),508265.0,CFD-BF-002-018-A.jpg,1900,solid,I,z,1384,8,3,3316.800000190735,504948.19999980927,9002,ATS,C,1
1,test,2,C,mfborder.png,0,z,Fri May 02 2025 11:26:57 GMT-0400 (Eastern Daylight Time),511381.89999961853,CFD-WF-013-009-HC.jpg,1700,dash,I,m,1387,1,3,6433.699999809265,504948.19999980927,9002,ATS,C,2
1,test,2,C,haborder.png,0,z,Fri May 02 2025 11:26:57 GMT-0400 (Eastern Daylight Time),514615.0,CFD-WF-037-016-A.jpg,1700,solid,I,None,1507,9,3,9666.800000190735,504948.19999980927,9002,ATS,C,3
2,test,2,C,haborder.png,1,m,Fri May 02 2025 11:26:57 GMT-0400 (Eastern Daylight Time),517548.0999994278,CFD-BM-022-004-HC.jpg,1600,solid,I,m,1305,10,3,12599.89999961853,504948.19999980927,9002,ATS,C,4
3,test,2,C,haborder.png,1,z,Fri May 02 2025 11:26:57 GMT-0400 (Eastern Daylight Time),519981.5999994278,CFD-BF-031-020-A.jpg,1400,solid,I,z,1003,7,3,15033.39999961853,504948.19999980927,9002,ATS,C,5
4,test,2,C,mfborder.png,1,m,Fri May 02 2025 11:26:57 GMT-0400 (Eastern Daylight Time),523181.5999994278,CFD-BM-043-014-A.jpg,2000,dash,I,m,1178,5,3,18233.39999961853,504948.19999980927,9002,ATS,C,6
5,test,2,C,haborder.png,1,m,Fri May 02 2025 11:26:57 GMT-0400 (Eastern Daylight Time),526098.3000001907,CFD-WM-028-005-HC.jpg,1500,solid,I,m,1392,11,3,21150.10000038147,504948.19999980927,9002,ATS,C,7
6,test,2,C,mfborder.png,1,m,Fri May 02 2025 11:26:57 GMT-0400 (Eastern Daylight Time),528431.6999998093,CFD-BM-034-035-HC.jpg,1000,dash,I,m,1310,4,3,23483.5,504948.19999980927,9002,ATS,C,8
7,test,2,C,haborder.png,1,z,Fri May 02 2025 11:26:57 GMT-0400 (Eastern Daylight Time),531514.8000001907,CFD-WF-037-016-A.jpg,1700,solid,I,z,1365,9,3,26566.60000038147,504948.19999980927,9002,ATS,C,9
8,test,2,C,mfborder.png,1,z,Fri May 02 2025 11:26:57 GMT-0400 (Eastern Daylight Time),534348.0999994278,CFD-BF-019-004-HC.jpg,1500,dash,I,z,1305,3,3,29399.89999961853,504948.19999980927,9002,ATS,C,10
9,test,2,C,mfborder.png,1,m,Fri May 02 2025 11:26:57 GMT-0400 (Eastern Daylight Time),537065.0999994278,CFD-WM-036-018-A.jpg,1200,dash,I,m,1484,6,3,32116.89999961853,504948.19999980927,9002,ATS,C,11
9,test,2,C,mfborder.png,0,z,Fri May 02 2025 11:26:57 GMT-0400 (Eastern Daylight Time),540298.5,CFD-WF-013-009-HC.jpg,1700,dash,I,None,1515,1,3,35350.300000190735,504948.19999980927,9002,ATS,C,12
10,test,2,C,haborder.png,1,m,Fri May 02 2025 11:26:57 GMT-0400 (Eastern Daylight Time),542548.3000001907,CFD-WM-028-005-HC.jpg,1000,solid,I,m,1214,12,3,37600.10000038147,504948.19999980927,9002,ATS,C,13
11,test,2,C,mfborder.png,1,z,Fri May 02 2025 11:26:57 GMT-0400 (Eastern Daylight Time),545414.8000001907,CFD-BF-019-004-HC.jpg,1500,dash,I,z,1319,3,3,40466.60000038147,504948.19999980927,9002,ATS,C,14
12,test,2,C,haborder.png,1,m,Fri May 02 2025 11:26:57 GMT-0400 (Eastern Daylight Time),548048.3000001907,CFD-BM-022-004-HC.jpg,1600,solid,I,m,1009,10,3,43100.10000038147,504948.19999980927,9002,ATS,C,15
13,test,2,C,mfborder.png,1,m,Fri May 02 2025 11:26:57 GMT-0400 (Eastern Daylight Time),550464.3000001907,CFD-WM-036-018-A.jpg,1200,dash,I,m,1183,6,3,45516.10000038147,504948.19999980927,9002,ATS,C,16
14,test,2,C,haborder.png,1,z,Fri May 02 2025 11:26:57 GMT-0400 (Eastern Daylight Time),553714.8999996185,CFD-BF-002-018-A.jpg,1900,solid,I,z,1323,8,3,48766.699999809265,504948.19999980927,9002,ATS,C,17
15,test,2,C,mfborder.png,1,m,Fri May 02 2025 11:26:57 GMT-0400 (Eastern Daylight Time),557181.5,CFD-BM-043-014-A.jpg,2000,dash,I,m,1445,5,3,52233.300000190735,504948.19999980927,9002,ATS,C,18
16,test,2,C,mfborder.png,1,z,Fri May 02 2025 11:26:57 GMT-0400 (Eastern Daylight Time),559814.8999996185,CFD-WF-023-013-A.jpg,1600,dash,I,z,995,2,3,54866.699999809265,504948.19999980927,9002,ATS,C,19
17,test,2,C,mfborder.png,1,m,Fri May 02 2025 11:26:57 GMT-0400 (Eastern Daylight Time),561697.3999996185,CFD-BM-034-035-HC.jpg,1000,dash,I,m,856,4,3,56749.199999809265,504948.19999980927,9002,ATS,C,20
18,test,2,C,haborder.png,1,m,Fri May 02 2025 11:26:57 GMT-0400 (Eastern Daylight Time),564631.5999994278,CFD-WM-028-005-HC.jpg,1500,solid,I,m,1402,11,3,59683.39999961853,504948.19999980927,9002,ATS,C,21
19,test,2,C,haborder.png,1,z,Fri May 02 2025 11:26:57 GMT-0400 (Eastern Daylight Time),567131.1999998093,CFD-BF-031-020-A.jpg,1400,solid,I,z,1081,7,3,62183.0,504948.19999980927,9002,ATS,C,22
20,test,2,C,mfborder.png,1,z,Fri May 02 2025 11:26:57 GMT-0400 (Eastern Daylight Time),570165.0,CFD-WF-023-013-A.jpg,1600,dash,I,z,1405,2,3,65216.800000190735,504948.19999980927,9002,ATS,C,23
21,test,2,C,haborder.png,1,m,Fri May 02 2025 11:26:57 GMT-0400 (Eastern Daylight Time),572431.5,CFD-WM-028-005-HC.jpg,1000,solid,I,m,1227,12,3,67483.30000019073,504948.19999980927,9002,ATS,C,24
1,test,3,C,haborder.png,1,z,Fri May 02 2025 11:26:57 GMT-0400 (Eastern Daylight Time),578165.0,CFD-BM-043-014-A.jpg,1900,solid,I,z,1263,8,3,3200.0,574965.0,9002,ATS,C,1
2,test,3,C,haborder.png,1,m,Fri May 02 2025 11:26:57 GMT-0400 (Eastern Daylight Time),580698.0999994278,CFD-WF-001-010-HC.jpg,1500,solid,I,m,991,11,3,5733.099999427795,574965.0,9002,ATS,C,2
3,test,3,C,mfborder.png,1,m,Fri May 02 2025 11:26:57 GMT-0400 (Eastern Daylight Time),583898.5999994278,CFD-WM-034-040-A.jpg,2000,dash,I,m,1181,5,3,8933.599999427795,574965.0,9002,ATS,C,3
4,test,3,C,mfborder.png,1,m,Fri May 02 2025 11:26:57 GMT-0400 (Eastern Daylight Time),586115.0,CFD-WM-035-036-HC.jpg,1000,dash,I,m,1182,4,3,11150.0,574965.0,9002,ATS,C,4
5,test,3,C,mfborder.png,1,m,Fri May 02 2025 11:26:57 GMT-0400 (Eastern Daylight Time),589364.8999996185,CFD-WM-034-040-A.jpg,2000,dash,I,m,1213,5,3,14399.89999961853,574965.0,9002,ATS,C,5
6,test,3,C,mfborder.png,1,m,Fri May 02 2025 11:26:57 GMT-0400 (Eastern Daylight Time),591464.8000001907,CFD-WM-035-036-HC.jpg,1000,dash,I,m,1067,4,3,16499.800000190735,574965.0,9002,ATS,C,6
7,test,3,C,haborder.png,1,z,Fri May 02 2025 11:26:57 GMT-0400 (Eastern Daylight Time),594231.5999994278,CFD-WM-036-018-A.jpg,1400,solid,I,z,1335,7,3,19266.599999427795,574965.0,9002,ATS,C,7
7,test,3,C,haborder.png,0,m,Fri May 02 2025 11:26:57 GMT-0400 (Eastern Daylight Time),597365.0,CFD-BF-019-004-HC.jpg,1600,solid,I,None,1516,10,3,22400.0,574965.0,9002,ATS,C,8
8,test,3,C,mfborder.png,1,z,Fri May 02 2025 11:26:57 GMT-0400 (Eastern Daylight Time),600198.1999998093,CFD-WF-037-016-A.jpg,1500,dash,I,z,1304,3,3,25233.199999809265,574965.0,9002,ATS,C,9
8,test,3,C,haborder.png,0,z,Fri May 02 2025 11:26:57 GMT-0400 (Eastern Daylight Time),603381.3999996185,CFD-BM-043-014-A.jpg,1900,solid,I,m,1237,8,3,28416.39999961853,574965.0,9002,ATS,C,10
9,test,3,C,mfborder.png,1,z,Fri May 02 2025 11:26:57 GMT-0400 (Eastern Daylight Time),606514.8999996185,CFD-BF-042-031-HC.jpg,1700,dash,I,z,1398,1,3,31549.89999961853,574965.0,9002,ATS,C,11
9,test,3,C,haborder.png,0,m,Fri May 02 2025 11:26:57 GMT-0400 (Eastern Daylight Time),609048.0999994278,CFD-WF-013-009-HC.jpg,1000,solid,I,None,1515,12,3,34083.099999427795,574965.0,9002,ATS,C,12
10,test,3,C,mfborder.png,1,z,Fri May 02 2025 11:26:57 GMT-0400 (Eastern Daylight Time),612014.6999998093,CFD-WF-037-016-A.jpg,1500,dash,I,z,1436,3,3,37049.699999809265,574965.0,9002,ATS,C,13
10,test,3,C,mfborder.png,0,m,Fri May 02 2025 11:26:57 GMT-0400 (Eastern Daylight Time),614714.5,CFD-BM-022-004-HC.jpg,1200,dash,I,z,1481,6,3,39749.5,574965.0,9002,ATS,C,14
11,test,3,C,mfborder.png,1,m,Fri May 02 2025 11:26:57 GMT-0400 (Eastern Daylight Time),617031.3999996185,CFD-BM-022-004-HC.jpg,1200,dash,I,m,1085,6,3,42066.39999961853,574965.0,9002,ATS,C,15
12,test,3,C,haborder.png,1,m,Fri May 02 2025 11:26:57 GMT-0400 (Eastern Daylight Time),619798.0999994278,CFD-BF-019-004-HC.jpg,1600,solid,I,m,1129,10,3,44833.099999427795,574965.0,9002,ATS,C,16
13,test,3,C,mfborder.png,1,z,Fri May 02 2025 11:26:57 GMT-0400 (Eastern Daylight Time),622814.3000001907,CFD-BF-031-020-A.jpg,1600,dash,I,z,1394,2,3,47849.300000190735,574965.0,9002,ATS,C,17
14,test,3,C,mfborder.png,1,z,Fri May 02 2025 11:26:57 GMT-0400 (Eastern Daylight Time),625681.3999996185,CFD-BF-031-020-A.jpg,1600,dash,I,z,1233,2,3,50716.39999961853,574965.0,9002,ATS,C,18
14,test,3,C,haborder.png,0,z,Fri May 02 2025 11:26:57 GMT-0400 (Eastern Daylight Time),628914.8999996185,CFD-BM-021-026-A.jpg,1700,solid,I,None,1507,9,3,53949.89999961853,574965.0,9002,ATS,C,19
14,test,3,C,haborder.png,0,m,Fri May 02 2025 11:26:57 GMT-0400 (Eastern Daylight Time),631448.0,CFD-WF-013-009-HC.jpg,1000,solid,I,None,1507,12,3,56483.0,574965.0,9002,ATS,C,20
15,test,3,C,haborder.png,1,z,Fri May 02 2025 11:26:57 GMT-0400 (Eastern Daylight Time),634531.6999998093,CFD-BM-021-026-A.jpg,1700,solid,I,z,1348,9,3,59566.699999809265,574965.0,9002,ATS,C,21
16,test,3,C,haborder.png,1,m,Fri May 02 2025 11:26:57 GMT-0400 (Eastern Daylight Time),637114.8999996185,CFD-WF-001-010-HC.jpg,1500,solid,I,m,1065,11,3,62149.89999961853,574965.0,9002,ATS,C,22
17,test,3,C,mfborder.png,1,z,Fri May 02 2025 11:26:57 GMT-0400 (Eastern Daylight Time),640148.0999994278,CFD-BF-042-031-HC.jpg,1700,dash,I,z,1305,1,3,65183.099999427795,574965.0,9002,ATS,C,23
17,test,3,C,haborder.png,0,z,Fri May 02 2025 11:26:57 GMT-0400 (Eastern Daylight Time),642731.0999994278,CFD-WM-036-018-A.jpg,1400,solid,I,m,1164,7,3,67766.0999994278,574965.0,9002,ATS,C,24
0,test,4,C,mfborder.png,0,m,Fri May 02 2025 11:26:57 GMT-0400 (Eastern Daylight Time),659098.3000001907,CFD-BM-034-035-HC.jpg,1000,dash,I,None,1515,4,3,2533.4000005722046,656564.8999996185,9002,ATS,C,1
0,test,4,C,haborder.png,0,m,Fri May 02 2025 11:26:57 GMT-0400 (Eastern Daylight Time),662231.6999998093,CFD-BM-022-004-HC.jpg,1600,solid,I,None,1508,10,3,5666.800000190735,656564.8999996185,9002,ATS,C,2
1,test,4,C,mfborder.png,1,z,Fri May 02 2025 11:26:57 GMT-0400 (Eastern Daylight Time),664764.5999994278,CFD-BF-019-004-HC.jpg,1500,dash,I,z,1005,3,3,8199.699999809265,656564.8999996185,9002,ATS,C,3
2,test,4,C,haborder.png,1,m,Fri May 02 2025 11:26:57 GMT-0400 (Eastern Daylight Time),667431.1999998093,CFD-WM-028-005-HC.jpg,1500,solid,I,m,1127,11,3,10866.300000190735,656564.8999996185,9002,ATS,C,4
3,test,4,C,haborder.png,1,z,Fri May 02 2025 11:26:57 GMT-0400 (Eastern Daylight Time),669881.3000001907,CFD-BF-031-020-A.jpg,1400,solid,I,z,1009,7,3,13316.400000572205,656564.8999996185,9002,ATS,C,5
4,test,4,C,mfborder.png,1,z,Fri May 02 2025 11:26:57 GMT-0400 (Eastern Daylight Time),672914.6999998093,CFD-WF-013-009-HC.jpg,1700,dash,I,z,1307,1,3,16349.800000190735,656564.8999996185,9002,ATS,C,6
4,test,4,C,haborder.png,0,m,Fri May 02 2025 11:26:57 GMT-0400 (Eastern Daylight Time),675447.8999996185,CFD-WM-028-005-HC.jpg,1000,solid,I,None,1515,12,3,18883.0,656564.8999996185,9002,ATS,C,7
5,test,4,C,haborder.png,1,z,Fri May 02 2025 11:26:57 GMT-0400 (Eastern Daylight Time),678364.5999994278,CFD-BF-002-018-A.jpg,1900,solid,I,z,979,8,3,21799.699999809265,656564.8999996185,9002,ATS,C,8
6,test,4,C,haborder.png,1,m,Fri May 02 2025 11:26:57 GMT-0400 (Eastern Daylight Time),680264.5999994278,CFD-WM-028-005-HC.jpg,1000,solid,I,m,860,12,3,23699.699999809265,656564.8999996185,9002,ATS,C,9
7,test,4,C,mfborder.png,1,m,Fri May 02 2025 11:26:57 GMT-0400 (Eastern Daylight Time),683381.5,CFD-BM-043-014-A.jpg,2000,dash,I,m,1079,5,3,26816.60000038147,656564.8999996185,9002,ATS,C,10
8,test,4,C,mfborder.png,1,m,Fri May 02 2025 11:26:57 GMT-0400 (Eastern Daylight Time),685581.3999996185,CFD-WM-036-018-A.jpg,1200,dash,I,m,971,6,3,29016.5,656564.8999996185,9002,ATS,C,11
9,test,4,C,mfborder.png,1,z,Fri May 02 2025 11:26:57 GMT-0400 (Eastern Daylight Time),688048.0999994278,CFD-BF-019-004-HC.jpg,1500,dash,I,z,944,3,3,31483.199999809265,656564.8999996185,9002,ATS,C,12
10,test,4,C,haborder.png,1,z,Fri May 02 2025 11:26:57 GMT-0400 (Eastern Daylight Time),691314.6999998093,CFD-BF-002-018-A.jpg,1900,solid,I,z,1332,8,3,34749.800000190735,656564.8999996185,9002,ATS,C,13
11,test,4,C,mfborder.png,1,m,Fri May 02 2025 11:26:57 GMT-0400 (Eastern Daylight Time),693781.3999996185,CFD-BM-034-035-HC.jpg,1000,dash,I,m,1429,4,3,37216.5,656564.8999996185,9002,ATS,C,14
12,test,4,C,haborder.png,1,m,Fri May 02 2025 11:26:57 GMT-0400 (Eastern Daylight Time),696581.3999996185,CFD-WM-028-005-HC.jpg,1500,solid,I,m,1271,11,3,40016.5,656564.8999996185,9002,ATS,C,15
13,test,4,C,mfborder.png,1,m,Fri May 02 2025 11:26:57 GMT-0400 (Eastern Daylight Time),699081.3999996185,CFD-WM-036-018-A.jpg,1200,dash,I,m,1258,6,3,42516.5,656564.8999996185,9002,ATS,C,16
14,test,4,C,mfborder.png,1,z,Fri May 02 2025 11:26:57 GMT-0400 (Eastern Daylight Time),701814.5999994278,CFD-WF-023-013-A.jpg,1600,dash,I,z,1095,2,3,45249.699999809265,656564.8999996185,9002,ATS,C,17
14,test,4,C,haborder.png,0,z,Fri May 02 2025 11:26:57 GMT-0400 (Eastern Daylight Time),704697.8999996185,CFD-WF-037-016-A.jpg,1700,solid,I,m,1149,9,3,48133.0,656564.8999996185,9002,ATS,C,18
15,test,4,C,mfborder.png,1,z,Fri May 02 2025 11:26:57 GMT-0400 (Eastern Daylight Time),707581.3000001907,CFD-WF-013-009-HC.jpg,1700,dash,I,z,1154,1,3,51016.400000572205,656564.8999996185,9002,ATS,C,19
16,test,4,C,haborder.png,1,z,Fri May 02 2025 11:26:57 GMT-0400 (Eastern Daylight Time),710081.3000001907,CFD-BF-031-020-A.jpg,1400,solid,I,z,1075,7,3,53516.400000572205,656564.8999996185,9002,ATS,C,20
16,test,4,C,mfborder.png,0,m,Fri May 02 2025 11:26:57 GMT-0400 (Eastern Daylight Time),713497.8999996185,CFD-BM-043-014-A.jpg,2000,dash,I,z,1375,5,3,56933.0,656564.8999996185,9002,ATS,C,21
17,test,4,C,haborder.png,1,m,Fri May 02 2025 11:26:57 GMT-0400 (Eastern Daylight Time),716481.3000001907,CFD-BM-022-004-HC.jpg,1600,solid,I,m,1350,10,3,59916.400000572205,656564.8999996185,9002,ATS,C,22
18,test,4,C,mfborder.png,1,z,Fri May 02 2025 11:26:57 GMT-0400 (Eastern Daylight Time),719498.3000001907,CFD-WF-023-013-A.jpg,1600,dash,I,z,1391,2,3,62933.400000572205,656564.8999996185,9002,ATS,C,23
18,test,4,C,haborder.png,0,z,Fri May 02 2025 11:26:57 GMT-0400 (Eastern Daylight Time),722514.8000001907,CFD-WF-037-016-A.jpg,1700,solid,I,m,1282,9,3,65949.9000005722,656564.8999996185,9002,ATS,C,24
