acc_sum,block,block_c,change,condition,correct,correct_response,datetime,endtime,face,project,response,response_time,row_sel,session_number,start_end,starttime,subject_id,task,task_vers,trial
0,prac,1,,1-Back,,,Thu Feb 20 2025 16:48:47 GMT-0600 (Central Standard Time),,050_m_f_n_a.png,O,space,4854,1,1,,,7050,NNB,A,0
1,prac,1,0.0,1-Back,1,m,Thu Feb 20 2025 16:48:47 GMT-0600 (Central Standard Time),145058.69999999925,063_y_f_n_a.png,O,m,909,2,1,1709.0,143349.69999999925,7050,NNB,A,1
2,prac,1,1.0,1-Back,1,z,Thu Feb 20 2025 16:48:47 GMT-0600 (Central Standard Time),147191.0,063_y_f_n_a.png,O,z,1353,3,1,2125.10000000149,145065.8999999985,7050,NNB,A,2
3,prac,1,0.0,1-Back,1,m,Thu Feb 20 2025 16:48:47 GMT-0600 (Central Standard Time),149357.09999999776,053_o_m_n_a.png,O,m,1364,4,1,2159.0,147198.09999999776,7050,NNB,A,3
4,prac,1,0.0,1-Back,1,m,Thu Feb 20 2025 16:48:47 GMT-0600 (Central Standard Time),151539.69999999925,058_m_m_n_a.png,O,m,1374,5,1,2175.800000000745,149363.8999999985,7050,NNB,A,4
5,prac,1,1.0,1-Back,1,z,Thu Feb 20 2025 16:48:47 GMT-0600 (Central Standard Time),153055.8999999985,058_m_m_n_a.png,O,z,728,6,1,1509.300000000745,151546.59999999776,7050,NNB,A,5
6,prac,1,0.0,1-Back,1,m,Thu Feb 20 2025 16:48:47 GMT-0600 (Central Standard Time),154988.80000000075,047_o_f_n_a.png,O,m,1100,7,1,1926.1000000014901,153062.69999999925,7050,NNB,A,6
7,prac,1,0.0,1-Back,1,m,Thu Feb 20 2025 16:48:47 GMT-0600 (Central Standard Time),156788.30000000075,045_m_m_n_a.png,O,m,992,8,1,1792.1000000014901,154996.19999999925,7050,NNB,A,7
8,prac,1,0.0,1-Back,1,m,Thu Feb 20 2025 16:48:47 GMT-0600 (Central Standard Time),158532.80000000075,050_m_f_n_a.png,O,m,814,9,1,1737.800000000745,156795.0,7050,NNB,A,8
9,prac,1,1.0,1-Back,1,z,Thu Feb 20 2025 16:48:47 GMT-0600 (Central Standard Time),160070.3999999985,050_m_f_n_a.png,O,z,748,10,1,1527.800000000745,158542.59999999776,7050,NNB,A,9
10,prac,1,0.0,1-Back,1,m,Thu Feb 20 2025 16:48:47 GMT-0600 (Central Standard Time),161720.19999999925,053_o_m_n_a.png,O,m,861,11,1,1642.6000000014901,160077.59999999776,7050,NNB,A,10
11,prac,1,0.0,1-Back,1,m,Thu Feb 20 2025 16:48:47 GMT-0600 (Central Standard Time),163569.5,010_y_f_n_a.png,O,m,1005,12,1,1841.9000000022352,161727.59999999776,7050,NNB,A,11
0,test,1,0.0,1-Back,,,Thu Feb 20 2025 16:48:47 GMT-0600 (Central Standard Time),163569.5,063_y_f_n_a.png,O,space,17667,1,1,1841.9000000022352,161727.59999999776,7050,NNB,A,0
1,test,1,0.0,1-Back,1,m,Thu Feb 20 2025 16:48:47 GMT-0600 (Central Standard Time),193876.69999999925,043_m_f_n_a.png,O,m,981,2,1,1993.199999999255,191883.5,7050,NNB,A,1
2,test,1,0.0,1-Back,1,m,Thu Feb 20 2025 16:48:47 GMT-0600 (Central Standard Time),195692.5,010_y_f_n_a.png,O,m,788,3,1,1809.800000000745,193882.69999999925,7050,NNB,A,2
3,test,1,1.0,1-Back,1,z,Thu Feb 20 2025 16:48:47 GMT-0600 (Central Standard Time),197308.8999999985,010_y_f_n_a.png,O,z,590,4,1,1610.5,195698.3999999985,7050,NNB,A,3
4,test,1,0.0,1-Back,1,m,Thu Feb 20 2025 16:48:47 GMT-0600 (Central Standard Time),199074.8999999985,043_m_f_n_a.png,O,m,733,5,1,1760.5,197314.3999999985,7050,NNB,A,4
5,test,1,0.0,1-Back,1,m,Thu Feb 20 2025 16:48:47 GMT-0600 (Central Standard Time),201040.8999999985,053_o_m_n_a.png,O,m,943,6,1,1960.300000000745,199080.59999999776,7050,NNB,A,5
6,test,1,1.0,1-Back,1,z,Thu Feb 20 2025 16:48:47 GMT-0600 (Central Standard Time),202723.5,053_o_m_n_a.png,O,z,665,7,1,1676.9000000022352,201046.59999999776,7050,NNB,A,6
7,test,1,0.0,1-Back,1,m,Thu Feb 20 2025 16:48:47 GMT-0600 (Central Standard Time),204456.69999999925,058_m_m_n_a.png,O,m,702,8,1,1727.699999999255,202729.0,7050,NNB,A,7
8,test,1,0.0,1-Back,1,m,Thu Feb 20 2025 16:48:47 GMT-0600 (Central Standard Time),206239.5,047_o_f_n_a.png,O,m,737,9,1,1776.9000000022352,204462.59999999776,7050,NNB,A,8
9,test,1,0.0,1-Back,1,m,Thu Feb 20 2025 16:48:47 GMT-0600 (Central Standard Time),208172.19999999925,058_m_m_n_a.png,O,m,907,10,1,1926.5,206245.69999999925,7050,NNB,A,9
10,test,1,0.0,1-Back,1,m,Thu Feb 20 2025 16:48:47 GMT-0600 (Central Standard Time),210004.80000000075,041_y_m_n_a.png,O,m,814,11,1,1827.0,208177.80000000075,7050,NNB,A,10
11,test,1,1.0,1-Back,1,z,Thu Feb 20 2025 16:48:47 GMT-0600 (Central Standard Time),211704.19999999925,041_y_m_n_a.png,O,z,669,12,1,1693.800000000745,210010.3999999985,7050,NNB,A,11
12,test,1,0.0,1-Back,1,m,Thu Feb 20 2025 16:48:47 GMT-0600 (Central Standard Time),213536.8999999985,044_o_f_n_a.png,O,m,802,13,1,1827.0,211709.8999999985,7050,NNB,A,12
13,test,1,1.0,1-Back,1,z,Thu Feb 20 2025 16:48:47 GMT-0600 (Central Standard Time),215220.8999999985,044_o_f_n_a.png,O,z,664,14,1,1677.8999999985099,213543.0,7050,NNB,A,13
14,test,1,0.0,1-Back,1,m,Thu Feb 20 2025 16:48:47 GMT-0600 (Central Standard Time),217085.80000000075,008_y_m_n_a.png,O,m,838,15,1,1859.1000000014901,215226.69999999925,7050,NNB,A,14
15,test,1,0.0,1-Back,1,m,Thu Feb 20 2025 16:48:47 GMT-0600 (Central Standard Time),218853.19999999925,050_m_f_n_a.png,O,m,740,16,1,1761.8999999985099,217091.30000000075,7050,NNB,A,15
16,test,1,0.0,1-Back,1,m,Thu Feb 20 2025 16:48:47 GMT-0600 (Central Standard Time),220751.80000000075,046_o_m_n_a.png,O,m,870,17,1,1892.300000000745,218859.5,7050,NNB,A,16
17,test,1,0.0,1-Back,1,m,Thu Feb 20 2025 16:48:47 GMT-0600 (Central Standard Time),222867.3999999985,050_m_f_n_a.png,O,m,1091,18,1,2109.800000000745,220757.59999999776,7050,NNB,A,17
0,test,2,0.0,1-Back,,,Thu Feb 20 2025 16:48:47 GMT-0600 (Central Standard Time),222867.3999999985,058_m_m_n_a.png,O,space,2855,1,1,2109.800000000745,220757.59999999776,7050,NNB,A,0
1,test,2,0.0,1-Back,1,m,Thu Feb 20 2025 16:48:47 GMT-0600 (Central Standard Time),229582.0,043_m_f_n_a.png,O,m,805,2,1,1827.1000000014901,227754.8999999985,7050,NNB,A,1
2,test,2,1.0,1-Back,1,z,Thu Feb 20 2025 16:48:47 GMT-0600 (Central Standard Time),231481.5,043_m_f_n_a.png,O,z,876,3,1,1894.0,229587.5,7050,NNB,A,2
3,test,2,0.0,1-Back,1,m,Thu Feb 20 2025 16:48:47 GMT-0600 (Central Standard Time),233414.0,058_m_m_n_a.png,O,m,905,4,1,1926.800000000745,231487.19999999925,7050,NNB,A,3
4,test,2,0.0,1-Back,1,m,Thu Feb 20 2025 16:48:47 GMT-0600 (Central Standard Time),235097.19999999925,041_y_m_n_a.png,O,m,660,5,1,1677.199999999255,233420.0,7050,NNB,A,4
5,test,2,0.0,1-Back,1,m,Thu Feb 20 2025 16:48:47 GMT-0600 (Central Standard Time),236896.5,063_y_f_n_a.png,O,m,776,6,1,1793.699999999255,235102.80000000075,7050,NNB,A,5
6,test,2,1.0,1-Back,1,z,Thu Feb 20 2025 16:48:47 GMT-0600 (Central Standard Time),238545.8999999985,063_y_f_n_a.png,O,z,626,7,1,1643.800000000745,236902.09999999776,7050,NNB,A,6
7,test,2,0.0,1-Back,1,m,Thu Feb 20 2025 16:48:47 GMT-0600 (Central Standard Time),240245.59999999776,041_y_m_n_a.png,O,m,672,8,1,1693.2999999970198,238552.30000000075,7050,NNB,A,7
8,test,2,0.0,1-Back,1,m,Thu Feb 20 2025 16:48:47 GMT-0600 (Central Standard Time),242011.5,044_o_f_n_a.png,O,m,741,9,1,1760.300000000745,240251.19999999925,7050,NNB,A,8
9,test,2,0.0,1-Back,1,m,Thu Feb 20 2025 16:48:47 GMT-0600 (Central Standard Time),243860.80000000075,045_m_m_n_a.png,O,m,823,10,1,1843.5,242017.30000000075,7050,NNB,A,9
10,test,2,1.0,1-Back,1,z,Thu Feb 20 2025 16:48:47 GMT-0600 (Central Standard Time),245560.30000000075,045_m_m_n_a.png,O,z,677,11,1,1693.6000000014901,243866.69999999925,7050,NNB,A,10
11,test,2,0.0,1-Back,1,m,Thu Feb 20 2025 16:48:47 GMT-0600 (Central Standard Time),247193.09999999776,044_o_f_n_a.png,O,m,610,12,1,1626.8999999985099,245566.19999999925,7050,NNB,A,11
12,test,2,0.0,1-Back,1,m,Thu Feb 20 2025 16:48:47 GMT-0600 (Central Standard Time),249142.59999999776,047_o_f_n_a.png,O,m,920,13,1,1943.3999999985099,247199.19999999925,7050,NNB,A,12
13,test,2,0.0,1-Back,1,m,Thu Feb 20 2025 16:48:47 GMT-0600 (Central Standard Time),250958.80000000075,053_o_m_n_a.png,O,m,795,14,1,1810.2000000029802,249148.59999999776,7050,NNB,A,13
14,test,2,0.0,1-Back,1,m,Thu Feb 20 2025 16:48:47 GMT-0600 (Central Standard Time),252791.59999999776,046_o_m_n_a.png,O,m,812,15,1,1826.8999999985099,250964.69999999925,7050,NNB,A,14
15,test,2,1.0,1-Back,1,z,Thu Feb 20 2025 16:48:47 GMT-0600 (Central Standard Time),254490.80000000075,046_o_m_n_a.png,O,z,675,16,1,1693.7000000029802,252797.09999999776,7050,NNB,A,15
16,test,2,0.0,1-Back,1,m,Thu Feb 20 2025 16:48:47 GMT-0600 (Central Standard Time),256257.0,008_y_m_n_a.png,O,m,743,17,1,1760.300000000745,254496.69999999925,7050,NNB,A,16
17,test,2,1.0,1-Back,1,z,Thu Feb 20 2025 16:48:47 GMT-0600 (Central Standard Time),257906.5,008_y_m_n_a.png,O,z,625,18,1,1644.1000000014901,256262.3999999985,7050,NNB,A,17
0,test,3,1.0,1-Back,,,Thu Feb 20 2025 16:48:47 GMT-0600 (Central Standard Time),257906.5,010_y_f_n_a.png,O,space,2015,1,1,1644.1000000014901,256262.3999999985,7050,NNB,A,0
1,test,3,0.0,1-Back,1,m,Thu Feb 20 2025 16:48:47 GMT-0600 (Central Standard Time),263921.5,046_o_m_n_a.png,O,m,910,2,1,1927.0,261994.5,7050,NNB,A,1
2,test,3,1.0,1-Back,1,z,Thu Feb 20 2025 16:48:47 GMT-0600 (Central Standard Time),265604.0,046_o_m_n_a.png,O,z,665,3,1,1676.800000000745,263927.19999999925,7050,NNB,A,2
3,test,3,0.0,1-Back,1,m,Thu Feb 20 2025 16:48:47 GMT-0600 (Central Standard Time),267320.19999999925,050_m_f_n_a.png,O,m,694,4,1,1710.5,265609.69999999925,7050,NNB,A,3
4,test,3,1.0,1-Back,1,z,Thu Feb 20 2025 16:48:47 GMT-0600 (Central Standard Time),268903.30000000075,050_m_f_n_a.png,O,z,562,5,1,1576.800000000745,267326.5,7050,NNB,A,4
5,test,3,0.0,1-Back,1,m,Thu Feb 20 2025 16:48:47 GMT-0600 (Central Standard Time),270519.19999999925,044_o_f_n_a.png,O,m,586,6,1,1610.5,268908.69999999925,7050,NNB,A,5
6,test,3,0.0,1-Back,1,m,Thu Feb 20 2025 16:48:47 GMT-0600 (Central Standard Time),272368.69999999925,041_y_m_n_a.png,O,m,819,7,1,1843.699999999255,270525.0,7050,NNB,A,6
7,test,3,0.0,1-Back,1,m,Thu Feb 20 2025 16:48:47 GMT-0600 (Central Standard Time),274234.59999999776,044_o_f_n_a.png,O,m,849,8,1,1860.199999999255,272374.3999999985,7050,NNB,A,7
8,test,3,0.0,1-Back,1,m,Thu Feb 20 2025 16:48:47 GMT-0600 (Central Standard Time),276236.69999999925,008_y_m_n_a.png,O,m,847,9,1,1996.3999999985099,274240.30000000075,7050,NNB,A,8
9,test,3,1.0,1-Back,1,z,Thu Feb 20 2025 16:48:47 GMT-0600 (Central Standard Time),277700.19999999925,008_y_m_n_a.png,O,z,448,10,1,1454.800000000745,276245.3999999985,7050,NNB,A,9
10,test,3,0.0,1-Back,1,m,Thu Feb 20 2025 16:48:47 GMT-0600 (Central Standard Time),279366.5,043_m_f_n_a.png,O,m,638,11,1,1660.699999999255,277705.80000000075,7050,NNB,A,10
11,test,3,0.0,1-Back,1,m,Thu Feb 20 2025 16:48:47 GMT-0600 (Central Standard Time),281032.59999999776,063_y_f_n_a.png,O,m,636,12,1,1660.0999999977648,279372.5,7050,NNB,A,11
12,test,3,1.0,1-Back,1,z,Thu Feb 20 2025 16:48:47 GMT-0600 (Central Standard Time),282615.3999999985,063_y_f_n_a.png,O,z,553,13,1,1576.5999999977648,281038.80000000075,7050,NNB,A,12
13,test,3,0.0,1-Back,1,m,Thu Feb 20 2025 16:48:47 GMT-0600 (Central Standard Time),284314.80000000075,043_m_f_n_a.png,O,m,675,14,1,1693.300000000745,282621.5,7050,NNB,A,13
14,test,3,0.0,1-Back,1,m,Thu Feb 20 2025 16:48:47 GMT-0600 (Central Standard Time),286081.0,058_m_m_n_a.png,O,m,735,15,1,1760.199999999255,284320.80000000075,7050,NNB,A,14
15,test,3,1.0,1-Back,1,z,Thu Feb 20 2025 16:48:47 GMT-0600 (Central Standard Time),287647.30000000075,058_m_m_n_a.png,O,z,545,16,1,1560.4000000022352,286086.8999999985,7050,NNB,A,15
16,test,3,0.0,1-Back,1,m,Thu Feb 20 2025 16:48:47 GMT-0600 (Central Standard Time),289579.80000000075,047_o_f_n_a.png,O,m,915,17,1,1926.7000000029802,287653.09999999776,7050,NNB,A,16
17,test,3,1.0,1-Back,1,z,Thu Feb 20 2025 16:48:47 GMT-0600 (Central Standard Time),291279.3999999985,047_o_f_n_a.png,O,z,670,18,1,1694.0999999977648,289585.30000000075,7050,NNB,A,17
0,test,4,1.0,1-Back,,,Thu Feb 20 2025 16:48:47 GMT-0600 (Central Standard Time),291279.3999999985,050_m_f_n_a.png,O,space,2771,1,1,1694.0999999977648,289585.30000000075,7050,NNB,A,0
1,test,4,0.0,1-Back,1,m,Thu Feb 20 2025 16:48:47 GMT-0600 (Central Standard Time),297577.5,046_o_m_n_a.png,O,m,468,2,1,1494.1000000014901,296083.3999999985,7050,NNB,A,1
2,test,4,0.0,1-Back,1,m,Thu Feb 20 2025 16:48:47 GMT-0600 (Central Standard Time),299561.19999999925,050_m_f_n_a.png,O,m,966,3,1,1977.6000000014901,297583.59999999776,7050,NNB,A,2
3,test,4,0.0,1-Back,1,m,Thu Feb 20 2025 16:48:47 GMT-0600 (Central Standard Time),301576.30000000075,044_o_f_n_a.png,O,m,994,4,1,2009.1000000014901,299567.19999999925,7050,NNB,A,3
4,test,4,1.0,1-Back,1,z,Thu Feb 20 2025 16:48:47 GMT-0600 (Central Standard Time),303408.80000000075,044_o_f_n_a.png,O,z,810,5,1,1826.6000000014901,301582.19999999925,7050,NNB,A,4
5,test,4,0.0,1-Back,1,m,Thu Feb 20 2025 16:48:47 GMT-0600 (Central Standard Time),305025.19999999925,063_y_f_n_a.png,O,m,585,6,1,1610.699999999255,303414.5,7050,NNB,A,5
6,test,4,0.0,1-Back,1,m,Thu Feb 20 2025 16:48:47 GMT-0600 (Central Standard Time),306758.19999999925,041_y_m_n_a.png,O,m,705,7,1,1727.3999999985099,305030.80000000075,7050,NNB,A,6
7,test,4,1.0,1-Back,1,z,Thu Feb 20 2025 16:48:47 GMT-0600 (Central Standard Time),308374.0,041_y_m_n_a.png,O,z,596,8,1,1609.6000000014901,306764.3999999985,7050,NNB,A,7
8,test,4,0.0,1-Back,1,m,Thu Feb 20 2025 16:48:47 GMT-0600 (Central Standard Time),309940.30000000075,063_y_f_n_a.png,O,m,548,9,1,1560.5,308379.80000000075,7050,NNB,A,8
9,test,4,0.0,1-Back,1,m,Thu Feb 20 2025 16:48:47 GMT-0600 (Central Standard Time),311789.80000000075,045_m_m_n_a.png,O,m,821,10,1,1843.5,309946.30000000075,7050,NNB,A,9
10,test,4,1.0,1-Back,1,z,Thu Feb 20 2025 16:48:47 GMT-0600 (Central Standard Time),313355.59999999776,045_m_m_n_a.png,O,z,548,11,1,1560.2999999970198,311795.30000000075,7050,NNB,A,10
11,test,4,0.0,1-Back,1,m,Thu Feb 20 2025 16:48:47 GMT-0600 (Central Standard Time),315005.3999999985,047_o_f_n_a.png,O,m,630,12,1,1644.0,313361.3999999985,7050,NNB,A,11
12,test,4,0.0,1-Back,1,m,Thu Feb 20 2025 16:48:47 GMT-0600 (Central Standard Time),316738.3999999985,053_o_m_n_a.png,O,m,708,13,1,1726.8999999985099,315011.5,7050,NNB,A,12
13,test,4,0.0,1-Back,1,m,Thu Feb 20 2025 16:48:47 GMT-0600 (Central Standard Time),318504.19999999925,047_o_f_n_a.png,O,m,744,14,1,1759.300000000745,316744.8999999985,7050,NNB,A,13
14,test,4,0.0,1-Back,1,m,Thu Feb 20 2025 16:48:47 GMT-0600 (Central Standard Time),320203.69999999925,010_y_f_n_a.png,O,m,674,15,1,1693.5,318510.19999999925,7050,NNB,A,14
15,test,4,1.0,1-Back,1,z,Thu Feb 20 2025 16:48:47 GMT-0600 (Central Standard Time),321770.0,010_y_f_n_a.png,O,z,535,16,1,1560.5,320209.5,7050,NNB,A,15
16,test,4,0.0,1-Back,1,m,Thu Feb 20 2025 16:48:47 GMT-0600 (Central Standard Time),323419.30000000075,043_m_f_n_a.png,O,m,624,17,1,1643.300000000745,321776.0,7050,NNB,A,16
17,test,4,1.0,1-Back,1,z,Thu Feb 20 2025 16:48:47 GMT-0600 (Central Standard Time),324985.80000000075,043_m_f_n_a.png,O,z,535,18,1,1560.6000000014901,323425.19999999925,7050,NNB,A,17
0,test,5,1.0,1-Back,,,Thu Feb 20 2025 16:48:47 GMT-0600 (Central Standard Time),324985.80000000075,053_o_m_n_a.png,O,space,1849,1,1,1560.6000000014901,323425.19999999925,7050,NNB,A,0
1,test,5,1.0,1-Back,1,z,Thu Feb 20 2025 16:48:47 GMT-0600 (Central Standard Time),330417.0,053_o_m_n_a.png,O,z,535,2,1,1560.199999999255,328856.80000000075,7050,NNB,A,1
2,test,5,0.0,1-Back,1,m,Thu Feb 20 2025 16:48:47 GMT-0600 (Central Standard Time),332249.8999999985,063_y_f_n_a.png,O,m,809,3,1,1826.8999999985099,330423.0,7050,NNB,A,2
3,test,5,0.0,1-Back,1,m,Thu Feb 20 2025 16:48:47 GMT-0600 (Central Standard Time),334049.5,041_y_m_n_a.png,O,m,768,4,1,1794.0,332255.5,7050,NNB,A,3
4,test,5,0.0,1-Back,1,m,Thu Feb 20 2025 16:48:47 GMT-0600 (Central Standard Time),335765.5,063_y_f_n_a.png,O,m,689,5,1,1710.199999999255,334055.30000000075,7050,NNB,A,4
5,test,5,0.0,1-Back,1,m,Thu Feb 20 2025 16:48:47 GMT-0600 (Central Standard Time),337598.30000000075,058_m_m_n_a.png,O,m,805,6,1,1826.7000000029802,335771.59999999776,7050,NNB,A,5
6,test,5,1.0,1-Back,1,z,Thu Feb 20 2025 16:48:47 GMT-0600 (Central Standard Time),339181.09999999776,058_m_m_n_a.png,O,z,556,7,1,1577.0,337604.09999999776,7050,NNB,A,6
7,test,5,0.0,1-Back,1,m,Thu Feb 20 2025 16:48:47 GMT-0600 (Central Standard Time),340913.80000000075,010_y_f_n_a.png,O,m,709,8,1,1726.7000000029802,339187.09999999776,7050,NNB,A,7
8,test,5,0.0,1-Back,1,m,Thu Feb 20 2025 16:48:47 GMT-0600 (Central Standard Time),342563.5,008_y_m_n_a.png,O,m,625,9,1,1643.6000000014901,340919.8999999985,7050,NNB,A,8
9,test,5,0.0,1-Back,1,m,Thu Feb 20 2025 16:48:47 GMT-0600 (Central Standard Time),344346.3999999985,010_y_f_n_a.png,O,m,751,10,1,1776.5,342569.8999999985,7050,NNB,A,9
10,test,5,0.0,1-Back,1,m,Thu Feb 20 2025 16:48:47 GMT-0600 (Central Standard Time),346012.19999999925,047_o_f_n_a.png,O,m,640,11,1,1659.699999999255,344352.5,7050,NNB,A,10
11,test,5,1.0,1-Back,1,z,Thu Feb 20 2025 16:48:47 GMT-0600 (Central Standard Time),347578.30000000075,047_o_f_n_a.png,O,z,534,12,1,1560.300000000745,346018.0,7050,NNB,A,11
12,test,5,0.0,1-Back,1,m,Thu Feb 20 2025 16:48:47 GMT-0600 (Central Standard Time),349144.59999999776,046_o_m_n_a.png,O,m,536,13,1,1560.5,347584.09999999776,7050,NNB,A,12
13,test,5,0.0,1-Back,1,m,Thu Feb 20 2025 16:48:47 GMT-0600 (Central Standard Time),350777.5,050_m_f_n_a.png,O,m,601,14,1,1626.9000000022352,349150.59999999776,7050,NNB,A,13
14,test,5,1.0,1-Back,1,z,Thu Feb 20 2025 16:48:47 GMT-0600 (Central Standard Time),352377.19999999925,050_m_f_n_a.png,O,z,569,15,1,1594.1000000014901,350783.09999999776,7050,NNB,A,14
15,test,5,0.0,1-Back,1,m,Thu Feb 20 2025 16:48:47 GMT-0600 (Central Standard Time),354026.3999999985,046_o_m_n_a.png,O,m,625,16,1,1643.699999999255,352382.69999999925,7050,NNB,A,15
16,test,5,0.0,1-Back,1,m,Thu Feb 20 2025 16:48:47 GMT-0600 (Central Standard Time),355676.80000000075,043_m_f_n_a.png,O,m,632,17,1,1644.300000000745,354032.5,7050,NNB,A,16
17,test,5,0.0,1-Back,1,m,Thu Feb 20 2025 16:48:47 GMT-0600 (Central Standard Time),357258.8999999985,045_m_m_n_a.png,O,m,566,18,1,1576.300000000745,355682.59999999776,7050,NNB,A,17
0,prac,1,0.0,2-Back,,,Thu Feb 20 2025 16:48:47 GMT-0600 (Central Standard Time),357258.8999999985,008_y_m_n_a.png,O,space,3628,1,1,1576.300000000745,355682.59999999776,7050,NNB,A,0
0,prac,1,0.0,2-Back,,,Thu Feb 20 2025 16:48:47 GMT-0600 (Central Standard Time),357258.8999999985,043_m_f_n_a.png,O,space,3628,2,1,1576.300000000745,355682.59999999776,7050,NNB,A,0
1,prac,1,1.0,2-Back,1,m,Thu Feb 20 2025 16:48:47 GMT-0600 (Central Standard Time),561212.0999999978,046_o_m_n_a.png,O,m,1083,3,1,1876.2999999970198,559335.8000000007,7050,NNB,A,1
1,prac,1,0.0,2-Back,0,m,Thu Feb 20 2025 16:48:47 GMT-0600 (Central Standard Time),564044.1999999993,047_o_f_n_a.png,O,None,2001,4,1,2824.800000000745,561219.3999999985,7050,NNB,A,2
2,prac,1,0.0,2-Back,1,z,Thu Feb 20 2025 16:48:47 GMT-0600 (Central Standard Time),566143.5999999978,046_o_m_n_a.png,O,z,1320,5,1,2092.699999999255,564050.8999999985,7050,NNB,A,3
2,prac,1,1.0,2-Back,0,z,Thu Feb 20 2025 16:48:47 GMT-0600 (Central Standard Time),568809.3999999985,047_o_f_n_a.png,O,m,1892,6,1,2658.800000000745,566150.5999999978,7050,NNB,A,4
2,prac,1,0.0,2-Back,0,m,Thu Feb 20 2025 16:48:47 GMT-0600 (Central Standard Time),571141.8999999985,045_m_m_n_a.png,O,z,1522,7,1,2325.099999997765,568816.8000000007,7050,NNB,A,5
3,prac,1,0.0,2-Back,1,m,Thu Feb 20 2025 16:48:47 GMT-0600 (Central Standard Time),573124.5999999978,053_o_m_n_a.png,O,m,1181,8,1,1975.5,571149.0999999978,7050,NNB,A,6
4,prac,1,0.0,2-Back,1,m,Thu Feb 20 2025 16:48:47 GMT-0600 (Central Standard Time),574807.8000000007,010_y_f_n_a.png,O,m,851,9,1,1676.0,573131.8000000007,7050,NNB,A,7
5,prac,1,1.0,2-Back,1,z,Thu Feb 20 2025 16:48:47 GMT-0600 (Central Standard Time),577506.8000000007,053_o_m_n_a.png,O,z,1924,10,1,2692.300000000745,574814.5,7050,NNB,A,8
6,prac,1,0.0,2-Back,1,m,Thu Feb 20 2025 16:48:47 GMT-0600 (Central Standard Time),579156.0,063_y_f_n_a.png,O,m,834,11,1,1642.199999999255,577513.8000000007,7050,NNB,A,9
6,prac,1,0.0,2-Back,0,m,Thu Feb 20 2025 16:48:47 GMT-0600 (Central Standard Time),580972.3000000007,045_m_m_n_a.png,O,z,1031,12,1,1809.2000000029802,579163.0999999978,7050,NNB,A,10
0,prac,2,0.0,2-Back,,,Thu Feb 20 2025 16:48:47 GMT-0600 (Central Standard Time),580972.3000000007,008_y_m_n_a.png,O,a,5707,1,1,1809.2000000029802,579163.0999999978,7050,NNB,A,0
0,prac,2,0.0,2-Back,,,Thu Feb 20 2025 16:48:47 GMT-0600 (Central Standard Time),580972.3000000007,043_m_f_n_a.png,O,a,5707,2,1,1809.2000000029802,579163.0999999978,7050,NNB,A,0
1,prac,2,1.0,2-Back,1,m,Thu Feb 20 2025 16:48:47 GMT-0600 (Central Standard Time),593468.3999999985,046_o_m_n_a.png,O,m,882,3,1,1659.3999999985099,591809.0,7050,NNB,A,1
1,prac,2,0.0,2-Back,0,m,Thu Feb 20 2025 16:48:47 GMT-0600 (Central Standard Time),595217.8000000007,047_o_f_n_a.png,O,z,959,4,1,1742.4000000022352,593475.3999999985,7050,NNB,A,2
1,prac,2,0.0,2-Back,0,z,Thu Feb 20 2025 16:48:47 GMT-0600 (Central Standard Time),598000.0999999978,046_o_m_n_a.png,O,None,2009,5,1,2775.699999999255,595224.3999999985,7050,NNB,A,3
2,prac,2,1.0,2-Back,1,z,Thu Feb 20 2025 16:48:47 GMT-0600 (Central Standard Time),600333.0,047_o_f_n_a.png,O,z,1547,6,1,2325.60000000149,598007.3999999985,7050,NNB,A,4
3,prac,2,0.0,2-Back,1,m,Thu Feb 20 2025 16:48:47 GMT-0600 (Central Standard Time),602149.0,045_m_m_n_a.png,O,m,1039,7,1,1809.199999999255,600339.8000000007,7050,NNB,A,5
4,prac,2,0.0,2-Back,1,m,Thu Feb 20 2025 16:48:47 GMT-0600 (Central Standard Time),603931.6999999993,053_o_m_n_a.png,O,m,998,8,1,1775.5,602156.1999999993,7050,NNB,A,6
5,prac,2,0.0,2-Back,1,m,Thu Feb 20 2025 16:48:47 GMT-0600 (Central Standard Time),605916.0,010_y_f_n_a.png,O,m,1216,9,1,1977.5,603938.5,7050,NNB,A,7
6,prac,2,1.0,2-Back,1,z,Thu Feb 20 2025 16:48:47 GMT-0600 (Central Standard Time),608013.8999999985,053_o_m_n_a.png,O,z,1319,10,1,2090.800000000745,605923.0999999978,7050,NNB,A,8
7,prac,2,0.0,2-Back,1,m,Thu Feb 20 2025 16:48:47 GMT-0600 (Central Standard Time),610279.6999999993,063_y_f_n_a.png,O,m,1486,11,1,2258.699999999255,608021.0,7050,NNB,A,9
7,prac,2,0.0,2-Back,0,m,Thu Feb 20 2025 16:48:47 GMT-0600 (Central Standard Time),613012.3999999985,045_m_m_n_a.png,O,z,1948,12,1,2726.099999997765,610286.3000000007,7050,NNB,A,10
0,test,1,0.0,2-Back,,,Thu Feb 20 2025 16:48:47 GMT-0600 (Central Standard Time),613012.3999999985,041_y_m_n_a.png,O,space,10228,1,1,2726.099999997765,610286.3000000007,7050,NNB,A,0
0,test,1,0.0,2-Back,,,Thu Feb 20 2025 16:48:47 GMT-0600 (Central Standard Time),613012.3999999985,041_y_m_n_a.png,O,space,10228,2,1,2726.099999997765,610286.3000000007,7050,NNB,A,0
1,test,1,0.0,2-Back,1,m,Thu Feb 20 2025 16:48:47 GMT-0600 (Central Standard Time),639653.8999999985,047_o_f_n_a.png,O,m,746,3,1,1759.8999999985099,637894.0,7050,NNB,A,1
2,test,1,0.0,2-Back,1,m,Thu Feb 20 2025 16:48:47 GMT-0600 (Central Standard Time),641703.1999999993,058_m_m_n_a.png,O,m,1020,4,1,2043.1000000014901,639660.0999999978,7050,NNB,A,2
3,test,1,1.0,2-Back,1,z,Thu Feb 20 2025 16:48:47 GMT-0600 (Central Standard Time),643435.8999999985,047_o_f_n_a.png,O,z,715,5,1,1726.800000000745,641709.0999999978,7050,NNB,A,3
4,test,1,0.0,2-Back,1,m,Thu Feb 20 2025 16:48:47 GMT-0600 (Central Standard Time),645168.8999999985,063_y_f_n_a.png,O,m,710,6,1,1727.199999999255,643441.6999999993,7050,NNB,A,4
4,test,1,0.0,2-Back,0,m,Thu Feb 20 2025 16:48:47 GMT-0600 (Central Standard Time),647184.8999999985,058_m_m_n_a.png,O,z,985,7,1,2010.0999999977648,645174.8000000007,7050,NNB,A,5
4,test,1,1.0,2-Back,0,z,Thu Feb 20 2025 16:48:47 GMT-0600 (Central Standard Time),649400.8999999985,063_y_f_n_a.png,O,m,1185,8,1,2209.39999999851,647191.5,7050,NNB,A,6
5,test,1,0.0,2-Back,1,m,Thu Feb 20 2025 16:48:47 GMT-0600 (Central Standard Time),652033.3000000007,008_y_m_n_a.png,O,m,1601,9,1,2626.400000002235,649406.8999999985,7050,NNB,A,7
6,test,1,0.0,2-Back,1,m,Thu Feb 20 2025 16:48:47 GMT-0600 (Central Standard Time),653749.5,044_o_f_n_a.png,O,m,697,10,1,1709.9000000022352,652039.5999999978,7050,NNB,A,8
6,test,1,1.0,2-Back,0,z,Thu Feb 20 2025 16:48:47 GMT-0600 (Central Standard Time),656782.0999999978,008_y_m_n_a.png,O,None,2015,11,1,3026.5,653755.5999999978,7050,NNB,A,9
7,test,1,0.0,2-Back,1,m,Thu Feb 20 2025 16:48:47 GMT-0600 (Central Standard Time),659081.5,043_m_f_n_a.png,O,m,1276,12,1,2293.5,656788.0,7050,NNB,A,10
8,test,1,0.0,2-Back,1,m,Thu Feb 20 2025 16:48:47 GMT-0600 (Central Standard Time),661398.3000000007,043_m_f_n_a.png,O,m,1289,13,1,2310.800000000745,659087.5,7050,NNB,A,11
9,test,1,0.0,2-Back,1,m,Thu Feb 20 2025 16:48:47 GMT-0600 (Central Standard Time),662996.3999999985,046_o_m_n_a.png,O,m,581,14,1,1592.0999999977648,661404.3000000007,7050,NNB,A,12
10,test,1,0.0,2-Back,1,m,Thu Feb 20 2025 16:48:47 GMT-0600 (Central Standard Time),664879.3000000007,044_o_f_n_a.png,O,m,853,15,1,1877.0,663002.3000000007,7050,NNB,A,13
11,test,1,1.0,2-Back,1,z,Thu Feb 20 2025 16:48:47 GMT-0600 (Central Standard Time),666495.5999999978,046_o_m_n_a.png,O,z,595,16,1,1609.699999999255,664885.8999999985,7050,NNB,A,14
12,test,1,0.0,2-Back,1,m,Thu Feb 20 2025 16:48:47 GMT-0600 (Central Standard Time),668395.0,050_m_f_n_a.png,O,m,867,17,1,1893.199999999255,666501.8000000007,7050,NNB,A,15
13,test,1,0.0,2-Back,1,m,Thu Feb 20 2025 16:48:47 GMT-0600 (Central Standard Time),671060.5999999978,045_m_m_n_a.png,O,m,1639,18,1,2659.2999999970198,668401.3000000007,7050,NNB,A,16
0,test,2,0.0,2-Back,,,Thu Feb 20 2025 16:48:47 GMT-0600 (Central Standard Time),671060.5999999978,045_m_m_n_a.png,O,space,2630,1,1,2659.2999999970198,668401.3000000007,7050,NNB,A,0
0,test,2,0.0,2-Back,,,Thu Feb 20 2025 16:48:47 GMT-0600 (Central Standard Time),671060.5999999978,010_y_f_n_a.png,O,space,2630,2,1,2659.2999999970198,668401.3000000007,7050,NNB,A,0
1,test,2,1.0,2-Back,1,z,Thu Feb 20 2025 16:48:47 GMT-0600 (Central Standard Time),680357.6999999993,045_m_m_n_a.png,O,z,545,3,1,1559.8999999985099,678797.8000000007,7050,NNB,A,1
2,test,2,0.0,2-Back,1,m,Thu Feb 20 2025 16:48:47 GMT-0600 (Central Standard Time),682491.6999999993,050_m_f_n_a.png,O,m,1101,4,1,2128.10000000149,680363.5999999978,7050,NNB,A,2
2,test,2,0.0,2-Back,0,m,Thu Feb 20 2025 16:48:47 GMT-0600 (Central Standard Time),685339.5999999978,010_y_f_n_a.png,O,z,1832,5,1,2841.5,682498.0999999978,7050,NNB,A,3
3,test,2,0.0,2-Back,1,m,Thu Feb 20 2025 16:48:47 GMT-0600 (Central Standard Time),687272.3000000007,046_o_m_n_a.png,O,m,903,6,1,1927.1000000014901,685345.1999999993,7050,NNB,A,4
3,test,2,0.0,2-Back,0,m,Thu Feb 20 2025 16:48:47 GMT-0600 (Central Standard Time),690171.3999999985,063_y_f_n_a.png,O,z,1882,7,1,2892.800000000745,687278.5999999978,7050,NNB,A,5
3,test,2,1.0,2-Back,0,z,Thu Feb 20 2025 16:48:47 GMT-0600 (Central Standard Time),691970.8999999985,046_o_m_n_a.png,O,m,767,8,1,1793.199999999255,690177.6999999993,7050,NNB,A,6
4,test,2,0.0,2-Back,1,m,Thu Feb 20 2025 16:48:47 GMT-0600 (Central Standard Time),694087.0999999978,008_y_m_n_a.png,O,m,1088,9,1,2110.199999999255,691976.8999999985,7050,NNB,A,7
5,test,2,0.0,2-Back,1,m,Thu Feb 20 2025 16:48:47 GMT-0600 (Central Standard Time),696403.0,008_y_m_n_a.png,O,m,1283,10,1,2309.900000002235,694093.0999999978,7050,NNB,A,8
6,test,2,0.0,2-Back,1,m,Thu Feb 20 2025 16:48:47 GMT-0600 (Central Standard Time),698185.6999999993,043_m_f_n_a.png,O,m,751,11,1,1776.699999999255,696409.0,7050,NNB,A,9
7,test,2,0.0,2-Back,1,m,Thu Feb 20 2025 16:48:47 GMT-0600 (Central Standard Time),699888.0999999978,010_y_f_n_a.png,O,m,686,12,1,1696.2999999970198,698191.8000000007,7050,NNB,A,10
8,test,2,1.0,2-Back,1,z,Thu Feb 20 2025 16:48:47 GMT-0600 (Central Standard Time),701517.8999999985,043_m_f_n_a.png,O,z,605,13,1,1623.300000000745,699894.5999999978,7050,NNB,A,11
9,test,2,0.0,2-Back,1,m,Thu Feb 20 2025 16:48:47 GMT-0600 (Central Standard Time),703283.8999999985,053_o_m_n_a.png,O,m,740,14,1,1759.8999999985099,701524.0,7050,NNB,A,12
10,test,2,0.0,2-Back,1,m,Thu Feb 20 2025 16:48:47 GMT-0600 (Central Standard Time),705600.0,053_o_m_n_a.png,O,m,1286,15,1,2309.699999999255,703290.3000000007,7050,NNB,A,13
11,test,2,0.0,2-Back,1,m,Thu Feb 20 2025 16:48:47 GMT-0600 (Central Standard Time),708182.5,044_o_f_n_a.png,O,m,1562,16,1,2576.0,705606.5,7050,NNB,A,14
12,test,2,0.0,2-Back,1,m,Thu Feb 20 2025 16:48:47 GMT-0600 (Central Standard Time),710881.5999999978,058_m_m_n_a.png,O,m,1676,17,1,2693.0,708188.5999999978,7050,NNB,A,15
13,test,2,1.0,2-Back,1,z,Thu Feb 20 2025 16:48:47 GMT-0600 (Central Standard Time),712364.6999999993,044_o_f_n_a.png,O,z,465,18,1,1477.0,710887.6999999993,7050,NNB,A,16
0,test,3,1.0,2-Back,,,Thu Feb 20 2025 16:48:47 GMT-0600 (Central Standard Time),712364.6999999993,041_y_m_n_a.png,O,space,1590,1,1,1477.0,710887.6999999993,7050,NNB,A,0
0,test,3,1.0,2-Back,,,Thu Feb 20 2025 16:48:47 GMT-0600 (Central Standard Time),712364.6999999993,041_y_m_n_a.png,O,space,1590,2,1,1477.0,710887.6999999993,7050,NNB,A,0
1,test,3,0.0,2-Back,1,m,Thu Feb 20 2025 16:48:47 GMT-0600 (Central Standard Time),721661.5999999978,044_o_f_n_a.png,O,m,1613,3,1,2626.2999999970198,719035.3000000007,7050,NNB,A,1
2,test,3,0.0,2-Back,1,m,Thu Feb 20 2025 16:48:47 GMT-0600 (Central Standard Time),724177.5,045_m_m_n_a.png,O,m,1492,4,1,2509.60000000149,721667.8999999985,7050,NNB,A,2
3,test,3,1.0,2-Back,1,z,Thu Feb 20 2025 16:48:47 GMT-0600 (Central Standard Time),725993.5,044_o_f_n_a.png,O,z,793,5,1,1809.9000000022352,724183.5999999978,7050,NNB,A,3
3,test,3,0.0,2-Back,0,m,Thu Feb 20 2025 16:48:47 GMT-0600 (Central Standard Time),728542.8999999985,008_y_m_n_a.png,O,z,1529,6,1,2543.199999999255,725999.6999999993,7050,NNB,A,4
3,test,3,0.0,2-Back,0,m,Thu Feb 20 2025 16:48:47 GMT-0600 (Central Standard Time),730692.1999999993,045_m_m_n_a.png,O,z,1123,7,1,2143.10000000149,728549.0999999978,7050,NNB,A,5
3,test,3,1.0,2-Back,0,z,Thu Feb 20 2025 16:48:47 GMT-0600 (Central Standard Time),733724.8000000007,008_y_m_n_a.png,O,None,2016,8,1,3026.5,730698.3000000007,7050,NNB,A,6
4,test,3,0.0,2-Back,1,m,Thu Feb 20 2025 16:48:47 GMT-0600 (Central Standard Time),735390.8000000007,010_y_f_n_a.png,O,m,646,9,1,1660.0,733730.8000000007,7050,NNB,A,7
5,test,3,0.0,2-Back,1,m,Thu Feb 20 2025 16:48:47 GMT-0600 (Central Standard Time),737889.8999999985,058_m_m_n_a.png,O,m,1467,10,1,2492.800000000745,735397.0999999978,7050,NNB,A,8
6,test,3,1.0,2-Back,1,z,Thu Feb 20 2025 16:48:47 GMT-0600 (Central Standard Time),739372.6999999993,010_y_f_n_a.png,O,z,456,11,1,1476.3999999985099,737896.3000000007,7050,NNB,A,9
7,test,3,1.0,2-Back,1,z,Thu Feb 20 2025 16:48:47 GMT-0600 (Central Standard Time),741088.8000000007,058_m_m_n_a.png,O,z,685,12,1,1709.7000000029802,739379.0999999978,7050,NNB,A,10
8,test,3,0.0,2-Back,1,m,Thu Feb 20 2025 16:48:47 GMT-0600 (Central Standard Time),743355.0,044_o_f_n_a.png,O,m,1233,13,1,2259.699999999255,741095.3000000007,7050,NNB,A,11
9,test,3,0.0,2-Back,1,m,Thu Feb 20 2025 16:48:47 GMT-0600 (Central Standard Time),745670.5999999978,050_m_f_n_a.png,O,m,1295,14,1,2309.699999999255,743360.8999999985,7050,NNB,A,12
10,test,3,0.0,2-Back,1,m,Thu Feb 20 2025 16:48:47 GMT-0600 (Central Standard Time),748186.6999999993,046_o_m_n_a.png,O,m,1491,15,1,2509.89999999851,745676.8000000007,7050,NNB,A,13
10,test,3,1.0,2-Back,0,z,Thu Feb 20 2025 16:48:47 GMT-0600 (Central Standard Time),750336.0,050_m_f_n_a.png,O,m,1127,16,1,2143.199999999255,748192.8000000007,7050,NNB,A,14
11,test,3,0.0,2-Back,1,m,Thu Feb 20 2025 16:48:47 GMT-0600 (Central Standard Time),753085.0999999978,047_o_f_n_a.png,O,m,1730,17,1,2743.2999999970198,750341.8000000007,7050,NNB,A,15
12,test,3,0.0,2-Back,1,m,Thu Feb 20 2025 16:48:47 GMT-0600 (Central Standard Time),755367.8999999985,047_o_f_n_a.png,O,m,1253,18,1,2276.39999999851,753091.5,7050,NNB,A,16
0,test,4,0.0,2-Back,,,Thu Feb 20 2025 16:48:47 GMT-0600 (Central Standard Time),755367.8999999985,053_o_m_n_a.png,O,space,2418,1,1,2276.39999999851,753091.5,7050,NNB,A,0
0,test,4,0.0,2-Back,,,Thu Feb 20 2025 16:48:47 GMT-0600 (Central Standard Time),755367.8999999985,063_y_f_n_a.png,O,space,2418,2,1,2276.39999999851,753091.5,7050,NNB,A,0
1,test,4,1.0,2-Back,1,z,Thu Feb 20 2025 16:48:47 GMT-0600 (Central Standard Time),764515.0,053_o_m_n_a.png,O,z,592,3,1,1610.1000000014901,762904.8999999985,7050,NNB,A,1
1,test,4,1.0,2-Back,0,z,Thu Feb 20 2025 16:48:47 GMT-0600 (Central Standard Time),766231.0999999978,063_y_f_n_a.png,O,m,687,4,1,1709.699999999255,764521.3999999985,7050,NNB,A,2
2,test,4,0.0,2-Back,1,m,Thu Feb 20 2025 16:48:47 GMT-0600 (Central Standard Time),768713.5,044_o_f_n_a.png,O,m,1459,5,1,2475.900000002235,766237.5999999978,7050,NNB,A,3
3,test,4,0.0,2-Back,1,m,Thu Feb 20 2025 16:48:47 GMT-0600 (Central Standard Time),770699.0,044_o_f_n_a.png,O,m,969,6,1,1979.4000000022352,768719.5999999978,7050,NNB,A,4
4,test,4,0.0,2-Back,1,m,Thu Feb 20 2025 16:48:47 GMT-0600 (Central Standard Time),772428.8000000007,043_m_f_n_a.png,O,m,706,7,1,1723.1000000014901,770705.6999999993,7050,NNB,A,5
5,test,4,0.0,2-Back,1,m,Thu Feb 20 2025 16:48:47 GMT-0600 (Central Standard Time),774428.1999999993,008_y_m_n_a.png,O,m,981,8,1,1993.1000000014901,772435.0999999978,7050,NNB,A,6
6,test,4,1.0,2-Back,1,z,Thu Feb 20 2025 16:48:47 GMT-0600 (Central Standard Time),775994.5999999978,043_m_f_n_a.png,O,z,542,9,1,1560.3999999985099,774434.1999999993,7050,NNB,A,7
7,test,4,0.0,2-Back,1,m,Thu Feb 20 2025 16:48:47 GMT-0600 (Central Standard Time),777844.0999999978,058_m_m_n_a.png,O,m,822,10,1,1843.2999999970198,776000.8000000007,7050,NNB,A,8
7,test,4,0.0,2-Back,0,m,Thu Feb 20 2025 16:48:47 GMT-0600 (Central Standard Time),779676.8000000007,008_y_m_n_a.png,O,z,806,11,1,1826.6000000014901,777850.1999999993,7050,NNB,A,9
8,test,4,0.0,2-Back,1,m,Thu Feb 20 2025 16:48:47 GMT-0600 (Central Standard Time),781926.0,047_o_f_n_a.png,O,m,1221,12,1,2242.900000002235,779683.0999999978,7050,NNB,A,10
9,test,4,0.0,2-Back,1,m,Thu Feb 20 2025 16:48:47 GMT-0600 (Central Standard Time),783742.0999999978,041_y_m_n_a.png,O,m,796,13,1,1809.699999999255,781932.3999999985,7050,NNB,A,11
10,test,4,1.0,2-Back,1,z,Thu Feb 20 2025 16:48:47 GMT-0600 (Central Standard Time),785558.1999999993,047_o_f_n_a.png,O,z,796,14,1,1809.5,783748.6999999993,7050,NNB,A,12
10,test,4,1.0,2-Back,0,z,Thu Feb 20 2025 16:48:47 GMT-0600 (Central Standard Time),787008.0,041_y_m_n_a.png,O,m,420,15,1,1443.5,785564.5,7050,NNB,A,13
11,test,4,0.0,2-Back,1,m,Thu Feb 20 2025 16:48:47 GMT-0600 (Central Standard Time),789024.0,045_m_m_n_a.png,O,m,994,16,1,2010.0,787014.0,7050,NNB,A,14
12,test,4,0.0,2-Back,1,m,Thu Feb 20 2025 16:48:47 GMT-0600 (Central Standard Time),790856.8000000007,050_m_f_n_a.png,O,m,810,17,1,1826.9000000022352,789029.8999999985,7050,NNB,A,15
13,test,4,1.0,2-Back,1,z,Thu Feb 20 2025 16:48:47 GMT-0600 (Central Standard Time),792306.0999999978,045_m_m_n_a.png,O,z,417,18,1,1443.3999999985099,790862.6999999993,7050,NNB,A,16
0,test,5,1.0,2-Back,,,Thu Feb 20 2025 16:48:47 GMT-0600 (Central Standard Time),792306.0999999978,041_y_m_n_a.png,O,space,1747,1,1,1443.3999999985099,790862.6999999993,7050,NNB,A,0
0,test,5,1.0,2-Back,,,Thu Feb 20 2025 16:48:47 GMT-0600 (Central Standard Time),792306.0999999978,050_m_f_n_a.png,O,space,1747,2,1,1443.3999999985099,790862.6999999993,7050,NNB,A,0
1,test,5,1.0,2-Back,1,z,Thu Feb 20 2025 16:48:47 GMT-0600 (Central Standard Time),800820.1999999993,041_y_m_n_a.png,O,z,548,3,1,1560.1000000014901,799260.0999999978,7050,NNB,A,1
2,test,5,1.0,2-Back,1,z,Thu Feb 20 2025 16:48:47 GMT-0600 (Central Standard Time),803136.0999999978,050_m_f_n_a.png,O,z,1294,4,1,2309.39999999851,800826.6999999993,7050,NNB,A,2
3,test,5,0.0,2-Back,1,m,Thu Feb 20 2025 16:48:47 GMT-0600 (Central Standard Time),805485.5,047_o_f_n_a.png,O,m,1330,5,1,2343.10000000149,803142.3999999985,7050,NNB,A,3
4,test,5,0.0,2-Back,1,m,Thu Feb 20 2025 16:48:47 GMT-0600 (Central Standard Time),808168.0999999978,041_y_m_n_a.png,O,m,1661,6,1,2676.699999999255,805491.3999999985,7050,NNB,A,4
5,test,5,0.0,2-Back,1,m,Thu Feb 20 2025 16:48:47 GMT-0600 (Central Standard Time),810367.3000000007,010_y_f_n_a.png,O,m,1178,7,1,2193.10000000149,808174.1999999993,7050,NNB,A,5
5,test,5,0.0,2-Back,0,m,Thu Feb 20 2025 16:48:47 GMT-0600 (Central Standard Time),812666.5999999978,047_o_f_n_a.png,O,z,1267,8,1,2293.2999999970198,810373.3000000007,7050,NNB,A,6
6,test,5,1.0,2-Back,1,z,Thu Feb 20 2025 16:48:47 GMT-0600 (Central Standard Time),815332.3999999985,010_y_f_n_a.png,O,z,1647,9,1,2659.599999997765,812672.8000000007,7050,NNB,A,7
7,test,5,0.0,2-Back,1,m,Thu Feb 20 2025 16:48:47 GMT-0600 (Central Standard Time),817098.3999999985,046_o_m_n_a.png,O,m,742,10,1,1760.199999999255,815338.1999999993,7050,NNB,A,8
8,test,5,0.0,2-Back,1,m,Thu Feb 20 2025 16:48:47 GMT-0600 (Central Standard Time),819447.8000000007,043_m_f_n_a.png,O,m,1328,11,1,2343.5,817104.3000000007,7050,NNB,A,9
8,test,5,0.0,2-Back,0,m,Thu Feb 20 2025 16:48:47 GMT-0600 (Central Standard Time),822330.0999999978,058_m_m_n_a.png,O,z,1850,12,1,2876.199999999255,819453.8999999985,7050,NNB,A,10
9,test,5,0.0,2-Back,1,m,Thu Feb 20 2025 16:48:47 GMT-0600 (Central Standard Time),824279.5,046_o_m_n_a.png,O,m,920,13,1,1943.1000000014901,822336.3999999985,7050,NNB,A,11
10,test,5,1.0,2-Back,1,z,Thu Feb 20 2025 16:48:47 GMT-0600 (Central Standard Time),825712.3000000007,058_m_m_n_a.png,O,z,410,14,1,1426.800000000745,824285.5,7050,NNB,A,12
11,test,5,0.0,2-Back,1,m,Thu Feb 20 2025 16:48:47 GMT-0600 (Central Standard Time),827446.5999999978,063_y_f_n_a.png,O,m,714,15,1,1728.0999999977648,825718.5,7050,NNB,A,13
12,test,5,0.0,2-Back,1,m,Thu Feb 20 2025 16:48:47 GMT-0600 (Central Standard Time),829394.8999999985,053_o_m_n_a.png,O,m,917,16,1,1942.3999999985099,827452.5,7050,NNB,A,14
13,test,5,0.0,2-Back,1,m,Thu Feb 20 2025 16:48:47 GMT-0600 (Central Standard Time),831660.5,043_m_f_n_a.png,O,m,1240,17,1,2259.699999999255,829400.8000000007,7050,NNB,A,15
13,test,5,1.0,2-Back,0,z,Thu Feb 20 2025 16:48:47 GMT-0600 (Central Standard Time),834009.8999999985,053_o_m_n_a.png,O,m,1326,18,1,2343.199999999255,831666.6999999993,7050,NNB,A,16
