acc_sum,block,block_c,condition,correct,correct_response,datetime,endtime,flanker,jitter,project,response,response_test_buffer_response,response_test_target_response,response_time,response_time_test_buffer_response,response_time_test_target_response,row_sel,session_number,start_end,starttime,subject_id,target,task,task_vers,time_test_buffer,time_test_buffer_response,time_test_constants,time_test_flanker,time_test_jitter,time_test_logger,time_test_target,time_test_target_response,time_test_variables,trial
1,prac,1,inc,1,z,Wed Mar 19 2025 16:13:52 GMT-0500 (Central Daylight Time),148357.80000000005,cobalt,1100,I,z,,,1816,,,4,1,4227.700000000186,144130.09999999986,7065,raisin,NF,C,,,,,,,,,,1
2,prac,1,inc,1,z,Wed Mar 19 2025 16:13:52 GMT-0500 (Central Daylight Time),151790.0,iron,900,I,z,,,1225,,,6,1,3426.9000000001397,148363.09999999986,7065,pear,NF,C,,,,,,,,,,2
3,prac,1,inc,1,m,Wed Mar 19 2025 16:13:52 GMT-0500 (Central Daylight Time),155455.59999999986,raisin,1100,I,m,,,1255,,,12,1,3661.1999999999534,151794.3999999999,7065,cobalt,NF,C,,,,,,,,,,3
4,prac,1,con,1,m,Wed Mar 19 2025 16:13:52 GMT-0500 (Central Daylight Time),158554.59999999986,bronze,800,I,m,,,995,,,9,1,3094.7999999998137,155459.80000000005,7065,bronze,NF,C,,,,,,,,,,4
5,prac,1,con,1,z,Wed Mar 19 2025 16:13:52 GMT-0500 (Central Daylight Time),161620.3999999999,lime,800,I,z,,,959,,,5,1,3060.8000000000466,158559.59999999986,7065,lime,NF,C,,,,,,,,,,5
5,prac,1,inc,0,m,Wed Mar 19 2025 16:13:52 GMT-0500 (Central Daylight Time),164669.09999999986,plum,1100,I,z,,,643,,,16,1,3044.399999999907,161624.69999999995,7065,lead,NF,C,,,,,,,,,,6
5,prac,1,con,0,m,Wed Mar 19 2025 16:13:52 GMT-0500 (Central Daylight Time),169751.09999999986,zinc,1000,I,None,,,1815,,,15,1,5077.699999999953,164673.3999999999,7065,zinc,NF,C,,,,,,,,,,7
6,prac,1,con,1,m,Wed Mar 19 2025 16:13:52 GMT-0500 (Central Daylight Time),173166.59999999986,gold,800,I,m,,,1309,,,13,1,3411.0999999998603,169755.5,7065,gold,NF,C,,,,,,,,,,8
7,prac,1,inc,1,z,Wed Mar 19 2025 16:13:52 GMT-0500 (Central Daylight Time),176382.5,copper,900,I,z,,,999,,,2,1,3211.5,173171.0,7065,cherry,NF,C,,,,,,,,,,9
8,prac,1,con,1,z,Wed Mar 19 2025 16:13:52 GMT-0500 (Central Daylight Time),179631.09999999986,orange,1000,I,z,,,941,,,3,1,3244.2999999998137,176386.80000000005,7065,orange,NF,C,,,,,,,,,,10
9,prac,1,inc,1,m,Wed Mar 19 2025 16:13:52 GMT-0500 (Central Daylight Time),182996.80000000005,pear,900,I,m,,,1151,,,14,1,3360.600000000093,179636.19999999995,7065,iron,NF,C,,,,,,,,,,11
10,prac,1,con,1,m,Wed Mar 19 2025 16:13:52 GMT-0500 (Central Daylight Time),186562.3999999999,silver,1000,I,m,,,1138,,,11,1,3560.1999999999534,183002.19999999995,7065,silver,NF,C,,,,,,,,,,12
11,prac,1,inc,1,z,Wed Mar 19 2025 16:13:52 GMT-0500 (Central Daylight Time),189861.3999999999,lead,1100,I,z,,,891,,,8,1,3295.0,186566.3999999999,7065,plum,NF,C,,,,,,,,,,13
12,prac,1,con,1,z,Wed Mar 19 2025 16:13:52 GMT-0500 (Central Daylight Time),193076.80000000005,kiwi,1000,I,z,,,910,,,7,1,3210.9000000001397,189865.8999999999,7065,kiwi,NF,C,,,,,,,,,,14
13,prac,1,con,1,z,Wed Mar 19 2025 16:13:52 GMT-0500 (Central Daylight Time),196009.3999999999,banana,800,I,z,,,821,,,1,1,2927.0,193082.3999999999,7065,banana,NF,C,,,,,,,,,,15
14,prac,1,inc,1,m,Wed Mar 19 2025 16:13:52 GMT-0500 (Central Daylight Time),199208.30000000005,cherry,900,I,m,,,989,,,10,1,3194.3000000000466,196014.0,7065,copper,NF,C,,,,,,,,,,16
1,test,1,inc,1,z,Wed Mar 19 2025 16:13:52 GMT-0500 (Central Daylight Time),213370.80000000005,lead,1100,I,z,z,None,897,697.0,200.0,64,1,2528.600000000093,210842.19999999995,7065,plum,NF,C,205892,205892,204063,205176,204064,206592,205692,205692,206592,1
2,test,1,con,1,z,Wed Mar 19 2025 16:13:52 GMT-0500 (Central Daylight Time),215619.8999999999,pear,900,I,z,z,None,811,612.0,199.0,42,1,2244.0999999998603,213375.80000000005,7065,pear,NF,C,208225,208225,206597,207508,206597,208841,208025,208026,208841,2
3,test,1,con,1,m,Wed Mar 19 2025 16:13:52 GMT-0500 (Central Daylight Time),218019.30000000005,iron,900,I,m,m,None,964,764.0,200.0,106,1,2395.100000000093,215624.19999999995,7065,iron,NF,C,210474,210474,208845,209758,208846,211240,210274,210274,211240,3
4,test,1,inc,1,z,Wed Mar 19 2025 16:13:52 GMT-0500 (Central Daylight Time),220185.19999999995,bronze,800,I,z,z,None,817,617.0,200.0,21,1,2162.100000000093,218023.09999999986,7065,orange,NF,C,212773,212773,211244,212057,211244,213406,212573,212573,213406,4
5,test,1,inc,1,m,Wed Mar 19 2025 16:13:52 GMT-0500 (Central Daylight Time),222601.09999999986,banana,800,I,m,m,None,1082,883.0,199.0,69,1,2411.7999999998137,220189.30000000005,7065,bronze,NF,C,214939,214939,213410,214223,213411,215822,214740,214740,215822,5
6,test,1,inc,1,z,Wed Mar 19 2025 16:13:52 GMT-0500 (Central Daylight Time),225150.30000000005,cobalt,1100,I,z,z,None,909,710.0,199.0,24,1,2545.2000000001863,222605.09999999986,7065,orange,NF,C,217655,217655,215826,216939,215826,218371,217455,217456,218371,6
7,test,1,con,1,m,Wed Mar 19 2025 16:13:52 GMT-0500 (Central Daylight Time),227549.5,bronze,800,I,m,m,None,1060,861.0,199.0,65,1,2395.3000000000466,225154.19999999995,7065,bronze,NF,C,219904,219905,218375,219188,218376,220771,219705,219705,220771,7
8,test,1,con,1,m,Wed Mar 19 2025 16:13:52 GMT-0500 (Central Daylight Time),229932.19999999995,cobalt,900,I,m,m,None,937,738.0,199.0,90,1,2378.5,227553.69999999995,7065,cobalt,NF,C,222404,222404,220775,221687,220775,223153,222204,222204,223153,8
9,test,1,con,1,m,Wed Mar 19 2025 16:13:52 GMT-0500 (Central Daylight Time),232298.09999999986,copper,800,I,m,m,None,1032,832.0,200.0,73,1,2362.0,229936.09999999986,7065,copper,NF,C,224686,224686,223157,223970,223158,225519,224486,224486,225519,9
10,test,1,con,1,m,Wed Mar 19 2025 16:13:52 GMT-0500 (Central Daylight Time),234664.19999999995,cobalt,800,I,m,m,None,1026,826.0,200.0,89,1,2362.100000000093,232302.09999999986,7065,cobalt,NF,C,227052,227052,225523,226336,225523,227885,226852,226852,227885,10
11,test,1,inc,1,z,Wed Mar 19 2025 16:13:52 GMT-0500 (Central Daylight Time),236946.59999999986,iron,900,I,z,z,None,840,640.0,200.0,46,1,2278.0,234668.59999999986,7065,pear,NF,C,229518,229518,227890,228802,227890,230168,229318,229318,230168,11
12,test,1,con,1,z,Wed Mar 19 2025 16:13:52 GMT-0500 (Central Daylight Time),239129.30000000005,banana,800,I,z,z,None,848,649.0,199.0,1,1,2178.600000000093,236950.69999999995,7065,banana,NF,C,231700,231701,230172,230984,230172,232350,231501,231501,232350,12
13,test,1,con,1,z,Wed Mar 19 2025 16:13:52 GMT-0500 (Central Daylight Time),241328.5,lime,800,I,z,z,None,849,650.0,199.0,33,1,2195.3000000000466,239133.19999999995,7065,lime,NF,C,233883,233883,232354,233167,232354,234550,233684,233684,234550,13
14,test,1,con,1,m,Wed Mar 19 2025 16:13:52 GMT-0500 (Central Daylight Time),243694.5,copper,900,I,m,m,None,927,727.0,200.0,74,1,2362.0,241332.5,7065,copper,NF,C,236183,236183,234554,235466,234554,236916,235983,235983,236916,14
15,test,1,inc,1,m,Wed Mar 19 2025 16:13:52 GMT-0500 (Central Daylight Time),246160.30000000005,cherry,900,I,m,m,None,1025,826.0,199.0,70,1,2462.0,243698.30000000005,7065,bronze,NF,C,238548,238548,236919,237833,236920,239381,238349,238349,239381,15
16,test,1,con,1,z,Wed Mar 19 2025 16:13:52 GMT-0500 (Central Daylight Time),248359.5,cherry,800,I,z,z,None,858,659.0,199.0,9,1,2195.5,246164.0,7065,cherry,NF,C,240914,240914,239385,240198,239385,241581,240715,240715,241581,16
17,test,1,inc,1,z,Wed Mar 19 2025 16:13:52 GMT-0500 (Central Daylight Time),250625.3999999999,bronze,800,I,z,z,None,930,715.0,215.0,5,1,2261.6999999999534,248363.69999999995,7065,banana,NF,C,243131,243131,241585,242398,241585,243846,242915,242915,243846,17
18,test,1,inc,1,z,Wed Mar 19 2025 16:13:52 GMT-0500 (Central Daylight Time),253008.3999999999,zinc,1000,I,z,z,None,840,641.0,199.0,63,1,2379.1999999999534,250629.19999999995,7065,plum,NF,C,245579,245580,243850,244863,243851,246229,245380,245380,246229,18
19,test,1,inc,1,z,Wed Mar 19 2025 16:13:52 GMT-0500 (Central Daylight Time),255319.30000000005,gold,800,I,z,z,None,977,776.0,201.0,37,1,2307.3000000000466,253012.0,7065,lime,NF,C,247764,247764,246233,247046,246233,248540,247562,247562,248540,19
20,test,1,con,1,m,Wed Mar 19 2025 16:13:52 GMT-0500 (Central Daylight Time),257889.8999999999,cobalt,1000,I,m,m,None,1024,824.0,200.0,91,1,2566.0999999998603,255323.80000000005,7065,cobalt,NF,C,250278,250278,248545,249562,248545,251111,250078,250078,251111,20
21,test,1,inc,1,z,Wed Mar 19 2025 16:13:52 GMT-0500 (Central Daylight Time),260322.5,zinc,1000,I,z,z,None,890,689.0,201.0,55,1,2428.0,257894.5,7065,kiwi,NF,C,252845,252845,251116,252128,251116,253544,252644,252644,253544,21
22,test,1,inc,1,z,Wed Mar 19 2025 16:13:52 GMT-0500 (Central Daylight Time),262571.5,bronze,800,I,z,z,None,911,712.0,199.0,29,1,2243.8000000000466,260327.69999999995,7065,raisin,NF,C,255077,255077,253549,254361,253549,255793,254877,254877,255793,22
23,test,1,inc,1,m,Wed Mar 19 2025 16:13:52 GMT-0500 (Central Daylight Time),264921.09999999986,banana,800,I,m,m,None,1015,816.0,199.0,85,1,2345.7999999998137,262575.30000000005,7065,silver,NF,C,257326,257326,255796,256610,255797,258142,257127,257127,258142,23
24,test,1,inc,1,m,Wed Mar 19 2025 16:13:52 GMT-0500 (Central Daylight Time),267353.59999999986,lime,800,I,m,m,None,1090,891.0,199.0,109,1,2427.399999999907,264926.19999999995,7065,iron,NF,C,259675,259675,258147,258959,258148,260575,259476,259476,260575,24
25,test,1,con,1,z,Wed Mar 19 2025 16:13:52 GMT-0500 (Central Daylight Time),269686.30000000005,plum,1000,I,z,z,None,793,593.0,200.0,59,1,2329.0,267357.30000000005,7065,plum,NF,C,262308,262308,260578,261591,260579,262907,262108,262108,262907,25
26,test,1,inc,1,m,Wed Mar 19 2025 16:13:52 GMT-0500 (Central Daylight Time),272102.19999999995,cherry,900,I,m,m,None,969,770.0,199.0,78,1,2412.100000000093,269690.09999999986,7065,copper,NF,C,264540,264540,262911,263824,262912,265323,264341,264341,265323,26
27,test,1,con,1,z,Wed Mar 19 2025 16:13:52 GMT-0500 (Central Daylight Time),274668.09999999986,cherry,1000,I,z,z,None,1030,830.0,200.0,11,1,2561.6999999999534,272106.3999999999,7065,cherry,NF,C,267056,267056,265327,266340,265328,267889,266856,266856,267889,27
28,test,1,inc,1,z,Wed Mar 19 2025 16:13:52 GMT-0500 (Central Daylight Time),277267.30000000005,cobalt,1100,I,z,z,None,962,763.0,199.0,8,1,2595.3000000000466,274672.0,7065,banana,NF,C,269722,269722,267893,269006,267893,270488,269523,269523,270488,28
29,test,1,inc,1,z,Wed Mar 19 2025 16:13:52 GMT-0500 (Central Daylight Time),279966.3999999999,lead,1100,I,z,z,None,953,744.0,209.0,40,1,2695.3000000000466,277271.09999999986,7065,lime,NF,C,272438,272438,270492,271605,270492,273188,272228,272228,273187,29
30,test,1,con,1,z,Wed Mar 19 2025 16:13:52 GMT-0500 (Central Daylight Time),282466.59999999986,raisin,1100,I,z,z,None,864,665.0,199.0,28,1,2496.5,279970.09999999986,7065,raisin,NF,C,275020,275020,273191,274304,273191,275688,274821,274821,275688,30
31,test,1,con,1,z,Wed Mar 19 2025 16:13:52 GMT-0500 (Central Daylight Time),284664.69999999995,orange,800,I,z,z,None,866,666.0,200.0,17,1,2194.0,282470.69999999995,7065,orange,NF,C,277220,277220,275692,276503,275692,277886,277020,277020,277886,31
32,test,1,con,1,z,Wed Mar 19 2025 16:13:52 GMT-0500 (Central Daylight Time),287014.19999999995,banana,900,I,z,z,None,902,702.0,200.0,2,1,2345.8000000000466,284668.3999999999,7065,banana,NF,C,279519,279519,277889,278802,277890,280235,279319,279319,280235,32
33,test,1,inc,1,z,Wed Mar 19 2025 16:13:52 GMT-0500 (Central Daylight Time),289346.59999999986,copper,900,I,z,z,None,889,689.0,200.0,14,1,2328.2999999998137,287018.30000000005,7065,cherry,NF,C,281868,281868,280239,281152,280240,282568,281668,281668,282568,33
34,test,1,inc,1,m,Wed Mar 19 2025 16:13:52 GMT-0500 (Central Daylight Time),291962.69999999995,raisin,1100,I,m,m,None,981,781.0,200.0,80,1,2612.3000000000466,289350.3999999999,7065,copper,NF,C,284401,284401,282571,283684,282572,285184,284201,284201,285184,34
35,test,1,con,1,m,Wed Mar 19 2025 16:13:52 GMT-0500 (Central Daylight Time),294329.09999999986,gold,900,I,m,m,None,933,733.0,200.0,98,1,2362.7999999998137,291966.30000000005,7065,gold,NF,C,286817,286817,285187,286101,285188,287550,286617,286617,287550,35
36,test,1,inc,1,z,Wed Mar 19 2025 16:13:52 GMT-0500 (Central Daylight Time),296694.3999999999,silver,1000,I,z,z,None,817,618.0,199.0,23,1,2361.5,294332.8999999999,7065,orange,NF,C,289283,289283,287554,288566,287554,289915,289083,289083,289915,36
37,test,1,inc,1,z,Wed Mar 19 2025 16:13:52 GMT-0500 (Central Daylight Time),299127.0,silver,1000,I,z,z,None,884,685.0,199.0,15,1,2428.6999999999534,296698.30000000005,7065,cherry,NF,C,291649,291649,289919,290933,289920,292348,291449,291449,292348,37
38,test,1,inc,1,m,Wed Mar 19 2025 16:13:52 GMT-0500 (Central Daylight Time),302540.8999999999,orange,1000,I,m,m,None,1734,1534.0,200.0,87,1,3410.0,299130.8999999999,7065,silver,NF,C,294081,294081,292352,293365,292352,295762,293881,293881,295762,38
39,test,1,inc,1,z,Wed Mar 19 2025 16:13:52 GMT-0500 (Central Daylight Time),304725.5,gold,800,I,z,z,None,837,637.0,200.0,45,1,2180.4000000001397,302545.09999999986,7065,pear,NF,C,297297,297297,295766,296580,295766,297947,297097,297097,297947,39
40,test,1,con,1,z,Wed Mar 19 2025 16:13:52 GMT-0500 (Central Daylight Time),307074.59999999986,kiwi,1000,I,z,z,None,814,615.0,199.0,51,1,2345.0,304729.59999999986,7065,kiwi,NF,C,299679,299679,297951,298963,297951,300296,299480,299480,300296,40
41,test,1,inc,1,m,Wed Mar 19 2025 16:13:52 GMT-0500 (Central Daylight Time),309423.80000000005,lime,800,I,m,m,None,1000,800.0,200.0,125,1,2345.600000000093,307078.19999999995,7065,lead,NF,C,301829,301829,300299,301112,300300,302645,301629,301629,302645,41
42,test,1,inc,1,z,Wed Mar 19 2025 16:13:52 GMT-0500 (Central Daylight Time),311706.59999999986,iron,900,I,z,z,None,839,639.0,200.0,54,1,2278.899999999907,309427.69999999995,7065,kiwi,NF,C,304278,304278,302649,303562,302649,304928,304078,304078,304928,42
43,test,1,con,1,m,Wed Mar 19 2025 16:13:52 GMT-0500 (Central Daylight Time),313955.59999999986,zinc,900,I,m,m,None,811,612.0,199.0,114,1,2245.5,311710.09999999986,7065,zinc,NF,C,306561,306561,304931,305844,304931,307177,306361,306361,307177,43
44,test,1,con,1,m,Wed Mar 19 2025 16:13:52 GMT-0500 (Central Daylight Time),316521.19999999995,iron,1100,I,m,m,None,931,731.0,200.0,108,1,2561.8000000000466,313959.3999999999,7065,iron,NF,C,309010,309010,307180,308293,307181,309742,308810,308810,309742,44
45,test,1,con,1,z,Wed Mar 19 2025 16:13:52 GMT-0500 (Central Daylight Time),318954.09999999986,banana,1100,I,z,z,None,788,589.0,199.0,4,1,2429.0,316525.09999999986,7065,banana,NF,C,311576,311576,309746,310859,309747,312175,311376,311376,312175,45
46,test,1,con,1,z,Wed Mar 19 2025 16:13:52 GMT-0500 (Central Daylight Time),321253.3999999999,orange,900,I,z,z,None,861,661.0,200.0,18,1,2295.5,318957.8999999999,7065,orange,NF,C,313808,313808,312179,313092,312179,314474,313608,313608,314474,46
47,test,1,con,1,z,Wed Mar 19 2025 16:13:52 GMT-0500 (Central Daylight Time),323686.0,raisin,1000,I,z,z,None,893,694.0,199.0,27,1,2428.5,321257.5,7065,raisin,NF,C,316208,316208,314479,315491,314479,316907,316008,316008,316907,47
48,test,1,con,1,z,Wed Mar 19 2025 16:13:52 GMT-0500 (Central Daylight Time),326201.5,lime,1100,I,z,z,None,873,673.0,200.0,36,1,2511.9000000001397,323689.59999999986,7065,lime,NF,C,318740,318740,316911,318024,316911,319423,318540,318540,319423,48
49,test,1,inc,1,m,Wed Mar 19 2025 16:13:52 GMT-0500 (Central Daylight Time),328884.3999999999,orange,1000,I,m,m,None,1138,938.0,200.0,79,1,2676.5,326207.8999999999,7065,copper,NF,C,321156,321156,319429,320440,319429,322105,320956,320956,322105,49
50,test,1,inc,1,m,Wed Mar 19 2025 16:13:52 GMT-0500 (Central Daylight Time),331250.59999999986,banana,800,I,m,m,None,1029,830.0,199.0,77,1,2362.1999999999534,328888.3999999999,7065,copper,NF,C,323639,323639,322109,322922,322110,324472,323439,323439,324471,50
51,test,1,inc,1,m,Wed Mar 19 2025 16:13:52 GMT-0500 (Central Daylight Time),333832.69999999995,plum,1100,I,m,m,None,940,740.0,200.0,128,1,2578.100000000093,331254.59999999986,7065,lead,NF,C,326305,326305,324476,325588,324476,327054,326104,326104,327054,51
52,test,1,con,1,m,Wed Mar 19 2025 16:13:52 GMT-0500 (Central Daylight Time),336182.0,zinc,800,I,m,m,None,1002,803.0,199.0,113,1,2345.6999999999534,333836.30000000005,7065,zinc,NF,C,328587,328587,327057,327871,327058,329403,328387,328387,329403,52
53,test,1,inc,1,m,Wed Mar 19 2025 16:13:52 GMT-0500 (Central Daylight Time),338581.3999999999,pear,900,I,m,m,None,953,754.0,199.0,118,1,2395.8000000000466,336185.59999999986,7065,zinc,NF,C,331036,331036,329407,330320,329407,331802,330837,330837,331802,53
54,test,1,con,1,z,Wed Mar 19 2025 16:13:52 GMT-0500 (Central Daylight Time),341080.5,orange,1100,I,z,z,None,858,659.0,199.0,20,1,2495.3000000000466,338585.19999999995,7065,orange,NF,C,333635,333635,331806,332919,331807,334302,333436,333436,334302,54
55,test,1,con,1,m,Wed Mar 19 2025 16:13:52 GMT-0500 (Central Daylight Time),343696.3999999999,copper,1100,I,m,m,None,965,766.0,199.0,76,1,2612.0,341084.3999999999,7065,copper,NF,C,336135,336135,334305,335418,334306,336918,335935,335935,336917,55
56,test,1,con,1,z,Wed Mar 19 2025 16:13:52 GMT-0500 (Central Daylight Time),345979.0,cherry,900,I,z,z,None,847,648.0,199.0,10,1,2278.9000000001397,343700.09999999986,7065,cherry,NF,C,338550,338550,336921,337835,336921,339200,338351,338351,339200,56
57,test,1,inc,1,m,Wed Mar 19 2025 16:13:52 GMT-0500 (Central Daylight Time),348294.80000000005,pear,900,I,m,m,None,876,676.0,200.0,102,1,2312.2000000001863,345982.59999999986,7065,gold,NF,C,340833,340833,339204,340117,339204,341516,340633,340633,341516,57
58,test,1,con,1,m,Wed Mar 19 2025 16:13:52 GMT-0500 (Central Daylight Time),350610.8999999999,lead,900,I,m,m,None,872,673.0,199.0,122,1,2312.399999999907,348298.5,7065,lead,NF,C,343149,343149,341519,342433,341520,343832,342950,342950,343832,58
59,test,1,inc,1,z,Wed Mar 19 2025 16:13:52 GMT-0500 (Central Daylight Time),352760.19999999995,gold,800,I,z,z,None,808,608.0,200.0,53,1,2145.600000000093,350614.59999999986,7065,kiwi,NF,C,345365,345365,343836,344649,343836,345981,345165,345165,345981,59
60,test,1,inc,1,z,Wed Mar 19 2025 16:13:52 GMT-0500 (Central Daylight Time),355126.09999999986,zinc,1000,I,z,z,None,819,619.0,200.0,47,1,2361.7999999998137,352764.30000000005,7065,pear,NF,C,347714,347714,345985,346998,345986,348347,347514,347514,348347,60
61,test,1,con,1,z,Wed Mar 19 2025 16:13:52 GMT-0500 (Central Daylight Time),357458.59999999986,orange,1000,I,z,z,None,790,590.0,200.0,19,1,2328.5,355130.09999999986,7065,orange,NF,C,350080,350080,348351,349364,348351,350680,349880,349880,350680,61
62,test,1,con,1,z,Wed Mar 19 2025 16:13:52 GMT-0500 (Central Daylight Time),359841.59999999986,lime,900,I,z,z,None,941,741.0,200.0,34,1,2379.2999999998137,357462.30000000005,7065,lime,NF,C,352313,352313,350683,351596,350684,353063,352113,352113,353063,62
63,test,1,inc,1,m,Wed Mar 19 2025 16:13:52 GMT-0500 (Central Daylight Time),362257.0,kiwi,1000,I,m,m,None,883,683.0,200.0,103,1,2411.8000000000466,359845.19999999995,7065,gold,NF,C,354795,354795,353066,354080,353066,355478,354595,354595,355478,63
64,test,1,con,1,m,Wed Mar 19 2025 16:13:52 GMT-0500 (Central Daylight Time),364956.30000000005,iron,1000,I,m,m,None,1154,954.0,200.0,107,1,2695.7000000001863,362260.59999999986,7065,iron,NF,C,357211,357211,355482,356495,355482,358177,357011,357011,358177,64
65,test,1,con,1,m,Wed Mar 19 2025 16:13:52 GMT-0500 (Central Daylight Time),367572.09999999986,zinc,1100,I,m,m,None,971,771.0,200.0,116,1,2611.5999999998603,364960.5,7065,zinc,NF,C,360010,360010,358182,359294,358182,360793,359810,359810,360793,65
66,test,1,con,1,z,Wed Mar 19 2025 16:13:52 GMT-0500 (Central Daylight Time),369738.19999999995,pear,800,I,z,z,None,821,622.0,199.0,41,1,2162.600000000093,367575.59999999986,7065,pear,NF,C,362327,362327,360797,361610,360797,362959,362127,362127,362959,66
67,test,1,con,1,z,Wed Mar 19 2025 16:13:52 GMT-0500 (Central Daylight Time),371954.09999999986,plum,800,I,z,z,None,881,682.0,199.0,57,1,2212.0999999998603,369742.0,7065,plum,NF,C,364492,364492,362963,363776,362963,365175,364293,364293,365175,67
68,test,1,inc,1,z,Wed Mar 19 2025 16:13:52 GMT-0500 (Central Daylight Time),374386.80000000005,silver,1000,I,z,z,None,864,665.0,199.0,31,1,2429.0,371957.80000000005,7065,raisin,NF,C,366941,366941,365179,366239,365179,367608,366742,366742,367608,68
69,test,1,inc,1,z,Wed Mar 19 2025 16:13:52 GMT-0500 (Central Daylight Time),376719.5,copper,900,I,z,z,None,891,692.0,199.0,6,1,2328.9000000001397,374390.59999999986,7065,banana,NF,C,369241,369241,367612,368525,367612,369941,369041,369041,369940,69
70,test,1,inc,1,m,Wed Mar 19 2025 16:13:52 GMT-0500 (Central Daylight Time),379268.3999999999,cherry,900,I,m,m,None,1111,912.0,199.0,94,1,2544.899999999907,376723.5,7065,cobalt,NF,C,371573,371573,369944,370857,369945,372489,371374,371374,372489,70
71,test,1,inc,1,z,Wed Mar 19 2025 16:13:52 GMT-0500 (Central Daylight Time),381501.19999999995,gold,800,I,z,z,None,894,695.0,199.0,61,1,2229.1999999999534,379272.0,7065,plum,NF,C,374023,374023,372493,373307,372493,374722,373823,373823,374722,71
72,test,1,con,1,z,Wed Mar 19 2025 16:13:52 GMT-0500 (Central Daylight Time),383867.19999999995,pear,1000,I,z,z,None,829,630.0,199.0,43,1,2362.1999999999534,381505.0,7065,pear,NF,C,376455,376455,374726,375739,374726,377088,376256,376256,377088,72
73,test,1,con,1,z,Wed Mar 19 2025 16:13:52 GMT-0500 (Central Daylight Time),386333.0,lime,1000,I,z,z,None,921,721.0,200.0,35,1,2462.4000000001397,383870.59999999986,7065,lime,NF,C,378821,378821,377092,378105,377092,379554,378621,378621,379554,73
74,test,1,inc,1,z,Wed Mar 19 2025 16:13:52 GMT-0500 (Central Daylight Time),388616.69999999995,iron,900,I,z,z,None,842,642.0,200.0,62,1,2279.899999999907,386336.80000000005,7065,plum,NF,C,381187,381187,379558,380471,379558,381838,380987,380987,381838,74
75,test,1,con,1,z,Wed Mar 19 2025 16:13:52 GMT-0500 (Central Daylight Time),391064.80000000005,plum,1100,I,z,z,None,815,616.0,199.0,60,1,2444.100000000093,388620.69999999995,7065,plum,NF,C,383670,383670,381842,382953,381842,384286,383470,383470,384286,75
76,test,1,inc,1,m,Wed Mar 19 2025 16:13:52 GMT-0500 (Central Daylight Time),393430.69999999995,pear,900,I,m,m,None,926,726.0,200.0,110,1,2362.1999999999534,391068.5,7065,iron,NF,C,385919,385919,384290,385203,384290,386652,385719,385719,386652,76
77,test,1,con,1,z,Wed Mar 19 2025 16:13:52 GMT-0500 (Central Daylight Time),395879.80000000005,kiwi,1100,I,z,z,None,799,600.0,199.0,52,1,2445.5,393434.30000000005,7065,kiwi,NF,C,388485,388485,386655,387768,386656,389101,388285,388285,389101,77
78,test,1,con,1,z,Wed Mar 19 2025 16:13:52 GMT-0500 (Central Daylight Time),398146.8999999999,kiwi,800,I,z,z,None,947,747.0,200.0,49,1,2263.1999999999534,395883.69999999995,7065,kiwi,NF,C,390619,390619,389105,389912,389105,391368,390418,390418,391368,78
79,test,1,inc,1,z,Wed Mar 19 2025 16:13:52 GMT-0500 (Central Daylight Time),400645.09999999986,lead,1100,I,z,z,None,861,661.0,200.0,56,1,2494.1999999999534,398150.8999999999,7065,kiwi,NF,C,393200,393200,391372,392484,391372,393866,393000,393000,393866,79
80,test,1,inc,1,m,Wed Mar 19 2025 16:13:52 GMT-0500 (Central Daylight Time),403244.3999999999,raisin,1100,I,m,m,None,955,755.0,200.0,96,1,2595.5,400648.8999999999,7065,cobalt,NF,C,395699,395699,393870,394983,393870,396465,395499,395499,396465,80
81,test,1,inc,1,m,Wed Mar 19 2025 16:13:52 GMT-0500 (Central Daylight Time),405827.0,raisin,1100,I,m,m,None,947,748.0,199.0,88,1,2579.0,403248.0,7065,silver,NF,C,398298,398298,396469,397582,396469,399048,398099,398099,399048,81
82,test,1,inc,1,m,Wed Mar 19 2025 16:13:52 GMT-0500 (Central Daylight Time),408092.8999999999,banana,800,I,m,m,None,920,720.0,200.0,93,1,2262.3000000000466,405830.59999999986,7065,cobalt,NF,C,400581,400581,399052,399865,399052,401314,400381,400381,401314,82
83,test,1,con,1,z,Wed Mar 19 2025 16:13:52 GMT-0500 (Central Daylight Time),410242.30000000005,raisin,800,I,z,z,None,807,607.0,200.0,25,1,2145.7000000001863,408096.59999999986,7065,raisin,NF,C,402847,402847,401318,402131,401318,403463,402647,402647,403463,83
84,test,1,inc,1,m,Wed Mar 19 2025 16:13:52 GMT-0500 (Central Daylight Time),412758.0,orange,1000,I,m,m,None,977,777.0,200.0,71,1,2512.0,410246.0,7065,bronze,NF,C,405196,405196,403467,404480,403467,405979,404996,404996,405979,84
85,test,1,con,1,m,Wed Mar 19 2025 16:13:52 GMT-0500 (Central Daylight Time),415240.5,bronze,1000,I,m,m,None,949,749.0,200.0,67,1,2478.600000000093,412761.8999999999,7065,bronze,NF,C,407712,407712,405983,406996,405983,408462,407512,407512,408462,85
86,test,1,con,1,m,Wed Mar 19 2025 16:13:52 GMT-0500 (Central Daylight Time),417506.30000000005,silver,800,I,m,m,None,931,731.0,200.0,81,1,2262.3000000000466,415244.0,7065,silver,NF,C,409995,409995,408465,409278,408465,410727,409795,409795,410727,86
87,test,1,con,1,z,Wed Mar 19 2025 16:13:52 GMT-0500 (Central Daylight Time),420234.09999999986,raisin,900,I,z,z,None,1146,947.0,199.0,26,1,2724.399999999907,417509.69999999995,7065,raisin,NF,C,412361,412361,410731,411644,410731,413455,412161,412161,413455,87
88,test,1,con,1,m,Wed Mar 19 2025 16:13:52 GMT-0500 (Central Daylight Time),422721.30000000005,silver,1000,I,m,m,None,965,766.0,199.0,83,1,2483.3000000000466,420238.0,7065,silver,NF,C,415176,415176,413459,414460,413459,415942,414977,414977,415942,88
89,test,1,con,1,z,Wed Mar 19 2025 16:13:52 GMT-0500 (Central Daylight Time),425121.09999999986,kiwi,900,I,z,z,None,949,750.0,199.0,50,1,2396.2999999998137,422724.80000000005,7065,kiwi,NF,C,417576,417576,415946,416859,415946,418342,417376,417376,418342,89
90,test,1,con,1,m,Wed Mar 19 2025 16:13:52 GMT-0500 (Central Daylight Time),427403.69999999995,lead,1000,I,m,m,None,739,539.0,200.0,123,1,2278.8000000000466,425124.8999999999,7065,lead,NF,C,420075,420075,418346,419358,418346,420625,419875,419875,420625,90
91,test,1,inc,1,m,Wed Mar 19 2025 16:13:52 GMT-0500 (Central Daylight Time),430035.69999999995,lime,800,I,m,m,None,1287,1088.0,199.0,117,1,2628.600000000093,427407.09999999986,7065,zinc,NF,C,422157,422158,420628,421441,420628,423257,421958,421958,423257,91
92,test,1,inc,1,z,Wed Mar 19 2025 16:13:52 GMT-0500 (Central Daylight Time),432218.3999999999,bronze,800,I,z,z,None,847,647.0,200.0,13,1,2178.899999999907,430039.5,7065,cherry,NF,C,424790,424790,423261,424073,423261,425440,424590,424590,425439,92
93,test,1,con,1,m,Wed Mar 19 2025 16:13:52 GMT-0500 (Central Daylight Time),434467.59999999986,gold,800,I,m,m,None,905,705.0,200.0,97,1,2245.5999999998603,432222.0,7065,gold,NF,C,426972,426972,425443,426256,425443,427689,426772,426772,427689,93
94,test,1,inc,1,z,Wed Mar 19 2025 16:13:52 GMT-0500 (Central Daylight Time),437000.59999999986,zinc,1000,I,z,z,None,999,800.0,199.0,39,1,2529.1999999999534,434471.3999999999,7065,lime,NF,C,429405,429405,427692,428705,427693,430222,429206,429206,430222,94
95,test,1,inc,1,m,Wed Mar 19 2025 16:13:52 GMT-0500 (Central Daylight Time),439482.69999999995,kiwi,1000,I,m,m,None,946,747.0,199.0,119,1,2478.3000000000466,437004.3999999999,7065,zinc,NF,C,431955,431955,430225,431238,430226,432704,431755,431755,432704,95
96,test,1,inc,1,m,Wed Mar 19 2025 16:13:52 GMT-0500 (Central Daylight Time),441915.3999999999,kiwi,1000,I,m,m,None,896,696.0,200.0,127,1,2428.3000000000466,439487.09999999986,7065,lead,NF,C,434437,434437,432708,433721,432709,435136,434237,434237,435136,96
97,test,1,con,1,m,Wed Mar 19 2025 16:13:52 GMT-0500 (Central Daylight Time),444548.0,bronze,1100,I,m,m,None,892,688.0,204.0,68,1,2628.600000000093,441919.3999999999,7065,bronze,NF,C,437069,437069,435140,436253,435141,437769,436865,436865,437769,97
98,test,1,con,1,z,Wed Mar 19 2025 16:13:52 GMT-0500 (Central Daylight Time),446814.0,plum,900,I,z,z,None,819,620.0,199.0,58,1,2261.8000000000466,444552.19999999995,7065,plum,NF,C,439402,439402,437773,438686,437774,440035,439203,439203,440035,98
99,test,1,inc,1,z,Wed Mar 19 2025 16:13:52 GMT-0500 (Central Daylight Time),449246.5,cobalt,1100,I,z,z,None,794,594.0,200.0,32,1,2429.0,446817.5,7065,raisin,NF,C,441868,441868,440039,441152,440039,442468,441668,441668,442468,99
100,test,1,inc,1,m,Wed Mar 19 2025 16:13:52 GMT-0500 (Central Daylight Time),451528.8999999999,pear,900,I,m,m,None,839,640.0,199.0,126,1,2278.5999999998603,449250.30000000005,7065,lead,NF,C,444101,444101,442471,443384,442472,444750,443902,443902,444750,100
101,test,1,con,1,m,Wed Mar 19 2025 16:13:52 GMT-0500 (Central Daylight Time),454111.80000000005,gold,1100,I,m,m,None,933,734.0,199.0,100,1,2579.2000000001863,451532.59999999986,7065,gold,NF,C,446583,446583,444754,445867,444754,447333,446384,446384,447333,101
102,test,1,inc,1,z,Wed Mar 19 2025 16:13:52 GMT-0500 (Central Daylight Time),456544.30000000005,cobalt,1100,I,z,z,None,790,591.0,199.0,16,1,2428.8000000000466,454115.5,7065,cherry,NF,C,449166,449166,447337,448450,447337,449765,448966,448966,449765,102
103,test,1,inc,1,m,Wed Mar 19 2025 16:13:52 GMT-0500 (Central Daylight Time),459060.09999999986,plum,1100,I,m,m,None,880,680.0,200.0,104,1,2512.1999999999534,456547.8999999999,7065,gold,NF,C,451598,451598,449769,450882,449769,452281,451398,451398,452281,103
104,test,1,con,1,m,Wed Mar 19 2025 16:13:52 GMT-0500 (Central Daylight Time),461326.19999999995,lead,800,I,m,m,None,928,728.0,200.0,121,1,2262.399999999907,459063.80000000005,7065,lead,NF,C,453814,453814,452285,453098,452285,454547,453614,453614,454547,104
105,test,1,con,1,m,Wed Mar 19 2025 16:13:52 GMT-0500 (Central Daylight Time),463741.8999999999,copper,1000,I,m,m,None,869,669.0,200.0,75,1,2411.899999999907,461330.0,7065,copper,NF,C,456280,456280,454551,455564,454551,456963,456080,456080,456963,105
106,test,1,inc,1,m,Wed Mar 19 2025 16:13:52 GMT-0500 (Central Daylight Time),466241.0,raisin,1100,I,m,m,None,865,665.0,200.0,72,1,2495.1999999999534,463745.80000000005,7065,bronze,NF,C,458796,458796,456967,458080,456967,459462,458596,458596,459462,106
107,test,1,inc,1,z,Wed Mar 19 2025 16:13:52 GMT-0500 (Central Daylight Time),468690.69999999995,lead,1100,I,z,z,None,822,623.0,199.0,48,1,2446.0,466244.69999999995,7065,pear,NF,C,461279,461279,459466,460573,459466,461912,461079,461079,461912,107
108,test,1,inc,1,m,Wed Mar 19 2025 16:13:52 GMT-0500 (Central Daylight Time),470906.5,lime,800,I,m,m,None,879,680.0,199.0,101,1,2212.1999999999534,468694.30000000005,7065,gold,NF,C,463445,463445,461915,462728,461916,464128,463245,463245,464127,108
109,test,1,inc,1,z,Wed Mar 19 2025 16:13:52 GMT-0500 (Central Daylight Time),473172.30000000005,copper,900,I,z,z,None,819,620.0,199.0,30,1,2262.100000000093,470910.19999999995,7065,raisin,NF,C,465761,465761,464131,465044,464132,466394,465561,465561,466393,109
110,test,1,inc,1,m,Wed Mar 19 2025 16:13:52 GMT-0500 (Central Daylight Time),475638.0,plum,1100,I,m,m,None,817,617.0,200.0,120,1,2461.5,473176.5,7065,zinc,NF,C,468228,468228,466398,467510,466398,468859,468027,468027,468859,110
111,test,1,con,1,z,Wed Mar 19 2025 16:13:52 GMT-0500 (Central Daylight Time),477970.8999999999,banana,1000,I,z,z,None,797,597.0,200.0,3,1,2328.399999999907,475642.5,7065,banana,NF,C,470592,470592,468863,469876,468864,471192,470392,470392,471192,111
112,test,1,con,1,m,Wed Mar 19 2025 16:13:52 GMT-0500 (Central Daylight Time),480220.09999999986,silver,900,I,m,m,None,812,612.0,200.0,82,1,2245.6999999999534,477974.3999999999,7065,silver,NF,C,472825,472825,471195,472109,471196,473441,472625,472625,473441,112
113,test,1,con,1,m,Wed Mar 19 2025 16:13:52 GMT-0500 (Central Daylight Time),482736.09999999986,gold,1000,I,m,m,None,976,776.0,200.0,99,1,2512.5,480223.59999999986,7065,gold,NF,C,475174,475174,473445,474458,473445,475957,474974,474974,475957,113
114,test,1,inc,1,m,Wed Mar 19 2025 16:13:52 GMT-0500 (Central Daylight Time),485168.5,orange,1000,I,m,m,None,892,692.0,200.0,95,1,2429.0,482739.5,7065,cobalt,NF,C,477690,477690,475961,476974,475961,478390,477490,477490,478389,114
115,test,1,con,1,m,Wed Mar 19 2025 16:13:52 GMT-0500 (Central Daylight Time),487667.80000000005,zinc,1000,I,m,m,None,962,763.0,199.0,115,1,2495.3000000000466,485172.5,7065,zinc,NF,C,480123,480123,478394,479406,478394,480889,479923,479923,480889,115
116,test,1,con,1,m,Wed Mar 19 2025 16:13:52 GMT-0500 (Central Daylight Time),490033.59999999986,bronze,900,I,m,m,None,932,732.0,200.0,66,1,2362.0999999998603,487671.5,7065,bronze,NF,C,482522,482522,480893,481805,480893,483255,482322,482322,483255,116
117,test,1,inc,1,m,Wed Mar 19 2025 16:13:52 GMT-0500 (Central Daylight Time),492634.30000000005,plum,1100,I,m,m,None,957,758.0,199.0,112,1,2597.2000000001863,490037.09999999986,7065,iron,NF,C,485088,485088,483258,484371,483258,485855,484888,484888,485855,117
118,test,1,inc,1,z,Wed Mar 19 2025 16:13:52 GMT-0500 (Central Daylight Time),494915.5,copper,900,I,z,z,None,847,647.0,200.0,22,1,2277.5,492638.0,7065,orange,NF,C,487487,487487,485859,486771,485859,488137,487287,487287,488137,118
119,test,1,con,1,m,Wed Mar 19 2025 16:13:52 GMT-0500 (Central Daylight Time),497431.3999999999,cobalt,1100,I,m,m,None,866,667.0,199.0,92,1,2512.1999999999534,494919.19999999995,7065,cobalt,NF,C,489969,489970,488140,489253,488141,490653,489770,489770,490652,119
120,test,1,inc,1,m,Wed Mar 19 2025 16:13:52 GMT-0500 (Central Daylight Time),499897.69999999995,kiwi,1000,I,m,m,None,922,723.0,199.0,111,1,2462.3000000000466,497435.3999999999,7065,iron,NF,C,492386,492386,490656,491669,490657,493119,492186,492186,493119,120
121,test,1,inc,1,z,Wed Mar 19 2025 16:13:52 GMT-0500 (Central Daylight Time),502313.09999999986,silver,1000,I,z,z,None,881,682.0,199.0,7,1,2412.0999999998603,499901.0,7065,banana,NF,C,494851,494851,493122,494135,493122,495534,494652,494652,495534,121
122,test,1,con,1,m,Wed Mar 19 2025 16:13:52 GMT-0500 (Central Daylight Time),504795.69999999995,iron,800,I,m,m,None,1137,938.0,199.0,105,1,2479.100000000093,502316.59999999986,7065,iron,NF,C,497068,497068,495538,496351,495538,498017,496868,496868,498017,122
123,test,1,con,1,z,Wed Mar 19 2025 16:13:52 GMT-0500 (Central Daylight Time),507162.69999999995,cherry,1100,I,z,z,None,732,532.0,200.0,12,1,2363.5,504799.19999999995,7065,cherry,NF,C,499850,499850,498020,499134,498020,500384,499650,499650,500384,123
124,test,1,con,1,m,Wed Mar 19 2025 16:13:52 GMT-0500 (Central Daylight Time),509627.69999999995,lead,1100,I,m,m,None,821,621.0,200.0,124,1,2461.1999999999534,507166.5,7065,lead,NF,C,502216,502216,500388,501499,500388,502849,502016,502016,502849,124
125,test,1,con,1,m,Wed Mar 19 2025 16:13:52 GMT-0500 (Central Daylight Time),512160.09999999986,silver,1100,I,m,m,None,891,692.0,199.0,84,1,2528.6999999999534,509631.3999999999,7065,silver,NF,C,504681,504681,502852,503965,502853,505381,504482,504482,505381,125
126,test,1,con,1,z,Wed Mar 19 2025 16:13:52 GMT-0500 (Central Daylight Time),514544.80000000005,pear,1100,I,z,z,None,742,543.0,199.0,44,1,2381.0,512163.80000000005,7065,pear,NF,C,507214,507214,505385,506498,505385,507766,507015,507015,507766,126
127,test,1,inc,1,m,Wed Mar 19 2025 16:13:52 GMT-0500 (Central Daylight Time),516843.09999999986,cherry,900,I,m,m,None,865,665.0,200.0,86,1,2295.0999999998603,514548.0,7065,silver,NF,C,509397,509397,507769,508680,507769,510064,509197,509197,510064,127
128,test,1,inc,1,z,Wed Mar 19 2025 16:13:52 GMT-0500 (Central Daylight Time),519109.09999999986,iron,900,I,z,z,None,829,629.0,200.0,38,1,2262.1999999999534,516846.8999999999,7065,lime,NF,C,511696,511696,510068,510980,510068,512330,511496,511496,512330,128
