acc_sum,block,block_c,condition,correct,correct_response,datetime,endtime,flanker,jitter,project,response,response_test_buffer_response,response_test_target_response,response_time,response_time_test_buffer_response,response_time_test_target_response,row_sel,session_number,start_end,starttime,subject_id,target,task,task_vers,time_test_buffer,time_test_buffer_response,time_test_constants,time_test_flanker,time_test_jitter,time_test_logger,time_test_target,time_test_target_response,time_test_variables,trial
1,prac,1,inc,1,m,Mon Jan 27 2025 17:28:43 GMT-0600 (Central Standard Time),142131.09999990463,pear,900,I,m,,,1442,,,14,1,3650.0,138481.09999990463,8019,iron,NF,C,,,,,,,,,,1
2,prac,1,con,1,z,Mon Jan 27 2025 17:28:43 GMT-0600 (Central Standard Time),145612.39999961853,banana,800,I,z,,,1375,,,1,1,3472.7999997138977,142139.59999990463,8019,banana,NF,C,,,,,,,,,,2
3,prac,1,inc,1,z,Mon Jan 27 2025 17:28:43 GMT-0600 (Central Standard Time),148895.09999990463,lead,1100,I,z,,,868,,,8,1,3276.0999999046326,145619.0,8019,plum,NF,C,,,,,,,,,,3
4,prac,1,inc,1,m,Mon Jan 27 2025 17:28:43 GMT-0600 (Central Standard Time),152358.7999997139,raisin,1100,I,m,,,1049,,,12,1,3459.9000000953674,148898.89999961853,8019,cobalt,NF,C,,,,,,,,,,4
4,prac,1,con,0,m,Mon Jan 27 2025 17:28:43 GMT-0600 (Central Standard Time),154925.0,bronze,800,I,z,,,460,,,9,1,2559.0,152366.0,8019,bronze,NF,C,,,,,,,,,,5
5,prac,1,inc,1,z,Mon Jan 27 2025 17:28:43 GMT-0600 (Central Standard Time),158239.69999980927,cobalt,1100,I,z,,,913,,,4,1,3308.5,154931.19999980927,8019,raisin,NF,C,,,,,,,,,,6
6,prac,1,con,1,m,Mon Jan 27 2025 17:28:43 GMT-0600 (Central Standard Time),160987.39999961853,silver,1000,I,m,,,444,,,11,1,2742.5999999046326,158244.7999997139,8019,silver,NF,C,,,,,,,,,,7
7,prac,1,con,1,z,Mon Jan 27 2025 17:28:43 GMT-0600 (Central Standard Time),163505.19999980927,lime,800,I,z,,,422,,,5,1,2513.0999999046326,160992.09999990463,8019,lime,NF,C,,,,,,,,,,8
8,prac,1,con,1,m,Mon Jan 27 2025 17:28:43 GMT-0600 (Central Standard Time),166102.5,gold,800,I,m,,,489,,,13,1,2592.0,163510.5,8019,gold,NF,C,,,,,,,,,,9
9,prac,1,con,1,z,Mon Jan 27 2025 17:28:43 GMT-0600 (Central Standard Time),168868.09999990463,kiwi,1000,I,z,,,452,,,7,1,2758.2000002861023,166109.89999961853,8019,kiwi,NF,C,,,,,,,,,,10
10,prac,1,inc,1,m,Mon Jan 27 2025 17:28:43 GMT-0600 (Central Standard Time),171386.0,cherry,900,I,m,,,314,,,10,1,2512.4000000953674,168873.59999990463,8019,copper,NF,C,,,,,,,,,,11
11,prac,1,inc,1,z,Mon Jan 27 2025 17:28:43 GMT-0600 (Central Standard Time),174166.59999990463,iron,900,I,z,,,572,,,6,1,2776.5999999046326,171390.0,8019,pear,NF,C,,,,,,,,,,12
12,prac,1,con,1,z,Mon Jan 27 2025 17:28:43 GMT-0600 (Central Standard Time),177199.19999980927,orange,1000,I,z,,,713,,,3,1,3027.5999999046326,174171.59999990463,8019,orange,NF,C,,,,,,,,,,13
13,prac,1,inc,1,m,Mon Jan 27 2025 17:28:43 GMT-0600 (Central Standard Time),180316.0,plum,1100,I,m,,,711,,,16,1,3112.6000003814697,177203.39999961853,8019,lead,NF,C,,,,,,,,,,14
13,prac,1,con,0,m,Mon Jan 27 2025 17:28:43 GMT-0600 (Central Standard Time),183032.19999980927,zinc,1000,I,z,,,404,,,15,1,2709.800000190735,180322.39999961853,8019,zinc,NF,C,,,,,,,,,,15
14,prac,1,inc,1,z,Mon Jan 27 2025 17:28:43 GMT-0600 (Central Standard Time),186080.59999990463,copper,900,I,z,,,836,,,2,1,3043.4000000953674,183037.19999980927,8019,cherry,NF,C,,,,,,,,,,16
1,test,1,inc,1,z,Mon Jan 27 2025 17:28:43 GMT-0600 (Central Standard Time),204544.09999990463,lead,1100,I,z,z,None,819,620.0,199.0,64,1,2465.300000190735,202078.7999997139,8019,plum,NF,C,195547,195547,193717,194833,193718,196182,195348,195348,196182,1
1,test,1,inc,0,m,Mon Jan 27 2025 17:28:43 GMT-0600 (Central Standard Time),208074.89999961853,orange,1000,I,None,None,None,1799,1799.0,199.0,87,1,3524.199999809265,204550.69999980927,8019,silver,NF,C,197914,197914,196189,197198,196190,199713,197715,197715,199713,2
2,test,1,inc,1,m,Mon Jan 27 2025 17:28:43 GMT-0600 (Central Standard Time),210323.09999990463,pear,900,I,m,m,None,815,615.0,200.0,118,1,2240.5,208082.59999990463,8019,zinc,NF,C,201345,201345,199721,200629,199722,201961,201145,201145,201961,3
3,test,1,inc,1,m,Mon Jan 27 2025 17:28:43 GMT-0600 (Central Standard Time),212706.2999997139,raisin,1100,I,m,m,None,747,533.0,214.0,72,1,2377.4000000953674,210328.89999961853,8019,bronze,NF,C,203811,203811,201967,203078,201968,204344,203596,203596,204344,4
4,test,1,con,1,m,Mon Jan 27 2025 17:28:43 GMT-0600 (Central Standard Time),214988.39999961853,lead,1000,I,m,m,None,735,520.0,215.0,123,1,2277.2999997138977,212711.09999990463,8019,lead,NF,C,206094,206095,204349,205360,204350,206626,205878,205878,206626,5
5,test,1,inc,1,m,Mon Jan 27 2025 17:28:43 GMT-0600 (Central Standard Time),217287.2999997139,kiwi,1000,I,m,m,None,762,550.0,212.0,111,1,2292.699999809265,214994.59999990463,8019,iron,NF,C,208361,208361,206633,207643,206634,208925,208148,208148,208925,6
6,test,1,inc,1,z,Mon Jan 27 2025 17:28:43 GMT-0600 (Central Standard Time),219636.09999990463,copper,900,I,z,z,None,902,687.0,215.0,6,1,2342.0,217294.09999990463,8019,banana,NF,C,210576,210576,208932,209843,208934,211274,210361,210361,211274,7
7,test,1,inc,1,z,Mon Jan 27 2025 17:28:43 GMT-0600 (Central Standard Time),221469.19999980927,bronze,800,I,z,z,None,494,294.0,200.0,21,1,1827.4000000953674,219641.7999997139,8019,orange,NF,C,212809,212809,211280,212092,211281,213107,212609,212609,213107,8
8,test,1,inc,1,m,Mon Jan 27 2025 17:28:43 GMT-0600 (Central Standard Time),223520.7999997139,pear,900,I,m,m,None,616,401.0,215.0,126,1,2046.7999997138977,221474.0,8019,lead,NF,C,214758,214758,213112,214026,213113,215159,214542,214542,215159,9
9,test,1,con,1,m,Mon Jan 27 2025 17:28:43 GMT-0600 (Central Standard Time),225767.69999980927,copper,1100,I,m,m,None,598,399.0,199.0,76,1,2242.699999809265,223525.0,8019,copper,NF,C,216991,216991,215163,216276,215164,217406,216792,216792,217406,10
10,test,1,con,1,m,Mon Jan 27 2025 17:28:43 GMT-0600 (Central Standard Time),227851.5,zinc,900,I,m,m,None,632,433.0,199.0,114,1,2078.1000003814697,225773.39999961853,8019,zinc,NF,C,219040,219040,217411,218328,217413,219490,218841,218841,219489,11
11,test,1,con,1,m,Mon Jan 27 2025 17:28:43 GMT-0600 (Central Standard Time),229733.39999961853,bronze,800,I,m,m,None,537,336.0,201.0,65,1,1875.0999999046326,227858.2999997139,8019,bronze,NF,C,221023,221023,219496,220307,219497,221372,220822,220822,221371,12
12,test,1,con,1,m,Mon Jan 27 2025 17:28:43 GMT-0600 (Central Standard Time),231818.09999990463,iron,800,I,m,m,None,731,517.0,214.0,105,1,2079.7000002861023,229738.39999961853,8019,iron,NF,C,222921,222921,221376,222190,221377,223456,222707,222707,223456,13
13,test,1,inc,1,m,Mon Jan 27 2025 17:28:43 GMT-0600 (Central Standard Time),233732.39999961853,lime,800,I,m,m,None,565,366.0,199.0,117,1,1909.6999998092651,231822.69999980927,8019,zinc,NF,C,224988,224988,223461,224273,223462,225370,224789,224789,225370,14
14,test,1,inc,1,z,Mon Jan 27 2025 17:28:43 GMT-0600 (Central Standard Time),235715.39999961853,gold,800,I,z,z,None,665,465.0,200.0,45,1,1976.1999998092651,233739.19999980927,8019,pear,NF,C,226888,226888,225377,226186,225378,227353,226688,226688,227353,15
15,test,1,con,1,m,Mon Jan 27 2025 17:28:43 GMT-0600 (Central Standard Time),237699.5,lead,800,I,m,m,None,649,449.0,200.0,121,1,1978.7000002861023,235720.7999997139,8019,lead,NF,C,228888,228888,227359,228171,227360,229338,228688,228688,229338,16
16,test,1,con,1,m,Mon Jan 27 2025 17:28:43 GMT-0600 (Central Standard Time),239830.59999990463,iron,900,I,m,m,None,684,468.0,216.0,106,1,2125.4000000953674,237705.19999980927,8019,iron,NF,C,230986,230987,229343,230253,229344,231469,230770,230770,231469,17
17,test,1,inc,1,z,Mon Jan 27 2025 17:28:43 GMT-0600 (Central Standard Time),242080.59999990463,cobalt,1100,I,z,z,None,601,401.0,200.0,32,1,2245.0999999046326,239835.5,8019,raisin,NF,C,233302,233302,231474,232585,231475,233719,233102,233102,233719,18
18,test,1,inc,1,z,Mon Jan 27 2025 17:28:43 GMT-0600 (Central Standard Time),244312.0,lead,1100,I,z,z,None,592,392.0,200.0,48,1,2226.0,242086.0,8019,pear,NF,C,235551,235551,233724,234836,233726,235950,235351,235351,235950,19
19,test,1,inc,1,z,Mon Jan 27 2025 17:28:43 GMT-0600 (Central Standard Time),246344.7999997139,zinc,1000,I,z,z,None,488,275.0,213.0,63,1,2028.2999997138977,244316.5,8019,plum,NF,C,237700,237700,235955,236967,235955,237983,237486,237486,237983,20
20,test,1,con,1,m,Mon Jan 27 2025 17:28:43 GMT-0600 (Central Standard Time),248661.0,cobalt,1100,I,m,m,None,678,464.0,214.0,92,1,2311.300000190735,246349.69999980927,8019,cobalt,NF,C,239834,239834,237988,239100,237989,240299,239619,239619,240299,21
21,test,1,con,1,z,Mon Jan 27 2025 17:28:43 GMT-0600 (Central Standard Time),250610.0,cherry,1000,I,z,z,None,414,215.0,199.0,11,1,1941.0,248669.0,8019,cherry,NF,C,242033,242033,240307,241317,240309,242248,241834,241834,242248,22
22,test,1,inc,1,m,Mon Jan 27 2025 17:28:43 GMT-0600 (Central Standard Time),252643.89999961853,banana,800,I,m,m,None,699,499.0,200.0,85,1,2028.6999998092651,250615.19999980927,8019,silver,NF,C,243783,243783,242253,243067,242254,244282,243583,243583,244282,23
23,test,1,inc,1,m,Mon Jan 27 2025 17:28:43 GMT-0600 (Central Standard Time),254791.89999961853,pear,900,I,m,m,None,706,492.0,214.0,102,1,2141.7999997138977,252650.09999990463,8019,gold,NF,C,245931,245931,244288,245199,244289,246430,245716,245716,246430,24
24,test,1,con,1,z,Mon Jan 27 2025 17:28:43 GMT-0600 (Central Standard Time),256957.69999980927,lime,800,I,z,z,None,817,618.0,199.0,33,1,2161.5999999046326,254796.09999990463,8019,lime,NF,C,247965,247965,246434,247248,246435,248596,247765,247765,248596,25
25,test,1,con,1,m,Mon Jan 27 2025 17:28:43 GMT-0600 (Central Standard Time),259026.59999990463,zinc,800,I,m,m,None,732,518.0,214.0,113,1,2063.0999999046326,256963.5,8019,zinc,NF,C,250146,250146,248602,249414,248603,250665,249931,249931,250665,26
26,test,1,inc,1,z,Mon Jan 27 2025 17:28:43 GMT-0600 (Central Standard Time),261073.7999997139,gold,800,I,z,z,None,706,507.0,199.0,53,1,2042.5,259031.2999997139,8019,kiwi,NF,C,252197,252197,250669,251481,250670,252712,251997,251997,252712,27
27,test,1,con,1,m,Mon Jan 27 2025 17:28:43 GMT-0600 (Central Standard Time),263122.69999980927,bronze,900,I,m,m,None,605,406.0,199.0,66,1,2044.4000000953674,261078.2999997139,8019,bronze,NF,C,254345,254345,252716,253630,252717,254761,254145,254145,254761,28
28,test,1,inc,1,m,Mon Jan 27 2025 17:28:43 GMT-0600 (Central Standard Time),265124.19999980927,lime,800,I,m,m,None,678,467.0,211.0,125,1,1996.8000001907349,263127.39999961853,8019,lead,NF,C,256295,256295,254765,255578,254766,256762,256083,256083,256762,29
29,test,1,inc,1,m,Mon Jan 27 2025 17:28:43 GMT-0600 (Central Standard Time),267205.89999961853,pear,900,I,m,m,None,636,437.0,199.0,110,1,2076.2999997138977,265129.59999990463,8019,iron,NF,C,258394,258394,256768,257678,256769,258844,258194,258194,258844,30
30,test,1,con,1,z,Mon Jan 27 2025 17:28:43 GMT-0600 (Central Standard Time),269355.0,raisin,900,I,z,z,None,705,506.0,199.0,26,1,2143.7000002861023,267211.2999997139,8019,raisin,NF,C,260477,260477,258849,259761,258850,260993,260278,260278,260993,31
31,test,1,con,1,m,Mon Jan 27 2025 17:28:43 GMT-0600 (Central Standard Time),271320.2999997139,cobalt,800,I,m,m,None,625,422.0,203.0,89,1,1961.1999998092651,269359.09999990463,8019,cobalt,NF,C,262530,262530,260997,261809,260998,262958,262327,262327,262958,32
32,test,1,inc,1,m,Mon Jan 27 2025 17:28:43 GMT-0600 (Central Standard Time),273636.19999980927,orange,1000,I,m,m,None,769,554.0,215.0,71,1,2311.800000190735,271324.39999961853,8019,bronze,NF,C,264709,264709,262962,263977,262963,265274,264494,264494,265274,33
33,test,1,con,1,z,Mon Jan 27 2025 17:28:43 GMT-0600 (Central Standard Time),276002.39999961853,lime,1100,I,z,z,None,730,531.0,199.0,36,1,2360.5,273641.89999961853,8019,lime,NF,C,267109,267109,265280,266392,265280,267640,266909,266909,267640,34
34,test,1,inc,1,m,Mon Jan 27 2025 17:28:43 GMT-0600 (Central Standard Time),278034.2999997139,orange,1000,I,m,m,None,487,288.0,199.0,79,1,2026.5999999046326,276007.69999980927,8019,copper,NF,C,269374,269375,267646,268659,267647,269672,269175,269175,269672,35
35,test,1,con,1,z,Mon Jan 27 2025 17:28:43 GMT-0600 (Central Standard Time),280436.09999990463,cherry,1100,I,z,z,None,763,549.0,214.0,12,1,2395.2000002861023,278040.89999961853,8019,cherry,NF,C,271523,271524,269679,270791,269680,272074,271309,271309,272074,36
36,test,1,con,1,m,Mon Jan 27 2025 17:28:43 GMT-0600 (Central Standard Time),282700.2999997139,lead,1100,I,m,m,None,626,412.0,214.0,124,1,2259.0999999046326,280441.19999980927,8019,lead,NF,C,273923,273924,272079,273193,272081,274338,273709,273709,274338,37
37,test,1,con,1,m,Mon Jan 27 2025 17:28:43 GMT-0600 (Central Standard Time),284783.09999990463,iron,1100,I,m,m,None,434,219.0,215.0,108,1,2075.5999999046326,282707.5,8019,iron,NF,C,276188,276188,274346,275456,274346,276421,275973,275973,276421,38
38,test,1,inc,1,z,Mon Jan 27 2025 17:28:43 GMT-0600 (Central Standard Time),286949.0,lead,1100,I,z,z,None,536,320.0,216.0,56,1,2156.300000190735,284792.69999980927,8019,kiwi,NF,C,278255,278255,276431,277535,276432,278587,278039,278039,278587,39
39,test,1,inc,1,z,Mon Jan 27 2025 17:28:43 GMT-0600 (Central Standard Time),289031.7999997139,cobalt,1100,I,z,z,None,433,217.0,216.0,8,1,2078.4000000953674,286953.39999961853,8019,banana,NF,C,280438,280438,278591,279706,278593,280670,280222,280222,280670,40
40,test,1,con,1,m,Mon Jan 27 2025 17:28:43 GMT-0600 (Central Standard Time),291082.59999990463,copper,900,I,m,m,None,615,401.0,214.0,74,1,2045.2000002861023,289037.39999961853,8019,copper,NF,C,282303,282303,280675,281585,280677,282721,282089,282089,282721,41
41,test,1,inc,1,z,Mon Jan 27 2025 17:28:43 GMT-0600 (Central Standard Time),293180.69999980927,silver,1000,I,z,z,None,554,354.0,200.0,15,1,2092.5999999046326,291088.09999990463,8019,cherry,NF,C,284454,284454,282726,283737,282727,284819,284253,284253,284819,42
42,test,1,inc,1,z,Mon Jan 27 2025 17:28:43 GMT-0600 (Central Standard Time),295578.69999980927,copper,900,I,z,z,None,960,745.0,215.0,30,1,2390.5999999046326,293188.09999990463,8019,raisin,NF,C,286470,286470,284826,285736,284827,287217,286255,286255,287217,43
43,test,1,inc,1,z,Mon Jan 27 2025 17:28:43 GMT-0600 (Central Standard Time),297729.19999980927,bronze,800,I,z,z,None,797,582.0,215.0,5,1,2142.0999999046326,295587.09999990463,8019,banana,NF,C,288769,288769,287225,288035,287226,289367,288553,288553,289367,44
44,test,1,con,1,z,Mon Jan 27 2025 17:28:43 GMT-0600 (Central Standard Time),299561.7999997139,lime,900,I,z,z,None,388,173.0,215.0,34,1,1825.4000000953674,297736.39999961853,8019,lime,NF,C,291018,291018,289374,290285,289376,291200,290803,290803,291200,45
45,test,1,con,1,z,Mon Jan 27 2025 17:28:43 GMT-0600 (Central Standard Time),301562.19999980927,cherry,800,I,z,z,None,667,466.0,201.0,9,1,1994.4000000953674,299567.7999997139,8019,cherry,NF,C,292734,292734,291206,292018,291208,293200,292533,292533,293200,46
46,test,1,inc,1,m,Mon Jan 27 2025 17:28:43 GMT-0600 (Central Standard Time),303510.0,banana,800,I,m,m,None,600,401.0,199.0,93,1,1939.8000001907349,301570.19999980927,8019,cobalt,NF,C,294734,294734,293208,294019,293209,295148,294534,294534,295148,47
47,test,1,inc,1,m,Mon Jan 27 2025 17:28:43 GMT-0600 (Central Standard Time),305975.89999961853,plum,1100,I,m,m,None,813,599.0,214.0,128,1,2461.3999996185303,303514.5,8019,lead,NF,C,297000,297000,295153,296266,295154,297614,296786,296786,297614,48
48,test,1,con,1,z,Mon Jan 27 2025 17:28:43 GMT-0600 (Central Standard Time),307875.59999990463,kiwi,900,I,z,z,None,464,264.0,200.0,50,1,1892.3000001907349,305983.2999997139,8019,kiwi,NF,C,299249,299249,297621,298532,297622,299514,299049,299049,299514,49
49,test,1,con,1,m,Mon Jan 27 2025 17:28:43 GMT-0600 (Central Standard Time),310058.69999980927,silver,1000,I,m,m,None,638,439.0,199.0,83,1,2177.199999809265,307881.5,8019,silver,NF,C,301249,301249,299520,300532,299521,301697,301048,301048,301697,50
50,test,1,con,1,z,Mon Jan 27 2025 17:28:43 GMT-0600 (Central Standard Time),312041.7999997139,pear,800,I,z,z,None,646,434.0,212.0,41,1,1977.9000000953674,310063.89999961853,8019,pear,NF,C,303246,303246,301702,302515,301703,303680,303033,303033,303680,51
51,test,1,con,1,z,Mon Jan 27 2025 17:28:43 GMT-0600 (Central Standard Time),314157.39999961853,banana,800,I,z,z,None,783,572.0,211.0,1,1,2110.7999997138977,312046.59999990463,8019,banana,NF,C,305211,305211,303685,304498,303685,305795,305000,305000,305795,52
52,test,1,inc,1,z,Mon Jan 27 2025 17:28:43 GMT-0600 (Central Standard Time),316172.89999961853,iron,900,I,z,z,None,570,371.0,199.0,46,1,2011.5,314161.39999961853,8019,pear,NF,C,307427,307428,305799,306714,305800,307811,307228,307228,307811,53
53,test,1,con,1,z,Mon Jan 27 2025 17:28:43 GMT-0600 (Central Standard Time),318254.7999997139,banana,1000,I,z,z,None,540,325.0,215.0,3,1,2077.199999809265,316177.59999990463,8019,banana,NF,C,309562,309562,307816,308829,307816,309893,309346,309346,309893,54
54,test,1,con,1,m,Mon Jan 27 2025 17:28:43 GMT-0600 (Central Standard Time),320688.19999980927,zinc,1000,I,m,m,None,882,683.0,199.0,115,1,2428.699999809265,318259.5,8019,zinc,NF,C,311628,311628,309898,310910,309898,312326,311428,311428,312326,55
55,test,1,con,1,m,Mon Jan 27 2025 17:28:43 GMT-0600 (Central Standard Time),322737.89999961853,iron,1000,I,m,m,None,505,289.0,216.0,107,1,2043.8999996185303,320694.0,8019,iron,NF,C,314077,314078,312332,313344,312333,314376,313861,313861,314376,56
56,test,1,con,1,z,Mon Jan 27 2025 17:28:43 GMT-0600 (Central Standard Time),324801.39999961853,plum,800,I,z,z,None,719,504.0,215.0,57,1,2058.0999999046326,322743.2999997139,8019,plum,NF,C,315926,315926,314381,315193,314382,316440,315711,315711,316439,57
57,test,1,inc,1,z,Mon Jan 27 2025 17:28:43 GMT-0600 (Central Standard Time),327036.19999980927,silver,1000,I,z,z,None,688,487.0,201.0,31,1,2231.300000190735,324804.89999961853,8019,raisin,NF,C,318176,318176,316443,317460,316444,318674,317974,317974,318674,58
58,test,1,inc,1,z,Mon Jan 27 2025 17:28:43 GMT-0600 (Central Standard Time),329219.69999980927,silver,1000,I,z,z,None,648,432.0,216.0,7,1,2178.800000190735,327040.89999961853,8019,banana,NF,C,320425,320425,318679,319693,318680,320858,320209,320209,320858,59
59,test,1,con,1,m,Mon Jan 27 2025 17:28:43 GMT-0600 (Central Standard Time),331220.0,silver,800,I,m,m,None,666,467.0,199.0,81,1,1995.2000002861023,329224.7999997139,8019,silver,NF,C,322391,322391,320863,321675,320863,322858,322192,322192,322858,60
60,test,1,con,1,m,Mon Jan 27 2025 17:28:43 GMT-0600 (Central Standard Time),333517.39999961853,bronze,1000,I,m,m,None,761,560.0,201.0,67,1,2293.0,331224.39999961853,8019,bronze,NF,C,324592,324592,322862,323875,322863,325156,324391,324391,325155,61
61,test,1,con,1,z,Mon Jan 27 2025 17:28:43 GMT-0600 (Central Standard Time),335783.39999961853,kiwi,800,I,z,z,None,916,701.0,215.0,49,1,2261.199999809265,333522.19999980927,8019,kiwi,NF,C,326706,326706,325160,325974,325161,327421,326490,326490,327421,62
62,test,1,inc,1,m,Mon Jan 27 2025 17:28:43 GMT-0600 (Central Standard Time),337948.59999990463,kiwi,1000,I,m,m,None,628,429.0,199.0,103,1,2159.4000000953674,335789.19999980927,8019,gold,NF,C,329155,329155,327427,328443,327428,329587,328956,328956,329587,63
63,test,1,inc,1,m,Mon Jan 27 2025 17:28:43 GMT-0600 (Central Standard Time),340499.7999997139,raisin,1100,I,m,m,None,917,718.0,199.0,88,1,2546.5999999046326,337953.19999980927,8019,silver,NF,C,331420,331420,329591,330706,329592,332138,331221,331221,332138,64
64,test,1,con,1,m,Mon Jan 27 2025 17:28:43 GMT-0600 (Central Standard Time),342781.19999980927,cobalt,1000,I,m,m,None,743,530.0,213.0,91,1,2276.5999999046326,340504.59999990463,8019,cobalt,NF,C,333886,333886,332143,333154,332144,334419,333672,333672,334419,65
65,test,1,inc,1,z,Mon Jan 27 2025 17:28:43 GMT-0600 (Central Standard Time),345083.0,copper,900,I,z,z,None,866,652.0,214.0,14,1,2296.300000190735,342786.69999980927,8019,cherry,NF,C,336052,336052,334425,335336,334426,336721,335838,335838,336721,66
66,test,1,con,1,z,Mon Jan 27 2025 17:28:43 GMT-0600 (Central Standard Time),347229.39999961853,plum,900,I,z,z,None,701,502.0,199.0,58,1,2140.699999809265,345088.69999980927,8019,plum,NF,C,338353,338353,336727,337637,336728,338867,338153,338153,338867,67
67,test,1,con,1,z,Mon Jan 27 2025 17:28:43 GMT-0600 (Central Standard Time),349312.69999980927,kiwi,1100,I,z,z,None,432,233.0,199.0,52,1,2077.9000000953674,347234.7999997139,8019,kiwi,NF,C,340702,340702,338873,339986,338874,340951,340502,340502,340951,68
68,test,1,inc,1,z,Mon Jan 27 2025 17:28:43 GMT-0600 (Central Standard Time),351529.19999980927,cobalt,1100,I,z,z,None,565,366.0,199.0,16,1,2211.0999999046326,349318.09999990463,8019,cherry,NF,C,342785,342785,340956,342069,340957,343167,342586,342586,343167,69
69,test,1,con,1,z,Mon Jan 27 2025 17:28:43 GMT-0600 (Central Standard Time),353746.0,raisin,1000,I,z,z,None,684,485.0,199.0,27,1,2211.300000190735,351534.69999980927,8019,raisin,NF,C,344899,344899,343173,344185,343174,345384,344700,344700,345384,70
70,test,1,con,1,m,Mon Jan 27 2025 17:28:43 GMT-0600 (Central Standard Time),356027.59999990463,gold,1000,I,m,m,None,737,524.0,213.0,99,1,2275.800000190735,353751.7999997139,8019,gold,NF,C,347131,347131,345390,346399,345390,347666,346918,346918,347666,71
71,test,1,inc,1,m,Mon Jan 27 2025 17:28:43 GMT-0600 (Central Standard Time),358093.2999997139,cherry,900,I,m,m,None,630,431.0,199.0,70,1,2061.7999997138977,356031.5,8019,bronze,NF,C,349299,349299,347670,348582,347670,349731,349100,349100,349731,72
72,test,1,inc,1,m,Mon Jan 27 2025 17:28:43 GMT-0600 (Central Standard Time),360309.0,lime,800,I,m,m,None,864,649.0,215.0,109,1,2211.1000003814697,358097.89999961853,8019,iron,NF,C,351282,351282,349736,350550,349737,351947,351066,351066,351947,73
73,test,1,con,1,m,Mon Jan 27 2025 17:28:43 GMT-0600 (Central Standard Time),362841.39999961853,silver,1100,I,m,m,None,898,699.0,199.0,84,1,2527.0,360314.39999961853,8019,silver,NF,C,353780,353780,351952,353065,351953,354479,353581,353581,354479,74
74,test,1,con,1,z,Mon Jan 27 2025 17:28:43 GMT-0600 (Central Standard Time),365174.2999997139,orange,1000,I,z,z,None,783,570.0,213.0,19,1,2327.0999999046326,362847.19999980927,8019,orange,NF,C,356229,356229,354485,355497,354486,356812,356015,356015,356812,75
75,test,1,inc,1,m,Mon Jan 27 2025 17:28:43 GMT-0600 (Central Standard Time),367206.69999980927,cherry,900,I,m,m,None,591,376.0,215.0,78,1,2027.1999998092651,365179.5,8019,copper,NF,C,358463,358463,356818,357731,356818,358845,358248,358248,358845,76
76,test,1,inc,1,z,Mon Jan 27 2025 17:28:43 GMT-0600 (Central Standard Time),369506.7999997139,iron,900,I,z,z,None,865,665.0,200.0,62,1,2294.9000000953674,367211.89999961853,8019,plum,NF,C,360479,360479,358850,359763,358851,361145,360279,360279,361145,77
77,test,1,inc,1,m,Mon Jan 27 2025 17:28:43 GMT-0600 (Central Standard Time),371689.0,plum,1100,I,m,m,None,541,342.0,199.0,120,1,2176.2000002861023,369512.7999997139,8019,zinc,NF,C,362977,362977,361151,362262,361152,363327,362778,362778,363327,78
78,test,1,con,1,z,Mon Jan 27 2025 17:28:43 GMT-0600 (Central Standard Time),373787.19999980927,orange,800,I,z,z,None,753,537.0,216.0,17,1,2094.0,371693.19999980927,8019,orange,NF,C,364878,364878,363331,364144,363332,365425,364661,364661,365425,79
79,test,1,inc,1,z,Mon Jan 27 2025 17:28:43 GMT-0600 (Central Standard Time),376170.2999997139,zinc,1000,I,z,z,None,837,622.0,215.0,39,1,2378.699999809265,373791.59999990463,8019,lime,NF,C,367177,367177,365430,366444,365431,367808,366961,366961,367808,80
80,test,1,inc,1,m,Mon Jan 27 2025 17:28:43 GMT-0600 (Central Standard Time),378253.0,cherry,900,I,m,m,None,645,446.0,199.0,94,1,2077.9000000953674,376175.09999990463,8019,cobalt,NF,C,369442,369442,367813,368726,367814,369891,369243,369243,369891,81
81,test,1,inc,1,z,Mon Jan 27 2025 17:28:43 GMT-0600 (Central Standard Time),380519.39999961853,copper,900,I,z,z,None,827,627.0,200.0,22,1,2261.699999809265,378257.69999980927,8019,orange,NF,C,371525,371525,369896,370809,369897,372157,371325,371325,372157,82
82,test,1,con,1,z,Mon Jan 27 2025 17:28:43 GMT-0600 (Central Standard Time),382501.69999980927,raisin,800,I,z,z,None,645,445.0,200.0,25,1,1977.6999998092651,380524.0,8019,raisin,NF,C,373691,373691,372162,372975,372163,374140,373491,373491,374140,83
83,test,1,inc,1,m,Mon Jan 27 2025 17:28:43 GMT-0600 (Central Standard Time),384567.89999961853,cherry,900,I,m,m,None,625,426.0,199.0,86,1,2062.0999999046326,382505.7999997139,8019,silver,NF,C,375774,375774,374144,375059,374145,376206,375574,375574,376206,84
84,test,1,inc,1,m,Mon Jan 27 2025 17:28:43 GMT-0600 (Central Standard Time),387117.89999961853,raisin,1100,I,m,m,None,918,719.0,199.0,80,1,2544.7999997138977,384573.09999990463,8019,copper,NF,C,378024,378024,376211,377323,376212,378756,377825,377825,378756,85
85,test,1,inc,1,z,Mon Jan 27 2025 17:28:43 GMT-0600 (Central Standard Time),389516.5,lead,1100,I,z,z,None,763,549.0,214.0,40,1,2394.300000190735,387122.19999980927,8019,lime,NF,C,380605,380605,378760,379874,378761,381155,380390,380390,381154,86
86,test,1,inc,1,m,Mon Jan 27 2025 17:28:43 GMT-0600 (Central Standard Time),391764.7999997139,kiwi,1000,I,m,m,None,709,495.0,214.0,127,1,2244.0999999046326,389520.69999980927,8019,lead,NF,C,382905,382905,381159,382171,381160,383403,382690,382690,383403,87
87,test,1,inc,1,m,Mon Jan 27 2025 17:28:43 GMT-0600 (Central Standard Time),394398.7999997139,lime,800,I,m,m,None,1284,1070.0,214.0,101,1,2629.4000000953674,391769.39999961853,8019,gold,NF,C,384953,384953,383407,384221,383408,386037,384738,384738,386037,88
88,test,1,con,1,m,Mon Jan 27 2025 17:28:43 GMT-0600 (Central Standard Time),396714.39999961853,bronze,1100,I,m,m,None,674,475.0,199.0,68,1,2311.699999809265,394402.69999980927,8019,bronze,NF,C,387870,387870,386041,387154,386041,388352,387671,387671,388352,89
89,test,1,con,1,z,Mon Jan 27 2025 17:28:43 GMT-0600 (Central Standard Time),398580.0,cherry,900,I,z,z,None,430,230.0,200.0,10,1,1861.7000002861023,396718.2999997139,8019,cherry,NF,C,389987,389987,388356,389271,388357,390218,389786,389786,390218,90
90,test,1,con,1,z,Mon Jan 27 2025 17:28:43 GMT-0600 (Central Standard Time),400662.2999997139,pear,1100,I,z,z,None,443,227.0,216.0,44,1,2076.2999997138977,398586.0,8019,pear,NF,C,392069,392069,390224,391338,390225,392300,391853,391853,392300,91
91,test,1,inc,1,m,Mon Jan 27 2025 17:28:43 GMT-0600 (Central Standard Time),402946.69999980927,orange,1000,I,m,m,None,748,532.0,216.0,95,1,2281.0,400665.69999980927,8019,cobalt,NF,C,394052,394052,392304,393320,392305,394585,393836,393836,394585,92
92,test,1,inc,1,m,Mon Jan 27 2025 17:28:43 GMT-0600 (Central Standard Time),405079.59999990463,banana,800,I,m,m,None,784,569.0,215.0,69,1,2128.800000190735,402950.7999997139,8019,bronze,NF,C,396134,396134,394589,395403,394589,396718,395918,395918,396718,93
93,test,1,con,1,m,Mon Jan 27 2025 17:28:43 GMT-0600 (Central Standard Time),407260.59999990463,cobalt,900,I,m,m,None,746,531.0,215.0,90,1,2173.0,405087.59999990463,8019,cobalt,NF,C,398367,398367,396726,397634,396726,398899,398151,398151,398899,94
94,test,1,con,1,m,Mon Jan 27 2025 17:28:43 GMT-0600 (Central Standard Time),410093.0,zinc,1100,I,m,m,None,1192,979.0,213.0,116,1,2827.0,407266.0,8019,zinc,NF,C,400748,400748,398904,400017,398905,401731,400534,400534,401731,95
95,test,1,inc,1,z,Mon Jan 27 2025 17:28:43 GMT-0600 (Central Standard Time),412026.19999980927,bronze,800,I,z,z,None,598,398.0,200.0,13,1,1929.3000001907349,410096.89999961853,8019,cherry,NF,C,403266,403266,401735,402549,401736,403664,403065,403065,403664,96
96,test,1,con,1,m,Mon Jan 27 2025 17:28:43 GMT-0600 (Central Standard Time),414042.19999980927,copper,800,I,m,m,None,672,457.0,215.0,73,1,2010.9000000953674,412031.2999997139,8019,copper,NF,C,405215,405215,403669,404482,403670,405680,405000,405000,405680,97
97,test,1,con,1,z,Mon Jan 27 2025 17:28:43 GMT-0600 (Central Standard Time),416059.89999961853,orange,900,I,z,z,None,582,367.0,215.0,18,1,2013.1999998092651,414046.69999980927,8019,orange,NF,C,407331,407331,405685,406599,405686,407698,407115,407115,407698,98
98,test,1,con,1,z,Mon Jan 27 2025 17:28:43 GMT-0600 (Central Standard Time),418058.0,kiwi,1000,I,z,z,None,472,258.0,214.0,51,1,1993.2000002861023,416064.7999997139,8019,kiwi,NF,C,409430,409430,407703,408714,407703,409696,409216,409216,409696,99
99,test,1,inc,1,m,Mon Jan 27 2025 17:28:43 GMT-0600 (Central Standard Time),420274.59999990463,raisin,1100,I,m,m,None,572,358.0,214.0,96,1,2211.5999999046326,418063.0,8019,cobalt,NF,C,411545,411546,409701,410814,409702,411913,411331,411331,411913,100
100,test,1,inc,1,z,Mon Jan 27 2025 17:28:43 GMT-0600 (Central Standard Time),422606.2999997139,zinc,1000,I,z,z,None,794,593.0,201.0,55,1,2325.699999809265,420280.59999990463,8019,kiwi,NF,C,413646,413646,411919,412928,411920,414244,413445,413445,414244,101
101,test,1,inc,1,z,Mon Jan 27 2025 17:28:43 GMT-0600 (Central Standard Time),424673.19999980927,bronze,800,I,z,z,None,716,516.0,200.0,29,1,2058.0,422615.19999980927,8019,raisin,NF,C,415779,415779,414253,415062,414255,416311,415578,415578,416311,102
102,test,1,con,1,z,Mon Jan 27 2025 17:28:43 GMT-0600 (Central Standard Time),426821.19999980927,raisin,1100,I,z,z,None,503,303.0,200.0,28,1,2141.800000190735,424679.39999961853,8019,raisin,NF,C,418144,418144,416317,417429,416319,418459,417944,417944,418459,103
103,test,1,con,1,m,Mon Jan 27 2025 17:28:43 GMT-0600 (Central Standard Time),429120.69999980927,gold,900,I,m,m,None,856,657.0,199.0,98,1,2292.4000000953674,426828.2999997139,8019,gold,NF,C,420094,420094,418466,419377,418467,420759,419894,419894,420759,104
104,test,1,con,1,m,Mon Jan 27 2025 17:28:43 GMT-0600 (Central Standard Time),431385.2999997139,gold,1100,I,m,m,None,627,427.0,200.0,100,1,2259.0,429126.2999997139,8019,gold,NF,C,422596,422596,420764,421876,420765,423023,422395,422395,423023,105
105,test,1,inc,1,z,Mon Jan 27 2025 17:28:43 GMT-0600 (Central Standard Time),433669.39999961853,iron,900,I,z,z,None,835,620.0,215.0,38,1,2279.5,431389.89999961853,8019,lime,NF,C,424675,424675,423028,423943,423029,425307,424460,424460,425307,106
106,test,1,con,1,z,Mon Jan 27 2025 17:28:43 GMT-0600 (Central Standard Time),436051.89999961853,plum,1000,I,z,z,None,839,640.0,199.0,59,1,2377.8999996185303,433674.0,8019,plum,NF,C,427040,427040,425312,426325,425313,427690,426841,426841,427690,107
107,test,1,con,1,z,Mon Jan 27 2025 17:28:43 GMT-0600 (Central Standard Time),438084.59999990463,plum,1100,I,z,z,None,398,198.0,200.0,60,1,2028.2000002861023,436056.39999961853,8019,plum,NF,C,429523,429523,427694,428808,427695,429723,429323,429323,429723,108
108,test,1,con,1,m,Mon Jan 27 2025 17:28:43 GMT-0600 (Central Standard Time),440283.69999980927,silver,900,I,m,m,None,774,575.0,199.0,82,1,2194.699999809265,438089.0,8019,silver,NF,C,431336,431336,429727,430630,429728,431922,431137,431137,431922,109
109,test,1,inc,1,z,Mon Jan 27 2025 17:28:43 GMT-0600 (Central Standard Time),442499.59999990463,zinc,1000,I,z,z,None,670,471.0,199.0,47,1,2212.2000002861023,440287.39999961853,8019,pear,NF,C,433656,433656,431925,432939,431927,434138,433456,433456,434138,110
110,test,1,con,1,z,Mon Jan 27 2025 17:28:43 GMT-0600 (Central Standard Time),444881.2999997139,orange,1100,I,z,z,None,730,516.0,214.0,20,1,2378.0999999046326,442503.19999980927,8019,orange,NF,C,435987,435987,434141,435257,434142,436519,435772,435772,436519,111
111,test,1,con,1,z,Mon Jan 27 2025 17:28:43 GMT-0600 (Central Standard Time),447163.89999961853,lime,1000,I,z,z,None,743,528.0,215.0,35,1,2276.5999999046326,444887.2999997139,8019,lime,NF,C,438271,438271,436525,437538,436526,438802,438055,438055,438802,112
112,test,1,con,1,m,Mon Jan 27 2025 17:28:43 GMT-0600 (Central Standard Time),449863.69999980927,copper,1000,I,m,m,None,1159,960.0,199.0,75,1,2696.699999809265,447167.0,8019,copper,NF,C,440536,440536,438805,439822,438806,441502,440337,440337,441502,113
113,test,1,inc,1,z,Mon Jan 27 2025 17:28:43 GMT-0600 (Central Standard Time),452113.5,silver,1000,I,z,z,None,707,508.0,199.0,23,1,2245.5,449868.0,8019,orange,NF,C,443236,443236,441506,442520,441507,443752,443037,443037,443751,114
114,test,1,con,1,z,Mon Jan 27 2025 17:28:43 GMT-0600 (Central Standard Time),454912.09999990463,pear,1000,I,z,z,None,1252,1052.0,200.0,43,1,2794.0,452118.09999990463,8019,pear,NF,C,445483,445483,443756,444770,443757,446550,445283,445283,446550,115
115,test,1,inc,1,z,Mon Jan 27 2025 17:28:43 GMT-0600 (Central Standard Time),456945.0,gold,800,I,z,z,None,689,475.0,214.0,61,1,2027.7000002861023,454917.2999997139,8019,plum,NF,C,448100,448100,446555,447369,446556,448583,447885,447885,448583,116
116,test,1,inc,1,z,Mon Jan 27 2025 17:28:43 GMT-0600 (Central Standard Time),459076.7999997139,iron,900,I,z,z,None,694,478.0,216.0,54,1,2127.0999999046326,456949.69999980927,8019,kiwi,NF,C,450234,450234,448588,449500,448589,450715,450018,450018,450715,117
117,test,1,con,1,z,Mon Jan 27 2025 17:28:43 GMT-0600 (Central Standard Time),461028.0,banana,900,I,z,z,None,516,317.0,199.0,2,1,1946.7000002861023,459081.2999997139,8019,banana,NF,C,452349,452349,450719,451634,450720,452666,452150,452150,452666,118
118,test,1,inc,1,m,Mon Jan 27 2025 17:28:43 GMT-0600 (Central Standard Time),463142.5,plum,1100,I,m,m,None,477,278.0,199.0,104,1,2110.2000002861023,461032.2999997139,8019,gold,NF,C,454498,454498,452670,453784,452671,454781,454299,454299,454780,119
119,test,1,inc,1,m,Mon Jan 27 2025 17:28:43 GMT-0600 (Central Standard Time),465258.89999961853,kiwi,1000,I,m,m,None,572,373.0,199.0,119,1,2112.3999996185303,463146.5,8019,zinc,NF,C,456514,456514,454785,455800,454785,456897,456315,456315,456897,120
120,test,1,con,1,m,Mon Jan 27 2025 17:28:43 GMT-0600 (Central Standard Time),467374.89999961853,lead,900,I,m,m,None,677,478.0,199.0,122,1,2111.2999997138977,465263.59999990463,8019,lead,NF,C,458530,458530,456902,457814,456902,459013,458331,458331,459013,121
121,test,1,inc,1,m,Mon Jan 27 2025 17:28:43 GMT-0600 (Central Standard Time),469424.39999961853,banana,800,I,m,m,None,699,484.0,215.0,77,1,2045.1999998092651,467379.19999980927,8019,copper,NF,C,460564,460564,459017,459829,459018,461062,460348,460348,461062,122
122,test,1,con,1,z,Mon Jan 27 2025 17:28:43 GMT-0600 (Central Standard Time),471323.0,pear,900,I,z,z,None,454,255.0,199.0,42,1,1894.1000003814697,469428.89999961853,8019,pear,NF,C,462696,462696,461067,461980,461067,462961,462496,462496,462961,123
123,test,1,con,1,z,Mon Jan 27 2025 17:28:43 GMT-0600 (Central Standard Time),473690.39999961853,banana,1100,I,z,z,None,733,534.0,199.0,4,1,2363.5,471326.89999961853,8019,banana,NF,C,464794,464794,462965,464080,462966,465328,464595,464595,465328,124
124,test,1,inc,1,z,Mon Jan 27 2025 17:28:43 GMT-0600 (Central Standard Time),476439.09999990463,cobalt,1100,I,z,z,None,1098,885.0,213.0,24,1,2744.300000190735,473694.7999997139,8019,orange,NF,C,467178,467178,465333,466445,465334,468077,466964,466964,468077,125
125,test,1,inc,1,z,Mon Jan 27 2025 17:28:43 GMT-0600 (Central Standard Time),478438.19999980927,gold,800,I,z,z,None,661,457.0,204.0,37,1,1994.0,476444.19999980927,8019,lime,NF,C,469614,469614,468082,468894,468084,470076,469410,469410,470076,126
126,test,1,con,1,m,Mon Jan 27 2025 17:28:43 GMT-0600 (Central Standard Time),480620.59999990463,gold,800,I,m,m,None,837,622.0,215.0,97,1,2175.7000002861023,478444.89999961853,8019,gold,NF,C,471626,471626,470083,470894,470084,472259,471411,471411,472259,127
127,test,1,inc,1,m,Mon Jan 27 2025 17:28:43 GMT-0600 (Central Standard Time),483018.89999961853,plum,1100,I,m,m,None,762,546.0,216.0,112,1,2393.5,480625.39999961853,8019,iron,NF,C,474109,474110,472263,473377,472264,474657,473893,473893,474657,128
