acc_sum,block,block_c,condition,correct,correct_response,datetime,endtime,flanker,jitter,project,response,response_test_buffer_response,response_test_target_response,response_time,response_time_test_buffer_response,response_time_test_target_response,row_sel,session_number,start_end,starttime,subject_id,target,task,task_vers,time_test_buffer,time_test_buffer_response,time_test_constants,time_test_flanker,time_test_jitter,time_test_logger,time_test_target,time_test_target_response,time_test_variables,trial
1,prac,1,inc,1,m,Tue Apr 22 2025 17:24:12 GMT-0500 (Central Daylight Time),114065.5,cherry,900,I,m,,,681,,,10,2,2878.5,111187.0,8019,copper,NF,C,,,,,,,,,,1
2,prac,1,con,1,m,Tue Apr 22 2025 17:24:12 GMT-0500 (Central Daylight Time),116714.60000002384,gold,800,I,m,,,546,,,13,2,2643.5,114071.10000002384,8019,gold,NF,C,,,,,,,,,,2
3,prac,1,con,1,z,Tue Apr 22 2025 17:24:12 GMT-0500 (Central Daylight Time),119246.90000000596,lime,800,I,z,,,416,,,5,2,2527.5,116719.40000000596,8019,lime,NF,C,,,,,,,,,,3
4,prac,1,con,1,z,Tue Apr 22 2025 17:24:12 GMT-0500 (Central Daylight Time),121879.40000000596,banana,800,I,z,,,526,,,1,2,2627.699999988079,119251.70000001788,8019,banana,NF,C,,,,,,,,,,4
5,prac,1,inc,1,z,Tue Apr 22 2025 17:24:12 GMT-0500 (Central Daylight Time),124878.80000001192,iron,900,I,z,,,791,,,6,2,2994.800000011921,121884.0,8019,pear,NF,C,,,,,,,,,,5
5,prac,1,inc,0,m,Tue Apr 22 2025 17:24:12 GMT-0500 (Central Daylight Time),127094.40000000596,pear,900,I,z,,,1,,,14,2,2211.0999999940395,124883.30000001192,8019,iron,NF,C,,,,,,,,,,6
6,prac,1,con,1,z,Tue Apr 22 2025 17:24:12 GMT-0500 (Central Daylight Time),129826.60000002384,kiwi,1000,I,z,,,428,,,7,2,2727.800000011921,127098.80000001192,8019,kiwi,NF,C,,,,,,,,,,7
7,prac,1,inc,1,m,Tue Apr 22 2025 17:24:12 GMT-0500 (Central Daylight Time),132692.80000001192,raisin,1100,I,m,,,453,,,12,2,2861.800000011921,129831.0,8019,cobalt,NF,C,,,,,,,,,,8
8,prac,1,inc,1,m,Tue Apr 22 2025 17:24:12 GMT-0500 (Central Daylight Time),135958.20000001788,plum,1100,I,m,,,858,,,16,2,3261.2000000178814,132697.0,8019,lead,NF,C,,,,,,,,,,9
9,prac,1,inc,1,z,Tue Apr 22 2025 17:24:12 GMT-0500 (Central Daylight Time),139240.70000001788,lead,1100,I,z,,,881,,,8,2,3277.9000000059605,135962.80000001192,8019,plum,NF,C,,,,,,,,,,10
10,prac,1,con,1,z,Tue Apr 22 2025 17:24:12 GMT-0500 (Central Daylight Time),142256.30000001192,orange,1000,I,z,,,707,,,3,2,3010.800000011921,139245.5,8019,orange,NF,C,,,,,,,,,,11
11,prac,1,inc,1,z,Tue Apr 22 2025 17:24:12 GMT-0500 (Central Daylight Time),145372.30000001192,cobalt,1100,I,z,,,710,,,4,2,3111.800000011921,142260.5,8019,raisin,NF,C,,,,,,,,,,12
12,prac,1,inc,1,z,Tue Apr 22 2025 17:24:12 GMT-0500 (Central Daylight Time),148321.20000001788,copper,900,I,z,,,749,,,2,2,2945.0999999940395,145376.10000002384,8019,cherry,NF,C,,,,,,,,,,13
13,prac,1,con,1,m,Tue Apr 22 2025 17:24:12 GMT-0500 (Central Daylight Time),151170.30000001192,bronze,800,I,m,,,739,,,9,2,2845.199999988079,148325.10000002384,8019,bronze,NF,C,,,,,,,,,,14
14,prac,1,con,1,m,Tue Apr 22 2025 17:24:12 GMT-0500 (Central Daylight Time),154302.40000000596,silver,1000,I,m,,,825,,,11,2,3127.699999988079,151174.70000001788,8019,silver,NF,C,,,,,,,,,,15
15,prac,1,con,1,m,Tue Apr 22 2025 17:24:12 GMT-0500 (Central Daylight Time),157201.80000001192,zinc,1000,I,m,,,596,,,15,2,2895.300000011921,154306.5,8019,zinc,NF,C,,,,,,,,,,16
1,test,1,con,1,z,Tue Apr 22 2025 17:24:12 GMT-0500 (Central Daylight Time),170682.0,lime,1000,I,z,z,None,624,425.0,199.0,35,2,2163.699999988079,168518.30000001192,8019,lime,NF,C,166453,166453,164723,165737,164724,166887,166253,166253,166887,1
2,test,1,inc,1,m,Tue Apr 22 2025 17:24:12 GMT-0500 (Central Daylight Time),172813.80000001192,banana,800,I,m,m,None,787,587.0,200.0,69,2,2126.699999988079,170687.10000002384,8019,bronze,NF,C,168419,168419,166892,167703,166893,169019,168219,168219,169019,2
3,test,1,con,1,z,Tue Apr 22 2025 17:24:12 GMT-0500 (Central Daylight Time),174812.80000001192,kiwi,1000,I,z,z,None,462,263.0,199.0,51,2,1994.300000011921,172818.5,8019,kiwi,NF,C,170751,170751,169024,170035,169024,171018,170552,170552,171018,3
4,test,1,inc,1,m,Tue Apr 22 2025 17:24:12 GMT-0500 (Central Daylight Time),176978.70000001788,kiwi,1000,I,m,m,None,632,432.0,200.0,119,2,2161.5,174817.20000001788,8019,zinc,NF,C,172751,172751,171022,172035,171023,173184,172551,172551,173184,4
5,test,1,con,1,m,Tue Apr 22 2025 17:24:12 GMT-0500 (Central Daylight Time),179261.40000000596,zinc,900,I,m,m,None,837,637.0,200.0,114,2,2278.5999999940395,176982.80000001192,8019,zinc,NF,C,174817,174817,173188,174101,173188,175466,174617,174617,175466,5
6,test,1,inc,1,z,Tue Apr 22 2025 17:24:12 GMT-0500 (Central Daylight Time),181627.40000000596,zinc,1000,I,z,z,None,829,630.0,199.0,47,2,2361.9000000059605,179265.5,8019,pear,NF,C,177200,177200,175471,176483,175471,177832,177000,177000,177832,6
7,test,1,inc,1,z,Tue Apr 22 2025 17:24:12 GMT-0500 (Central Daylight Time),183976.80000001192,iron,900,I,z,z,None,899,700.0,199.0,54,2,2345.4000000059605,181631.40000000596,8019,kiwi,NF,C,179466,179466,177836,178749,177837,180182,179266,179266,180182,7
8,test,1,inc,1,m,Tue Apr 22 2025 17:24:12 GMT-0500 (Central Daylight Time),185992.5,cherry,900,I,m,m,None,580,367.0,213.0,78,2,2011.2999999821186,183981.20000001788,8019,copper,NF,C,181815,181815,180186,181098,180187,182198,181601,181601,182198,8
9,test,1,inc,1,z,Tue Apr 22 2025 17:24:12 GMT-0500 (Central Daylight Time),188092.10000002384,copper,900,I,z,z,None,663,463.0,200.0,30,2,2095.7000000178814,185996.40000000596,8019,raisin,NF,C,183831,183831,182201,183114,182202,184297,183631,183631,184297,9
10,test,1,con,1,m,Tue Apr 22 2025 17:24:12 GMT-0500 (Central Daylight Time),190258.0,gold,1000,I,m,m,None,632,432.0,200.0,99,2,2161.5999999940395,188096.40000000596,8019,gold,NF,C,186030,186030,184301,185314,184302,186463,185830,185830,186463,10
11,test,1,con,1,z,Tue Apr 22 2025 17:24:12 GMT-0500 (Central Daylight Time),192340.5,plum,800,I,z,z,None,737,538.0,199.0,57,2,2078.2999999821186,190262.20000001788,8019,plum,NF,C,187996,187996,186467,187280,186468,188546,187797,187797,188545,11
12,test,1,con,1,z,Tue Apr 22 2025 17:24:12 GMT-0500 (Central Daylight Time),194523.40000000596,kiwi,900,I,z,z,None,739,538.0,201.0,50,2,2178.9000000059605,192344.5,8019,kiwi,NF,C,190180,190180,188549,189462,188550,190728,189979,189979,190728,12
13,test,1,con,1,m,Tue Apr 22 2025 17:24:12 GMT-0500 (Central Daylight Time),196372.70000001788,bronze,800,I,m,m,None,503,304.0,199.0,65,2,1845.7000000178814,194527.0,8019,bronze,NF,C,192262,192262,190732,191545,190732,192578,192062,192062,192578,13
14,test,1,inc,1,m,Tue Apr 22 2025 17:24:12 GMT-0500 (Central Daylight Time),198705.20000001788,kiwi,1000,I,m,m,None,783,583.0,200.0,111,2,2328.2000000178814,196377.0,8019,iron,NF,C,194311,194311,192582,193594,192582,194910,194111,194111,194910,14
15,test,1,con,1,m,Tue Apr 22 2025 17:24:12 GMT-0500 (Central Daylight Time),201021.30000001192,bronze,900,I,m,m,None,870,671.0,199.0,66,2,2312.0,198709.30000001192,8019,bronze,NF,C,196543,196543,194914,195827,194915,197226,196344,196344,197226,15
16,test,1,con,1,m,Tue Apr 22 2025 17:24:12 GMT-0500 (Central Daylight Time),203137.5,bronze,1100,I,m,m,None,474,275.0,199.0,68,2,2112.2999999821186,201025.20000001788,8019,bronze,NF,C,199060,199060,197230,198343,197231,199343,198859,198860,199343,16
17,test,1,inc,1,z,Tue Apr 22 2025 17:24:12 GMT-0500 (Central Daylight Time),205320.10000002384,iron,900,I,z,z,None,734,535.0,199.0,38,2,2178.800000011921,203141.30000001192,8019,lime,NF,C,200975,200975,199346,200259,199347,201525,200776,200776,201525,17
18,test,1,inc,1,m,Tue Apr 22 2025 17:24:12 GMT-0500 (Central Daylight Time),207852.80000001192,raisin,1100,I,m,m,None,886,671.0,215.0,88,2,2528.699999988079,205324.10000002384,8019,silver,NF,C,203375,203375,201529,202642,201530,204058,203159,203159,204058,18
19,test,1,inc,1,m,Tue Apr 22 2025 17:24:12 GMT-0500 (Central Daylight Time),210085.0,lime,800,I,m,m,None,828,629.0,199.0,101,2,2228.399999976158,207856.60000002384,8019,gold,NF,C,205658,205658,204062,204952,204062,206290,205458,205458,206290,19
20,test,1,inc,1,z,Tue Apr 22 2025 17:24:12 GMT-0500 (Central Daylight Time),212784.30000001192,cobalt,1100,I,z,z,None,1060,860.0,200.0,16,2,2695.4000000059605,210088.90000000596,8019,cherry,NF,C,208123,208123,206294,207407,206294,208989,207923,207923,208989,20
21,test,1,con,1,z,Tue Apr 22 2025 17:24:12 GMT-0500 (Central Daylight Time),214916.90000000596,raisin,1100,I,z,z,None,487,288.0,199.0,28,2,2127.2999999821186,212789.60000002384,8019,raisin,NF,C,210822,210822,208995,210106,208996,211122,210623,210623,211122,21
22,test,1,inc,1,m,Tue Apr 22 2025 17:24:12 GMT-0500 (Central Daylight Time),217266.5,kiwi,1000,I,m,m,None,807,607.0,200.0,103,2,2345.199999988079,214921.30000001192,8019,gold,NF,C,212855,212855,211126,212139,211127,213472,212655,212655,213471,22
23,test,1,inc,1,m,Tue Apr 22 2025 17:24:12 GMT-0500 (Central Daylight Time),219865.20000001788,orange,1000,I,m,m,None,1049,850.0,199.0,71,2,2594.800000011921,217270.40000000596,8019,bronze,NF,C,215204,215204,213475,214488,213476,216070,215005,215005,216070,23
24,test,1,con,1,z,Tue Apr 22 2025 17:24:12 GMT-0500 (Central Daylight Time),222331.40000000596,kiwi,800,I,z,z,None,1122,923.0,199.0,49,2,2462.0,219869.40000000596,8019,kiwi,NF,C,217604,217604,216074,216887,216075,218537,217404,217404,218536,24
25,test,1,con,1,m,Tue Apr 22 2025 17:24:12 GMT-0500 (Central Daylight Time),224230.60000002384,iron,800,I,m,m,None,560,361.0,199.0,105,2,1895.2000000178814,222335.40000000596,8019,iron,NF,C,220070,220070,218540,219353,218541,220436,219870,219870,220436,25
26,test,1,inc,1,m,Tue Apr 22 2025 17:24:12 GMT-0500 (Central Daylight Time),227029.80000001192,kiwi,1000,I,m,m,None,1252,1053.0,199.0,127,2,2795.0999999940395,224234.70000001788,8019,lead,NF,C,222169,222169,220440,221453,220440,223235,221969,221969,223235,26
27,test,1,con,1,m,Tue Apr 22 2025 17:24:12 GMT-0500 (Central Daylight Time),229229.10000002384,silver,1100,I,m,m,None,562,363.0,199.0,84,2,2195.100000023842,227034.0,8019,silver,NF,C,225068,225068,223239,224351,223239,225434,224868,224868,225434,27
28,test,1,con,1,m,Tue Apr 22 2025 17:24:12 GMT-0500 (Central Daylight Time),231195.30000001192,cobalt,1000,I,m,m,None,423,223.0,200.0,91,2,1962.199999988079,229233.10000002384,8019,cobalt,NF,C,227167,227167,225438,226451,225438,227400,226967,226967,227400,28
28,test,1,con,0,z,Tue Apr 22 2025 17:24:12 GMT-0500 (Central Daylight Time),233177.80000001192,cherry,900,I,m,m,None,541,341.0,200.0,10,2,1978.5999999940395,231199.20000001788,8019,cherry,NF,C,229033,229033,227404,228317,227405,229383,228833,228833,229383,29
29,test,1,con,1,z,Tue Apr 22 2025 17:24:12 GMT-0500 (Central Daylight Time),234977.40000000596,orange,800,I,z,z,None,458,258.0,200.0,17,2,1795.7999999821186,233181.60000002384,8019,orange,NF,C,230916,230916,229387,230200,229387,231182,230716,230716,231182,30
30,test,1,inc,1,z,Tue Apr 22 2025 17:24:12 GMT-0500 (Central Daylight Time),236976.80000001192,zinc,1000,I,z,z,None,450,251.0,199.0,63,2,1995.5999999940395,234981.20000001788,8019,plum,NF,C,232915,232915,231186,232199,231187,233182,232716,232716,233182,31
31,test,1,inc,1,m,Tue Apr 22 2025 17:24:12 GMT-0500 (Central Daylight Time),238942.80000001192,banana,800,I,m,m,None,627,427.0,200.0,77,2,1962.300000011921,236980.5,8019,copper,NF,C,234715,234715,233186,233999,233186,235148,234515,234515,235148,32
32,test,1,inc,1,m,Tue Apr 22 2025 17:24:12 GMT-0500 (Central Daylight Time),241142.30000001192,cherry,900,I,m,m,None,753,554.0,199.0,94,2,2195.5999999940395,238946.70000001788,8019,cobalt,NF,C,236781,236781,235152,236065,235152,237347,236581,236581,237347,33
33,test,1,con,1,m,Tue Apr 22 2025 17:24:12 GMT-0500 (Central Daylight Time),243691.20000001788,iron,1100,I,m,m,None,906,706.0,200.0,108,2,2545.2000000178814,241146.0,8019,iron,NF,C,239180,239180,237351,238464,237351,239896,238980,238980,239896,34
34,test,1,inc,1,z,Tue Apr 22 2025 17:24:12 GMT-0500 (Central Daylight Time),246190.30000001192,zinc,1000,I,z,z,None,952,753.0,199.0,39,2,2495.4000000059605,243694.90000000596,8019,lime,NF,C,241629,241629,239900,240913,239900,242395,241430,241430,242395,35
35,test,1,con,1,z,Tue Apr 22 2025 17:24:12 GMT-0500 (Central Daylight Time),248673.20000001788,raisin,1000,I,z,z,None,932,733.0,199.0,27,2,2479.0999999940395,246194.10000002384,8019,raisin,NF,C,244128,244129,242399,243412,242400,244878,243929,243929,244878,36
36,test,1,inc,1,z,Tue Apr 22 2025 17:24:12 GMT-0500 (Central Daylight Time),250839.10000002384,gold,800,I,z,z,None,818,619.0,199.0,45,2,2162.2000000178814,248676.90000000596,8019,pear,NF,C,246411,246411,244882,245695,244882,247044,246211,246212,247044,37
37,test,1,inc,1,z,Tue Apr 22 2025 17:24:12 GMT-0500 (Central Daylight Time),253055.30000001192,bronze,800,I,z,z,None,877,677.0,200.0,5,2,2212.4000000059605,250842.90000000596,8019,banana,NF,C,248577,248577,247048,247861,247048,249260,248377,248377,249260,38
38,test,1,con,1,m,Tue Apr 22 2025 17:24:12 GMT-0500 (Central Daylight Time),255354.20000001788,cobalt,800,I,m,m,None,965,765.0,200.0,89,2,2295.0999999940395,253059.10000002384,8019,cobalt,NF,C,250793,250793,249264,250077,249264,251559,250593,250593,251559,39
39,test,1,con,1,z,Tue Apr 22 2025 17:24:12 GMT-0500 (Central Daylight Time),257220.60000002384,lime,900,I,z,z,None,423,223.0,200.0,34,2,1862.300000011921,255358.30000001192,8019,lime,NF,C,253192,253192,251563,252476,251564,253426,252992,252992,253426,40
40,test,1,con,1,z,Tue Apr 22 2025 17:24:12 GMT-0500 (Central Daylight Time),259403.0,lime,1100,I,z,z,None,554,339.0,215.0,36,2,2178.699999988079,257224.30000001192,8019,lime,NF,C,255258,255259,253429,254542,253430,255608,255043,255043,255608,41
41,test,1,con,1,z,Tue Apr 22 2025 17:24:12 GMT-0500 (Central Daylight Time),261285.70000001788,banana,800,I,z,z,None,546,346.0,200.0,1,2,1879.0,259406.70000001788,8019,banana,NF,C,257141,257141,255612,256425,255612,257491,256941,256941,257491,42
42,test,1,inc,1,z,Tue Apr 22 2025 17:24:12 GMT-0500 (Central Daylight Time),263618.5,copper,900,I,z,z,None,891,691.0,200.0,6,2,2328.7999999821186,261289.70000001788,8019,banana,NF,C,259124,259124,257495,258408,257495,259824,258924,258924,259823,43
43,test,1,con,1,z,Tue Apr 22 2025 17:24:12 GMT-0500 (Central Daylight Time),265784.3000000119,banana,1100,I,z,z,None,516,317.0,199.0,4,2,2162.199999988079,263622.10000002384,8019,banana,NF,C,261657,261657,259827,260940,259827,261989,261457,261457,261989,44
44,test,1,con,1,m,Tue Apr 22 2025 17:24:12 GMT-0500 (Central Daylight Time),267983.60000002384,lead,1100,I,m,m,None,551,352.0,199.0,124,2,2195.4000000059605,265788.2000000179,8019,lead,NF,C,263823,263823,261993,263106,261994,264189,263622,263623,264189,45
45,test,1,inc,1,m,Tue Apr 22 2025 17:24:12 GMT-0500 (Central Daylight Time),270366.10000002384,plum,1100,I,m,m,None,743,544.0,199.0,112,2,2378.800000011921,267987.3000000119,8019,iron,NF,C,266022,266022,264192,265305,264193,266571,265822,265822,266571,46
46,test,1,con,1,m,Tue Apr 22 2025 17:24:12 GMT-0500 (Central Daylight Time),272249.10000002384,iron,900,I,m,m,None,434,234.0,200.0,106,2,1878.800000011921,270370.3000000119,8019,iron,NF,C,268204,268204,266575,267488,266576,268454,268004,268004,268454,47
47,test,1,con,1,m,Tue Apr 22 2025 17:24:12 GMT-0500 (Central Daylight Time),274564.90000000596,zinc,1000,I,m,m,None,772,572.0,200.0,115,2,2312.0999999940395,272252.8000000119,8019,zinc,NF,C,270187,270187,268458,269471,268458,270770,269987,269987,270770,48
48,test,1,con,1,z,Tue Apr 22 2025 17:24:12 GMT-0500 (Central Daylight Time),276730.90000000596,pear,900,I,z,z,None,731,531.0,200.0,42,2,2162.199999988079,274568.7000000179,8019,pear,NF,C,272403,272403,270774,271687,270774,272936,272203,272203,272936,49
49,test,1,inc,1,z,Tue Apr 22 2025 17:24:12 GMT-0500 (Central Daylight Time),279097.10000002384,copper,900,I,z,z,None,917,717.0,200.0,14,2,2362.5,276734.60000002384,8019,cherry,NF,C,274569,274569,272940,273853,272940,275302,274369,274369,275302,50
50,test,1,con,1,z,Tue Apr 22 2025 17:24:12 GMT-0500 (Central Daylight Time),281679.5,plum,1100,I,z,z,None,935,735.0,200.0,60,2,2578.5999999940395,279100.90000000596,8019,plum,NF,C,277135,277135,275306,276419,275306,277885,276935,276935,277885,51
51,test,1,con,1,m,Tue Apr 22 2025 17:24:12 GMT-0500 (Central Daylight Time),284011.90000000596,lead,800,I,m,m,None,995,796.0,199.0,121,2,2328.4000000059605,281683.5,8019,lead,NF,C,279418,279418,277889,278701,277889,280217,279218,279218,280217,52
52,test,1,con,1,m,Tue Apr 22 2025 17:24:12 GMT-0500 (Central Daylight Time),286261.3000000119,zinc,1100,I,m,m,None,613,413.0,200.0,116,2,2245.5999999940395,284015.7000000179,8019,zinc,NF,C,282050,282050,280221,281334,280221,282466,281850,281850,282466,53
53,test,1,inc,1,z,Tue Apr 22 2025 17:24:12 GMT-0500 (Central Daylight Time),288577.2000000179,lead,1100,I,z,z,None,675,476.0,199.0,56,2,2312.2000000178814,286265.0,8019,kiwi,NF,C,284299,284299,282470,283583,282470,284782,284100,284100,284782,54
53,test,1,con,0,m,Tue Apr 22 2025 17:24:12 GMT-0500 (Central Daylight Time),290476.7000000179,silver,900,I,z,z,None,455,255.0,200.0,82,2,1895.7000000178814,288581.0,8019,silver,NF,C,286415,286415,284786,285699,284786,286682,286215,286215,286682,55
54,test,1,con,1,z,Tue Apr 22 2025 17:24:12 GMT-0500 (Central Daylight Time),292609.40000000596,cherry,1100,I,z,z,None,482,283.0,199.0,12,2,2128.7999999821186,290480.60000002384,8019,cherry,NF,C,288515,288515,286686,287798,286686,288815,288315,288315,288814,56
55,test,1,inc,1,z,Tue Apr 22 2025 17:24:12 GMT-0500 (Central Daylight Time),295108.7000000179,silver,1000,I,z,z,None,956,755.0,201.0,31,2,2495.7000000178814,292613.0,8019,raisin,NF,C,290548,290548,288818,289831,288818,291314,290347,290347,291314,57
56,test,1,inc,1,m,Tue Apr 22 2025 17:24:12 GMT-0500 (Central Daylight Time),297207.8000000119,lime,800,I,m,m,None,751,552.0,199.0,125,2,2095.199999988079,295112.60000002384,8019,lead,NF,C,292847,292847,291318,292130,291318,293413,292647,292647,293413,58
57,test,1,inc,1,z,Tue Apr 22 2025 17:24:12 GMT-0500 (Central Daylight Time),299540.60000002384,silver,1000,I,z,z,None,797,597.0,200.0,15,2,2329.0,297211.60000002384,8019,cherry,NF,C,295146,295146,293417,294430,293417,295746,294946,294946,295746,59
58,test,1,inc,1,z,Tue Apr 22 2025 17:24:12 GMT-0500 (Central Daylight Time),302306.2000000179,cobalt,1100,I,z,z,None,1131,932.0,199.0,24,2,2761.9000000059605,299544.3000000119,8019,orange,NF,C,297579,297579,295749,296862,295750,298511,297379,297379,298511,60
59,test,1,inc,1,m,Tue Apr 22 2025 17:24:12 GMT-0500 (Central Daylight Time),304305.60000002384,banana,800,I,m,m,None,650,451.0,199.0,93,2,1995.7000000178814,302309.90000000596,8019,cobalt,NF,C,300044,300044,298515,299338,298515,300511,299845,299845,300511,61
60,test,1,con,1,m,Tue Apr 22 2025 17:24:12 GMT-0500 (Central Daylight Time),306654.90000000596,lead,1000,I,m,m,None,809,610.0,199.0,123,2,2345.199999988079,304309.7000000179,8019,lead,NF,C,302244,302244,300515,301527,300515,302860,302044,302044,302860,62
61,test,1,inc,1,z,Tue Apr 22 2025 17:24:12 GMT-0500 (Central Daylight Time),308970.8000000119,cobalt,1100,I,z,z,None,682,482.0,200.0,8,2,2311.800000011921,306659.0,8019,banana,NF,C,304693,304693,302864,303977,302864,305176,304493,304493,305176,63
62,test,1,inc,1,z,Tue Apr 22 2025 17:24:12 GMT-0500 (Central Daylight Time),311320.10000002384,cobalt,1100,I,z,z,None,701,501.0,200.0,32,2,2345.800000011921,308974.3000000119,8019,raisin,NF,C,307009,307009,305179,306293,305180,307525,306809,306809,307525,64
63,test,1,con,1,z,Tue Apr 22 2025 17:24:12 GMT-0500 (Central Daylight Time),313802.40000000596,pear,1100,I,z,z,None,849,649.0,200.0,44,2,2478.5999999940395,311323.8000000119,8019,pear,NF,C,309358,309358,307529,308642,307529,310007,309158,309158,310007,65
64,test,1,con,1,m,Tue Apr 22 2025 17:24:12 GMT-0500 (Central Daylight Time),316018.60000002384,bronze,1000,I,m,m,None,680,481.0,199.0,67,2,2212.4000000059605,313806.2000000179,8019,bronze,NF,C,311741,311741,310011,311024,310011,312224,311541,311541,312224,66
65,test,1,con,1,m,Tue Apr 22 2025 17:24:12 GMT-0500 (Central Daylight Time),318351.3000000119,copper,1000,I,m,m,None,794,594.0,200.0,75,2,2329.300000011921,316022.0,8019,copper,NF,C,313957,313957,312227,313240,312227,314556,313757,313757,314556,67
66,test,1,con,1,z,Tue Apr 22 2025 17:24:12 GMT-0500 (Central Daylight Time),320484.10000002384,plum,900,I,z,z,None,690,490.0,200.0,58,2,2128.9000000059605,318355.2000000179,8019,plum,NF,C,316189,316189,314560,315473,314561,316689,315989,315989,316689,68
67,test,1,inc,1,m,Tue Apr 22 2025 17:24:12 GMT-0500 (Central Daylight Time),322983.10000002384,plum,1100,I,m,m,None,860,660.0,200.0,120,2,2495.300000011921,320487.8000000119,8019,zinc,NF,C,318522,318522,316693,317805,316693,319188,318322,318322,319188,69
68,test,1,inc,1,z,Tue Apr 22 2025 17:24:12 GMT-0500 (Central Daylight Time),325700.10000002384,silver,1000,I,z,z,None,1182,982.0,200.0,23,2,2713.2000000178814,322986.90000000596,8019,orange,NF,C,320921,320921,319192,320205,319192,321905,320721,320721,321905,70
69,test,1,inc,1,m,Tue Apr 22 2025 17:24:12 GMT-0500 (Central Daylight Time),327998.3000000119,plum,1100,I,m,m,None,661,461.0,200.0,128,2,2294.699999988079,325703.60000002384,8019,lead,NF,C,323737,323737,321909,323020,321909,324203,323537,323537,324203,71
70,test,1,con,1,m,Tue Apr 22 2025 17:24:12 GMT-0500 (Central Daylight Time),330514.10000002384,copper,1100,I,m,m,None,883,683.0,200.0,76,2,2512.100000023842,328002.0,8019,copper,NF,C,326036,326036,324207,325320,324207,326719,325836,325836,326719,72
70,test,1,inc,0,m,Tue Apr 22 2025 17:24:12 GMT-0500 (Central Daylight Time),332863.40000000596,pear,900,I,z,z,None,909,710.0,199.0,102,2,2345.5,330517.90000000596,8019,gold,NF,C,328352,328352,326723,327636,326723,329068,328153,328153,329068,73
71,test,1,inc,1,z,Tue Apr 22 2025 17:24:12 GMT-0500 (Central Daylight Time),335329.2000000179,iron,900,I,z,z,None,1015,816.0,199.0,62,2,2462.0,332867.2000000179,8019,plum,NF,C,330702,330702,329072,329985,329073,331534,330502,330502,331534,74
72,test,1,inc,1,m,Tue Apr 22 2025 17:24:12 GMT-0500 (Central Daylight Time),337312.0,lime,800,I,m,m,None,643,444.0,199.0,117,2,1979.0999999940395,335332.90000000596,8019,zinc,NF,C,333067,333067,331538,332351,331538,333517,332868,332868,333517,75
73,test,1,inc,1,z,Tue Apr 22 2025 17:24:12 GMT-0500 (Central Daylight Time),339794.60000002384,lead,1100,I,z,z,None,841,641.0,200.0,40,2,2478.9000000059605,337315.7000000179,8019,lime,NF,C,335350,335350,333521,334634,333521,336000,335150,335150,336000,76
74,test,1,con,1,z,Tue Apr 22 2025 17:24:12 GMT-0500 (Central Daylight Time),342110.2000000179,orange,900,I,z,z,None,876,677.0,199.0,18,2,2311.9000000059605,339798.3000000119,8019,orange,NF,C,337633,337633,336003,336916,336004,338315,337433,337433,338315,77
75,test,1,con,1,z,Tue Apr 22 2025 17:24:12 GMT-0500 (Central Daylight Time),344459.7000000179,kiwi,1100,I,z,z,None,705,506.0,199.0,52,2,2345.5,342114.2000000179,8019,kiwi,NF,C,340148,340148,338319,339432,338320,340665,339949,339949,340665,78
76,test,1,con,1,m,Tue Apr 22 2025 17:24:12 GMT-0500 (Central Daylight Time),346792.5,copper,800,I,m,m,None,984,784.0,200.0,73,2,2329.0999999940395,344463.40000000596,8019,copper,NF,C,342198,342198,340668,341481,340669,342998,341998,341998,342998,79
77,test,1,inc,1,z,Tue Apr 22 2025 17:24:12 GMT-0500 (Central Daylight Time),348958.5,gold,800,I,z,z,None,827,628.0,199.0,53,2,2162.2999999821186,346796.2000000179,8019,kiwi,NF,C,344530,344530,343001,343814,343001,345164,344331,344331,345163,80
78,test,1,inc,1,m,Tue Apr 22 2025 17:24:12 GMT-0500 (Central Daylight Time),351073.90000000596,pear,900,I,m,m,None,681,482.0,199.0,126,2,2111.699999988079,348962.2000000179,8019,lead,NF,C,346796,346796,345167,346080,345168,347279,346597,346597,347279,81
79,test,1,inc,1,m,Tue Apr 22 2025 17:24:12 GMT-0500 (Central Daylight Time),353741.2000000179,plum,1100,I,m,m,None,1029,830.0,199.0,104,2,2663.5999999940395,351077.60000002384,8019,gold,NF,C,349112,349113,347283,348396,347283,349946,348913,348913,349946,82
80,test,1,inc,1,z,Tue Apr 22 2025 17:24:12 GMT-0500 (Central Daylight Time),355789.10000002384,bronze,800,I,z,z,None,703,504.0,199.0,29,2,2042.300000011921,353746.8000000119,8019,raisin,NF,C,351478,351478,349952,350762,349952,351994,351279,351279,351994,83
81,test,1,inc,1,z,Tue Apr 22 2025 17:24:12 GMT-0500 (Central Daylight Time),357872.10000002384,copper,900,I,z,z,None,634,435.0,199.0,22,2,2078.9000000059605,355793.2000000179,8019,orange,NF,C,353627,353627,351998,352911,351999,354077,353428,353428,354077,84
82,test,1,con,1,z,Tue Apr 22 2025 17:24:12 GMT-0500 (Central Daylight Time),360054.60000002384,plum,1000,I,z,z,None,644,444.0,200.0,59,2,2178.5,357876.10000002384,8019,plum,NF,C,355810,355810,354081,355094,354082,356260,355610,355610,356260,85
83,test,1,inc,1,z,Tue Apr 22 2025 17:24:12 GMT-0500 (Central Daylight Time),362604.0,lead,1100,I,z,z,None,905,705.0,200.0,64,2,2545.699999988079,360058.3000000119,8019,plum,NF,C,358093,358093,356263,357376,356264,358809,357893,357893,358809,86
84,test,1,con,1,m,Tue Apr 22 2025 17:24:12 GMT-0500 (Central Daylight Time),364903.2000000179,cobalt,900,I,m,m,None,860,660.0,200.0,90,2,2295.4000000059605,362607.8000000119,8019,cobalt,NF,C,360442,360442,358813,359726,358813,361108,360242,360242,361108,87
85,test,1,inc,1,z,Tue Apr 22 2025 17:24:12 GMT-0500 (Central Daylight Time),367085.8000000119,zinc,1000,I,z,z,None,637,437.0,200.0,55,2,2179.0,364906.8000000119,8019,kiwi,NF,C,362841,362841,361112,362125,361112,363291,362641,362641,363291,88
86,test,1,con,1,z,Tue Apr 22 2025 17:24:12 GMT-0500 (Central Daylight Time),369318.5,cherry,800,I,z,z,None,894,694.0,200.0,9,2,2228.899999976158,367089.60000002384,8019,cherry,NF,C,364824,364824,363295,364108,363295,365524,364624,364624,365523,89
87,test,1,con,1,z,Tue Apr 22 2025 17:24:12 GMT-0500 (Central Daylight Time),371501.2000000179,raisin,900,I,z,z,None,736,537.0,199.0,26,2,2178.7000000178814,369322.5,8019,raisin,NF,C,367156,367157,365528,366440,365528,367706,366957,366957,367706,90
88,test,1,con,1,z,Tue Apr 22 2025 17:24:12 GMT-0500 (Central Daylight Time),373812.10000002384,lime,800,I,z,z,None,978,778.0,200.0,33,2,2306.9000000059605,371505.2000000179,8019,lime,NF,C,369239,369239,367710,368523,367711,370017,369039,369039,370017,91
89,test,1,inc,1,z,Tue Apr 22 2025 17:24:12 GMT-0500 (Central Daylight Time),375983.10000002384,bronze,800,I,z,z,None,827,627.0,200.0,21,2,2166.800000011921,373816.3000000119,8019,orange,NF,C,371555,371555,370021,370839,370022,372188,371355,371355,372188,92
90,test,1,con,1,m,Tue Apr 22 2025 17:24:12 GMT-0500 (Central Daylight Time),378232.5,copper,900,I,m,m,None,809,609.0,200.0,74,2,2245.399999976158,375987.10000002384,8019,copper,NF,C,373821,373821,372192,373105,372193,374438,373621,373621,374438,93
91,test,1,con,1,m,Tue Apr 22 2025 17:24:12 GMT-0500 (Central Daylight Time),381081.5,cobalt,1100,I,m,m,None,1207,1008.0,199.0,92,2,2844.899999976158,378236.60000002384,8019,cobalt,NF,C,376270,376270,374442,375554,374442,377287,376070,376071,377287,94
92,test,1,inc,1,z,Tue Apr 22 2025 17:24:12 GMT-0500 (Central Daylight Time),383314.10000002384,iron,900,I,z,z,None,797,598.0,199.0,46,2,2228.800000011921,381085.3000000119,8019,pear,NF,C,378920,378920,377290,378203,377291,379519,378720,378720,379519,95
93,test,1,con,1,z,Tue Apr 22 2025 17:24:12 GMT-0500 (Central Daylight Time),385896.60000002384,orange,1100,I,z,z,None,934,734.0,200.0,20,2,2578.9000000059605,383317.7000000179,8019,orange,NF,C,381352,381352,379523,380636,379523,382102,381152,381152,382102,96
94,test,1,con,1,m,Tue Apr 22 2025 17:24:12 GMT-0500 (Central Daylight Time),388129.2000000179,gold,900,I,m,m,None,782,583.0,199.0,98,2,2228.9000000059605,385900.3000000119,8019,gold,NF,C,383735,383735,382105,383018,382106,384334,383535,383535,384334,97
95,test,1,con,1,z,Tue Apr 22 2025 17:24:12 GMT-0500 (Central Daylight Time),390395.2000000179,cherry,1000,I,z,z,None,731,531.0,200.0,11,2,2261.800000011921,388133.40000000596,8019,cherry,NF,C,386067,386067,384338,385351,384339,386600,385867,385867,386600,98
96,test,1,inc,1,m,Tue Apr 22 2025 17:24:12 GMT-0500 (Central Daylight Time),392594.40000000596,orange,1000,I,m,m,None,656,456.0,200.0,95,2,2195.7999999821186,390398.60000002384,8019,cobalt,NF,C,388333,388334,386604,387617,386604,388799,388133,388133,388799,99
97,test,1,con,1,z,Tue Apr 22 2025 17:24:12 GMT-0500 (Central Daylight Time),394760.5,orange,1000,I,z,z,None,624,425.0,199.0,19,2,2162.399999976158,392598.10000002384,8019,orange,NF,C,390533,390533,388803,389816,388803,390966,390333,390333,390965,100
98,test,1,inc,1,z,Tue Apr 22 2025 17:24:12 GMT-0500 (Central Daylight Time),396826.5,gold,800,I,z,z,None,722,523.0,199.0,61,2,2062.0999999940395,394764.40000000596,8019,plum,NF,C,392499,392499,390969,391782,390970,393032,392299,392299,393032,101
99,test,1,con,1,m,Tue Apr 22 2025 17:24:12 GMT-0500 (Central Daylight Time),399159.10000002384,iron,1000,I,m,m,None,792,593.0,199.0,107,2,2328.800000011921,396830.3000000119,8019,iron,NF,C,394765,394765,393035,394048,393036,395364,394565,394565,395364,102
100,test,1,con,1,z,Tue Apr 22 2025 17:24:12 GMT-0500 (Central Daylight Time),401108.40000000596,pear,800,I,z,z,None,613,413.0,200.0,41,2,1945.5999999940395,399162.8000000119,8019,pear,NF,C,396897,396897,395368,396181,395368,397313,396697,396697,397313,103
101,test,1,inc,1,m,Tue Apr 22 2025 17:24:12 GMT-0500 (Central Daylight Time),403524.5,cherry,900,I,m,m,None,970,771.0,199.0,70,2,2412.0999999940395,401112.40000000596,8019,bronze,NF,C,398947,398947,397317,398230,397318,399730,398747,398747,399730,104
102,test,1,inc,1,m,Tue Apr 22 2025 17:24:12 GMT-0500 (Central Daylight Time),405923.8000000119,raisin,1100,I,m,m,None,755,556.0,199.0,72,2,2395.5,403528.3000000119,8019,bronze,NF,C,401562,401562,399733,400846,399734,402129,401363,401363,402129,105
103,test,1,con,1,z,Tue Apr 22 2025 17:24:12 GMT-0500 (Central Daylight Time),408172.90000000596,pear,1000,I,z,z,None,712,512.0,200.0,43,2,2245.199999988079,405927.7000000179,8019,pear,NF,C,403862,403862,402133,403145,402133,404378,403662,403662,404378,106
104,test,1,inc,1,m,Tue Apr 22 2025 17:24:12 GMT-0500 (Central Daylight Time),410588.90000000596,orange,1000,I,m,m,None,879,679.0,200.0,87,2,2412.0999999940395,408176.8000000119,8019,silver,NF,C,406111,406111,404382,405395,404382,406794,405911,405911,406794,107
105,test,1,con,1,m,Tue Apr 22 2025 17:24:12 GMT-0500 (Central Daylight Time),413154.7000000179,silver,1000,I,m,m,None,1023,823.0,200.0,83,2,2561.800000011921,410592.90000000596,8019,silver,NF,C,408527,408527,406798,407811,406798,409360,408327,408327,409360,108
106,test,1,inc,1,z,Tue Apr 22 2025 17:24:12 GMT-0500 (Central Daylight Time),415187.40000000596,bronze,800,I,z,z,None,697,497.0,200.0,13,2,2028.7999999821186,413158.60000002384,8019,cherry,NF,C,410893,410893,409364,410177,409364,411392,410693,410693,411392,109
107,test,1,inc,1,m,Tue Apr 22 2025 17:24:12 GMT-0500 (Central Daylight Time),417470.10000002384,orange,1000,I,m,m,None,743,544.0,199.0,79,2,2277.100000023842,415193.0,8019,copper,NF,C,413126,413126,411398,412409,411399,413675,412926,412926,413675,110
108,test,1,con,1,z,Tue Apr 22 2025 17:24:12 GMT-0500 (Central Daylight Time),419686.0,banana,900,I,z,z,None,778,578.0,200.0,2,2,2211.5999999940395,417474.40000000596,8019,banana,NF,C,415308,415308,413679,414592,413680,415891,415108,415108,415891,111
109,test,1,inc,1,m,Tue Apr 22 2025 17:24:12 GMT-0500 (Central Daylight Time),422101.90000000596,raisin,1100,I,m,m,None,778,578.0,200.0,80,2,2412.2999999821186,419689.60000002384,8019,copper,NF,C,417724,417724,415895,417020,415895,418307,417524,417524,418307,112
110,test,1,inc,1,z,Tue Apr 22 2025 17:24:12 GMT-0500 (Central Daylight Time),424834.40000000596,lead,1100,I,z,z,None,1098,898.0,200.0,48,2,2728.5999999940395,422105.8000000119,8019,pear,NF,C,420140,420140,418311,419424,418311,421039,419940,419940,421039,113
111,test,1,con,1,m,Tue Apr 22 2025 17:24:12 GMT-0500 (Central Daylight Time),426883.7000000179,silver,800,I,m,m,None,712,513.0,199.0,81,2,2045.800000011921,424837.90000000596,8019,silver,NF,C,422573,422573,421043,421856,421043,423089,422373,422373,423089,114
112,test,1,inc,1,z,Tue Apr 22 2025 17:24:12 GMT-0500 (Central Daylight Time),429066.40000000596,silver,1000,I,z,z,None,648,448.0,200.0,7,2,2179.0,426887.40000000596,8019,banana,NF,C,424822,424822,423092,424105,423093,425271,424622,424622,425271,115
113,test,1,con,1,z,Tue Apr 22 2025 17:24:12 GMT-0500 (Central Daylight Time),431165.7000000179,raisin,800,I,z,z,None,753,554.0,199.0,25,2,2095.5999999940395,429070.10000002384,8019,raisin,NF,C,426804,426804,425275,426088,425275,427371,426605,426605,427371,116
114,test,1,inc,1,m,Tue Apr 22 2025 17:24:12 GMT-0500 (Central Daylight Time),433415.10000002384,pear,900,I,m,m,None,810,610.0,200.0,110,2,2245.800000011921,431169.3000000119,8019,iron,NF,C,429004,429004,427374,428287,427375,429620,428804,428804,429620,117
114,test,1,con,0,m,Tue Apr 22 2025 17:24:12 GMT-0500 (Central Daylight Time),435714.8000000119,gold,800,I,z,z,None,957,757.0,200.0,97,2,2295.699999988079,433419.10000002384,8019,gold,NF,C,431153,431153,429624,430437,429624,431920,430953,430953,431920,118
115,test,1,con,1,m,Tue Apr 22 2025 17:24:12 GMT-0500 (Central Daylight Time),438147.2000000179,lead,900,I,m,m,None,997,797.0,200.0,122,2,2428.9000000059605,435718.3000000119,8019,lead,NF,C,433553,433553,431923,432836,431924,434352,433353,433353,434352,119
116,test,1,con,1,m,Tue Apr 22 2025 17:24:12 GMT-0500 (Central Daylight Time),440746.40000000596,gold,1100,I,m,m,None,957,757.0,200.0,100,2,2595.5,438150.90000000596,8019,gold,NF,C,436185,436185,434356,435469,434356,436952,435985,435985,436951,120
117,test,1,con,1,z,Tue Apr 22 2025 17:24:12 GMT-0500 (Central Daylight Time),442895.60000002384,banana,1000,I,z,z,None,609,410.0,199.0,3,2,2145.300000011921,440750.3000000119,8019,banana,NF,C,438684,438684,436955,437968,436956,439101,438485,438485,439101,121
118,test,1,inc,1,z,Tue Apr 22 2025 17:24:12 GMT-0500 (Central Daylight Time),445394.7000000179,gold,800,I,z,z,None,1035,830.0,205.0,37,2,2495.5999999940395,442899.10000002384,8019,lime,NF,C,440769,440769,439104,439918,439104,441600,440564,440564,441600,122
119,test,1,inc,1,m,Tue Apr 22 2025 17:24:12 GMT-0500 (Central Daylight Time),447460.8000000119,lime,800,I,m,m,None,730,530.0,200.0,109,2,2062.4000000059605,445398.40000000596,8019,iron,NF,C,443133,443133,441603,442417,441604,443666,442933,442933,443666,123
120,test,1,inc,1,m,Tue Apr 22 2025 17:24:12 GMT-0500 (Central Daylight Time),449926.8000000119,pear,900,I,m,m,None,1027,827.0,200.0,118,2,2462.300000011921,447464.5,8019,zinc,NF,C,445299,445299,443670,444583,443670,446132,445099,445099,446132,124
121,test,1,inc,1,m,Tue Apr 22 2025 17:24:12 GMT-0500 (Central Daylight Time),452375.90000000596,raisin,1100,I,m,m,None,801,601.0,200.0,96,2,2445.5,449930.40000000596,8019,cobalt,NF,C,447965,447965,446135,447249,446136,448581,447765,447765,448581,125
122,test,1,inc,1,m,Tue Apr 22 2025 17:24:12 GMT-0500 (Central Daylight Time),454458.60000002384,banana,800,I,m,m,None,740,540.0,200.0,85,2,2079.0,452379.60000002384,8019,silver,NF,C,450114,450114,448585,449398,448585,450664,449914,449914,450664,126
123,test,1,inc,1,m,Tue Apr 22 2025 17:24:12 GMT-0500 (Central Daylight Time),456624.7000000179,cherry,900,I,m,m,None,717,518.0,199.0,86,2,2162.4000000059605,454462.3000000119,8019,silver,NF,C,452296,452296,450667,451580,450668,452830,452097,452097,452830,127
124,test,1,con,1,m,Tue Apr 22 2025 17:24:12 GMT-0500 (Central Daylight Time),458574.0,zinc,800,I,m,m,None,612,412.0,200.0,113,2,1945.5,456628.5,8019,zinc,NF,C,454363,454363,452834,453646,452834,454779,454163,454163,454779,128
