block_c,block_dur,condition,countdown,datetime,endtime,list,multichar_response,project,response,response_time,session_number,start_end,starttime,subject_id,task,task_vers,trial
,,,,Fri Dec 06 2024 16:35:39 GMT-0600 (Central Standard Time),,,,I,space,328,1,,,8011,WL,B,
prac,,0,,Fri Dec 06 2024 16:35:39 GMT-0600 (Central Standard Time),,NA,b,I,b,6417,1,,,8011,WL,B,1.0
prac,,0,,Fri Dec 06 2024 16:35:39 GMT-0600 (Central Standard Time),,NA,bo,I,o,901,1,,,8011,WL,B,1.0
prac,,0,,Fri Dec 06 2024 16:35:39 GMT-0600 (Central Standard Time),,NA,boo,I,o,154,1,,,8011,WL,B,1.0
prac,,0,,Fri Dec 06 2024 16:35:39 GMT-0600 (Central Standard Time),,NA,boos,I,s,115,1,,,8011,WL,B,1.0
prac,,0,,Fri Dec 06 2024 16:35:39 GMT-0600 (Central Standard Time),,NA,boost,I,t,342,1,,,8011,WL,B,1.0
prac,,0,,Fri Dec 06 2024 16:35:39 GMT-0600 (Central Standard Time),,NA,boostenter,I,enter,40473,1,,,8011,WL,B,1.0
1,0.18400001525878906,learn,59815.99998474121,Fri Dec 06 2024 16:35:39 GMT-0600 (Central Standard Time),158543.1000000015,A,s,I,s,170,1,182.90000000596046,158360.19999999553,8011,WL,B,1.0
1,0.7669999599456787,learn,59233.00004005432,Fri Dec 06 2024 16:35:39 GMT-0600 (Central Standard Time),159126.29999999702,A,st,I,t,563,1,766.1000000014901,158360.19999999553,8011,WL,B,1.0
1,1.0500001907348633,learn,58949.99980926514,Fri Dec 06 2024 16:35:39 GMT-0600 (Central Standard Time),159409.3999999985,A,str,I,r,267,1,1049.2000000029802,158360.19999999553,8011,WL,B,1.0
1,1.183000087738037,learn,58816.99991226196,Fri Dec 06 2024 16:35:39 GMT-0600 (Central Standard Time),159542.79999999702,A,stre,I,e,113,1,1182.6000000014901,158360.19999999553,8011,WL,B,1.0
1,1.7170000076293945,learn,58282.999992370605,Fri Dec 06 2024 16:35:39 GMT-0600 (Central Standard Time),160076.1000000015,A,stree,I,e,515,1,1715.9000000059605,158360.19999999553,8011,WL,B,1.0
1,1.8500001430511475,learn,58149.99985694885,Fri Dec 06 2024 16:35:39 GMT-0600 (Central Standard Time),160209.3999999985,A,street,I,t,110,1,1849.2000000029802,158360.19999999553,8011,WL,B,1.0
1,2.0500001907348633,learn,57949.99980926514,Fri Dec 06 2024 16:35:39 GMT-0600 (Central Standard Time),160409.0,A,streetenter,I,enter,185,1,2048.8000000044703,158360.19999999553,8011,WL,B,1.0
1,2.633000135421753,learn,57366.99986457825,Fri Dec 06 2024 16:35:39 GMT-0600 (Central Standard Time),160992.29999999702,A,g,I,g,561,1,582.7999999970198,160409.5,8011,WL,B,2.0
1,2.8330001831054688,learn,57166.99981689453,Fri Dec 06 2024 16:35:39 GMT-0600 (Central Standard Time),161192.19999999553,A,gr,I,r,186,1,782.6999999955297,160409.5,8011,WL,B,2.0
1,2.999000072479248,learn,57000.99992752075,Fri Dec 06 2024 16:35:39 GMT-0600 (Central Standard Time),161358.79999999702,A,gra,I,a,155,1,949.2999999970198,160409.5,8011,WL,B,2.0
1,3.2330000400543213,learn,56766.99995994568,Fri Dec 06 2024 16:35:39 GMT-0600 (Central Standard Time),161592.19999999553,A,gras,I,s,219,1,1182.6999999955297,160409.5,8011,WL,B,2.0
1,3.366000175476074,learn,56633.999824523926,Fri Dec 06 2024 16:35:39 GMT-0600 (Central Standard Time),161725.3999999985,A,grass,I,s,121,1,1315.8999999985099,160409.5,8011,WL,B,2.0
1,3.5490000247955322,learn,56450.99997520447,Fri Dec 06 2024 16:35:39 GMT-0600 (Central Standard Time),161908.5,A,grassenter,I,enter,174,1,1499.0,160409.5,8011,WL,B,2.0
1,3.949000120162964,learn,56050.999879837036,Fri Dec 06 2024 16:35:39 GMT-0600 (Central Standard Time),162308.6000000015,A,d,I,d,391,1,399.40000000596046,161909.19999999553,8011,WL,B,3.0
1,4.131999969482422,learn,55868.00003051758,Fri Dec 06 2024 16:35:39 GMT-0600 (Central Standard Time),162491.79999999702,A,do,I,o,174,1,582.6000000014901,161909.19999999553,8011,WL,B,3.0
1,4.266999959945679,learn,55733.00004005432,Fri Dec 06 2024 16:35:39 GMT-0600 (Central Standard Time),162626.1000000015,A,doo,I,o,126,1,716.9000000059605,161909.19999999553,8011,WL,B,3.0
1,4.381999969482422,learn,55618.00003051758,Fri Dec 06 2024 16:35:39 GMT-0600 (Central Standard Time),162741.79999999702,A,door,I,r,96,1,832.6000000014901,161909.19999999553,8011,WL,B,3.0
1,4.616000175476074,learn,55383.999824523926,Fri Dec 06 2024 16:35:39 GMT-0600 (Central Standard Time),162975.0,A,doorenter,I,enter,221,1,1065.8000000044703,161909.19999999553,8011,WL,B,3.0
1,4.881999969482422,learn,55118.00003051758,Fri Dec 06 2024 16:35:39 GMT-0600 (Central Standard Time),163241.5,A,w,I,w,251,1,266.1000000014901,162975.3999999985,8011,WL,B,4.0
1,4.966000080108643,learn,55033.99991989136,Fri Dec 06 2024 16:35:39 GMT-0600 (Central Standard Time),163325.1000000015,A,wi,I,i,65,1,349.70000000298023,162975.3999999985,8011,WL,B,4.0
1,5.115000009536743,learn,54884.99999046326,Fri Dec 06 2024 16:35:39 GMT-0600 (Central Standard Time),163474.69999999553,A,win,I,n,133,1,499.29999999701977,162975.3999999985,8011,WL,B,4.0
1,5.215000152587891,learn,54784.99984741211,Fri Dec 06 2024 16:35:39 GMT-0600 (Central Standard Time),163574.79999999702,A,wind,I,d,88,1,599.3999999985099,162975.3999999985,8011,WL,B,4.0
1,5.332000017166138,learn,54667.99998283386,Fri Dec 06 2024 16:35:39 GMT-0600 (Central Standard Time),163691.6000000015,A,windo,I,o,100,1,716.2000000029802,162975.3999999985,8011,WL,B,4.0
1,5.499000072479248,learn,54500.99992752075,Fri Dec 06 2024 16:35:39 GMT-0600 (Central Standard Time),163858.0,A,window,I,w,143,1,882.6000000014901,162975.3999999985,8011,WL,B,4.0
1,5.682000160217285,learn,54317.999839782715,Fri Dec 06 2024 16:35:39 GMT-0600 (Central Standard Time),164041.29999999702,A,windowenter,I,enter,161,1,1065.8999999985099,162975.3999999985,8011,WL,B,4.0
1,5.949000120162964,learn,54050.999879837036,Fri Dec 06 2024 16:35:39 GMT-0600 (Central Standard Time),164308.0,A,w,I,w,257,1,266.3999999985099,164041.6000000015,8011,WL,B,5.0
1,6.815000057220459,learn,53184.99994277954,Fri Dec 06 2024 16:35:39 GMT-0600 (Central Standard Time),165174.5,A,wi,I,i,855,1,1132.8999999985099,164041.6000000015,8011,WL,B,5.0
1,7.148000001907349,learn,52851.99999809265,Fri Dec 06 2024 16:35:39 GMT-0600 (Central Standard Time),165507.79999999702,A,wif,I,f,316,1,1466.1999999955297,164041.6000000015,8011,WL,B,5.0
1,7.215000152587891,learn,52784.99984741211,Fri Dec 06 2024 16:35:39 GMT-0600 (Central Standard Time),165574.29999999702,A,wife,I,e,54,1,1532.6999999955297,164041.6000000015,8011,WL,B,5.0
1,7.465000152587891,learn,52534.99984741211,Fri Dec 06 2024 16:35:39 GMT-0600 (Central Standard Time),165824.1000000015,A,wifeenter,I,enter,236,1,1782.5,164041.6000000015,8011,WL,B,5.0
1,7.680999994277954,learn,52319.000005722046,Fri Dec 06 2024 16:35:39 GMT-0600 (Central Standard Time),166040.6000000015,A,a,I,a,194,1,215.90000000596046,165824.69999999553,8011,WL,B,6.0
1,7.79800009727478,learn,52201.99990272522,Fri Dec 06 2024 16:35:39 GMT-0600 (Central Standard Time),166157.29999999702,A,ar,I,r,98,1,332.6000000014901,165824.69999999553,8011,WL,B,6.0
1,7.930999994277954,learn,52069.000005722046,Fri Dec 06 2024 16:35:39 GMT-0600 (Central Standard Time),166290.79999999702,A,arm,I,m,118,1,466.1000000014901,165824.69999999553,8011,WL,B,6.0
1,8.164999961853027,learn,51835.00003814697,Fri Dec 06 2024 16:35:39 GMT-0600 (Central Standard Time),166523.8999999985,A,armenter,I,enter,216,1,699.2000000029802,165824.69999999553,8011,WL,B,6.0
1,8.581000089645386,learn,51418.999910354614,Fri Dec 06 2024 16:35:39 GMT-0600 (Central Standard Time),166940.29999999702,A,c,I,c,405,1,416.0,166524.29999999702,8011,WL,B,7.0
1,8.748000144958496,learn,51251.999855041504,Fri Dec 06 2024 16:35:39 GMT-0600 (Central Standard Time),167107.1000000015,A,ci,I,i,150,1,582.8000000044703,166524.29999999702,8011,WL,B,7.0
1,8.88100004196167,learn,51118.99995803833,Fri Dec 06 2024 16:35:39 GMT-0600 (Central Standard Time),167240.1000000015,A,cit,I,t,119,1,715.8000000044703,166524.29999999702,8011,WL,B,7.0
1,9.19700002670288,learn,50802.99997329712,Fri Dec 06 2024 16:35:39 GMT-0600 (Central Standard Time),167556.6000000015,A,city,I,y,299,1,1032.3000000044703,166524.29999999702,8011,WL,B,7.0
1,9.380000114440918,learn,50619.99988555908,Fri Dec 06 2024 16:35:39 GMT-0600 (Central Standard Time),167739.79999999702,A,cityenter,I,enter,165,1,1215.5,166524.29999999702,8011,WL,B,7.0
1,9.664000034332275,learn,50335.999965667725,Fri Dec 06 2024 16:35:39 GMT-0600 (Central Standard Time),168023.5,A,s,I,s,270,1,283.30000000447035,167740.19999999553,8011,WL,B,8.0
1,9.896000146865845,learn,50103.999853134155,Fri Dec 06 2024 16:35:39 GMT-0600 (Central Standard Time),168256.69999999553,A,st,I,t,211,1,516.5,167740.19999999553,8011,WL,B,8.0
1,10.062999963760376,learn,49937.000036239624,Fri Dec 06 2024 16:35:39 GMT-0600 (Central Standard Time),168423.5,A,sta,I,a,155,1,683.3000000044703,167740.19999999553,8011,WL,B,8.0
1,10.180000066757202,learn,49819.9999332428,Fri Dec 06 2024 16:35:39 GMT-0600 (Central Standard Time),168539.8999999985,A,star,I,r,107,1,799.7000000029802,167740.19999999553,8011,WL,B,8.0
1,10.380000114440918,learn,49619.99988555908,Fri Dec 06 2024 16:35:39 GMT-0600 (Central Standard Time),168740.1000000015,A,starenter,I,enter,191,1,999.9000000059605,167740.19999999553,8011,WL,B,8.0
1,11.396000146865845,learn,48603.999853134155,Fri Dec 06 2024 16:35:39 GMT-0600 (Central Standard Time),169756.19999999553,A,p,I,p,999,1,1015.6999999955297,168740.5,8011,WL,B,9.0
1,11.59600019454956,learn,48403.99980545044,Fri Dec 06 2024 16:35:39 GMT-0600 (Central Standard Time),169955.8999999985,A,pi,I,i,190,1,1215.3999999985099,168740.5,8011,WL,B,9.0
1,11.746000051498413,learn,48253.99994850159,Fri Dec 06 2024 16:35:39 GMT-0600 (Central Standard Time),170106.1000000015,A,pip,I,p,135,1,1365.6000000014901,168740.5,8011,WL,B,9.0
1,11.879000186920166,learn,48120.999813079834,Fri Dec 06 2024 16:35:39 GMT-0600 (Central Standard Time),170239.19999999553,A,pipe,I,e,121,1,1498.6999999955297,168740.5,8011,WL,B,9.0
1,12.078999996185303,learn,47921.0000038147,Fri Dec 06 2024 16:35:39 GMT-0600 (Central Standard Time),170439.1000000015,A,pipeenter,I,enter,180,1,1698.6000000014901,168740.5,8011,WL,B,9.0
1,12.629000186920166,learn,47370.999813079834,Fri Dec 06 2024 16:35:39 GMT-0600 (Central Standard Time),170989.1000000015,A,g,I,g,540,1,549.7000000029802,170439.3999999985,8011,WL,B,10.0
1,13.129000186920166,learn,46870.999813079834,Fri Dec 06 2024 16:35:39 GMT-0600 (Central Standard Time),171489.1000000015,A,,I,backspace,477,1,1049.7000000029802,170439.3999999985,8011,WL,B,10.0
1,13.295000076293945,learn,46704.999923706055,Fri Dec 06 2024 16:35:39 GMT-0600 (Central Standard Time),171655.69999999553,A,f,I,f,146,1,1216.2999999970198,170439.3999999985,8011,WL,B,10.0
1,13.394999980926514,learn,46605.000019073486,Fri Dec 06 2024 16:35:39 GMT-0600 (Central Standard Time),171755.5,A,fi,I,i,91,1,1316.1000000014901,170439.3999999985,8011,WL,B,10.0
1,13.562000036239624,learn,46437.999963760376,Fri Dec 06 2024 16:35:39 GMT-0600 (Central Standard Time),171922.29999999702,A,fir,I,r,151,1,1482.8999999985099,170439.3999999985,8011,WL,B,10.0
1,13.662000179290771,learn,46337.99982070923,Fri Dec 06 2024 16:35:39 GMT-0600 (Central Standard Time),172022.29999999702,A,fire,I,e,80,1,1582.8999999985099,170439.3999999985,8011,WL,B,10.0
1,13.912000179290771,learn,46087.99982070923,Fri Dec 06 2024 16:35:39 GMT-0600 (Central Standard Time),172272.19999999553,A,fireenter,I,enter,229,1,1832.7999999970198,170439.3999999985,8011,WL,B,10.0
1,22.12600016593933,learn,37873.99983406067,Fri Dec 06 2024 16:35:39 GMT-0600 (Central Standard Time),180486.3999999985,A,c,I,c,8195,1,8213.79999999702,172272.6000000015,8011,WL,B,11.0
1,22.2260000705719,learn,37773.9999294281,Fri Dec 06 2024 16:35:39 GMT-0600 (Central Standard Time),180586.29999999702,A,cl,I,l,93,1,8313.69999999553,172272.6000000015,8011,WL,B,11.0
1,22.442000150680542,learn,37557.99984931946,Fri Dec 06 2024 16:35:39 GMT-0600 (Central Standard Time),180802.6000000015,A,clo,I,o,201,1,8530.0,172272.6000000015,8011,WL,B,11.0
1,22.542999982833862,learn,37457.00001716614,Fri Dec 06 2024 16:35:39 GMT-0600 (Central Standard Time),180902.8999999985,A,cloc,I,c,81,1,8630.29999999702,172272.6000000015,8011,WL,B,11.0
1,22.64199995994568,learn,37358.00004005432,Fri Dec 06 2024 16:35:39 GMT-0600 (Central Standard Time),181002.6000000015,A,clock,I,k,91,1,8730.0,172272.6000000015,8011,WL,B,11.0
1,22.9760000705719,learn,37023.9999294281,Fri Dec 06 2024 16:35:39 GMT-0600 (Central Standard Time),181336.0,A,clockenter,I,enter,321,1,9063.39999999851,172272.6000000015,8011,WL,B,11.0
1,26.70800018310547,learn,33291.99981689453,Fri Dec 06 2024 16:35:39 GMT-0600 (Central Standard Time),185068.1000000015,A,s,I,s,3715,1,3731.8000000044703,181336.29999999702,8011,WL,B,12.0
1,26.94099998474121,learn,33059.00001525879,Fri Dec 06 2024 16:35:39 GMT-0600 (Central Standard Time),185301.29999999702,A,st,I,t,223,1,3965.0,181336.29999999702,8011,WL,B,12.0
1,27.157999992370605,learn,32842.000007629395,Fri Dec 06 2024 16:35:39 GMT-0600 (Central Standard Time),185518.1000000015,A,str,I,r,197,1,4181.80000000447,181336.29999999702,8011,WL,B,12.0
1,27.241000175476074,learn,32758.999824523926,Fri Dec 06 2024 16:35:39 GMT-0600 (Central Standard Time),185601.29999999702,A,stre,I,e,61,1,4265.0,181336.29999999702,8011,WL,B,12.0
1,27.60700011253357,learn,32392.99988746643,Fri Dec 06 2024 16:35:39 GMT-0600 (Central Standard Time),185967.79999999702,A,stree,I,e,353,1,4631.5,181336.29999999702,8011,WL,B,12.0
1,27.79100012779236,learn,32208.99987220764,Fri Dec 06 2024 16:35:39 GMT-0600 (Central Standard Time),186151.19999999553,A,street,I,t,171,1,4814.89999999851,181336.29999999702,8011,WL,B,12.0
1,27.925000190734863,learn,32074.999809265137,Fri Dec 06 2024 16:35:39 GMT-0600 (Central Standard Time),186285.19999999553,A,streetenter,I,enter,115,1,4948.89999999851,181336.29999999702,8011,WL,B,12.0
1,34.18900012969971,learn,25810.999870300293,Fri Dec 06 2024 16:35:39 GMT-0600 (Central Standard Time),192549.19999999553,A,p,I,p,6246,1,6263.5999999940395,186285.6000000015,8011,WL,B,13.0
1,34.455000162124634,learn,25544.999837875366,Fri Dec 06 2024 16:35:39 GMT-0600 (Central Standard Time),192815.6000000015,A,pu,I,u,253,1,6530.0,186285.6000000015,8011,WL,B,13.0
1,34.65499997138977,learn,25345.00002861023,Fri Dec 06 2024 16:35:39 GMT-0600 (Central Standard Time),193015.6000000015,A,pup,I,p,179,1,6730.0,186285.6000000015,8011,WL,B,13.0
1,34.78800010681152,learn,25211.999893188477,Fri Dec 06 2024 16:35:39 GMT-0600 (Central Standard Time),193148.79999999702,A,pupi,I,i,124,1,6863.19999999553,186285.6000000015,8011,WL,B,13.0
1,34.98800015449524,learn,25011.99984550476,Fri Dec 06 2024 16:35:39 GMT-0600 (Central Standard Time),193348.79999999702,A,pupil,I,l,190,1,7063.19999999553,186285.6000000015,8011,WL,B,13.0
1,35.28800010681152,learn,24711.999893188477,Fri Dec 06 2024 16:35:39 GMT-0600 (Central Standard Time),193648.69999999553,A,pupilenter,I,enter,278,1,7363.0999999940395,186285.6000000015,8011,WL,B,13.0
1,38.63700008392334,learn,21362.99991607666,Fri Dec 06 2024 16:35:39 GMT-0600 (Central Standard Time),196997.6000000015,A,c,I,c,3331,1,3348.60000000149,193649.0,8011,WL,B,14.0
1,38.78700017929077,learn,21212.99982070923,Fri Dec 06 2024 16:35:39 GMT-0600 (Central Standard Time),197147.5,A,ci,I,i,142,1,3498.5,193649.0,8011,WL,B,14.0
1,38.9210000038147,learn,21078.999996185303,Fri Dec 06 2024 16:35:39 GMT-0600 (Central Standard Time),197281.1000000015,A,cit,I,t,120,1,3632.10000000149,193649.0,8011,WL,B,14.0
1,39.104000091552734,learn,20895.999908447266,Fri Dec 06 2024 16:35:39 GMT-0600 (Central Standard Time),197464.29999999702,A,city,I,y,162,1,3815.2999999970198,193649.0,8011,WL,B,14.0
1,39.2039999961853,learn,20796.000003814697,Fri Dec 06 2024 16:35:39 GMT-0600 (Central Standard Time),197564.19999999553,A,cityenter,I,enter,82,1,3915.1999999955297,193649.0,8011,WL,B,14.0
1,41.37000012397766,learn,18629.99987602234,Fri Dec 06 2024 16:35:39 GMT-0600 (Central Standard Time),199730.29999999702,A,f,I,f,2159,1,2165.6999999955297,197564.6000000015,8011,WL,B,15.0
1,41.503000020980835,learn,18496.999979019165,Fri Dec 06 2024 16:35:39 GMT-0600 (Central Standard Time),199863.6000000015,A,fi,I,i,121,1,2299.0,197564.6000000015,8011,WL,B,15.0
1,41.65300011634827,learn,18346.999883651733,Fri Dec 06 2024 16:35:39 GMT-0600 (Central Standard Time),200013.29999999702,A,fir,I,r,132,1,2448.6999999955297,197564.6000000015,8011,WL,B,15.0
1,41.753000020980835,learn,18246.999979019165,Fri Dec 06 2024 16:35:39 GMT-0600 (Central Standard Time),200113.29999999702,A,fire,I,e,85,1,2548.6999999955297,197564.6000000015,8011,WL,B,15.0
1,41.90300011634827,learn,18096.999883651733,Fri Dec 06 2024 16:35:39 GMT-0600 (Central Standard Time),200263.19999999553,A,fireenter,I,enter,138,1,2698.5999999940395,197564.6000000015,8011,WL,B,15.0
2,0.9330000877380371,learn,59066.99991226196,Fri Dec 06 2024 16:35:39 GMT-0600 (Central Standard Time),269475.0,A,l,I,l,918,1,933.0,268542.0,8011,WL,B,1.0
2,1.0329999923706055,learn,58967.000007629395,Fri Dec 06 2024 16:35:39 GMT-0600 (Central Standard Time),269575.1000000015,A,la,I,a,87,1,1033.1000000014901,268542.0,8011,WL,B,1.0
2,1.183000087738037,learn,58816.99991226196,Fri Dec 06 2024 16:35:39 GMT-0600 (Central Standard Time),269725.1000000015,A,lak,I,k,132,1,1183.1000000014901,268542.0,8011,WL,B,1.0
2,1.4670000076293945,learn,58532.999992370605,Fri Dec 06 2024 16:35:39 GMT-0600 (Central Standard Time),270008.19999999553,A,lake,I,e,270,1,1466.1999999955297,268542.0,8011,WL,B,1.0
2,1.6670000553131104,learn,58332.99994468689,Fri Dec 06 2024 16:35:39 GMT-0600 (Central Standard Time),270208.299999997,A,lakeenter,I,enter,178,1,1666.2999999970198,268542.0,8011,WL,B,1.0
2,3.183000087738037,learn,56816.99991226196,Fri Dec 06 2024 16:35:39 GMT-0600 (Central Standard Time),271724.19999999553,A,s,I,s,1499,1,1515.5999999940395,270208.6000000015,8011,WL,B,2.0
2,3.2660000324249268,learn,56733.99996757507,Fri Dec 06 2024 16:35:39 GMT-0600 (Central Standard Time),271807.5,A,sk,I,k,70,1,1598.8999999985099,270208.6000000015,8011,WL,B,2.0
2,3.433000087738037,learn,56566.99991226196,Fri Dec 06 2024 16:35:39 GMT-0600 (Central Standard Time),271974.299999997,A,ski,I,i,155,1,1765.6999999955297,270208.6000000015,8011,WL,B,2.0
2,3.5490000247955322,learn,56450.99997520447,Fri Dec 06 2024 16:35:39 GMT-0600 (Central Standard Time),272090.6000000015,A,skin,I,n,107,1,1882.0,270208.6000000015,8011,WL,B,2.0
2,3.8329999446868896,learn,56167.00005531311,Fri Dec 06 2024 16:35:39 GMT-0600 (Central Standard Time),272374.1000000015,A,skinenter,I,enter,272,1,2165.5,270208.6000000015,8011,WL,B,2.0
2,4.332000017166138,learn,55667.99998283386,Fri Dec 06 2024 16:35:39 GMT-0600 (Central Standard Time),272873.8999999985,A,s,I,s,485,1,499.3999999985099,272374.5,8011,WL,B,3.0
2,4.565999984741211,learn,55434.00001525879,Fri Dec 06 2024 16:35:39 GMT-0600 (Central Standard Time),273107.19999999553,A,st,I,t,217,1,732.6999999955297,272374.5,8011,WL,B,3.0
2,4.732000112533569,learn,55267.99988746643,Fri Dec 06 2024 16:35:39 GMT-0600 (Central Standard Time),273273.69999999553,A,str,I,r,152,1,899.1999999955297,272374.5,8011,WL,B,3.0
2,4.815999984741211,learn,55184.00001525879,Fri Dec 06 2024 16:35:39 GMT-0600 (Central Standard Time),273357.19999999553,A,stre,I,e,73,1,982.6999999955297,272374.5,8011,WL,B,3.0
2,5.196000099182129,learn,54803.99990081787,Fri Dec 06 2024 16:35:39 GMT-0600 (Central Standard Time),273737.5,A,stree,I,e,226,1,1363.0,272374.5,8011,WL,B,3.0
2,5.216000080108643,learn,54783.99991989136,Fri Dec 06 2024 16:35:39 GMT-0600 (Central Standard Time),273757.5,A,street,I,t,7,1,1383.0,272374.5,8011,WL,B,3.0
2,5.381999969482422,learn,54618.00003051758,Fri Dec 06 2024 16:35:39 GMT-0600 (Central Standard Time),273923.3999999985,A,streetenter,I,enter,150,1,1548.8999999985099,272374.5,8011,WL,B,3.0
2,5.732000112533569,learn,54267.99988746643,Fri Dec 06 2024 16:35:39 GMT-0600 (Central Standard Time),274273.6000000015,A,g,I,g,336,1,349.70000000298023,273923.8999999985,8011,WL,B,4.0
2,5.931999921798706,learn,54068.000078201294,Fri Dec 06 2024 16:35:39 GMT-0600 (Central Standard Time),274473.69999999553,A,gr,I,r,178,1,549.7999999970198,273923.8999999985,8011,WL,B,4.0
2,6.115000009536743,learn,53884.99999046326,Fri Dec 06 2024 16:35:39 GMT-0600 (Central Standard Time),274656.69999999553,A,gra,I,a,168,1,732.7999999970198,273923.8999999985,8011,WL,B,4.0
2,6.332000017166138,learn,53667.99998283386,Fri Dec 06 2024 16:35:39 GMT-0600 (Central Standard Time),274873.299999997,A,gras,I,s,195,1,949.3999999985099,273923.8999999985,8011,WL,B,4.0
2,6.482000112533569,learn,53517.99988746643,Fri Dec 06 2024 16:35:39 GMT-0600 (Central Standard Time),275023.1000000015,A,grass,I,s,130,1,1099.2000000029802,273923.8999999985,8011,WL,B,4.0
2,6.5980000495910645,learn,53401.999950408936,Fri Dec 06 2024 16:35:39 GMT-0600 (Central Standard Time),275140.0,A,grassenter,I,enter,107,1,1216.1000000014901,273923.8999999985,8011,WL,B,4.0
2,6.914999961853027,learn,53085.00003814697,Fri Dec 06 2024 16:35:39 GMT-0600 (Central Standard Time),275456.6000000015,A,l,I,l,303,1,316.30000000447035,275140.299999997,8011,WL,B,5.0
2,7.04800009727478,learn,52951.99990272522,Fri Dec 06 2024 16:35:39 GMT-0600 (Central Standard Time),275589.69999999553,A,la,I,a,114,1,449.3999999985099,275140.299999997,8011,WL,B,5.0
2,7.197999954223633,learn,52802.00004577637,Fri Dec 06 2024 16:35:39 GMT-0600 (Central Standard Time),275739.5,A,lak,I,k,142,1,599.2000000029802,275140.299999997,8011,WL,B,5.0
2,7.2820000648498535,learn,52717.99993515015,Fri Dec 06 2024 16:35:39 GMT-0600 (Central Standard Time),275824.0,A,lake,I,e,64,1,683.7000000029802,275140.299999997,8011,WL,B,5.0
2,7.430999994277954,learn,52569.000005722046,Fri Dec 06 2024 16:35:39 GMT-0600 (Central Standard Time),275972.8999999985,A,lakeenter,I,enter,131,1,832.6000000014901,275140.299999997,8011,WL,B,5.0
2,7.763999938964844,learn,52236.000061035156,Fri Dec 06 2024 16:35:39 GMT-0600 (Central Standard Time),276306.0,A,s,I,s,318,1,332.70000000298023,275973.299999997,8011,WL,B,6.0
2,7.864000082015991,learn,52135.99991798401,Fri Dec 06 2024 16:35:39 GMT-0600 (Central Standard Time),276406.0,A,sk,I,k,80,1,432.70000000298023,275973.299999997,8011,WL,B,6.0
2,8.015000104904175,learn,51984.999895095825,Fri Dec 06 2024 16:35:39 GMT-0600 (Central Standard Time),276556.19999999553,A,ski,I,i,134,1,582.8999999985099,275973.299999997,8011,WL,B,6.0
2,8.180999994277954,learn,51819.000005722046,Fri Dec 06 2024 16:35:39 GMT-0600 (Central Standard Time),276722.799999997,A,skin,I,n,142,1,749.5,275973.299999997,8011,WL,B,6.0
2,8.364000082015991,learn,51635.99991798401,Fri Dec 06 2024 16:35:39 GMT-0600 (Central Standard Time),276906.0,A,skinenter,I,enter,160,1,932.7000000029802,275973.299999997,8011,WL,B,6.0
2,8.480999946594238,learn,51519.00005340576,Fri Dec 06 2024 16:35:39 GMT-0600 (Central Standard Time),277022.6000000015,A,a,I,a,106,1,116.30000000447035,276906.299999997,8011,WL,B,7.0
2,8.597000122070312,learn,51402.99987792969,Fri Dec 06 2024 16:35:39 GMT-0600 (Central Standard Time),277138.799999997,A,ar,I,r,109,1,232.5,276906.299999997,8011,WL,B,7.0
2,8.730999946594238,learn,51269.00005340576,Fri Dec 06 2024 16:35:39 GMT-0600 (Central Standard Time),277272.299999997,A,arm,I,m,113,1,366.0,276906.299999997,8011,WL,B,7.0
2,9.13100004196167,learn,50868.99995803833,Fri Dec 06 2024 16:35:39 GMT-0600 (Central Standard Time),277672.19999999553,A,armenter,I,enter,379,1,765.8999999985099,276906.299999997,8011,WL,B,7.0
2,9.497999906539917,learn,50502.00009346008,Fri Dec 06 2024 16:35:39 GMT-0600 (Central Standard Time),278039.1000000015,A,w,I,w,347,1,366.5,277672.6000000015,8011,WL,B,8.0
2,9.664000034332275,learn,50335.999965667725,Fri Dec 06 2024 16:35:39 GMT-0600 (Central Standard Time),278205.69999999553,A,wi,I,i,148,1,533.0999999940395,277672.6000000015,8011,WL,B,8.0
2,9.79800009727478,learn,50201.99990272522,Fri Dec 06 2024 16:35:39 GMT-0600 (Central Standard Time),278339.8999999985,A,wif,I,f,126,1,667.2999999970198,277672.6000000015,8011,WL,B,8.0
2,9.897000074386597,learn,50102.9999256134,Fri Dec 06 2024 16:35:39 GMT-0600 (Central Standard Time),278438.799999997,A,wife,I,e,87,1,766.1999999955297,277672.6000000015,8011,WL,B,8.0
2,10.013999938964844,learn,49986.000061035156,Fri Dec 06 2024 16:35:39 GMT-0600 (Central Standard Time),278555.299999997,A,wifeenter,I,enter,101,1,882.6999999955297,277672.6000000015,8011,WL,B,8.0
2,10.230999946594238,learn,49769.00005340576,Fri Dec 06 2024 16:35:39 GMT-0600 (Central Standard Time),278772.3999999985,A,w,I,w,199,1,216.79999999701977,278555.6000000015,8011,WL,B,9.0
2,10.331000089645386,learn,49668.999910354614,Fri Dec 06 2024 16:35:39 GMT-0600 (Central Standard Time),278872.0,A,wi,I,i,87,1,316.3999999985099,278555.6000000015,8011,WL,B,9.0
2,10.413000106811523,learn,49586.99989318848,Fri Dec 06 2024 16:35:39 GMT-0600 (Central Standard Time),278955.0,A,win,I,n,75,1,399.3999999985099,278555.6000000015,8011,WL,B,9.0
2,10.52999997138977,learn,49470.00002861023,Fri Dec 06 2024 16:35:39 GMT-0600 (Central Standard Time),279072.0,A,wind,I,d,97,1,516.3999999985099,278555.6000000015,8011,WL,B,9.0
2,10.614000082015991,learn,49385.99991798401,Fri Dec 06 2024 16:35:39 GMT-0600 (Central Standard Time),279155.1000000015,A,windo,I,o,75,1,599.5,278555.6000000015,8011,WL,B,9.0
2,11.02999997138977,learn,48970.00002861023,Fri Dec 06 2024 16:35:39 GMT-0600 (Central Standard Time),279571.8999999985,A,window,I,w,408,1,1016.2999999970198,278555.6000000015,8011,WL,B,9.0
2,11.19700002670288,learn,48802.99997329712,Fri Dec 06 2024 16:35:39 GMT-0600 (Central Standard Time),279738.69999999553,A,windowenter,I,enter,143,1,1183.0999999940395,278555.6000000015,8011,WL,B,9.0
2,11.52999997138977,learn,48470.00002861023,Fri Dec 06 2024 16:35:39 GMT-0600 (Central Standard Time),280071.6000000015,A,d,I,d,321,1,332.6000000014901,279739.0,8011,WL,B,10.0
2,11.680000066757202,learn,48319.9999332428,Fri Dec 06 2024 16:35:39 GMT-0600 (Central Standard Time),280221.69999999553,A,do,I,o,131,1,482.69999999552965,279739.0,8011,WL,B,10.0
2,11.812999963760376,learn,48187.000036239624,Fri Dec 06 2024 16:35:39 GMT-0600 (Central Standard Time),280354.8999999985,A,doo,I,o,117,1,615.8999999985099,279739.0,8011,WL,B,10.0
2,11.913000106811523,learn,48086.99989318848,Fri Dec 06 2024 16:35:39 GMT-0600 (Central Standard Time),280455.0,A,door,I,r,88,1,716.0,279739.0,8011,WL,B,10.0
2,12.097000122070312,learn,47902.99987792969,Fri Dec 06 2024 16:35:39 GMT-0600 (Central Standard Time),280638.3999999985,A,doorenter,I,enter,172,1,899.3999999985099,279739.0,8011,WL,B,10.0
2,12.880000114440918,learn,47119.99988555908,Fri Dec 06 2024 16:35:39 GMT-0600 (Central Standard Time),281421.299999997,A,s,I,s,773,1,782.6999999955297,280638.6000000015,8011,WL,B,11.0
2,13.095999956130981,learn,46904.00004386902,Fri Dec 06 2024 16:35:39 GMT-0600 (Central Standard Time),281637.799999997,A,st,I,t,206,1,999.1999999955297,280638.6000000015,8011,WL,B,11.0
2,13.246000051498413,learn,46753.99994850159,Fri Dec 06 2024 16:35:39 GMT-0600 (Central Standard Time),281787.8999999985,A,sta,I,a,134,1,1149.2999999970198,280638.6000000015,8011,WL,B,11.0
2,13.345999956130981,learn,46654.00004386902,Fri Dec 06 2024 16:35:39 GMT-0600 (Central Standard Time),281887.799999997,A,star,I,r,88,1,1249.1999999955297,280638.6000000015,8011,WL,B,11.0
2,13.52999997138977,learn,46470.00002861023,Fri Dec 06 2024 16:35:39 GMT-0600 (Central Standard Time),282071.1000000015,A,start,I,t,164,1,1432.5,280638.6000000015,8011,WL,B,11.0
2,13.696000099182129,learn,46303.99990081787,Fri Dec 06 2024 16:35:39 GMT-0600 (Central Standard Time),282237.3999999985,A,startenter,I,enter,148,1,1598.7999999970198,280638.6000000015,8011,WL,B,11.0
2,14.428999900817871,learn,45571.00009918213,Fri Dec 06 2024 16:35:39 GMT-0600 (Central Standard Time),282970.799999997,A,s,I,s,711,1,733.1999999955297,282237.6000000015,8011,WL,B,12.0
2,14.628999948501587,learn,45371.00005149841,Fri Dec 06 2024 16:35:39 GMT-0600 (Central Standard Time),283170.6000000015,A,st,I,t,184,1,933.0,282237.6000000015,8011,WL,B,12.0
2,14.913000106811523,learn,45086.99989318848,Fri Dec 06 2024 16:35:39 GMT-0600 (Central Standard Time),283454.1000000015,A,sta,I,a,273,1,1216.5,282237.6000000015,8011,WL,B,12.0
2,15.046000003814697,learn,44953.9999961853,Fri Dec 06 2024 16:35:39 GMT-0600 (Central Standard Time),283587.3999999985,A,star,I,r,117,1,1349.7999999970198,282237.6000000015,8011,WL,B,12.0
2,15.229000091552734,learn,44770.999908447266,Fri Dec 06 2024 16:35:39 GMT-0600 (Central Standard Time),283770.5,A,starenter,I,enter,167,1,1532.8999999985099,282237.6000000015,8011,WL,B,12.0
2,15.59500002861023,learn,44404.99997138977,Fri Dec 06 2024 16:35:39 GMT-0600 (Central Standard Time),284137.0,A,c,I,c,353,1,366.20000000298023,283770.799999997,8011,WL,B,13.0
2,15.812000036239624,learn,44187.999963760376,Fri Dec 06 2024 16:35:39 GMT-0600 (Central Standard Time),284353.69999999553,A,ci,I,i,202,1,582.8999999985099,283770.799999997,8011,WL,B,13.0
2,15.928999900817871,learn,44071.00009918213,Fri Dec 06 2024 16:35:39 GMT-0600 (Central Standard Time),284470.299999997,A,cit,I,t,105,1,699.5,283770.799999997,8011,WL,B,13.0
2,16.111999988555908,learn,43888.00001144409,Fri Dec 06 2024 16:35:39 GMT-0600 (Central Standard Time),284653.5,A,city,I,y,173,1,882.7000000029802,283770.799999997,8011,WL,B,13.0
2,16.278000116348267,learn,43721.99988365173,Fri Dec 06 2024 16:35:39 GMT-0600 (Central Standard Time),284820.1000000015,A,cityenter,I,enter,157,1,1049.3000000044703,283770.799999997,8011,WL,B,13.0
2,16.729000091552734,learn,43270.999908447266,Fri Dec 06 2024 16:35:39 GMT-0600 (Central Standard Time),285270.1000000015,A,f,I,f,439,1,449.6000000014901,284820.5,8011,WL,B,14.0
2,16.861999988555908,learn,43138.00001144409,Fri Dec 06 2024 16:35:39 GMT-0600 (Central Standard Time),285403.299999997,A,fi,I,i,117,1,582.7999999970198,284820.5,8011,WL,B,14.0
2,17.01200008392334,learn,42987.99991607666,Fri Dec 06 2024 16:35:39 GMT-0600 (Central Standard Time),285553.19999999553,A,fie,I,e,127,1,732.6999999955297,284820.5,8011,WL,B,14.0
2,17.111999988555908,learn,42888.00001144409,Fri Dec 06 2024 16:35:39 GMT-0600 (Central Standard Time),285653.3999999985,A,fiew,I,w,90,1,832.8999999985099,284820.5,8011,WL,B,14.0
2,17.227999925613403,learn,42772.0000743866,Fri Dec 06 2024 16:35:39 GMT-0600 (Central Standard Time),285769.69999999553,A,fiewenter,I,enter,93,1,949.1999999955297,284820.5,8011,WL,B,14.0
2,18.045000076293945,learn,41954.999923706055,Fri Dec 06 2024 16:35:39 GMT-0600 (Central Standard Time),286586.3999999985,A,f,I,f,801,1,816.2999999970198,285770.1000000015,8011,WL,B,15.0
2,18.210999965667725,learn,41789.000034332275,Fri Dec 06 2024 16:35:39 GMT-0600 (Central Standard Time),286752.799999997,A,fi,I,i,153,1,982.6999999955297,285770.1000000015,8011,WL,B,15.0
2,18.32800006866455,learn,41671.99993133545,Fri Dec 06 2024 16:35:39 GMT-0600 (Central Standard Time),286869.299999997,A,fir,I,r,98,1,1099.1999999955297,285770.1000000015,8011,WL,B,15.0
2,18.394999980926514,learn,41605.000019073486,Fri Dec 06 2024 16:35:39 GMT-0600 (Central Standard Time),286936.19999999553,A,fire,I,e,45,1,1166.0999999940395,285770.1000000015,8011,WL,B,15.0
2,18.528000116348267,learn,41471.99988365173,Fri Dec 06 2024 16:35:39 GMT-0600 (Central Standard Time),287069.3999999985,A,fireenter,I,enter,115,1,1299.2999999970198,285770.1000000015,8011,WL,B,15.0
3,0.75,learn,59250.0,Fri Dec 06 2024 16:35:39 GMT-0600 (Central Standard Time),354165.0,A,s,I,s,732,1,749.8000000044703,353415.19999999553,8011,WL,B,1.0
3,1.0499999523162842,learn,58950.000047683716,Fri Dec 06 2024 16:35:39 GMT-0600 (Central Standard Time),354464.8999999985,A,st,I,t,278,1,1049.7000000029802,353415.19999999553,8011,WL,B,1.0
3,1.2669999599456787,learn,58733.00004005432,Fri Dec 06 2024 16:35:39 GMT-0600 (Central Standard Time),354681.5,A,str,I,r,194,1,1266.3000000044703,353415.19999999553,8011,WL,B,1.0
3,1.5,learn,58500.0,Fri Dec 06 2024 16:35:39 GMT-0600 (Central Standard Time),354914.8999999985,A,stre,I,e,217,1,1499.7000000029802,353415.19999999553,8011,WL,B,1.0
3,1.6670000553131104,learn,58332.99994468689,Fri Dec 06 2024 16:35:39 GMT-0600 (Central Standard Time),355081.5,A,stree,I,e,143,1,1666.3000000044703,353415.19999999553,8011,WL,B,1.0
3,1.8829998970031738,learn,58117.000102996826,Fri Dec 06 2024 16:35:39 GMT-0600 (Central Standard Time),355297.8999999985,A,street,I,t,201,1,1882.7000000029802,353415.19999999553,8011,WL,B,1.0
3,2.200000047683716,learn,57799.999952316284,Fri Dec 06 2024 16:35:39 GMT-0600 (Central Standard Time),355614.69999999553,A,streetenter,I,enter,297,1,2199.5,353415.19999999553,8011,WL,B,1.0
3,2.682999849319458,learn,57317.00015068054,Fri Dec 06 2024 16:35:39 GMT-0600 (Central Standard Time),356097.8999999985,A,g,I,g,460,1,482.8999999985099,355615.0,8011,WL,B,2.0
3,2.6989998817443848,learn,57301.000118255615,Fri Dec 06 2024 16:35:39 GMT-0600 (Central Standard Time),356114.299999997,A,gf,I,f,1,1,499.29999999701977,355615.0,8011,WL,B,2.0
3,3.3489999771118164,learn,56651.00002288818,Fri Dec 06 2024 16:35:39 GMT-0600 (Central Standard Time),356763.8999999985,A,gfr,I,r,641,1,1148.8999999985099,355615.0,8011,WL,B,2.0
3,4.0320000648498535,learn,55967.99993515015,Fri Dec 06 2024 16:35:39 GMT-0600 (Central Standard Time),357447.3999999985,A,gf,I,backspace,663,1,1832.3999999985099,355615.0,8011,WL,B,2.0
3,4.181999921798706,learn,55818.000078201294,Fri Dec 06 2024 16:35:39 GMT-0600 (Central Standard Time),357597.19999999553,A,g,I,backspace,139,1,1982.1999999955297,355615.0,8011,WL,B,2.0
3,4.299000024795532,learn,55700.99997520447,Fri Dec 06 2024 16:35:39 GMT-0600 (Central Standard Time),357714.0,A,gr,I,r,94,1,2099.0,355615.0,8011,WL,B,2.0
3,4.499000072479248,learn,55500.99992752075,Fri Dec 06 2024 16:35:39 GMT-0600 (Central Standard Time),357914.1000000015,A,gra,I,a,185,1,2299.10000000149,355615.0,8011,WL,B,2.0
3,4.766000032424927,learn,55233.99996757507,Fri Dec 06 2024 16:35:39 GMT-0600 (Central Standard Time),358180.6000000015,A,gras,I,s,249,1,2565.60000000149,355615.0,8011,WL,B,2.0
3,4.915999889373779,learn,55084.00011062622,Fri Dec 06 2024 16:35:39 GMT-0600 (Central Standard Time),358330.5,A,grass,I,s,142,1,2715.5,355615.0,8011,WL,B,2.0
3,5.098999977111816,learn,54901.00002288818,Fri Dec 06 2024 16:35:39 GMT-0600 (Central Standard Time),358514.19999999553,A,grassenter,I,enter,168,1,2899.1999999955297,355615.0,8011,WL,B,2.0
3,5.681999921798706,learn,54318.000078201294,Fri Dec 06 2024 16:35:39 GMT-0600 (Central Standard Time),359096.799999997,A,d,I,d,569,1,582.1999999955297,358514.6000000015,8011,WL,B,3.0
3,5.865000009536743,learn,54134.99999046326,Fri Dec 06 2024 16:35:39 GMT-0600 (Central Standard Time),359280.299999997,A,do,I,o,162,1,765.6999999955297,358514.6000000015,8011,WL,B,3.0
3,6.047999858856201,learn,53952.0001411438,Fri Dec 06 2024 16:35:39 GMT-0600 (Central Standard Time),359463.3999999985,A,doo,I,o,162,1,948.7999999970198,358514.6000000015,8011,WL,B,3.0
3,6.181999921798706,learn,53818.000078201294,Fri Dec 06 2024 16:35:39 GMT-0600 (Central Standard Time),359596.3999999985,A,door,I,r,124,1,1081.7999999970198,358514.6000000015,8011,WL,B,3.0
3,6.398000001907349,learn,53601.99999809265,Fri Dec 06 2024 16:35:39 GMT-0600 (Central Standard Time),359813.299999997,A,doorenter,I,enter,198,1,1298.6999999955297,358514.6000000015,8011,WL,B,3.0
3,6.832000017166138,learn,53167.99998283386,Fri Dec 06 2024 16:35:39 GMT-0600 (Central Standard Time),360246.5,A,w,I,w,413,1,432.8999999985099,359813.6000000015,8011,WL,B,4.0
3,7.148000001907349,learn,52851.99999809265,Fri Dec 06 2024 16:35:39 GMT-0600 (Central Standard Time),360563.0,A,wn,I,n,308,1,749.3999999985099,359813.6000000015,8011,WL,B,4.0
3,7.497999906539917,learn,52502.00009346008,Fri Dec 06 2024 16:35:39 GMT-0600 (Central Standard Time),360913.0,A,w,I,backspace,328,1,1099.3999999985099,359813.6000000015,8011,WL,B,4.0
3,7.7809998989105225,learn,52219.00010108948,Fri Dec 06 2024 16:35:39 GMT-0600 (Central Standard Time),361196.299999997,A,wi,I,i,273,1,1382.6999999955297,359813.6000000015,8011,WL,B,4.0
3,7.813999891281128,learn,52186.00010871887,Fri Dec 06 2024 16:35:39 GMT-0600 (Central Standard Time),361229.3999999985,A,win,I,n,15,1,1415.7999999970198,359813.6000000015,8011,WL,B,4.0
3,7.930999994277954,learn,52069.000005722046,Fri Dec 06 2024 16:35:39 GMT-0600 (Central Standard Time),361346.3999999985,A,wind,I,d,94,1,1532.7999999970198,359813.6000000015,8011,WL,B,4.0
3,8.080999851226807,learn,51919.00014877319,Fri Dec 06 2024 16:35:39 GMT-0600 (Central Standard Time),361496.0,A,windo,I,o,137,1,1682.3999999985099,359813.6000000015,8011,WL,B,4.0
3,8.230999946594238,learn,51769.00005340576,Fri Dec 06 2024 16:35:39 GMT-0600 (Central Standard Time),361646.0,A,window,I,w,139,1,1832.3999999985099,359813.6000000015,8011,WL,B,4.0
3,8.598000049591064,learn,51401.999950408936,Fri Dec 06 2024 16:35:39 GMT-0600 (Central Standard Time),362012.6000000015,A,windowenter,I,enter,357,1,2199.0,359813.6000000015,8011,WL,B,4.0
3,9.047999858856201,learn,50952.0001411438,Fri Dec 06 2024 16:35:39 GMT-0600 (Central Standard Time),362462.6000000015,A,l,I,l,431,1,449.70000000298023,362012.8999999985,8011,WL,B,5.0
3,9.147000074386597,learn,50852.9999256134,Fri Dec 06 2024 16:35:39 GMT-0600 (Central Standard Time),362562.299999997,A,la,I,a,93,1,549.3999999985099,362012.8999999985,8011,WL,B,5.0
3,9.330999851226807,learn,50669.00014877319,Fri Dec 06 2024 16:35:39 GMT-0600 (Central Standard Time),362745.69999999553,A,lak,I,k,161,1,732.7999999970198,362012.8999999985,8011,WL,B,5.0
3,9.430000066757202,learn,50569.9999332428,Fri Dec 06 2024 16:35:39 GMT-0600 (Central Standard Time),362845.299999997,A,lake,I,e,82,1,832.3999999985099,362012.8999999985,8011,WL,B,5.0
3,9.664000034332275,learn,50335.999965667725,Fri Dec 06 2024 16:35:39 GMT-0600 (Central Standard Time),363078.69999999553,A,lakeenter,I,enter,214,1,1065.7999999970198,362012.8999999985,8011,WL,B,5.0
3,10.04699993133545,learn,49953.00006866455,Fri Dec 06 2024 16:35:39 GMT-0600 (Central Standard Time),363462.3999999985,A,c,I,c,364,1,383.5,363078.8999999985,8011,WL,B,6.0
3,10.129999876022339,learn,49870.00012397766,Fri Dec 06 2024 16:35:39 GMT-0600 (Central Standard Time),363545.19999999553,A,ca,I,a,68,1,466.29999999701977,363078.8999999985,8011,WL,B,6.0
3,10.346999883651733,learn,49653.00011634827,Fri Dec 06 2024 16:35:39 GMT-0600 (Central Standard Time),363761.799999997,A,cab,I,b,194,1,682.8999999985099,363078.8999999985,8011,WL,B,6.0
3,10.52999997138977,learn,49470.00002861023,Fri Dec 06 2024 16:35:39 GMT-0600 (Central Standard Time),363944.8999999985,A,cabi,I,i,169,1,866.0,363078.8999999985,8011,WL,B,6.0
3,10.69700002670288,learn,49302.99997329712,Fri Dec 06 2024 16:35:39 GMT-0600 (Central Standard Time),364111.5,A,cabin,I,n,147,1,1032.6000000014901,363078.8999999985,8011,WL,B,6.0
3,10.94700002670288,learn,49052.99997329712,Fri Dec 06 2024 16:35:39 GMT-0600 (Central Standard Time),364361.8999999985,A,cabinenter,I,enter,237,1,1283.0,363078.8999999985,8011,WL,B,6.0
3,11.27999997138977,learn,48720.00002861023,Fri Dec 06 2024 16:35:39 GMT-0600 (Central Standard Time),364695.1000000015,A,f,I,f,313,1,332.90000000596046,364362.19999999553,8011,WL,B,7.0
3,11.430000066757202,learn,48569.9999332428,Fri Dec 06 2024 16:35:39 GMT-0600 (Central Standard Time),364845.0,A,fi,I,i,139,1,482.80000000447035,364362.19999999553,8011,WL,B,7.0
3,11.730000019073486,learn,48269.999980926514,Fri Dec 06 2024 16:35:39 GMT-0600 (Central Standard Time),365144.6000000015,A,fie,I,e,278,1,782.4000000059605,364362.19999999553,8011,WL,B,7.0
3,12.145999908447266,learn,47854.000091552734,Fri Dec 06 2024 16:35:39 GMT-0600 (Central Standard Time),365561.19999999553,A,fi,I,backspace,395,1,1199.0,364362.19999999553,8011,WL,B,7.0
3,12.263000011444092,learn,47736.99998855591,Fri Dec 06 2024 16:35:39 GMT-0600 (Central Standard Time),365678.299999997,A,fir,I,r,99,1,1316.1000000014901,364362.19999999553,8011,WL,B,7.0
3,12.345999956130981,learn,47654.00004386902,Fri Dec 06 2024 16:35:39 GMT-0600 (Central Standard Time),365761.3999999985,A,fire,I,e,69,1,1399.2000000029802,364362.19999999553,8011,WL,B,7.0
3,12.52999997138977,learn,47470.00002861023,Fri Dec 06 2024 16:35:39 GMT-0600 (Central Standard Time),365944.69999999553,A,fireenter,I,enter,161,1,1582.5,364362.19999999553,8011,WL,B,7.0
3,12.86299991607666,learn,47137.00008392334,Fri Dec 06 2024 16:35:39 GMT-0600 (Central Standard Time),366278.1000000015,A,s,I,s,323,1,333.1000000014901,365945.0,8011,WL,B,8.0
3,13.162999868392944,learn,46837.000131607056,Fri Dec 06 2024 16:35:39 GMT-0600 (Central Standard Time),366577.8999999985,A,st,I,t,285,1,632.8999999985099,365945.0,8011,WL,B,8.0
3,13.395999908447266,learn,46604.000091552734,Fri Dec 06 2024 16:35:39 GMT-0600 (Central Standard Time),366811.0,A,sta,I,a,225,1,866.0,365945.0,8011,WL,B,8.0
3,13.61299991607666,learn,46387.00008392334,Fri Dec 06 2024 16:35:39 GMT-0600 (Central Standard Time),367027.799999997,A,star,I,r,200,1,1082.7999999970198,365945.0,8011,WL,B,8.0
3,13.996000051498413,learn,46003.99994850159,Fri Dec 06 2024 16:35:39 GMT-0600 (Central Standard Time),367411.0,A,starenter,I,enter,367,1,1466.0,365945.0,8011,WL,B,8.0
3,14.520999908447266,learn,45479.000091552734,Fri Dec 06 2024 16:35:39 GMT-0600 (Central Standard Time),367936.1000000015,A,c,I,c,518,1,524.8000000044703,367411.299999997,8011,WL,B,9.0
3,14.596999883651733,learn,45403.00011634827,Fri Dec 06 2024 16:35:39 GMT-0600 (Central Standard Time),368012.3999999985,A,cl,I,l,66,1,601.1000000014901,367411.299999997,8011,WL,B,9.0
3,14.812000036239624,learn,45187.999963760376,Fri Dec 06 2024 16:35:39 GMT-0600 (Central Standard Time),368227.299999997,A,clo,I,o,198,1,816.0,367411.299999997,8011,WL,B,9.0
3,14.978999853134155,learn,45021.000146865845,Fri Dec 06 2024 16:35:39 GMT-0600 (Central Standard Time),368393.8999999985,A,cloc,I,c,144,1,982.6000000014901,367411.299999997,8011,WL,B,9.0
3,15.178999900817871,learn,44821.00009918213,Fri Dec 06 2024 16:35:39 GMT-0600 (Central Standard Time),368594.1000000015,A,clock,I,k,177,1,1182.8000000044703,367411.299999997,8011,WL,B,9.0
3,15.461999893188477,learn,44538.00010681152,Fri Dec 06 2024 16:35:39 GMT-0600 (Central Standard Time),368877.19999999553,A,clockenter,I,enter,273,1,1465.8999999985099,367411.299999997,8011,WL,B,9.0
3,15.978999853134155,learn,44021.000146865845,Fri Dec 06 2024 16:35:39 GMT-0600 (Central Standard Time),369393.6000000015,A,p,I,p,494,1,516.1000000014901,368877.5,8011,WL,B,10.0
3,16.34500002861023,learn,43654.99997138977,Fri Dec 06 2024 16:35:39 GMT-0600 (Central Standard Time),369760.299999997,A,pu,I,u,353,1,882.7999999970198,368877.5,8011,WL,B,10.0
3,16.545000076293945,learn,43454.999923706055,Fri Dec 06 2024 16:35:39 GMT-0600 (Central Standard Time),369960.19999999553,A,pup,I,p,187,1,1082.6999999955297,368877.5,8011,WL,B,10.0
3,16.727999925613403,learn,43272.0000743866,Fri Dec 06 2024 16:35:39 GMT-0600 (Central Standard Time),370143.299999997,A,pupi,I,i,164,1,1265.7999999970198,368877.5,8011,WL,B,10.0
3,16.961999893188477,learn,43038.00010681152,Fri Dec 06 2024 16:35:39 GMT-0600 (Central Standard Time),370376.69999999553,A,pupil,I,l,211,1,1499.1999999955297,368877.5,8011,WL,B,10.0
3,17.310999870300293,learn,42689.00012969971,Fri Dec 06 2024 16:35:39 GMT-0600 (Central Standard Time),370726.19999999553,A,pupilenter,I,enter,339,1,1848.6999999955297,368877.5,8011,WL,B,10.0
3,17.911999940872192,learn,42088.00005912781,Fri Dec 06 2024 16:35:39 GMT-0600 (Central Standard Time),371326.6000000015,A,p,I,p,581,1,600.2000000029802,370726.3999999985,8011,WL,B,11.0
3,18.128000020980835,learn,41871.999979019165,Fri Dec 06 2024 16:35:39 GMT-0600 (Central Standard Time),371543.1000000015,A,pi,I,i,205,1,816.7000000029802,370726.3999999985,8011,WL,B,11.0
3,18.361000061035156,learn,41638.999938964844,Fri Dec 06 2024 16:35:39 GMT-0600 (Central Standard Time),371776.299999997,A,pip,I,p,220,1,1049.8999999985099,370726.3999999985,8011,WL,B,11.0
3,18.543999910354614,learn,41456.000089645386,Fri Dec 06 2024 16:35:39 GMT-0600 (Central Standard Time),371959.299999997,A,pipe,I,e,169,1,1232.8999999985099,370726.3999999985,8011,WL,B,11.0
3,18.793999910354614,learn,41206.000089645386,Fri Dec 06 2024 16:35:39 GMT-0600 (Central Standard Time),372209.3999999985,A,pipeenter,I,enter,235,1,1483.0,370726.3999999985,8011,WL,B,11.0
3,19.07800006866455,learn,40921.99993133545,Fri Dec 06 2024 16:35:39 GMT-0600 (Central Standard Time),372492.69999999553,A,w,I,w,266,1,283.0,372209.69999999553,8011,WL,B,12.0
3,19.810999870300293,learn,40189.00012969971,Fri Dec 06 2024 16:35:39 GMT-0600 (Central Standard Time),373225.799999997,A,wi,I,i,719,1,1016.1000000014901,372209.69999999553,8011,WL,B,12.0
3,20.0939998626709,learn,39906.0001373291,Fri Dec 06 2024 16:35:39 GMT-0600 (Central Standard Time),373509.0,A,wif,I,f,265,1,1299.3000000044703,372209.69999999553,8011,WL,B,12.0
3,20.210999965667725,learn,39789.000034332275,Fri Dec 06 2024 16:35:39 GMT-0600 (Central Standard Time),373625.6000000015,A,wife,I,e,103,1,1415.9000000059605,372209.69999999553,8011,WL,B,12.0
3,20.49399995803833,learn,39506.00004196167,Fri Dec 06 2024 16:35:39 GMT-0600 (Central Standard Time),373908.8999999985,A,wifeenter,I,enter,265,1,1699.2000000029802,372209.69999999553,8011,WL,B,12.0
3,23.526000022888184,learn,36473.99997711182,Fri Dec 06 2024 16:35:39 GMT-0600 (Central Standard Time),376941.299999997,A,a,I,a,3022,1,3032.0,373909.299999997,8011,WL,B,13.0
3,23.692999839782715,learn,36307.000160217285,Fri Dec 06 2024 16:35:39 GMT-0600 (Central Standard Time),377108.19999999553,A,ar,I,r,149,1,3198.89999999851,373909.299999997,8011,WL,B,13.0
3,23.776000022888184,learn,36223.99997711182,Fri Dec 06 2024 16:35:39 GMT-0600 (Central Standard Time),377191.299999997,A,arm,I,m,71,1,3282.0,373909.299999997,8011,WL,B,13.0
3,24.05900001525879,learn,35940.99998474121,Fri Dec 06 2024 16:35:39 GMT-0600 (Central Standard Time),377474.3999999985,A,armenter,I,enter,260,1,3565.10000000149,373909.299999997,8011,WL,B,13.0
3,28.94099998474121,learn,31059.00001525879,Fri Dec 06 2024 16:35:39 GMT-0600 (Central Standard Time),382356.5,A,f,I,f,4873,1,4881.80000000447,377474.69999999553,8011,WL,B,14.0
3,29.124000072479248,learn,30875.999927520752,Fri Dec 06 2024 16:35:39 GMT-0600 (Central Standard Time),382539.3999999985,A,fi,I,i,175,1,5064.70000000298,377474.69999999553,8011,WL,B,14.0
3,29.29099988937378,learn,30709.00011062622,Fri Dec 06 2024 16:35:39 GMT-0600 (Central Standard Time),382706.19999999553,A,fir,I,r,152,1,5231.5,377474.69999999553,8011,WL,B,14.0
3,29.374000072479248,learn,30625.999927520752,Fri Dec 06 2024 16:35:39 GMT-0600 (Central Standard Time),382789.3999999985,A,fire,I,e,73,1,5314.70000000298,377474.69999999553,8011,WL,B,14.0
3,29.557999849319458,learn,30442.000150680542,Fri Dec 06 2024 16:35:39 GMT-0600 (Central Standard Time),382972.6000000015,A,fireenter,I,enter,174,1,5497.9000000059605,377474.69999999553,8011,WL,B,14.0
3,36.621999979019165,learn,23378.000020980835,Fri Dec 06 2024 16:35:39 GMT-0600 (Central Standard Time),390037.1000000015,A,l,I,l,7054,1,7064.30000000447,382972.799999997,8011,WL,B,15.0
3,36.73899984359741,learn,23261.000156402588,Fri Dec 06 2024 16:35:39 GMT-0600 (Central Standard Time),390154.0,A,la,I,a,93,1,7181.20000000298,382972.799999997,8011,WL,B,15.0
3,36.82200002670288,learn,23177.99997329712,Fri Dec 06 2024 16:35:39 GMT-0600 (Central Standard Time),390237.299999997,A,lak,I,k,65,1,7264.5,382972.799999997,8011,WL,B,15.0
3,36.92199993133545,learn,23078.00006866455,Fri Dec 06 2024 16:35:39 GMT-0600 (Central Standard Time),390337.1000000015,A,lake,I,e,87,1,7364.30000000447,382972.799999997,8011,WL,B,15.0
3,37.07200002670288,learn,22927.99997329712,Fri Dec 06 2024 16:35:39 GMT-0600 (Central Standard Time),390487.1000000015,A,lakeenter,I,enter,138,1,7514.30000000447,382972.799999997,8011,WL,B,15.0
4,0.7330000400543213,learn,59266.99995994568,Fri Dec 06 2024 16:35:39 GMT-0600 (Central Standard Time),455983.299999997,A,s,I,s,713,1,732.8999999985099,455250.3999999985,8011,WL,B,1.0
4,0.9830000400543213,learn,59016.99995994568,Fri Dec 06 2024 16:35:39 GMT-0600 (Central Standard Time),456233.19999999553,A,st,I,t,235,1,982.7999999970198,455250.3999999985,8011,WL,B,1.0
4,1.2660000324249268,learn,58733.99996757507,Fri Dec 06 2024 16:35:39 GMT-0600 (Central Standard Time),456516.3999999985,A,str,I,r,265,1,1266.0,455250.3999999985,8011,WL,B,1.0
4,1.4830000400543213,learn,58516.99995994568,Fri Dec 06 2024 16:35:39 GMT-0600 (Central Standard Time),456733.1000000015,A,stre,I,e,198,1,1482.7000000029802,455250.3999999985,8011,WL,B,1.0
4,1.6990001201629639,learn,58300.999879837036,Fri Dec 06 2024 16:35:39 GMT-0600 (Central Standard Time),456949.6000000015,A,stree,I,e,198,1,1699.2000000029802,455250.3999999985,8011,WL,B,1.0
4,1.8330001831054688,learn,58166.99981689453,Fri Dec 06 2024 16:35:39 GMT-0600 (Central Standard Time),457082.69999999553,A,street,I,t,111,1,1832.2999999970198,455250.3999999985,8011,WL,B,1.0
4,2.0500001907348633,learn,57949.99980926514,Fri Dec 06 2024 16:35:39 GMT-0600 (Central Standard Time),457299.6000000015,A,streetenter,I,enter,200,1,2049.2000000029802,455250.3999999985,8011,WL,B,1.0
4,2.383000135421753,learn,57616.99986457825,Fri Dec 06 2024 16:35:39 GMT-0600 (Central Standard Time),457632.69999999553,A,g,I,g,320,1,332.69999999552965,457300.0,8011,WL,B,2.0
4,2.6490001678466797,learn,57350.99983215332,Fri Dec 06 2024 16:35:39 GMT-0600 (Central Standard Time),457899.1000000015,A,gr,I,r,258,1,599.1000000014901,457300.0,8011,WL,B,2.0
4,2.866000175476074,learn,57133.999824523926,Fri Dec 06 2024 16:35:39 GMT-0600 (Central Standard Time),458116.0,A,gra,I,a,207,1,816.0,457300.0,8011,WL,B,2.0
4,3.131999969482422,learn,56868.00003051758,Fri Dec 06 2024 16:35:39 GMT-0600 (Central Standard Time),458382.299999997,A,gras,I,s,255,1,1082.2999999970198,457300.0,8011,WL,B,2.0
4,3.2820000648498535,learn,56717.99993515015,Fri Dec 06 2024 16:35:39 GMT-0600 (Central Standard Time),458532.3999999985,A,grass,I,s,132,1,1232.3999999985099,457300.0,8011,WL,B,2.0
4,3.515000104904175,learn,56484.999895095825,Fri Dec 06 2024 16:35:39 GMT-0600 (Central Standard Time),458765.6000000015,A,grassenter,I,enter,223,1,1465.6000000014901,457300.0,8011,WL,B,2.0
4,3.999000072479248,learn,56000.99992752075,Fri Dec 06 2024 16:35:39 GMT-0600 (Central Standard Time),459248.799999997,A,d,I,d,462,1,482.79999999701977,458766.0,8011,WL,B,3.0
4,4.215000152587891,learn,55784.99984741211,Fri Dec 06 2024 16:35:39 GMT-0600 (Central Standard Time),459465.3999999985,A,do,I,o,194,1,699.3999999985099,458766.0,8011,WL,B,3.0
4,4.39900016784668,learn,55600.99983215332,Fri Dec 06 2024 16:35:39 GMT-0600 (Central Standard Time),459649.0,A,doo,I,o,161,1,883.0,458766.0,8011,WL,B,3.0
4,4.5320000648498535,learn,55467.99993515015,Fri Dec 06 2024 16:35:39 GMT-0600 (Central Standard Time),459782.1000000015,A,door,I,r,122,1,1016.1000000014901,458766.0,8011,WL,B,3.0
4,4.815000057220459,learn,55184.99994277954,Fri Dec 06 2024 16:35:39 GMT-0600 (Central Standard Time),460065.3999999985,A,doorenter,I,enter,269,1,1299.3999999985099,458766.0,8011,WL,B,3.0
4,5.082000017166138,learn,54917.99998283386,Fri Dec 06 2024 16:35:39 GMT-0600 (Central Standard Time),460331.8999999985,A,w,I,w,258,1,266.20000000298023,460065.69999999553,8011,WL,B,4.0
4,5.265000104904175,learn,54734.999895095825,Fri Dec 06 2024 16:35:39 GMT-0600 (Central Standard Time),460515.19999999553,A,wi,I,i,168,1,449.5,460065.69999999553,8011,WL,B,4.0
4,5.565000057220459,learn,54434.99994277954,Fri Dec 06 2024 16:35:39 GMT-0600 (Central Standard Time),460815.299999997,A,wif,I,f,288,1,749.6000000014901,460065.69999999553,8011,WL,B,4.0
4,5.682000160217285,learn,54317.999839782715,Fri Dec 06 2024 16:35:39 GMT-0600 (Central Standard Time),460932.1000000015,A,wife,I,e,101,1,866.4000000059605,460065.69999999553,8011,WL,B,4.0
4,6.065000057220459,learn,53934.99994277954,Fri Dec 06 2024 16:35:39 GMT-0600 (Central Standard Time),461314.8999999985,A,wifeenter,I,enter,360,1,1249.2000000029802,460065.69999999553,8011,WL,B,4.0
4,6.248000144958496,learn,53751.999855041504,Fri Dec 06 2024 16:35:39 GMT-0600 (Central Standard Time),461498.19999999553,A,a,I,a,169,1,183.0,461315.19999999553,8011,WL,B,5.0
4,6.38100004196167,learn,53618.99995803833,Fri Dec 06 2024 16:35:39 GMT-0600 (Central Standard Time),461631.5,A,ar,I,r,121,1,316.30000000447035,461315.19999999553,8011,WL,B,5.0
4,6.611999988555908,learn,53388.00001144409,Fri Dec 06 2024 16:35:39 GMT-0600 (Central Standard Time),461862.1000000015,A,arm,I,m,224,1,546.9000000059605,461315.19999999553,8011,WL,B,5.0
4,7.198000192642212,learn,52801.99980735779,Fri Dec 06 2024 16:35:39 GMT-0600 (Central Standard Time),462447.8999999985,A,armenter,I,enter,573,1,1132.7000000029802,461315.19999999553,8011,WL,B,5.0
4,8.63100004196167,learn,51368.99995803833,Fri Dec 06 2024 16:35:39 GMT-0600 (Central Standard Time),463880.69999999553,A,c,I,c,1412,1,1432.5999999940395,462448.1000000015,8011,WL,B,6.0
4,8.814000129699707,learn,51185.99987030029,Fri Dec 06 2024 16:35:39 GMT-0600 (Central Standard Time),464064.1000000015,A,ci,I,i,162,1,1616.0,462448.1000000015,8011,WL,B,6.0
4,9.02999997138977,learn,50970.00002861023,Fri Dec 06 2024 16:35:39 GMT-0600 (Central Standard Time),464280.6000000015,A,cit,I,t,195,1,1832.5,462448.1000000015,8011,WL,B,6.0
4,9.246999979019165,learn,50753.000020980835,Fri Dec 06 2024 16:35:39 GMT-0600 (Central Standard Time),464497.299999997,A,city,I,y,202,1,2049.1999999955297,462448.1000000015,8011,WL,B,6.0
4,9.746999979019165,learn,50253.000020980835,Fri Dec 06 2024 16:35:39 GMT-0600 (Central Standard Time),464997.1000000015,A,cityenter,I,enter,481,1,2549.0,462448.1000000015,8011,WL,B,6.0
4,10.097000122070312,learn,49902.99987792969,Fri Dec 06 2024 16:35:39 GMT-0600 (Central Standard Time),465346.8999999985,A,w,I,w,334,1,349.3999999985099,464997.5,8011,WL,B,7.0
4,10.52999997138977,learn,49470.00002861023,Fri Dec 06 2024 16:35:39 GMT-0600 (Central Standard Time),465780.299999997,A,wi,I,i,424,1,782.7999999970198,464997.5,8011,WL,B,7.0
4,10.647000074386597,learn,49352.9999256134,Fri Dec 06 2024 16:35:39 GMT-0600 (Central Standard Time),465896.69999999553,A,win,I,n,102,1,899.1999999955297,464997.5,8011,WL,B,7.0
4,10.830000162124634,learn,49169.999837875366,Fri Dec 06 2024 16:35:39 GMT-0600 (Central Standard Time),466080.19999999553,A,wind,I,d,162,1,1082.6999999955297,464997.5,8011,WL,B,7.0
4,10.963000059127808,learn,49036.99994087219,Fri Dec 06 2024 16:35:39 GMT-0600 (Central Standard Time),466213.299999997,A,windo,I,o,115,1,1215.7999999970198,464997.5,8011,WL,B,7.0
4,11.180000066757202,learn,48819.9999332428,Fri Dec 06 2024 16:35:39 GMT-0600 (Central Standard Time),466429.8999999985,A,window,I,w,206,1,1432.3999999985099,464997.5,8011,WL,B,7.0
4,11.730000019073486,learn,48269.999980926514,Fri Dec 06 2024 16:35:39 GMT-0600 (Central Standard Time),466979.69999999553,A,windowenter,I,enter,533,1,1982.1999999955297,464997.5,8011,WL,B,7.0
4,12.34600019454956,learn,47653.99980545044,Fri Dec 06 2024 16:35:39 GMT-0600 (Central Standard Time),467596.299999997,A,f,I,f,600,1,616.3999999985099,466979.8999999985,8011,WL,B,8.0
4,12.496000051498413,learn,47503.99994850159,Fri Dec 06 2024 16:35:39 GMT-0600 (Central Standard Time),467746.299999997,A,fi,I,i,135,1,766.3999999985099,466979.8999999985,8011,WL,B,8.0
4,12.696000099182129,learn,47303.99990081787,Fri Dec 06 2024 16:35:39 GMT-0600 (Central Standard Time),467946.19999999553,A,fir,I,r,177,1,966.2999999970198,466979.8999999985,8011,WL,B,8.0
4,12.779000043869019,learn,47220.99995613098,Fri Dec 06 2024 16:35:39 GMT-0600 (Central Standard Time),468029.5,A,fire,I,e,65,1,1049.6000000014901,466979.8999999985,8011,WL,B,8.0
4,13.195000171661377,learn,46804.99982833862,Fri Dec 06 2024 16:35:39 GMT-0600 (Central Standard Time),468446.19999999553,A,fireenter,I,enter,397,1,1466.2999999970198,466979.8999999985,8011,WL,B,8.0
4,14.061000108718872,learn,45938.99989128113,Fri Dec 06 2024 16:35:39 GMT-0600 (Central Standard Time),469312.299999997,A,l,I,l,845,1,865.7999999970198,468446.5,8011,WL,B,9.0
4,14.16100001335144,learn,45838.99998664856,Fri Dec 06 2024 16:35:39 GMT-0600 (Central Standard Time),469412.3999999985,A,la,I,a,91,1,965.8999999985099,468446.5,8011,WL,B,9.0
4,14.295000076293945,learn,45704.999923706055,Fri Dec 06 2024 16:35:39 GMT-0600 (Central Standard Time),469545.69999999553,A,lak,I,k,119,1,1099.1999999955297,468446.5,8011,WL,B,9.0
4,14.42799997329712,learn,45572.00002670288,Fri Dec 06 2024 16:35:39 GMT-0600 (Central Standard Time),469679.1000000015,A,lake,I,e,113,1,1232.6000000014901,468446.5,8011,WL,B,9.0
4,14.844000101089478,learn,45155.99989891052,Fri Dec 06 2024 16:35:39 GMT-0600 (Central Standard Time),470095.299999997,A,lakeenter,I,enter,404,1,1648.7999999970198,468446.5,8011,WL,B,9.0
4,15.128000020980835,learn,44871.999979019165,Fri Dec 06 2024 16:35:39 GMT-0600 (Central Standard Time),470378.69999999553,A,c,I,c,268,1,283.0,470095.69999999553,8011,WL,B,10.0
4,15.17799997329712,learn,44822.00002670288,Fri Dec 06 2024 16:35:39 GMT-0600 (Central Standard Time),470428.8999999985,A,ca,I,a,41,1,333.20000000298023,470095.69999999553,8011,WL,B,10.0
4,15.295000076293945,learn,44704.999923706055,Fri Dec 06 2024 16:35:39 GMT-0600 (Central Standard Time),470545.5,A,cab,I,b,94,1,449.80000000447035,470095.69999999553,8011,WL,B,10.0
4,15.544000148773193,learn,44455.99985122681,Fri Dec 06 2024 16:35:39 GMT-0600 (Central Standard Time),470795.1000000015,A,cabi,I,i,234,1,699.4000000059605,470095.69999999553,8011,WL,B,10.0
4,16.16100001335144,learn,43838.99998664856,Fri Dec 06 2024 16:35:39 GMT-0600 (Central Standard Time),471411.6000000015,A,cabin,I,n,608,1,1315.9000000059605,470095.69999999553,8011,WL,B,10.0
4,17.66000008583069,learn,42339.99991416931,Fri Dec 06 2024 16:35:39 GMT-0600 (Central Standard Time),472911.299999997,A,cabinenter,I,enter,1487,1,2815.60000000149,470095.69999999553,8011,WL,B,10.0
4,18.042999982833862,learn,41957.00001716614,Fri Dec 06 2024 16:35:39 GMT-0600 (Central Standard Time),473294.19999999553,A,s,I,s,372,1,382.59999999403954,472911.6000000015,8011,WL,B,11.0
4,18.193000078201294,learn,41806.999921798706,Fri Dec 06 2024 16:35:39 GMT-0600 (Central Standard Time),473444.1000000015,A,sk,I,k,134,1,532.5,472911.6000000015,8011,WL,B,11.0
4,18.41000008583069,learn,41589.99991416931,Fri Dec 06 2024 16:35:39 GMT-0600 (Central Standard Time),473661.19999999553,A,ski,I,i,200,1,749.5999999940395,472911.6000000015,8011,WL,B,11.0
4,18.5770001411438,learn,41422.9998588562,Fri Dec 06 2024 16:35:39 GMT-0600 (Central Standard Time),473827.69999999553,A,skin,I,n,150,1,916.0999999940395,472911.6000000015,8011,WL,B,11.0
4,19.37600016593933,learn,40623.99983406067,Fri Dec 06 2024 16:35:39 GMT-0600 (Central Standard Time),474627.299999997,A,skinenter,I,enter,784,1,1715.6999999955297,472911.6000000015,8011,WL,B,11.0
4,19.66000008583069,learn,40339.99991416931,Fri Dec 06 2024 16:35:39 GMT-0600 (Central Standard Time),474910.69999999553,A,c,I,c,272,1,283.0,474627.69999999553,8011,WL,B,12.0
4,19.743000030517578,learn,40256.99996948242,Fri Dec 06 2024 16:35:39 GMT-0600 (Central Standard Time),474993.799999997,A,cl,I,l,69,1,366.1000000014901,474627.69999999553,8011,WL,B,12.0
4,19.97699999809265,learn,40023.00000190735,Fri Dec 06 2024 16:35:39 GMT-0600 (Central Standard Time),475227.6000000015,A,clo,I,o,217,1,599.9000000059605,474627.69999999553,8011,WL,B,12.0
4,20.243000030517578,learn,39756.99996948242,Fri Dec 06 2024 16:35:39 GMT-0600 (Central Standard Time),475493.69999999553,A,cloc,I,c,255,1,866.0,474627.69999999553,8011,WL,B,12.0
4,20.360000133514404,learn,39639.999866485596,Fri Dec 06 2024 16:35:39 GMT-0600 (Central Standard Time),475610.5,A,clock,I,k,94,1,982.8000000044703,474627.69999999553,8011,WL,B,12.0
4,20.659000158309937,learn,39340.99984169006,Fri Dec 06 2024 16:35:39 GMT-0600 (Central Standard Time),475910.19999999553,A,clockenter,I,enter,281,1,1282.5,474627.69999999553,8011,WL,B,12.0
4,21.075999975204468,learn,38924.00002479553,Fri Dec 06 2024 16:35:39 GMT-0600 (Central Standard Time),476326.8999999985,A,p,I,p,397,1,416.29999999701977,475910.6000000015,8011,WL,B,13.0
4,21.358999967575073,learn,38641.00003242493,Fri Dec 06 2024 16:35:39 GMT-0600 (Central Standard Time),476610.1000000015,A,pi,I,i,260,1,699.5,475910.6000000015,8011,WL,B,13.0
4,21.526000022888184,learn,38473.99997711182,Fri Dec 06 2024 16:35:39 GMT-0600 (Central Standard Time),476776.799999997,A,pip,I,p,153,1,866.1999999955297,475910.6000000015,8011,WL,B,13.0
4,21.776000022888184,learn,38223.99997711182,Fri Dec 06 2024 16:35:39 GMT-0600 (Central Standard Time),477026.5,A,pipe,I,e,243,1,1115.8999999985099,475910.6000000015,8011,WL,B,13.0
4,22.108999967575073,learn,37891.00003242493,Fri Dec 06 2024 16:35:39 GMT-0600 (Central Standard Time),477359.8999999985,A,pipeenter,I,enter,313,1,1449.2999999970198,475910.6000000015,8011,WL,B,13.0
4,25.241000175476074,learn,34758.999824523926,Fri Dec 06 2024 16:35:39 GMT-0600 (Central Standard Time),480492.3999999985,A,s,I,s,3115,1,3132.10000000149,477360.299999997,8011,WL,B,14.0
4,25.45800018310547,learn,34541.99981689453,Fri Dec 06 2024 16:35:39 GMT-0600 (Central Standard Time),480709.0,A,st,I,t,199,1,3348.7000000029802,477360.299999997,8011,WL,B,14.0
4,25.60800004005432,learn,34391.99995994568,Fri Dec 06 2024 16:35:39 GMT-0600 (Central Standard Time),480858.799999997,A,sta,I,a,134,1,3498.5,477360.299999997,8011,WL,B,14.0
4,25.741000175476074,learn,34258.999824523926,Fri Dec 06 2024 16:35:39 GMT-0600 (Central Standard Time),480992.0,A,star,I,r,120,1,3631.7000000029802,477360.299999997,8011,WL,B,14.0
4,26.008000135421753,learn,33991.99986457825,Fri Dec 06 2024 16:35:39 GMT-0600 (Central Standard Time),481258.6000000015,A,starenter,I,enter,259,1,3898.3000000044703,477360.299999997,8011,WL,B,14.0
4,60.01400017738342,learn,-14.000177383422852,Fri Dec 06 2024 16:35:39 GMT-0600 (Central Standard Time),515264.69999999553,A,None,I,None,33998,1,34005.79999999702,481258.8999999985,8011,WL,B,15.0
5,0.46700000762939453,learn,60000.0,Fri Dec 06 2024 16:35:39 GMT-0600 (Central Standard Time),580111.3999999985,A,s,I,s,447,1,467.1000000014901,579644.299999997,8011,WL,B,1.0
5,0.8499999046325684,learn,60000.0,Fri Dec 06 2024 16:35:39 GMT-0600 (Central Standard Time),580494.3999999985,A,st,I,t,371,1,850.1000000014901,579644.299999997,8011,WL,B,1.0
5,1.1159999370574951,learn,60000.0,Fri Dec 06 2024 16:35:39 GMT-0600 (Central Standard Time),580760.799999997,A,str,I,r,243,1,1116.5,579644.299999997,8011,WL,B,1.0
5,1.3329999446868896,learn,60000.0,Fri Dec 06 2024 16:35:39 GMT-0600 (Central Standard Time),580977.299999997,A,stre,I,e,194,1,1333.0,579644.299999997,8011,WL,B,1.0
5,1.5160000324249268,learn,60000.0,Fri Dec 06 2024 16:35:39 GMT-0600 (Central Standard Time),581160.6999999955,A,stree,I,e,162,1,1516.3999999985099,579644.299999997,8011,WL,B,1.0
5,1.7159998416900635,learn,60000.0,Fri Dec 06 2024 16:35:39 GMT-0600 (Central Standard Time),581360.6999999955,A,street,I,t,187,1,1716.3999999985099,579644.299999997,8011,WL,B,1.0
5,2.365999937057495,learn,60000.0,Fri Dec 06 2024 16:35:39 GMT-0600 (Central Standard Time),582010.5,A,streetenter,I,enter,626,1,2366.2000000029802,579644.299999997,8011,WL,B,1.0
5,2.6989998817443848,learn,60000.0,Fri Dec 06 2024 16:35:39 GMT-0600 (Central Standard Time),582343.5,A,g,I,g,313,1,332.6000000014901,582010.8999999985,8011,WL,B,2.0
5,2.932999849319458,learn,60000.0,Fri Dec 06 2024 16:35:39 GMT-0600 (Central Standard Time),582577.0,A,gr,I,r,220,1,566.1000000014901,582010.8999999985,8011,WL,B,2.0
5,3.1489999294281006,learn,60000.0,Fri Dec 06 2024 16:35:39 GMT-0600 (Central Standard Time),582793.5,A,gra,I,a,202,1,782.6000000014901,582010.8999999985,8011,WL,B,2.0
5,3.431999921798706,learn,60000.0,Fri Dec 06 2024 16:35:39 GMT-0600 (Central Standard Time),583076.6000000015,A,gras,I,s,266,1,1065.7000000029802,582010.8999999985,8011,WL,B,2.0
5,3.5989999771118164,learn,60000.0,Fri Dec 06 2024 16:35:39 GMT-0600 (Central Standard Time),583243.6000000015,A,grass,I,s,150,1,1232.7000000029802,582010.8999999985,8011,WL,B,2.0
5,3.7820000648498535,learn,60000.0,Fri Dec 06 2024 16:35:39 GMT-0600 (Central Standard Time),583426.6999999955,A,grassenter,I,enter,176,1,1415.7999999970198,582010.8999999985,8011,WL,B,2.0
5,4.648999929428101,learn,60000.0,Fri Dec 06 2024 16:35:39 GMT-0600 (Central Standard Time),584293.1000000015,A,d,I,d,849,1,866.3000000044703,583426.799999997,8011,WL,B,3.0
5,4.799000024795532,learn,60000.0,Fri Dec 06 2024 16:35:39 GMT-0600 (Central Standard Time),584444.0,A,do,I,o,142,1,1017.2000000029802,583426.799999997,8011,WL,B,3.0
5,4.98199987411499,learn,60000.0,Fri Dec 06 2024 16:35:39 GMT-0600 (Central Standard Time),584626.1999999955,A,doo,I,o,159,1,1199.3999999985099,583426.799999997,8011,WL,B,3.0
5,5.131999969482422,learn,60000.0,Fri Dec 06 2024 16:35:39 GMT-0600 (Central Standard Time),584776.1999999955,A,door,I,r,129,1,1349.3999999985099,583426.799999997,8011,WL,B,3.0
5,5.398999929428101,learn,60000.0,Fri Dec 06 2024 16:35:39 GMT-0600 (Central Standard Time),585043.1000000015,A,doorenter,I,enter,244,1,1616.3000000044703,583426.799999997,8011,WL,B,3.0
5,5.664999961853027,learn,60000.0,Fri Dec 06 2024 16:35:39 GMT-0600 (Central Standard Time),585309.1999999955,A,a,I,a,256,1,265.79999999701977,585043.3999999985,8011,WL,B,4.0
5,5.7820000648498535,learn,60000.0,Fri Dec 06 2024 16:35:39 GMT-0600 (Central Standard Time),585426.1000000015,A,ar,I,r,102,1,382.70000000298023,585043.3999999985,8011,WL,B,4.0
5,5.9649999141693115,learn,60000.0,Fri Dec 06 2024 16:35:39 GMT-0600 (Central Standard Time),585609.1999999955,A,arm,I,m,169,1,565.7999999970198,585043.3999999985,8011,WL,B,4.0
5,6.414999961853027,learn,60000.0,Fri Dec 06 2024 16:35:39 GMT-0600 (Central Standard Time),586059.299999997,A,armenter,I,enter,434,1,1015.8999999985099,585043.3999999985,8011,WL,B,4.0
5,6.930999994277954,learn,60000.0,Fri Dec 06 2024 16:35:39 GMT-0600 (Central Standard Time),586575.8999999985,A,w,I,w,496,1,516.2999999970198,586059.6000000015,8011,WL,B,5.0
5,7.0980000495910645,learn,60000.0,Fri Dec 06 2024 16:35:39 GMT-0600 (Central Standard Time),586742.3999999985,A,wi,I,i,155,1,682.7999999970198,586059.6000000015,8011,WL,B,5.0
5,7.330999851226807,learn,60000.0,Fri Dec 06 2024 16:35:39 GMT-0600 (Central Standard Time),586975.3999999985,A,wif,I,f,221,1,915.7999999970198,586059.6000000015,8011,WL,B,5.0
5,7.447999954223633,learn,60000.0,Fri Dec 06 2024 16:35:39 GMT-0600 (Central Standard Time),587092.3999999985,A,wife,I,e,100,1,1032.7999999970198,586059.6000000015,8011,WL,B,5.0
5,8.613999843597412,learn,60000.0,Fri Dec 06 2024 16:35:39 GMT-0600 (Central Standard Time),588258.3999999985,A,wifeenter,I,enter,1143,1,2198.7999999970198,586059.6000000015,8011,WL,B,5.0
5,8.996999979019165,learn,60000.0,Fri Dec 06 2024 16:35:39 GMT-0600 (Central Standard Time),588641.6000000015,A,s,I,s,369,1,382.80000000447035,588258.799999997,8011,WL,B,6.0
5,9.29699993133545,learn,60000.0,Fri Dec 06 2024 16:35:39 GMT-0600 (Central Standard Time),588941.6000000015,A,st,I,t,282,1,682.8000000044703,588258.799999997,8011,WL,B,6.0
5,9.546000003814697,learn,60000.0,Fri Dec 06 2024 16:35:39 GMT-0600 (Central Standard Time),589191.5,A,sta,I,a,229,1,932.7000000029802,588258.799999997,8011,WL,B,6.0
5,9.645999908447266,learn,60000.0,Fri Dec 06 2024 16:35:39 GMT-0600 (Central Standard Time),589291.1999999955,A,star,I,r,84,1,1032.3999999985099,588258.799999997,8011,WL,B,6.0
5,10.046000003814697,learn,60000.0,Fri Dec 06 2024 16:35:39 GMT-0600 (Central Standard Time),589691.1000000015,A,starenter,I,enter,392,1,1432.3000000044703,588258.799999997,8011,WL,B,6.0
5,10.395999908447266,learn,60000.0,Fri Dec 06 2024 16:35:39 GMT-0600 (Central Standard Time),590041.1999999955,A,c,I,c,336,1,349.79999999701977,589691.3999999985,8011,WL,B,7.0
5,10.61299991607666,learn,60000.0,Fri Dec 06 2024 16:35:39 GMT-0600 (Central Standard Time),590257.6999999955,A,ci,I,i,202,1,566.2999999970198,589691.3999999985,8011,WL,B,7.0
5,10.829999923706055,learn,60000.0,Fri Dec 06 2024 16:35:39 GMT-0600 (Central Standard Time),590474.5,A,cit,I,t,210,1,783.1000000014901,589691.3999999985,8011,WL,B,7.0
5,11.046000003814697,learn,60000.0,Fri Dec 06 2024 16:35:39 GMT-0600 (Central Standard Time),590691.0,A,city,I,y,201,1,999.6000000014901,589691.3999999985,8011,WL,B,7.0
5,11.44599986076355,learn,60000.0,Fri Dec 06 2024 16:35:39 GMT-0600 (Central Standard Time),591090.8999999985,A,cityenter,I,enter,384,1,1399.5,589691.3999999985,8011,WL,B,7.0
5,11.845999956130981,learn,60000.0,Fri Dec 06 2024 16:35:39 GMT-0600 (Central Standard Time),591490.6999999955,A,f,I,f,384,1,399.3999999985099,591091.299999997,8011,WL,B,8.0
5,12.013000011444092,learn,60000.0,Fri Dec 06 2024 16:35:39 GMT-0600 (Central Standard Time),591657.6999999955,A,fi,I,i,153,1,566.3999999985099,591091.299999997,8011,WL,B,8.0
5,12.178999900817871,learn,60000.0,Fri Dec 06 2024 16:35:39 GMT-0600 (Central Standard Time),591824.0,A,fir,I,r,153,1,732.7000000029802,591091.299999997,8011,WL,B,8.0
5,12.279000043869019,learn,60000.0,Fri Dec 06 2024 16:35:39 GMT-0600 (Central Standard Time),591924.0,A,fire,I,e,91,1,832.7000000029802,591091.299999997,8011,WL,B,8.0
5,12.678999900817871,learn,60000.0,Fri Dec 06 2024 16:35:39 GMT-0600 (Central Standard Time),592323.8999999985,A,fireenter,I,enter,391,1,1232.6000000014901,591091.299999997,8011,WL,B,8.0
5,14.57800006866455,learn,60000.0,Fri Dec 06 2024 16:35:39 GMT-0600 (Central Standard Time),594223.299999997,A,w,I,w,1887,1,1899.0,592324.299999997,8011,WL,B,9.0
5,14.694999933242798,learn,60000.0,Fri Dec 06 2024 16:35:39 GMT-0600 (Central Standard Time),594339.799999997,A,wi,I,i,100,1,2015.5,592324.299999997,8011,WL,B,9.0
5,14.810999870300293,learn,60000.0,Fri Dec 06 2024 16:35:39 GMT-0600 (Central Standard Time),594456.5,A,win,I,n,104,1,2132.2000000029802,592324.299999997,8011,WL,B,9.0
5,14.944000005722046,learn,60000.0,Fri Dec 06 2024 16:35:39 GMT-0600 (Central Standard Time),594589.3999999985,A,wind,I,d,123,1,2265.10000000149,592324.299999997,8011,WL,B,9.0
5,15.07800006866455,learn,60000.0,Fri Dec 06 2024 16:35:39 GMT-0600 (Central Standard Time),594722.8999999985,A,windo,I,o,126,1,2398.60000000149,592324.299999997,8011,WL,B,9.0
5,15.210999965667725,learn,60000.0,Fri Dec 06 2024 16:35:39 GMT-0600 (Central Standard Time),594856.3999999985,A,window,I,w,120,1,2532.10000000149,592324.299999997,8011,WL,B,9.0
5,15.944000005722046,learn,60000.0,Fri Dec 06 2024 16:35:39 GMT-0600 (Central Standard Time),595589.299999997,A,windowenter,I,enter,722,1,3265.0,592324.299999997,8011,WL,B,9.0
5,16.91100001335144,learn,60000.0,Fri Dec 06 2024 16:35:39 GMT-0600 (Central Standard Time),596555.8999999985,A,l,I,l,958,1,966.1000000014901,595589.799999997,8011,WL,B,10.0
5,17.043999910354614,learn,60000.0,Fri Dec 06 2024 16:35:39 GMT-0600 (Central Standard Time),596689.3999999985,A,la,I,a,111,1,1099.6000000014901,595589.799999997,8011,WL,B,10.0
5,17.194000005722046,learn,60000.0,Fri Dec 06 2024 16:35:39 GMT-0600 (Central Standard Time),596839.299999997,A,lak,I,k,138,1,1249.5,595589.799999997,8011,WL,B,10.0
5,17.310999870300293,learn,60000.0,Fri Dec 06 2024 16:35:39 GMT-0600 (Central Standard Time),596955.6999999955,A,lake,I,e,108,1,1365.8999999985099,595589.799999997,8011,WL,B,10.0
5,17.55999994277954,learn,60000.0,Fri Dec 06 2024 16:35:39 GMT-0600 (Central Standard Time),597205.5,A,lakeenter,I,enter,240,1,1615.7000000029802,595589.799999997,8011,WL,B,10.0
5,17.859999895095825,learn,60000.0,Fri Dec 06 2024 16:35:39 GMT-0600 (Central Standard Time),597505.3999999985,A,c,I,c,277,1,299.70000000298023,597205.6999999955,8011,WL,B,11.0
5,17.91100001335144,learn,60000.0,Fri Dec 06 2024 16:35:39 GMT-0600 (Central Standard Time),597555.6999999955,A,ca,I,a,41,1,350.0,597205.6999999955,8011,WL,B,11.0
5,17.97699999809265,learn,60000.0,Fri Dec 06 2024 16:35:39 GMT-0600 (Central Standard Time),597622.299999997,A,cab,I,b,47,1,416.6000000014901,597205.6999999955,8011,WL,B,11.0
5,18.210000038146973,learn,60000.0,Fri Dec 06 2024 16:35:39 GMT-0600 (Central Standard Time),597855.1999999955,A,cabi,I,i,213,1,649.5,597205.6999999955,8011,WL,B,11.0
5,19.210000038146973,learn,60000.0,Fri Dec 06 2024 16:35:39 GMT-0600 (Central Standard Time),598855.1000000015,A,cabin,I,n,980,1,1649.4000000059605,597205.6999999955,8011,WL,B,11.0
5,19.89299988746643,learn,60000.0,Fri Dec 06 2024 16:35:39 GMT-0600 (Central Standard Time),599538.5,A,cabinenter,I,enter,668,1,2332.8000000044703,597205.6999999955,8011,WL,B,11.0
5,20.39299988746643,learn,60000.0,Fri Dec 06 2024 16:35:39 GMT-0600 (Central Standard Time),600038.1000000015,A,p,I,p,489,1,499.20000000298023,599538.8999999985,8011,WL,B,12.0
5,20.675999879837036,learn,60000.0,Fri Dec 06 2024 16:35:39 GMT-0600 (Central Standard Time),600321.5,A,pu,I,u,269,1,782.6000000014901,599538.8999999985,8011,WL,B,12.0
5,20.875999927520752,learn,60000.0,Fri Dec 06 2024 16:35:39 GMT-0600 (Central Standard Time),600521.1999999955,A,pup,I,p,186,1,982.2999999970198,599538.8999999985,8011,WL,B,12.0
5,20.993000030517578,learn,60000.0,Fri Dec 06 2024 16:35:39 GMT-0600 (Central Standard Time),600638.0,A,pupi,I,i,106,1,1099.1000000014901,599538.8999999985,8011,WL,B,12.0
5,21.276000022888184,learn,60000.0,Fri Dec 06 2024 16:35:39 GMT-0600 (Central Standard Time),600921.1999999955,A,pupil,I,l,268,1,1382.2999999970198,599538.8999999985,8011,WL,B,12.0
5,21.908999919891357,learn,60000.0,Fri Dec 06 2024 16:35:39 GMT-0600 (Central Standard Time),601554.299999997,A,pupilenter,I,enter,618,1,2015.3999999985099,599538.8999999985,8011,WL,B,12.0
5,22.526000022888184,learn,60000.0,Fri Dec 06 2024 16:35:39 GMT-0600 (Central Standard Time),602171.0,A,c,I,c,593,1,616.2000000029802,601554.799999997,8011,WL,B,13.0
5,22.592999935150146,learn,60000.0,Fri Dec 06 2024 16:35:39 GMT-0600 (Central Standard Time),602237.6000000015,A,cl,I,l,56,1,682.8000000044703,601554.799999997,8011,WL,B,13.0
5,22.80900001525879,learn,60000.0,Fri Dec 06 2024 16:35:39 GMT-0600 (Central Standard Time),602454.1000000015,A,clo,I,o,205,1,899.3000000044703,601554.799999997,8011,WL,B,13.0
5,22.941999912261963,learn,60000.0,Fri Dec 06 2024 16:35:39 GMT-0600 (Central Standard Time),602587.299999997,A,cloc,I,c,117,1,1032.5,601554.799999997,8011,WL,B,13.0
5,23.14199995994568,learn,60000.0,Fri Dec 06 2024 16:35:39 GMT-0600 (Central Standard Time),602787.3999999985,A,clock,I,k,183,1,1232.6000000014901,601554.799999997,8011,WL,B,13.0
5,23.537999868392944,learn,60000.0,Fri Dec 06 2024 16:35:39 GMT-0600 (Central Standard Time),603183.1999999955,A,clockenter,I,enter,389,1,1628.3999999985099,601554.799999997,8011,WL,B,13.0
5,23.89199995994568,learn,60000.0,Fri Dec 06 2024 16:35:39 GMT-0600 (Central Standard Time),603537.0,A,p,I,p,340,1,353.3999999985099,603183.6000000015,8011,WL,B,14.0
5,24.22499990463257,learn,60000.0,Fri Dec 06 2024 16:35:39 GMT-0600 (Central Standard Time),603870.299999997,A,pi,I,i,314,1,686.6999999955297,603183.6000000015,8011,WL,B,14.0
5,24.39199995994568,learn,60000.0,Fri Dec 06 2024 16:35:39 GMT-0600 (Central Standard Time),604036.8999999985,A,pip,I,p,149,1,853.2999999970198,603183.6000000015,8011,WL,B,14.0
5,24.54200005531311,learn,60000.0,Fri Dec 06 2024 16:35:39 GMT-0600 (Central Standard Time),604186.6999999955,A,pipe,I,e,134,1,1003.0999999940395,603183.6000000015,8011,WL,B,14.0
5,24.774999856948853,learn,60000.0,Fri Dec 06 2024 16:35:39 GMT-0600 (Central Standard Time),604420.0,A,pipeenter,I,enter,217,1,1236.3999999985099,603183.6000000015,8011,WL,B,14.0
5,35.17199993133545,learn,60000.0,Fri Dec 06 2024 16:35:39 GMT-0600 (Central Standard Time),614816.6000000015,A,f,I,f,10385,1,10396.20000000298,604420.3999999985,8011,WL,B,15.0
5,35.287999868392944,learn,60000.0,Fri Dec 06 2024 16:35:39 GMT-0600 (Central Standard Time),614933.299999997,A,fi,I,i,98,1,10512.89999999851,604420.3999999985,8011,WL,B,15.0
5,35.40499997138977,learn,60000.0,Fri Dec 06 2024 16:35:39 GMT-0600 (Central Standard Time),615050.3999999985,A,fir,I,r,94,1,10630.0,604420.3999999985,8011,WL,B,15.0
5,35.48899984359741,learn,60000.0,Fri Dec 06 2024 16:35:39 GMT-0600 (Central Standard Time),615134.3999999985,A,fire,I,e,72,1,10714.0,604420.3999999985,8011,WL,B,15.0
5,35.63800001144409,learn,60000.0,Fri Dec 06 2024 16:35:39 GMT-0600 (Central Standard Time),615283.0,A,fireenter,I,enter,140,1,10862.60000000149,604420.3999999985,8011,WL,B,15.0
6,0.36700010299682617,distr,59632.999897003174,Fri Dec 06 2024 16:35:39 GMT-0600 (Central Standard Time),681096.299999997,B,b,I,b,346,1,366.79999999701977,680729.5,8011,WL,B,1.0
6,0.4830000400543213,distr,59516.99995994568,Fri Dec 06 2024 16:35:39 GMT-0600 (Central Standard Time),681212.6999999955,B,ba,I,a,106,1,483.19999999552965,680729.5,8011,WL,B,1.0
6,0.6000001430511475,distr,59399.99985694885,Fri Dec 06 2024 16:35:39 GMT-0600 (Central Standard Time),681329.3999999985,B,bab,I,b,102,1,599.8999999985099,680729.5,8011,WL,B,1.0
6,0.8159999847412109,distr,59184.00001525879,Fri Dec 06 2024 16:35:39 GMT-0600 (Central Standard Time),681545.799999997,B,baby,I,y,202,1,816.2999999970198,680729.5,8011,WL,B,1.0
6,1.1160001754760742,distr,58883.999824523926,Fri Dec 06 2024 16:35:39 GMT-0600 (Central Standard Time),681845.799999997,B,babyenter,I,enter,289,1,1116.2999999970198,680729.5,8011,WL,B,1.0
6,1.7829999923706055,distr,58217.000007629395,Fri Dec 06 2024 16:35:39 GMT-0600 (Central Standard Time),682512.3999999985,B,o,I,o,653,1,666.2000000029802,681846.1999999955,8011,WL,B,2.0
6,1.999000072479248,distr,58000.99992752075,Fri Dec 06 2024 16:35:39 GMT-0600 (Central Standard Time),682728.8999999985,B,oc,I,c,194,1,882.7000000029802,681846.1999999955,8011,WL,B,2.0
6,2.199000120162964,distr,57800.999879837036,Fri Dec 06 2024 16:35:39 GMT-0600 (Central Standard Time),682928.6999999955,B,oce,I,e,187,1,1082.5,681846.1999999955,8011,WL,B,2.0
6,2.3320000171661377,distr,57667.99998283386,Fri Dec 06 2024 16:35:39 GMT-0600 (Central Standard Time),683062.0,B,ocea,I,a,123,1,1215.8000000044703,681846.1999999955,8011,WL,B,2.0
6,2.4830000400543213,distr,57516.99995994568,Fri Dec 06 2024 16:35:39 GMT-0600 (Central Standard Time),683212.0,B,ocean,I,n,134,1,1365.8000000044703,681846.1999999955,8011,WL,B,2.0
6,2.7160000801086426,distr,57283.99991989136,Fri Dec 06 2024 16:35:39 GMT-0600 (Central Standard Time),683445.299999997,B,oceanenter,I,enter,215,1,1599.1000000014901,681846.1999999955,8011,WL,B,2.0
6,3.499000072479248,distr,56500.99992752075,Fri Dec 06 2024 16:35:39 GMT-0600 (Central Standard Time),684228.3999999985,B,l,I,l,774,1,782.7999999970198,683445.6000000015,8011,WL,B,3.0
6,3.7320001125335693,distr,56267.99988746643,Fri Dec 06 2024 16:35:39 GMT-0600 (Central Standard Time),684461.799999997,B,li,I,i,223,1,1016.1999999955297,683445.6000000015,8011,WL,B,3.0
6,3.865000009536743,distr,56134.99999046326,Fri Dec 06 2024 16:35:39 GMT-0600 (Central Standard Time),684595.0,B,lip,I,p,117,1,1149.3999999985099,683445.6000000015,8011,WL,B,3.0
6,4.14900016784668,distr,55850.99983215332,Fri Dec 06 2024 16:35:39 GMT-0600 (Central Standard Time),684878.3999999985,B,lipenter,I,enter,273,1,1432.7999999970198,683445.6000000015,8011,WL,B,3.0
6,4.631999969482422,distr,55368.00003051758,Fri Dec 06 2024 16:35:39 GMT-0600 (Central Standard Time),685361.299999997,B,b,I,b,460,1,482.6000000014901,684878.6999999955,8011,WL,B,4.0
6,4.748000144958496,distr,55251.999855041504,Fri Dec 06 2024 16:35:39 GMT-0600 (Central Standard Time),685478.0,B,ba,I,a,106,1,599.3000000044703,684878.6999999955,8011,WL,B,4.0
6,4.965000152587891,distr,55034.99984741211,Fri Dec 06 2024 16:35:39 GMT-0600 (Central Standard Time),685694.3999999985,B,bar,I,r,197,1,815.7000000029802,684878.6999999955,8011,WL,B,4.0
6,5.148000001907349,distr,54851.99999809265,Fri Dec 06 2024 16:35:39 GMT-0600 (Central Standard Time),685877.799999997,B,barenter,I,enter,165,1,999.1000000014901,684878.6999999955,8011,WL,B,4.0
6,5.465000152587891,distr,54534.99984741211,Fri Dec 06 2024 16:35:39 GMT-0600 (Central Standard Time),686194.3999999985,B,s,I,s,301,1,316.29999999701977,685878.1000000015,8011,WL,B,5.0
6,5.732000112533569,distr,54267.99988746643,Fri Dec 06 2024 16:35:39 GMT-0600 (Central Standard Time),686461.1000000015,B,st,I,t,257,1,583.0,685878.1000000015,8011,WL,B,5.0
6,5.831000089645386,distr,54168.999910354614,Fri Dec 06 2024 16:35:39 GMT-0600 (Central Standard Time),686561.0,B,ste,I,e,86,1,682.8999999985099,685878.1000000015,8011,WL,B,5.0
6,6.0320000648498535,distr,53967.99993515015,Fri Dec 06 2024 16:35:39 GMT-0600 (Central Standard Time),686761.0,B,stea,I,a,186,1,882.8999999985099,685878.1000000015,8011,WL,B,5.0
6,6.180999994277954,distr,53819.000005722046,Fri Dec 06 2024 16:35:39 GMT-0600 (Central Standard Time),686910.8999999985,B,steam,I,m,130,1,1032.7999999970198,685878.1000000015,8011,WL,B,5.0
6,6.8480000495910645,distr,53151.999950408936,Fri Dec 06 2024 16:35:39 GMT-0600 (Central Standard Time),687577.5,B,steamenter,I,enter,652,1,1699.3999999985099,685878.1000000015,8011,WL,B,5.0
6,7.0320000648498535,distr,52967.99993515015,Fri Dec 06 2024 16:35:39 GMT-0600 (Central Standard Time),687761.799999997,B,d,I,d,162,1,184.0,687577.799999997,8011,WL,B,6.0
6,7.264000177383423,distr,52735.99982261658,Fri Dec 06 2024 16:35:39 GMT-0600 (Central Standard Time),687993.799999997,B,dr,I,r,217,1,416.0,687577.799999997,8011,WL,B,6.0
6,7.364000082015991,distr,52635.99991798401,Fri Dec 06 2024 16:35:39 GMT-0600 (Central Standard Time),688093.8999999985,B,dre,I,e,82,1,516.1000000014901,687577.799999997,8011,WL,B,6.0
6,7.582000017166138,distr,52417.99998283386,Fri Dec 06 2024 16:35:39 GMT-0600 (Central Standard Time),688311.0,B,dres,I,s,205,1,733.2000000029802,687577.799999997,8011,WL,B,6.0
6,7.748000144958496,distr,52251.999855041504,Fri Dec 06 2024 16:35:39 GMT-0600 (Central Standard Time),688477.1999999955,B,dress,I,s,148,1,899.3999999985099,687577.799999997,8011,WL,B,6.0
6,7.930999994277954,distr,52069.000005722046,Fri Dec 06 2024 16:35:39 GMT-0600 (Central Standard Time),688660.3999999985,B,dressenter,I,enter,167,1,1082.6000000014901,687577.799999997,8011,WL,B,6.0
6,9.246999979019165,distr,50753.000020980835,Fri Dec 06 2024 16:35:39 GMT-0600 (Central Standard Time),689976.1999999955,B,r,I,r,1303,1,1315.5,688660.6999999955,8011,WL,B,7.0
6,9.380000114440918,distr,50619.99988555908,Fri Dec 06 2024 16:35:39 GMT-0600 (Central Standard Time),690109.6000000015,B,ro,I,o,113,1,1448.9000000059605,688660.6999999955,8011,WL,B,7.0
6,9.547000169754028,distr,50452.99983024597,Fri Dec 06 2024 16:35:39 GMT-0600 (Central Standard Time),690276.3999999985,B,roc,I,c,158,1,1615.7000000029802,688660.6999999955,8011,WL,B,7.0
6,9.746999979019165,distr,50253.000020980835,Fri Dec 06 2024 16:35:39 GMT-0600 (Central Standard Time),690476.5,B,rock,I,k,183,1,1815.8000000044703,688660.6999999955,8011,WL,B,7.0
6,12.213000059127808,distr,47786.99994087219,Fri Dec 06 2024 16:35:39 GMT-0600 (Central Standard Time),692942.3999999985,B,rockenter,I,enter,2446,1,4281.70000000298,688660.6999999955,8011,WL,B,7.0
6,12.446000099182129,distr,47553.99990081787,Fri Dec 06 2024 16:35:39 GMT-0600 (Central Standard Time),693175.6000000015,B,c,I,c,221,1,232.90000000596046,692942.6999999955,8011,WL,B,8.0
6,12.563000202178955,distr,47436.999797821045,Fri Dec 06 2024 16:35:39 GMT-0600 (Central Standard Time),693292.299999997,B,co,I,o,100,1,349.6000000014901,692942.6999999955,8011,WL,B,8.0
6,12.779000043869019,distr,47220.99995613098,Fri Dec 06 2024 16:35:39 GMT-0600 (Central Standard Time),693508.799999997,B,coi,I,i,199,1,566.1000000014901,692942.6999999955,8011,WL,B,8.0
6,12.963000059127808,distr,47036.99994087219,Fri Dec 06 2024 16:35:39 GMT-0600 (Central Standard Time),693692.299999997,B,coin,I,n,174,1,749.6000000014901,692942.6999999955,8011,WL,B,8.0
6,13.263000011444092,distr,46736.99998855591,Fri Dec 06 2024 16:35:39 GMT-0600 (Central Standard Time),693992.0,B,coinenter,I,enter,279,1,1049.3000000044703,692942.6999999955,8011,WL,B,8.0
6,13.496000051498413,distr,46503.99994850159,Fri Dec 06 2024 16:35:39 GMT-0600 (Central Standard Time),694225.5,B,a,I,a,211,1,233.10000000149012,693992.3999999985,8011,WL,B,9.0
6,13.630000114440918,distr,46369.99988555908,Fri Dec 06 2024 16:35:39 GMT-0600 (Central Standard Time),694359.799999997,B,ar,I,r,122,1,367.3999999985099,693992.3999999985,8011,WL,B,9.0
6,13.796000003814697,distr,46203.9999961853,Fri Dec 06 2024 16:35:39 GMT-0600 (Central Standard Time),694525.5,B,arm,I,m,147,1,533.1000000014901,693992.3999999985,8011,WL,B,9.0
6,14.379000186920166,distr,45620.999813079834,Fri Dec 06 2024 16:35:39 GMT-0600 (Central Standard Time),695108.1999999955,B,army,I,y,574,1,1115.7999999970198,693992.3999999985,8011,WL,B,9.0
6,14.795000076293945,distr,45204.999923706055,Fri Dec 06 2024 16:35:39 GMT-0600 (Central Standard Time),695524.8999999985,B,armyenter,I,enter,407,1,1532.5,693992.3999999985,8011,WL,B,9.0
6,15.446000099182129,distr,44553.99990081787,Fri Dec 06 2024 16:35:39 GMT-0600 (Central Standard Time),696175.8999999985,B,v,I,v,639,1,650.7000000029802,695525.1999999955,8011,WL,B,10.0
6,15.57800006866455,distr,44421.99993133545,Fri Dec 06 2024 16:35:39 GMT-0600 (Central Standard Time),696307.8999999985,B,vi,I,i,124,1,782.7000000029802,695525.1999999955,8011,WL,B,10.0
6,15.795000076293945,distr,44204.999923706055,Fri Dec 06 2024 16:35:39 GMT-0600 (Central Standard Time),696524.6000000015,B,vil,I,l,207,1,999.4000000059605,695525.1999999955,8011,WL,B,10.0
6,15.92799997329712,distr,44072.00002670288,Fri Dec 06 2024 16:35:39 GMT-0600 (Central Standard Time),696657.8999999985,B,vill,I,l,118,1,1132.7000000029802,695525.1999999955,8011,WL,B,10.0
6,16.045000076293945,distr,43954.999923706055,Fri Dec 06 2024 16:35:39 GMT-0600 (Central Standard Time),696774.5,B,villa,I,a,97,1,1249.3000000044703,695525.1999999955,8011,WL,B,10.0
6,16.212000131607056,distr,43787.999868392944,Fri Dec 06 2024 16:35:39 GMT-0600 (Central Standard Time),696941.1999999955,B,villag,I,g,148,1,1416.0,695525.1999999955,8011,WL,B,10.0
6,16.312000036239624,distr,43687.999963760376,Fri Dec 06 2024 16:35:39 GMT-0600 (Central Standard Time),697041.1000000015,B,village,I,e,86,1,1515.9000000059605,695525.1999999955,8011,WL,B,10.0
6,16.807000160217285,distr,43192.999839782715,Fri Dec 06 2024 16:35:39 GMT-0600 (Central Standard Time),697536.8999999985,B,villageenter,I,enter,489,1,2011.7000000029802,695525.1999999955,8011,WL,B,10.0
6,32.75600004196167,distr,27243.99995803833,Fri Dec 06 2024 16:35:39 GMT-0600 (Central Standard Time),713486.1000000015,B,enter,I,enter,15928,1,15949.0,697537.1000000015,8011,WL,B,11.0
6,33.555999994277954,distr,26444.000005722046,Fri Dec 06 2024 16:35:39 GMT-0600 (Central Standard Time),714285.6000000015,B,enter,I,enter,781,1,799.3000000044703,713486.299999997,8011,WL,B,12.0
6,33.7720000743866,distr,26227.999925613403,Fri Dec 06 2024 16:35:39 GMT-0600 (Central Standard Time),714502.1999999955,B,enter,I,enter,206,1,216.19999999552965,714286.0,8011,WL,B,13.0
6,33.98900008201599,distr,26010.99991798401,Fri Dec 06 2024 16:35:39 GMT-0600 (Central Standard Time),714719.0,B,enter,I,enter,198,1,216.5,714502.5,8011,WL,B,14.0
6,34.371999979019165,distr,25628.000020980835,Fri Dec 06 2024 16:35:39 GMT-0600 (Central Standard Time),715102.1000000015,B,enter,I,enter,372,1,382.70000000298023,714719.3999999985,8011,WL,B,15.0
7,0.3660001754760742,immed,59633.999824523926,Fri Dec 06 2024 16:35:39 GMT-0600 (Central Standard Time),724632.299999997,A,s,I,s,354,1,366.29999999701977,724266.0,8011,WL,B,1.0
7,0.6170001029968262,immed,59382.999897003174,Fri Dec 06 2024 16:35:39 GMT-0600 (Central Standard Time),724882.6000000015,A,st,I,t,235,1,616.6000000014901,724266.0,8011,WL,B,1.0
7,0.8330001831054688,immed,59166.99981689453,Fri Dec 06 2024 16:35:39 GMT-0600 (Central Standard Time),725098.799999997,A,str,I,r,209,1,832.7999999970198,724266.0,8011,WL,B,1.0
7,1.0329999923706055,immed,58967.000007629395,Fri Dec 06 2024 16:35:39 GMT-0600 (Central Standard Time),725298.6000000015,A,stre,I,e,193,1,1032.6000000014901,724266.0,8011,WL,B,1.0
7,1.2160000801086426,immed,58783.99991989136,Fri Dec 06 2024 16:35:39 GMT-0600 (Central Standard Time),725482.1999999955,A,stree,I,e,161,1,1216.1999999955297,724266.0,8011,WL,B,1.0
7,1.3500001430511475,immed,58649.99985694885,Fri Dec 06 2024 16:35:39 GMT-0600 (Central Standard Time),725615.6000000015,A,street,I,t,122,1,1349.6000000014901,724266.0,8011,WL,B,1.0
7,1.5989999771118164,immed,58401.00002288818,Fri Dec 06 2024 16:35:39 GMT-0600 (Central Standard Time),725865.299999997,A,streetenter,I,enter,227,1,1599.2999999970198,724266.0,8011,WL,B,1.0
7,1.8660001754760742,immed,58133.999824523926,Fri Dec 06 2024 16:35:39 GMT-0600 (Central Standard Time),726132.1000000015,A,g,I,g,258,1,266.5,725865.6000000015,8011,WL,B,2.0
7,2.1490001678466797,immed,57850.99983215332,Fri Dec 06 2024 16:35:39 GMT-0600 (Central Standard Time),726415.299999997,A,gr,I,r,263,1,549.6999999955297,725865.6000000015,8011,WL,B,2.0
7,2.315999984741211,immed,57684.00001525879,Fri Dec 06 2024 16:35:39 GMT-0600 (Central Standard Time),726581.6999999955,A,gra,I,a,156,1,716.0999999940395,725865.6000000015,8011,WL,B,2.0
7,2.5820000171661377,immed,57417.99998283386,Fri Dec 06 2024 16:35:39 GMT-0600 (Central Standard Time),726848.5,A,gras,I,s,246,1,982.8999999985099,725865.6000000015,8011,WL,B,2.0
7,2.7330000400543213,immed,57266.99995994568,Fri Dec 06 2024 16:35:39 GMT-0600 (Central Standard Time),726998.6000000015,A,grass,I,s,130,1,1133.0,725865.6000000015,8011,WL,B,2.0
7,2.8990001678466797,immed,57100.99983215332,Fri Dec 06 2024 16:35:39 GMT-0600 (Central Standard Time),727165.0,A,grassenter,I,enter,148,1,1299.3999999985099,725865.6000000015,8011,WL,B,2.0
7,3.249000072479248,immed,56750.99992752075,Fri Dec 06 2024 16:35:39 GMT-0600 (Central Standard Time),727514.6999999955,A,d,I,d,344,1,349.29999999701977,727165.3999999985,8011,WL,B,3.0
7,3.499000072479248,immed,56500.99992752075,Fri Dec 06 2024 16:35:39 GMT-0600 (Central Standard Time),727764.799999997,A,do,I,o,233,1,599.3999999985099,727165.3999999985,8011,WL,B,3.0
7,3.6490001678466797,immed,56350.99983215332,Fri Dec 06 2024 16:35:39 GMT-0600 (Central Standard Time),727915.1000000015,A,doo,I,o,127,1,749.7000000029802,727165.3999999985,8011,WL,B,3.0
7,3.765000104904175,immed,56234.999895095825,Fri Dec 06 2024 16:35:39 GMT-0600 (Central Standard Time),728031.5,A,door,I,r,104,1,866.1000000014901,727165.3999999985,8011,WL,B,3.0
7,3.999000072479248,immed,56000.99992752075,Fri Dec 06 2024 16:35:39 GMT-0600 (Central Standard Time),728264.5,A,doorenter,I,enter,212,1,1099.1000000014901,727165.3999999985,8011,WL,B,3.0
7,4.199000120162964,immed,55800.999879837036,Fri Dec 06 2024 16:35:39 GMT-0600 (Central Standard Time),728464.5,A,a,I,a,178,1,199.39999999850988,728265.1000000015,8011,WL,B,4.0
7,4.29800009727478,immed,55701.99990272522,Fri Dec 06 2024 16:35:39 GMT-0600 (Central Standard Time),728564.5,A,ar,I,r,83,1,299.3999999985099,728265.1000000015,8011,WL,B,4.0
7,4.449000120162964,immed,55550.999879837036,Fri Dec 06 2024 16:35:39 GMT-0600 (Central Standard Time),728714.6999999955,A,arm,I,m,128,1,449.59999999403954,728265.1000000015,8011,WL,B,4.0
7,4.715000152587891,immed,55284.99984741211,Fri Dec 06 2024 16:35:39 GMT-0600 (Central Standard Time),728981.1000000015,A,armenter,I,enter,249,1,716.0,728265.1000000015,8011,WL,B,4.0
7,4.948000192642212,immed,55051.99980735779,Fri Dec 06 2024 16:35:39 GMT-0600 (Central Standard Time),729214.1999999955,A,w,I,w,222,1,232.69999999552965,728981.5,8011,WL,B,5.0
7,5.115000009536743,immed,54884.99999046326,Fri Dec 06 2024 16:35:39 GMT-0600 (Central Standard Time),729381.0,A,wi,I,i,157,1,399.5,728981.5,8011,WL,B,5.0
7,5.331000089645386,immed,54668.999910354614,Fri Dec 06 2024 16:35:39 GMT-0600 (Central Standard Time),729597.5,A,wif,I,f,198,1,616.0,728981.5,8011,WL,B,5.0
7,5.448000192642212,immed,54551.99980735779,Fri Dec 06 2024 16:35:39 GMT-0600 (Central Standard Time),729714.3999999985,A,wife,I,e,110,1,732.8999999985099,728981.5,8011,WL,B,5.0
7,5.648000001907349,immed,54351.99999809265,Fri Dec 06 2024 16:35:39 GMT-0600 (Central Standard Time),729914.1000000015,A,wifeenter,I,enter,178,1,932.6000000014901,728981.5,8011,WL,B,5.0
7,5.89900016784668,immed,54100.99983215332,Fri Dec 06 2024 16:35:39 GMT-0600 (Central Standard Time),730165.0,A,c,I,c,241,1,250.60000000149012,729914.3999999985,8011,WL,B,6.0
7,6.04800009727478,immed,53951.99990272522,Fri Dec 06 2024 16:35:39 GMT-0600 (Central Standard Time),730314.0,A,ci,I,i,134,1,399.6000000014901,729914.3999999985,8011,WL,B,6.0
7,6.198000192642212,immed,53801.99980735779,Fri Dec 06 2024 16:35:39 GMT-0600 (Central Standard Time),730464.0,A,cit,I,t,137,1,549.6000000014901,729914.3999999985,8011,WL,B,6.0
7,6.398000001907349,immed,53601.99999809265,Fri Dec 06 2024 16:35:39 GMT-0600 (Central Standard Time),730663.8999999985,A,city,I,y,179,1,749.5,729914.3999999985,8011,WL,B,6.0
7,6.564000129699707,immed,53435.99987030029,Fri Dec 06 2024 16:35:39 GMT-0600 (Central Standard Time),730830.5,A,cityenter,I,enter,154,1,916.1000000014901,729914.3999999985,8011,WL,B,6.0
7,6.781000137329102,immed,53218.9998626709,Fri Dec 06 2024 16:35:39 GMT-0600 (Central Standard Time),731047.1000000015,A,s,I,s,197,1,216.30000000447035,730830.799999997,8011,WL,B,7.0
7,6.981000185012817,immed,53018.99981498718,Fri Dec 06 2024 16:35:39 GMT-0600 (Central Standard Time),731247.1000000015,A,st,I,t,180,1,416.30000000447035,730830.799999997,8011,WL,B,7.0
7,7.13100004196167,immed,52868.99995803833,Fri Dec 06 2024 16:35:39 GMT-0600 (Central Standard Time),731397.0,A,sta,I,a,140,1,566.2000000029802,730830.799999997,8011,WL,B,7.0
7,7.264000177383423,immed,52735.99982261658,Fri Dec 06 2024 16:35:39 GMT-0600 (Central Standard Time),731530.3999999985,A,star,I,r,111,1,699.6000000014901,730830.799999997,8011,WL,B,7.0
7,7.496999979019165,immed,52503.000020980835,Fri Dec 06 2024 16:35:39 GMT-0600 (Central Standard Time),731763.3999999985,A,starenter,I,enter,225,1,932.6000000014901,730830.799999997,8011,WL,B,7.0
7,7.731000185012817,immed,52268.99981498718,Fri Dec 06 2024 16:35:39 GMT-0600 (Central Standard Time),731997.0,A,f,I,f,216,1,233.39999999850988,731763.6000000015,8011,WL,B,8.0
7,7.914000034332275,immed,52085.999965667725,Fri Dec 06 2024 16:35:39 GMT-0600 (Central Standard Time),732180.1000000015,A,fi,I,i,166,1,416.5,731763.6000000015,8011,WL,B,8.0
7,8.130000114440918,immed,51869.99988555908,Fri Dec 06 2024 16:35:39 GMT-0600 (Central Standard Time),732396.5,A,fir,I,r,207,1,632.8999999985099,731763.6000000015,8011,WL,B,8.0
7,8.147000074386597,immed,51852.9999256134,Fri Dec 06 2024 16:35:39 GMT-0600 (Central Standard Time),732412.8999999985,A,fire,I,e,7,1,649.2999999970198,731763.6000000015,8011,WL,B,8.0
7,8.930000066757202,immed,51069.9999332428,Fri Dec 06 2024 16:35:39 GMT-0600 (Central Standard Time),733196.5,A,fireenter,I,enter,767,1,1432.8999999985099,731763.6000000015,8011,WL,B,8.0
7,9.630000114440918,immed,50369.99988555908,Fri Dec 06 2024 16:35:39 GMT-0600 (Central Standard Time),733896.3999999985,A,p,I,p,679,1,699.7000000029802,733196.6999999955,8011,WL,B,9.0
7,10.180000066757202,immed,49819.9999332428,Fri Dec 06 2024 16:35:39 GMT-0600 (Central Standard Time),734445.8999999985,A,pu,I,u,539,1,1249.2000000029802,733196.6999999955,8011,WL,B,9.0
7,10.380000114440918,immed,49619.99988555908,Fri Dec 06 2024 16:35:39 GMT-0600 (Central Standard Time),734645.8999999985,A,pup,I,p,181,1,1449.2000000029802,733196.6999999955,8011,WL,B,9.0
7,10.547000169754028,immed,49452.99983024597,Fri Dec 06 2024 16:35:39 GMT-0600 (Central Standard Time),734812.6000000015,A,pupi,I,i,149,1,1615.9000000059605,733196.6999999955,8011,WL,B,9.0
7,10.763000011444092,immed,49236.99998855591,Fri Dec 06 2024 16:35:39 GMT-0600 (Central Standard Time),735029.1999999955,A,pupil,I,l,199,1,1832.5,733196.6999999955,8011,WL,B,9.0
7,11.080000162124634,immed,48919.999837875366,Fri Dec 06 2024 16:35:39 GMT-0600 (Central Standard Time),735345.6999999955,A,pupilenter,I,enter,302,1,2149.0,733196.6999999955,8011,WL,B,9.0
7,11.345999956130981,immed,48654.00004386902,Fri Dec 06 2024 16:35:39 GMT-0600 (Central Standard Time),735612.5,A,l,I,l,250,1,266.5,735346.0,8011,WL,B,10.0
7,11.480000019073486,immed,48519.999980926514,Fri Dec 06 2024 16:35:39 GMT-0600 (Central Standard Time),735745.6999999955,A,la,I,a,111,1,399.69999999552965,735346.0,8011,WL,B,10.0
7,11.580000162124634,immed,48419.999837875366,Fri Dec 06 2024 16:35:39 GMT-0600 (Central Standard Time),735845.799999997,A,lak,I,k,90,1,499.79999999701977,735346.0,8011,WL,B,10.0
7,11.713000059127808,immed,48286.99994087219,Fri Dec 06 2024 16:35:39 GMT-0600 (Central Standard Time),735978.8999999985,A,lake,I,e,117,1,632.8999999985099,735346.0,8011,WL,B,10.0
7,12.02999997138977,immed,47970.00002861023,Fri Dec 06 2024 16:35:39 GMT-0600 (Central Standard Time),736295.6000000015,A,lakeenter,I,enter,297,1,949.6000000014901,735346.0,8011,WL,B,10.0
7,12.213000059127808,immed,47786.99994087219,Fri Dec 06 2024 16:35:39 GMT-0600 (Central Standard Time),736478.6999999955,A,c,I,c,172,1,182.79999999701977,736295.8999999985,8011,WL,B,11.0
7,12.296000003814697,immed,47703.9999961853,Fri Dec 06 2024 16:35:39 GMT-0600 (Central Standard Time),736562.1999999955,A,ca,I,a,68,1,266.29999999701977,736295.8999999985,8011,WL,B,11.0
7,12.963000059127808,immed,47036.99994087219,Fri Dec 06 2024 16:35:39 GMT-0600 (Central Standard Time),737228.8999999985,A,cab,I,b,649,1,933.0,736295.8999999985,8011,WL,B,11.0
7,13.162000179290771,immed,46837.99982070923,Fri Dec 06 2024 16:35:39 GMT-0600 (Central Standard Time),737428.5,A,cabi,I,i,182,1,1132.6000000014901,736295.8999999985,8011,WL,B,11.0
7,13.345999956130981,immed,46654.00004386902,Fri Dec 06 2024 16:35:39 GMT-0600 (Central Standard Time),737611.6000000015,A,cabin,I,n,167,1,1315.7000000029802,736295.8999999985,8011,WL,B,11.0
7,13.84500002861023,immed,46154.99997138977,Fri Dec 06 2024 16:35:39 GMT-0600 (Central Standard Time),738111.3999999985,A,cabinenter,I,enter,488,1,1815.5,736295.8999999985,8011,WL,B,11.0
7,16.511000156402588,immed,43488.99984359741,Fri Dec 06 2024 16:35:39 GMT-0600 (Central Standard Time),740777.5,A,c,I,c,2644,1,2665.7000000029802,738111.799999997,8011,WL,B,12.0
7,16.611000061035156,immed,43388.999938964844,Fri Dec 06 2024 16:35:39 GMT-0600 (Central Standard Time),740877.5,A,cl,I,l,90,1,2765.7000000029802,738111.799999997,8011,WL,B,12.0
7,16.811000108718872,immed,43188.99989128113,Fri Dec 06 2024 16:35:39 GMT-0600 (Central Standard Time),741077.3999999985,A,clo,I,o,190,1,2965.60000000149,738111.799999997,8011,WL,B,12.0
7,16.945000171661377,immed,43054.99982833862,Fri Dec 06 2024 16:35:39 GMT-0600 (Central Standard Time),741210.6999999955,A,cloc,I,c,119,1,3098.89999999851,738111.799999997,8011,WL,B,12.0
7,17.061000108718872,immed,42938.99989128113,Fri Dec 06 2024 16:35:39 GMT-0600 (Central Standard Time),741327.1999999955,A,clock,I,k,95,1,3215.39999999851,738111.799999997,8011,WL,B,12.0
7,17.32800006866455,immed,42671.99993133545,Fri Dec 06 2024 16:35:39 GMT-0600 (Central Standard Time),741593.799999997,A,clockenter,I,enter,252,1,3482.0,738111.799999997,8011,WL,B,12.0
7,17.945000171661377,immed,42054.99982833862,Fri Dec 06 2024 16:35:39 GMT-0600 (Central Standard Time),742210.6999999955,A,p,I,p,609,1,616.6999999955297,741594.0,8011,WL,B,13.0
7,18.261000156402588,immed,41738.99984359741,Fri Dec 06 2024 16:35:39 GMT-0600 (Central Standard Time),742526.799999997,A,pi,I,i,297,1,932.7999999970198,741594.0,8011,WL,B,13.0
7,18.41100001335144,immed,41588.99998664856,Fri Dec 06 2024 16:35:39 GMT-0600 (Central Standard Time),742676.8999999985,A,pip,I,p,140,1,1082.8999999985099,741594.0,8011,WL,B,13.0
7,18.5770001411438,immed,41422.9998588562,Fri Dec 06 2024 16:35:39 GMT-0600 (Central Standard Time),742843.3999999985,A,pipe,I,e,150,1,1249.3999999985099,741594.0,8011,WL,B,13.0
7,18.861000061035156,immed,41138.999938964844,Fri Dec 06 2024 16:35:39 GMT-0600 (Central Standard Time),743126.6999999955,A,pipeenter,I,enter,272,1,1532.6999999955297,741594.0,8011,WL,B,13.0
7,21.89300012588501,immed,38106.99987411499,Fri Dec 06 2024 16:35:39 GMT-0600 (Central Standard Time),746159.0,A,s,I,s,3013,1,3032.10000000149,743126.8999999985,8011,WL,B,14.0
