block_c,block_dur,condition,countdown,datetime,endtime,list,multichar_response,project,response,response_time,session_number,start_end,starttime,subject_id,task,task_vers,trial
,,,,Wed Feb 19 2025 17:00:16 GMT-0600 (Central Standard Time),,,,I,space,541,2,,,8011,WL,C,
prac,,0,,Wed Feb 19 2025 17:00:16 GMT-0600 (Central Standard Time),,NA,b,I,b,2725,2,,,8011,WL,C,1.0
prac,,0,,Wed Feb 19 2025 17:00:16 GMT-0600 (Central Standard Time),,NA,bo,I,o,476,2,,,8011,WL,C,1.0
prac,,0,,Wed Feb 19 2025 17:00:16 GMT-0600 (Central Standard Time),,NA,boo,I,o,314,2,,,8011,WL,C,1.0
prac,,0,,Wed Feb 19 2025 17:00:16 GMT-0600 (Central Standard Time),,NA,boos,I,s,300,2,,,8011,WL,C,1.0
prac,,0,,Wed Feb 19 2025 17:00:16 GMT-0600 (Central Standard Time),,NA,boost,I,t,401,2,,,8011,WL,C,1.0
prac,,0,,Wed Feb 19 2025 17:00:16 GMT-0600 (Central Standard Time),,NA,boostenter,I,enter,3847,2,,,8011,WL,C,1.0
1,1.4160001277923584,learn,58583.99987220764,Wed Feb 19 2025 17:00:16 GMT-0600 (Central Standard Time),129956.8999999999,A,w,I,w,1400,2,1416.0,128540.8999999999,8011,WL,C,1.0
1,1.5,learn,58500.0,Wed Feb 19 2025 17:00:16 GMT-0600 (Central Standard Time),130040.29999999981,A,wh,I,h,71,2,1499.3999999999069,128540.8999999999,8011,WL,C,1.0
1,1.75,learn,58250.0,Wed Feb 19 2025 17:00:16 GMT-0600 (Central Standard Time),130290.09999999963,A,wha,I,a,244,2,1749.1999999997206,128540.8999999999,8011,WL,C,1.0
1,1.933000087738037,learn,58066.99991226196,Wed Feb 19 2025 17:00:16 GMT-0600 (Central Standard Time),130473.3999999999,A,what,I,t,169,2,1932.5,128540.8999999999,8011,WL,C,1.0
1,2.949000120162964,learn,57050.999879837036,Wed Feb 19 2025 17:00:16 GMT-0600 (Central Standard Time),131489.5,A,wha,I,backspace,1002,2,2948.600000000093,128540.8999999999,8011,WL,C,1.0
1,3.2320001125335693,learn,56767.99988746643,Wed Feb 19 2025 17:00:16 GMT-0600 (Central Standard Time),131772.7999999998,A,wh,I,backspace,266,2,3231.899999999907,128540.8999999999,8011,WL,C,1.0
1,3.383000135421753,learn,56616.99986457825,Wed Feb 19 2025 17:00:16 GMT-0600 (Central Standard Time),131923.0,A,whe,I,e,136,2,3382.100000000093,128540.8999999999,8011,WL,C,1.0
1,3.499000072479248,learn,56500.99992752075,Wed Feb 19 2025 17:00:16 GMT-0600 (Central Standard Time),132039.5,A,whea,I,a,97,2,3498.600000000093,128540.8999999999,8011,WL,C,1.0
1,3.999000072479248,learn,56000.99992752075,Wed Feb 19 2025 17:00:16 GMT-0600 (Central Standard Time),132539.09999999963,A,wheat,I,t,485,2,3998.1999999997206,128540.8999999999,8011,WL,C,1.0
1,4.182000160217285,learn,55817.999839782715,Wed Feb 19 2025 17:00:16 GMT-0600 (Central Standard Time),132722.2999999998,A,wheatenter,I,enter,176,2,4181.399999999907,128540.8999999999,8011,WL,C,1.0
1,4.498000144958496,learn,55501.999855041504,Wed Feb 19 2025 17:00:16 GMT-0600 (Central Standard Time),133038.8999999999,A,c,I,c,297,2,316.10000000009313,132722.7999999998,8011,WL,C,2.0
1,4.664999961853027,learn,55335.00003814697,Wed Feb 19 2025 17:00:16 GMT-0600 (Central Standard Time),133205.69999999972,A,co,I,o,149,2,482.89999999990687,132722.7999999998,8011,WL,C,2.0
1,4.815000057220459,learn,55184.99994277954,Wed Feb 19 2025 17:00:16 GMT-0600 (Central Standard Time),133355.69999999972,A,cor,I,r,143,2,632.8999999999069,132722.7999999998,8011,WL,C,2.0
1,5.236999988555908,learn,54763.00001144409,Wed Feb 19 2025 17:00:16 GMT-0600 (Central Standard Time),133777.3999999999,A,corn,I,n,269,2,1054.6000000000931,132722.7999999998,8011,WL,C,2.0
1,5.79800009727478,learn,54201.99990272522,Wed Feb 19 2025 17:00:16 GMT-0600 (Central Standard Time),134338.5,A,cornenter,I,enter,555,2,1615.7000000001863,132722.7999999998,8011,WL,C,2.0
1,6.664999961853027,learn,53335.00003814697,Wed Feb 19 2025 17:00:16 GMT-0600 (Central Standard Time),135205.09999999963,A,s,I,s,858,2,866.2999999998137,134338.7999999998,8011,WL,C,3.0
1,6.815000057220459,learn,53184.99994277954,Wed Feb 19 2025 17:00:16 GMT-0600 (Central Standard Time),135355.09999999963,A,su,I,u,136,2,1016.2999999998137,134338.7999999998,8011,WL,C,3.0
1,6.947999954223633,learn,53052.00004577637,Wed Feb 19 2025 17:00:16 GMT-0600 (Central Standard Time),135488.2999999998,A,sug,I,g,114,2,1149.5,134338.7999999998,8011,WL,C,3.0
1,7.031000137329102,learn,52968.9998626709,Wed Feb 19 2025 17:00:16 GMT-0600 (Central Standard Time),135571.7999999998,A,suga,I,a,77,2,1233.0,134338.7999999998,8011,WL,C,3.0
1,7.148000001907349,learn,52851.99999809265,Wed Feb 19 2025 17:00:16 GMT-0600 (Central Standard Time),135688.19999999972,A,sugar,I,r,105,2,1349.3999999999069,134338.7999999998,8011,WL,C,3.0
1,7.38100004196167,learn,52618.99995803833,Wed Feb 19 2025 17:00:16 GMT-0600 (Central Standard Time),135921.69999999972,A,sugarenter,I,enter,228,2,1582.8999999999069,134338.7999999998,8011,WL,C,3.0
1,7.914000034332275,learn,52085.999965667725,Wed Feb 19 2025 17:00:16 GMT-0600 (Central Standard Time),136454.7999999998,A,q,I,q,515,2,532.8999999999069,135921.8999999999,8011,WL,C,4.0
1,8.097000122070312,learn,51902.99987792969,Wed Feb 19 2025 17:00:16 GMT-0600 (Central Standard Time),136637.8999999999,A,qu,I,u,174,2,716.0,135921.8999999999,8011,WL,C,4.0
1,8.248000144958496,learn,51751.999855041504,Wed Feb 19 2025 17:00:16 GMT-0600 (Central Standard Time),136788.09999999963,A,que,I,e,134,2,866.1999999997206,135921.8999999999,8011,WL,C,4.0
1,8.531000137329102,learn,51468.9998626709,Wed Feb 19 2025 17:00:16 GMT-0600 (Central Standard Time),137071.2999999998,A,quee,I,e,264,2,1149.3999999999069,135921.8999999999,8011,WL,C,4.0
1,8.664000034332275,learn,51335.999965667725,Wed Feb 19 2025 17:00:16 GMT-0600 (Central Standard Time),137204.69999999972,A,queen,I,n,117,2,1282.7999999998137,135921.8999999999,8011,WL,C,4.0
1,8.930999994277954,learn,51069.000005722046,Wed Feb 19 2025 17:00:16 GMT-0600 (Central Standard Time),137471.09999999963,A,queenenter,I,enter,247,2,1549.1999999997206,135921.8999999999,8011,WL,C,4.0
1,9.263999938964844,learn,50736.000061035156,Wed Feb 19 2025 17:00:16 GMT-0600 (Central Standard Time),137804.3999999999,A,n,I,n,318,2,332.89999999990687,137471.5,8011,WL,C,5.0
1,9.397000074386597,learn,50602.9999256134,Wed Feb 19 2025 17:00:16 GMT-0600 (Central Standard Time),137937.69999999972,A,na,I,a,112,2,466.1999999997206,137471.5,8011,WL,C,5.0
1,9.44700002670288,learn,50552.99997329712,Wed Feb 19 2025 17:00:16 GMT-0600 (Central Standard Time),137987.8999999999,A,nas,I,s,34,2,516.3999999999069,137471.5,8011,WL,C,5.0
1,9.564000129699707,learn,50435.99987030029,Wed Feb 19 2025 17:00:16 GMT-0600 (Central Standard Time),138104.09999999963,A,nasi,I,i,105,2,632.5999999996275,137471.5,8011,WL,C,5.0
1,9.763999938964844,learn,50236.000061035156,Wed Feb 19 2025 17:00:16 GMT-0600 (Central Standard Time),138304.09999999963,A,nasil,I,l,188,2,832.5999999996275,137471.5,8011,WL,C,5.0
1,10.163000106811523,learn,49836.99989318848,Wed Feb 19 2025 17:00:16 GMT-0600 (Central Standard Time),138703.7999999998,A,nasi,I,backspace,381,2,1232.2999999998137,137471.5,8011,WL,C,5.0
1,10.314000129699707,learn,49685.99987030029,Wed Feb 19 2025 17:00:16 GMT-0600 (Central Standard Time),138853.8999999999,A,nas,I,backspace,131,2,1382.3999999999069,137471.5,8011,WL,C,5.0
1,10.44700002670288,learn,49552.99997329712,Wed Feb 19 2025 17:00:16 GMT-0600 (Central Standard Time),138987.3999999999,A,na,I,backspace,119,2,1515.8999999999069,137471.5,8011,WL,C,5.0
1,10.730000019073486,learn,49269.999980926514,Wed Feb 19 2025 17:00:16 GMT-0600 (Central Standard Time),139270.5,A,nai,I,i,264,2,1799.0,137471.5,8011,WL,C,5.0
1,10.913000106811523,learn,49086.99989318848,Wed Feb 19 2025 17:00:16 GMT-0600 (Central Standard Time),139453.8999999999,A,nail,I,l,175,2,1982.3999999999069,137471.5,8011,WL,C,5.0
1,11.163000106811523,learn,48836.99989318848,Wed Feb 19 2025 17:00:16 GMT-0600 (Central Standard Time),139703.69999999972,A,nailenter,I,enter,238,2,2232.1999999997206,137471.5,8011,WL,C,5.0
1,11.61300015449524,learn,48386.99984550476,Wed Feb 19 2025 17:00:16 GMT-0600 (Central Standard Time),140153.5,A,t,I,t,436,2,449.5,139704.0,8011,WL,C,6.0
1,11.796000003814697,learn,48203.9999961853,Wed Feb 19 2025 17:00:16 GMT-0600 (Central Standard Time),140336.8999999999,A,to,I,o,172,2,632.8999999999069,139704.0,8011,WL,C,6.0
1,11.896000146865845,learn,48103.999853134155,Wed Feb 19 2025 17:00:16 GMT-0600 (Central Standard Time),140436.8999999999,A,tow,I,w,92,2,732.8999999999069,139704.0,8011,WL,C,6.0
1,12.013000011444092,learn,47986.99998855591,Wed Feb 19 2025 17:00:16 GMT-0600 (Central Standard Time),140553.2999999998,A,towe,I,e,96,2,849.2999999998137,139704.0,8011,WL,C,6.0
1,12.213000059127808,learn,47786.99994087219,Wed Feb 19 2025 17:00:16 GMT-0600 (Central Standard Time),140753.5,A,tower,I,r,188,2,1049.5,139704.0,8011,WL,C,6.0
1,12.479000091552734,learn,47520.999908447266,Wed Feb 19 2025 17:00:16 GMT-0600 (Central Standard Time),141019.7999999998,A,towerenter,I,enter,260,2,1315.7999999998137,139704.0,8011,WL,C,6.0
1,13.17900013923645,learn,46820.99986076355,Wed Feb 19 2025 17:00:16 GMT-0600 (Central Standard Time),141719.69999999972,A,b,I,b,690,2,699.6999999997206,141020.0,8011,WL,C,7.0
1,13.279000043869019,learn,46720.99995613098,Wed Feb 19 2025 17:00:16 GMT-0600 (Central Standard Time),141819.7999999998,A,bo,I,o,94,2,799.7999999998137,141020.0,8011,WL,C,7.0
1,13.479000091552734,learn,46520.999908447266,Wed Feb 19 2025 17:00:16 GMT-0600 (Central Standard Time),142019.69999999972,A,boy,I,y,193,2,999.6999999997206,141020.0,8011,WL,C,7.0
1,13.67900013923645,learn,46320.99986076355,Wed Feb 19 2025 17:00:16 GMT-0600 (Central Standard Time),142219.59999999963,A,boyenter,I,enter,192,2,1199.5999999996275,141020.0,8011,WL,C,7.0
1,13.92900013923645,learn,46070.99986076355,Wed Feb 19 2025 17:00:16 GMT-0600 (Central Standard Time),142469.5,A,d,I,d,233,2,249.60000000009313,142219.8999999999,8011,WL,C,8.0
1,14.062000036239624,learn,45937.999963760376,Wed Feb 19 2025 17:00:16 GMT-0600 (Central Standard Time),142602.59999999963,A,do,I,o,128,2,382.6999999997206,142219.8999999999,8011,WL,C,8.0
1,14.213000059127808,learn,45786.99994087219,Wed Feb 19 2025 17:00:16 GMT-0600 (Central Standard Time),142753.09999999963,A,doc,I,c,139,2,533.1999999997206,142219.8999999999,8011,WL,C,8.0
1,14.411999940872192,learn,45588.00005912781,Wed Feb 19 2025 17:00:16 GMT-0600 (Central Standard Time),142952.69999999972,A,doct,I,t,179,2,732.7999999998137,142219.8999999999,8011,WL,C,8.0
1,14.529000043869019,learn,45470.99995613098,Wed Feb 19 2025 17:00:16 GMT-0600 (Central Standard Time),143069.3999999999,A,docto,I,o,109,2,849.5,142219.8999999999,8011,WL,C,8.0
1,14.962000131607056,learn,45037.999868392944,Wed Feb 19 2025 17:00:16 GMT-0600 (Central Standard Time),143502.59999999963,A,doctor,I,r,415,2,1282.6999999997206,142219.8999999999,8011,WL,C,8.0
1,15.17900013923645,learn,44820.99986076355,Wed Feb 19 2025 17:00:16 GMT-0600 (Central Standard Time),143719.0,A,doctorenter,I,enter,206,2,1499.1000000000931,142219.8999999999,8011,WL,C,8.0
1,15.444999933242798,learn,44555.0000667572,Wed Feb 19 2025 17:00:16 GMT-0600 (Central Standard Time),143985.7999999998,A,c,I,c,262,2,266.5,143719.2999999998,8011,WL,C,9.0
1,15.51200008392334,learn,44487.99991607666,Wed Feb 19 2025 17:00:16 GMT-0600 (Central Standard Time),144052.3999999999,A,ca,I,a,60,2,333.10000000009313,143719.2999999998,8011,WL,C,9.0
1,15.628999948501587,learn,44371.00005149841,Wed Feb 19 2025 17:00:16 GMT-0600 (Central Standard Time),144169.09999999963,A,cam,I,m,104,2,449.79999999981374,143719.2999999998,8011,WL,C,9.0
1,15.745000123977661,learn,44254.99987602234,Wed Feb 19 2025 17:00:16 GMT-0600 (Central Standard Time),144285.5,A,camp,I,p,99,2,566.2000000001863,143719.2999999998,8011,WL,C,9.0
1,16.212000131607056,learn,43787.999868392944,Wed Feb 19 2025 17:00:16 GMT-0600 (Central Standard Time),144752.19999999972,A,campenter,I,enter,448,2,1032.8999999999069,143719.2999999998,8011,WL,C,9.0
1,16.479000091552734,learn,43520.999908447266,Wed Feb 19 2025 17:00:16 GMT-0600 (Central Standard Time),145019.7999999998,A,f,I,f,261,2,267.20000000018626,144752.59999999963,8011,WL,C,10.0
1,16.628000020980835,learn,43371.999979019165,Wed Feb 19 2025 17:00:16 GMT-0600 (Central Standard Time),145168.69999999972,A,fl,I,l,137,2,416.10000000009313,144752.59999999963,8011,WL,C,10.0
1,16.861999988555908,learn,43138.00001144409,Wed Feb 19 2025 17:00:16 GMT-0600 (Central Standard Time),145402.19999999972,A,fla,I,a,228,2,649.6000000000931,144752.59999999963,8011,WL,C,10.0
1,17.194999933242798,learn,42805.0000667572,Wed Feb 19 2025 17:00:16 GMT-0600 (Central Standard Time),145735.2999999998,A,flag,I,g,315,2,982.7000000001863,144752.59999999963,8011,WL,C,10.0
1,17.74500012397766,learn,42254.99987602234,Wed Feb 19 2025 17:00:16 GMT-0600 (Central Standard Time),146285.19999999972,A,flagenter,I,enter,542,2,1532.6000000000931,144752.59999999963,8011,WL,C,10.0
1,17.89400005340576,learn,42105.99994659424,Wed Feb 19 2025 17:00:16 GMT-0600 (Central Standard Time),146434.7999999998,A,s,I,s,144,2,149.29999999981374,146285.5,8011,WL,C,11.0
1,18.07800006866455,learn,41921.99993133545,Wed Feb 19 2025 17:00:16 GMT-0600 (Central Standard Time),146618.19999999972,A,sh,I,h,163,2,332.6999999997206,146285.5,8011,WL,C,11.0
1,18.16100001335144,learn,41838.99998664856,Wed Feb 19 2025 17:00:16 GMT-0600 (Central Standard Time),146701.7999999998,A,sho,I,o,67,2,416.29999999981374,146285.5,8011,WL,C,11.0
1,18.460999965667725,learn,41539.000034332275,Wed Feb 19 2025 17:00:16 GMT-0600 (Central Standard Time),147001.59999999963,A,shor,I,r,295,2,716.0999999996275,146285.5,8011,WL,C,11.0
1,18.545000076293945,learn,41454.999923706055,Wed Feb 19 2025 17:00:16 GMT-0600 (Central Standard Time),147085.0,A,shore,I,e,76,2,799.5,146285.5,8011,WL,C,11.0
1,18.944000005722046,learn,41055.999994277954,Wed Feb 19 2025 17:00:16 GMT-0600 (Central Standard Time),147484.2999999998,A,shoreenter,I,enter,384,2,1198.7999999998137,146285.5,8011,WL,C,11.0
1,21.91000008583069,learn,38089.99991416931,Wed Feb 19 2025 17:00:16 GMT-0600 (Central Standard Time),150450.19999999972,A,a,I,a,2961,2,2965.6999999997206,147484.5,8011,WL,C,12.0
1,22.292999982833862,learn,37707.00001716614,Wed Feb 19 2025 17:00:16 GMT-0600 (Central Standard Time),150833.7999999998,A,,I,backspace,378,2,3349.2999999998137,147484.5,8011,WL,C,12.0
1,22.342999935150146,learn,37657.00006484985,Wed Feb 19 2025 17:00:16 GMT-0600 (Central Standard Time),150883.59999999963,A,c,I,c,36,2,3399.0999999996275,147484.5,8011,WL,C,12.0
1,22.39300012588501,learn,37606.99987411499,Wed Feb 19 2025 17:00:16 GMT-0600 (Central Standard Time),150933.59999999963,A,ca,I,a,41,2,3449.0999999996275,147484.5,8011,WL,C,12.0
1,22.592999935150146,learn,37407.00006484985,Wed Feb 19 2025 17:00:16 GMT-0600 (Central Standard Time),151133.59999999963,A,cat,I,t,192,2,3649.0999999996275,147484.5,8011,WL,C,12.0
1,22.759999990463257,learn,37240.00000953674,Wed Feb 19 2025 17:00:16 GMT-0600 (Central Standard Time),151300.09999999963,A,catt,I,t,152,2,3815.5999999996275,147484.5,8011,WL,C,12.0
1,22.858999967575073,learn,37141.00003242493,Wed Feb 19 2025 17:00:16 GMT-0600 (Central Standard Time),151399.8999999999,A,cattl,I,l,80,2,3915.399999999907,147484.5,8011,WL,C,12.0
1,23.026000022888184,learn,36973.99997711182,Wed Feb 19 2025 17:00:16 GMT-0600 (Central Standard Time),151566.3999999999,A,cattle,I,e,156,2,4081.899999999907,147484.5,8011,WL,C,12.0
1,23.2260000705719,learn,36773.9999294281,Wed Feb 19 2025 17:00:16 GMT-0600 (Central Standard Time),151766.8999999999,A,cattleenter,I,enter,191,2,4282.399999999907,147484.5,8011,WL,C,12.0
1,23.91000008583069,learn,36089.99991416931,Wed Feb 19 2025 17:00:16 GMT-0600 (Central Standard Time),152450.0,A,enter,I,enter,678,2,682.7000000001863,151767.2999999998,8011,WL,C,13.0
1,24.409000158309937,learn,35590.99984169006,Wed Feb 19 2025 17:00:16 GMT-0600 (Central Standard Time),152949.69999999972,A,enter,I,enter,484,2,499.39999999990687,152450.2999999998,8011,WL,C,14.0
1,24.842000007629395,learn,35157.999992370605,Wed Feb 19 2025 17:00:16 GMT-0600 (Central Standard Time),153382.7999999998,A,enter,I,enter,414,2,432.70000000018626,152950.09999999963,8011,WL,C,15.0
2,1.0160000324249268,learn,58983.99996757507,Wed Feb 19 2025 17:00:16 GMT-0600 (Central Standard Time),219628.7999999998,A,q,I,q,1001,2,1016.1000000000931,218612.69999999972,8011,WL,C,1.0
2,1.2000000476837158,learn,58799.999952316284,Wed Feb 19 2025 17:00:16 GMT-0600 (Central Standard Time),219812.09999999963,A,qu,I,u,175,2,1199.3999999999069,218612.69999999972,8011,WL,C,1.0
2,1.3499999046325684,learn,58650.00009536743,Wed Feb 19 2025 17:00:16 GMT-0600 (Central Standard Time),219962.0,A,que,I,e,145,2,1349.3000000002794,218612.69999999972,8011,WL,C,1.0
2,1.5329999923706055,learn,58467.000007629395,Wed Feb 19 2025 17:00:16 GMT-0600 (Central Standard Time),220145.5,A,quee,I,e,172,2,1532.8000000002794,218612.69999999972,8011,WL,C,1.0
2,1.683000087738037,learn,58316.99991226196,Wed Feb 19 2025 17:00:16 GMT-0600 (Central Standard Time),220295.19999999972,A,queen,I,n,132,2,1682.5,218612.69999999972,8011,WL,C,1.0
2,2.1489999294281006,learn,57851.0000705719,Wed Feb 19 2025 17:00:16 GMT-0600 (Central Standard Time),220762.0,A,queenenter,I,enter,445,2,2149.3000000002794,218612.69999999972,8011,WL,C,1.0
2,2.7320001125335693,learn,57267.99988746643,Wed Feb 19 2025 17:00:16 GMT-0600 (Central Standard Time),221344.69999999972,A,t,I,t,562,2,582.3999999999069,220762.2999999998,8011,WL,C,2.0
2,2.933000087738037,learn,57066.99991226196,Wed Feb 19 2025 17:00:16 GMT-0600 (Central Standard Time),221545.09999999963,A,to,I,o,180,2,782.7999999998137,220762.2999999998,8011,WL,C,2.0
2,3.065999984741211,learn,56934.00001525879,Wed Feb 19 2025 17:00:16 GMT-0600 (Central Standard Time),221678.09999999963,A,tow,I,w,116,2,915.7999999998137,220762.2999999998,8011,WL,C,2.0
2,3.131999969482422,learn,56868.00003051758,Wed Feb 19 2025 17:00:16 GMT-0600 (Central Standard Time),221744.8999999999,A,towe,I,e,55,2,982.6000000000931,220762.2999999998,8011,WL,C,2.0
2,3.365999937057495,learn,56634.000062942505,Wed Feb 19 2025 17:00:16 GMT-0600 (Central Standard Time),221978.0,A,tower,I,r,228,2,1215.7000000001863,220762.2999999998,8011,WL,C,2.0
2,3.5320000648498535,learn,56467.99993515015,Wed Feb 19 2025 17:00:16 GMT-0600 (Central Standard Time),222144.3999999999,A,towerenter,I,enter,147,2,1382.1000000000931,220762.2999999998,8011,WL,C,2.0
2,3.881999969482422,learn,56118.00003051758,Wed Feb 19 2025 17:00:16 GMT-0600 (Central Standard Time),222494.59999999963,A,s,I,s,333,2,349.79999999981374,222144.7999999998,8011,WL,C,3.0
2,4.082000017166138,learn,55917.99998283386,Wed Feb 19 2025 17:00:16 GMT-0600 (Central Standard Time),222694.5,A,su,I,u,183,2,549.7000000001863,222144.7999999998,8011,WL,C,3.0
2,4.199000120162964,learn,55800.999879837036,Wed Feb 19 2025 17:00:16 GMT-0600 (Central Standard Time),222811.09999999963,A,sug,I,g,102,2,666.2999999998137,222144.7999999998,8011,WL,C,3.0
2,4.2820000648498535,learn,55717.99993515015,Wed Feb 19 2025 17:00:16 GMT-0600 (Central Standard Time),222894.2999999998,A,suga,I,a,73,2,749.5,222144.7999999998,8011,WL,C,3.0
2,4.431999921798706,learn,55568.000078201294,Wed Feb 19 2025 17:00:16 GMT-0600 (Central Standard Time),223044.2999999998,A,sugar,I,r,143,2,899.5,222144.7999999998,8011,WL,C,3.0
2,4.7149999141693115,learn,55285.00008583069,Wed Feb 19 2025 17:00:16 GMT-0600 (Central Standard Time),223327.69999999972,A,sugarenter,I,enter,273,2,1182.8999999999069,222144.7999999998,8011,WL,C,3.0
2,4.9649999141693115,learn,55035.00008583069,Wed Feb 19 2025 17:00:16 GMT-0600 (Central Standard Time),223577.69999999972,A,c,I,c,228,2,249.60000000009313,223328.09999999963,8011,WL,C,4.0
2,5.115000009536743,learn,54884.99999046326,Wed Feb 19 2025 17:00:16 GMT-0600 (Central Standard Time),223727.7999999998,A,co,I,o,140,2,399.70000000018626,223328.09999999963,8011,WL,C,4.0
2,5.249000072479248,learn,54750.99992752075,Wed Feb 19 2025 17:00:16 GMT-0600 (Central Standard Time),223861.7999999998,A,cor,I,r,126,2,533.7000000001863,223328.09999999963,8011,WL,C,4.0
2,5.447999954223633,learn,54552.00004577637,Wed Feb 19 2025 17:00:16 GMT-0600 (Central Standard Time),224060.7999999998,A,corn,I,n,183,2,732.7000000001863,223328.09999999963,8011,WL,C,4.0
2,5.8480000495910645,learn,54151.999950408936,Wed Feb 19 2025 17:00:16 GMT-0600 (Central Standard Time),224460.69999999972,A,cornenter,I,enter,385,2,1132.6000000000931,223328.09999999963,8011,WL,C,4.0
2,6.148000001907349,learn,53851.99999809265,Wed Feb 19 2025 17:00:16 GMT-0600 (Central Standard Time),224760.59999999963,A,w,I,w,289,2,299.39999999990687,224461.19999999972,8011,WL,C,5.0
2,6.730999946594238,learn,53269.00005340576,Wed Feb 19 2025 17:00:16 GMT-0600 (Central Standard Time),225343.69999999972,A,wh,I,h,565,2,882.5,224461.19999999972,8011,WL,C,5.0
2,6.831000089645386,learn,53168.999910354614,Wed Feb 19 2025 17:00:16 GMT-0600 (Central Standard Time),225443.59999999963,A,whe,I,e,94,2,982.3999999999069,224461.19999999972,8011,WL,C,5.0
2,6.9649999141693115,learn,53035.00008583069,Wed Feb 19 2025 17:00:16 GMT-0600 (Central Standard Time),225577.09999999963,A,whea,I,a,122,2,1115.8999999999069,224461.19999999972,8011,WL,C,5.0
2,7.13100004196167,learn,52868.99995803833,Wed Feb 19 2025 17:00:16 GMT-0600 (Central Standard Time),225743.59999999963,A,wheat,I,t,149,2,1282.3999999999069,224461.19999999972,8011,WL,C,5.0
2,7.531000137329102,learn,52468.9998626709,Wed Feb 19 2025 17:00:16 GMT-0600 (Central Standard Time),226143.5,A,wheatenter,I,enter,390,2,1682.3000000002794,224461.19999999972,8011,WL,C,5.0
2,7.71399998664856,learn,52286.00001335144,Wed Feb 19 2025 17:00:16 GMT-0600 (Central Standard Time),226326.69999999972,A,c,I,c,174,2,182.89999999990687,226143.7999999998,8011,WL,C,6.0
2,7.781000137329102,learn,52218.9998626709,Wed Feb 19 2025 17:00:16 GMT-0600 (Central Standard Time),226393.59999999963,A,ca,I,a,47,2,249.79999999981374,226143.7999999998,8011,WL,C,6.0
2,8.013999938964844,learn,51986.000061035156,Wed Feb 19 2025 17:00:16 GMT-0600 (Central Standard Time),226626.5,A,cat,I,t,228,2,482.70000000018626,226143.7999999998,8011,WL,C,6.0
2,8.180999994277954,learn,51819.000005722046,Wed Feb 19 2025 17:00:16 GMT-0600 (Central Standard Time),226793.19999999972,A,catt,I,t,146,2,649.3999999999069,226143.7999999998,8011,WL,C,6.0
2,8.847000122070312,learn,51152.99987792969,Wed Feb 19 2025 17:00:16 GMT-0600 (Central Standard Time),227459.69999999972,A,cattl,I,l,660,2,1315.8999999999069,226143.7999999998,8011,WL,C,6.0
2,8.980000019073486,learn,51019.999980926514,Wed Feb 19 2025 17:00:16 GMT-0600 (Central Standard Time),227592.8999999999,A,cattle,I,e,113,2,1449.1000000000931,226143.7999999998,8011,WL,C,6.0
2,9.161999940872192,learn,50838.00005912781,Wed Feb 19 2025 17:00:16 GMT-0600 (Central Standard Time),227774.3999999999,A,cattleenter,I,enter,176,2,1630.6000000000931,226143.7999999998,8011,WL,C,6.0
2,9.496999979019165,learn,50503.000020980835,Wed Feb 19 2025 17:00:16 GMT-0600 (Central Standard Time),228109.5,A,n,I,n,326,2,334.70000000018626,227774.7999999998,8011,WL,C,7.0
2,9.614000082015991,learn,50385.99991798401,Wed Feb 19 2025 17:00:16 GMT-0600 (Central Standard Time),228226.09999999963,A,na,I,a,96,2,451.29999999981374,227774.7999999998,8011,WL,C,7.0
2,9.746999979019165,learn,50253.000020980835,Wed Feb 19 2025 17:00:16 GMT-0600 (Central Standard Time),228359.5,A,nai,I,i,123,2,584.7000000001863,227774.7999999998,8011,WL,C,7.0
2,9.980000019073486,learn,50019.999980926514,Wed Feb 19 2025 17:00:16 GMT-0600 (Central Standard Time),228592.7999999998,A,nail,I,l,214,2,818.0,227774.7999999998,8011,WL,C,7.0
2,10.430000066757202,learn,49569.9999332428,Wed Feb 19 2025 17:00:16 GMT-0600 (Central Standard Time),229042.2999999998,A,nailenter,I,enter,445,2,1267.5,227774.7999999998,8011,WL,C,7.0
2,10.812999963760376,learn,49187.000036239624,Wed Feb 19 2025 17:00:16 GMT-0600 (Central Standard Time),229425.7999999998,A,l,I,l,371,2,383.20000000018626,229042.59999999963,8011,WL,C,8.0
2,10.930000066757202,learn,49069.9999332428,Wed Feb 19 2025 17:00:16 GMT-0600 (Central Standard Time),229542.2999999998,A,le,I,e,99,2,499.70000000018626,229042.59999999963,8011,WL,C,8.0
2,11.062999963760376,learn,48937.000036239624,Wed Feb 19 2025 17:00:16 GMT-0600 (Central Standard Time),229675.69999999972,A,let,I,t,127,2,633.1000000000931,229042.59999999963,8011,WL,C,8.0
2,11.296000003814697,learn,48703.9999961853,Wed Feb 19 2025 17:00:16 GMT-0600 (Central Standard Time),229908.7999999998,A,lett,I,t,226,2,866.2000000001863,229042.59999999963,8011,WL,C,8.0
2,11.496000051498413,learn,48503.99994850159,Wed Feb 19 2025 17:00:16 GMT-0600 (Central Standard Time),230108.69999999972,A,lette,I,e,192,2,1066.1000000000931,229042.59999999963,8011,WL,C,8.0
2,11.61299991607666,learn,48387.00008392334,Wed Feb 19 2025 17:00:16 GMT-0600 (Central Standard Time),230225.5,A,letter,I,r,95,2,1182.9000000003725,229042.59999999963,8011,WL,C,8.0
2,11.86299991607666,learn,48137.00008392334,Wed Feb 19 2025 17:00:16 GMT-0600 (Central Standard Time),230475.3999999999,A,letterenter,I,enter,236,2,1432.8000000002794,229042.59999999963,8011,WL,C,8.0
2,12.312999963760376,learn,47687.000036239624,Wed Feb 19 2025 17:00:16 GMT-0600 (Central Standard Time),230925.2999999998,A,b,I,b,434,2,449.60000000009313,230475.69999999972,8011,WL,C,9.0
2,12.413000106811523,learn,47586.99989318848,Wed Feb 19 2025 17:00:16 GMT-0600 (Central Standard Time),231025.19999999972,A,bo,I,o,79,2,549.5,230475.69999999972,8011,WL,C,9.0
2,12.696000099182129,learn,47303.99990081787,Wed Feb 19 2025 17:00:16 GMT-0600 (Central Standard Time),231308.3999999999,A,boy,I,y,268,2,832.7000000001863,230475.69999999972,8011,WL,C,9.0
2,13.161999940872192,learn,46838.00005912781,Wed Feb 19 2025 17:00:16 GMT-0600 (Central Standard Time),231774.8999999999,A,boyenter,I,enter,457,2,1299.2000000001863,230475.69999999972,8011,WL,C,9.0
2,13.42900013923645,learn,46570.99986076355,Wed Feb 19 2025 17:00:16 GMT-0600 (Central Standard Time),232041.7999999998,A,d,I,d,261,2,266.60000000009313,231775.19999999972,8011,WL,C,10.0
2,13.578999996185303,learn,46421.0000038147,Wed Feb 19 2025 17:00:16 GMT-0600 (Central Standard Time),232191.59999999963,A,do,I,o,131,2,416.39999999990687,231775.19999999972,8011,WL,C,10.0
2,13.696000099182129,learn,46303.99990081787,Wed Feb 19 2025 17:00:16 GMT-0600 (Central Standard Time),232308.0,A,doc,I,c,102,2,532.8000000002794,231775.19999999972,8011,WL,C,10.0
2,13.894999980926514,learn,46105.000019073486,Wed Feb 19 2025 17:00:16 GMT-0600 (Central Standard Time),232508.0,A,doct,I,t,193,2,732.8000000002794,231775.19999999972,8011,WL,C,10.0
2,14.078999996185303,learn,45921.0000038147,Wed Feb 19 2025 17:00:16 GMT-0600 (Central Standard Time),232691.3999999999,A,docto,I,o,177,2,916.2000000001863,231775.19999999972,8011,WL,C,10.0
2,14.26200008392334,learn,45737.99991607666,Wed Feb 19 2025 17:00:16 GMT-0600 (Central Standard Time),232874.5,A,doctor,I,r,170,2,1099.3000000002794,231775.19999999972,8011,WL,C,10.0
2,14.545000076293945,learn,45454.999923706055,Wed Feb 19 2025 17:00:16 GMT-0600 (Central Standard Time),233157.7999999998,A,doctorenter,I,enter,275,2,1382.6000000000931,231775.19999999972,8011,WL,C,10.0
2,14.779000043869019,learn,45220.99995613098,Wed Feb 19 2025 17:00:16 GMT-0600 (Central Standard Time),233391.09999999963,A,s,I,s,224,2,232.89999999990687,233158.19999999972,8011,WL,C,11.0
2,14.92799997329712,learn,45072.00002670288,Wed Feb 19 2025 17:00:16 GMT-0600 (Central Standard Time),233541.0,A,sh,I,h,134,2,382.8000000002794,233158.19999999972,8011,WL,C,11.0
2,15.01200008392334,learn,44987.99991607666,Wed Feb 19 2025 17:00:16 GMT-0600 (Central Standard Time),233624.5,A,sho,I,o,72,2,466.3000000002794,233158.19999999972,8011,WL,C,11.0
2,15.128000020980835,learn,44871.999979019165,Wed Feb 19 2025 17:00:16 GMT-0600 (Central Standard Time),233740.8999999999,A,shor,I,r,109,2,582.7000000001863,233158.19999999972,8011,WL,C,11.0
2,15.212000131607056,learn,44787.999868392944,Wed Feb 19 2025 17:00:16 GMT-0600 (Central Standard Time),233824.5,A,shore,I,e,72,2,666.3000000002794,233158.19999999972,8011,WL,C,11.0
2,15.562000036239624,learn,44437.999963760376,Wed Feb 19 2025 17:00:16 GMT-0600 (Central Standard Time),234174.2999999998,A,shoreenter,I,enter,341,2,1016.1000000000931,233158.19999999972,8011,WL,C,11.0
2,16.644999980926514,learn,43355.000019073486,Wed Feb 19 2025 17:00:16 GMT-0600 (Central Standard Time),235257.19999999972,A,f,I,f,1062,2,1082.5,234174.69999999972,8011,WL,C,12.0
2,16.778000116348267,learn,43221.99988365173,Wed Feb 19 2025 17:00:16 GMT-0600 (Central Standard Time),235390.59999999963,A,fl,I,l,124,2,1215.8999999999069,234174.69999999972,8011,WL,C,12.0
2,16.894999980926514,learn,43105.000019073486,Wed Feb 19 2025 17:00:16 GMT-0600 (Central Standard Time),235507.19999999972,A,fla,I,a,111,2,1332.5,234174.69999999972,8011,WL,C,12.0
2,17.111000061035156,learn,42888.999938964844,Wed Feb 19 2025 17:00:16 GMT-0600 (Central Standard Time),235723.7999999998,A,flag,I,g,210,2,1549.1000000000931,234174.69999999972,8011,WL,C,12.0
2,17.51099991798401,learn,42489.00008201599,Wed Feb 19 2025 17:00:16 GMT-0600 (Central Standard Time),236123.59999999963,A,flagenter,I,enter,386,2,1948.8999999999069,234174.69999999972,8011,WL,C,12.0
2,18.91100001335144,learn,41088.99998664856,Wed Feb 19 2025 17:00:16 GMT-0600 (Central Standard Time),237523.09999999963,A,c,I,c,1385,2,1399.0,236124.09999999963,8011,WL,C,13.0
2,18.99399995803833,learn,41006.00004196167,Wed Feb 19 2025 17:00:16 GMT-0600 (Central Standard Time),237606.2999999998,A,ca,I,a,74,2,1482.2000000001863,236124.09999999963,8011,WL,C,13.0
2,19.07699990272522,learn,40923.00009727478,Wed Feb 19 2025 17:00:16 GMT-0600 (Central Standard Time),237689.7999999998,A,cam,I,m,71,2,1565.7000000001863,236124.09999999963,8011,WL,C,13.0
2,19.177000045776367,learn,40822.99995422363,Wed Feb 19 2025 17:00:16 GMT-0600 (Central Standard Time),237789.8999999999,A,camp,I,p,84,2,1665.8000000002794,236124.09999999963,8011,WL,C,13.0
2,19.47699999809265,learn,40523.00000190735,Wed Feb 19 2025 17:00:16 GMT-0600 (Central Standard Time),238089.7999999998,A,campenter,I,enter,294,2,1965.7000000001863,236124.09999999963,8011,WL,C,13.0
2,26.79100012779236,learn,33208.99987220764,Wed Feb 19 2025 17:00:16 GMT-0600 (Central Standard Time),245404.0,A,h,I,h,7300,2,7313.9000000003725,238090.09999999963,8011,WL,C,14.0
2,26.875,learn,33125.0,Wed Feb 19 2025 17:00:16 GMT-0600 (Central Standard Time),245487.3999999999,A,ho,I,o,64,2,7397.300000000279,238090.09999999963,8011,WL,C,14.0
2,27.10800004005432,learn,32891.99995994568,Wed Feb 19 2025 17:00:16 GMT-0600 (Central Standard Time),245720.2999999998,A,hom,I,m,221,2,7630.200000000186,238090.09999999963,8011,WL,C,14.0
2,27.20799994468689,learn,32792.00005531311,Wed Feb 19 2025 17:00:16 GMT-0600 (Central Standard Time),245820.2999999998,A,home,I,e,91,2,7730.200000000186,238090.09999999963,8011,WL,C,14.0
2,27.407999992370605,learn,32592.000007629395,Wed Feb 19 2025 17:00:16 GMT-0600 (Central Standard Time),246020.5,A,homeenter,I,enter,185,2,7930.4000000003725,238090.09999999963,8011,WL,C,14.0
2,38.03800010681152,learn,21961.999893188477,Wed Feb 19 2025 17:00:16 GMT-0600 (Central Standard Time),256650.3999999999,A,b,I,b,10617,2,10629.5,246020.8999999999,8011,WL,C,15.0
2,38.13800001144409,learn,21861.99998855591,Wed Feb 19 2025 17:00:16 GMT-0600 (Central Standard Time),256750.2999999998,A,bo,I,o,81,2,10729.399999999907,246020.8999999999,8011,WL,C,15.0
2,38.38800001144409,learn,21611.99998855591,Wed Feb 19 2025 17:00:16 GMT-0600 (Central Standard Time),257000.3999999999,A,boy,I,y,237,2,10979.5,246020.8999999999,8011,WL,C,15.0
2,38.8050000667572,learn,21194.999933242798,Wed Feb 19 2025 17:00:16 GMT-0600 (Central Standard Time),257417.09999999963,A,bo,I,backspace,395,2,11396.19999999972,246020.8999999999,8011,WL,C,15.0
2,38.88800001144409,learn,21111.99998855591,Wed Feb 19 2025 17:00:16 GMT-0600 (Central Standard Time),257500.19999999972,A,bod,I,d,77,2,11479.299999999814,246020.8999999999,8011,WL,C,15.0
2,39.03800010681152,learn,20961.999893188477,Wed Feb 19 2025 17:00:16 GMT-0600 (Central Standard Time),257650.19999999972,A,body,I,y,129,2,11629.299999999814,246020.8999999999,8011,WL,C,15.0
2,39.38800001144409,learn,20611.99998855591,Wed Feb 19 2025 17:00:16 GMT-0600 (Central Standard Time),258000.09999999963,A,bodyenter,I,enter,331,2,11979.19999999972,246020.8999999999,8011,WL,C,15.0
3,1.0500001907348633,learn,58949.99980926514,Wed Feb 19 2025 17:00:16 GMT-0600 (Central Standard Time),323979.5,A,q,I,q,1044,2,1049.5,322930.0,8011,WL,C,1.0
3,1.2829999923706055,learn,58717.000007629395,Wed Feb 19 2025 17:00:16 GMT-0600 (Central Standard Time),324212.6999999997,A,qu,I,u,215,2,1282.6999999997206,322930.0,8011,WL,C,1.0
3,1.4000000953674316,learn,58599.99990463257,Wed Feb 19 2025 17:00:16 GMT-0600 (Central Standard Time),324329.5999999996,A,que,I,e,104,2,1399.5999999996275,322930.0,8011,WL,C,1.0
3,1.5830001831054688,learn,58416.99981689453,Wed Feb 19 2025 17:00:16 GMT-0600 (Central Standard Time),324512.5999999996,A,quee,I,e,164,2,1582.5999999996275,322930.0,8011,WL,C,1.0
3,1.6500000953674316,learn,58349.99990463257,Wed Feb 19 2025 17:00:16 GMT-0600 (Central Standard Time),324579.2999999998,A,queen,I,n,61,2,1649.2999999998137,322930.0,8011,WL,C,1.0
3,1.933000087738037,learn,58066.99991226196,Wed Feb 19 2025 17:00:16 GMT-0600 (Central Standard Time),324862.5,A,queenenter,I,enter,274,2,1932.5,322930.0,8011,WL,C,1.0
3,2.5490000247955322,learn,57450.99997520447,Wed Feb 19 2025 17:00:16 GMT-0600 (Central Standard Time),325478.7999999998,A,t,I,t,599,2,615.8999999999069,324862.8999999999,8011,WL,C,2.0
3,2.749000072479248,learn,57250.99992752075,Wed Feb 19 2025 17:00:16 GMT-0600 (Central Standard Time),325678.8999999999,A,to,I,o,182,2,816.0,324862.8999999999,8011,WL,C,2.0
3,2.9160001277923584,learn,57083.99987220764,Wed Feb 19 2025 17:00:16 GMT-0600 (Central Standard Time),325845.6999999997,A,tow,I,w,158,2,982.7999999998137,324862.8999999999,8011,WL,C,2.0
3,3.0329999923706055,learn,56967.000007629395,Wed Feb 19 2025 17:00:16 GMT-0600 (Central Standard Time),325962.1999999997,A,towe,I,e,96,2,1099.2999999998137,324862.8999999999,8011,WL,C,2.0
3,3.2660000324249268,learn,56733.99996757507,Wed Feb 19 2025 17:00:16 GMT-0600 (Central Standard Time),326195.5,A,tower,I,r,227,2,1332.6000000000931,324862.8999999999,8011,WL,C,2.0
3,3.449000120162964,learn,56550.999879837036,Wed Feb 19 2025 17:00:16 GMT-0600 (Central Standard Time),326378.6999999997,A,towerenter,I,enter,170,2,1515.7999999998137,324862.8999999999,8011,WL,C,2.0
3,3.749000072479248,learn,56250.99992752075,Wed Feb 19 2025 17:00:16 GMT-0600 (Central Standard Time),326678.6999999997,A,h,I,h,290,2,299.60000000009313,326379.0999999996,8011,WL,C,3.0
3,3.8320000171661377,learn,56167.99998283386,Wed Feb 19 2025 17:00:16 GMT-0600 (Central Standard Time),326761.8999999999,A,ho,I,o,79,2,382.8000000002794,326379.0999999996,8011,WL,C,3.0
3,4.06600022315979,learn,55933.99977684021,Wed Feb 19 2025 17:00:16 GMT-0600 (Central Standard Time),326995.2999999998,A,hom,I,m,220,2,616.2000000001863,326379.0999999996,8011,WL,C,3.0
3,4.182000160217285,learn,55817.999839782715,Wed Feb 19 2025 17:00:16 GMT-0600 (Central Standard Time),327111.8999999999,A,home,I,e,106,2,732.8000000002794,326379.0999999996,8011,WL,C,3.0
3,4.382000207901001,learn,55617.999792099,Wed Feb 19 2025 17:00:16 GMT-0600 (Central Standard Time),327311.6999999997,A,homeenter,I,enter,181,2,932.6000000000931,326379.0999999996,8011,WL,C,3.0
3,4.5990002155303955,learn,55400.999784469604,Wed Feb 19 2025 17:00:16 GMT-0600 (Central Standard Time),327528.5999999996,A,c,I,c,206,2,216.59999999962747,327312.0,8011,WL,C,4.0
3,4.699000120162964,learn,55300.999879837036,Wed Feb 19 2025 17:00:16 GMT-0600 (Central Standard Time),327628.3999999999,A,ca,I,a,85,2,316.39999999990687,327312.0,8011,WL,C,4.0
3,4.932000160217285,learn,55067.999839782715,Wed Feb 19 2025 17:00:16 GMT-0600 (Central Standard Time),327861.5,A,cat,I,t,225,2,549.5,327312.0,8011,WL,C,4.0
3,5.082000017166138,learn,54917.99998283386,Wed Feb 19 2025 17:00:16 GMT-0600 (Central Standard Time),328011.7999999998,A,catt,I,t,144,2,699.7999999998137,327312.0,8011,WL,C,4.0
3,5.182000160217285,learn,54817.999839782715,Wed Feb 19 2025 17:00:16 GMT-0600 (Central Standard Time),328111.6999999997,A,cattl,I,l,90,2,799.6999999997206,327312.0,8011,WL,C,4.0
3,5.332000017166138,learn,54667.99998283386,Wed Feb 19 2025 17:00:16 GMT-0600 (Central Standard Time),328261.3999999999,A,cattle,I,e,142,2,949.3999999999069,327312.0,8011,WL,C,4.0
3,5.498000144958496,learn,54501.999855041504,Wed Feb 19 2025 17:00:16 GMT-0600 (Central Standard Time),328427.8999999999,A,cattleenter,I,enter,152,2,1115.8999999999069,327312.0,8011,WL,C,4.0
3,5.732000112533569,learn,54267.99988746643,Wed Feb 19 2025 17:00:16 GMT-0600 (Central Standard Time),328661.1999999997,A,s,I,s,226,2,232.89999999990687,328428.2999999998,8011,WL,C,5.0
3,5.882000207901001,learn,54117.999792099,Wed Feb 19 2025 17:00:16 GMT-0600 (Central Standard Time),328811.1999999997,A,su,I,u,136,2,382.89999999990687,328428.2999999998,8011,WL,C,5.0
3,5.998000144958496,learn,54001.999855041504,Wed Feb 19 2025 17:00:16 GMT-0600 (Central Standard Time),328927.8999999999,A,sug,I,g,106,2,499.60000000009313,328428.2999999998,8011,WL,C,5.0
3,6.082000017166138,learn,53917.99998283386,Wed Feb 19 2025 17:00:16 GMT-0600 (Central Standard Time),329011.2999999998,A,suga,I,a,77,2,583.0,328428.2999999998,8011,WL,C,5.0
3,6.215000152587891,learn,53784.99984741211,Wed Feb 19 2025 17:00:16 GMT-0600 (Central Standard Time),329144.5999999996,A,sugar,I,r,114,2,716.2999999998137,328428.2999999998,8011,WL,C,5.0
3,6.4150002002716064,learn,53584.99979972839,Wed Feb 19 2025 17:00:16 GMT-0600 (Central Standard Time),329344.5,A,sugarenter,I,enter,181,2,916.2000000001863,328428.2999999998,8011,WL,C,5.0
3,6.5980000495910645,learn,53401.999950408936,Wed Feb 19 2025 17:00:16 GMT-0600 (Central Standard Time),329527.7999999998,A,c,I,c,165,2,183.0,329344.7999999998,8011,WL,C,6.0
3,6.765000104904175,learn,53234.999895095825,Wed Feb 19 2025 17:00:16 GMT-0600 (Central Standard Time),329694.3999999999,A,co,I,o,150,2,349.60000000009313,329344.7999999998,8011,WL,C,6.0
3,6.88100004196167,learn,53118.99995803833,Wed Feb 19 2025 17:00:16 GMT-0600 (Central Standard Time),329810.7999999998,A,cor,I,r,103,2,466.0,329344.7999999998,8011,WL,C,6.0
3,7.015000104904175,learn,52984.999895095825,Wed Feb 19 2025 17:00:16 GMT-0600 (Central Standard Time),329944.1999999997,A,corn,I,n,123,2,599.3999999999069,329344.7999999998,8011,WL,C,6.0
3,7.315000057220459,learn,52684.99994277954,Wed Feb 19 2025 17:00:16 GMT-0600 (Central Standard Time),330244.1999999997,A,cornenter,I,enter,285,2,899.3999999999069,329344.7999999998,8011,WL,C,6.0
3,7.581000089645386,learn,52418.999910354614,Wed Feb 19 2025 17:00:16 GMT-0600 (Central Standard Time),330511.0,A,w,I,w,257,2,266.40000000037253,330244.5999999996,8011,WL,C,7.0
3,7.731000185012817,learn,52268.99981498718,Wed Feb 19 2025 17:00:16 GMT-0600 (Central Standard Time),330660.7999999998,A,wh,I,h,134,2,416.20000000018626,330244.5999999996,8011,WL,C,7.0
3,7.831000089645386,learn,52168.999910354614,Wed Feb 19 2025 17:00:16 GMT-0600 (Central Standard Time),330760.5999999996,A,whe,I,e,89,2,516.0,330244.5999999996,8011,WL,C,7.0
3,7.964000225067139,learn,52035.99977493286,Wed Feb 19 2025 17:00:16 GMT-0600 (Central Standard Time),330893.7999999998,A,whea,I,a,125,2,649.2000000001863,330244.5999999996,8011,WL,C,7.0
3,8.114000082015991,learn,51885.99991798401,Wed Feb 19 2025 17:00:16 GMT-0600 (Central Standard Time),331044.0999999996,A,wheat,I,t,135,2,799.5,330244.5999999996,8011,WL,C,7.0
3,8.281000137329102,learn,51718.9998626709,Wed Feb 19 2025 17:00:16 GMT-0600 (Central Standard Time),331210.2999999998,A,wheatenter,I,enter,161,2,965.7000000001863,330244.5999999996,8011,WL,C,7.0
3,8.598000049591064,learn,51401.999950408936,Wed Feb 19 2025 17:00:16 GMT-0600 (Central Standard Time),331527.0999999996,A,b,I,b,300,2,316.59999999962747,331210.5,8011,WL,C,8.0
3,8.731000185012817,learn,51268.99981498718,Wed Feb 19 2025 17:00:16 GMT-0600 (Central Standard Time),331660.5,A,bo,I,o,126,2,450.0,331210.5,8011,WL,C,8.0
3,9.081000089645386,learn,50918.999910354614,Wed Feb 19 2025 17:00:16 GMT-0600 (Central Standard Time),332010.5,A,boy,I,y,337,2,800.0,331210.5,8011,WL,C,8.0
3,9.481000185012817,learn,50518.99981498718,Wed Feb 19 2025 17:00:16 GMT-0600 (Central Standard Time),332410.0999999996,A,boyenter,I,enter,379,2,1199.5999999996275,331210.5,8011,WL,C,8.0
3,9.831000089645386,learn,50168.999910354614,Wed Feb 19 2025 17:00:16 GMT-0600 (Central Standard Time),332760.1999999997,A,b,I,b,331,2,349.6999999997206,332410.5,8011,WL,C,9.0
3,9.914000034332275,learn,50085.999965667725,Wed Feb 19 2025 17:00:16 GMT-0600 (Central Standard Time),332843.3999999999,A,bo,I,o,69,2,432.89999999990687,332410.5,8011,WL,C,9.0
3,10.047000169754028,learn,49952.99983024597,Wed Feb 19 2025 17:00:16 GMT-0600 (Central Standard Time),332976.7999999998,A,bod,I,d,122,2,566.2999999998137,332410.5,8011,WL,C,9.0
3,10.19700002670288,learn,49802.99997329712,Wed Feb 19 2025 17:00:16 GMT-0600 (Central Standard Time),333126.6999999997,A,body,I,y,141,2,716.1999999997206,332410.5,8011,WL,C,9.0
3,10.514000177383423,learn,49485.99982261658,Wed Feb 19 2025 17:00:16 GMT-0600 (Central Standard Time),333443.1999999997,A,bodyenter,I,enter,303,2,1032.6999999997206,332410.5,8011,WL,C,9.0
3,10.747000217437744,learn,49252.999782562256,Wed Feb 19 2025 17:00:16 GMT-0600 (Central Standard Time),333676.5,A,l,I,l,226,2,233.0,333443.5,8011,WL,C,10.0
3,10.913000106811523,learn,49086.99989318848,Wed Feb 19 2025 17:00:16 GMT-0600 (Central Standard Time),333843.0,A,le,I,e,161,2,399.5,333443.5,8011,WL,C,10.0
3,11.097000122070312,learn,48902.99987792969,Wed Feb 19 2025 17:00:16 GMT-0600 (Central Standard Time),334026.2999999998,A,let,I,t,179,2,582.7999999998137,333443.5,8011,WL,C,10.0
3,11.28000020980835,learn,48719.99979019165,Wed Feb 19 2025 17:00:16 GMT-0600 (Central Standard Time),334209.6999999997,A,lett,I,t,163,2,766.1999999997206,333443.5,8011,WL,C,10.0
3,11.380000114440918,learn,48619.99988555908,Wed Feb 19 2025 17:00:16 GMT-0600 (Central Standard Time),334309.7999999998,A,lette,I,e,84,2,866.2999999998137,333443.5,8011,WL,C,10.0
3,11.497000217437744,learn,48502.999782562256,Wed Feb 19 2025 17:00:16 GMT-0600 (Central Standard Time),334426.2999999998,A,letter,I,r,103,2,982.7999999998137,333443.5,8011,WL,C,10.0
3,11.69700002670288,learn,48302.99997329712,Wed Feb 19 2025 17:00:16 GMT-0600 (Central Standard Time),334626.2999999998,A,letterenter,I,enter,179,2,1182.7999999998137,333443.5,8011,WL,C,10.0
3,12.380000114440918,learn,47619.99988555908,Wed Feb 19 2025 17:00:16 GMT-0600 (Central Standard Time),335309.3999999999,A,d,I,d,667,2,682.7000000001863,334626.6999999997,8011,WL,C,11.0
3,12.463000059127808,learn,47536.99994087219,Wed Feb 19 2025 17:00:16 GMT-0600 (Central Standard Time),335392.6999999997,A,do,I,o,72,2,766.0,334626.6999999997,8011,WL,C,11.0
3,12.580000162124634,learn,47419.999837875366,Wed Feb 19 2025 17:00:16 GMT-0600 (Central Standard Time),335509.0999999996,A,doc,I,c,109,2,882.3999999999069,334626.6999999997,8011,WL,C,11.0
3,12.813000202178955,learn,47186.999797821045,Wed Feb 19 2025 17:00:16 GMT-0600 (Central Standard Time),335742.5999999996,A,doct,I,t,215,2,1115.8999999999069,334626.6999999997,8011,WL,C,11.0
3,12.930000066757202,learn,47069.9999332428,Wed Feb 19 2025 17:00:16 GMT-0600 (Central Standard Time),335859.0999999996,A,docto,I,o,103,2,1232.3999999999069,334626.6999999997,8011,WL,C,11.0
3,13.029000043869019,learn,46970.99995613098,Wed Feb 19 2025 17:00:16 GMT-0600 (Central Standard Time),335959.0,A,doctor,I,r,90,2,1332.3000000002794,334626.6999999997,8011,WL,C,11.0
3,13.246000051498413,learn,46753.99994850159,Wed Feb 19 2025 17:00:16 GMT-0600 (Central Standard Time),336175.7999999998,A,doctorenter,I,enter,206,2,1549.1000000000931,334626.6999999997,8011,WL,C,11.0
3,13.413000106811523,learn,46586.99989318848,Wed Feb 19 2025 17:00:16 GMT-0600 (Central Standard Time),336342.5999999996,A,c,I,c,158,2,166.5,336176.0999999996,8011,WL,C,12.0
3,13.496000051498413,learn,46503.99994850159,Wed Feb 19 2025 17:00:16 GMT-0600 (Central Standard Time),336425.5999999996,A,ca,I,a,62,2,249.5,336176.0999999996,8011,WL,C,12.0
3,13.578999996185303,learn,46421.0000038147,Wed Feb 19 2025 17:00:16 GMT-0600 (Central Standard Time),336508.8999999999,A,cam,I,m,68,2,332.8000000002794,336176.0999999996,8011,WL,C,12.0
3,13.713000059127808,learn,46286.99994087219,Wed Feb 19 2025 17:00:16 GMT-0600 (Central Standard Time),336642.2999999998,A,camp,I,p,121,2,466.20000000018626,336176.0999999996,8011,WL,C,12.0
3,14.212000131607056,learn,45787.999868392944,Wed Feb 19 2025 17:00:16 GMT-0600 (Central Standard Time),337142.0,A,campenter,I,enter,491,2,965.9000000003725,336176.0999999996,8011,WL,C,12.0
3,14.562000036239624,learn,45437.999963760376,Wed Feb 19 2025 17:00:16 GMT-0600 (Central Standard Time),337491.8999999999,A,f,I,f,336,2,349.60000000009313,337142.2999999998,8011,WL,C,13.0
3,14.696000099182129,learn,45303.99990081787,Wed Feb 19 2025 17:00:16 GMT-0600 (Central Standard Time),337625.5,A,fl,I,l,122,2,483.20000000018626,337142.2999999998,8011,WL,C,13.0
3,14.828999996185303,learn,45171.0000038147,Wed Feb 19 2025 17:00:16 GMT-0600 (Central Standard Time),337758.6999999997,A,fla,I,a,124,2,616.3999999999069,337142.2999999998,8011,WL,C,13.0
3,15.09600019454956,learn,44903.99980545044,Wed Feb 19 2025 17:00:16 GMT-0600 (Central Standard Time),338025.0999999996,A,flag,I,g,246,2,882.7999999998137,337142.2999999998,8011,WL,C,13.0
3,15.495000123977661,learn,44504.99987602234,Wed Feb 19 2025 17:00:16 GMT-0600 (Central Standard Time),338424.8999999999,A,flagenter,I,enter,380,2,1282.6000000000931,337142.2999999998,8011,WL,C,13.0
3,16.328999996185303,learn,43671.0000038147,Wed Feb 19 2025 17:00:16 GMT-0600 (Central Standard Time),339258.0999999996,A,s,I,s,820,2,832.8999999999069,338425.1999999997,8011,WL,C,14.0
3,16.42900013923645,learn,43570.99986076355,Wed Feb 19 2025 17:00:16 GMT-0600 (Central Standard Time),339358.1999999997,A,sh,I,h,91,2,933.0,338425.1999999997,8011,WL,C,14.0
3,16.528000116348267,learn,43471.99988365173,Wed Feb 19 2025 17:00:16 GMT-0600 (Central Standard Time),339458.0,A,sho,I,o,79,2,1032.8000000002794,338425.1999999997,8011,WL,C,14.0
3,16.645000219345093,learn,43354.99978065491,Wed Feb 19 2025 17:00:16 GMT-0600 (Central Standard Time),339574.5999999996,A,shor,I,r,100,2,1149.3999999999069,338425.1999999997,8011,WL,C,14.0
3,16.878000020980835,learn,43121.999979019165,Wed Feb 19 2025 17:00:16 GMT-0600 (Central Standard Time),339807.8999999999,A,shore,I,e,215,2,1382.7000000001863,338425.1999999997,8011,WL,C,14.0
3,17.09500002861023,learn,42904.99997138977,Wed Feb 19 2025 17:00:16 GMT-0600 (Central Standard Time),340024.5999999996,A,shoreenter,I,enter,206,2,1599.3999999999069,338425.1999999997,8011,WL,C,14.0
3,17.76200008392334,learn,42237.99991607666,Wed Feb 19 2025 17:00:16 GMT-0600 (Central Standard Time),340692.0999999996,A,l,I,l,661,2,667.0999999996275,340025.0,8011,WL,C,15.0
3,17.961000204086304,learn,42038.999795913696,Wed Feb 19 2025 17:00:16 GMT-0600 (Central Standard Time),340890.6999999997,A,le,I,e,193,2,865.6999999997206,340025.0,8011,WL,C,15.0
3,19.211000204086304,learn,40788.999795913696,Wed Feb 19 2025 17:00:16 GMT-0600 (Central Standard Time),342140.5,A,let,I,t,1235,2,2115.5,340025.0,8011,WL,C,15.0
3,19.39400005340576,learn,40605.99994659424,Wed Feb 19 2025 17:00:16 GMT-0600 (Central Standard Time),342323.7999999998,A,lett,I,t,177,2,2298.7999999998137,340025.0,8011,WL,C,15.0
3,19.511000156402588,learn,40488.99984359741,Wed Feb 19 2025 17:00:16 GMT-0600 (Central Standard Time),342440.5,A,lette,I,e,106,2,2415.5,340025.0,8011,WL,C,15.0
3,19.677000045776367,learn,40322.99995422363,Wed Feb 19 2025 17:00:16 GMT-0600 (Central Standard Time),342607.0,A,letter,I,r,149,2,2582.0,340025.0,8011,WL,C,15.0
3,19.91100001335144,learn,40088.99998664856,Wed Feb 19 2025 17:00:16 GMT-0600 (Central Standard Time),342840.3999999999,A,letterenter,I,enter,215,2,2815.399999999907,340025.0,8011,WL,C,15.0
4,1.1160001754760742,learn,58883.999824523926,Wed Feb 19 2025 17:00:16 GMT-0600 (Central Standard Time),408253.0,A,q,I,q,1108,2,1116.1000000000931,407136.8999999999,8011,WL,C,1.0
4,1.2829999923706055,learn,58717.000007629395,Wed Feb 19 2025 17:00:16 GMT-0600 (Central Standard Time),408419.5,A,qu,I,u,159,2,1282.6000000000931,407136.8999999999,8011,WL,C,1.0
4,1.4160001277923584,learn,58583.99987220764,Wed Feb 19 2025 17:00:16 GMT-0600 (Central Standard Time),408553.0,A,que,I,e,113,2,1416.1000000000931,407136.8999999999,8011,WL,C,1.0
4,1.565999984741211,learn,58434.00001525879,Wed Feb 19 2025 17:00:16 GMT-0600 (Central Standard Time),408702.8999999999,A,quee,I,e,132,2,1566.0,407136.8999999999,8011,WL,C,1.0
4,1.6660001277923584,learn,58333.99987220764,Wed Feb 19 2025 17:00:16 GMT-0600 (Central Standard Time),408802.8999999999,A,queen,I,n,86,2,1666.0,407136.8999999999,8011,WL,C,1.0
4,1.9160001277923584,learn,58083.99987220764,Wed Feb 19 2025 17:00:16 GMT-0600 (Central Standard Time),409052.7999999998,A,queenenter,I,enter,242,2,1915.8999999999069,407136.8999999999,8011,WL,C,1.0
4,2.249000072479248,learn,57750.99992752075,Wed Feb 19 2025 17:00:16 GMT-0600 (Central Standard Time),409385.8999999999,A,t,I,t,312,2,332.8000000002794,409053.0999999996,8011,WL,C,2.0
4,2.3489999771118164,learn,57651.00002288818,Wed Feb 19 2025 17:00:16 GMT-0600 (Central Standard Time),409485.8999999999,A,to,I,o,91,2,432.8000000002794,409053.0999999996,8011,WL,C,2.0
4,2.5329999923706055,learn,57467.000007629395,Wed Feb 19 2025 17:00:16 GMT-0600 (Central Standard Time),409669.2999999998,A,tow,I,w,167,2,616.2000000001863,409053.0999999996,8011,WL,C,2.0
4,2.5989999771118164,learn,57401.00002288818,Wed Feb 19 2025 17:00:16 GMT-0600 (Central Standard Time),409736.0,A,towe,I,e,47,2,682.9000000003725,409053.0999999996,8011,WL,C,2.0
4,3.0160000324249268,learn,56983.99996757507,Wed Feb 19 2025 17:00:16 GMT-0600 (Central Standard Time),410152.3999999999,A,tower,I,r,397,2,1099.3000000002794,409053.0999999996,8011,WL,C,2.0
4,3.249000072479248,learn,56750.99992752075,Wed Feb 19 2025 17:00:16 GMT-0600 (Central Standard Time),410385.6999999997,A,towerenter,I,enter,212,2,1332.6000000000931,409053.0999999996,8011,WL,C,2.0
4,3.6490001678466797,learn,56350.99983215332,Wed Feb 19 2025 17:00:16 GMT-0600 (Central Standard Time),410785.5999999996,A,w,I,w,379,2,399.59999999962747,410386.0,8011,WL,C,3.0
4,3.815999984741211,learn,56184.00001525879,Wed Feb 19 2025 17:00:16 GMT-0600 (Central Standard Time),410952.0,A,wh,I,h,155,2,566.0,410386.0,8011,WL,C,3.0
4,3.949000120162964,learn,56050.999879837036,Wed Feb 19 2025 17:00:16 GMT-0600 (Central Standard Time),411085.5,A,wha,I,a,116,2,699.5,410386.0,8011,WL,C,3.0
4,4.482000112533569,learn,55517.99988746643,Wed Feb 19 2025 17:00:16 GMT-0600 (Central Standard Time),411618.7999999998,A,whae,I,e,518,2,1232.7999999998137,410386.0,8011,WL,C,3.0
4,4.748000144958496,learn,55251.999855041504,Wed Feb 19 2025 17:00:16 GMT-0600 (Central Standard Time),411885.0999999996,A,wha,I,backspace,258,2,1499.0999999996275,410386.0,8011,WL,C,3.0
4,4.882000207901001,learn,55117.999792099,Wed Feb 19 2025 17:00:16 GMT-0600 (Central Standard Time),412018.5,A,wh,I,backspace,127,2,1632.5,410386.0,8011,WL,C,3.0
4,4.965000152587891,learn,55034.99984741211,Wed Feb 19 2025 17:00:16 GMT-0600 (Central Standard Time),412101.6999999997,A,whe,I,e,66,2,1715.6999999997206,410386.0,8011,WL,C,3.0
4,5.0980000495910645,learn,54901.999950408936,Wed Feb 19 2025 17:00:16 GMT-0600 (Central Standard Time),412235.0,A,whea,I,a,128,2,1849.0,410386.0,8011,WL,C,3.0
4,5.198000192642212,learn,54801.99980735779,Wed Feb 19 2025 17:00:16 GMT-0600 (Central Standard Time),412335.0,A,wheat,I,t,82,2,1949.0,410386.0,8011,WL,C,3.0
4,5.365000009536743,learn,54634.99999046326,Wed Feb 19 2025 17:00:16 GMT-0600 (Central Standard Time),412501.5999999996,A,wheatenter,I,enter,157,2,2115.5999999996275,410386.0,8011,WL,C,3.0
4,5.632000207901001,learn,54367.999792099,Wed Feb 19 2025 17:00:16 GMT-0600 (Central Standard Time),412768.3999999999,A,s,I,s,247,2,266.60000000009313,412501.7999999998,8011,WL,C,4.0
4,5.7820000648498535,learn,54217.99993515015,Wed Feb 19 2025 17:00:16 GMT-0600 (Central Standard Time),412918.1999999997,A,su,I,u,140,2,416.39999999990687,412501.7999999998,8011,WL,C,4.0
4,5.981000185012817,learn,54018.99981498718,Wed Feb 19 2025 17:00:16 GMT-0600 (Central Standard Time),413118.0999999996,A,sug,I,g,190,2,616.2999999998137,412501.7999999998,8011,WL,C,4.0
4,6.082000017166138,learn,53917.99998283386,Wed Feb 19 2025 17:00:16 GMT-0600 (Central Standard Time),413218.0999999996,A,suga,I,a,95,2,716.2999999998137,412501.7999999998,8011,WL,C,4.0
4,6.198000192642212,learn,53801.99980735779,Wed Feb 19 2025 17:00:16 GMT-0600 (Central Standard Time),413334.8999999999,A,sugar,I,r,98,2,833.1000000000931,412501.7999999998,8011,WL,C,4.0
4,6.4150002002716064,learn,53584.99979972839,Wed Feb 19 2025 17:00:16 GMT-0600 (Central Standard Time),413551.5,A,sugarenter,I,enter,198,2,1049.7000000001863,412501.7999999998,8011,WL,C,4.0
4,6.615000009536743,learn,53384.99999046326,Wed Feb 19 2025 17:00:16 GMT-0600 (Central Standard Time),413751.2999999998,A,c,I,c,188,2,199.5,413551.7999999998,8011,WL,C,5.0
4,6.765000104904175,learn,53234.999895095825,Wed Feb 19 2025 17:00:16 GMT-0600 (Central Standard Time),413901.2999999998,A,co,I,o,142,2,349.5,413551.7999999998,8011,WL,C,5.0
4,6.898000001907349,learn,53101.99999809265,Wed Feb 19 2025 17:00:16 GMT-0600 (Central Standard Time),414034.5,A,cor,I,r,120,2,482.70000000018626,413551.7999999998,8011,WL,C,5.0
4,7.065000057220459,learn,52934.99994277954,Wed Feb 19 2025 17:00:16 GMT-0600 (Central Standard Time),414201.0999999996,A,corn,I,n,155,2,649.2999999998137,413551.7999999998,8011,WL,C,5.0
4,7.364000082015991,learn,52635.99991798401,Wed Feb 19 2025 17:00:16 GMT-0600 (Central Standard Time),414501.0999999996,A,cornenter,I,enter,284,2,949.2999999998137,413551.7999999998,8011,WL,C,5.0
4,7.498000144958496,learn,52501.999855041504,Wed Feb 19 2025 17:00:16 GMT-0600 (Central Standard Time),414634.3999999999,A,c,I,c,127,2,133.0,414501.3999999999,8011,WL,C,6.0
4,7.564000129699707,learn,52435.99987030029,Wed Feb 19 2025 17:00:16 GMT-0600 (Central Standard Time),414701.0,A,ca,I,a,50,2,199.60000000009313,414501.3999999999,8011,WL,C,6.0
4,7.781000137329102,learn,52218.9998626709,Wed Feb 19 2025 17:00:16 GMT-0600 (Central Standard Time),414917.5999999996,A,cat,I,t,200,2,416.1999999997206,414501.3999999999,8011,WL,C,6.0
4,7.914000034332275,learn,52085.999965667725,Wed Feb 19 2025 17:00:16 GMT-0600 (Central Standard Time),415050.8999999999,A,catt,I,t,118,2,549.5,414501.3999999999,8011,WL,C,6.0
4,8.031000137329102,learn,51968.9998626709,Wed Feb 19 2025 17:00:16 GMT-0600 (Central Standard Time),415167.5999999996,A,cattl,I,l,97,2,666.1999999997206,414501.3999999999,8011,WL,C,6.0
4,8.180999994277954,learn,51819.000005722046,Wed Feb 19 2025 17:00:16 GMT-0600 (Central Standard Time),415317.2999999998,A,cattle,I,e,142,2,815.8999999999069,414501.3999999999,8011,WL,C,6.0
4,8.364000082015991,learn,51635.99991798401,Wed Feb 19 2025 17:00:16 GMT-0600 (Central Standard Time),415500.6999999997,A,cattleenter,I,enter,176,2,999.2999999998137,414501.3999999999,8011,WL,C,6.0
4,8.664000034332275,learn,51335.999965667725,Wed Feb 19 2025 17:00:16 GMT-0600 (Central Standard Time),415800.6999999997,A,b,I,b,279,2,299.6999999997206,415501.0,8011,WL,C,7.0
4,8.764000177383423,learn,51235.99982261658,Wed Feb 19 2025 17:00:16 GMT-0600 (Central Standard Time),415900.5999999996,A,bo,I,o,92,2,399.59999999962747,415501.0,8011,WL,C,7.0
4,9.09500002861023,learn,50904.99997138977,Wed Feb 19 2025 17:00:16 GMT-0600 (Central Standard Time),416231.2999999998,A,boy,I,y,320,2,730.2999999998137,415501.0,8011,WL,C,7.0
4,9.480000019073486,learn,50519.999980926514,Wed Feb 19 2025 17:00:16 GMT-0600 (Central Standard Time),416616.8999999999,A,boyenter,I,enter,373,2,1115.8999999999069,415501.0,8011,WL,C,7.0
4,9.764000177383423,learn,50235.99982261658,Wed Feb 19 2025 17:00:16 GMT-0600 (Central Standard Time),416900.2999999998,A,b,I,b,277,2,283.20000000018626,416617.0999999996,8011,WL,C,8.0
4,9.847000122070312,learn,50152.99987792969,Wed Feb 19 2025 17:00:16 GMT-0600 (Central Standard Time),416983.5999999996,A,bo,I,o,64,2,366.5,416617.0999999996,8011,WL,C,8.0
4,9.980000019073486,learn,50019.999980926514,Wed Feb 19 2025 17:00:16 GMT-0600 (Central Standard Time),417116.8999999999,A,bod,I,d,117,2,499.8000000002794,416617.0999999996,8011,WL,C,8.0
4,10.163000106811523,learn,49836.99989318848,Wed Feb 19 2025 17:00:16 GMT-0600 (Central Standard Time),417300.0999999996,A,body,I,y,176,2,683.0,416617.0999999996,8011,WL,C,8.0
4,10.69700002670288,learn,49302.99997329712,Wed Feb 19 2025 17:00:16 GMT-0600 (Central Standard Time),417833.2999999998,A,bodyenter,I,enter,513,2,1216.2000000001863,416617.0999999996,8011,WL,C,8.0
4,10.913000106811523,learn,49086.99989318848,Wed Feb 19 2025 17:00:16 GMT-0600 (Central Standard Time),418049.8999999999,A,l,I,l,204,2,216.3000000002794,417833.5999999996,8011,WL,C,9.0
4,11.080000162124634,learn,48919.999837875366,Wed Feb 19 2025 17:00:16 GMT-0600 (Central Standard Time),418216.5999999996,A,le,I,e,146,2,383.0,417833.5999999996,8011,WL,C,9.0
4,11.330000162124634,learn,48669.999837875366,Wed Feb 19 2025 17:00:16 GMT-0600 (Central Standard Time),418466.5,A,let,I,t,237,2,632.9000000003725,417833.5999999996,8011,WL,C,9.0
4,11.496000051498413,learn,48503.99994850159,Wed Feb 19 2025 17:00:16 GMT-0600 (Central Standard Time),418633.0,A,lett,I,t,146,2,799.4000000003725,417833.5999999996,8011,WL,C,9.0
4,11.61300015449524,learn,48386.99984550476,Wed Feb 19 2025 17:00:16 GMT-0600 (Central Standard Time),418749.5999999996,A,lette,I,e,99,2,916.0,417833.5999999996,8011,WL,C,9.0
4,11.730000019073486,learn,48269.999980926514,Wed Feb 19 2025 17:00:16 GMT-0600 (Central Standard Time),418866.1999999997,A,letter,I,r,102,2,1032.6000000000931,417833.5999999996,8011,WL,C,9.0
4,12.080000162124634,learn,47919.999837875366,Wed Feb 19 2025 17:00:16 GMT-0600 (Central Standard Time),419216.1999999997,A,letterenter,I,enter,338,2,1382.6000000000931,417833.5999999996,8011,WL,C,9.0
4,12.34600019454956,learn,47653.99980545044,Wed Feb 19 2025 17:00:16 GMT-0600 (Central Standard Time),419482.5999999996,A,d,I,d,260,2,266.09999999962747,419216.5,8011,WL,C,10.0
4,12.463000059127808,learn,47536.99994087219,Wed Feb 19 2025 17:00:16 GMT-0600 (Central Standard Time),419599.5999999996,A,do,I,o,106,2,383.09999999962747,419216.5,8011,WL,C,10.0
4,12.563000202178955,learn,47436.999797821045,Wed Feb 19 2025 17:00:16 GMT-0600 (Central Standard Time),419699.2999999998,A,doc,I,c,92,2,482.79999999981374,419216.5,8011,WL,C,10.0
4,12.796000003814697,learn,47203.9999961853,Wed Feb 19 2025 17:00:16 GMT-0600 (Central Standard Time),419932.6999999997,A,doct,I,t,218,2,716.1999999997206,419216.5,8011,WL,C,10.0
4,12.913000106811523,learn,47086.99989318848,Wed Feb 19 2025 17:00:16 GMT-0600 (Central Standard Time),420049.2999999998,A,docto,I,o,95,2,832.7999999998137,419216.5,8011,WL,C,10.0
4,13.013000011444092,learn,46986.99998855591,Wed Feb 19 2025 17:00:16 GMT-0600 (Central Standard Time),420149.2999999998,A,doctor,I,r,84,2,932.7999999998137,419216.5,8011,WL,C,10.0
4,14.046000003814697,learn,45953.9999961853,Wed Feb 19 2025 17:00:16 GMT-0600 (Central Standard Time),421182.1999999997,A,docto,I,backspace,1015,2,1965.6999999997206,419216.5,8011,WL,C,10.0
4,14.644999980926514,learn,45355.000019073486,Wed Feb 19 2025 17:00:16 GMT-0600 (Central Standard Time),421782.0,A,doctor,I,r,583,2,2565.5,419216.5,8011,WL,C,10.0
4,14.84500002861023,learn,45154.99997138977,Wed Feb 19 2025 17:00:16 GMT-0600 (Central Standard Time),421982.0,A,doctorenter,I,enter,182,2,2765.5,419216.5,8011,WL,C,10.0
4,15.045000076293945,learn,44954.999923706055,Wed Feb 19 2025 17:00:16 GMT-0600 (Central Standard Time),422181.7999999998,A,c,I,c,190,2,199.5,421982.2999999998,8011,WL,C,11.0
4,15.129000186920166,learn,44870.999813079834,Wed Feb 19 2025 17:00:16 GMT-0600 (Central Standard Time),422265.0999999996,A,ca,I,a,62,2,282.79999999981374,421982.2999999998,8011,WL,C,11.0
4,15.245000123977661,learn,44754.99987602234,Wed Feb 19 2025 17:00:16 GMT-0600 (Central Standard Time),422381.6999999997,A,cam,I,m,99,2,399.39999999990687,421982.2999999998,8011,WL,C,11.0
4,15.32800006866455,learn,44671.99993133545,Wed Feb 19 2025 17:00:16 GMT-0600 (Central Standard Time),422465.0999999996,A,camp,I,p,71,2,482.79999999981374,421982.2999999998,8011,WL,C,11.0
4,15.946000099182129,learn,44053.99990081787,Wed Feb 19 2025 17:00:16 GMT-0600 (Central Standard Time),423082.7999999998,A,campenter,I,enter,596,2,1100.5,421982.2999999998,8011,WL,C,11.0
4,16.212000131607056,learn,43787.999868392944,Wed Feb 19 2025 17:00:16 GMT-0600 (Central Standard Time),423348.5,A,g,I,g,258,2,265.40000000037253,423083.0999999996,8011,WL,C,12.0
4,16.32800006866455,learn,43671.99993133545,Wed Feb 19 2025 17:00:16 GMT-0600 (Central Standard Time),423464.6999999997,A,gl,I,l,104,2,381.60000000009313,423083.0999999996,8011,WL,C,12.0
4,16.74500012397766,learn,43254.99987602234,Wed Feb 19 2025 17:00:16 GMT-0600 (Central Standard Time),423881.6999999997,A,g,I,backspace,405,2,798.6000000000931,423083.0999999996,8011,WL,C,12.0
4,16.894999980926514,learn,43105.000019073486,Wed Feb 19 2025 17:00:16 GMT-0600 (Central Standard Time),424031.7999999998,A,,I,backspace,132,2,948.7000000001863,423083.0999999996,8011,WL,C,12.0
4,17.062000036239624,learn,42937.999963760376,Wed Feb 19 2025 17:00:16 GMT-0600 (Central Standard Time),424198.1999999997,A,f,I,f,150,2,1115.1000000000931,423083.0999999996,8011,WL,C,12.0
4,17.16200017929077,learn,42837.99982070923,Wed Feb 19 2025 17:00:16 GMT-0600 (Central Standard Time),424298.0999999996,A,fl,I,l,95,2,1215.0,423083.0999999996,8011,WL,C,12.0
4,17.278000116348267,learn,42721.99988365173,Wed Feb 19 2025 17:00:16 GMT-0600 (Central Standard Time),424414.6999999997,A,fla,I,a,108,2,1331.6000000000931,423083.0999999996,8011,WL,C,12.0
4,17.413000106811523,learn,42586.99989318848,Wed Feb 19 2025 17:00:16 GMT-0600 (Central Standard Time),424549.3999999999,A,flag,I,g,119,2,1466.3000000002794,423083.0999999996,8011,WL,C,12.0
4,17.99500012397766,learn,42004.99987602234,Wed Feb 19 2025 17:00:16 GMT-0600 (Central Standard Time),425131.1999999997,A,flagenter,I,enter,568,2,2048.100000000093,423083.0999999996,8011,WL,C,12.0
4,18.17799997329712,learn,41822.00002670288,Wed Feb 19 2025 17:00:16 GMT-0600 (Central Standard Time),425314.5999999996,A,s,I,s,170,2,183.0,425131.5999999996,8011,WL,C,13.0
4,18.34500002861023,learn,41654.99997138977,Wed Feb 19 2025 17:00:16 GMT-0600 (Central Standard Time),425481.1999999997,A,sh,I,h,147,2,349.60000000009313,425131.5999999996,8011,WL,C,13.0
4,18.41100001335144,learn,41588.99998664856,Wed Feb 19 2025 17:00:16 GMT-0600 (Central Standard Time),425547.8999999999,A,sho,I,o,52,2,416.3000000002794,425131.5999999996,8011,WL,C,13.0
4,18.778000116348267,learn,41221.99988365173,Wed Feb 19 2025 17:00:16 GMT-0600 (Central Standard Time),425914.3999999999,A,shor,I,r,345,2,782.8000000002794,425131.5999999996,8011,WL,C,13.0
4,18.861000061035156,learn,41138.999938964844,Wed Feb 19 2025 17:00:16 GMT-0600 (Central Standard Time),425997.7999999998,A,shore,I,e,75,2,866.2000000001863,425131.5999999996,8011,WL,C,13.0
4,19.311000108718872,learn,40688.99989128113,Wed Feb 19 2025 17:00:16 GMT-0600 (Central Standard Time),426447.1999999997,A,shoreenter,I,enter,432,2,1315.6000000000931,425131.5999999996,8011,WL,C,13.0
4,19.961000204086304,learn,40038.999795913696,Wed Feb 19 2025 17:00:16 GMT-0600 (Central Standard Time),427097.5999999996,A,h,I,h,630,2,650.0,426447.5999999996,8011,WL,C,14.0
4,20.011000156402588,learn,39988.99984359741,Wed Feb 19 2025 17:00:16 GMT-0600 (Central Standard Time),427147.1999999997,A,ho,I,o,36,2,699.6000000000931,426447.5999999996,8011,WL,C,14.0
4,20.24400019645691,learn,39755.99980354309,Wed Feb 19 2025 17:00:16 GMT-0600 (Central Standard Time),427380.5999999996,A,hom,I,m,218,2,933.0,426447.5999999996,8011,WL,C,14.0
4,20.344000101089478,learn,39655.99989891052,Wed Feb 19 2025 17:00:16 GMT-0600 (Central Standard Time),427480.3999999999,A,home,I,e,89,2,1032.8000000002794,426447.5999999996,8011,WL,C,14.0
4,20.5770001411438,learn,39422.9998588562,Wed Feb 19 2025 17:00:16 GMT-0600 (Central Standard Time),427713.7999999998,A,homeenter,I,enter,213,2,1266.2000000001863,426447.5999999996,8011,WL,C,14.0
4,29.558000087738037,learn,30441.999912261963,Wed Feb 19 2025 17:00:16 GMT-0600 (Central Standard Time),436694.1999999997,A,n,I,n,8971,2,8980.19999999972,427714.0,8011,WL,C,15.0
4,29.69099998474121,learn,30309.00001525879,Wed Feb 19 2025 17:00:16 GMT-0600 (Central Standard Time),436827.7999999998,A,na,I,a,127,2,9113.799999999814,427714.0,8011,WL,C,15.0
4,29.824000120162964,learn,30175.999879837036,Wed Feb 19 2025 17:00:16 GMT-0600 (Central Standard Time),436961.0999999996,A,nai,I,i,122,2,9247.099999999627,427714.0,8011,WL,C,15.0
4,29.957000017166138,learn,30042.999982833862,Wed Feb 19 2025 17:00:16 GMT-0600 (Central Standard Time),437094.0999999996,A,nail,I,l,116,2,9380.099999999627,427714.0,8011,WL,C,15.0
4,30.257000207901,learn,29742.999792099,Wed Feb 19 2025 17:00:16 GMT-0600 (Central Standard Time),437393.7999999998,A,nailenter,I,enter,287,2,9679.799999999814,427714.0,8011,WL,C,15.0
5,1.0839998722076416,learn,60000.0,Wed Feb 19 2025 17:00:16 GMT-0600 (Central Standard Time),502724.1999999997,A,q,I,q,1070,2,1083.2999999998137,501640.8999999999,8011,WL,C,1.0
5,1.2329998016357422,learn,60000.0,Wed Feb 19 2025 17:00:16 GMT-0600 (Central Standard Time),502873.6999999997,A,qu,I,u,129,2,1232.7999999998137,501640.8999999999,8011,WL,C,1.0
5,1.3489999771118164,learn,60000.0,Wed Feb 19 2025 17:00:16 GMT-0600 (Central Standard Time),502990.1999999997,A,que,I,e,100,2,1349.2999999998137,501640.8999999999,8011,WL,C,1.0
5,1.5,learn,60000.0,Wed Feb 19 2025 17:00:16 GMT-0600 (Central Standard Time),503140.2999999998,A,quee,I,e,135,2,1499.3999999999069,501640.8999999999,8011,WL,C,1.0
5,1.6159999370574951,learn,60000.0,Wed Feb 19 2025 17:00:16 GMT-0600 (Central Standard Time),503256.8999999999,A,queen,I,n,105,2,1616.0,501640.8999999999,8011,WL,C,1.0
5,2.0829999446868896,learn,60000.0,Wed Feb 19 2025 17:00:16 GMT-0600 (Central Standard Time),503723.3999999999,A,queenenter,I,enter,452,2,2082.5,501640.8999999999,8011,WL,C,1.0
5,2.3499999046325684,learn,60000.0,Wed Feb 19 2025 17:00:16 GMT-0600 (Central Standard Time),503990.1999999997,A,h,I,h,250,2,266.60000000009313,503723.5999999996,8011,WL,C,2.0
5,2.432999849319458,learn,60000.0,Wed Feb 19 2025 17:00:16 GMT-0600 (Central Standard Time),504073.2999999998,A,ho,I,o,71,2,349.70000000018626,503723.5999999996,8011,WL,C,2.0
5,2.6489999294281006,learn,60000.0,Wed Feb 19 2025 17:00:16 GMT-0600 (Central Standard Time),504290.0999999996,A,hom,I,m,212,2,566.5,503723.5999999996,8011,WL,C,2.0
5,2.748999834060669,learn,60000.0,Wed Feb 19 2025 17:00:16 GMT-0600 (Central Standard Time),504389.8999999999,A,home,I,e,83,2,666.3000000002794,503723.5999999996,8011,WL,C,2.0
5,3.1489999294281006,learn,60000.0,Wed Feb 19 2025 17:00:16 GMT-0600 (Central Standard Time),504789.7999999998,A,homeenter,I,enter,383,2,1066.2000000001863,503723.5999999996,8011,WL,C,2.0
5,3.382999897003174,learn,60000.0,Wed Feb 19 2025 17:00:16 GMT-0600 (Central Standard Time),505024.0,A,t,I,t,216,2,234.0,504790.0,8011,WL,C,3.0
5,3.4819998741149902,learn,60000.0,Wed Feb 19 2025 17:00:16 GMT-0600 (Central Standard Time),505122.7999999998,A,to,I,o,93,2,332.79999999981374,504790.0,8011,WL,C,3.0
5,3.6659998893737793,learn,60000.0,Wed Feb 19 2025 17:00:16 GMT-0600 (Central Standard Time),505306.3999999999,A,tow,I,w,163,2,516.3999999999069,504790.0,8011,WL,C,3.0
5,3.748999834060669,learn,60000.0,Wed Feb 19 2025 17:00:16 GMT-0600 (Central Standard Time),505389.5,A,towe,I,e,67,2,599.5,504790.0,8011,WL,C,3.0
5,4.048999786376953,learn,60000.0,Wed Feb 19 2025 17:00:16 GMT-0600 (Central Standard Time),505689.3999999999,A,tower,I,r,280,2,899.3999999999069,504790.0,8011,WL,C,3.0
5,4.298999786376953,learn,60000.0,Wed Feb 19 2025 17:00:16 GMT-0600 (Central Standard Time),505939.2999999998,A,towerenter,I,enter,244,2,1149.2999999998137,504790.0,8011,WL,C,3.0
5,4.73199987411499,learn,60000.0,Wed Feb 19 2025 17:00:16 GMT-0600 (Central Standard Time),506372.5,A,s,I,s,426,2,432.8000000002794,505939.6999999997,8011,WL,C,4.0
5,4.881999969482422,learn,60000.0,Wed Feb 19 2025 17:00:16 GMT-0600 (Central Standard Time),506522.5,A,su,I,u,128,2,582.8000000002794,505939.6999999997,8011,WL,C,4.0
5,4.98199987411499,learn,60000.0,Wed Feb 19 2025 17:00:16 GMT-0600 (Central Standard Time),506622.3999999999,A,sug,I,g,83,2,682.7000000001863,505939.6999999997,8011,WL,C,4.0
5,5.06499981880188,learn,60000.0,Wed Feb 19 2025 17:00:16 GMT-0600 (Central Standard Time),506705.6999999997,A,suga,I,a,71,2,766.0,505939.6999999997,8011,WL,C,4.0
5,5.164999961853027,learn,60000.0,Wed Feb 19 2025 17:00:16 GMT-0600 (Central Standard Time),506805.6999999997,A,sugar,I,r,92,2,866.0,505939.6999999997,8011,WL,C,4.0
5,5.347999811172485,learn,60000.0,Wed Feb 19 2025 17:00:16 GMT-0600 (Central Standard Time),506989.0,A,sugarenter,I,enter,176,2,1049.3000000002794,505939.6999999997,8011,WL,C,4.0
5,5.56499981880188,learn,60000.0,Wed Feb 19 2025 17:00:16 GMT-0600 (Central Standard Time),507205.5999999996,A,c,I,c,200,2,216.39999999990687,506989.1999999997,8011,WL,C,5.0
5,5.681999921798706,learn,60000.0,Wed Feb 19 2025 17:00:16 GMT-0600 (Central Standard Time),507322.1999999997,A,co,I,o,112,2,333.0,506989.1999999997,8011,WL,C,5.0
5,5.797999858856201,learn,60000.0,Wed Feb 19 2025 17:00:16 GMT-0600 (Central Standard Time),507439.0999999996,A,cor,I,r,107,2,449.89999999990687,506989.1999999997,8011,WL,C,5.0
5,5.914999961853027,learn,60000.0,Wed Feb 19 2025 17:00:16 GMT-0600 (Central Standard Time),507555.5999999996,A,corn,I,n,110,2,566.3999999999069,506989.1999999997,8011,WL,C,5.0
5,6.197999954223633,learn,60000.0,Wed Feb 19 2025 17:00:16 GMT-0600 (Central Standard Time),507838.7999999998,A,cornenter,I,enter,274,2,849.6000000000931,506989.1999999997,8011,WL,C,5.0
5,6.380999803543091,learn,60000.0,Wed Feb 19 2025 17:00:16 GMT-0600 (Central Standard Time),508021.8999999999,A,c,I,c,167,2,182.89999999990687,507839.0,8011,WL,C,6.0
5,6.447999954223633,learn,60000.0,Wed Feb 19 2025 17:00:16 GMT-0600 (Central Standard Time),508088.6999999997,A,ca,I,a,48,2,249.6999999997206,507839.0,8011,WL,C,6.0
5,6.697999954223633,learn,60000.0,Wed Feb 19 2025 17:00:16 GMT-0600 (Central Standard Time),508338.7999999998,A,cat,I,t,235,2,499.79999999981374,507839.0,8011,WL,C,6.0
5,6.863999843597412,learn,60000.0,Wed Feb 19 2025 17:00:16 GMT-0600 (Central Standard Time),508505.0,A,catt,I,t,147,2,666.0,507839.0,8011,WL,C,6.0
5,7.013999938964844,learn,60000.0,Wed Feb 19 2025 17:00:16 GMT-0600 (Central Standard Time),508655.0999999996,A,cattl,I,l,141,2,816.0999999996275,507839.0,8011,WL,C,6.0
5,7.180999994277954,learn,60000.0,Wed Feb 19 2025 17:00:16 GMT-0600 (Central Standard Time),508821.5999999996,A,cattle,I,e,150,2,982.5999999996275,507839.0,8011,WL,C,6.0
5,7.547999858856201,learn,60000.0,Wed Feb 19 2025 17:00:16 GMT-0600 (Central Standard Time),509188.1999999997,A,cattleenter,I,enter,360,2,1349.1999999997206,507839.0,8011,WL,C,6.0
5,7.880999803543091,learn,60000.0,Wed Feb 19 2025 17:00:16 GMT-0600 (Central Standard Time),509521.6999999997,A,w,I,w,313,2,333.10000000009313,509188.5999999996,8011,WL,C,7.0
5,8.047999858856201,learn,60000.0,Wed Feb 19 2025 17:00:16 GMT-0600 (Central Standard Time),509688.3999999999,A,wh,I,h,148,2,499.8000000002794,509188.5999999996,8011,WL,C,7.0
5,8.146999835968018,learn,60000.0,Wed Feb 19 2025 17:00:16 GMT-0600 (Central Standard Time),509788.0999999996,A,whe,I,e,85,2,599.5,509188.5999999996,8011,WL,C,7.0
5,8.263999938964844,learn,60000.0,Wed Feb 19 2025 17:00:16 GMT-0600 (Central Standard Time),509904.8999999999,A,whea,I,a,105,2,716.3000000002794,509188.5999999996,8011,WL,C,7.0
5,8.430999994277954,learn,60000.0,Wed Feb 19 2025 17:00:16 GMT-0600 (Central Standard Time),510071.3999999999,A,wheat,I,t,157,2,882.8000000002794,509188.5999999996,8011,WL,C,7.0
5,8.644999980926514,learn,60000.0,Wed Feb 19 2025 17:00:16 GMT-0600 (Central Standard Time),510285.3999999999,A,wheatenter,I,enter,209,2,1096.8000000002794,509188.5999999996,8011,WL,C,7.0
5,8.91599988937378,learn,60000.0,Wed Feb 19 2025 17:00:16 GMT-0600 (Central Standard Time),510556.1999999997,A,b,I,b,256,2,270.39999999990687,510285.7999999998,8011,WL,C,8.0
5,9.030999898910522,learn,60000.0,Wed Feb 19 2025 17:00:16 GMT-0600 (Central Standard Time),510671.1999999997,A,bo,I,o,105,2,385.39999999990687,510285.7999999998,8011,WL,C,8.0
5,9.363999843597412,learn,60000.0,Wed Feb 19 2025 17:00:16 GMT-0600 (Central Standard Time),511004.3999999999,A,boy,I,y,326,2,718.6000000000931,510285.7999999998,8011,WL,C,8.0
5,9.746999979019165,learn,60000.0,Wed Feb 19 2025 17:00:16 GMT-0600 (Central Standard Time),511387.6999999997,A,boyenter,I,enter,377,2,1101.8999999999069,510285.7999999998,8011,WL,C,8.0
5,10.063999891281128,learn,60000.0,Wed Feb 19 2025 17:00:16 GMT-0600 (Central Standard Time),511704.1999999997,A,b,I,b,298,2,316.10000000009313,511388.0999999996,8011,WL,C,9.0
5,10.146999835968018,learn,60000.0,Wed Feb 19 2025 17:00:16 GMT-0600 (Central Standard Time),511787.5999999996,A,bo,I,o,69,2,399.5,511388.0999999996,8011,WL,C,9.0
5,10.246999979019165,learn,60000.0,Wed Feb 19 2025 17:00:16 GMT-0600 (Central Standard Time),511887.3999999999,A,bod,I,d,90,2,499.3000000002794,511388.0999999996,8011,WL,C,9.0
5,10.446999788284302,learn,60000.0,Wed Feb 19 2025 17:00:16 GMT-0600 (Central Standard Time),512087.3999999999,A,body,I,y,182,2,699.3000000002794,511388.0999999996,8011,WL,C,9.0
5,10.77999997138977,learn,60000.0,Wed Feb 19 2025 17:00:16 GMT-0600 (Central Standard Time),512420.7999999998,A,bodyenter,I,enter,326,2,1032.7000000001863,511388.0999999996,8011,WL,C,9.0
5,11.04699993133545,learn,60000.0,Wed Feb 19 2025 17:00:16 GMT-0600 (Central Standard Time),512687.3999999999,A,l,I,l,256,2,266.39999999990687,512421.0,8011,WL,C,10.0
5,11.197999954223633,learn,60000.0,Wed Feb 19 2025 17:00:16 GMT-0600 (Central Standard Time),512838.1999999997,A,le,I,e,134,2,417.1999999997206,512421.0,8011,WL,C,10.0
5,11.345999956130981,learn,60000.0,Wed Feb 19 2025 17:00:16 GMT-0600 (Central Standard Time),512986.8999999999,A,let,I,t,143,2,565.8999999999069,512421.0,8011,WL,C,10.0
5,11.52999997138977,learn,60000.0,Wed Feb 19 2025 17:00:16 GMT-0600 (Central Standard Time),513170.3999999999,A,lett,I,t,171,2,749.3999999999069,512421.0,8011,WL,C,10.0
5,11.61299991607666,learn,60000.0,Wed Feb 19 2025 17:00:16 GMT-0600 (Central Standard Time),513253.7999999998,A,lette,I,e,75,2,832.7999999998137,512421.0,8011,WL,C,10.0
5,11.763000011444092,learn,60000.0,Wed Feb 19 2025 17:00:16 GMT-0600 (Central Standard Time),513403.6999999997,A,letter,I,r,136,2,982.6999999997206,512421.0,8011,WL,C,10.0
5,12.013000011444092,learn,60000.0,Wed Feb 19 2025 17:00:16 GMT-0600 (Central Standard Time),513653.6999999997,A,letterenter,I,enter,242,2,1232.6999999997206,512421.0,8011,WL,C,10.0
5,12.245999813079834,learn,60000.0,Wed Feb 19 2025 17:00:16 GMT-0600 (Central Standard Time),513886.8999999999,A,d,I,d,216,2,232.89999999990687,513654.0,8011,WL,C,11.0
5,12.428999900817871,learn,60000.0,Wed Feb 19 2025 17:00:16 GMT-0600 (Central Standard Time),514070.0,A,do,I,o,175,2,416.0,513654.0,8011,WL,C,11.0
5,12.562999963760376,learn,60000.0,Wed Feb 19 2025 17:00:16 GMT-0600 (Central Standard Time),514203.5,A,doc,I,c,128,2,549.5,513654.0,8011,WL,C,11.0
5,12.828999996185303,learn,60000.0,Wed Feb 19 2025 17:00:16 GMT-0600 (Central Standard Time),514470.0,A,doct,I,t,250,2,816.0,513654.0,8011,WL,C,11.0
5,12.94599986076355,learn,60000.0,Wed Feb 19 2025 17:00:16 GMT-0600 (Central Standard Time),514586.5999999996,A,docto,I,o,104,2,932.5999999996275,513654.0,8011,WL,C,11.0
5,13.013000011444092,learn,60000.0,Wed Feb 19 2025 17:00:16 GMT-0600 (Central Standard Time),514653.1999999997,A,doctor,I,r,59,2,999.1999999997206,513654.0,8011,WL,C,11.0
5,13.428999900817871,learn,60000.0,Wed Feb 19 2025 17:00:16 GMT-0600 (Central Standard Time),515069.8999999999,A,doctorenter,I,enter,400,2,1415.8999999999069,513654.0,8011,WL,C,11.0
5,13.562999963760376,learn,60000.0,Wed Feb 19 2025 17:00:16 GMT-0600 (Central Standard Time),515203.2999999998,A,c,I,c,120,2,133.20000000018626,515070.0999999996,8011,WL,C,12.0
5,13.661999940872192,learn,60000.0,Wed Feb 19 2025 17:00:16 GMT-0600 (Central Standard Time),515303.0999999996,A,ca,I,a,90,2,233.0,515070.0999999996,8011,WL,C,12.0
5,13.728999853134155,learn,60000.0,Wed Feb 19 2025 17:00:16 GMT-0600 (Central Standard Time),515369.7999999998,A,cam,I,m,54,2,299.70000000018626,515070.0999999996,8011,WL,C,12.0
5,13.895999908447266,learn,60000.0,Wed Feb 19 2025 17:00:16 GMT-0600 (Central Standard Time),515536.2999999998,A,camp,I,p,148,2,466.20000000018626,515070.0999999996,8011,WL,C,12.0
5,14.544999837875366,learn,60000.0,Wed Feb 19 2025 17:00:16 GMT-0600 (Central Standard Time),516186.0999999996,A,campenter,I,enter,637,2,1116.0,515070.0999999996,8011,WL,C,12.0
5,15.178999900817871,learn,60000.0,Wed Feb 19 2025 17:00:16 GMT-0600 (Central Standard Time),516819.1999999997,A,f,I,f,620,2,632.7999999998137,516186.3999999999,8011,WL,C,13.0
5,15.361999988555908,learn,60000.0,Wed Feb 19 2025 17:00:16 GMT-0600 (Central Standard Time),517002.5,A,fl,I,l,170,2,816.1000000000931,516186.3999999999,8011,WL,C,13.0
5,15.477999925613403,learn,60000.0,Wed Feb 19 2025 17:00:16 GMT-0600 (Central Standard Time),517119.0999999996,A,fla,I,a,107,2,932.6999999997206,516186.3999999999,8011,WL,C,13.0
5,15.661999940872192,learn,60000.0,Wed Feb 19 2025 17:00:16 GMT-0600 (Central Standard Time),517302.2999999998,A,flag,I,g,174,2,1115.8999999999069,516186.3999999999,8011,WL,C,13.0
5,16.027999877929688,learn,60000.0,Wed Feb 19 2025 17:00:16 GMT-0600 (Central Standard Time),517669.0999999996,A,flagenter,I,enter,359,2,1482.6999999997206,516186.3999999999,8011,WL,C,13.0
5,16.244999885559082,learn,60000.0,Wed Feb 19 2025 17:00:16 GMT-0600 (Central Standard Time),517885.6999999997,A,s,I,s,209,2,216.29999999981374,517669.3999999999,8011,WL,C,14.0
5,16.411999940872192,learn,60000.0,Wed Feb 19 2025 17:00:16 GMT-0600 (Central Standard Time),518052.3999999999,A,sh,I,h,160,2,383.0,517669.3999999999,8011,WL,C,14.0
5,16.495999813079834,learn,60000.0,Wed Feb 19 2025 17:00:16 GMT-0600 (Central Standard Time),518136.2999999998,A,sho,I,o,73,2,466.89999999990687,517669.3999999999,8011,WL,C,14.0
5,16.644999980926514,learn,60000.0,Wed Feb 19 2025 17:00:16 GMT-0600 (Central Standard Time),518285.5999999996,A,shor,I,r,141,2,616.1999999997206,517669.3999999999,8011,WL,C,14.0
5,16.777999877929688,learn,60000.0,Wed Feb 19 2025 17:00:16 GMT-0600 (Central Standard Time),518418.8999999999,A,shore,I,e,120,2,749.5,517669.3999999999,8011,WL,C,14.0
5,17.01099991798401,learn,60000.0,Wed Feb 19 2025 17:00:16 GMT-0600 (Central Standard Time),518651.8999999999,A,shoreenter,I,enter,226,2,982.5,517669.3999999999,8011,WL,C,14.0
5,17.378000020980835,learn,60000.0,Wed Feb 19 2025 17:00:16 GMT-0600 (Central Standard Time),519018.5,A,n,I,n,362,2,366.3000000002794,518652.1999999997,8011,WL,C,15.0
5,17.494999885559082,learn,60000.0,Wed Feb 19 2025 17:00:16 GMT-0600 (Central Standard Time),519135.1999999997,A,na,I,a,99,2,483.0,518652.1999999997,8011,WL,C,15.0
5,17.644999980926514,learn,60000.0,Wed Feb 19 2025 17:00:16 GMT-0600 (Central Standard Time),519285.1999999997,A,nai,I,i,143,2,633.0,518652.1999999997,8011,WL,C,15.0
5,17.82799983024597,learn,60000.0,Wed Feb 19 2025 17:00:16 GMT-0600 (Central Standard Time),519468.2999999998,A,nail,I,l,168,2,816.1000000000931,518652.1999999997,8011,WL,C,15.0
5,18.128000020980835,learn,60000.0,Wed Feb 19 2025 17:00:16 GMT-0600 (Central Standard Time),519768.2999999998,A,nailenter,I,enter,289,2,1116.1000000000931,518652.1999999997,8011,WL,C,15.0
6,0.2990000247955322,distr,59700.99997520447,Wed Feb 19 2025 17:00:16 GMT-0600 (Central Standard Time),585398.0999999996,B,h,I,h,291,2,299.0,585099.0999999996,8011,WL,C,1.0
6,0.3989999294281006,distr,59601.0000705719,Wed Feb 19 2025 17:00:16 GMT-0600 (Central Standard Time),585498.0999999996,B,ho,I,o,79,2,399.0,585099.0999999996,8011,WL,C,1.0
6,0.5490000247955322,distr,59450.99997520447,Wed Feb 19 2025 17:00:16 GMT-0600 (Central Standard Time),585647.7999999998,B,hot,I,t,140,2,548.7000000001863,585099.0999999996,8011,WL,C,1.0
6,0.6319999694824219,distr,59368.00003051758,Wed Feb 19 2025 17:00:16 GMT-0600 (Central Standard Time),585730.8999999999,B,hote,I,e,78,2,631.8000000002794,585099.0999999996,8011,WL,C,1.0
6,0.7660000324249268,distr,59233.99996757507,Wed Feb 19 2025 17:00:16 GMT-0600 (Central Standard Time),585864.3999999999,B,hotel,I,l,123,2,765.3000000002794,585099.0999999996,8011,WL,C,1.0
6,1.065999984741211,distr,58934.00001525879,Wed Feb 19 2025 17:00:16 GMT-0600 (Central Standard Time),586164.5,B,hotelenter,I,enter,285,2,1065.4000000003725,585099.0999999996,8011,WL,C,1.0
6,1.4149999618530273,distr,58585.00003814697,Wed Feb 19 2025 17:00:16 GMT-0600 (Central Standard Time),586513.7999999998,B,o,I,o,337,2,349.10000000009313,586164.6999999997,8011,WL,C,2.0
6,1.6150000095367432,distr,58384.99999046326,Wed Feb 19 2025 17:00:16 GMT-0600 (Central Standard Time),586714.1999999997,B,ot,I,t,195,2,549.5,586164.6999999997,8011,WL,C,2.0
6,1.931999921798706,distr,58068.000078201294,Wed Feb 19 2025 17:00:16 GMT-0600 (Central Standard Time),587030.2999999998,B,o,I,backspace,306,2,865.6000000000931,586164.6999999997,8011,WL,C,2.0
6,2.0820000171661377,distr,57917.99998283386,Wed Feb 19 2025 17:00:16 GMT-0600 (Central Standard Time),587180.2999999998,B,,I,backspace,143,2,1015.6000000000931,586164.6999999997,8011,WL,C,2.0
6,2.5980000495910645,distr,57401.999950408936,Wed Feb 19 2025 17:00:16 GMT-0600 (Central Standard Time),587696.8999999999,B,o,I,o,505,2,1532.2000000001863,586164.6999999997,8011,WL,C,2.0
6,3.0149998664855957,distr,56985.000133514404,Wed Feb 19 2025 17:00:16 GMT-0600 (Central Standard Time),588113.5,B,,I,backspace,404,2,1948.8000000002794,586164.6999999997,8011,WL,C,2.0
6,3.2149999141693115,distr,56785.00008583069,Wed Feb 19 2025 17:00:16 GMT-0600 (Central Standard Time),588313.5,B,m,I,m,188,2,2148.8000000002794,586164.6999999997,8011,WL,C,2.0
6,3.3320000171661377,distr,56667.99998283386,Wed Feb 19 2025 17:00:16 GMT-0600 (Central Standard Time),588430.2999999998,B,mo,I,o,108,2,2265.600000000093,586164.6999999997,8011,WL,C,2.0
6,3.447999954223633,distr,56552.00004577637,Wed Feb 19 2025 17:00:16 GMT-0600 (Central Standard Time),588546.7999999998,B,mot,I,t,111,2,2382.100000000093,586164.6999999997,8011,WL,C,2.0
6,3.565000057220459,distr,56434.99994277954,Wed Feb 19 2025 17:00:16 GMT-0600 (Central Standard Time),588663.2999999998,B,moth,I,h,107,2,2498.600000000093,586164.6999999997,8011,WL,C,2.0
6,3.6480000019073486,distr,56351.99999809265,Wed Feb 19 2025 17:00:16 GMT-0600 (Central Standard Time),588746.8999999999,B,mothe,I,e,70,2,2582.2000000001863,586164.6999999997,8011,WL,C,2.0
6,3.7309999465942383,distr,56269.00005340576,Wed Feb 19 2025 17:00:16 GMT-0600 (Central Standard Time),588830.0,B,mother,I,r,75,2,2665.3000000002794,586164.6999999997,8011,WL,C,2.0
6,3.88100004196167,distr,56118.99995803833,Wed Feb 19 2025 17:00:16 GMT-0600 (Central Standard Time),588979.7999999998,B,motherenter,I,enter,143,2,2815.100000000093,586164.6999999997,8011,WL,C,2.0
6,4.398000001907349,distr,55601.99999809265,Wed Feb 19 2025 17:00:16 GMT-0600 (Central Standard Time),589496.5,B,b,I,b,506,2,516.4000000003725,588980.0999999996,8011,WL,C,3.0
6,4.4649999141693115,distr,55535.00008583069,Wed Feb 19 2025 17:00:16 GMT-0600 (Central Standard Time),589563.1999999997,B,ba,I,a,53,2,583.1000000000931,588980.0999999996,8011,WL,C,3.0
6,4.797999858856201,distr,55202.0001411438,Wed Feb 19 2025 17:00:16 GMT-0600 (Central Standard Time),589896.3999999999,B,b,I,backspace,322,2,916.3000000002794,588980.0999999996,8011,WL,C,3.0
6,4.914999961853027,distr,55085.00003814697,Wed Feb 19 2025 17:00:16 GMT-0600 (Central Standard Time),590013.0999999996,B,,I,backspace,109,2,1033.0,588980.0999999996,8011,WL,C,3.0
6,4.980999946594238,distr,55019.00005340576,Wed Feb 19 2025 17:00:16 GMT-0600 (Central Standard Time),590079.7999999998,B,v,I,v,57,2,1099.7000000001863,588980.0999999996,8011,WL,C,3.0
6,5.0309998989105225,distr,54969.00010108948,Wed Feb 19 2025 17:00:16 GMT-0600 (Central Standard Time),590129.5,B,va,I,a,30,2,1149.4000000003725,588980.0999999996,8011,WL,C,3.0
6,5.197999954223633,distr,54802.00004577637,Wed Feb 19 2025 17:00:16 GMT-0600 (Central Standard Time),590296.3999999999,B,val,I,l,148,2,1316.3000000002794,588980.0999999996,8011,WL,C,3.0
6,5.330999851226807,distr,54669.00014877319,Wed Feb 19 2025 17:00:16 GMT-0600 (Central Standard Time),590429.5,B,vall,I,l,117,2,1449.4000000003725,588980.0999999996,8011,WL,C,3.0
6,5.480999946594238,distr,54519.00005340576,Wed Feb 19 2025 17:00:16 GMT-0600 (Central Standard Time),590579.5,B,valle,I,e,136,2,1599.4000000003725,588980.0999999996,8011,WL,C,3.0
6,5.5980000495910645,distr,54401.999950408936,Wed Feb 19 2025 17:00:16 GMT-0600 (Central Standard Time),590696.1999999997,B,valley,I,y,106,2,1716.1000000000931,588980.0999999996,8011,WL,C,3.0
6,5.947000026702881,distr,54052.99997329712,Wed Feb 19 2025 17:00:16 GMT-0600 (Central Standard Time),591046.0999999996,B,valleyenter,I,enter,333,2,2066.0,588980.0999999996,8011,WL,C,3.0
6,7.079999923706055,distr,52920.000076293945,Wed Feb 19 2025 17:00:16 GMT-0600 (Central Standard Time),592179.1999999997,B,b,I,b,1119,2,1132.6000000000931,591046.5999999996,8011,WL,C,4.0
6,7.263000011444092,distr,52736.99998855591,Wed Feb 19 2025 17:00:16 GMT-0600 (Central Standard Time),592362.0999999996,B,bl,I,l,170,2,1315.5,591046.5999999996,8011,WL,C,4.0
6,7.397000074386597,distr,52602.9999256134,Wed Feb 19 2025 17:00:16 GMT-0600 (Central Standard Time),592495.6999999997,B,blu,I,u,115,2,1449.1000000000931,591046.5999999996,8011,WL,C,4.0
6,7.71399998664856,distr,52286.00001335144,Wed Feb 19 2025 17:00:16 GMT-0600 (Central Standard Time),592812.1999999997,B,blue,I,e,310,2,1765.6000000000931,591046.5999999996,8011,WL,C,4.0
6,7.830999851226807,distr,52169.00014877319,Wed Feb 19 2025 17:00:16 GMT-0600 (Central Standard Time),592929.1999999997,B,blueenter,I,enter,105,2,1882.6000000000931,591046.5999999996,8011,WL,C,4.0
6,8.04699993133545,distr,51953.00006866455,Wed Feb 19 2025 17:00:16 GMT-0600 (Central Standard Time),593145.3999999999,B,c,I,c,204,2,215.89999999990687,592929.5,8011,WL,C,5.0
6,8.162999868392944,distr,51837.000131607056,Wed Feb 19 2025 17:00:16 GMT-0600 (Central Standard Time),593262.0999999996,B,ch,I,h,108,2,332.59999999962747,592929.5,8011,WL,C,5.0
6,8.430000066757202,distr,51569.9999332428,Wed Feb 19 2025 17:00:16 GMT-0600 (Central Standard Time),593528.5999999996,B,chr,I,r,247,2,599.0999999996275,592929.5,8011,WL,C,5.0
6,8.596999883651733,distr,51403.00011634827,Wed Feb 19 2025 17:00:16 GMT-0600 (Central Standard Time),593695.1999999997,B,chri,I,i,149,2,765.6999999997206,592929.5,8011,WL,C,5.0
6,8.746000051498413,distr,51253.99994850159,Wed Feb 19 2025 17:00:16 GMT-0600 (Central Standard Time),593845.1999999997,B,chris,I,s,142,2,915.6999999997206,592929.5,8011,WL,C,5.0
6,8.930000066757202,distr,51069.9999332428,Wed Feb 19 2025 17:00:16 GMT-0600 (Central Standard Time),594028.2999999998,B,christ,I,t,176,2,1098.7999999998137,592929.5,8011,WL,C,5.0
6,9.095999956130981,distr,50904.00004386902,Wed Feb 19 2025 17:00:16 GMT-0600 (Central Standard Time),594195.0,B,christm,I,m,153,2,1265.5,592929.5,8011,WL,C,5.0
6,9.230000019073486,distr,50769.999980926514,Wed Feb 19 2025 17:00:16 GMT-0600 (Central Standard Time),594328.2999999998,B,christma,I,a,114,2,1398.7999999998137,592929.5,8011,WL,C,5.0
6,9.312999963760376,distr,50687.000036239624,Wed Feb 19 2025 17:00:16 GMT-0600 (Central Standard Time),594411.7999999998,B,christmas,I,s,69,2,1482.2999999998137,592929.5,8011,WL,C,5.0
6,9.562999963760376,distr,50437.000036239624,Wed Feb 19 2025 17:00:16 GMT-0600 (Central Standard Time),594661.5999999996,B,christmasenter,I,enter,242,2,1732.0999999996275,592929.5,8011,WL,C,5.0
6,9.895999908447266,distr,50104.000091552734,Wed Feb 19 2025 17:00:16 GMT-0600 (Central Standard Time),594994.6999999997,B,m,I,m,328,2,332.79999999981374,594661.8999999999,8011,WL,C,6.0
6,10.013000011444092,distr,49986.99998855591,Wed Feb 19 2025 17:00:16 GMT-0600 (Central Standard Time),595111.3999999999,B,me,I,e,99,2,449.5,594661.8999999999,8011,WL,C,6.0
6,10.128999948501587,distr,49871.00005149841,Wed Feb 19 2025 17:00:16 GMT-0600 (Central Standard Time),595227.8999999999,B,mea,I,a,110,2,566.0,594661.8999999999,8011,WL,C,6.0
6,10.595999956130981,distr,49404.00004386902,Wed Feb 19 2025 17:00:16 GMT-0600 (Central Standard Time),595694.5,B,meat,I,t,450,2,1032.6000000000931,594661.8999999999,8011,WL,C,6.0
6,10.812000036239624,distr,49187.999963760376,Wed Feb 19 2025 17:00:16 GMT-0600 (Central Standard Time),595911.0,B,meatenter,I,enter,206,2,1249.1000000000931,594661.8999999999,8011,WL,C,6.0
6,16.49399995803833,distr,43506.00004196167,Wed Feb 19 2025 17:00:16 GMT-0600 (Central Standard Time),601592.5,B,b,I,b,5670,2,5681.200000000186,595911.2999999998,8011,WL,C,7.0
6,16.694000005722046,distr,43305.999994277954,Wed Feb 19 2025 17:00:16 GMT-0600 (Central Standard Time),601792.5,B,bl,I,l,181,2,5881.200000000186,595911.2999999998,8011,WL,C,7.0
6,16.91100001335144,distr,43088.99998664856,Wed Feb 19 2025 17:00:16 GMT-0600 (Central Standard Time),602009.1999999997,B,blu,I,u,205,2,6097.899999999907,595911.2999999998,8011,WL,C,7.0
6,16.99399995803833,distr,43006.00004196167,Wed Feb 19 2025 17:00:16 GMT-0600 (Central Standard Time),602092.6999999997,B,blue,I,e,76,2,6181.399999999907,595911.2999999998,8011,WL,C,7.0
6,17.24399995803833,distr,42756.00004196167,Wed Feb 19 2025 17:00:16 GMT-0600 (Central Standard Time),602342.5999999996,B,blueenter,I,enter,233,2,6431.299999999814,595911.2999999998,8011,WL,C,7.0
6,18.55999994277954,distr,41440.00005722046,Wed Feb 19 2025 17:00:16 GMT-0600 (Central Standard Time),603658.5999999996,B,b,I,b,1311,2,1315.6999999997206,602342.8999999999,8011,WL,C,8.0
6,18.74399995803833,distr,41256.00004196167,Wed Feb 19 2025 17:00:16 GMT-0600 (Central Standard Time),603842.2999999998,B,bu,I,u,179,2,1499.3999999999069,602342.8999999999,8011,WL,C,8.0
6,18.876999855041504,distr,41123.000144958496,Wed Feb 19 2025 17:00:16 GMT-0600 (Central Standard Time),603975.2999999998,B,but,I,t,115,2,1632.3999999999069,602342.8999999999,8011,WL,C,8.0
6,18.993000030517578,distr,41006.99996948242,Wed Feb 19 2025 17:00:16 GMT-0600 (Central Standard Time),604092.0,B,butt,I,t,110,2,1749.1000000000931,602342.8999999999,8011,WL,C,8.0
6,19.109999895095825,distr,40890.000104904175,Wed Feb 19 2025 17:00:16 GMT-0600 (Central Standard Time),604208.6999999997,B,butte,I,e,97,2,1865.7999999998137,602342.8999999999,8011,WL,C,8.0
6,19.305999994277954,distr,40694.000005722046,Wed Feb 19 2025 17:00:16 GMT-0600 (Central Standard Time),604404.2999999998,B,butter,I,r,191,2,2061.399999999907,602342.8999999999,8011,WL,C,8.0
6,19.526000022888184,distr,40473.99997711182,Wed Feb 19 2025 17:00:16 GMT-0600 (Central Standard Time),604625.0,B,butterenter,I,enter,207,2,2282.100000000093,602342.8999999999,8011,WL,C,8.0
6,29.35699987411499,distr,30643.00012588501,Wed Feb 19 2025 17:00:16 GMT-0600 (Central Standard Time),614455.3999999999,B,b,I,b,9812,2,9830.200000000186,604625.1999999997,8011,WL,C,9.0
6,29.556999921798706,distr,30443.000078201294,Wed Feb 19 2025 17:00:16 GMT-0600 (Central Standard Time),614655.2999999998,B,bu,I,u,189,2,10030.100000000093,604625.1999999997,8011,WL,C,9.0
6,29.624000072479248,distr,30375.999927520752,Wed Feb 19 2025 17:00:16 GMT-0600 (Central Standard Time),614722.2999999998,B,but,I,t,62,2,10097.100000000093,604625.1999999997,8011,WL,C,9.0
6,29.806999921798706,distr,30193.000078201294,Wed Feb 19 2025 17:00:16 GMT-0600 (Central Standard Time),614905.1999999997,B,butt,I,t,171,2,10280.0,604625.1999999997,8011,WL,C,9.0
6,29.889999866485596,distr,30110.000133514404,Wed Feb 19 2025 17:00:16 GMT-0600 (Central Standard Time),614988.6999999997,B,butte,I,e,68,2,10363.5,604625.1999999997,8011,WL,C,9.0
6,30.02300000190735,distr,29976.99999809265,Wed Feb 19 2025 17:00:16 GMT-0600 (Central Standard Time),615122.0999999996,B,butter,I,r,112,2,10496.899999999907,604625.1999999997,8011,WL,C,9.0
6,30.08999991416931,distr,29910.00008583069,Wed Feb 19 2025 17:00:16 GMT-0600 (Central Standard Time),615188.5999999996,B,butterenter,I,enter,59,2,10563.399999999907,604625.1999999997,8011,WL,C,9.0
6,30.322999954223633,distr,29677.000045776367,Wed Feb 19 2025 17:00:16 GMT-0600 (Central Standard Time),615421.7999999998,B,s,I,s,225,2,232.79999999981374,615189.0,8011,WL,C,10.0
6,30.44000005722046,distr,29559.99994277954,Wed Feb 19 2025 17:00:16 GMT-0600 (Central Standard Time),615538.2999999998,B,sk,I,k,112,2,349.29999999981374,615189.0,8011,WL,C,10.0
6,30.622999906539917,distr,29377.000093460083,Wed Feb 19 2025 17:00:16 GMT-0600 (Central Standard Time),615721.8999999999,B,sky,I,y,163,2,532.8999999999069,615189.0,8011,WL,C,10.0
6,30.872999906539917,distr,29127.000093460083,Wed Feb 19 2025 17:00:16 GMT-0600 (Central Standard Time),615971.6999999997,B,skyenter,I,enter,244,2,782.6999999997206,615189.0,8011,WL,C,10.0
6,37.32099986076355,distr,22679.00013923645,Wed Feb 19 2025 17:00:16 GMT-0600 (Central Standard Time),622419.5999999996,B,d,I,d,6434,2,6447.699999999721,615971.8999999999,8011,WL,C,11.0
6,37.47099995613098,distr,22529.00004386902,Wed Feb 19 2025 17:00:16 GMT-0600 (Central Standard Time),622569.5,B,do,I,o,130,2,6597.600000000093,615971.8999999999,8011,WL,C,11.0
6,37.687999963760376,distr,22312.000036239624,Wed Feb 19 2025 17:00:16 GMT-0600 (Central Standard Time),622786.3999999999,B,dol,I,l,204,2,6814.5,615971.8999999999,8011,WL,C,11.0
6,37.83699989318848,distr,22163.000106811523,Wed Feb 19 2025 17:00:16 GMT-0600 (Central Standard Time),622936.0,B,doll,I,l,131,2,6964.100000000093,615971.8999999999,8011,WL,C,11.0
6,37.97099995613098,distr,22029.00004386902,Wed Feb 19 2025 17:00:16 GMT-0600 (Central Standard Time),623069.2999999998,B,dolla,I,a,126,2,7097.399999999907,615971.8999999999,8011,WL,C,11.0
6,38.07099986076355,distr,21929.00013923645,Wed Feb 19 2025 17:00:16 GMT-0600 (Central Standard Time),623169.5,B,dollar,I,r,88,2,7197.600000000093,615971.8999999999,8011,WL,C,11.0
6,38.353999853134155,distr,21646.000146865845,Wed Feb 19 2025 17:00:16 GMT-0600 (Central Standard Time),623452.8999999999,B,dollarenter,I,enter,267,2,7481.0,615971.8999999999,8011,WL,C,11.0
6,45.83500003814697,distr,14164.999961853027,Wed Feb 19 2025 17:00:16 GMT-0600 (Central Standard Time),630933.6999999997,B,enter,I,enter,7465,2,7480.399999999907,623453.2999999998,8011,WL,C,12.0
6,46.35199999809265,distr,13648.000001907349,Wed Feb 19 2025 17:00:16 GMT-0600 (Central Standard Time),631450.2999999998,B,enter,I,enter,496,2,516.2999999998137,630934.0,8011,WL,C,13.0
6,46.568000078201294,distr,13431.999921798706,Wed Feb 19 2025 17:00:16 GMT-0600 (Central Standard Time),631666.7999999998,B,enter,I,enter,203,2,216.10000000009313,631450.6999999997,8011,WL,C,14.0
6,46.78499984741211,distr,13215.00015258789,Wed Feb 19 2025 17:00:16 GMT-0600 (Central Standard Time),631883.2999999998,B,enter,I,enter,203,2,216.20000000018626,631667.0999999996,8011,WL,C,15.0
7,0.46700000762939453,immed,59532.999992370605,Wed Feb 19 2025 17:00:16 GMT-0600 (Central Standard Time),639264.5,A,t,I,t,456,2,466.3000000002794,638798.1999999997,8011,WL,C,1.0
7,0.5830001831054688,immed,59416.99981689453,Wed Feb 19 2025 17:00:16 GMT-0600 (Central Standard Time),639381.1999999997,A,to,I,o,101,2,583.0,638798.1999999997,8011,WL,C,1.0
7,0.7330000400543213,immed,59266.99995994568,Wed Feb 19 2025 17:00:16 GMT-0600 (Central Standard Time),639530.6999999997,A,tow,I,w,144,2,732.5,638798.1999999997,8011,WL,C,1.0
7,0.8500001430511475,immed,59149.99985694885,Wed Feb 19 2025 17:00:16 GMT-0600 (Central Standard Time),639647.5,A,towe,I,e,99,2,849.3000000002794,638798.1999999997,8011,WL,C,1.0
7,1.4660000801086426,immed,58533.99991989136,Wed Feb 19 2025 17:00:16 GMT-0600 (Central Standard Time),640264.0,A,tower,I,r,606,2,1465.8000000002794,638798.1999999997,8011,WL,C,1.0
7,1.7330000400543213,immed,58266.99995994568,Wed Feb 19 2025 17:00:16 GMT-0600 (Central Standard Time),640530.7999999998,A,towerenter,I,enter,253,2,1732.6000000000931,638798.1999999997,8011,WL,C,1.0
7,1.999000072479248,immed,58000.99992752075,Wed Feb 19 2025 17:00:16 GMT-0600 (Central Standard Time),640797.0999999996,A,m,I,m,251,2,265.89999999990687,640531.1999999997,8011,WL,C,2.0
7,2.133000135421753,immed,57866.99986457825,Wed Feb 19 2025 17:00:16 GMT-0600 (Central Standard Time),640930.6999999997,A,mo,I,o,112,2,399.5,640531.1999999997,8011,WL,C,2.0
7,2.1660001277923584,immed,57833.99987220764,Wed Feb 19 2025 17:00:16 GMT-0600 (Central Standard Time),640963.7999999998,A,mot,I,t,27,2,432.60000000009313,640531.1999999997,8011,WL,C,2.0
7,2.5500001907348633,immed,57449.99980926514,Wed Feb 19 2025 17:00:16 GMT-0600 (Central Standard Time),641347.1999999997,A,moth,I,h,370,2,816.0,640531.1999999997,8011,WL,C,2.0
7,2.700000047683716,immed,57299.999952316284,Wed Feb 19 2025 17:00:16 GMT-0600 (Central Standard Time),641498.1999999997,A,mothe,I,e,146,2,967.0,640531.1999999997,8011,WL,C,2.0
7,2.7990000247955322,immed,57200.99997520447,Wed Feb 19 2025 17:00:16 GMT-0600 (Central Standard Time),641597.0,A,mother,I,r,83,2,1065.8000000002794,640531.1999999997,8011,WL,C,2.0
7,3.315999984741211,immed,56684.00001525879,Wed Feb 19 2025 17:00:16 GMT-0600 (Central Standard Time),642113.5,A,motherenter,I,enter,504,2,1582.3000000002794,640531.1999999997,8011,WL,C,2.0
7,3.5820000171661377,immed,56417.99998283386,Wed Feb 19 2025 17:00:16 GMT-0600 (Central Standard Time),642380.0999999996,A,h,I,h,252,2,266.29999999981374,642113.7999999998,8011,WL,C,3.0
7,3.633000135421753,immed,56366.99986457825,Wed Feb 19 2025 17:00:16 GMT-0600 (Central Standard Time),642430.3999999999,A,ho,I,o,41,2,316.60000000009313,642113.7999999998,8011,WL,C,3.0
7,3.8489999771118164,immed,56151.00002288818,Wed Feb 19 2025 17:00:16 GMT-0600 (Central Standard Time),642646.6999999997,A,hom,I,m,199,2,532.8999999999069,642113.7999999998,8011,WL,C,3.0
7,3.932000160217285,immed,56067.999839782715,Wed Feb 19 2025 17:00:16 GMT-0600 (Central Standard Time),642729.7999999998,A,home,I,e,63,2,616.0,642113.7999999998,8011,WL,C,3.0
7,4.249000072479248,immed,55750.99992752075,Wed Feb 19 2025 17:00:16 GMT-0600 (Central Standard Time),643046.6999999997,A,homeenter,I,enter,308,2,932.8999999999069,642113.7999999998,8011,WL,C,3.0
7,4.499000072479248,immed,55500.99992752075,Wed Feb 19 2025 17:00:16 GMT-0600 (Central Standard Time),643296.2999999998,A,n,I,n,239,2,249.20000000018626,643047.0999999996,8011,WL,C,4.0
7,4.615000009536743,immed,55384.99999046326,Wed Feb 19 2025 17:00:16 GMT-0600 (Central Standard Time),643413.1999999997,A,na,I,a,109,2,366.10000000009313,643047.0999999996,8011,WL,C,4.0
7,4.7820000648498535,immed,55217.99993515015,Wed Feb 19 2025 17:00:16 GMT-0600 (Central Standard Time),643579.7999999998,A,nas,I,s,160,2,532.7000000001863,643047.0999999996,8011,WL,C,4.0
7,4.982000112533569,immed,55017.99988746643,Wed Feb 19 2025 17:00:16 GMT-0600 (Central Standard Time),643779.5999999996,A,nasi,I,i,194,2,732.5,643047.0999999996,8011,WL,C,4.0
7,5.232000112533569,immed,54767.99988746643,Wed Feb 19 2025 17:00:16 GMT-0600 (Central Standard Time),644029.5,A,nas,I,backspace,234,2,982.4000000003725,643047.0999999996,8011,WL,C,4.0
7,5.365000009536743,immed,54634.99999046326,Wed Feb 19 2025 17:00:16 GMT-0600 (Central Standard Time),644162.7999999998,A,na,I,backspace,120,2,1115.7000000001863,643047.0999999996,8011,WL,C,4.0
