acc_sum,block,block_c,change,condition,correct,correct_response,datetime,endtime,face,project,response,response_time,row_sel,session_number,start_end,starttime,subject_id,task,task_vers,trial
0,prac,1,,1-Back,,,Thu Apr 10 2025 17:53:01 GMT-0500 (Central Daylight Time),,012_o_f_d_a.png,O,space,3119,1,1,,,7109,VNB,C,0
1,prac,1,0.0,1-Back,1,m,Thu Apr 10 2025 17:53:01 GMT-0500 (Central Daylight Time),127191.79999999981,022_y_f_n_a.png,O,m,1040,2,1,1922.7999999998137,125269.0,7109,VNB,C,1
1,prac,1,0.0,1-Back,0,m,Thu Apr 10 2025 17:53:01 GMT-0500 (Central Daylight Time),129607.70000000019,014_m_m_h_a.png,O,z,1549,3,1,2405.600000000093,127202.1000000001,7109,VNB,C,2
1,prac,1,0.0,1-Back,0,m,Thu Apr 10 2025 17:53:01 GMT-0500 (Central Daylight Time),132506.7000000002,025_y_m_d_a.png,O,None,2010,4,1,2894.7000000001863,129612.0,7109,VNB,C,3
1,prac,1,0.0,1-Back,0,m,Thu Apr 10 2025 17:53:01 GMT-0500 (Central Daylight Time),135388.7999999998,012_o_f_n_a.png,O,None,2004,5,1,2873.0,132515.7999999998,7109,VNB,C,4
2,prac,1,1.0,1-Back,1,z,Thu Apr 10 2025 17:53:01 GMT-0500 (Central Daylight Time),137703.7000000002,025_y_m_n_a.png,O,z,1448,6,1,2306.100000000093,135397.6000000001,7109,VNB,C,5
2,prac,1,0.0,1-Back,0,m,Thu Apr 10 2025 17:53:01 GMT-0500 (Central Daylight Time),140588.8999999999,015_o_m_h_a.png,O,None,2012,7,1,2876.100000000093,137712.7999999998,7109,VNB,C,6
3,prac,1,0.0,1-Back,1,m,Thu Apr 10 2025 17:53:01 GMT-0500 (Central Daylight Time),142423.5,019_m_f_d_a.png,O,m,952,8,1,1825.0,140598.5,7109,VNB,C,7
4,prac,1,1.0,1-Back,1,z,Thu Apr 10 2025 17:53:01 GMT-0500 (Central Daylight Time),144402.5,022_y_f_d_a.png,O,z,1081,9,1,1966.2999999998137,142436.2000000002,7109,VNB,C,8
5,prac,1,0.0,1-Back,1,m,Thu Apr 10 2025 17:53:01 GMT-0500 (Central Daylight Time),146118.0,014_m_m_n_a.png,O,m,828,10,1,1705.2000000001863,144412.7999999998,7109,VNB,C,9
6,prac,1,0.0,1-Back,1,m,Thu Apr 10 2025 17:53:01 GMT-0500 (Central Daylight Time),148252.1000000001,012_o_f_h_a.png,O,m,1243,11,1,2123.899999999907,146128.2000000002,7109,VNB,C,10
6,prac,1,0.0,1-Back,0,m,Thu Apr 10 2025 17:53:01 GMT-0500 (Central Daylight Time),149983.5,025_y_m_d_a.png,O,z,854,12,1,1720.3999999999069,148263.1000000001,7109,VNB,C,11
0,prac,2,0.0,1-Back,,,Thu Apr 10 2025 17:53:01 GMT-0500 (Central Daylight Time),149983.5,012_o_f_d_a.png,O,a,4631,1,1,1720.3999999999069,148263.1000000001,7109,VNB,C,0
1,prac,2,0.0,1-Back,1,m,Thu Apr 10 2025 17:53:01 GMT-0500 (Central Daylight Time),159431.1000000001,022_y_f_n_a.png,O,m,872,2,1,1754.2000000001863,157676.8999999999,7109,VNB,C,1
2,prac,2,0.0,1-Back,1,m,Thu Apr 10 2025 17:53:01 GMT-0500 (Central Daylight Time),161246.3999999999,014_m_m_h_a.png,O,m,945,3,1,1806.0,159440.3999999999,7109,VNB,C,2
3,prac,2,0.0,1-Back,1,m,Thu Apr 10 2025 17:53:01 GMT-0500 (Central Daylight Time),162962.7999999998,025_y_m_d_a.png,O,m,929,4,1,1705.5999999996275,161257.2000000002,7109,VNB,C,3
4,prac,2,0.0,1-Back,1,m,Thu Apr 10 2025 17:53:01 GMT-0500 (Central Daylight Time),164580.2000000002,012_o_f_n_a.png,O,m,744,5,1,1607.3000000002794,162972.8999999999,7109,VNB,C,4
5,prac,2,1.0,1-Back,1,z,Thu Apr 10 2025 17:53:01 GMT-0500 (Central Daylight Time),166329.3999999999,025_y_m_n_a.png,O,z,872,6,1,1741.1999999997206,164588.2000000002,7109,VNB,C,5
6,prac,2,0.0,1-Back,1,m,Thu Apr 10 2025 17:53:01 GMT-0500 (Central Daylight Time),168011.6000000001,015_o_m_h_a.png,O,m,776,7,1,1672.6000000000931,166339.0,7109,VNB,C,6
7,prac,2,0.0,1-Back,1,m,Thu Apr 10 2025 17:53:01 GMT-0500 (Central Daylight Time),169926.8999999999,019_m_f_d_a.png,O,m,1011,8,1,1903.2999999998137,168023.6000000001,7109,VNB,C,7
8,prac,2,1.0,1-Back,1,z,Thu Apr 10 2025 17:53:01 GMT-0500 (Central Daylight Time),171761.2999999998,022_y_f_d_a.png,O,z,933,9,1,1824.0999999996275,169937.2000000002,7109,VNB,C,8
9,prac,2,0.0,1-Back,1,m,Thu Apr 10 2025 17:53:01 GMT-0500 (Central Daylight Time),173477.6000000001,014_m_m_n_a.png,O,m,833,10,1,1699.8999999999069,171777.7000000002,7109,VNB,C,9
10,prac,2,0.0,1-Back,1,m,Thu Apr 10 2025 17:53:01 GMT-0500 (Central Daylight Time),175143.2000000002,012_o_f_h_a.png,O,m,773,11,1,1655.3000000002794,173487.8999999999,7109,VNB,C,10
11,prac,2,0.0,1-Back,1,m,Thu Apr 10 2025 17:53:01 GMT-0500 (Central Daylight Time),176975.8999999999,025_y_m_d_a.png,O,m,959,12,1,1824.0,175151.8999999999,7109,VNB,C,11
0,test,1,0.0,1-Back,,,Thu Apr 10 2025 17:53:01 GMT-0500 (Central Daylight Time),176975.8999999999,022_y_f_d_a.png,O,space,6458,1,1,1824.0,175151.8999999999,7109,VNB,C,0
1,test,1,0.0,1-Back,1,m,Thu Apr 10 2025 17:53:01 GMT-0500 (Central Daylight Time),191503.7000000002,019_m_f_n_a.png,O,m,931,2,1,1938.3000000002794,189565.3999999999,7109,VNB,C,1
2,test,1,0.0,1-Back,1,m,Thu Apr 10 2025 17:53:01 GMT-0500 (Central Daylight Time),193335.8999999999,015_o_m_h_a.png,O,m,812,3,1,1824.8999999999069,191511.0,7109,VNB,C,2
3,test,1,1.0,1-Back,1,z,Thu Apr 10 2025 17:53:01 GMT-0500 (Central Daylight Time),195186.3999999999,014_m_m_h_a.png,O,z,819,4,1,1842.7999999998137,193343.6000000001,7109,VNB,C,3
4,test,1,0.0,1-Back,1,m,Thu Apr 10 2025 17:53:01 GMT-0500 (Central Daylight Time),196851.8999999999,012_o_f_n_a.png,O,m,639,5,1,1656.6000000000931,195195.2999999998,7109,VNB,C,4
5,test,1,0.0,1-Back,1,m,Thu Apr 10 2025 17:53:01 GMT-0500 (Central Daylight Time),198751.1000000001,025_y_m_d_a.png,O,m,872,6,1,1890.8999999999069,196860.2000000002,7109,VNB,C,5
6,test,1,1.0,1-Back,1,z,Thu Apr 10 2025 17:53:01 GMT-0500 (Central Daylight Time),200551.8999999999,019_m_f_d_a.png,O,z,782,7,1,1793.0,198758.8999999999,7109,VNB,C,6
7,test,1,0.0,1-Back,1,m,Thu Apr 10 2025 17:53:01 GMT-0500 (Central Daylight Time),202234.0,022_y_f_h_a.png,O,m,651,8,1,1673.5,200560.5,7109,VNB,C,7
8,test,1,0.0,1-Back,1,m,Thu Apr 10 2025 17:53:01 GMT-0500 (Central Daylight Time),204666.2999999998,015_o_m_n_a.png,O,m,1400,9,1,2425.0999999996275,202241.2000000002,7109,VNB,C,8
9,test,1,0.0,1-Back,1,m,Thu Apr 10 2025 17:53:01 GMT-0500 (Central Daylight Time),207332.7000000002,025_y_m_h_a.png,O,m,1634,10,1,2661.9000000003725,204670.7999999998,7109,VNB,C,9
10,test,1,0.0,1-Back,1,m,Thu Apr 10 2025 17:53:01 GMT-0500 (Central Daylight Time),209180.7999999998,015_o_m_d_a.png,O,m,821,11,1,1840.2999999998137,207340.5,7109,VNB,C,10
11,test,1,1.0,1-Back,1,z,Thu Apr 10 2025 17:53:01 GMT-0500 (Central Daylight Time),211283.2000000002,012_o_f_d_a.png,O,z,1076,12,1,2092.5,209190.7000000002,7109,VNB,C,11
12,test,1,0.0,1-Back,1,m,Thu Apr 10 2025 17:53:01 GMT-0500 (Central Daylight Time),213015.6000000001,014_m_m_n_a.png,O,m,706,13,1,1724.3000000002794,211291.2999999998,7109,VNB,C,12
13,test,1,1.0,1-Back,1,z,Thu Apr 10 2025 17:53:01 GMT-0500 (Central Daylight Time),214996.6000000001,022_y_f_n_a.png,O,z,957,14,1,1974.0,213022.6000000001,7109,VNB,C,13
14,test,1,0.0,1-Back,1,m,Thu Apr 10 2025 17:53:01 GMT-0500 (Central Daylight Time),216728.3999999999,019_m_f_h_a.png,O,m,710,15,1,1725.3999999999069,215003.0,7109,VNB,C,14
15,test,1,0.0,1-Back,1,m,Thu Apr 10 2025 17:53:01 GMT-0500 (Central Daylight Time),218778.7999999998,014_m_m_d_a.png,O,m,1027,16,1,2042.2999999998137,216736.5,7109,VNB,C,15
16,test,1,0.0,1-Back,1,m,Thu Apr 10 2025 17:53:01 GMT-0500 (Central Daylight Time),220927.6000000001,025_y_m_n_a.png,O,m,1120,17,1,2142.8000000002794,218784.7999999998,7109,VNB,C,16
17,test,1,0.0,1-Back,1,m,Thu Apr 10 2025 17:53:01 GMT-0500 (Central Daylight Time),222693.2999999998,012_o_f_h_a.png,O,m,739,18,1,1757.8999999999069,220935.3999999999,7109,VNB,C,17
0,test,2,0.0,1-Back,,,Thu Apr 10 2025 17:53:01 GMT-0500 (Central Daylight Time),222693.2999999998,025_y_m_n_a.png,O,space,1678,1,1,1757.8999999999069,220935.3999999999,7109,VNB,C,0
1,test,2,0.0,1-Back,1,m,Thu Apr 10 2025 17:53:01 GMT-0500 (Central Daylight Time),228410.8999999999,022_y_f_h_a.png,O,m,985,2,1,2012.8999999999069,226398.0,7109,VNB,C,1
2,test,2,1.0,1-Back,1,m,Thu Apr 10 2025 17:53:01 GMT-0500 (Central Daylight Time),230358.0,015_o_m_n_a.png,O,m,921,3,1,1942.2000000001863,228415.7999999998,7109,VNB,C,2
3,test,2,0.0,1-Back,1,m,Thu Apr 10 2025 17:53:01 GMT-0500 (Central Daylight Time),232041.0,019_m_f_d_a.png,O,m,653,4,1,1675.7000000001863,230365.2999999998,7109,VNB,C,3
4,test,2,0.0,1-Back,1,z,Thu Apr 10 2025 17:53:01 GMT-0500 (Central Daylight Time),233807.0,014_m_m_d_a.png,O,z,738,5,1,1758.0,232049.0,7109,VNB,C,4
5,test,2,0.0,1-Back,1,m,Thu Apr 10 2025 17:53:01 GMT-0500 (Central Daylight Time),235689.8999999999,025_y_m_h_a.png,O,m,859,6,1,1874.5,233815.3999999999,7109,VNB,C,5
6,test,2,1.0,1-Back,1,z,Thu Apr 10 2025 17:53:01 GMT-0500 (Central Daylight Time),237524.6000000001,012_o_f_h_a.png,O,z,815,7,1,1826.7000000001863,235697.8999999999,7109,VNB,C,6
7,test,2,0.0,1-Back,1,m,Thu Apr 10 2025 17:53:01 GMT-0500 (Central Daylight Time),239190.3999999999,019_m_f_n_a.png,O,m,650,8,1,1658.7999999998137,237531.6000000001,7109,VNB,C,7
8,test,2,0.0,1-Back,1,m,Thu Apr 10 2025 17:53:01 GMT-0500 (Central Daylight Time),241303.8999999999,022_y_f_d_a.png,O,m,1095,9,1,2106.399999999907,239197.5,7109,VNB,C,8
9,test,2,0.0,1-Back,1,m,Thu Apr 10 2025 17:53:01 GMT-0500 (Central Daylight Time),243135.0,014_m_m_n_a.png,O,m,801,10,1,1823.7000000001863,241311.2999999998,7109,VNB,C,9
10,test,2,1.0,1-Back,1,m,Thu Apr 10 2025 17:53:01 GMT-0500 (Central Daylight Time),244854.7000000002,019_m_f_h_a.png,O,m,699,11,1,1716.8000000002794,243137.8999999999,7109,VNB,C,10
11,test,2,0.0,1-Back,1,z,Thu Apr 10 2025 17:53:01 GMT-0500 (Central Daylight Time),246768.2000000002,015_o_m_h_a.png,O,z,892,12,1,1904.9000000003725,244863.2999999998,7109,VNB,C,11
12,test,2,0.0,1-Back,1,m,Thu Apr 10 2025 17:53:01 GMT-0500 (Central Daylight Time),248484.2999999998,025_y_m_d_a.png,O,m,697,13,1,1710.2999999998137,246774.0,7109,VNB,C,12
13,test,2,0.0,1-Back,1,m,Thu Apr 10 2025 17:53:01 GMT-0500 (Central Daylight Time),250418.2999999998,012_o_f_n_a.png,O,m,908,14,1,1929.3999999999069,248488.8999999999,7109,VNB,C,13
14,test,2,0.0,1-Back,1,z,Thu Apr 10 2025 17:53:01 GMT-0500 (Central Daylight Time),252284.7999999998,022_y_f_n_a.png,O,z,849,15,1,1859.5,250425.2999999998,7109,VNB,C,14
15,test,2,1.0,1-Back,1,m,Thu Apr 10 2025 17:53:01 GMT-0500 (Central Daylight Time),253981.5,014_m_m_h_a.png,O,m,678,16,1,1689.0,252292.5,7109,VNB,C,15
15,test,2,0.0,1-Back,0,m,Thu Apr 10 2025 17:53:01 GMT-0500 (Central Daylight Time),256349.5,012_o_f_d_a.png,O,z,1351,17,1,2364.7000000001863,253984.7999999998,7109,VNB,C,16
15,test,2,1.0,1-Back,0,z,Thu Apr 10 2025 17:53:01 GMT-0500 (Central Daylight Time),259382.5,015_o_m_d_a.png,O,None,2015,18,1,3020.899999999907,256361.6000000001,7109,VNB,C,17
0,test,3,1.0,1-Back,,,Thu Apr 10 2025 17:53:01 GMT-0500 (Central Daylight Time),259382.5,012_o_f_h_a.png,O,space,1493,1,1,3020.899999999907,256361.6000000001,7109,VNB,C,0
1,test,3,0.0,1-Back,1,m,Thu Apr 10 2025 17:53:01 GMT-0500 (Central Daylight Time),265031.0,019_m_f_d_a.png,O,m,1015,2,1,2026.0,263005.0,7109,VNB,C,1
2,test,3,1.0,1-Back,1,m,Thu Apr 10 2025 17:53:01 GMT-0500 (Central Daylight Time),267113.3999999999,014_m_m_n_a.png,O,m,1061,3,1,2073.1999999997206,265040.2000000002,7109,VNB,C,2
3,test,3,0.0,1-Back,1,z,Thu Apr 10 2025 17:53:01 GMT-0500 (Central Daylight Time),269062.3999999999,012_o_f_n_a.png,O,z,922,4,1,1941.7999999998137,267120.6000000001,7109,VNB,C,3
4,test,3,1.0,1-Back,1,m,Thu Apr 10 2025 17:53:01 GMT-0500 (Central Daylight Time),270792.7000000002,015_o_m_d_a.png,O,m,708,5,1,1721.9000000003725,269070.7999999998,7109,VNB,C,4
5,test,3,0.0,1-Back,1,m,Thu Apr 10 2025 17:53:01 GMT-0500 (Central Daylight Time),272846.0,022_y_f_h_a.png,O,m,1032,6,1,2040.1000000000931,270805.8999999999,7109,VNB,C,5
6,test,3,0.0,1-Back,1,z,Thu Apr 10 2025 17:53:01 GMT-0500 (Central Daylight Time),274743.0,025_y_m_h_a.png,O,z,869,7,1,1889.5,272853.5,7109,VNB,C,6
7,test,3,0.0,1-Back,1,m,Thu Apr 10 2025 17:53:01 GMT-0500 (Central Daylight Time),276276.7000000002,019_m_f_n_a.png,O,m,515,8,1,1528.0,274748.7000000002,7109,VNB,C,7
8,test,3,0.0,1-Back,1,m,Thu Apr 10 2025 17:53:01 GMT-0500 (Central Daylight Time),278343.1000000001,022_y_f_d_a.png,O,m,1046,9,1,2058.7000000001863,276284.3999999999,7109,VNB,C,8
9,test,3,1.0,1-Back,1,m,Thu Apr 10 2025 17:53:01 GMT-0500 (Central Daylight Time),280408.7000000002,015_o_m_n_a.png,O,m,1035,10,1,2058.7000000001863,278350.0,7109,VNB,C,9
10,test,3,0.0,1-Back,1,m,Thu Apr 10 2025 17:53:01 GMT-0500 (Central Daylight Time),282190.1000000001,014_m_m_h_a.png,O,m,762,11,1,1775.8000000002794,280414.2999999998,7109,VNB,C,10
11,test,3,0.0,1-Back,1,z,Thu Apr 10 2025 17:53:01 GMT-0500 (Central Daylight Time),283906.7999999998,019_m_f_h_a.png,O,z,689,12,1,1709.2999999998137,282197.5,7109,VNB,C,11
12,test,3,1.0,1-Back,1,m,Thu Apr 10 2025 17:53:01 GMT-0500 (Central Daylight Time),285591.7999999998,012_o_f_d_a.png,O,m,666,13,1,1677.7999999998137,283914.0,7109,VNB,C,12
13,test,3,0.0,1-Back,1,z,Thu Apr 10 2025 17:53:01 GMT-0500 (Central Daylight Time),287405.8999999999,014_m_m_d_a.png,O,z,787,14,1,1807.7999999998137,285598.1000000001,7109,VNB,C,13
14,test,3,0.0,1-Back,1,m,Thu Apr 10 2025 17:53:01 GMT-0500 (Central Daylight Time),289223.7999999998,025_y_m_n_a.png,O,m,788,15,1,1811.0999999996275,287412.7000000002,7109,VNB,C,14
15,test,3,1.0,1-Back,1,m,Thu Apr 10 2025 17:53:01 GMT-0500 (Central Daylight Time),291006.7000000002,015_o_m_h_a.png,O,m,756,16,1,1775.9000000003725,289230.7999999998,7109,VNB,C,15
15,test,3,0.0,1-Back,0,m,Thu Apr 10 2025 17:53:01 GMT-0500 (Central Daylight Time),294038.7999999998,025_y_m_d_a.png,O,None,2016,17,1,3023.899999999907,291014.8999999999,7109,VNB,C,16
16,test,3,1.0,1-Back,1,m,Thu Apr 10 2025 17:53:01 GMT-0500 (Central Daylight Time),296686.2000000002,022_y_f_n_a.png,O,m,1622,18,1,2640.2000000001863,294046.0,7109,VNB,C,17
0,test,4,1.0,1-Back,,,Thu Apr 10 2025 17:53:01 GMT-0500 (Central Daylight Time),296686.2000000002,014_m_m_d_a.png,O,space,1216,1,1,2640.2000000001863,294046.0,7109,VNB,C,0
1,test,4,0.0,1-Back,1,z,Thu Apr 10 2025 17:53:01 GMT-0500 (Central Daylight Time),301952.3999999999,015_o_m_d_a.png,O,z,1004,2,1,2024.0,299928.3999999999,7109,VNB,C,1
2,test,4,0.0,1-Back,1,m,Thu Apr 10 2025 17:53:01 GMT-0500 (Central Daylight Time),303617.6000000001,025_y_m_h_a.png,O,m,636,3,1,1657.0,301960.6000000001,7109,VNB,C,2
3,test,4,0.0,1-Back,1,m,Thu Apr 10 2025 17:53:01 GMT-0500 (Central Daylight Time),305701.2999999998,019_m_f_n_a.png,O,m,1057,4,1,2075.899999999907,303625.3999999999,7109,VNB,C,3
4,test,4,1.0,1-Back,1,m,Thu Apr 10 2025 17:53:01 GMT-0500 (Central Daylight Time),307432.7999999998,012_o_f_h_a.png,O,m,702,5,1,1724.3999999999069,305708.3999999999,7109,VNB,C,4
5,test,4,0.0,1-Back,1,m,Thu Apr 10 2025 17:53:01 GMT-0500 (Central Daylight Time),309233.1000000001,014_m_m_n_a.png,O,m,778,6,1,1792.3000000002794,307440.7999999998,7109,VNB,C,5
6,test,4,0.0,1-Back,1,m,Thu Apr 10 2025 17:53:01 GMT-0500 (Central Daylight Time),310982.7000000002,025_y_m_d_a.png,O,m,722,7,1,1742.9000000003725,309239.7999999998,7109,VNB,C,6
7,test,4,1.0,1-Back,1,z,Thu Apr 10 2025 17:53:01 GMT-0500 (Central Daylight Time),312897.8999999999,022_y_f_d_a.png,O,z,894,8,1,1908.1000000000931,310989.7999999998,7109,VNB,C,7
8,test,4,0.0,1-Back,1,m,Thu Apr 10 2025 17:53:01 GMT-0500 (Central Daylight Time),314547.2000000002,019_m_f_h_a.png,O,m,625,9,1,1642.3000000002794,312904.8999999999,7109,VNB,C,8
9,test,4,0.0,1-Back,1,z,Thu Apr 10 2025 17:53:01 GMT-0500 (Central Daylight Time),316630.0,015_o_m_h_a.png,O,z,1054,10,1,2074.7000000001863,314555.2999999998,7109,VNB,C,9
10,test,4,1.0,1-Back,1,m,Thu Apr 10 2025 17:53:01 GMT-0500 (Central Daylight Time),318432.7999999998,012_o_f_n_a.png,O,m,787,11,1,1796.8999999999069,316635.8999999999,7109,VNB,C,10
11,test,4,0.0,1-Back,1,m,Thu Apr 10 2025 17:53:01 GMT-0500 (Central Daylight Time),320513.2999999998,019_m_f_d_a.png,O,m,1053,12,1,2073.6999999997206,318439.6000000001,7109,VNB,C,11
12,test,4,0.0,1-Back,1,m,Thu Apr 10 2025 17:53:01 GMT-0500 (Central Daylight Time),322662.6000000001,022_y_f_n_a.png,O,m,1130,13,1,2142.399999999907,320520.2000000002,7109,VNB,C,12
13,test,4,0.0,1-Back,1,m,Thu Apr 10 2025 17:53:01 GMT-0500 (Central Daylight Time),324662.5,012_o_f_d_a.png,O,m,974,14,1,1995.7000000001863,322666.7999999998,7109,VNB,C,13
14,test,4,0.0,1-Back,1,m,Thu Apr 10 2025 17:53:01 GMT-0500 (Central Daylight Time),326477.6000000001,022_y_f_h_a.png,O,m,797,15,1,1806.3999999999069,324671.2000000002,7109,VNB,C,14
15,test,4,1.0,1-Back,1,z,Thu Apr 10 2025 17:53:01 GMT-0500 (Central Daylight Time),328327.5,014_m_m_h_a.png,O,z,821,16,1,1842.2999999998137,326485.2000000002,7109,VNB,C,15
16,test,4,0.0,1-Back,1,m,Thu Apr 10 2025 17:53:01 GMT-0500 (Central Daylight Time),330044.2999999998,015_o_m_n_a.png,O,m,700,17,1,1710.0999999996275,328334.2000000002,7109,VNB,C,16
17,test,4,1.0,1-Back,1,z,Thu Apr 10 2025 17:53:01 GMT-0500 (Central Daylight Time),331876.3999999999,025_y_m_n_a.png,O,z,806,18,1,1825.0,330051.3999999999,7109,VNB,C,17
0,test,5,1.0,1-Back,,,Thu Apr 10 2025 17:53:01 GMT-0500 (Central Daylight Time),331876.3999999999,015_o_m_n_a.png,O,space,2102,1,1,1825.0,330051.3999999999,7109,VNB,C,0
1,test,5,1.0,1-Back,1,m,Thu Apr 10 2025 17:53:01 GMT-0500 (Central Daylight Time),337791.5,012_o_f_h_a.png,O,m,764,2,1,1775.1000000000931,336016.3999999999,7109,VNB,C,1
2,test,5,0.0,1-Back,1,m,Thu Apr 10 2025 17:53:01 GMT-0500 (Central Daylight Time),339691.5,025_y_m_d_a.png,O,m,867,3,1,1892.5,337799.0,7109,VNB,C,2
3,test,5,0.0,1-Back,1,z,Thu Apr 10 2025 17:53:01 GMT-0500 (Central Daylight Time),341542.2999999998,015_o_m_d_a.png,O,z,834,4,1,1843.0999999996275,339699.2000000002,7109,VNB,C,3
4,test,5,0.0,1-Back,1,m,Thu Apr 10 2025 17:53:01 GMT-0500 (Central Daylight Time),343540.1000000001,019_m_f_h_a.png,O,m,975,5,1,1991.3999999999069,341548.7000000002,7109,VNB,C,4
5,test,5,0.0,1-Back,1,m,Thu Apr 10 2025 17:53:01 GMT-0500 (Central Daylight Time),345522.7999999998,022_y_f_n_a.png,O,m,951,6,1,1974.7999999998137,343548.0,7109,VNB,C,5
5,test,5,1.0,1-Back,0,z,Thu Apr 10 2025 17:53:01 GMT-0500 (Central Daylight Time),347487.5,012_o_f_n_a.png,O,m,945,7,1,1956.2000000001863,345531.2999999998,7109,VNB,C,6
6,test,5,0.0,1-Back,1,m,Thu Apr 10 2025 17:53:01 GMT-0500 (Central Daylight Time),349320.7999999998,019_m_f_d_a.png,O,m,801,8,1,1829.0999999996275,347491.7000000002,7109,VNB,C,7
7,test,5,0.0,1-Back,1,m,Thu Apr 10 2025 17:53:01 GMT-0500 (Central Daylight Time),351069.2000000002,025_y_m_h_a.png,O,m,723,9,1,1740.4000000003725,349328.7999999998,7109,VNB,C,8
8,test,5,0.0,1-Back,1,m,Thu Apr 10 2025 17:53:01 GMT-0500 (Central Daylight Time),352685.0,022_y_f_d_a.png,O,m,589,10,1,1606.7999999998137,351078.2000000002,7109,VNB,C,9
9,test,5,0.0,1-Back,1,m,Thu Apr 10 2025 17:53:01 GMT-0500 (Central Daylight Time),354269.7000000002,014_m_m_n_a.png,O,m,566,11,1,1576.1000000000931,352693.6000000001,7109,VNB,C,10
10,test,5,1.0,1-Back,1,z,Thu Apr 10 2025 17:53:01 GMT-0500 (Central Daylight Time),356201.5,019_m_f_n_a.png,O,z,902,12,1,1921.8999999999069,354279.6000000001,7109,VNB,C,11
11,test,5,0.0,1-Back,1,m,Thu Apr 10 2025 17:53:01 GMT-0500 (Central Daylight Time),357767.3999999999,015_o_m_h_a.png,O,m,546,13,1,1558.6999999997206,356208.7000000002,7109,VNB,C,12
12,test,5,0.0,1-Back,1,z,Thu Apr 10 2025 17:53:01 GMT-0500 (Central Daylight Time),359886.5,014_m_m_h_a.png,O,z,1085,14,1,2110.0,357776.5,7109,VNB,C,13
13,test,5,1.0,1-Back,1,m,Thu Apr 10 2025 17:53:01 GMT-0500 (Central Daylight Time),361599.0,012_o_f_d_a.png,O,m,687,15,1,1705.7999999998137,359893.2000000002,7109,VNB,C,14
14,test,5,0.0,1-Back,1,m,Thu Apr 10 2025 17:53:01 GMT-0500 (Central Daylight Time),363447.1000000001,025_y_m_n_a.png,O,m,825,16,1,1840.6000000000931,361606.5,7109,VNB,C,15
15,test,5,0.0,1-Back,1,m,Thu Apr 10 2025 17:53:01 GMT-0500 (Central Daylight Time),365365.3999999999,022_y_f_h_a.png,O,m,889,17,1,1912.8999999999069,363452.5,7109,VNB,C,16
16,test,5,0.0,1-Back,1,m,Thu Apr 10 2025 17:53:01 GMT-0500 (Central Daylight Time),367183.1000000001,014_m_m_d_a.png,O,m,798,18,1,1810.6000000000931,365372.5,7109,VNB,C,17
0,prac,1,0.0,2-Back,,,Thu Apr 10 2025 17:53:01 GMT-0500 (Central Daylight Time),367183.1000000001,019_m_f_n_a.png,O,space,2899,1,1,1810.6000000000931,365372.5,7109,VNB,C,0
0,prac,1,0.0,2-Back,,,Thu Apr 10 2025 17:53:01 GMT-0500 (Central Daylight Time),367183.1000000001,012_o_f_h_a.png,O,space,2899,2,1,1810.6000000000931,365372.5,7109,VNB,C,0
1,prac,1,0.0,2-Back,1,m,Thu Apr 10 2025 17:53:01 GMT-0500 (Central Daylight Time),459501.7999999998,015_o_m_d_a.png,O,m,1349,3,1,2237.0999999996275,457264.7000000002,7109,VNB,C,1
1,prac,1,1.0,2-Back,0,z,Thu Apr 10 2025 17:53:01 GMT-0500 (Central Daylight Time),462386.1000000001,014_m_m_h_a.png,O,None,2017,4,1,2874.600000000093,459511.5,7109,VNB,C,2
1,prac,1,0.0,2-Back,0,m,Thu Apr 10 2025 17:53:01 GMT-0500 (Central Daylight Time),465267.2999999998,022_y_f_n_a.png,O,None,2001,5,1,2873.899999999907,462393.3999999999,7109,VNB,C,3
2,prac,1,1.0,2-Back,1,z,Thu Apr 10 2025 17:53:01 GMT-0500 (Central Daylight Time),468081.7999999998,015_o_m_h_a.png,O,z,1927,6,1,2805.0,465276.7999999998,7109,VNB,C,4
2,prac,1,1.0,2-Back,0,z,Thu Apr 10 2025 17:53:01 GMT-0500 (Central Daylight Time),470949.2999999998,025_y_m_n_a.png,O,None,2006,7,1,2858.0999999996275,468091.2000000002,7109,VNB,C,5
2,prac,1,0.0,2-Back,0,m,Thu Apr 10 2025 17:53:01 GMT-0500 (Central Daylight Time),473846.7000000002,019_m_f_d_a.png,O,None,2011,8,1,2888.8000000002794,470957.8999999999,7109,VNB,C,6
3,prac,1,0.0,2-Back,1,m,Thu Apr 10 2025 17:53:01 GMT-0500 (Central Daylight Time),476332.5,012_o_f_d_a.png,O,m,1589,9,1,2478.100000000093,473854.3999999999,7109,VNB,C,7
3,prac,1,0.0,2-Back,0,m,Thu Apr 10 2025 17:53:01 GMT-0500 (Central Daylight Time),479112.7000000002,014_m_m_h_a.png,O,None,2005,10,1,2771.7000000001863,476341.0,7109,VNB,C,8
3,prac,1,1.0,2-Back,0,z,Thu Apr 10 2025 17:53:01 GMT-0500 (Central Daylight Time),481999.1000000001,022_y_f_d_a.png,O,None,2011,11,1,2877.8000000002794,479121.2999999998,7109,VNB,C,9
3,prac,1,0.0,2-Back,0,m,Thu Apr 10 2025 17:53:01 GMT-0500 (Central Daylight Time),484928.2000000002,015_o_m_n_a.png,O,None,2014,12,1,2925.0,482003.2000000002,7109,VNB,C,10
0,prac,2,0.0,2-Back,,,Thu Apr 10 2025 17:53:01 GMT-0500 (Central Daylight Time),484928.2000000002,019_m_f_n_a.png,O,a,6023,1,1,2925.0,482003.2000000002,7109,VNB,C,0
0,prac,2,0.0,2-Back,,,Thu Apr 10 2025 17:53:01 GMT-0500 (Central Daylight Time),484928.2000000002,012_o_f_h_a.png,O,a,6023,2,1,2925.0,482003.2000000002,7109,VNB,C,0
1,prac,2,0.0,2-Back,1,m,Thu Apr 10 2025 17:53:01 GMT-0500 (Central Daylight Time),498509.0,015_o_m_d_a.png,O,m,1404,3,1,2292.7000000001863,496216.2999999998,7109,VNB,C,1
2,prac,2,1.0,2-Back,1,z,Thu Apr 10 2025 17:53:01 GMT-0500 (Central Daylight Time),500455.2999999998,014_m_m_h_a.png,O,z,1170,4,1,1936.1999999997206,498519.1000000001,7109,VNB,C,2
3,prac,2,0.0,2-Back,1,m,Thu Apr 10 2025 17:53:01 GMT-0500 (Central Daylight Time),502554.0,022_y_f_n_a.png,O,m,1204,5,1,2089.2999999998137,500464.7000000002,7109,VNB,C,3
3,prac,2,1.0,2-Back,0,z,Thu Apr 10 2025 17:53:01 GMT-0500 (Central Daylight Time),504788.3999999999,015_o_m_h_a.png,O,m,1345,6,1,2224.6999999997206,502563.7000000002,7109,VNB,C,4
3,prac,2,1.0,2-Back,0,z,Thu Apr 10 2025 17:53:01 GMT-0500 (Central Daylight Time),507003.8999999999,025_y_m_n_a.png,O,m,1352,7,1,2204.0,504799.8999999999,7109,VNB,C,5
4,prac,2,0.0,2-Back,1,m,Thu Apr 10 2025 17:53:01 GMT-0500 (Central Daylight Time),509236.1000000001,019_m_f_d_a.png,O,m,1336,8,1,2222.600000000093,507013.5,7109,VNB,C,6
5,prac,2,0.0,2-Back,1,m,Thu Apr 10 2025 17:53:01 GMT-0500 (Central Daylight Time),511836.2999999998,012_o_f_d_a.png,O,m,1708,9,1,2591.0,509245.2999999998,7109,VNB,C,7
6,prac,2,0.0,2-Back,1,m,Thu Apr 10 2025 17:53:01 GMT-0500 (Central Daylight Time),513735.0,014_m_m_h_a.png,O,m,1136,10,1,1891.2999999998137,511843.7000000002,7109,VNB,C,8
7,prac,2,1.0,2-Back,1,z,Thu Apr 10 2025 17:53:01 GMT-0500 (Central Daylight Time),515584.2000000002,022_y_f_d_a.png,O,z,940,11,1,1840.4000000003725,513743.7999999998,7109,VNB,C,9
8,prac,2,0.0,2-Back,1,m,Thu Apr 10 2025 17:53:01 GMT-0500 (Central Daylight Time),517617.1000000001,015_o_m_n_a.png,O,m,1132,12,1,2025.2000000001863,515591.8999999999,7109,VNB,C,10
0,test,1,0.0,2-Back,,,Thu Apr 10 2025 17:53:01 GMT-0500 (Central Daylight Time),517617.1000000001,025_y_m_h_a.png,O,space,4169,1,1,2025.2000000001863,515591.8999999999,7109,VNB,C,0
0,test,1,0.0,2-Back,,,Thu Apr 10 2025 17:53:01 GMT-0500 (Central Daylight Time),517617.1000000001,012_o_f_n_a.png,O,space,4169,2,1,2025.2000000001863,515591.8999999999,7109,VNB,C,0
0,test,1,0.0,2-Back,0,z,Thu Apr 10 2025 17:53:01 GMT-0500 (Central Daylight Time),533545.5,015_o_m_h_a.png,O,m,802,3,1,1824.5,531721.0,7109,VNB,C,1
1,test,1,0.0,2-Back,1,m,Thu Apr 10 2025 17:53:01 GMT-0500 (Central Daylight Time),535760.7999999998,019_m_f_d_a.png,O,m,1194,4,1,2209.0999999996275,533551.7000000002,7109,VNB,C,2
2,test,1,1.0,2-Back,1,m,Thu Apr 10 2025 17:53:01 GMT-0500 (Central Daylight Time),537810.2000000002,025_y_m_n_a.png,O,m,1026,5,1,2044.7000000001863,535765.5,7109,VNB,C,3
3,test,1,0.0,2-Back,1,z,Thu Apr 10 2025 17:53:01 GMT-0500 (Central Daylight Time),539727.2000000002,022_y_f_d_a.png,O,z,898,6,1,1908.8000000002794,537818.3999999999,7109,VNB,C,4
4,test,1,0.0,2-Back,1,m,Thu Apr 10 2025 17:53:01 GMT-0500 (Central Daylight Time),541575.3999999999,014_m_m_h_a.png,O,m,831,7,1,1840.6999999997206,539734.7000000002,7109,VNB,C,5
5,test,1,1.0,2-Back,1,m,Thu Apr 10 2025 17:53:01 GMT-0500 (Central Daylight Time),543476.0,022_y_f_n_a.png,O,m,874,8,1,1892.1000000000931,541583.8999999999,7109,VNB,C,6
6,test,1,0.0,2-Back,1,z,Thu Apr 10 2025 17:53:01 GMT-0500 (Central Daylight Time),545422.8999999999,012_o_f_h_a.png,O,z,926,9,1,1939.6999999997206,543483.2000000002,7109,VNB,C,7
7,test,1,0.0,2-Back,1,m,Thu Apr 10 2025 17:53:01 GMT-0500 (Central Daylight Time),547308.0,015_o_m_d_a.png,O,m,859,10,1,1882.7000000001863,545425.2999999998,7109,VNB,C,8
8,test,1,1.0,2-Back,1,m,Thu Apr 10 2025 17:53:01 GMT-0500 (Central Daylight Time),549957.0,014_m_m_d_a.png,O,m,1615,11,1,2641.600000000093,547315.3999999999,7109,VNB,C,9
9,test,1,0.0,2-Back,1,m,Thu Apr 10 2025 17:53:01 GMT-0500 (Central Daylight Time),552371.8999999999,019_m_f_n_a.png,O,m,1391,12,1,2408.0,549963.8999999999,7109,VNB,C,10
10,test,1,0.0,2-Back,1,m,Thu Apr 10 2025 17:53:01 GMT-0500 (Central Daylight Time),554654.6000000001,022_y_f_h_a.png,O,m,1253,13,1,2274.7000000001863,552379.8999999999,7109,VNB,C,11
10,test,1,0.0,2-Back,0,z,Thu Apr 10 2025 17:53:01 GMT-0500 (Central Daylight Time),556471.2999999998,014_m_m_n_a.png,O,m,799,14,1,1810.0999999996275,554661.2000000002,7109,VNB,C,12
11,test,1,0.0,2-Back,1,m,Thu Apr 10 2025 17:53:01 GMT-0500 (Central Daylight Time),558504.1000000001,025_y_m_d_a.png,O,m,1005,15,1,2024.2000000001863,556479.8999999999,7109,VNB,C,13
12,test,1,1.0,2-Back,1,m,Thu Apr 10 2025 17:53:01 GMT-0500 (Central Daylight Time),560485.6000000001,019_m_f_h_a.png,O,m,955,16,1,1977.3999999999069,558508.2000000002,7109,VNB,C,14
13,test,1,0.0,2-Back,1,z,Thu Apr 10 2025 17:53:01 GMT-0500 (Central Daylight Time),562703.0,012_o_f_d_a.png,O,z,1180,17,1,2208.2000000001863,560494.7999999998,7109,VNB,C,15
14,test,1,0.0,2-Back,1,m,Thu Apr 10 2025 17:53:01 GMT-0500 (Central Daylight Time),564784.6000000001,015_o_m_n_a.png,O,m,1055,18,1,2074.7000000001863,562709.8999999999,7109,VNB,C,16
0,test,2,0.0,2-Back,,,Thu Apr 10 2025 17:53:01 GMT-0500 (Central Daylight Time),564784.6000000001,014_m_m_h_a.png,O,space,1673,1,1,2074.7000000001863,562709.8999999999,7109,VNB,C,0
0,test,2,0.0,2-Back,,,Thu Apr 10 2025 17:53:01 GMT-0500 (Central Daylight Time),564784.6000000001,022_y_f_n_a.png,O,space,1673,2,1,2074.7000000001863,562709.8999999999,7109,VNB,C,0
0,test,2,1.0,2-Back,0,z,Thu Apr 10 2025 17:53:01 GMT-0500 (Central Daylight Time),573482.8999999999,012_o_f_h_a.png,O,m,742,3,1,1756.8999999999069,571726.0,7109,VNB,C,1
1,test,2,0.0,2-Back,1,m,Thu Apr 10 2025 17:53:01 GMT-0500 (Central Daylight Time),576349.0,015_o_m_d_a.png,O,m,1839,4,1,2858.100000000093,573490.8999999999,7109,VNB,C,2
2,test,2,0.0,2-Back,1,m,Thu Apr 10 2025 17:53:01 GMT-0500 (Central Daylight Time),578713.2999999998,019_m_f_d_a.png,O,m,1335,5,1,2361.0,576352.2999999998,7109,VNB,C,3
3,test,2,0.0,2-Back,1,m,Thu Apr 10 2025 17:53:01 GMT-0500 (Central Daylight Time),580546.7000000002,025_y_m_h_a.png,O,m,807,6,1,1826.8000000002794,578719.8999999999,7109,VNB,C,4
4,test,2,0.0,2-Back,1,m,Thu Apr 10 2025 17:53:01 GMT-0500 (Central Daylight Time),582995.8999999999,012_o_f_n_a.png,O,m,1424,7,1,2444.899999999907,580551.0,7109,VNB,C,5
4,test,2,1.0,2-Back,0,z,Thu Apr 10 2025 17:53:01 GMT-0500 (Central Daylight Time),584996.0,015_o_m_h_a.png,O,m,967,8,1,1992.0,583004.0,7109,VNB,C,6
5,test,2,0.0,2-Back,1,m,Thu Apr 10 2025 17:53:01 GMT-0500 (Central Daylight Time),586745.1000000001,022_y_f_d_a.png,O,m,719,9,1,1743.1000000000931,585002.0,7109,VNB,C,7
6,test,2,0.0,2-Back,1,m,Thu Apr 10 2025 17:53:01 GMT-0500 (Central Daylight Time),588863.7000000002,025_y_m_d_a.png,O,m,1101,10,1,2110.0,586753.7000000002,7109,VNB,C,8
7,test,2,0.0,2-Back,1,m,Thu Apr 10 2025 17:53:01 GMT-0500 (Central Daylight Time),591711.7000000002,014_m_m_n_a.png,O,m,1832,11,1,2843.2000000001863,588868.5,7109,VNB,C,9
8,test,2,0.0,2-Back,1,m,Thu Apr 10 2025 17:53:01 GMT-0500 (Central Daylight Time),593558.6000000001,019_m_f_h_a.png,O,m,828,12,1,1837.3999999999069,591721.2000000002,7109,VNB,C,10
8,test,2,1.0,2-Back,0,z,Thu Apr 10 2025 17:53:01 GMT-0500 (Central Daylight Time),595408.7999999998,015_o_m_n_a.png,O,m,819,13,1,1841.5999999996275,593567.2000000002,7109,VNB,C,11
9,test,2,0.0,2-Back,1,m,Thu Apr 10 2025 17:53:01 GMT-0500 (Central Daylight Time),597391.6000000001,012_o_f_d_a.png,O,m,964,14,1,1974.3000000002794,595417.2999999998,7109,VNB,C,12
10,test,2,0.0,2-Back,1,m,Thu Apr 10 2025 17:53:01 GMT-0500 (Central Daylight Time),599191.1000000001,022_y_f_h_a.png,O,m,772,15,1,1789.3999999999069,597401.7000000002,7109,VNB,C,13
10,test,2,0.0,2-Back,0,z,Thu Apr 10 2025 17:53:01 GMT-0500 (Central Daylight Time),601007.2000000002,014_m_m_d_a.png,O,m,787,16,1,1808.8000000002794,599198.3999999999,7109,VNB,C,14
11,test,2,0.0,2-Back,1,m,Thu Apr 10 2025 17:53:01 GMT-0500 (Central Daylight Time),602856.5,025_y_m_n_a.png,O,m,818,17,1,1841.8999999999069,601014.6000000001,7109,VNB,C,15
12,test,2,1.0,2-Back,1,m,Thu Apr 10 2025 17:53:01 GMT-0500 (Central Daylight Time),605023.3999999999,019_m_f_n_a.png,O,m,1149,18,1,2160.7999999998137,602862.6000000001,7109,VNB,C,16
0,test,3,1.0,2-Back,,,Thu Apr 10 2025 17:53:01 GMT-0500 (Central Daylight Time),605023.3999999999,015_o_m_n_a.png,O,space,1588,1,1,2160.7999999998137,602862.6000000001,7109,VNB,C,0
0,test,3,1.0,2-Back,,,Thu Apr 10 2025 17:53:01 GMT-0500 (Central Daylight Time),605023.3999999999,012_o_f_d_a.png,O,space,1588,2,1,2160.7999999998137,602862.6000000001,7109,VNB,C,0
1,test,3,0.0,2-Back,1,m,Thu Apr 10 2025 17:53:01 GMT-0500 (Central Daylight Time),613686.7999999998,022_y_f_h_a.png,O,m,1000,3,1,2008.5999999996275,611678.2000000002,7109,VNB,C,1
2,test,3,0.0,2-Back,1,z,Thu Apr 10 2025 17:53:01 GMT-0500 (Central Daylight Time),616037.2000000002,019_m_f_d_a.png,O,z,1333,4,1,2344.8000000002794,613692.3999999999,7109,VNB,C,2
3,test,3,1.0,2-Back,1,m,Thu Apr 10 2025 17:53:01 GMT-0500 (Central Daylight Time),617902.5,025_y_m_n_a.png,O,m,837,5,1,1856.3999999999069,616046.1000000001,7109,VNB,C,3
4,test,3,0.0,2-Back,1,m,Thu Apr 10 2025 17:53:01 GMT-0500 (Central Daylight Time),619784.1000000001,015_o_m_h_a.png,O,m,862,6,1,1874.8999999999069,617909.2000000002,7109,VNB,C,4
5,test,3,0.0,2-Back,1,z,Thu Apr 10 2025 17:53:01 GMT-0500 (Central Daylight Time),622033.2999999998,022_y_f_n_a.png,O,z,1226,7,1,2242.5999999996275,619790.7000000002,7109,VNB,C,5
6,test,3,1.0,2-Back,1,m,Thu Apr 10 2025 17:53:01 GMT-0500 (Central Daylight Time),624333.3999999999,014_m_m_d_a.png,O,m,1275,8,1,2295.100000000093,622038.2999999998,7109,VNB,C,6
7,test,3,0.0,2-Back,1,m,Thu Apr 10 2025 17:53:01 GMT-0500 (Central Daylight Time),626631.0,025_y_m_d_a.png,O,m,1281,9,1,2290.899999999907,624340.1000000001,7109,VNB,C,7
8,test,3,0.0,2-Back,1,m,Thu Apr 10 2025 17:53:01 GMT-0500 (Central Daylight Time),628699.5,012_o_f_h_a.png,O,m,1035,10,1,2061.899999999907,626637.6000000001,7109,VNB,C,8
9,test,3,1.0,2-Back,1,m,Thu Apr 10 2025 17:53:01 GMT-0500 (Central Daylight Time),630480.0,019_m_f_n_a.png,O,m,760,11,1,1773.7999999998137,628706.2000000002,7109,VNB,C,9
10,test,3,1.0,2-Back,1,z,Thu Apr 10 2025 17:53:01 GMT-0500 (Central Daylight Time),632629.8999999999,014_m_m_h_a.png,O,z,1122,12,1,2143.600000000093,630486.2999999998,7109,VNB,C,10
11,test,3,0.0,2-Back,1,m,Thu Apr 10 2025 17:53:01 GMT-0500 (Central Daylight Time),634631.0,022_y_f_d_a.png,O,m,983,13,1,1993.6000000000931,632637.3999999999,7109,VNB,C,11
12,test,3,0.0,2-Back,1,m,Thu Apr 10 2025 17:53:01 GMT-0500 (Central Daylight Time),637577.0,012_o_f_n_a.png,O,m,1923,14,1,2939.100000000093,634637.8999999999,7109,VNB,C,12
13,test,3,0.0,2-Back,1,z,Thu Apr 10 2025 17:53:01 GMT-0500 (Central Daylight Time),640328.2000000002,015_o_m_d_a.png,O,z,1727,15,1,2745.600000000093,637582.6000000001,7109,VNB,C,13
14,test,3,1.0,2-Back,1,m,Thu Apr 10 2025 17:53:01 GMT-0500 (Central Daylight Time),642160.5,019_m_f_h_a.png,O,m,802,16,1,1824.7999999998137,640335.7000000002,7109,VNB,C,14
15,test,3,0.0,2-Back,1,m,Thu Apr 10 2025 17:53:01 GMT-0500 (Central Daylight Time),644694.2999999998,014_m_m_n_a.png,O,m,1506,17,1,2525.1999999997206,642169.1000000001,7109,VNB,C,15
16,test,3,0.0,2-Back,1,z,Thu Apr 10 2025 17:53:01 GMT-0500 (Central Daylight Time),646625.7000000002,025_y_m_h_a.png,O,z,901,18,1,1925.6000000000931,644700.1000000001,7109,VNB,C,16
0,test,4,0.0,2-Back,,,Thu Apr 10 2025 17:53:01 GMT-0500 (Central Daylight Time),646625.7000000002,019_m_f_n_a.png,O,space,1449,1,1,1925.6000000000931,644700.1000000001,7109,VNB,C,0
0,test,4,0.0,2-Back,,,Thu Apr 10 2025 17:53:01 GMT-0500 (Central Daylight Time),646625.7000000002,015_o_m_n_a.png,O,space,1449,2,1,1925.6000000000931,644700.1000000001,7109,VNB,C,0
1,test,4,1.0,2-Back,1,m,Thu Apr 10 2025 17:53:01 GMT-0500 (Central Daylight Time),655723.7000000002,025_y_m_h_a.png,O,m,1316,3,1,2340.4000000003725,653383.2999999998,7109,VNB,C,1
2,test,4,1.0,2-Back,1,m,Thu Apr 10 2025 17:53:01 GMT-0500 (Central Daylight Time),657839.0,012_o_f_d_a.png,O,m,1088,4,1,2107.0,655732.0,7109,VNB,C,2
3,test,4,0.0,2-Back,1,z,Thu Apr 10 2025 17:53:01 GMT-0500 (Central Daylight Time),660039.1000000001,015_o_m_h_a.png,O,z,1183,5,1,2192.899999999907,657846.2000000002,7109,VNB,C,3
4,test,4,0.0,2-Back,1,m,Thu Apr 10 2025 17:53:01 GMT-0500 (Central Daylight Time),661971.6000000001,014_m_m_n_a.png,O,m,901,6,1,1924.5,660047.1000000001,7109,VNB,C,4
5,test,4,0.0,2-Back,1,m,Thu Apr 10 2025 17:53:01 GMT-0500 (Central Daylight Time),663820.8999999999,019_m_f_d_a.png,O,m,816,7,1,1841.5,661979.3999999999,7109,VNB,C,5
6,test,4,0.0,2-Back,1,z,Thu Apr 10 2025 17:53:01 GMT-0500 (Central Daylight Time),665986.8999999999,022_y_f_n_a.png,O,z,1135,8,1,2159.100000000093,663827.7999999998,7109,VNB,C,6
7,test,4,1.0,2-Back,1,m,Thu Apr 10 2025 17:53:01 GMT-0500 (Central Daylight Time),668036.7999999998,012_o_f_h_a.png,O,m,1033,9,1,2042.2999999998137,665994.5,7109,VNB,C,7
8,test,4,0.0,2-Back,1,m,Thu Apr 10 2025 17:53:01 GMT-0500 (Central Daylight Time),670088.6000000001,014_m_m_h_a.png,O,m,1023,10,1,2044.0,668044.6000000001,7109,VNB,C,8
9,test,4,0.0,2-Back,1,m,Thu Apr 10 2025 17:53:01 GMT-0500 (Central Daylight Time),671966.7000000002,022_y_f_d_a.png,O,m,863,11,1,1875.4000000003725,670091.2999999998,7109,VNB,C,9
10,test,4,0.0,2-Back,1,m,Thu Apr 10 2025 17:53:01 GMT-0500 (Central Daylight Time),673733.0,025_y_m_n_a.png,O,m,740,12,1,1757.0,671976.0,7109,VNB,C,10
11,test,4,0.0,2-Back,1,z,Thu Apr 10 2025 17:53:01 GMT-0500 (Central Daylight Time),675550.8999999999,015_o_m_d_a.png,O,z,788,13,1,1811.1999999997206,673739.7000000002,7109,VNB,C,11
12,test,4,1.0,2-Back,1,m,Thu Apr 10 2025 17:53:01 GMT-0500 (Central Daylight Time),677466.2000000002,019_m_f_h_a.png,O,m,885,14,1,1907.6000000000931,675558.6000000001,7109,VNB,C,12
13,test,4,1.0,2-Back,1,m,Thu Apr 10 2025 17:53:01 GMT-0500 (Central Daylight Time),679665.1000000001,022_y_f_h_a.png,O,m,1169,15,1,2190.7000000001863,677474.3999999999,7109,VNB,C,13
14,test,4,0.0,2-Back,1,m,Thu Apr 10 2025 17:53:01 GMT-0500 (Central Daylight Time),682430.6000000001,012_o_f_n_a.png,O,m,1738,16,1,2758.3000000002794,679672.2999999998,7109,VNB,C,14
15,test,4,0.0,2-Back,1,m,Thu Apr 10 2025 17:53:01 GMT-0500 (Central Daylight Time),684465.7000000002,025_y_m_d_a.png,O,m,1004,17,1,2025.8000000002794,682439.8999999999,7109,VNB,C,15
16,test,4,1.0,2-Back,1,m,Thu Apr 10 2025 17:53:01 GMT-0500 (Central Daylight Time),686695.5,014_m_m_d_a.png,O,m,1210,18,1,2222.2999999998137,684473.2000000002,7109,VNB,C,16
0,test,5,1.0,2-Back,,,Thu Apr 10 2025 17:53:01 GMT-0500 (Central Daylight Time),686695.5,022_y_f_d_a.png,O,space,1116,1,1,2222.2999999998137,684473.2000000002,7109,VNB,C,0
0,test,5,1.0,2-Back,,,Thu Apr 10 2025 17:53:01 GMT-0500 (Central Daylight Time),686695.5,012_o_f_h_a.png,O,space,1116,2,1,2222.2999999998137,684473.2000000002,7109,VNB,C,0
1,test,5,1.0,2-Back,1,z,Thu Apr 10 2025 17:53:01 GMT-0500 (Central Daylight Time),695759.6000000001,015_o_m_d_a.png,O,z,1662,3,1,2667.100000000093,693092.5,7109,VNB,C,1
2,test,5,1.0,2-Back,1,m,Thu Apr 10 2025 17:53:01 GMT-0500 (Central Daylight Time),698192.2000000002,019_m_f_n_a.png,O,m,1410,4,1,2426.2000000001863,695766.0,7109,VNB,C,2
3,test,5,0.0,2-Back,1,m,Thu Apr 10 2025 17:53:01 GMT-0500 (Central Daylight Time),701008.7000000002,014_m_m_h_a.png,O,m,1794,5,1,2807.4000000003725,698201.2999999998,7109,VNB,C,3
3,test,5,0.0,2-Back,0,z,Thu Apr 10 2025 17:53:01 GMT-0500 (Central Daylight Time),703291.2999999998,022_y_f_n_a.png,O,m,1250,6,1,2273.5,701017.7999999998,7109,VNB,C,4
4,test,5,0.0,2-Back,1,m,Thu Apr 10 2025 17:53:01 GMT-0500 (Central Daylight Time),705242.0,012_o_f_d_a.png,O,m,929,7,1,1943.3999999999069,703298.6000000001,7109,VNB,C,5
4,test,5,0.0,2-Back,0,m,Thu Apr 10 2025 17:53:01 GMT-0500 (Central Daylight Time),707256.1000000001,015_o_m_h_a.png,O,z,985,8,1,2008.3000000002794,705247.7999999998,7109,VNB,C,6
4,test,5,1.0,2-Back,0,z,Thu Apr 10 2025 17:53:01 GMT-0500 (Central Daylight Time),709256.2999999998,019_m_f_d_a.png,O,m,969,9,1,1994.6999999997206,707261.6000000001,7109,VNB,C,7
5,test,5,0.0,2-Back,1,m,Thu Apr 10 2025 17:53:01 GMT-0500 (Central Daylight Time),711122.7000000002,025_y_m_n_a.png,O,m,842,10,1,1857.0,709265.7000000002,7109,VNB,C,8
6,test,5,0.0,2-Back,1,m,Thu Apr 10 2025 17:53:01 GMT-0500 (Central Daylight Time),713071.1000000001,014_m_m_n_a.png,O,m,922,11,1,1940.8999999999069,711130.2000000002,7109,VNB,C,9
7,test,5,0.0,2-Back,1,m,Thu Apr 10 2025 17:53:01 GMT-0500 (Central Daylight Time),715189.5,022_y_f_h_a.png,O,m,1100,12,1,2111.2000000001863,713078.2999999998,7109,VNB,C,10
8,test,5,0.0,2-Back,1,m,Thu Apr 10 2025 17:53:01 GMT-0500 (Central Daylight Time),717104.6000000001,025_y_m_d_a.png,O,m,894,13,1,1906.1000000000931,715198.5,7109,VNB,C,11
9,test,5,1.0,2-Back,1,z,Thu Apr 10 2025 17:53:01 GMT-0500 (Central Daylight Time),719102.0,019_m_f_h_a.png,O,z,971,14,1,1990.1000000000931,717111.8999999999,7109,VNB,C,12
10,test,5,0.0,2-Back,1,m,Thu Apr 10 2025 17:53:01 GMT-0500 (Central Daylight Time),721019.8999999999,015_o_m_n_a.png,O,m,884,15,1,1909.7999999998137,719110.1000000001,7109,VNB,C,13
11,test,5,0.0,2-Back,1,m,Thu Apr 10 2025 17:53:01 GMT-0500 (Central Daylight Time),723253.3999999999,014_m_m_d_a.png,O,m,1218,16,1,2226.899999999907,721026.5,7109,VNB,C,14
12,test,5,0.0,2-Back,1,z,Thu Apr 10 2025 17:53:01 GMT-0500 (Central Daylight Time),725553.0,012_o_f_n_a.png,O,z,1282,17,1,2290.600000000093,723262.3999999999,7109,VNB,C,15
12,test,5,1.0,2-Back,0,m,Thu Apr 10 2025 17:53:01 GMT-0500 (Central Daylight Time),727866.2000000002,025_y_m_h_a.png,O,z,1284,18,1,2304.3000000002794,725561.8999999999,7109,VNB,C,16
