acc_sum,block,block_c,change,condition,correct,correct_response,datetime,endtime,face,project,response,response_time,row_sel,session_number,start_end,starttime,subject_id,task,task_vers,trial
0,prac,1,,1-Back,,,Mon Feb 24 2025 15:01:01 GMT-0600 (Central Standard Time),,093_m_f_n_a.png,O,space,3049,1,1,,,7060,NNB,C,0
1,prac,1,0.0,1-Back,1,m,Mon Feb 24 2025 15:01:01 GMT-0600 (Central Standard Time),228354.19999998808,098_y_f_n_a.png,O,m,1850,2,1,2704.5999999940395,225649.59999999404,7060,NNB,C,1
1,prac,1,1.0,1-Back,0,z,Mon Feb 24 2025 15:01:01 GMT-0600 (Central Standard Time),231119.69999998808,098_y_f_n_a.png,O,None,2004,3,1,2756.0999999940395,228363.59999999404,7060,NNB,C,2
1,prac,1,0.0,1-Back,0,m,Mon Feb 24 2025 15:01:01 GMT-0600 (Central Standard Time),234001.79999998212,059_o_m_n_a.png,O,None,2012,4,1,2871.5999999940395,231130.19999998808,7060,NNB,C,3
1,prac,1,0.0,1-Back,0,m,Mon Feb 24 2025 15:01:01 GMT-0600 (Central Standard Time),236868.09999999404,092_m_m_n_a.png,O,None,2002,5,1,2857.9000000059605,234010.19999998808,7060,NNB,C,4
1,prac,1,1.0,1-Back,0,z,Mon Feb 24 2025 15:01:01 GMT-0600 (Central Standard Time),239650.29999998212,092_m_m_n_a.png,O,None,2005,6,1,2773.699999988079,236876.59999999404,7060,NNB,C,5
1,prac,1,0.0,1-Back,0,m,Mon Feb 24 2025 15:01:01 GMT-0600 (Central Standard Time),242550.0,130_o_f_n_a.png,O,None,2010,7,1,2890.600000023842,239659.39999997616,7060,NNB,C,6
1,prac,1,0.0,1-Back,0,m,Mon Feb 24 2025 15:01:01 GMT-0600 (Central Standard Time),245432.19999998808,082_m_m_n_a.png,O,None,2011,8,1,2873.4000000059605,242558.79999998212,7060,NNB,C,7
1,prac,1,0.0,1-Back,0,m,Mon Feb 24 2025 15:01:01 GMT-0600 (Central Standard Time),248297.09999999404,093_m_f_n_a.png,O,None,2005,9,1,2857.0999999940395,245440.0,7060,NNB,C,8
1,prac,1,1.0,1-Back,0,z,Mon Feb 24 2025 15:01:01 GMT-0600 (Central Standard Time),251079.89999997616,093_m_f_n_a.png,O,None,2007,10,1,2774.5,248305.39999997616,7060,NNB,C,9
2,prac,1,0.0,1-Back,1,m,Mon Feb 24 2025 15:01:01 GMT-0600 (Central Standard Time),252863.09999999404,059_o_m_n_a.png,O,m,1006,11,1,1773.300000011921,251089.79999998212,7060,NNB,C,10
3,prac,1,0.0,1-Back,1,m,Mon Feb 24 2025 15:01:01 GMT-0600 (Central Standard Time),254644.79999998212,028_y_f_n_a.png,O,m,917,12,1,1774.4000000059605,252870.39999997616,7060,NNB,C,11
0,test,1,0.0,1-Back,,,Mon Feb 24 2025 15:01:01 GMT-0600 (Central Standard Time),254644.79999998212,098_y_f_n_a.png,O,space,2036,1,1,1774.4000000059605,252870.39999997616,7060,NNB,C,0
1,test,1,0.0,1-Back,1,m,Mon Feb 24 2025 15:01:01 GMT-0600 (Central Standard Time),271139.5,006_m_f_n_a.png,O,m,800,2,1,1825.6000000238419,269313.89999997616,7060,NNB,C,1
2,test,1,0.0,1-Back,1,m,Mon Feb 24 2025 15:01:01 GMT-0600 (Central Standard Time),273523.5,028_y_f_n_a.png,O,m,1353,3,1,2377.5,271146.0,7060,NNB,C,2
3,test,1,1.0,1-Back,1,z,Mon Feb 24 2025 15:01:01 GMT-0600 (Central Standard Time),275287.89999997616,028_y_f_n_a.png,O,z,738,4,1,1757.199999988079,273530.6999999881,7060,NNB,C,3
4,test,1,0.0,1-Back,1,m,Mon Feb 24 2025 15:01:01 GMT-0600 (Central Standard Time),277489.0,006_m_f_n_a.png,O,m,1183,5,1,2195.0,275294.0,7060,NNB,C,4
5,test,1,0.0,1-Back,1,m,Mon Feb 24 2025 15:01:01 GMT-0600 (Central Standard Time),279188.39999997616,059_o_m_n_a.png,O,m,669,6,1,1692.7999999821186,277495.59999999404,7060,NNB,C,5
6,test,1,1.0,1-Back,1,z,Mon Feb 24 2025 15:01:01 GMT-0600 (Central Standard Time),281071.0,059_o_m_n_a.png,O,z,866,7,1,1876.4000000059605,279194.59999999404,7060,NNB,C,6
7,test,1,0.0,1-Back,1,m,Mon Feb 24 2025 15:01:01 GMT-0600 (Central Standard Time),283185.2999999821,092_m_m_n_a.png,O,m,1098,8,1,2107.699999988079,281077.59999999404,7060,NNB,C,7
8,test,1,0.0,1-Back,1,m,Mon Feb 24 2025 15:01:01 GMT-0600 (Central Standard Time),285033.6999999881,130_o_f_n_a.png,O,m,826,9,1,1842.5,283191.1999999881,7060,NNB,C,8
9,test,1,0.0,1-Back,1,m,Mon Feb 24 2025 15:01:01 GMT-0600 (Central Standard Time),286866.89999997616,092_m_m_n_a.png,O,m,809,10,1,1827.699999988079,285039.1999999881,7060,NNB,C,9
10,test,1,0.0,1-Back,1,m,Mon Feb 24 2025 15:01:01 GMT-0600 (Central Standard Time),288668.1999999881,057_y_m_n_a.png,O,m,776,11,1,1794.699999988079,286873.5,7060,NNB,C,10
11,test,1,1.0,1-Back,1,z,Mon Feb 24 2025 15:01:01 GMT-0600 (Central Standard Time),290249.6999999881,057_y_m_n_a.png,O,z,555,12,1,1574.0,288675.6999999881,7060,NNB,C,11
12,test,1,0.0,1-Back,1,m,Mon Feb 24 2025 15:01:01 GMT-0600 (Central Standard Time),292216.5,030_o_f_n_a.png,O,m,948,13,1,1959.5,290257.0,7060,NNB,C,12
13,test,1,1.0,1-Back,1,z,Mon Feb 24 2025 15:01:01 GMT-0600 (Central Standard Time),293932.39999997616,030_o_f_n_a.png,O,z,694,14,1,1708.2999999821186,292224.09999999404,7060,NNB,C,13
13,test,1,0.0,1-Back,0,m,Mon Feb 24 2025 15:01:01 GMT-0600 (Central Standard Time),296966.1999999881,031_y_m_n_a.png,O,None,2016,15,1,3027.199999988079,293939.0,7060,NNB,C,14
13,test,1,0.0,1-Back,0,m,Mon Feb 24 2025 15:01:01 GMT-0600 (Central Standard Time),298600.1999999881,093_m_f_n_a.png,O,z,609,16,1,1626.199999988079,296974.0,7060,NNB,C,15
14,test,1,0.0,1-Back,1,m,Mon Feb 24 2025 15:01:01 GMT-0600 (Central Standard Time),301062.39999997616,146_o_m_n_a.png,O,m,1440,17,1,2455.399999976158,298607.0,7060,NNB,C,16
15,test,1,0.0,1-Back,1,m,Mon Feb 24 2025 15:01:01 GMT-0600 (Central Standard Time),303230.1999999881,093_m_f_n_a.png,O,m,1143,18,1,2160.4000000059605,301069.7999999821,7060,NNB,C,17
0,test,2,0.0,1-Back,,,Mon Feb 24 2025 15:01:01 GMT-0600 (Central Standard Time),303230.1999999881,092_m_m_n_a.png,O,space,2598,1,1,2160.4000000059605,301069.7999999821,7060,NNB,C,0
1,test,2,0.0,1-Back,1,m,Mon Feb 24 2025 15:01:01 GMT-0600 (Central Standard Time),309994.59999999404,006_m_f_n_a.png,O,m,1104,2,1,2125.5999999940395,307869.0,7060,NNB,C,1
2,test,2,1.0,1-Back,1,z,Mon Feb 24 2025 15:01:01 GMT-0600 (Central Standard Time),311759.6999999881,006_m_f_n_a.png,O,z,735,3,1,1758.5,310001.1999999881,7060,NNB,C,2
3,test,2,0.0,1-Back,1,m,Mon Feb 24 2025 15:01:01 GMT-0600 (Central Standard Time),313808.5,092_m_m_n_a.png,O,m,1029,4,1,2041.7000000178814,311766.7999999821,7060,NNB,C,3
4,test,2,0.0,1-Back,1,m,Mon Feb 24 2025 15:01:01 GMT-0600 (Central Standard Time),315608.39999997616,057_y_m_n_a.png,O,m,772,5,1,1792.8999999761581,313815.5,7060,NNB,C,4
5,test,2,0.0,1-Back,1,m,Mon Feb 24 2025 15:01:01 GMT-0600 (Central Standard Time),318191.7999999821,098_y_f_n_a.png,O,m,1558,6,1,2577.0,315614.7999999821,7060,NNB,C,5
6,test,2,1.0,1-Back,1,z,Mon Feb 24 2025 15:01:01 GMT-0600 (Central Standard Time),319924.1999999881,098_y_f_n_a.png,O,z,703,7,1,1724.0999999940395,318200.09999999404,7060,NNB,C,6
6,test,2,0.0,1-Back,0,m,Mon Feb 24 2025 15:01:01 GMT-0600 (Central Standard Time),322956.09999999404,057_y_m_n_a.png,O,None,2013,8,1,3025.0999999940395,319931.0,7060,NNB,C,7
7,test,2,0.0,1-Back,1,m,Mon Feb 24 2025 15:01:01 GMT-0600 (Central Standard Time),325607.1999999881,030_o_f_n_a.png,O,m,1633,9,1,2642.0999999940395,322965.09999999404,7060,NNB,C,8
8,test,2,0.0,1-Back,1,m,Mon Feb 24 2025 15:01:01 GMT-0600 (Central Standard Time),327389.7999999821,082_m_m_n_a.png,O,m,749,10,1,1776.0,325613.7999999821,7060,NNB,C,9
9,test,2,1.0,1-Back,1,z,Mon Feb 24 2025 15:01:01 GMT-0600 (Central Standard Time),329121.39999997616,082_m_m_n_a.png,O,z,698,11,1,1724.5999999940395,327396.7999999821,7060,NNB,C,10
9,test,2,0.0,1-Back,0,m,Mon Feb 24 2025 15:01:01 GMT-0600 (Central Standard Time),332154.39999997616,030_o_f_n_a.png,O,None,2015,12,1,3025.2999999821186,329129.09999999404,7060,NNB,C,11
10,test,2,0.0,1-Back,1,m,Mon Feb 24 2025 15:01:01 GMT-0600 (Central Standard Time),334466.7999999821,130_o_f_n_a.png,O,m,1282,13,1,2305.5999999940395,332161.1999999881,7060,NNB,C,12
11,test,2,0.0,1-Back,1,m,Mon Feb 24 2025 15:01:01 GMT-0600 (Central Standard Time),336853.59999999404,059_o_m_n_a.png,O,m,1359,14,1,2382.300000011921,334471.2999999821,7060,NNB,C,13
12,test,2,0.0,1-Back,1,m,Mon Feb 24 2025 15:01:01 GMT-0600 (Central Standard Time),338633.89999997616,146_o_m_n_a.png,O,m,760,15,1,1771.0,336862.89999997616,7060,NNB,C,14
13,test,2,1.0,1-Back,1,z,Mon Feb 24 2025 15:01:01 GMT-0600 (Central Standard Time),340433.7999999821,146_o_m_n_a.png,O,z,782,16,1,1797.0,338636.7999999821,7060,NNB,C,15
14,test,2,0.0,1-Back,1,m,Mon Feb 24 2025 15:01:01 GMT-0600 (Central Standard Time),342649.6999999881,031_y_m_n_a.png,O,m,1194,17,1,2208.0999999940395,340441.59999999404,7060,NNB,C,16
14,test,2,1.0,1-Back,0,z,Mon Feb 24 2025 15:01:01 GMT-0600 (Central Standard Time),344332.39999997616,031_y_m_n_a.png,O,m,650,18,1,1675.5999999940395,342656.7999999821,7060,NNB,C,17
0,test,3,1.0,1-Back,,,Mon Feb 24 2025 15:01:01 GMT-0600 (Central Standard Time),344332.39999997616,028_y_f_n_a.png,O,space,5081,1,1,1675.5999999940395,342656.7999999821,7060,NNB,C,0
1,test,3,0.0,1-Back,1,m,Mon Feb 24 2025 15:01:01 GMT-0600 (Central Standard Time),354464.39999997616,146_o_m_n_a.png,O,m,1934,1,1,2943.5999999940395,351520.7999999821,7060,NNB,C,1
2,test,3,1.0,1-Back,1,z,Mon Feb 24 2025 15:01:01 GMT-0600 (Central Standard Time),356394.7999999821,146_o_m_n_a.png,O,z,901,1,1,1922.2999999821186,354472.5,7060,NNB,C,2
3,test,3,0.0,1-Back,1,m,Mon Feb 24 2025 15:01:01 GMT-0600 (Central Standard Time),358428.39999997616,093_m_f_n_a.png,O,m,1009,1,1,2025.5999999940395,356402.7999999821,7060,NNB,C,3
4,test,3,1.0,1-Back,1,z,Mon Feb 24 2025 15:01:01 GMT-0600 (Central Standard Time),360511.89999997616,093_m_f_n_a.png,O,z,1066,1,1,2075.7999999821186,358436.09999999404,7060,NNB,C,4
4,test,3,0.0,1-Back,0,m,Mon Feb 24 2025 15:01:01 GMT-0600 (Central Standard Time),362960.5,030_o_f_n_a.png,O,z,1421,1,1,2441.4000000059605,360519.09999999404,7060,NNB,C,5
5,test,3,0.0,1-Back,1,m,Mon Feb 24 2025 15:01:01 GMT-0600 (Central Standard Time),364760.5,057_y_m_n_a.png,O,m,782,1,1,1792.300000011921,362968.1999999881,7060,NNB,C,6
5,test,3,0.0,1-Back,0,m,Mon Feb 24 2025 15:01:01 GMT-0600 (Central Standard Time),367708.0,030_o_f_n_a.png,O,z,1925,1,1,2939.600000023842,364768.39999997616,7060,NNB,C,7
5,test,3,0.0,1-Back,0,m,Mon Feb 24 2025 15:01:01 GMT-0600 (Central Standard Time),370741.2999999821,031_y_m_n_a.png,O,None,2016,1,1,3025.699999988079,367715.59999999404,7060,NNB,C,8
5,test,3,1.0,1-Back,0,z,Mon Feb 24 2025 15:01:01 GMT-0600 (Central Standard Time),373773.6999999881,031_y_m_n_a.png,O,None,2016,1,1,3027.199999988079,370746.5,7060,NNB,C,9
6,test,3,0.0,1-Back,1,m,Mon Feb 24 2025 15:01:01 GMT-0600 (Central Standard Time),375940.1999999881,006_m_f_n_a.png,O,m,1143,1,1,2159.800000011921,373780.39999997616,7060,NNB,C,10
6,test,3,0.0,1-Back,0,m,Mon Feb 24 2025 15:01:01 GMT-0600 (Central Standard Time),378972.2999999821,098_y_f_n_a.png,O,None,2014,1,1,3024.4000000059605,375947.89999997616,7060,NNB,C,11
6,test,3,1.0,1-Back,0,z,Mon Feb 24 2025 15:01:01 GMT-0600 (Central Standard Time),382005.0,098_y_f_n_a.png,O,None,2016,1,1,3024.7000000178814,378980.2999999821,7060,NNB,C,12
6,test,3,0.0,1-Back,0,m,Mon Feb 24 2025 15:01:01 GMT-0600 (Central Standard Time),385036.6999999881,006_m_f_n_a.png,O,None,2014,1,1,3026.199999988079,382010.5,7060,NNB,C,13
7,test,3,0.0,1-Back,1,m,Mon Feb 24 2025 15:01:01 GMT-0600 (Central Standard Time),387085.0,092_m_m_n_a.png,O,m,1017,1,1,2042.4000000059605,385042.59999999404,7060,NNB,C,14
7,test,3,1.0,1-Back,0,z,Mon Feb 24 2025 15:01:01 GMT-0600 (Central Standard Time),388885.0,092_m_m_n_a.png,O,m,765,1,1,1791.6000000238419,387093.39999997616,7060,NNB,C,15
8,test,3,0.0,1-Back,1,m,Mon Feb 24 2025 15:01:01 GMT-0600 (Central Standard Time),390768.09999999404,130_o_f_n_a.png,O,m,855,1,1,1877.2000000178814,388890.89999997616,7060,NNB,C,16
8,test,3,1.0,1-Back,0,z,Mon Feb 24 2025 15:01:01 GMT-0600 (Central Standard Time),392617.1999999881,130_o_f_n_a.png,O,m,832,1,1,1841.4000000059605,390775.7999999821,7060,NNB,C,17
0,test,4,1.0,1-Back,,,Mon Feb 24 2025 15:01:01 GMT-0600 (Central Standard Time),392617.1999999881,093_m_f_n_a.png,O,space,5583,1,1,1841.4000000059605,390775.7999999821,7060,NNB,C,0
0,test,4,0.0,1-Back,0,m,Mon Feb 24 2025 15:01:01 GMT-0600 (Central Standard Time),403331.09999999404,146_o_m_n_a.png,O,None,2015,2,1,3025.7000000178814,400305.39999997616,7060,NNB,C,1
1,test,4,0.0,1-Back,1,m,Mon Feb 24 2025 15:01:01 GMT-0600 (Central Standard Time),405130.0,093_m_f_n_a.png,O,m,770,3,1,1791.9000000059605,403338.09999999404,7060,NNB,C,2
2,test,4,0.0,1-Back,1,m,Mon Feb 24 2025 15:01:01 GMT-0600 (Central Standard Time),406861.59999999404,030_o_f_n_a.png,O,m,705,4,1,1724.0999999940395,405137.5,7060,NNB,C,3
3,test,4,1.0,1-Back,1,z,Mon Feb 24 2025 15:01:01 GMT-0600 (Central Standard Time),408712.2999999821,030_o_f_n_a.png,O,z,830,5,1,1843.9000000059605,406868.39999997616,7060,NNB,C,4
4,test,4,0.0,1-Back,1,m,Mon Feb 24 2025 15:01:01 GMT-0600 (Central Standard Time),410862.5,098_y_f_n_a.png,O,m,1116,6,1,2143.800000011921,408718.6999999881,7060,NNB,C,5
5,test,4,0.0,1-Back,1,m,Mon Feb 24 2025 15:01:01 GMT-0600 (Central Standard Time),412943.5,057_y_m_n_a.png,O,m,1064,7,1,2076.9000000059605,410866.59999999404,7060,NNB,C,6
6,test,4,1.0,1-Back,1,z,Mon Feb 24 2025 15:01:01 GMT-0600 (Central Standard Time),414577.6999999881,057_y_m_n_a.png,O,z,611,8,1,1626.9000000059605,412950.7999999821,7060,NNB,C,7
7,test,4,0.0,1-Back,1,m,Mon Feb 24 2025 15:01:01 GMT-0600 (Central Standard Time),416527.39999997616,098_y_f_n_a.png,O,m,933,9,1,1943.0,414584.39999997616,7060,NNB,C,8
8,test,4,0.0,1-Back,1,m,Mon Feb 24 2025 15:01:01 GMT-0600 (Central Standard Time),418442.6999999881,082_m_m_n_a.png,O,m,894,10,1,1906.699999988079,416536.0,7060,NNB,C,9
9,test,4,1.0,1-Back,1,z,Mon Feb 24 2025 15:01:01 GMT-0600 (Central Standard Time),420625.0,082_m_m_n_a.png,O,z,1161,11,1,2174.600000023842,418450.39999997616,7060,NNB,C,10
10,test,4,0.0,1-Back,1,m,Mon Feb 24 2025 15:01:01 GMT-0600 (Central Standard Time),423140.59999999404,130_o_f_n_a.png,O,m,1491,12,1,2508.9000000059605,420631.6999999881,7060,NNB,C,11
11,test,4,0.0,1-Back,1,m,Mon Feb 24 2025 15:01:01 GMT-0600 (Central Standard Time),425089.6999999881,059_o_m_n_a.png,O,m,918,13,1,1940.5999999940395,423149.09999999404,7060,NNB,C,12
12,test,4,0.0,1-Back,1,m,Mon Feb 24 2025 15:01:01 GMT-0600 (Central Standard Time),426940.89999997616,130_o_f_n_a.png,O,m,833,14,1,1843.7999999821186,425097.09999999404,7060,NNB,C,13
13,test,4,0.0,1-Back,1,m,Mon Feb 24 2025 15:01:01 GMT-0600 (Central Standard Time),429206.39999997616,028_y_f_n_a.png,O,m,1240,15,1,2260.5,426945.89999997616,7060,NNB,C,14
14,test,4,1.0,1-Back,1,z,Mon Feb 24 2025 15:01:01 GMT-0600 (Central Standard Time),430921.59999999404,028_y_f_n_a.png,O,z,688,16,1,1707.9000000059605,429213.6999999881,7060,NNB,C,15
15,test,4,0.0,1-Back,1,m,Mon Feb 24 2025 15:01:01 GMT-0600 (Central Standard Time),433170.59999999404,006_m_f_n_a.png,O,m,1226,17,1,2243.9000000059605,430926.6999999881,7060,NNB,C,16
16,test,4,1.0,1-Back,1,z,Mon Feb 24 2025 15:01:01 GMT-0600 (Central Standard Time),435055.09999999404,006_m_f_n_a.png,O,z,857,18,1,1878.4000000059605,433176.6999999881,7060,NNB,C,17
0,test,5,1.0,1-Back,,,Mon Feb 24 2025 15:01:01 GMT-0600 (Central Standard Time),435055.09999999404,059_o_m_n_a.png,O,space,1894,1,1,1878.4000000059605,433176.6999999881,7060,NNB,C,0
1,test,5,1.0,1-Back,1,z,Mon Feb 24 2025 15:01:01 GMT-0600 (Central Standard Time),441252.6999999881,059_o_m_n_a.png,O,z,1260,2,1,2276.300000011921,438976.39999997616,7060,NNB,C,1
1,test,5,0.0,1-Back,0,m,Mon Feb 24 2025 15:01:01 GMT-0600 (Central Standard Time),444284.39999997616,098_y_f_n_a.png,O,None,2014,3,1,3022.899999976158,441261.5,7060,NNB,C,2
2,test,5,0.0,1-Back,1,m,Mon Feb 24 2025 15:01:01 GMT-0600 (Central Standard Time),446150.0,057_y_m_n_a.png,O,m,831,4,1,1860.7000000178814,444289.2999999821,7060,NNB,C,3
3,test,5,0.0,1-Back,1,m,Mon Feb 24 2025 15:01:01 GMT-0600 (Central Standard Time),448599.1999999881,098_y_f_n_a.png,O,m,1415,5,1,2443.5,446155.6999999881,7060,NNB,C,4
4,test,5,0.0,1-Back,1,m,Mon Feb 24 2025 15:01:01 GMT-0600 (Central Standard Time),450249.0,092_m_m_n_a.png,O,m,630,6,1,1642.7000000178814,448606.2999999821,7060,NNB,C,5
5,test,5,1.0,1-Back,1,z,Mon Feb 24 2025 15:01:01 GMT-0600 (Central Standard Time),452065.0,092_m_m_n_a.png,O,z,799,7,1,1808.800000011921,450256.1999999881,7060,NNB,C,6
6,test,5,0.0,1-Back,1,m,Mon Feb 24 2025 15:01:01 GMT-0600 (Central Standard Time),454296.6999999881,028_y_f_n_a.png,O,m,1210,8,1,2226.300000011921,452070.39999997616,7060,NNB,C,7
7,test,5,0.0,1-Back,1,m,Mon Feb 24 2025 15:01:01 GMT-0600 (Central Standard Time),456097.59999999404,031_y_m_n_a.png,O,m,772,9,1,1797.800000011921,454299.7999999821,7060,NNB,C,8
7,test,5,0.0,1-Back,0,m,Mon Feb 24 2025 15:01:01 GMT-0600 (Central Standard Time),457863.1999999881,028_y_f_n_a.png,O,z,740,10,1,1758.300000011921,456104.89999997616,7060,NNB,C,9
8,test,5,0.0,1-Back,1,m,Mon Feb 24 2025 15:01:01 GMT-0600 (Central Standard Time),459896.09999999404,130_o_f_n_a.png,O,m,1004,11,1,2026.0,457870.09999999404,7060,NNB,C,10
9,test,5,1.0,1-Back,1,z,Mon Feb 24 2025 15:01:01 GMT-0600 (Central Standard Time),462495.0,130_o_f_n_a.png,O,z,1572,12,1,2591.7000000178814,459903.2999999821,7060,NNB,C,11
10,test,5,0.0,1-Back,1,m,Mon Feb 24 2025 15:01:01 GMT-0600 (Central Standard Time),464544.5,146_o_m_n_a.png,O,m,1022,13,1,2043.0,462501.5,7060,NNB,C,12
11,test,5,0.0,1-Back,1,m,Mon Feb 24 2025 15:01:01 GMT-0600 (Central Standard Time),466343.09999999404,093_m_f_n_a.png,O,m,779,14,1,1791.5,464551.59999999404,7060,NNB,C,13
12,test,5,1.0,1-Back,1,z,Mon Feb 24 2025 15:01:01 GMT-0600 (Central Standard Time),468628.0,093_m_f_n_a.png,O,z,1261,15,1,2278.7000000178814,466349.2999999821,7060,NNB,C,14
13,test,5,0.0,1-Back,1,m,Mon Feb 24 2025 15:01:01 GMT-0600 (Central Standard Time),470474.09999999404,146_o_m_n_a.png,O,m,824,16,1,1837.2000000178814,468636.89999997616,7060,NNB,C,15
14,test,5,0.0,1-Back,1,m,Mon Feb 24 2025 15:01:01 GMT-0600 (Central Standard Time),472925.59999999404,006_m_f_n_a.png,O,m,1416,17,1,2448.7000000178814,470476.89999997616,7060,NNB,C,16
15,test,5,0.0,1-Back,1,m,Mon Feb 24 2025 15:01:01 GMT-0600 (Central Standard Time),474725.0,082_m_m_n_a.png,O,m,767,18,1,1790.9000000059605,472934.09999999404,7060,NNB,C,17
0,prac,1,0.0,2-Back,,,Mon Feb 24 2025 15:01:01 GMT-0600 (Central Standard Time),474725.0,031_y_m_n_a.png,O,space,3065,1,1,1790.9000000059605,472934.09999999404,7060,NNB,C,0
0,prac,1,0.0,2-Back,,,Mon Feb 24 2025 15:01:01 GMT-0600 (Central Standard Time),474725.0,006_m_f_n_a.png,O,space,3065,2,1,1790.9000000059605,472934.09999999404,7060,NNB,C,0
1,prac,1,1.0,2-Back,1,m,Mon Feb 24 2025 15:01:01 GMT-0600 (Central Standard Time),625443.2999999821,146_o_m_n_a.png,O,m,1717,3,1,2592.0999999940395,622851.1999999881,7060,NNB,C,1
1,prac,1,0.0,2-Back,0,m,Mon Feb 24 2025 15:01:01 GMT-0600 (Central Standard Time),628326.099999994,130_o_f_n_a.png,O,None,2001,4,1,2875.0,625451.099999994,7060,NNB,C,2
1,prac,1,0.0,2-Back,0,z,Mon Feb 24 2025 15:01:01 GMT-0600 (Central Standard Time),631109.1999999881,146_o_m_n_a.png,O,None,2007,5,1,2773.5,628335.6999999881,7060,NNB,C,3
2,prac,1,1.0,2-Back,1,z,Mon Feb 24 2025 15:01:01 GMT-0600 (Central Standard Time),633324.6999999881,130_o_f_n_a.png,O,z,1441,6,1,2207.0999999940395,631117.599999994,7060,NNB,C,4
3,prac,1,0.0,2-Back,1,m,Mon Feb 24 2025 15:01:01 GMT-0600 (Central Standard Time),635639.8999999762,082_m_m_n_a.png,O,m,1451,7,1,2306.399999976158,633333.5,7060,NNB,C,5
4,prac,1,0.0,2-Back,1,m,Mon Feb 24 2025 15:01:01 GMT-0600 (Central Standard Time),638072.8999999762,059_o_m_n_a.png,O,m,1554,8,1,2425.5,635647.3999999762,7060,NNB,C,6
4,prac,1,0.0,2-Back,0,m,Mon Feb 24 2025 15:01:01 GMT-0600 (Central Standard Time),640622.8999999762,028_y_f_n_a.png,O,z,1691,9,1,2540.0999999940395,638082.7999999821,7060,NNB,C,7
4,prac,1,1.0,2-Back,0,z,Mon Feb 24 2025 15:01:01 GMT-0600 (Central Standard Time),643404.1999999881,059_o_m_n_a.png,O,None,2006,10,1,2772.5999999940395,640631.599999994,7060,NNB,C,8
5,prac,1,0.0,2-Back,1,m,Mon Feb 24 2025 15:01:01 GMT-0600 (Central Standard Time),645701.7999999821,098_y_f_n_a.png,O,m,1439,11,1,2289.7999999821186,643412.0,7060,NNB,C,9
5,prac,1,0.0,2-Back,0,m,Mon Feb 24 2025 15:01:01 GMT-0600 (Central Standard Time),648370.5,082_m_m_n_a.png,O,z,1890,12,1,2661.4000000059605,645709.099999994,7060,NNB,C,10
0,test,1,0.0,2-Back,,,Mon Feb 24 2025 15:01:01 GMT-0600 (Central Standard Time),648370.5,057_y_m_n_a.png,O,space,1415,1,1,2661.4000000059605,645709.099999994,7060,NNB,C,0
0,test,1,0.0,2-Back,,,Mon Feb 24 2025 15:01:01 GMT-0600 (Central Standard Time),648370.5,057_y_m_n_a.png,O,space,1415,2,1,2661.4000000059605,645709.099999994,7060,NNB,C,0
0,test,1,0.0,2-Back,0,m,Mon Feb 24 2025 15:01:01 GMT-0600 (Central Standard Time),665930.3999999762,130_o_f_n_a.png,O,None,2014,3,1,3023.5,662906.8999999762,7060,NNB,C,1
1,test,1,0.0,2-Back,1,m,Mon Feb 24 2025 15:01:01 GMT-0600 (Central Standard Time),668447.8999999762,092_m_m_n_a.png,O,m,1498,4,1,2511.0,665936.8999999762,7060,NNB,C,2
2,test,1,1.0,2-Back,1,z,Mon Feb 24 2025 15:01:01 GMT-0600 (Central Standard Time),671081.099999994,130_o_f_n_a.png,O,z,1616,5,1,2630.0,668451.099999994,7060,NNB,C,3
3,test,1,0.0,2-Back,1,m,Mon Feb 24 2025 15:01:01 GMT-0600 (Central Standard Time),673279.0,098_y_f_n_a.png,O,m,1165,6,1,2191.5,671087.5,7060,NNB,C,4
4,test,1,0.0,2-Back,1,m,Mon Feb 24 2025 15:01:01 GMT-0600 (Central Standard Time),676143.7999999821,092_m_m_n_a.png,O,m,1847,7,1,2857.4000000059605,673286.3999999762,7060,NNB,C,5
5,test,1,1.0,2-Back,1,z,Mon Feb 24 2025 15:01:01 GMT-0600 (Central Standard Time),678194.3999999762,098_y_f_n_a.png,O,z,1021,8,1,2046.0,676148.3999999762,7060,NNB,C,6
6,test,1,0.0,2-Back,1,m,Mon Feb 24 2025 15:01:01 GMT-0600 (Central Standard Time),681207.6999999881,031_y_m_n_a.png,O,m,1996,9,1,3004.699999988079,678203.0,7060,NNB,C,7
7,test,1,0.0,2-Back,1,m,Mon Feb 24 2025 15:01:01 GMT-0600 (Central Standard Time),683494.099999994,030_o_f_n_a.png,O,m,1259,10,1,2280.800000011921,681213.2999999821,7060,NNB,C,8
8,test,1,1.0,2-Back,1,z,Mon Feb 24 2025 15:01:01 GMT-0600 (Central Standard Time),685291.099999994,031_y_m_n_a.png,O,z,777,11,1,1789.0999999940395,683502.0,7060,NNB,C,9
9,test,1,0.0,2-Back,1,m,Mon Feb 24 2025 15:01:01 GMT-0600 (Central Standard Time),687374.5,006_m_f_n_a.png,O,m,1049,12,1,2076.2000000178814,685298.2999999821,7060,NNB,C,10
9,test,1,0.0,2-Back,0,m,Mon Feb 24 2025 15:01:01 GMT-0600 (Central Standard Time),689991.0,006_m_f_n_a.png,O,z,1598,13,1,2609.800000011921,687381.1999999881,7060,NNB,C,11
10,test,1,0.0,2-Back,1,m,Mon Feb 24 2025 15:01:01 GMT-0600 (Central Standard Time),692372.3999999762,146_o_m_n_a.png,O,m,1359,14,1,2375.0999999940395,689997.2999999821,7060,NNB,C,12
11,test,1,0.0,2-Back,1,m,Mon Feb 24 2025 15:01:01 GMT-0600 (Central Standard Time),694655.2999999821,030_o_f_n_a.png,O,m,1257,15,1,2276.699999988079,692378.599999994,7060,NNB,C,13
12,test,1,1.0,2-Back,1,z,Mon Feb 24 2025 15:01:01 GMT-0600 (Central Standard Time),696568.3999999762,146_o_m_n_a.png,O,z,893,16,1,1906.7999999821186,694661.599999994,7060,NNB,C,14
13,test,1,0.0,2-Back,1,m,Mon Feb 24 2025 15:01:01 GMT-0600 (Central Standard Time),698504.7999999821,093_m_f_n_a.png,O,m,915,17,1,1933.2999999821186,696571.5,7060,NNB,C,15
14,test,1,0.0,2-Back,1,m,Mon Feb 24 2025 15:01:01 GMT-0600 (Central Standard Time),700652.6999999881,082_m_m_n_a.png,O,m,1126,18,1,2139.4000000059605,698513.2999999821,7060,NNB,C,16
0,test,2,0.0,2-Back,,,Mon Feb 24 2025 15:01:01 GMT-0600 (Central Standard Time),700652.6999999881,082_m_m_n_a.png,O,space,1593,1,1,2139.4000000059605,698513.2999999821,7060,NNB,C,0
0,test,2,0.0,2-Back,,,Mon Feb 24 2025 15:01:01 GMT-0600 (Central Standard Time),700652.6999999881,028_y_f_n_a.png,O,space,1593,2,1,2139.4000000059605,698513.2999999821,7060,NNB,C,0
1,test,2,1.0,2-Back,1,z,Mon Feb 24 2025 15:01:01 GMT-0600 (Central Standard Time),710251.6999999881,082_m_m_n_a.png,O,z,1836,3,1,2859.4000000059605,707392.2999999821,7060,NNB,C,1
2,test,2,0.0,2-Back,1,m,Mon Feb 24 2025 15:01:01 GMT-0600 (Central Standard Time),712265.2999999821,093_m_f_n_a.png,O,m,995,4,1,2006.0,710259.2999999821,7060,NNB,C,2
3,test,2,0.0,2-Back,1,m,Mon Feb 24 2025 15:01:01 GMT-0600 (Central Standard Time),714648.3999999762,028_y_f_n_a.png,O,m,1355,5,1,2376.0999999940395,712272.2999999821,7060,NNB,C,3
3,test,2,0.0,2-Back,0,m,Mon Feb 24 2025 15:01:01 GMT-0600 (Central Standard Time),717332.1999999881,146_o_m_n_a.png,O,z,1660,6,1,2676.699999988079,714655.5,7060,NNB,C,4
4,test,2,0.0,2-Back,1,m,Mon Feb 24 2025 15:01:01 GMT-0600 (Central Standard Time),719563.7999999821,098_y_f_n_a.png,O,m,1209,7,1,2224.0,717339.7999999821,7060,NNB,C,5
4,test,2,1.0,2-Back,0,z,Mon Feb 24 2025 15:01:01 GMT-0600 (Central Standard Time),722597.2999999821,146_o_m_n_a.png,O,None,2017,8,1,3025.7999999821186,719571.5,7060,NNB,C,6
5,test,2,0.0,2-Back,1,m,Mon Feb 24 2025 15:01:01 GMT-0600 (Central Standard Time),724728.7999999821,031_y_m_n_a.png,O,m,1114,9,1,2124.199999988079,722604.599999994,7060,NNB,C,7
5,test,2,0.0,2-Back,0,m,Mon Feb 24 2025 15:01:01 GMT-0600 (Central Standard Time),726896.099999994,031_y_m_n_a.png,O,z,1150,10,1,2158.800000011921,724737.2999999821,7060,NNB,C,8
5,test,2,0.0,2-Back,0,m,Mon Feb 24 2025 15:01:01 GMT-0600 (Central Standard Time),729927.5,006_m_f_n_a.png,O,None,2015,11,1,3022.9000000059605,726904.599999994,7060,NNB,C,9
6,test,2,0.0,2-Back,1,m,Mon Feb 24 2025 15:01:01 GMT-0600 (Central Standard Time),732226.599999994,028_y_f_n_a.png,O,m,1270,12,1,2293.2000000178814,729933.3999999762,7060,NNB,C,10
6,test,2,1.0,2-Back,0,z,Mon Feb 24 2025 15:01:01 GMT-0600 (Central Standard Time),735259.2999999821,006_m_f_n_a.png,O,None,2015,13,1,3026.199999988079,732233.099999994,7060,NNB,C,11
7,test,2,0.0,2-Back,1,m,Mon Feb 24 2025 15:01:01 GMT-0600 (Central Standard Time),737541.099999994,059_o_m_n_a.png,O,m,1248,14,1,2273.9000000059605,735267.1999999881,7060,NNB,C,12
7,test,2,0.0,2-Back,0,m,Mon Feb 24 2025 15:01:01 GMT-0600 (Central Standard Time),739890.2999999821,059_o_m_n_a.png,O,z,1320,15,1,2341.2999999821186,737549.0,7060,NNB,C,13
8,test,2,0.0,2-Back,1,m,Mon Feb 24 2025 15:01:01 GMT-0600 (Central Standard Time),741839.099999994,030_o_f_n_a.png,O,m,930,16,1,1941.4000000059605,739897.6999999881,7060,NNB,C,14
9,test,2,0.0,2-Back,1,m,Mon Feb 24 2025 15:01:01 GMT-0600 (Central Standard Time),743688.6999999881,092_m_m_n_a.png,O,m,821,17,1,1841.699999988079,741847.0,7060,NNB,C,15
10,test,2,1.0,2-Back,1,z,Mon Feb 24 2025 15:01:01 GMT-0600 (Central Standard Time),745887.8999999762,030_o_f_n_a.png,O,z,1173,18,1,2192.0999999940395,743695.7999999821,7060,NNB,C,16
0,test,3,1.0,2-Back,,,Mon Feb 24 2025 15:01:01 GMT-0600 (Central Standard Time),745887.8999999762,057_y_m_n_a.png,O,space,1710,1,1,2192.0999999940395,743695.7999999821,7060,NNB,C,0
0,test,3,1.0,2-Back,,,Mon Feb 24 2025 15:01:01 GMT-0600 (Central Standard Time),745887.8999999762,057_y_m_n_a.png,O,space,1710,2,1,2192.0999999940395,743695.7999999821,7060,NNB,C,0
1,test,3,0.0,2-Back,1,m,Mon Feb 24 2025 15:01:01 GMT-0600 (Central Standard Time),754750.0,030_o_f_n_a.png,O,m,971,3,1,1991.300000011921,752758.6999999881,7060,NNB,C,1
2,test,3,0.0,2-Back,1,m,Mon Feb 24 2025 15:01:01 GMT-0600 (Central Standard Time),756752.8999999762,082_m_m_n_a.png,O,m,982,4,1,1996.5999999940395,754756.2999999821,7060,NNB,C,2
3,test,3,1.0,2-Back,1,z,Mon Feb 24 2025 15:01:01 GMT-0600 (Central Standard Time),758552.6999999881,030_o_f_n_a.png,O,z,783,5,1,1794.800000011921,756757.8999999762,7060,NNB,C,3
4,test,3,0.0,2-Back,1,m,Mon Feb 24 2025 15:01:01 GMT-0600 (Central Standard Time),760584.8999999762,031_y_m_n_a.png,O,m,1016,6,1,2027.2999999821186,758557.599999994,7060,NNB,C,4
5,test,3,0.0,2-Back,1,m,Mon Feb 24 2025 15:01:01 GMT-0600 (Central Standard Time),762766.6999999881,082_m_m_n_a.png,O,m,1157,7,1,2174.4000000059605,760592.2999999821,7060,NNB,C,5
6,test,3,1.0,2-Back,1,z,Mon Feb 24 2025 15:01:01 GMT-0600 (Central Standard Time),764631.6999999881,031_y_m_n_a.png,O,z,839,8,1,1856.800000011921,762774.8999999762,7060,NNB,C,6
7,test,3,0.0,2-Back,1,m,Mon Feb 24 2025 15:01:01 GMT-0600 (Central Standard Time),766682.3999999762,028_y_f_n_a.png,O,m,1029,9,1,2044.0,764638.3999999762,7060,NNB,C,7
8,test,3,0.0,2-Back,1,m,Mon Feb 24 2025 15:01:01 GMT-0600 (Central Standard Time),768398.5,092_m_m_n_a.png,O,m,690,10,1,1708.4000000059605,766690.099999994,7060,NNB,C,8
9,test,3,1.0,2-Back,1,z,Mon Feb 24 2025 15:01:01 GMT-0600 (Central Standard Time),770047.3999999762,028_y_f_n_a.png,O,z,622,11,1,1641.699999988079,768405.6999999881,7060,NNB,C,9
9,test,3,1.0,2-Back,0,z,Mon Feb 24 2025 15:01:01 GMT-0600 (Central Standard Time),773079.1999999881,092_m_m_n_a.png,O,None,2013,12,1,3024.9000000059605,770054.2999999821,7060,NNB,C,10
10,test,3,0.0,2-Back,1,m,Mon Feb 24 2025 15:01:01 GMT-0600 (Central Standard Time),775197.599999994,030_o_f_n_a.png,O,m,1084,13,1,2110.7000000178814,773086.8999999762,7060,NNB,C,11
11,test,3,0.0,2-Back,1,m,Mon Feb 24 2025 15:01:01 GMT-0600 (Central Standard Time),776994.7999999821,093_m_f_n_a.png,O,m,768,14,1,1790.199999988079,775204.599999994,7060,NNB,C,12
12,test,3,0.0,2-Back,1,m,Mon Feb 24 2025 15:01:01 GMT-0600 (Central Standard Time),779061.5,146_o_m_n_a.png,O,m,1033,15,1,2059.300000011921,777002.1999999881,7060,NNB,C,13
13,test,3,1.0,2-Back,1,z,Mon Feb 24 2025 15:01:01 GMT-0600 (Central Standard Time),780960.1999999881,093_m_f_n_a.png,O,z,870,16,1,1891.0999999940395,779069.099999994,7060,NNB,C,14
14,test,3,0.0,2-Back,1,m,Mon Feb 24 2025 15:01:01 GMT-0600 (Central Standard Time),782694.7999999821,130_o_f_n_a.png,O,m,716,17,1,1727.9000000059605,780966.8999999762,7060,NNB,C,15
15,test,3,0.0,2-Back,1,m,Mon Feb 24 2025 15:01:01 GMT-0600 (Central Standard Time),785608.8999999762,130_o_f_n_a.png,O,m,1893,18,1,2906.7999999821186,782702.099999994,7060,NNB,C,16
0,test,4,0.0,2-Back,,,Mon Feb 24 2025 15:01:01 GMT-0600 (Central Standard Time),785608.8999999762,059_o_m_n_a.png,O,space,1483,1,1,2906.7999999821186,782702.099999994,7060,NNB,C,0
0,test,4,0.0,2-Back,,,Mon Feb 24 2025 15:01:01 GMT-0600 (Central Standard Time),785608.8999999762,098_y_f_n_a.png,O,space,1483,2,1,2906.7999999821186,782702.099999994,7060,NNB,C,0
1,test,4,1.0,2-Back,1,z,Mon Feb 24 2025 15:01:01 GMT-0600 (Central Standard Time),794322.3999999762,059_o_m_n_a.png,O,z,977,3,1,1992.5,792329.8999999762,7060,NNB,C,1
1,test,4,1.0,2-Back,0,z,Mon Feb 24 2025 15:01:01 GMT-0600 (Central Standard Time),797356.6999999881,098_y_f_n_a.png,O,None,2015,4,1,3027.0999999940395,794329.599999994,7060,NNB,C,2
2,test,4,0.0,2-Back,1,m,Mon Feb 24 2025 15:01:01 GMT-0600 (Central Standard Time),799338.8999999762,030_o_f_n_a.png,O,m,953,5,1,1977.2999999821186,797361.599999994,7060,NNB,C,3
3,test,4,0.0,2-Back,1,m,Mon Feb 24 2025 15:01:01 GMT-0600 (Central Standard Time),802104.1999999881,030_o_f_n_a.png,O,m,1731,6,1,2757.5,799346.6999999881,7060,NNB,C,4
4,test,4,0.0,2-Back,1,m,Mon Feb 24 2025 15:01:01 GMT-0600 (Central Standard Time),804470.1999999881,006_m_f_n_a.png,O,m,1340,7,1,2358.4000000059605,802111.7999999821,7060,NNB,C,5
5,test,4,0.0,2-Back,1,m,Mon Feb 24 2025 15:01:01 GMT-0600 (Central Standard Time),806519.3999999762,031_y_m_n_a.png,O,m,1023,8,1,2044.699999988079,804474.6999999881,7060,NNB,C,6
6,test,4,1.0,2-Back,1,z,Mon Feb 24 2025 15:01:01 GMT-0600 (Central Standard Time),808536.2999999821,006_m_f_n_a.png,O,z,999,9,1,2010.4000000059605,806525.8999999762,7060,NNB,C,7
7,test,4,0.0,2-Back,1,m,Mon Feb 24 2025 15:01:01 GMT-0600 (Central Standard Time),810401.599999994,092_m_m_n_a.png,O,m,848,10,1,1860.300000011921,808541.2999999821,7060,NNB,C,8
8,test,4,0.0,2-Back,1,m,Mon Feb 24 2025 15:01:01 GMT-0600 (Central Standard Time),812466.5,031_y_m_n_a.png,O,m,1034,11,1,2058.7000000178814,810407.7999999821,7060,NNB,C,9
9,test,4,0.0,2-Back,1,m,Mon Feb 24 2025 15:01:01 GMT-0600 (Central Standard Time),814517.1999999881,130_o_f_n_a.png,O,m,1018,12,1,2043.699999988079,812473.5,7060,NNB,C,10
10,test,4,0.0,2-Back,1,m,Mon Feb 24 2025 15:01:01 GMT-0600 (Central Standard Time),817181.5,057_y_m_n_a.png,O,m,1632,13,1,2658.100000023842,814523.3999999762,7060,NNB,C,11
10,test,4,1.0,2-Back,0,z,Mon Feb 24 2025 15:01:01 GMT-0600 (Central Standard Time),819514.6999999881,130_o_f_n_a.png,O,m,1301,14,1,2330.0999999940395,817184.599999994,7060,NNB,C,12
11,test,4,1.0,2-Back,1,z,Mon Feb 24 2025 15:01:01 GMT-0600 (Central Standard Time),821796.3999999762,057_y_m_n_a.png,O,z,1248,15,1,2274.2999999821186,819522.099999994,7060,NNB,C,13
12,test,4,0.0,2-Back,1,m,Mon Feb 24 2025 15:01:01 GMT-0600 (Central Standard Time),823947.099999994,082_m_m_n_a.png,O,m,1117,16,1,2143.9000000059605,821803.1999999881,7060,NNB,C,14
13,test,4,0.0,2-Back,1,m,Mon Feb 24 2025 15:01:01 GMT-0600 (Central Standard Time),826146.6999999881,093_m_f_n_a.png,O,m,1167,17,1,2192.699999988079,823954.0,7060,NNB,C,15
14,test,4,1.0,2-Back,1,z,Mon Feb 24 2025 15:01:01 GMT-0600 (Central Standard Time),828233.7999999821,082_m_m_n_a.png,O,z,1052,18,1,2079.5999999940395,826154.1999999881,7060,NNB,C,16
0,test,5,1.0,2-Back,,,Mon Feb 24 2025 15:01:01 GMT-0600 (Central Standard Time),828233.7999999821,057_y_m_n_a.png,O,space,1308,1,1,2079.5999999940395,826154.1999999881,7060,NNB,C,0
0,test,5,1.0,2-Back,,,Mon Feb 24 2025 15:01:01 GMT-0600 (Central Standard Time),828233.7999999821,093_m_f_n_a.png,O,space,1308,2,1,2079.5999999940395,826154.1999999881,7060,NNB,C,0
1,test,5,1.0,2-Back,1,z,Mon Feb 24 2025 15:01:01 GMT-0600 (Central Standard Time),837409.3999999762,057_y_m_n_a.png,O,z,1782,3,1,2807.5999999940395,834601.7999999821,7060,NNB,C,1
1,test,5,1.0,2-Back,0,z,Mon Feb 24 2025 15:01:01 GMT-0600 (Central Standard Time),839674.3999999762,093_m_f_n_a.png,O,m,1243,4,1,2259.0,837415.3999999762,7060,NNB,C,2
2,test,5,0.0,2-Back,1,m,Mon Feb 24 2025 15:01:01 GMT-0600 (Central Standard Time),841724.7999999821,130_o_f_n_a.png,O,m,1016,5,1,2044.9000000059605,839679.8999999762,7060,NNB,C,3
3,test,5,0.0,2-Back,1,m,Mon Feb 24 2025 15:01:01 GMT-0600 (Central Standard Time),843890.5,057_y_m_n_a.png,O,m,1143,6,1,2159.4000000059605,841731.099999994,7060,NNB,C,4
3,test,5,0.0,2-Back,0,m,Mon Feb 24 2025 15:01:01 GMT-0600 (Central Standard Time),845792.5,028_y_f_n_a.png,O,z,884,7,1,1894.7000000178814,843897.7999999821,7060,NNB,C,5
4,test,5,0.0,2-Back,1,m,Mon Feb 24 2025 15:01:01 GMT-0600 (Central Standard Time),848006.5,130_o_f_n_a.png,O,m,1192,8,1,2207.600000023842,845798.8999999762,7060,NNB,C,6
5,test,5,1.0,2-Back,1,z,Mon Feb 24 2025 15:01:01 GMT-0600 (Central Standard Time),850121.099999994,028_y_f_n_a.png,O,z,1086,9,1,2108.5999999940395,848012.5,7060,NNB,C,7
6,test,5,0.0,2-Back,1,m,Mon Feb 24 2025 15:01:01 GMT-0600 (Central Standard Time),852054.7999999821,146_o_m_n_a.png,O,m,898,10,1,1927.0,850127.7999999821,7060,NNB,C,8
7,test,5,0.0,2-Back,1,m,Mon Feb 24 2025 15:01:01 GMT-0600 (Central Standard Time),854455.5,006_m_f_n_a.png,O,m,1383,11,1,2393.600000023842,852061.8999999762,7060,NNB,C,9
8,test,5,0.0,2-Back,1,m,Mon Feb 24 2025 15:01:01 GMT-0600 (Central Standard Time),856503.1999999881,092_m_m_n_a.png,O,m,1032,12,1,2041.300000011921,854461.8999999762,7060,NNB,C,10
8,test,5,0.0,2-Back,0,m,Mon Feb 24 2025 15:01:01 GMT-0600 (Central Standard Time),859535.099999994,146_o_m_n_a.png,O,None,2013,13,1,3024.7000000178814,856510.3999999762,7060,NNB,C,11
8,test,5,1.0,2-Back,0,z,Mon Feb 24 2025 15:01:01 GMT-0600 (Central Standard Time),861335.8999999762,092_m_m_n_a.png,O,m,770,14,1,1794.3999999761581,859541.5,7060,NNB,C,12
9,test,5,0.0,2-Back,1,m,Mon Feb 24 2025 15:01:01 GMT-0600 (Central Standard Time),864151.099999994,098_y_f_n_a.png,O,m,1788,15,1,2807.7000000178814,861343.3999999762,7060,NNB,C,13
10,test,5,0.0,2-Back,1,m,Mon Feb 24 2025 15:01:01 GMT-0600 (Central Standard Time),866001.1999999881,059_o_m_n_a.png,O,m,830,16,1,1844.0999999940395,864157.099999994,7060,NNB,C,14
11,test,5,0.0,2-Back,1,m,Mon Feb 24 2025 15:01:01 GMT-0600 (Central Standard Time),867984.0,006_m_f_n_a.png,O,m,967,17,1,1976.300000011921,866007.6999999881,7060,NNB,C,15
12,test,5,1.0,2-Back,1,z,Mon Feb 24 2025 15:01:01 GMT-0600 (Central Standard Time),869999.3999999762,059_o_m_n_a.png,O,z,989,18,1,2007.3999999761581,867992.0,7060,NNB,C,16
