acc_sum,block_c,block_dur,condition,correct,correct_response,countdown,datetime,endtime,project,response,response_time,response_time_test1_response,response_time_test2_response,row_sel,same,session_number,start_end,starttime,stim1,stim2,subject_id,task,task_vers,time_test1,time_test2,trial
1,1,0.0,prac,1,z,30000.0,Thu Apr 03 2025 16:47:01 GMT-0500 (Central Daylight Time),47576.5,O,z,1283,,,5,yes,1,2810.2000000029802,44766.29999999702,practrial5.png,practrial5.png,7110,PC,C,,,1
1,1,0.0,prac,0,m,30000.0,Thu Apr 03 2025 16:47:01 GMT-0500 (Central Daylight Time),50476.09999999404,O,z,1362,,,6,no,1,2893.89999999851,47582.19999999553,practrial6.png,practrial6b.png,7110,PC,C,,,2
2,1,0.0,prac,1,m,30000.0,Thu Apr 03 2025 16:47:01 GMT-0500 (Central Daylight Time),53041.19999999553,O,m,1042,,,2,no,1,2558.7999999970198,50482.39999999851,practrial2.png,practrial2b.png,7110,PC,C,,,3
3,1,0.0,prac,1,m,30000.0,Thu Apr 03 2025 16:47:01 GMT-0500 (Central Daylight Time),55392.0,O,m,835,,,4,no,1,2345.60000000149,53046.39999999851,practrial4.png,practrial4b.png,7110,PC,C,,,4
4,1,0.0,prac,1,z,30000.0,Thu Apr 03 2025 16:47:01 GMT-0500 (Central Daylight Time),57888.19999999553,O,z,964,,,1,yes,1,2491.60000000149,55396.59999999404,practrial1.png,practrial1.png,7110,PC,C,,,5
5,1,0.0,prac,1,z,30000.0,Thu Apr 03 2025 16:47:01 GMT-0500 (Central Daylight Time),60205.19999999553,O,z,797,,,3,yes,1,2313.2999999970198,57891.89999999851,practrial3.png,practrial3.png,7110,PC,C,,,6
1,1,1.0999999046325684,test,1,z,28900.00009536743,Thu Apr 03 2025 16:47:01 GMT-0500 (Central Daylight Time),68519.69999999553,O,z,1084,1084,,1,yes,1,1098.7999999970198,67420.89999999851,test1trial1.png,test1trial1.png,7110,PC,C,64338,,1
2,1,2.2669999599456787,test,1,m,27733.00004005432,Thu Apr 03 2025 16:47:01 GMT-0500 (Central Daylight Time),69686.09999999404,O,m,1155,1155,,2,no,1,1160.5999999940395,68525.5,test1trial2.png,test1trial2b.png,7110,PC,C,65444,,2
3,1,3.2839999198913574,test,1,z,26716.000080108643,Thu Apr 03 2025 16:47:01 GMT-0500 (Central Daylight Time),70702.89999999851,O,z,1000,1000,,3,yes,1,1013.3000000044703,69689.59999999404,test1trial3.png,test1trial3.png,7110,PC,C,66607,,3
4,1,4.531999826431274,test,1,m,25468.000173568726,Thu Apr 03 2025 16:47:01 GMT-0500 (Central Daylight Time),71951.19999999553,O,m,1229,1229,,4,no,1,1244.2999999970198,70706.89999999851,test1trial4.png,test1trial4b.png,7110,PC,C,67625,,4
5,1,5.349999904632568,test,1,z,24650.00009536743,Thu Apr 03 2025 16:47:01 GMT-0500 (Central Daylight Time),72769.39999999851,O,z,796,796,,5,yes,1,813.3999999985099,71956.0,test1trial5.png,test1trial5.png,7110,PC,C,68874,,5
6,1,6.514999866485596,test,1,m,23485.000133514404,Thu Apr 03 2025 16:47:01 GMT-0500 (Central Daylight Time),73934.39999999851,O,m,1157,1157,,6,no,1,1161.6000000014901,72772.79999999702,test1trial6.png,test1trial6b.png,7110,PC,C,69691,,6
7,1,7.515999794006348,test,1,z,22484.000205993652,Thu Apr 03 2025 16:47:01 GMT-0500 (Central Daylight Time),74934.79999999702,O,z,984,984,,7,yes,1,997.3999999985099,73937.39999999851,test1trial7.png,test1trial7.png,7110,PC,C,70855,,7
7,1,8.797999858856201,test,0,m,21202.0001411438,Thu Apr 03 2025 16:47:01 GMT-0500 (Central Daylight Time),76217.39999999851,O,z,1270,1270,,8,no,1,1278.8999999985099,74938.5,test1trial8.png,test1trial8b.png,7110,PC,C,71857,,8
8,1,9.498999834060669,test,1,z,20501.00016593933,Thu Apr 03 2025 16:47:01 GMT-0500 (Central Daylight Time),76917.89999999851,O,z,695,695,,9,yes,1,697.2000000029802,76220.69999999553,test1trial9.png,test1trial9.png,7110,PC,C,73138,,9
9,1,10.398000001907349,test,1,m,19601.99999809265,Thu Apr 03 2025 16:47:01 GMT-0500 (Central Daylight Time),77817.5,O,m,878,878,,10,no,1,895.3000000044703,76922.19999999553,test1trial10.png,test1trial10b.png,7110,PC,C,73840,,10
10,1,11.248999834060669,test,1,z,18751.00016593933,Thu Apr 03 2025 16:47:01 GMT-0500 (Central Daylight Time),78668.09999999404,O,z,837,837,,11,yes,1,847.6999999955297,77820.39999999851,test1trial11.png,test1trial11.png,7110,PC,C,74738,,11
10,1,12.196999788284302,test,0,m,17803.0002117157,Thu Apr 03 2025 16:47:01 GMT-0500 (Central Daylight Time),79616.39999999851,O,z,937,937,,12,no,1,944.5,78671.89999999851,test1trial12.png,test1trial12b.png,7110,PC,C,75590,,12
11,1,13.229999780654907,test,1,m,16770.000219345093,Thu Apr 03 2025 16:47:01 GMT-0500 (Central Daylight Time),80649.19999999553,O,m,1019,1019,,13,no,1,1028.6999999955297,79620.5,test1trial13.png,test1trial13b.png,7110,PC,C,76539,,13
12,1,14.52999997138977,test,1,m,15470.00002861023,Thu Apr 03 2025 16:47:01 GMT-0500 (Central Daylight Time),81949.09999999404,O,m,1283,1283,,14,no,1,1296.1999999955297,80652.89999999851,test1trial14.png,test1trial14b.png,7110,PC,C,77571,,14
13,1,15.212999820709229,test,1,z,14787.000179290771,Thu Apr 03 2025 16:47:01 GMT-0500 (Central Daylight Time),82631.59999999404,O,z,672,672,,15,yes,1,678.7999999970198,81952.79999999702,test1trial15.png,test1trial15.png,7110,PC,C,78871,,15
14,1,16.662999868392944,test,1,m,13337.000131607056,Thu Apr 03 2025 16:47:01 GMT-0500 (Central Daylight Time),84082.19999999553,O,m,1438,1438,,16,no,1,1447.0,82635.19999999553,test1trial16.png,test1trial16b.png,7110,PC,C,79553,,16
15,1,17.51199984550476,test,1,z,12488.00015449524,Thu Apr 03 2025 16:47:01 GMT-0500 (Central Daylight Time),84931.29999999702,O,z,844,844,,17,yes,1,845.8999999985099,84085.39999999851,test1trial17.png,test1trial17.png,7110,PC,C,81003,,17
16,1,18.662999868392944,test,1,m,11337.000131607056,Thu Apr 03 2025 16:47:01 GMT-0500 (Central Daylight Time),86081.89999999851,O,m,1129,1129,,18,no,1,1146.8000000044703,84935.09999999404,test1trial18.png,test1trial18b.png,7110,PC,C,81853,,18
17,1,20.296000003814697,test,1,m,9703.999996185303,Thu Apr 03 2025 16:47:01 GMT-0500 (Central Daylight Time),87714.59999999404,O,m,1619,1619,,19,no,1,1628.7999999970198,86085.79999999702,test1trial19.png,test1trial19b.png,7110,PC,C,83004,,19
18,1,21.26099991798401,test,1,z,8739.000082015991,Thu Apr 03 2025 16:47:01 GMT-0500 (Central Daylight Time),88680.29999999702,O,z,956,956,,20,yes,1,962.8999999985099,87717.39999999851,test1trial20.png,test1trial20.png,7110,PC,C,84635,,20
19,1,22.263999938964844,test,1,z,7736.000061035156,Thu Apr 03 2025 16:47:01 GMT-0500 (Central Daylight Time),89682.89999999851,O,z,985,985,,21,yes,1,995.1000000014901,88687.79999999702,test1trial21.png,test1trial21.png,7110,PC,C,85606,,21
20,1,23.277999877929688,test,1,z,6722.0001220703125,Thu Apr 03 2025 16:47:01 GMT-0500 (Central Daylight Time),90696.69999999553,O,z,995,995,,22,yes,1,1010.6000000014901,89686.09999999404,test1trial22.png,test1trial22.png,7110,PC,C,86604,,22
21,1,24.192999839782715,test,1,z,5807.000160217285,Thu Apr 03 2025 16:47:01 GMT-0500 (Central Daylight Time),91612.19999999553,O,z,910,910,,23,yes,1,911.5,90700.69999999553,test1trial23.png,test1trial23.png,7110,PC,C,87618,,23
22,1,24.97599983215332,test,1,z,5024.00016784668,Thu Apr 03 2025 16:47:01 GMT-0500 (Central Daylight Time),92395.69999999553,O,z,767,767,,24,yes,1,778.6999999955297,91617.0,test1trial24.png,test1trial24.png,7110,PC,C,88536,,24
23,1,25.92799997329712,test,1,m,4072.000026702881,Thu Apr 03 2025 16:47:01 GMT-0500 (Central Daylight Time),93347.5,O,m,946,946,,25,no,1,947.6000000014901,92399.89999999851,test1trial25.png,test1trial25b.png,7110,PC,C,89318,,25
24,1,27.092000007629395,test,1,m,2907.9999923706055,Thu Apr 03 2025 16:47:01 GMT-0500 (Central Daylight Time),94511.0,O,m,1154,1154,,26,no,1,1159.8000000044703,93351.19999999553,test1trial26.png,test1trial26b.png,7110,PC,C,90269,,26
24,1,28.408999919891357,test,0,m,1591.0000801086426,Thu Apr 03 2025 16:47:01 GMT-0500 (Central Daylight Time),95828.39999999851,O,z,1303,1303,,27,no,1,1314.5,94513.89999999851,practrial6.png,practrial6b.png,7110,PC,C,91432,,27
25,1,29.508999824523926,test,1,z,491.0001754760742,Thu Apr 03 2025 16:47:01 GMT-0500 (Central Daylight Time),96927.89999999851,O,z,1080,1080,,28,yes,1,1095.8999999985099,95832.0,practrial1.png,practrial1.png,7110,PC,C,92750,,28
25,1,30.008999824523926,test,0,m,-8.999824523925781,Thu Apr 03 2025 16:47:01 GMT-0500 (Central Daylight Time),97428.09999999404,O,None,495,495,,29,no,1,496.3999999985099,96931.69999999553,practrial2.png,practrial2b.png,7110,PC,C,93850,,29
1,2,1.2330000400543213,test,1,m,28766.99995994568,Thu Apr 03 2025 16:47:01 GMT-0500 (Central Daylight Time),100909.5,O,m,1214,,1214.0,1,no,1,3977.8000000044703,96931.69999999553,test2trial1.png,test2trial1b.png,7110,PC,C,,96600.0,1
1,2,2.5179998874664307,test,0,m,27482.00011253357,Thu Apr 03 2025 16:47:01 GMT-0500 (Central Daylight Time),102194.19999999553,O,z,1271,,1271.0,2,no,1,5262.5,96931.69999999553,test2trial2.png,test2trial2b.png,7110,PC,C,,97832.0,2
2,2,3.7330000400543213,test,1,z,26266.99995994568,Thu Apr 03 2025 16:47:01 GMT-0500 (Central Daylight Time),103409.5,O,z,1197,,1197.0,3,yes,1,6477.80000000447,96931.69999999553,test2trial3.png,test2trial3.png,7110,PC,C,,99114.0,3
3,2,4.414999961853027,test,1,z,25585.000038146973,Thu Apr 03 2025 16:47:01 GMT-0500 (Central Daylight Time),104091.5,O,z,676,,676.0,4,yes,1,7159.80000000447,96931.69999999553,test2trial4.png,test2trial4.png,7110,PC,C,,100332.0,4
4,2,5.365999937057495,test,1,z,24634.000062942505,Thu Apr 03 2025 16:47:01 GMT-0500 (Central Daylight Time),105042.5,O,z,932,,932.0,5,yes,1,8110.80000000447,96931.69999999553,test2trial5.png,test2trial5.png,7110,PC,C,,101013.0,5
5,2,6.148999929428101,test,1,z,23851.0000705719,Thu Apr 03 2025 16:47:01 GMT-0500 (Central Daylight Time),105824.89999999851,O,z,771,,771.0,6,yes,1,8893.20000000298,96931.69999999553,test2trial6.png,test2trial6.png,7110,PC,C,,101963.0,6
6,2,7.031999826431274,test,1,m,22968.000173568726,Thu Apr 03 2025 16:47:01 GMT-0500 (Central Daylight Time),106707.89999999851,O,m,879,,879.0,7,no,1,9776.20000000298,96931.69999999553,test2trial7.png,test2trial7b.png,7110,PC,C,,102745.0,7
7,2,7.997999906539917,test,1,m,22002.000093460083,Thu Apr 03 2025 16:47:01 GMT-0500 (Central Daylight Time),107674.29999999702,O,m,954,,954.0,8,no,1,10742.60000000149,96931.69999999553,test2trial8.png,test2trial8b.png,7110,PC,C,,103628.0,8
8,2,8.947999954223633,test,1,z,21052.000045776367,Thu Apr 03 2025 16:47:01 GMT-0500 (Central Daylight Time),108624.39999999851,O,z,940,,940.0,9,yes,1,11692.70000000298,96931.69999999553,test2trial9.png,test2trial9.png,7110,PC,C,,104595.0,9
9,2,10.063999891281128,test,1,z,19936.000108718872,Thu Apr 03 2025 16:47:01 GMT-0500 (Central Daylight Time),109740.09999999404,O,z,1101,,1101.0,10,yes,1,12808.39999999851,96931.69999999553,test2trial10.png,test2trial10.png,7110,PC,C,,105545.0,10
10,2,11.198999881744385,test,1,m,18801.000118255615,Thu Apr 03 2025 16:47:01 GMT-0500 (Central Daylight Time),110875.09999999404,O,m,1130,,1130.0,11,no,1,13943.39999999851,96931.69999999553,test2trial11.png,test2trial11b.png,7110,PC,C,,106662.0,11
11,2,12.214999914169312,test,1,m,17785.00008583069,Thu Apr 03 2025 16:47:01 GMT-0500 (Central Daylight Time),111890.79999999702,O,m,1009,,1009.0,12,no,1,14959.10000000149,96931.69999999553,test2trial12.png,test2trial12b.png,7110,PC,C,,107799.0,12
12,2,12.94700002670288,test,1,z,17052.99997329712,Thu Apr 03 2025 16:47:01 GMT-0500 (Central Daylight Time),112623.39999999851,O,z,722,,722.0,13,yes,1,15691.70000000298,96931.69999999553,test2trial13.png,test2trial13.png,7110,PC,C,,108812.0,13
13,2,14.246999979019165,test,1,m,15753.000020980835,Thu Apr 03 2025 16:47:01 GMT-0500 (Central Daylight Time),113923.19999999553,O,m,1284,,1284.0,14,no,1,16991.5,96931.69999999553,test2trial14.png,test2trial14b.png,7110,PC,C,,109546.0,14
14,2,15.546000003814697,test,1,m,14453.999996185303,Thu Apr 03 2025 16:47:01 GMT-0500 (Central Daylight Time),115222.19999999553,O,m,1283,,1283.0,15,no,1,18290.5,96931.69999999553,test2trial15.png,test2trial15b.png,7110,PC,C,,110844.0,15
15,2,16.658999919891357,test,1,m,13341.000080108643,Thu Apr 03 2025 16:47:01 GMT-0500 (Central Daylight Time),116336.39999999851,O,m,1096,,1096.0,16,no,1,19404.70000000298,96931.69999999553,test2trial16.png,test2trial16b.png,7110,PC,C,,112144.0,16
16,2,17.62399983406067,test,1,z,12376.000165939331,Thu Apr 03 2025 16:47:01 GMT-0500 (Central Daylight Time),117301.69999999553,O,z,950,,950.0,17,yes,1,20370.0,96931.69999999553,test2trial17.png,test2trial17.png,7110,PC,C,,113257.0,17
17,2,18.54099988937378,test,1,z,11459.00011062622,Thu Apr 03 2025 16:47:01 GMT-0500 (Central Daylight Time),118219.0,O,z,907,,907.0,18,yes,1,21287.30000000447,96931.69999999553,test2trial18.png,test2trial18.png,7110,PC,C,,114228.0,18
18,2,19.29199981689453,test,1,z,10708.000183105469,Thu Apr 03 2025 16:47:01 GMT-0500 (Central Daylight Time),118969.39999999851,O,z,731,,731.0,19,yes,1,22037.70000000298,96931.69999999553,test2trial19.png,test2trial19.png,7110,PC,C,,115140.0,19
19,2,20.156999826431274,test,1,z,9843.000173568726,Thu Apr 03 2025 16:47:01 GMT-0500 (Central Daylight Time),119835.0,O,z,851,,851.0,20,yes,1,22903.30000000447,96931.69999999553,test2trial20.png,test2trial20.png,7110,PC,C,,115892.0,20
20,2,21.14199995994568,test,1,z,8858.000040054321,Thu Apr 03 2025 16:47:01 GMT-0500 (Central Daylight Time),120819.89999999851,O,z,978,,978.0,21,yes,1,23888.20000000298,96931.69999999553,test2trial21.png,test2trial21.png,7110,PC,C,,116758.0,21
21,2,22.175999879837036,test,1,m,7824.000120162964,Thu Apr 03 2025 16:47:01 GMT-0500 (Central Daylight Time),121853.39999999851,O,m,1027,,1027.0,22,no,1,24921.70000000298,96931.69999999553,test2trial22.png,test2trial22b.png,7110,PC,C,,117742.0,22
22,2,23.375,test,1,m,6625.0,Thu Apr 03 2025 16:47:01 GMT-0500 (Central Daylight Time),123053.09999999404,O,m,1185,,1185.0,23,no,1,26121.39999999851,96931.69999999553,test2trial23.png,test2trial23b.png,7110,PC,C,,118774.0,23
23,2,24.424999952316284,test,1,m,5575.000047683716,Thu Apr 03 2025 16:47:01 GMT-0500 (Central Daylight Time),124102.39999999851,O,m,1032,,1032.0,24,no,1,27170.70000000298,96931.69999999553,test2trial24.png,test2trial24b.png,7110,PC,C,,119975.0,24
24,2,25.457000017166138,test,1,z,4542.999982833862,Thu Apr 03 2025 16:47:01 GMT-0500 (Central Daylight Time),125135.0,O,z,1023,,1023.0,25,yes,1,28203.30000000447,96931.69999999553,test2trial25.png,test2trial25.png,7110,PC,C,,121024.0,25
24,2,26.840999841690063,test,0,z,3159.0001583099365,Thu Apr 03 2025 16:47:01 GMT-0500 (Central Daylight Time),126519.0,O,m,1365,,1365.0,26,no,1,29587.30000000447,96931.69999999553,test2trial26.png,test2trial26b.png,7110,PC,C,,122057.0,26
24,2,27.955999851226807,test,0,z,2044.0001487731934,Thu Apr 03 2025 16:47:01 GMT-0500 (Central Daylight Time),127633.79999999702,O,m,1103,,1103.0,27,no,1,30702.10000000149,96931.69999999553,test2trial27.png,test2trial27b.png,7110,PC,C,,123440.0,27
24,2,28.95799994468689,test,0,m,1042.0000553131104,Thu Apr 03 2025 16:47:01 GMT-0500 (Central Daylight Time),128635.79999999702,O,z,998,,998.0,28,yes,1,31704.10000000149,96931.69999999553,practrial5.png,practrial5.png,7110,PC,C,,124554.0,28
24,2,30.02300000190735,test,0,m,-23.000001907348633,Thu Apr 03 2025 16:47:01 GMT-0500 (Central Daylight Time),129700.59999999404,O,None,1056,,1056.0,29,yes,1,32768.89999999851,96931.69999999553,practrial3.png,practrial3.png,7110,PC,C,,125561.0,29
