block_c,block_dur,condition,countdown,datetime,endtime,list,multichar_response,project,response,response_time,session_number,start_end,starttime,subject_id,task,task_vers,trial
,,,,Thu Apr 17 2025 11:06:13 GMT-0500 (Central Daylight Time),,,,O,space,390,1,,,7128,WL,A,
prac,,0,,Thu Apr 17 2025 11:06:13 GMT-0500 (Central Daylight Time),,NA,b,O,b,10972,1,,,7128,WL,A,1.0
prac,,0,,Thu Apr 17 2025 11:06:13 GMT-0500 (Central Daylight Time),,NA,bo,O,o,153,1,,,7128,WL,A,1.0
prac,,0,,Thu Apr 17 2025 11:06:13 GMT-0500 (Central Daylight Time),,NA,boo,O,o,109,1,,,7128,WL,A,1.0
prac,,0,,Thu Apr 17 2025 11:06:13 GMT-0500 (Central Daylight Time),,NA,boos,O,s,200,1,,,7128,WL,A,1.0
prac,,0,,Thu Apr 17 2025 11:06:13 GMT-0500 (Central Daylight Time),,NA,boost,O,t,360,1,,,7128,WL,A,1.0
prac,,0,,Thu Apr 17 2025 11:06:13 GMT-0500 (Central Daylight Time),,NA,boostenter,O,enter,3425,1,,,7128,WL,A,1.0
1,1.2170000076293945,learn,58782.999992370605,Thu Apr 17 2025 11:06:13 GMT-0500 (Central Daylight Time),132056.5,A,b,O,b,1195,1,1216.0,130840.5,7128,WL,A,1.0
1,1.433000087738037,learn,58566.99991226196,Thu Apr 17 2025 11:06:13 GMT-0500 (Central Daylight Time),132273.0,A,bo,O,o,202,1,1432.5,130840.5,7128,WL,A,1.0
1,1.5829999446868896,learn,58417.00005531311,Thu Apr 17 2025 11:06:13 GMT-0500 (Central Daylight Time),132422.79999999702,A,boo,O,o,130,1,1582.2999999970198,130840.5,7128,WL,A,1.0
1,1.815999984741211,learn,58184.00001525879,Thu Apr 17 2025 11:06:13 GMT-0500 (Central Daylight Time),132656.1000000015,A,book,O,k,221,1,1815.6000000014901,130840.5,7128,WL,A,1.0
1,2.2669999599456787,learn,57733.00004005432,Thu Apr 17 2025 11:06:13 GMT-0500 (Central Daylight Time),133106.8999999985,A,bookf,O,f,444,1,2266.39999999851,130840.5,7128,WL,A,1.0
1,2.383000135421753,learn,57616.99986457825,Thu Apr 17 2025 11:06:13 GMT-0500 (Central Daylight Time),133222.5,A,bookfl,O,l,97,1,2382.0,130840.5,7128,WL,A,1.0
1,2.5829999446868896,learn,57417.00005531311,Thu Apr 17 2025 11:06:13 GMT-0500 (Central Daylight Time),133422.6000000015,A,bookflo,O,o,181,1,2582.10000000149,130840.5,7128,WL,A,1.0
1,2.749000072479248,learn,57250.99992752075,Thu Apr 17 2025 11:06:13 GMT-0500 (Central Daylight Time),133589.20000000298,A,bookflow,O,w,150,1,2748.7000000029802,130840.5,7128,WL,A,1.0
1,2.9160001277923584,learn,57083.99987220764,Thu Apr 17 2025 11:06:13 GMT-0500 (Central Daylight Time),133755.70000000298,A,bookflowe,O,e,158,1,2915.2000000029802,130840.5,7128,WL,A,1.0
1,4.631999969482422,learn,55368.00003051758,Thu Apr 17 2025 11:06:13 GMT-0500 (Central Daylight Time),135472.0,A,bookflow,O,backspace,1704,1,4631.5,130840.5,7128,WL,A,1.0
1,5.299000024795532,learn,54700.99997520447,Thu Apr 17 2025 11:06:13 GMT-0500 (Central Daylight Time),136138.29999999702,A,bookflo,O,backspace,659,1,5297.79999999702,130840.5,7128,WL,A,1.0
1,5.697999954223633,learn,54302.00004577637,Thu Apr 17 2025 11:06:13 GMT-0500 (Central Daylight Time),136538.1000000015,A,bookfl,O,backspace,393,1,5697.60000000149,130840.5,7128,WL,A,1.0
1,5.898000001907349,learn,54101.99999809265,Thu Apr 17 2025 11:06:13 GMT-0500 (Central Daylight Time),136738.20000000298,A,bookf,O,backspace,194,1,5897.70000000298,130840.5,7128,WL,A,1.0
1,6.0980000495910645,learn,53901.999950408936,Thu Apr 17 2025 11:06:13 GMT-0500 (Central Daylight Time),136938.1000000015,A,book,O,backspace,194,1,6097.60000000149,130840.5,7128,WL,A,1.0
1,6.7809998989105225,learn,53219.00010108948,Thu Apr 17 2025 11:06:13 GMT-0500 (Central Daylight Time),137621.29999999702,A,bookenter,O,enter,666,1,6780.79999999702,130840.5,7128,WL,A,1.0
1,7.680999994277954,learn,52319.000005722046,Thu Apr 17 2025 11:06:13 GMT-0500 (Central Daylight Time),138521.1000000015,A,f,O,f,878,1,899.3999999985099,137621.70000000298,7128,WL,A,2.0
1,7.831000089645386,learn,52168.999910354614,Thu Apr 17 2025 11:06:13 GMT-0500 (Central Daylight Time),138670.79999999702,A,fl,O,l,139,1,1049.0999999940395,137621.70000000298,7128,WL,A,2.0
1,8.04800009727478,learn,51951.99990272522,Thu Apr 17 2025 11:06:13 GMT-0500 (Central Daylight Time),138887.3999999985,A,flo,O,o,197,1,1265.6999999955297,137621.70000000298,7128,WL,A,2.0
1,8.13100004196167,learn,51868.99995803833,Thu Apr 17 2025 11:06:13 GMT-0500 (Central Daylight Time),138970.79999999702,A,flow,O,w,77,1,1349.0999999940395,137621.70000000298,7128,WL,A,2.0
1,8.331000089645386,learn,51668.999910354614,Thu Apr 17 2025 11:06:13 GMT-0500 (Central Daylight Time),139170.70000000298,A,flowe,O,e,185,1,1549.0,137621.70000000298,7128,WL,A,2.0
1,8.63100004196167,learn,51368.99995803833,Thu Apr 17 2025 11:06:13 GMT-0500 (Central Daylight Time),139470.70000000298,A,flower,O,r,281,1,1849.0,137621.70000000298,7128,WL,A,2.0
1,9.21399998664856,learn,50786.00001335144,Thu Apr 17 2025 11:06:13 GMT-0500 (Central Daylight Time),140054.0,A,flowerenter,O,enter,565,1,2432.2999999970198,137621.70000000298,7128,WL,A,2.0
1,9.54699993133545,learn,50453.00006866455,Thu Apr 17 2025 11:06:13 GMT-0500 (Central Daylight Time),140386.8999999985,A,t,O,t,326,1,332.69999999552965,140054.20000000298,7128,WL,A,3.0
1,9.746999979019165,learn,50253.000020980835,Thu Apr 17 2025 11:06:13 GMT-0500 (Central Daylight Time),140586.8999999985,A,tr,O,r,194,1,532.6999999955297,140054.20000000298,7128,WL,A,3.0
1,9.864000082015991,learn,50135.99991798401,Thu Apr 17 2025 11:06:13 GMT-0500 (Central Daylight Time),140703.6000000015,A,tra,O,a,105,1,649.3999999985099,140054.20000000298,7128,WL,A,3.0
1,10.013999938964844,learn,49986.000061035156,Thu Apr 17 2025 11:06:13 GMT-0500 (Central Daylight Time),140853.6000000015,A,trai,O,i,132,1,799.3999999985099,140054.20000000298,7128,WL,A,3.0
1,10.197999954223633,learn,49802.00004577637,Thu Apr 17 2025 11:06:13 GMT-0500 (Central Daylight Time),141037.8999999985,A,train,O,n,175,1,983.6999999955297,140054.20000000298,7128,WL,A,3.0
1,10.897000074386597,learn,49102.9999256134,Thu Apr 17 2025 11:06:13 GMT-0500 (Central Daylight Time),141736.3999999985,A,trainr,O,r,679,1,1682.1999999955297,140054.20000000298,7128,WL,A,3.0
1,11.079999923706055,learn,48920.000076293945,Thu Apr 17 2025 11:06:13 GMT-0500 (Central Daylight Time),141920.1000000015,A,trainru,O,u,163,1,1865.8999999985099,140054.20000000298,7128,WL,A,3.0
1,11.347000122070312,learn,48652.99987792969,Thu Apr 17 2025 11:06:13 GMT-0500 (Central Daylight Time),142186.3999999985,A,trainrug,O,g,260,1,2132.1999999955297,140054.20000000298,7128,WL,A,3.0
1,11.663000106811523,learn,48336.99989318848,Thu Apr 17 2025 11:06:13 GMT-0500 (Central Daylight Time),142503.1000000015,A,trainrugenter,O,enter,297,1,2448.89999999851,140054.20000000298,7128,WL,A,3.0
1,12.213000059127808,learn,47786.99994087219,Thu Apr 17 2025 11:06:13 GMT-0500 (Central Daylight Time),143052.8999999985,A,g,O,g,541,1,549.5,142503.3999999985,7128,WL,A,4.0
1,12.395999908447266,learn,47604.000091552734,Thu Apr 17 2025 11:06:13 GMT-0500 (Central Daylight Time),143236.1000000015,A,go,O,o,167,1,732.7000000029802,142503.3999999985,7128,WL,A,4.0
1,12.680000066757202,learn,47319.9999332428,Thu Apr 17 2025 11:06:13 GMT-0500 (Central Daylight Time),143519.29999999702,A,gol,O,l,263,1,1015.8999999985099,142503.3999999985,7128,WL,A,4.0
1,12.86299991607666,learn,47137.00008392334,Thu Apr 17 2025 11:06:13 GMT-0500 (Central Daylight Time),143702.79999999702,A,gold,O,d,171,1,1199.3999999985099,142503.3999999985,7128,WL,A,4.0
1,13.130000114440918,learn,46869.99988555908,Thu Apr 17 2025 11:06:13 GMT-0500 (Central Daylight Time),143969.3999999985,A,goldenter,O,enter,261,1,1466.0,142503.3999999985,7128,WL,A,4.0
1,13.413000106811523,learn,46586.99989318848,Thu Apr 17 2025 11:06:13 GMT-0500 (Central Daylight Time),144252.5,A,f,O,f,274,1,282.79999999701977,143969.70000000298,7128,WL,A,5.0
1,13.529000043869019,learn,46470.99995613098,Thu Apr 17 2025 11:06:13 GMT-0500 (Central Daylight Time),144369.1000000015,A,fi,O,i,96,1,399.3999999985099,143969.70000000298,7128,WL,A,5.0
1,13.729000091552734,learn,46270.999908447266,Thu Apr 17 2025 11:06:13 GMT-0500 (Central Daylight Time),144569.0,A,fin,O,n,179,1,599.2999999970198,143969.70000000298,7128,WL,A,5.0
1,13.913000106811523,learn,46086.99989318848,Thu Apr 17 2025 11:06:13 GMT-0500 (Central Daylight Time),144752.3999999985,A,fing,O,g,172,1,782.6999999955297,143969.70000000298,7128,WL,A,5.0
1,14.11299991607666,learn,45887.00008392334,Thu Apr 17 2025 11:06:13 GMT-0500 (Central Daylight Time),144952.3999999985,A,finge,O,e,180,1,982.6999999955297,143969.70000000298,7128,WL,A,5.0
1,14.395999908447266,learn,45604.000091552734,Thu Apr 17 2025 11:06:13 GMT-0500 (Central Daylight Time),145235.70000000298,A,finger,O,r,268,1,1266.0,143969.70000000298,7128,WL,A,5.0
1,15.546000003814697,learn,44453.9999961853,Thu Apr 17 2025 11:06:13 GMT-0500 (Central Daylight Time),146385.5,A,fingerc,O,c,1145,1,2415.7999999970198,143969.70000000298,7128,WL,A,5.0
1,15.661999940872192,learn,44338.00005912781,Thu Apr 17 2025 11:06:13 GMT-0500 (Central Daylight Time),146501.8999999985,A,fingerch,O,h,98,1,2532.1999999955297,143969.70000000298,7128,WL,A,5.0
1,15.84500002861023,learn,44154.99997138977,Thu Apr 17 2025 11:06:13 GMT-0500 (Central Daylight Time),146685.0,A,fingerchi,O,i,174,1,2715.2999999970198,143969.70000000298,7128,WL,A,5.0
1,16.07800006866455,learn,43921.99993133545,Thu Apr 17 2025 11:06:13 GMT-0500 (Central Daylight Time),146918.29999999702,A,fingerchim,O,m,223,1,2948.5999999940395,143969.70000000298,7128,WL,A,5.0
1,16.312000036239624,learn,43687.999963760376,Thu Apr 17 2025 11:06:13 GMT-0500 (Central Daylight Time),147151.3999999985,A,fingerchimn,O,n,214,1,3181.6999999955297,143969.70000000298,7128,WL,A,5.0
1,16.444999933242798,learn,43555.0000667572,Thu Apr 17 2025 11:06:13 GMT-0500 (Central Daylight Time),147284.79999999702,A,fingerchimne,O,e,116,1,3315.0999999940395,143969.70000000298,7128,WL,A,5.0
1,16.92799997329712,learn,43072.00002670288,Thu Apr 17 2025 11:06:13 GMT-0500 (Central Daylight Time),147768.20000000298,A,fingerchimney,O,y,464,1,3798.5,143969.70000000298,7128,WL,A,5.0
1,19.377000093460083,learn,40622.99990653992,Thu Apr 17 2025 11:06:13 GMT-0500 (Central Daylight Time),150217.20000000298,A,fingerchimne,O,backspace,2436,1,6247.5,143969.70000000298,7128,WL,A,5.0
1,19.778000116348267,learn,40221.99988365173,Thu Apr 17 2025 11:06:13 GMT-0500 (Central Daylight Time),150617.6000000015,A,fingerchimn,O,backspace,395,1,6647.89999999851,143969.70000000298,7128,WL,A,5.0
1,19.99399995803833,learn,40006.00004196167,Thu Apr 17 2025 11:06:13 GMT-0500 (Central Daylight Time),150833.70000000298,A,fingerchim,O,backspace,195,1,6864.0,143969.70000000298,7128,WL,A,5.0
1,20.177000045776367,learn,39822.99995422363,Thu Apr 17 2025 11:06:13 GMT-0500 (Central Daylight Time),151017.20000000298,A,fingerchi,O,backspace,171,1,7047.5,143969.70000000298,7128,WL,A,5.0
1,20.377000093460083,learn,39622.99990653992,Thu Apr 17 2025 11:06:13 GMT-0500 (Central Daylight Time),151217.1000000015,A,fingerch,O,backspace,179,1,7247.39999999851,143969.70000000298,7128,WL,A,5.0
1,20.57699990272522,learn,39423.00009727478,Thu Apr 17 2025 11:06:13 GMT-0500 (Central Daylight Time),151416.79999999702,A,fingerc,O,backspace,179,1,7447.0999999940395,143969.70000000298,7128,WL,A,5.0
1,20.793999910354614,learn,39206.000089645386,Thu Apr 17 2025 11:06:13 GMT-0500 (Central Daylight Time),151633.5,A,finger,O,backspace,203,1,7663.79999999702,143969.70000000298,7128,WL,A,5.0
1,21.427000045776367,learn,38572.99995422363,Thu Apr 17 2025 11:06:13 GMT-0500 (Central Daylight Time),152266.6000000015,A,fingerenter,O,enter,627,1,8296.89999999851,143969.70000000298,7128,WL,A,5.0
1,22.30999994277954,learn,37690.00005722046,Thu Apr 17 2025 11:06:13 GMT-0500 (Central Daylight Time),153149.79999999702,A,c,O,c,873,1,882.8999999985099,152266.8999999985,7128,WL,A,6.0
1,22.5239999294281,learn,37476.0000705719,Thu Apr 17 2025 11:06:13 GMT-0500 (Central Daylight Time),153364.0,A,ch,O,h,209,1,1097.1000000014901,152266.8999999985,7128,WL,A,6.0
1,22.67199993133545,learn,37328.00006866455,Thu Apr 17 2025 11:06:13 GMT-0500 (Central Daylight Time),153511.5,A,chi,O,i,142,1,1244.6000000014901,152266.8999999985,7128,WL,A,6.0
1,22.9760000705719,learn,37023.9999294281,Thu Apr 17 2025 11:06:13 GMT-0500 (Central Daylight Time),153816.29999999702,A,chim,O,m,291,1,1549.3999999985099,152266.8999999985,7128,WL,A,6.0
1,24.625999927520752,learn,35374.00007247925,Thu Apr 17 2025 11:06:13 GMT-0500 (Central Daylight Time),155465.70000000298,A,chimn,O,n,1644,1,3198.8000000044703,152266.8999999985,7128,WL,A,6.0
1,24.825999975204468,learn,35174.00002479553,Thu Apr 17 2025 11:06:13 GMT-0500 (Central Daylight Time),155665.70000000298,A,chimne,O,e,179,1,3398.8000000044703,152266.8999999985,7128,WL,A,6.0
1,25.009000062942505,learn,34990.999937057495,Thu Apr 17 2025 11:06:13 GMT-0500 (Central Daylight Time),155848.79999999702,A,chimney,O,y,170,1,3581.89999999851,152266.8999999985,7128,WL,A,6.0
1,25.592000007629395,learn,34407.999992370605,Thu Apr 17 2025 11:06:13 GMT-0500 (Central Daylight Time),156432.1000000015,A,chimneyenter,O,enter,563,1,4165.20000000298,152266.8999999985,7128,WL,A,6.0
1,28.47499990463257,learn,31525.00009536743,Thu Apr 17 2025 11:06:13 GMT-0500 (Central Daylight Time),159314.6000000015,A,n,O,n,2868,1,2882.2000000029802,156432.3999999985,7128,WL,A,7.0
1,29.424000024795532,learn,30575.999975204468,Thu Apr 17 2025 11:06:13 GMT-0500 (Central Daylight Time),160264.0,A,,O,backspace,928,1,3831.60000000149,156432.3999999985,7128,WL,A,7.0
1,29.85800004005432,learn,30141.99995994568,Thu Apr 17 2025 11:06:13 GMT-0500 (Central Daylight Time),160697.3999999985,A,n,O,n,420,1,4265.0,156432.3999999985,7128,WL,A,7.0
1,29.990999937057495,learn,30009.000062942505,Thu Apr 17 2025 11:06:13 GMT-0500 (Central Daylight Time),160830.6000000015,A,ne,O,e,115,1,4398.20000000298,156432.3999999985,7128,WL,A,7.0
1,30.10700011253357,learn,29892.99988746643,Thu Apr 17 2025 11:06:13 GMT-0500 (Central Daylight Time),160947.29999999702,A,nea,O,a,101,1,4514.89999999851,156432.3999999985,7128,WL,A,7.0
1,30.341000080108643,learn,29658.999919891357,Thu Apr 17 2025 11:06:13 GMT-0500 (Central Daylight Time),161180.6000000015,A,nead,O,d,225,1,4748.20000000298,156432.3999999985,7128,WL,A,7.0
1,30.506999969482422,learn,29493.000030517578,Thu Apr 17 2025 11:06:13 GMT-0500 (Central Daylight Time),161347.1000000015,A,neadi,O,i,151,1,4914.70000000298,156432.3999999985,7128,WL,A,7.0
1,31.69000005722046,learn,28309.99994277954,Thu Apr 17 2025 11:06:13 GMT-0500 (Central Daylight Time),162530.1000000015,A,nead,O,backspace,1177,1,6097.70000000298,156432.3999999985,7128,WL,A,7.0
1,32.0239999294281,learn,27976.0000705719,Thu Apr 17 2025 11:06:13 GMT-0500 (Central Daylight Time),162863.3999999985,A,nea,O,backspace,314,1,6431.0,156432.3999999985,7128,WL,A,7.0
1,32.20700001716614,learn,27792.999982833862,Thu Apr 17 2025 11:06:13 GMT-0500 (Central Daylight Time),163046.5,A,ne,O,backspace,173,1,6614.10000000149,156432.3999999985,7128,WL,A,7.0
1,32.390000104904175,learn,27609.999895095825,Thu Apr 17 2025 11:06:13 GMT-0500 (Central Daylight Time),163229.79999999702,A,n,O,backspace,174,1,6797.39999999851,156432.3999999985,7128,WL,A,7.0
1,32.58999991416931,learn,27410.00008583069,Thu Apr 17 2025 11:06:13 GMT-0500 (Central Daylight Time),163429.79999999702,A,,O,backspace,183,1,6997.39999999851,156432.3999999985,7128,WL,A,7.0
1,33.25600004196167,learn,26743.99995803833,Thu Apr 17 2025 11:06:13 GMT-0500 (Central Daylight Time),164096.20000000298,A,n,O,n,655,1,7663.80000000447,156432.3999999985,7128,WL,A,7.0
1,33.69000005722046,learn,26309.99994277954,Thu Apr 17 2025 11:06:13 GMT-0500 (Central Daylight Time),164529.6000000015,A,,O,backspace,428,1,8097.20000000298,156432.3999999985,7128,WL,A,7.0
1,34.23900008201599,learn,25760.99991798401,Thu Apr 17 2025 11:06:13 GMT-0500 (Central Daylight Time),165079.29999999702,A,m,O,m,531,1,8646.89999999851,156432.3999999985,7128,WL,A,7.0
1,34.42300009727478,learn,25576.99990272522,Thu Apr 17 2025 11:06:13 GMT-0500 (Central Daylight Time),165262.6000000015,A,me,O,e,173,1,8830.20000000298,156432.3999999985,7128,WL,A,7.0
1,34.57299995422363,learn,25427.000045776367,Thu Apr 17 2025 11:06:13 GMT-0500 (Central Daylight Time),165412.6000000015,A,mea,O,a,141,1,8980.20000000298,156432.3999999985,7128,WL,A,7.0
1,34.87299990653992,learn,25127.000093460083,Thu Apr 17 2025 11:06:13 GMT-0500 (Central Daylight Time),165712.6000000015,A,mead,O,d,288,1,9280.20000000298,156432.3999999985,7128,WL,A,7.0
1,35.17199993133545,learn,24828.00006866455,Thu Apr 17 2025 11:06:13 GMT-0500 (Central Daylight Time),166012.29999999702,A,meado,O,o,284,1,9579.89999999851,156432.3999999985,7128,WL,A,7.0
1,35.33899998664856,learn,24661.00001335144,Thu Apr 17 2025 11:06:13 GMT-0500 (Central Daylight Time),166178.8999999985,A,meadow,O,w,160,1,9746.5,156432.3999999985,7128,WL,A,7.0
1,35.621999979019165,learn,24378.000020980835,Thu Apr 17 2025 11:06:13 GMT-0500 (Central Daylight Time),166462.29999999702,A,meadowenter,O,enter,273,1,10029.89999999851,156432.3999999985,7128,WL,A,7.0
1,53.515000104904175,learn,6484.999895095825,Thu Apr 17 2025 11:06:13 GMT-0500 (Central Daylight Time),184356.6000000015,A,r,O,r,17878,1,17894.0,166462.6000000015,7128,WL,A,8.0
1,53.681999921798706,learn,6318.000078201294,Thu Apr 17 2025 11:06:13 GMT-0500 (Central Daylight Time),184523.29999999702,A,ra,O,a,151,1,18060.69999999553,166462.6000000015,7128,WL,A,8.0
1,53.86500000953674,learn,6134.999990463257,Thu Apr 17 2025 11:06:13 GMT-0500 (Central Daylight Time),184706.3999999985,A,rat,O,t,177,1,18243.79999999702,166462.6000000015,7128,WL,A,8.0
1,53.99799990653992,learn,6002.000093460083,Thu Apr 17 2025 11:06:13 GMT-0500 (Central Daylight Time),184839.70000000298,A,ratt,O,t,122,1,18377.10000000149,166462.6000000015,7128,WL,A,8.0
1,54.181999921798706,learn,5818.000078201294,Thu Apr 17 2025 11:06:13 GMT-0500 (Central Daylight Time),185023.0,A,rattl,O,l,165,1,18560.39999999851,166462.6000000015,7128,WL,A,8.0
1,54.29800009727478,learn,5701.99990272522,Thu Apr 17 2025 11:06:13 GMT-0500 (Central Daylight Time),185139.6000000015,A,rattle,O,e,102,1,18677.0,166462.6000000015,7128,WL,A,8.0
1,54.515000104904175,learn,5484.999895095825,Thu Apr 17 2025 11:06:13 GMT-0500 (Central Daylight Time),185356.20000000298,A,rattleenter,O,enter,209,1,18893.60000000149,166462.6000000015,7128,WL,A,8.0
1,60.01300001144409,learn,-13.000011444091797,Thu Apr 17 2025 11:06:13 GMT-0500 (Central Daylight Time),190854.79999999702,A,None,O,None,5494,1,5498.39999999851,185356.3999999985,7128,WL,A,9.0
2,1.5169999599456787,learn,58483.00004005432,Thu Apr 17 2025 11:06:13 GMT-0500 (Central Daylight Time),265331.200000003,A,b,O,b,1501,1,1516.1000000014901,263815.1000000015,7128,WL,A,1.0
2,1.683000087738037,learn,58316.99991226196,Thu Apr 17 2025 11:06:13 GMT-0500 (Central Daylight Time),265497.799999997,A,bo,O,o,152,1,1682.6999999955297,263815.1000000015,7128,WL,A,1.0
2,1.8500001430511475,learn,58149.99985694885,Thu Apr 17 2025 11:06:13 GMT-0500 (Central Daylight Time),265664.6000000015,A,boo,O,o,147,1,1849.5,263815.1000000015,7128,WL,A,1.0
2,2.133000135421753,learn,57866.99986457825,Thu Apr 17 2025 11:06:13 GMT-0500 (Central Daylight Time),265947.6000000015,A,book,O,k,268,1,2132.5,263815.1000000015,7128,WL,A,1.0
2,4.332000017166138,learn,55667.99998283386,Thu Apr 17 2025 11:06:13 GMT-0500 (Central Daylight Time),268146.8999999985,A,bookenter,O,enter,2193,1,4331.79999999702,263815.1000000015,7128,WL,A,1.0
2,4.89900016784668,learn,55100.99983215332,Thu Apr 17 2025 11:06:13 GMT-0500 (Central Daylight Time),268713.3999999985,A,f,O,f,554,1,566.1999999955297,268147.200000003,7128,WL,A,2.0
2,5.0320000648498535,learn,54967.99993515015,Thu Apr 17 2025 11:06:13 GMT-0500 (Central Daylight Time),268846.700000003,A,fl,O,l,123,1,699.5,268147.200000003,7128,WL,A,2.0
2,5.249000072479248,learn,54750.99992752075,Thu Apr 17 2025 11:06:13 GMT-0500 (Central Daylight Time),269063.299999997,A,flo,O,o,205,1,916.0999999940395,268147.200000003,7128,WL,A,2.0
2,5.365000009536743,learn,54634.99999046326,Thu Apr 17 2025 11:06:13 GMT-0500 (Central Daylight Time),269179.8999999985,A,flow,O,w,101,1,1032.6999999955297,268147.200000003,7128,WL,A,2.0
2,5.582000017166138,learn,54417.99998283386,Thu Apr 17 2025 11:06:13 GMT-0500 (Central Daylight Time),269396.6000000015,A,flowe,O,e,200,1,1249.3999999985099,268147.200000003,7128,WL,A,2.0
2,5.949000120162964,learn,54050.999879837036,Thu Apr 17 2025 11:06:13 GMT-0500 (Central Daylight Time),269763.299999997,A,flower,O,r,360,1,1616.0999999940395,268147.200000003,7128,WL,A,2.0
2,6.498000144958496,learn,53501.999855041504,Thu Apr 17 2025 11:06:13 GMT-0500 (Central Daylight Time),270313.0,A,flowerenter,O,enter,529,1,2165.7999999970198,268147.200000003,7128,WL,A,2.0
2,8.248000144958496,learn,51751.999855041504,Thu Apr 17 2025 11:06:13 GMT-0500 (Central Daylight Time),272062.5,A,l,O,l,1739,1,1749.1000000014901,270313.3999999985,7128,WL,A,3.0
2,8.480999946594238,learn,51519.00005340576,Thu Apr 17 2025 11:06:13 GMT-0500 (Central Daylight Time),272295.6000000015,A,lo,O,o,222,1,1982.2000000029802,270313.3999999985,7128,WL,A,3.0
2,8.730999946594238,learn,51269.00005340576,Thu Apr 17 2025 11:06:13 GMT-0500 (Central Daylight Time),272545.6000000015,A,log,O,g,230,1,2232.2000000029802,270313.3999999985,7128,WL,A,3.0
2,9.04800009727478,learn,50951.99990272522,Thu Apr 17 2025 11:06:13 GMT-0500 (Central Daylight Time),272862.200000003,A,logenter,O,enter,307,1,2548.8000000044703,270313.3999999985,7128,WL,A,3.0
2,9.96399998664856,learn,50036.00001335144,Thu Apr 17 2025 11:06:13 GMT-0500 (Central Daylight Time),273778.6000000015,A,t,O,t,910,1,916.2000000029802,272862.3999999985,7128,WL,A,4.0
2,10.19700002670288,learn,49802.99997329712,Thu Apr 17 2025 11:06:13 GMT-0500 (Central Daylight Time),274011.700000003,A,tr,O,r,226,1,1149.3000000044703,272862.3999999985,7128,WL,A,4.0
2,10.314000129699707,learn,49685.99987030029,Thu Apr 17 2025 11:06:13 GMT-0500 (Central Daylight Time),274128.3999999985,A,tra,O,a,105,1,1266.0,272862.3999999985,7128,WL,A,4.0
2,10.496999979019165,learn,49503.000020980835,Thu Apr 17 2025 11:06:13 GMT-0500 (Central Daylight Time),274311.700000003,A,trai,O,i,172,1,1449.3000000044703,272862.3999999985,7128,WL,A,4.0
2,10.730000019073486,learn,49269.999980926514,Thu Apr 17 2025 11:06:13 GMT-0500 (Central Daylight Time),274545.1000000015,A,train,O,n,213,1,1682.7000000029802,272862.3999999985,7128,WL,A,4.0
2,11.02999997138977,learn,48970.00002861023,Thu Apr 17 2025 11:06:13 GMT-0500 (Central Daylight Time),274844.8999999985,A,trainenter,O,enter,292,1,1982.5,272862.3999999985,7128,WL,A,4.0
2,11.797000169754028,learn,48202.99983024597,Thu Apr 17 2025 11:06:13 GMT-0500 (Central Daylight Time),275611.299999997,A,r,O,r,752,1,766.2999999970198,274845.0,7128,WL,A,5.0
2,12.36300015449524,learn,47636.99984550476,Thu Apr 17 2025 11:06:13 GMT-0500 (Central Daylight Time),276177.799999997,A,ru,O,u,561,1,1332.7999999970198,274845.0,7128,WL,A,5.0
2,13.02999997138977,learn,46970.00002861023,Thu Apr 17 2025 11:06:13 GMT-0500 (Central Daylight Time),276844.299999997,A,rug,O,g,650,1,1999.2999999970198,274845.0,7128,WL,A,5.0
2,13.580000162124634,learn,46419.999837875366,Thu Apr 17 2025 11:06:13 GMT-0500 (Central Daylight Time),277394.299999997,A,rugenter,O,enter,536,1,2549.2999999970198,274845.0,7128,WL,A,5.0
2,14.578999996185303,learn,45421.0000038147,Thu Apr 17 2025 11:06:13 GMT-0500 (Central Daylight Time),278393.799999997,A,c,O,c,994,1,999.1999999955297,277394.6000000015,7128,WL,A,6.0
2,14.712000131607056,learn,45287.999868392944,Thu Apr 17 2025 11:06:13 GMT-0500 (Central Daylight Time),278527.1000000015,A,ch,O,h,123,1,1132.5,277394.6000000015,7128,WL,A,6.0
2,14.845999956130981,learn,45154.00004386902,Thu Apr 17 2025 11:06:13 GMT-0500 (Central Daylight Time),278660.5,A,cha,O,a,117,1,1265.8999999985099,277394.6000000015,7128,WL,A,6.0
2,15.01200008392334,learn,44987.99991607666,Thu Apr 17 2025 11:06:13 GMT-0500 (Central Daylight Time),278827.0,A,chai,O,i,160,1,1432.3999999985099,277394.6000000015,7128,WL,A,6.0
2,15.246000051498413,learn,44753.99994850159,Thu Apr 17 2025 11:06:13 GMT-0500 (Central Daylight Time),279060.299999997,A,chain,O,n,225,1,1665.6999999955297,277394.6000000015,7128,WL,A,6.0
2,15.51200008392334,learn,44487.99991607666,Thu Apr 17 2025 11:06:13 GMT-0500 (Central Daylight Time),279326.799999997,A,chainenter,O,enter,256,1,1932.1999999955297,277394.6000000015,7128,WL,A,6.0
2,17.92799997329712,learn,42072.00002670288,Thu Apr 17 2025 11:06:13 GMT-0500 (Central Daylight Time),281742.799999997,A,g,O,g,2405,1,2415.6999999955297,279327.1000000015,7128,WL,A,7.0
2,18.061000108718872,learn,41938.99989128113,Thu Apr 17 2025 11:06:13 GMT-0500 (Central Daylight Time),281875.8999999985,A,go,O,o,125,1,2548.7999999970198,279327.1000000015,7128,WL,A,7.0
2,18.311000108718872,learn,41688.99989128113,Thu Apr 17 2025 11:06:13 GMT-0500 (Central Daylight Time),282125.8999999985,A,gol,O,l,233,1,2798.7999999970198,279327.1000000015,7128,WL,A,7.0
2,18.444000005722046,learn,41555.999994277954,Thu Apr 17 2025 11:06:13 GMT-0500 (Central Daylight Time),282259.200000003,A,gold,O,d,119,1,2932.10000000149,279327.1000000015,7128,WL,A,7.0
2,18.66100001335144,learn,41338.99998664856,Thu Apr 17 2025 11:06:13 GMT-0500 (Central Daylight Time),282475.799999997,A,goldenter,O,enter,201,1,3148.6999999955297,279327.1000000015,7128,WL,A,7.0
2,22.343000173568726,learn,37656.999826431274,Thu Apr 17 2025 11:06:13 GMT-0500 (Central Daylight Time),286158.1000000015,A,r,O,r,3673,1,3682.10000000149,282476.0,7128,WL,A,8.0
2,22.460000038146973,learn,37539.99996185303,Thu Apr 17 2025 11:06:13 GMT-0500 (Central Daylight Time),286274.700000003,A,ra,O,a,102,1,3798.7000000029802,282476.0,7128,WL,A,8.0
2,22.64300012588501,learn,37356.99987411499,Thu Apr 17 2025 11:06:13 GMT-0500 (Central Daylight Time),286458.1000000015,A,rat,O,t,169,1,3982.10000000149,282476.0,7128,WL,A,8.0
2,22.776999950408936,learn,37223.000049591064,Thu Apr 17 2025 11:06:13 GMT-0500 (Central Daylight Time),286591.299999997,A,ratt,O,t,114,1,4115.29999999702,282476.0,7128,WL,A,8.0
2,22.926000118255615,learn,37073.999881744385,Thu Apr 17 2025 11:06:13 GMT-0500 (Central Daylight Time),286741.1000000015,A,rattl,O,l,140,1,4265.10000000149,282476.0,7128,WL,A,8.0
2,23.075999975204468,learn,36924.00002479553,Thu Apr 17 2025 11:06:13 GMT-0500 (Central Daylight Time),286891.1000000015,A,rattle,O,e,142,1,4415.10000000149,282476.0,7128,WL,A,8.0
2,23.343000173568726,learn,36656.999826431274,Thu Apr 17 2025 11:06:13 GMT-0500 (Central Daylight Time),287157.700000003,A,rattleenter,O,enter,249,1,4681.70000000298,282476.0,7128,WL,A,8.0
2,24.05900001525879,learn,35940.99998474121,Thu Apr 17 2025 11:06:13 GMT-0500 (Central Daylight Time),287874.200000003,A,k,O,k,703,1,716.2000000029802,287158.0,7128,WL,A,9.0
2,24.194000005722046,learn,35805.999994277954,Thu Apr 17 2025 11:06:13 GMT-0500 (Central Daylight Time),288008.6000000015,A,ke,O,e,114,1,850.6000000014901,287158.0,7128,WL,A,9.0
2,24.45900011062622,learn,35540.99988937378,Thu Apr 17 2025 11:06:13 GMT-0500 (Central Daylight Time),288274.0,A,key,O,y,260,1,1116.0,287158.0,7128,WL,A,9.0
2,24.858999967575073,learn,35141.00003242493,Thu Apr 17 2025 11:06:13 GMT-0500 (Central Daylight Time),288673.799999997,A,keyenter,O,enter,394,1,1515.7999999970198,287158.0,7128,WL,A,9.0
2,42.70099997520447,learn,17299.000024795532,Thu Apr 17 2025 11:06:13 GMT-0500 (Central Daylight Time),306518.5,A,m,O,m,17826,1,17844.39999999851,288674.1000000015,7128,WL,A,10.0
2,43.58500003814697,learn,16414.999961853027,Thu Apr 17 2025 11:06:13 GMT-0500 (Central Daylight Time),307401.700000003,A,,O,backspace,877,1,18727.60000000149,288674.1000000015,7128,WL,A,10.0
2,44.50100016593933,learn,15498.999834060669,Thu Apr 17 2025 11:06:13 GMT-0500 (Central Daylight Time),308317.799999997,A,m,O,m,907,1,19643.69999999553,288674.1000000015,7128,WL,A,10.0
2,44.66799998283386,learn,15332.000017166138,Thu Apr 17 2025 11:06:13 GMT-0500 (Central Daylight Time),308484.5,A,me,O,e,151,1,19810.39999999851,288674.1000000015,7128,WL,A,10.0
2,44.801000118255615,learn,15198.999881744385,Thu Apr 17 2025 11:06:13 GMT-0500 (Central Daylight Time),308617.700000003,A,mea,O,a,120,1,19943.60000000149,288674.1000000015,7128,WL,A,10.0
2,45.06700015068054,learn,14932.999849319458,Thu Apr 17 2025 11:06:13 GMT-0500 (Central Daylight Time),308884.200000003,A,mead,O,d,251,1,20210.10000000149,288674.1000000015,7128,WL,A,10.0
2,45.23399996757507,learn,14766.000032424927,Thu Apr 17 2025 11:06:13 GMT-0500 (Central Daylight Time),309050.8999999985,A,meado,O,o,160,1,20376.79999999702,288674.1000000015,7128,WL,A,10.0
2,45.40000009536743,learn,14599.999904632568,Thu Apr 17 2025 11:06:13 GMT-0500 (Central Daylight Time),309217.6000000015,A,meadow,O,w,154,1,20543.5,288674.1000000015,7128,WL,A,10.0
2,45.6010000705719,learn,14398.9999294281,Thu Apr 17 2025 11:06:13 GMT-0500 (Central Daylight Time),309417.6000000015,A,meadowenter,O,enter,179,1,20743.5,288674.1000000015,7128,WL,A,10.0
2,54.664000034332275,learn,5335.999965667725,Thu Apr 17 2025 11:06:13 GMT-0500 (Central Daylight Time),318481.299999997,A,a,O,a,9051,1,9063.39999999851,309417.8999999985,7128,WL,A,11.0
2,54.98099994659424,learn,5019.000053405762,Thu Apr 17 2025 11:06:13 GMT-0500 (Central Daylight Time),318797.8999999985,A,ap,O,p,303,1,9380.0,309417.8999999985,7128,WL,A,11.0
2,55.164000034332275,learn,4835.999965667725,Thu Apr 17 2025 11:06:13 GMT-0500 (Central Daylight Time),318981.299999997,A,app,O,p,175,1,9563.39999999851,309417.8999999985,7128,WL,A,11.0
2,55.3970000743866,learn,4602.999925613403,Thu Apr 17 2025 11:06:13 GMT-0500 (Central Daylight Time),319214.5,A,appl,O,l,215,1,9796.60000000149,309417.8999999985,7128,WL,A,11.0
2,55.54700016975403,learn,4452.999830245972,Thu Apr 17 2025 11:06:13 GMT-0500 (Central Daylight Time),319364.200000003,A,apple,O,e,134,1,9946.30000000447,309417.8999999985,7128,WL,A,11.0
2,55.746999979019165,learn,4253.000020980835,Thu Apr 17 2025 11:06:13 GMT-0500 (Central Daylight Time),319564.200000003,A,appleenter,O,enter,183,1,10146.30000000447,309417.8999999985,7128,WL,A,11.0
2,60.01300001144409,learn,-13.000011444091797,Thu Apr 17 2025 11:06:13 GMT-0500 (Central Daylight Time),323829.700000003,A,None,O,None,4261,1,4265.30000000447,319564.3999999985,7128,WL,A,12.0
3,1.7660000324249268,learn,58233.99996757507,Thu Apr 17 2025 11:06:13 GMT-0500 (Central Daylight Time),396090.200000003,A,b,O,b,1761,1,1766.0,394324.200000003,7128,WL,A,1.0
3,1.9489998817443848,learn,58051.000118255615,Thu Apr 17 2025 11:06:13 GMT-0500 (Central Daylight Time),396273.5,A,bu,O,u,170,1,1949.2999999970198,394324.200000003,7128,WL,A,1.0
3,2.1489999294281006,learn,57851.0000705719,Thu Apr 17 2025 11:06:13 GMT-0500 (Central Daylight Time),396473.5,A,but,O,t,187,1,2149.2999999970198,394324.200000003,7128,WL,A,1.0
3,2.248999834060669,learn,57751.00016593933,Thu Apr 17 2025 11:06:13 GMT-0500 (Central Daylight Time),396573.3999999985,A,butt,O,t,83,1,2249.1999999955297,394324.200000003,7128,WL,A,1.0
3,2.4159998893737793,learn,57584.00011062622,Thu Apr 17 2025 11:06:13 GMT-0500 (Central Daylight Time),396740.0,A,butto,O,o,159,1,2415.7999999970198,394324.200000003,7128,WL,A,1.0
3,2.6989998817443848,learn,57301.000118255615,Thu Apr 17 2025 11:06:13 GMT-0500 (Central Daylight Time),397023.299999997,A,button,O,n,272,1,2699.0999999940395,394324.200000003,7128,WL,A,1.0
3,3.315000057220459,learn,56684.99994277954,Thu Apr 17 2025 11:06:13 GMT-0500 (Central Daylight Time),397639.799999997,A,buttonenter,O,enter,597,1,3315.5999999940395,394324.200000003,7128,WL,A,1.0
3,3.7820000648498535,learn,56217.99993515015,Thu Apr 17 2025 11:06:13 GMT-0500 (Central Daylight Time),398106.3999999985,A,l,O,l,453,1,466.5,397639.8999999985,7128,WL,A,2.0
3,3.9819998741149902,learn,56018.00012588501,Thu Apr 17 2025 11:06:13 GMT-0500 (Central Daylight Time),398306.299999997,A,lo,O,o,186,1,666.3999999985099,397639.8999999985,7128,WL,A,2.0
3,4.181999921798706,learn,55818.000078201294,Thu Apr 17 2025 11:06:13 GMT-0500 (Central Daylight Time),398506.3999999985,A,log,O,g,186,1,866.5,397639.8999999985,7128,WL,A,2.0
3,4.497999906539917,learn,55502.00009346008,Thu Apr 17 2025 11:06:13 GMT-0500 (Central Daylight Time),398822.799999997,A,logenter,O,enter,298,1,1182.8999999985099,397639.8999999985,7128,WL,A,2.0
3,4.830999851226807,learn,55169.00014877319,Thu Apr 17 2025 11:06:13 GMT-0500 (Central Daylight Time),399155.799999997,A,g,O,g,326,1,332.79999999701977,398823.0,7128,WL,A,3.0
3,4.947999954223633,learn,55052.00004577637,Thu Apr 17 2025 11:06:13 GMT-0500 (Central Daylight Time),399272.799999997,A,go,O,o,97,1,449.79999999701977,398823.0,7128,WL,A,3.0
3,5.164999961853027,learn,54835.00003814697,Thu Apr 17 2025 11:06:13 GMT-0500 (Central Daylight Time),399489.3999999985,A,gol,O,l,212,1,666.3999999985099,398823.0,7128,WL,A,3.0
3,5.730999946594238,learn,54269.00005340576,Thu Apr 17 2025 11:06:13 GMT-0500 (Central Daylight Time),400055.700000003,A,gold,O,d,547,1,1232.7000000029802,398823.0,7128,WL,A,3.0
3,5.980999946594238,learn,54019.00005340576,Thu Apr 17 2025 11:06:13 GMT-0500 (Central Daylight Time),400305.5,A,goldenter,O,enter,237,1,1482.5,398823.0,7128,WL,A,3.0
3,6.398000001907349,learn,53601.99999809265,Thu Apr 17 2025 11:06:13 GMT-0500 (Central Daylight Time),400722.1000000015,A,k,O,k,411,1,416.30000000447035,400305.799999997,7128,WL,A,4.0
3,6.563999891281128,learn,53436.00010871887,Thu Apr 17 2025 11:06:13 GMT-0500 (Central Daylight Time),400888.700000003,A,ke,O,e,146,1,582.9000000059605,400305.799999997,7128,WL,A,4.0
3,6.898000001907349,learn,53101.99999809265,Thu Apr 17 2025 11:06:13 GMT-0500 (Central Daylight Time),401221.8999999985,A,key,O,y,316,1,916.1000000014901,400305.799999997,7128,WL,A,4.0
3,7.346999883651733,learn,52653.00011634827,Thu Apr 17 2025 11:06:13 GMT-0500 (Central Daylight Time),401671.8999999985,A,keyenter,O,enter,430,1,1366.1000000014901,400305.799999997,7128,WL,A,4.0
3,8.563999891281128,learn,51436.00010871887,Thu Apr 17 2025 11:06:13 GMT-0500 (Central Daylight Time),402888.0,A,f,O,f,1205,1,1215.7999999970198,401672.200000003,7128,WL,A,5.0
3,8.71399998664856,learn,51286.00001335144,Thu Apr 17 2025 11:06:13 GMT-0500 (Central Daylight Time),403038.1000000015,A,fi,O,i,132,1,1365.8999999985099,401672.200000003,7128,WL,A,5.0
3,8.896999835968018,learn,51103.00016403198,Thu Apr 17 2025 11:06:13 GMT-0500 (Central Daylight Time),403221.200000003,A,fin,O,n,174,1,1549.0,401672.200000003,7128,WL,A,5.0
3,9.164000034332275,learn,50835.999965667725,Thu Apr 17 2025 11:06:13 GMT-0500 (Central Daylight Time),403488.1000000015,A,fing,O,g,247,1,1815.8999999985099,401672.200000003,7128,WL,A,5.0
3,9.346999883651733,learn,50653.00011634827,Thu Apr 17 2025 11:06:13 GMT-0500 (Central Daylight Time),403671.200000003,A,finge,O,e,164,1,1999.0,401672.200000003,7128,WL,A,5.0
3,9.496999979019165,learn,50503.000020980835,Thu Apr 17 2025 11:06:13 GMT-0500 (Central Daylight Time),403821.200000003,A,finger,O,r,141,1,2149.0,401672.200000003,7128,WL,A,5.0
3,9.662999868392944,learn,50337.000131607056,Thu Apr 17 2025 11:06:13 GMT-0500 (Central Daylight Time),403987.799999997,A,fingerenter,O,enter,151,1,2315.5999999940395,401672.200000003,7128,WL,A,5.0
3,9.94599986076355,learn,50054.00013923645,Thu Apr 17 2025 11:06:13 GMT-0500 (Central Daylight Time),404270.8999999985,A,s,O,s,272,1,283.0,403987.8999999985,7128,WL,A,6.0
3,10.145999908447266,learn,49854.000091552734,Thu Apr 17 2025 11:06:13 GMT-0500 (Central Daylight Time),404470.8999999985,A,sa,O,a,189,1,483.0,403987.8999999985,7128,WL,A,6.0
3,10.246999979019165,learn,49753.000020980835,Thu Apr 17 2025 11:06:13 GMT-0500 (Central Daylight Time),404571.0,A,sal,O,l,85,1,583.1000000014901,403987.8999999985,7128,WL,A,6.0
3,10.629999876022339,learn,49370.00012397766,Thu Apr 17 2025 11:06:13 GMT-0500 (Central Daylight Time),404954.1000000015,A,salt,O,t,377,1,966.2000000029802,403987.8999999985,7128,WL,A,6.0
3,10.86299991607666,learn,49137.00008392334,Thu Apr 17 2025 11:06:13 GMT-0500 (Central Daylight Time),405187.3999999985,A,saltenter,O,enter,218,1,1199.5,403987.8999999985,7128,WL,A,6.0
3,11.61299991607666,learn,48387.00008392334,Thu Apr 17 2025 11:06:13 GMT-0500 (Central Daylight Time),405937.5,A,t,O,t,745,1,749.8999999985099,405187.6000000015,7128,WL,A,7.0
3,11.828999996185303,learn,48171.0000038147,Thu Apr 17 2025 11:06:13 GMT-0500 (Central Daylight Time),406153.700000003,A,tr,O,r,211,1,966.1000000014901,405187.6000000015,7128,WL,A,7.0
3,11.928999900817871,learn,48071.00009918213,Thu Apr 17 2025 11:06:13 GMT-0500 (Central Daylight Time),406253.799999997,A,tra,O,a,90,1,1066.1999999955297,405187.6000000015,7128,WL,A,7.0
3,12.111999988555908,learn,47888.00001144409,Thu Apr 17 2025 11:06:13 GMT-0500 (Central Daylight Time),406437.0,A,trai,O,i,175,1,1249.3999999985099,405187.6000000015,7128,WL,A,7.0
3,12.296000003814697,learn,47703.9999961853,Thu Apr 17 2025 11:06:13 GMT-0500 (Central Daylight Time),406620.299999997,A,train,O,n,176,1,1432.6999999955297,405187.6000000015,7128,WL,A,7.0
3,12.496000051498413,learn,47503.99994850159,Thu Apr 17 2025 11:06:13 GMT-0500 (Central Daylight Time),406820.1000000015,A,trainenter,O,enter,192,1,1632.5,405187.6000000015,7128,WL,A,7.0
3,12.746000051498413,learn,47253.99994850159,Thu Apr 17 2025 11:06:13 GMT-0500 (Central Daylight Time),407070.200000003,A,r,O,r,240,1,249.90000000596046,406820.299999997,7128,WL,A,8.0
3,13.062000036239624,learn,46937.999963760376,Thu Apr 17 2025 11:06:13 GMT-0500 (Central Daylight Time),407386.6000000015,A,ru,O,u,310,1,566.3000000044703,406820.299999997,7128,WL,A,8.0
3,13.34500002861023,learn,46654.99997138977,Thu Apr 17 2025 11:06:13 GMT-0500 (Central Daylight Time),407669.8999999985,A,rug,O,g,266,1,849.6000000014901,406820.299999997,7128,WL,A,8.0
3,13.661999940872192,learn,46338.00005912781,Thu Apr 17 2025 11:06:13 GMT-0500 (Central Daylight Time),407986.8999999985,A,rugenter,O,enter,303,1,1166.6000000014901,406820.299999997,7128,WL,A,8.0
3,15.227999925613403,learn,44772.0000743866,Thu Apr 17 2025 11:06:13 GMT-0500 (Central Daylight Time),409552.700000003,A,t,O,t,1554,1,1565.6000000014901,407987.1000000015,7128,WL,A,9.0
3,15.977999925613403,learn,44022.0000743866,Thu Apr 17 2025 11:06:13 GMT-0500 (Central Daylight Time),410302.5,A,,O,backspace,739,1,2315.39999999851,407987.1000000015,7128,WL,A,9.0
3,16.194999933242798,learn,43805.0000667572,Thu Apr 17 2025 11:06:13 GMT-0500 (Central Daylight Time),410519.0,A,t,O,t,206,1,2531.89999999851,407987.1000000015,7128,WL,A,9.0
3,16.361000061035156,learn,43638.999938964844,Thu Apr 17 2025 11:06:13 GMT-0500 (Central Daylight Time),410685.700000003,A,ta,O,a,150,1,2698.60000000149,407987.1000000015,7128,WL,A,9.0
3,16.611000061035156,learn,43388.999938964844,Thu Apr 17 2025 11:06:13 GMT-0500 (Central Daylight Time),410935.5,A,tat,O,t,230,1,2948.39999999851,407987.1000000015,7128,WL,A,9.0
3,16.727999925613403,learn,43272.0000743866,Thu Apr 17 2025 11:06:13 GMT-0500 (Central Daylight Time),411052.299999997,A,tatt,O,t,101,1,3065.1999999955297,407987.1000000015,7128,WL,A,9.0
3,17.310999870300293,learn,42689.00012969971,Thu Apr 17 2025 11:06:13 GMT-0500 (Central Daylight Time),411635.3999999985,A,tat,O,backspace,576,1,3648.2999999970198,407987.1000000015,7128,WL,A,9.0
3,17.51099991798401,learn,42489.00008201599,Thu Apr 17 2025 11:06:13 GMT-0500 (Central Daylight Time),411835.299999997,A,ta,O,backspace,193,1,3848.1999999955297,407987.1000000015,7128,WL,A,9.0
3,17.694000005722046,learn,42305.999994277954,Thu Apr 17 2025 11:06:13 GMT-0500 (Central Daylight Time),412018.700000003,A,t,O,backspace,169,1,4031.60000000149,407987.1000000015,7128,WL,A,9.0
3,17.861000061035156,learn,42138.999938964844,Thu Apr 17 2025 11:06:13 GMT-0500 (Central Daylight Time),412185.299999997,A,,O,backspace,155,1,4198.19999999553,407987.1000000015,7128,WL,A,9.0
3,18.626999855041504,learn,41373.000144958496,Thu Apr 17 2025 11:06:13 GMT-0500 (Central Daylight Time),412951.700000003,A,r,O,r,755,1,4964.60000000149,407987.1000000015,7128,WL,A,9.0
3,18.74399995803833,learn,41256.00004196167,Thu Apr 17 2025 11:06:13 GMT-0500 (Central Daylight Time),413068.200000003,A,ra,O,a,108,1,5081.10000000149,407987.1000000015,7128,WL,A,9.0
3,18.944000005722046,learn,41055.999994277954,Thu Apr 17 2025 11:06:13 GMT-0500 (Central Daylight Time),413268.1000000015,A,rat,O,t,184,1,5281.0,407987.1000000015,7128,WL,A,9.0
3,19.060999870300293,learn,40939.00012969971,Thu Apr 17 2025 11:06:13 GMT-0500 (Central Daylight Time),413385.0,A,ratt,O,t,104,1,5397.89999999851,407987.1000000015,7128,WL,A,9.0
3,19.24399995803833,learn,40756.00004196167,Thu Apr 17 2025 11:06:13 GMT-0500 (Central Daylight Time),413568.0,A,rattl,O,l,163,1,5580.89999999851,407987.1000000015,7128,WL,A,9.0
3,19.3439998626709,learn,40656.0001373291,Thu Apr 17 2025 11:06:13 GMT-0500 (Central Daylight Time),413667.8999999985,A,rattle,O,e,92,1,5680.79999999702,407987.1000000015,7128,WL,A,9.0
3,19.57699990272522,learn,40423.00009727478,Thu Apr 17 2025 11:06:13 GMT-0500 (Central Daylight Time),413901.5,A,rattleenter,O,enter,216,1,5914.39999999851,407987.1000000015,7128,WL,A,9.0
3,21.109999895095825,learn,38890.000104904175,Thu Apr 17 2025 11:06:13 GMT-0500 (Central Daylight Time),415434.200000003,A,h,O,h,1519,1,1532.5,413901.700000003,7128,WL,A,10.0
3,21.276999950408936,learn,38723.000049591064,Thu Apr 17 2025 11:06:13 GMT-0500 (Central Daylight Time),415601.0,A,ha,O,a,146,1,1699.2999999970198,413901.700000003,7128,WL,A,10.0
3,21.47599983215332,learn,38524.00016784668,Thu Apr 17 2025 11:06:13 GMT-0500 (Central Daylight Time),415800.8999999985,A,har,O,r,179,1,1899.1999999955297,413901.700000003,7128,WL,A,10.0
3,22.109999895095825,learn,37890.000104904175,Thu Apr 17 2025 11:06:13 GMT-0500 (Central Daylight Time),416434.0,A,harp,O,p,620,1,2532.2999999970198,413901.700000003,7128,WL,A,10.0
3,22.408999919891357,learn,37591.00008010864,Thu Apr 17 2025 11:06:13 GMT-0500 (Central Daylight Time),416733.8999999985,A,harpenter,O,enter,283,1,2832.1999999955297,413901.700000003,7128,WL,A,10.0
3,24.506999969482422,learn,35493.00003051758,Thu Apr 17 2025 11:06:13 GMT-0500 (Central Daylight Time),418833.6000000015,A,b,O,b,2095,1,2099.39999999851,416734.200000003,7128,WL,A,11.0
3,24.655999898910522,learn,35344.00010108948,Thu Apr 17 2025 11:06:13 GMT-0500 (Central Daylight Time),418983.1000000015,A,bo,O,o,139,1,2248.89999999851,416734.200000003,7128,WL,A,11.0
3,24.822999954223633,learn,35177.00004577637,Thu Apr 17 2025 11:06:13 GMT-0500 (Central Daylight Time),419149.700000003,A,boo,O,o,149,1,2415.5,416734.200000003,7128,WL,A,11.0
3,25.02300000190735,learn,34976.99999809265,Thu Apr 17 2025 11:06:13 GMT-0500 (Central Daylight Time),419349.700000003,A,book,O,k,191,1,2615.5,416734.200000003,7128,WL,A,11.0
3,25.305999994277954,learn,34694.000005722046,Thu Apr 17 2025 11:06:13 GMT-0500 (Central Daylight Time),419632.8999999985,A,bookenter,O,enter,262,1,2898.6999999955297,416734.200000003,7128,WL,A,11.0
3,26.85599994659424,learn,33144.00005340576,Thu Apr 17 2025 11:06:13 GMT-0500 (Central Daylight Time),421182.3999999985,A,f,O,f,1539,1,1549.1999999955297,419633.200000003,7128,WL,A,12.0
3,26.988999843597412,learn,33011.00015640259,Thu Apr 17 2025 11:06:13 GMT-0500 (Central Daylight Time),421315.799999997,A,fl,O,l,118,1,1682.5999999940395,419633.200000003,7128,WL,A,12.0
3,27.188999891281128,learn,32811.00010871887,Thu Apr 17 2025 11:06:13 GMT-0500 (Central Daylight Time),421515.5,A,flo,O,o,193,1,1882.2999999970198,419633.200000003,7128,WL,A,12.0
3,27.304999828338623,learn,32695.000171661377,Thu Apr 17 2025 11:06:13 GMT-0500 (Central Daylight Time),421632.200000003,A,flow,O,w,97,1,1999.0,419633.200000003,7128,WL,A,12.0
3,27.488999843597412,learn,32511.000156402588,Thu Apr 17 2025 11:06:13 GMT-0500 (Central Daylight Time),421815.6000000015,A,flowe,O,e,164,1,2182.39999999851,419633.200000003,7128,WL,A,12.0
3,27.721999883651733,learn,32278.000116348267,Thu Apr 17 2025 11:06:13 GMT-0500 (Central Daylight Time),422048.799999997,A,flower,O,r,212,1,2415.5999999940395,419633.200000003,7128,WL,A,12.0
3,27.938999891281128,learn,32061.000108718872,Thu Apr 17 2025 11:06:13 GMT-0500 (Central Daylight Time),422265.3999999985,A,flowerenter,O,enter,204,1,2632.1999999955297,419633.200000003,7128,WL,A,12.0
3,28.954999923706055,learn,31045.000076293945,Thu Apr 17 2025 11:06:13 GMT-0500 (Central Daylight Time),423281.6000000015,A,k,O,k,1003,1,1015.8000000044703,422265.799999997,7128,WL,A,13.0
3,29.088000059127808,learn,30911.999940872192,Thu Apr 17 2025 11:06:13 GMT-0500 (Central Daylight Time),423415.1000000015,A,ke,O,e,122,1,1149.3000000044703,422265.799999997,7128,WL,A,13.0
3,29.338000059127808,learn,30661.999940872192,Thu Apr 17 2025 11:06:13 GMT-0500 (Central Daylight Time),423664.8999999985,A,key,O,y,229,1,1399.1000000014901,422265.799999997,7128,WL,A,13.0
3,29.605000019073486,learn,30394.999980926514,Thu Apr 17 2025 11:06:13 GMT-0500 (Central Daylight Time),423931.5,A,keyenter,O,enter,252,1,1665.7000000029802,422265.799999997,7128,WL,A,13.0
3,31.687000036239624,learn,28312.999963760376,Thu Apr 17 2025 11:06:13 GMT-0500 (Central Daylight Time),426014.1000000015,A,t,O,t,2065,1,2082.3000000044703,423931.799999997,7128,WL,A,14.0
3,31.90400004386902,learn,28095.99995613098,Thu Apr 17 2025 11:06:13 GMT-0500 (Central Daylight Time),426230.700000003,A,tr,O,r,206,1,2298.9000000059605,423931.799999997,7128,WL,A,14.0
3,32.00399994850159,learn,27996.000051498413,Thu Apr 17 2025 11:06:13 GMT-0500 (Central Daylight Time),426330.8999999985,A,tra,O,a,86,1,2399.10000000149,423931.799999997,7128,WL,A,14.0
3,32.36999988555908,learn,27630.000114440918,Thu Apr 17 2025 11:06:13 GMT-0500 (Central Daylight Time),426697.200000003,A,trai,O,i,354,1,2765.4000000059605,423931.799999997,7128,WL,A,14.0
3,32.55399990081787,learn,27446.00009918213,Thu Apr 17 2025 11:06:13 GMT-0500 (Central Daylight Time),426880.700000003,A,train,O,n,163,1,2948.9000000059605,423931.799999997,7128,WL,A,14.0
3,32.769999980926514,learn,27230.000019073486,Thu Apr 17 2025 11:06:13 GMT-0500 (Central Daylight Time),427097.1000000015,A,trainenter,O,enter,204,1,3165.3000000044703,423931.799999997,7128,WL,A,14.0
3,60.01199984550476,learn,-11.999845504760742,Thu Apr 17 2025 11:06:13 GMT-0500 (Central Daylight Time),454338.799999997,A,None,O,None,27237,1,27241.39999999851,427097.3999999985,7128,WL,A,15.0
4,2.8989999294281006,learn,57101.0000705719,Thu Apr 17 2025 11:06:13 GMT-0500 (Central Daylight Time),531431.200000003,A,r,O,r,2889,1,2898.9000000059605,528532.299999997,7128,WL,A,1.0
4,3.0160000324249268,learn,56983.99996757507,Thu Apr 17 2025 11:06:13 GMT-0500 (Central Daylight Time),531547.700000003,A,ra,O,a,109,1,3015.4000000059605,528532.299999997,7128,WL,A,1.0
4,3.2330000400543213,learn,56766.99995994568,Thu Apr 17 2025 11:06:13 GMT-0500 (Central Daylight Time),531764.3999999985,A,rat,O,t,201,1,3232.10000000149,528532.299999997,7128,WL,A,1.0
4,3.365999937057495,learn,56634.000062942505,Thu Apr 17 2025 11:06:13 GMT-0500 (Central Daylight Time),531897.799999997,A,ratt,O,t,112,1,3365.5,528532.299999997,7128,WL,A,1.0
4,3.565999984741211,learn,56434.00001525879,Thu Apr 17 2025 11:06:13 GMT-0500 (Central Daylight Time),532097.6000000015,A,rattl,O,l,179,1,3565.3000000044703,528532.299999997,7128,WL,A,1.0
4,3.682999849319458,learn,56317.00015068054,Thu Apr 17 2025 11:06:13 GMT-0500 (Central Daylight Time),532214.200000003,A,rattle,O,e,99,1,3681.9000000059605,528532.299999997,7128,WL,A,1.0
4,3.8989999294281006,learn,56101.0000705719,Thu Apr 17 2025 11:06:13 GMT-0500 (Central Daylight Time),532430.799999997,A,rattleenter,O,enter,198,1,3898.5,528532.299999997,7128,WL,A,1.0
4,4.431999921798706,learn,55568.000078201294,Thu Apr 17 2025 11:06:13 GMT-0500 (Central Daylight Time),532964.0,A,l,O,l,518,1,533.0,532431.0,7128,WL,A,2.0
4,4.648999929428101,learn,55351.0000705719,Thu Apr 17 2025 11:06:13 GMT-0500 (Central Daylight Time),533180.5,A,lo,O,o,200,1,749.5,532431.0,7128,WL,A,2.0
4,4.898999929428101,learn,55101.0000705719,Thu Apr 17 2025 11:06:13 GMT-0500 (Central Daylight Time),533430.6000000015,A,log,O,g,239,1,999.6000000014901,532431.0,7128,WL,A,2.0
4,5.348999977111816,learn,54651.00002288818,Thu Apr 17 2025 11:06:13 GMT-0500 (Central Daylight Time),533880.5,A,logenter,O,enter,438,1,1449.5,532431.0,7128,WL,A,2.0
4,6.497999906539917,learn,53502.00009346008,Thu Apr 17 2025 11:06:13 GMT-0500 (Central Daylight Time),535030.200000003,A,k,O,k,1132,1,1149.5,533880.700000003,7128,WL,A,3.0
4,6.631999969482422,learn,53368.00003051758,Thu Apr 17 2025 11:06:13 GMT-0500 (Central Daylight Time),535163.299999997,A,ke,O,e,118,1,1282.5999999940395,533880.700000003,7128,WL,A,3.0
4,6.881999969482422,learn,53118.00003051758,Thu Apr 17 2025 11:06:13 GMT-0500 (Central Daylight Time),535413.299999997,A,key,O,y,241,1,1532.5999999940395,533880.700000003,7128,WL,A,3.0
4,7.197999954223633,learn,52802.00004577637,Thu Apr 17 2025 11:06:13 GMT-0500 (Central Daylight Time),535729.799999997,A,keyenter,O,enter,303,1,1849.0999999940395,533880.700000003,7128,WL,A,3.0
4,7.447999954223633,learn,52552.00004577637,Thu Apr 17 2025 11:06:13 GMT-0500 (Central Daylight Time),535979.799999997,A,s,O,s,235,1,249.79999999701977,535730.0,7128,WL,A,4.0
4,7.63100004196167,learn,52368.99995803833,Thu Apr 17 2025 11:06:13 GMT-0500 (Central Daylight Time),536163.1000000015,A,sa,O,a,177,1,433.1000000014901,535730.0,7128,WL,A,4.0
4,7.7149999141693115,learn,52285.00008583069,Thu Apr 17 2025 11:06:13 GMT-0500 (Central Daylight Time),536246.3999999985,A,sal,O,l,73,1,516.3999999985099,535730.0,7128,WL,A,4.0
4,8.013999938964844,learn,51986.000061035156,Thu Apr 17 2025 11:06:13 GMT-0500 (Central Daylight Time),536546.1000000015,A,salt,O,t,294,1,816.1000000014901,535730.0,7128,WL,A,4.0
4,8.230999946594238,learn,51769.00005340576,Thu Apr 17 2025 11:06:13 GMT-0500 (Central Daylight Time),536762.799999997,A,saltenter,O,enter,210,1,1032.7999999970198,535730.0,7128,WL,A,4.0
4,8.547999858856201,learn,51452.0001411438,Thu Apr 17 2025 11:06:13 GMT-0500 (Central Daylight Time),537079.299999997,A,f,O,f,303,1,316.19999999552965,536763.1000000015,7128,WL,A,5.0
4,8.680999994277954,learn,51319.000005722046,Thu Apr 17 2025 11:06:13 GMT-0500 (Central Daylight Time),537212.700000003,A,fi,O,i,125,1,449.6000000014901,536763.1000000015,7128,WL,A,5.0
4,8.898000001907349,learn,51101.99999809265,Thu Apr 17 2025 11:06:13 GMT-0500 (Central Daylight Time),537429.3999999985,A,fin,O,n,200,1,666.2999999970198,536763.1000000015,7128,WL,A,5.0
4,9.063999891281128,learn,50936.00010871887,Thu Apr 17 2025 11:06:13 GMT-0500 (Central Daylight Time),537596.0,A,fing,O,g,151,1,832.8999999985099,536763.1000000015,7128,WL,A,5.0
4,9.230999946594238,learn,50769.00005340576,Thu Apr 17 2025 11:06:13 GMT-0500 (Central Daylight Time),537762.6000000015,A,finge,O,e,153,1,999.5,536763.1000000015,7128,WL,A,5.0
4,9.330999851226807,learn,50669.00014877319,Thu Apr 17 2025 11:06:13 GMT-0500 (Central Daylight Time),537862.3999999985,A,finger,O,r,90,1,1099.2999999970198,536763.1000000015,7128,WL,A,5.0
4,9.563999891281128,learn,50436.00010871887,Thu Apr 17 2025 11:06:13 GMT-0500 (Central Daylight Time),538095.799999997,A,fingerenter,O,enter,214,1,1332.6999999955297,536763.1000000015,7128,WL,A,5.0
4,9.879999876022339,learn,50120.00012397766,Thu Apr 17 2025 11:06:13 GMT-0500 (Central Daylight Time),538412.200000003,A,h,O,h,308,1,316.0,538096.200000003,7128,WL,A,6.0
4,9.996999979019165,learn,50003.000020980835,Thu Apr 17 2025 11:06:13 GMT-0500 (Central Daylight Time),538528.799999997,A,ha,O,a,104,1,432.59999999403954,538096.200000003,7128,WL,A,6.0
4,10.164000034332275,learn,49835.999965667725,Thu Apr 17 2025 11:06:13 GMT-0500 (Central Daylight Time),538695.5,A,har,O,r,156,1,599.2999999970198,538096.200000003,7128,WL,A,6.0
4,10.496999979019165,learn,49503.000020980835,Thu Apr 17 2025 11:06:13 GMT-0500 (Central Daylight Time),539028.799999997,A,harp,O,p,325,1,932.5999999940395,538096.200000003,7128,WL,A,6.0
4,10.86299991607666,learn,49137.00008392334,Thu Apr 17 2025 11:06:13 GMT-0500 (Central Daylight Time),539395.299999997,A,harpenter,O,enter,360,1,1299.0999999940395,538096.200000003,7128,WL,A,6.0
4,11.763000011444092,learn,48236.99998855591,Thu Apr 17 2025 11:06:13 GMT-0500 (Central Daylight Time),540295.0,A,b,O,b,889,1,899.3999999985099,539395.6000000015,7128,WL,A,7.0
4,11.980000019073486,learn,48019.999980926514,Thu Apr 17 2025 11:06:13 GMT-0500 (Central Daylight Time),540511.6000000015,A,bo,O,o,205,1,1116.0,539395.6000000015,7128,WL,A,7.0
4,12.129999876022339,learn,47870.00012397766,Thu Apr 17 2025 11:06:13 GMT-0500 (Central Daylight Time),540661.700000003,A,boo,O,o,133,1,1266.1000000014901,539395.6000000015,7128,WL,A,7.0
4,12.746000051498413,learn,47253.99994850159,Thu Apr 17 2025 11:06:13 GMT-0500 (Central Daylight Time),541278.1000000015,A,book,O,k,599,1,1882.5,539395.6000000015,7128,WL,A,7.0
4,13.02999997138977,learn,46970.00002861023,Thu Apr 17 2025 11:06:13 GMT-0500 (Central Daylight Time),541561.299999997,A,bookenter,O,enter,270,1,2165.6999999955297,539395.6000000015,7128,WL,A,7.0
4,13.713000059127808,learn,46286.99994087219,Thu Apr 17 2025 11:06:13 GMT-0500 (Central Daylight Time),542244.5,A,t,O,t,667,1,682.8999999985099,541561.6000000015,7128,WL,A,8.0
4,13.912999868392944,learn,46087.000131607056,Thu Apr 17 2025 11:06:13 GMT-0500 (Central Daylight Time),542444.700000003,A,tr,O,r,184,1,883.1000000014901,541561.6000000015,7128,WL,A,8.0
4,14.062999963760376,learn,45937.000036239624,Thu Apr 17 2025 11:06:13 GMT-0500 (Central Daylight Time),542594.3999999985,A,trq,O,q,145,1,1032.7999999970198,541561.6000000015,7128,WL,A,8.0
4,14.145999908447266,learn,45854.000091552734,Thu Apr 17 2025 11:06:13 GMT-0500 (Central Daylight Time),542677.5,A,trqi,O,i,74,1,1115.8999999985099,541561.6000000015,7128,WL,A,8.0
4,14.312000036239624,learn,45687.999963760376,Thu Apr 17 2025 11:06:13 GMT-0500 (Central Daylight Time),542844.200000003,A,trqin,O,n,159,1,1282.6000000014901,541561.6000000015,7128,WL,A,8.0
4,14.562000036239624,learn,45437.999963760376,Thu Apr 17 2025 11:06:13 GMT-0500 (Central Daylight Time),543094.200000003,A,trqinenter,O,enter,240,1,1532.6000000014901,541561.6000000015,7128,WL,A,8.0
4,15.294999837875366,learn,44705.000162124634,Thu Apr 17 2025 11:06:13 GMT-0500 (Central Daylight Time),543827.200000003,A,r,O,r,718,1,732.7000000029802,543094.5,7128,WL,A,9.0
4,15.44599986076355,learn,44554.00013923645,Thu Apr 17 2025 11:06:13 GMT-0500 (Central Daylight Time),543977.3999999985,A,ru,O,u,145,1,882.8999999985099,543094.5,7128,WL,A,9.0
4,15.828999996185303,learn,44171.0000038147,Thu Apr 17 2025 11:06:13 GMT-0500 (Central Daylight Time),544360.3999999985,A,rug,O,g,363,1,1265.8999999985099,543094.5,7128,WL,A,9.0
4,15.994999885559082,learn,44005.00011444092,Thu Apr 17 2025 11:06:13 GMT-0500 (Central Daylight Time),544527.1000000015,A,rugenter,O,enter,156,1,1432.6000000014901,543094.5,7128,WL,A,9.0
4,17.744999885559082,learn,42255.00011444092,Thu Apr 17 2025 11:06:13 GMT-0500 (Central Daylight Time),546276.5,A,m,O,m,1733,1,1749.1000000014901,544527.3999999985,7128,WL,A,10.0
4,17.878000020980835,learn,42121.999979019165,Thu Apr 17 2025 11:06:13 GMT-0500 (Central Daylight Time),546409.799999997,A,me,O,e,120,1,1882.3999999985099,544527.3999999985,7128,WL,A,10.0
4,18.01099991798401,learn,41989.00008201599,Thu Apr 17 2025 11:06:13 GMT-0500 (Central Daylight Time),546543.1000000015,A,mea,O,a,123,1,2015.7000000029802,544527.3999999985,7128,WL,A,10.0
4,18.294999837875366,learn,41705.000162124634,Thu Apr 17 2025 11:06:13 GMT-0500 (Central Daylight Time),546826.3999999985,A,mead,O,d,277,1,2299.0,544527.3999999985,7128,WL,A,10.0
4,18.444000005722046,learn,41555.999994277954,Thu Apr 17 2025 11:06:13 GMT-0500 (Central Daylight Time),546976.299999997,A,meado,O,o,138,1,2448.89999999851,544527.3999999985,7128,WL,A,10.0
4,18.64400005340576,learn,41355.99994659424,Thu Apr 17 2025 11:06:13 GMT-0500 (Central Daylight Time),547176.200000003,A,meadow,O,w,188,1,2648.8000000044703,544527.3999999985,7128,WL,A,10.0
4,18.76099991798401,learn,41239.00008201599,Thu Apr 17 2025 11:06:13 GMT-0500 (Central Daylight Time),547292.799999997,A,meadowenter,O,enter,108,1,2765.39999999851,544527.3999999985,7128,WL,A,10.0
4,32.53999996185303,learn,27460.000038146973,Thu Apr 17 2025 11:06:13 GMT-0500 (Central Daylight Time),561072.0,A,f,O,f,13760,1,13778.89999999851,547293.1000000015,7128,WL,A,11.0
4,32.639999866485596,learn,27360.000133514404,Thu Apr 17 2025 11:06:13 GMT-0500 (Central Daylight Time),561171.8999999985,A,fi,O,i,84,1,13878.79999999702,547293.1000000015,7128,WL,A,11.0
4,32.806999921798706,learn,27193.000078201294,Thu Apr 17 2025 11:06:13 GMT-0500 (Central Daylight Time),561338.5,A,fin,O,n,161,1,14045.39999999851,547293.1000000015,7128,WL,A,11.0
4,32.94000005722046,learn,27059.99994277954,Thu Apr 17 2025 11:06:13 GMT-0500 (Central Daylight Time),561471.700000003,A,fing,O,g,122,1,14178.60000000149,547293.1000000015,7128,WL,A,11.0
4,33.12399983406067,learn,26876.00016593933,Thu Apr 17 2025 11:06:13 GMT-0500 (Central Daylight Time),561655.6000000015,A,finge,O,e,165,1,14362.5,547293.1000000015,7128,WL,A,11.0
4,33.24000000953674,learn,26759.999990463257,Thu Apr 17 2025 11:06:13 GMT-0500 (Central Daylight Time),561771.6000000015,A,finger,O,r,101,1,14478.5,547293.1000000015,7128,WL,A,11.0
4,33.33999991416931,learn,26660.00008583069,Thu Apr 17 2025 11:06:13 GMT-0500 (Central Daylight Time),561871.6000000015,A,fingerenter,O,enter,80,1,14578.5,547293.1000000015,7128,WL,A,11.0
4,46.2189998626709,learn,13781.000137329102,Thu Apr 17 2025 11:06:13 GMT-0500 (Central Daylight Time),574751.0,A,k,O,k,12861,1,12879.0,561872.0,7128,WL,A,12.0
4,46.319000005722046,learn,13680.999994277954,Thu Apr 17 2025 11:06:13 GMT-0500 (Central Daylight Time),574851.1000000015,A,ke,O,e,84,1,12979.10000000149,561872.0,7128,WL,A,12.0
4,46.569000005722046,learn,13430.999994277954,Thu Apr 17 2025 11:06:13 GMT-0500 (Central Daylight Time),575101.0,A,key,O,y,233,1,13229.0,561872.0,7128,WL,A,12.0
4,46.819000005722046,learn,13180.999994277954,Thu Apr 17 2025 11:06:13 GMT-0500 (Central Daylight Time),575350.700000003,A,keyenter,O,enter,239,1,13478.70000000298,561872.0,7128,WL,A,12.0
4,60.014999866485596,learn,-14.999866485595703,Thu Apr 17 2025 11:06:13 GMT-0500 (Central Daylight Time),588546.6000000015,A,None,O,None,13191,1,13195.60000000149,575351.0,7128,WL,A,13.0
5,1.9000000953674316,learn,60000.0,Thu Apr 17 2025 11:06:13 GMT-0500 (Central Daylight Time),660307.6000000015,A,b,O,b,1893,1,1899.3000000044703,658408.299999997,7128,WL,A,1.0
5,2.049999952316284,learn,60000.0,Thu Apr 17 2025 11:06:13 GMT-0500 (Central Daylight Time),660457.799999997,A,bo,O,o,144,1,2049.5,658408.299999997,7128,WL,A,1.0
5,2.200000047683716,learn,60000.0,Thu Apr 17 2025 11:06:13 GMT-0500 (Central Daylight Time),660607.5,A,boo,O,o,131,1,2199.2000000029802,658408.299999997,7128,WL,A,1.0
5,2.4160001277923584,learn,60000.0,Thu Apr 17 2025 11:06:13 GMT-0500 (Central Daylight Time),660824.0,A,book,O,k,195,1,2415.7000000029802,658408.299999997,7128,WL,A,1.0
5,2.699000120162964,learn,60000.0,Thu Apr 17 2025 11:06:13 GMT-0500 (Central Daylight Time),661107.200000003,A,bookenter,O,enter,277,1,2698.9000000059605,658408.299999997,7128,WL,A,1.0
5,3.1489999294281006,learn,60000.0,Thu Apr 17 2025 11:06:13 GMT-0500 (Central Daylight Time),661556.8999999985,A,f,O,f,442,1,449.5,661107.3999999985,7128,WL,A,2.0
5,3.2820000648498535,learn,60000.0,Thu Apr 17 2025 11:06:13 GMT-0500 (Central Daylight Time),661690.299999997,A,fl,O,l,128,1,582.8999999985099,661107.3999999985,7128,WL,A,2.0
5,3.4830000400543213,learn,60000.0,Thu Apr 17 2025 11:06:13 GMT-0500 (Central Daylight Time),661890.5,A,flo,O,o,194,1,783.1000000014901,661107.3999999985,7128,WL,A,2.0
5,3.615999937057495,learn,60000.0,Thu Apr 17 2025 11:06:13 GMT-0500 (Central Daylight Time),662023.700000003,A,flow,O,w,114,1,916.3000000044703,661107.3999999985,7128,WL,A,2.0
5,3.815999984741211,learn,60000.0,Thu Apr 17 2025 11:06:13 GMT-0500 (Central Daylight Time),662223.6000000015,A,flowe,O,e,189,1,1116.2000000029802,661107.3999999985,7128,WL,A,2.0
5,4.0320000648498535,learn,60000.0,Thu Apr 17 2025 11:06:13 GMT-0500 (Central Daylight Time),662440.299999997,A,flower,O,r,206,1,1332.8999999985099,661107.3999999985,7128,WL,A,2.0
5,4.249000072479248,learn,60000.0,Thu Apr 17 2025 11:06:13 GMT-0500 (Central Daylight Time),662656.8999999985,A,flowerenter,O,enter,204,1,1549.5,661107.3999999985,7128,WL,A,2.0
5,4.515000104904175,learn,60000.0,Thu Apr 17 2025 11:06:13 GMT-0500 (Central Daylight Time),662923.299999997,A,r,O,r,259,1,266.09999999403954,662657.200000003,7128,WL,A,3.0
5,4.648999929428101,learn,60000.0,Thu Apr 17 2025 11:06:13 GMT-0500 (Central Daylight Time),663056.6000000015,A,ra,O,a,121,1,399.3999999985099,662657.200000003,7128,WL,A,3.0
5,4.664999961853027,learn,60000.0,Thu Apr 17 2025 11:06:13 GMT-0500 (Central Daylight Time),663073.299999997,A,raq,O,q,4,1,416.09999999403954,662657.200000003,7128,WL,A,3.0
5,4.815000057220459,learn,60000.0,Thu Apr 17 2025 11:06:13 GMT-0500 (Central Daylight Time),663223.200000003,A,raqt,O,t,139,1,566.0,662657.200000003,7128,WL,A,3.0
5,4.9649999141693115,learn,60000.0,Thu Apr 17 2025 11:06:13 GMT-0500 (Central Daylight Time),663373.200000003,A,raqtt,O,t,133,1,716.0,662657.200000003,7128,WL,A,3.0
5,5.082000017166138,learn,60000.0,Thu Apr 17 2025 11:06:13 GMT-0500 (Central Daylight Time),663489.700000003,A,raqttl,O,l,104,1,832.5,662657.200000003,7128,WL,A,3.0
5,5.232000112533569,learn,60000.0,Thu Apr 17 2025 11:06:13 GMT-0500 (Central Daylight Time),663639.700000003,A,raqttle,O,e,139,1,982.5,662657.200000003,7128,WL,A,3.0
5,5.482000112533569,learn,60000.0,Thu Apr 17 2025 11:06:13 GMT-0500 (Central Daylight Time),663889.799999997,A,raqttleenter,O,enter,230,1,1232.5999999940395,662657.200000003,7128,WL,A,3.0
5,5.8480000495910645,learn,60000.0,Thu Apr 17 2025 11:06:13 GMT-0500 (Central Daylight Time),664256.299999997,A,t,O,t,346,1,366.19999999552965,663890.1000000015,7128,WL,A,4.0
5,6.04800009727478,learn,60000.0,Thu Apr 17 2025 11:06:13 GMT-0500 (Central Daylight Time),664456.1000000015,A,tr,O,r,188,1,566.0,663890.1000000015,7128,WL,A,4.0
5,6.131999969482422,learn,60000.0,Thu Apr 17 2025 11:06:13 GMT-0500 (Central Daylight Time),664539.3999999985,A,tra,O,a,68,1,649.2999999970198,663890.1000000015,7128,WL,A,4.0
5,6.332000017166138,learn,60000.0,Thu Apr 17 2025 11:06:13 GMT-0500 (Central Daylight Time),664739.3999999985,A,trai,O,i,193,1,849.2999999970198,663890.1000000015,7128,WL,A,4.0
5,6.515000104904175,learn,60000.0,Thu Apr 17 2025 11:06:13 GMT-0500 (Central Daylight Time),664922.6000000015,A,train,O,n,169,1,1032.5,663890.1000000015,7128,WL,A,4.0
5,6.765000104904175,learn,60000.0,Thu Apr 17 2025 11:06:13 GMT-0500 (Central Daylight Time),665172.700000003,A,trainenter,O,enter,242,1,1282.6000000014901,663890.1000000015,7128,WL,A,4.0
5,7.281000137329102,learn,60000.0,Thu Apr 17 2025 11:06:13 GMT-0500 (Central Daylight Time),665689.200000003,A,c,O,c,495,1,516.2000000029802,665173.0,7128,WL,A,5.0
5,7.365000009536743,learn,60000.0,Thu Apr 17 2025 11:06:13 GMT-0500 (Central Daylight Time),665772.6000000015,A,ch,O,h,75,1,599.6000000014901,665173.0,7128,WL,A,5.0
5,7.79800009727478,learn,60000.0,Thu Apr 17 2025 11:06:13 GMT-0500 (Central Daylight Time),666205.700000003,A,chm,O,m,424,1,1032.7000000029802,665173.0,7128,WL,A,5.0
5,8.049000024795532,learn,60000.0,Thu Apr 17 2025 11:06:13 GMT-0500 (Central Daylight Time),666456.8999999985,A,chmn,O,n,231,1,1283.8999999985099,665173.0,7128,WL,A,5.0
5,8.180999994277954,learn,60000.0,Thu Apr 17 2025 11:06:13 GMT-0500 (Central Daylight Time),666588.8999999985,A,chmne,O,e,116,1,1415.8999999985099,665173.0,7128,WL,A,5.0
5,8.46399998664856,learn,60000.0,Thu Apr 17 2025 11:06:13 GMT-0500 (Central Daylight Time),666872.200000003,A,chmney,O,y,264,1,1699.2000000029802,665173.0,7128,WL,A,5.0
5,8.781000137329102,learn,60000.0,Thu Apr 17 2025 11:06:13 GMT-0500 (Central Daylight Time),667188.700000003,A,chmneyenter,O,enter,300,1,2015.7000000029802,665173.0,7128,WL,A,5.0
5,9.147000074386597,learn,60000.0,Thu Apr 17 2025 11:06:13 GMT-0500 (Central Daylight Time),667555.1000000015,A,g,O,g,351,1,366.1000000014901,667189.0,7128,WL,A,6.0
5,9.263999938964844,learn,60000.0,Thu Apr 17 2025 11:06:13 GMT-0500 (Central Daylight Time),667671.799999997,A,go,O,o,105,1,482.79999999701977,667189.0,7128,WL,A,6.0
5,9.513999938964844,learn,60000.0,Thu Apr 17 2025 11:06:13 GMT-0500 (Central Daylight Time),667921.8999999985,A,gol,O,l,244,1,732.8999999985099,667189.0,7128,WL,A,6.0
5,9.664000034332275,learn,60000.0,Thu Apr 17 2025 11:06:13 GMT-0500 (Central Daylight Time),668071.799999997,A,gold,O,d,131,1,882.7999999970198,667189.0,7128,WL,A,6.0
5,10.04699993133545,learn,60000.0,Thu Apr 17 2025 11:06:13 GMT-0500 (Central Daylight Time),668455.1000000015,A,goldenter,O,enter,366,1,1266.1000000014901,667189.0,7128,WL,A,6.0
5,12.913000106811523,learn,60000.0,Thu Apr 17 2025 11:06:13 GMT-0500 (Central Daylight Time),671320.8999999985,A,a,O,a,2853,1,2865.60000000149,668455.299999997,7128,WL,A,7.0
5,13.214999914169312,learn,60000.0,Thu Apr 17 2025 11:06:13 GMT-0500 (Central Daylight Time),671623.299999997,A,ap,O,p,298,1,3168.0,668455.299999997,7128,WL,A,7.0
5,13.247999906539917,learn,60000.0,Thu Apr 17 2025 11:06:13 GMT-0500 (Central Daylight Time),671655.700000003,A,app,O,p,12,1,3200.4000000059605,668455.299999997,7128,WL,A,7.0
5,13.42900013923645,learn,60000.0,Thu Apr 17 2025 11:06:13 GMT-0500 (Central Daylight Time),671837.1000000015,A,appl,O,l,172,1,3381.8000000044703,668455.299999997,7128,WL,A,7.0
5,13.562999963760376,learn,60000.0,Thu Apr 17 2025 11:06:13 GMT-0500 (Central Daylight Time),671970.5,A,apple,O,e,128,1,3515.2000000029802,668455.299999997,7128,WL,A,7.0
5,13.763000011444092,learn,60000.0,Thu Apr 17 2025 11:06:13 GMT-0500 (Central Daylight Time),672170.5,A,appleenter,O,enter,194,1,3715.2000000029802,668455.299999997,7128,WL,A,7.0
5,15.062000036239624,learn,60000.0,Thu Apr 17 2025 11:06:13 GMT-0500 (Central Daylight Time),673470.0,A,r,O,r,1282,1,1299.2999999970198,672170.700000003,7128,WL,A,8.0
5,15.194999933242798,learn,60000.0,Thu Apr 17 2025 11:06:13 GMT-0500 (Central Daylight Time),673603.3999999985,A,ru,O,u,126,1,1432.6999999955297,672170.700000003,7128,WL,A,8.0
5,15.495000123977661,learn,60000.0,Thu Apr 17 2025 11:06:13 GMT-0500 (Central Daylight Time),673903.200000003,A,rug,O,g,289,1,1732.5,672170.700000003,7128,WL,A,8.0
5,15.661999940872192,learn,60000.0,Thu Apr 17 2025 11:06:13 GMT-0500 (Central Daylight Time),674070.1000000015,A,rugenter,O,enter,149,1,1899.3999999985099,672170.700000003,7128,WL,A,8.0
5,20.026999950408936,learn,60000.0,Thu Apr 17 2025 11:06:13 GMT-0500 (Central Daylight Time),678435.200000003,A,m,O,m,4358,1,4364.9000000059605,674070.299999997,7128,WL,A,9.0
5,20.194000005722046,learn,60000.0,Thu Apr 17 2025 11:06:13 GMT-0500 (Central Daylight Time),678601.8999999985,A,me,O,e,145,1,4531.60000000149,674070.299999997,7128,WL,A,9.0
5,20.311000108718872,learn,60000.0,Thu Apr 17 2025 11:06:13 GMT-0500 (Central Daylight Time),678718.5,A,mea,O,a,98,1,4648.20000000298,674070.299999997,7128,WL,A,9.0
5,20.543999910354614,learn,60000.0,Thu Apr 17 2025 11:06:13 GMT-0500 (Central Daylight Time),678951.799999997,A,mead,O,d,214,1,4881.5,674070.299999997,7128,WL,A,9.0
5,20.66000008583069,learn,60000.0,Thu Apr 17 2025 11:06:13 GMT-0500 (Central Daylight Time),679068.200000003,A,meado,O,o,109,1,4997.9000000059605,674070.299999997,7128,WL,A,9.0
5,20.8270001411438,learn,60000.0,Thu Apr 17 2025 11:06:13 GMT-0500 (Central Daylight Time),679234.8999999985,A,meadow,O,w,161,1,5164.60000000149,674070.299999997,7128,WL,A,9.0
5,21.009999990463257,learn,60000.0,Thu Apr 17 2025 11:06:13 GMT-0500 (Central Daylight Time),679418.200000003,A,meadowenter,O,enter,177,1,5347.9000000059605,674070.299999997,7128,WL,A,9.0
5,23.375999927520752,learn,60000.0,Thu Apr 17 2025 11:06:13 GMT-0500 (Central Daylight Time),681784.1000000015,A,s,O,s,2355,1,2365.7000000029802,679418.3999999985,7128,WL,A,10.0
5,23.55999994277954,learn,60000.0,Thu Apr 17 2025 11:06:13 GMT-0500 (Central Daylight Time),681967.5,A,sa,O,a,164,1,2549.10000000149,679418.3999999985,7128,WL,A,10.0
5,23.625999927520752,learn,60000.0,Thu Apr 17 2025 11:06:13 GMT-0500 (Central Daylight Time),682033.8999999985,A,sal,O,l,53,1,2615.5,679418.3999999985,7128,WL,A,10.0
5,23.842999935150146,learn,60000.0,Thu Apr 17 2025 11:06:13 GMT-0500 (Central Daylight Time),682250.6000000015,A,salt,O,t,202,1,2832.2000000029802,679418.3999999985,7128,WL,A,10.0
5,24.026000022888184,learn,60000.0,Thu Apr 17 2025 11:06:13 GMT-0500 (Central Daylight Time),682434.0,A,saltenter,O,enter,178,1,3015.60000000149,679418.3999999985,7128,WL,A,10.0
5,24.426000118255615,learn,60000.0,Thu Apr 17 2025 11:06:13 GMT-0500 (Central Daylight Time),682833.700000003,A,f,O,f,395,1,399.40000000596046,682434.299999997,7128,WL,A,11.0
5,24.526000022888184,learn,60000.0,Thu Apr 17 2025 11:06:13 GMT-0500 (Central Daylight Time),682933.700000003,A,fi,O,i,91,1,499.40000000596046,682434.299999997,7128,WL,A,11.0
5,24.70900011062622,learn,60000.0,Thu Apr 17 2025 11:06:13 GMT-0500 (Central Daylight Time),683117.0,A,fin,O,n,167,1,682.7000000029802,682434.299999997,7128,WL,A,11.0
5,25.075999975204468,learn,60000.0,Thu Apr 17 2025 11:06:13 GMT-0500 (Central Daylight Time),683483.5,A,fing,O,g,352,1,1049.2000000029802,682434.299999997,7128,WL,A,11.0
5,25.276000022888184,learn,60000.0,Thu Apr 17 2025 11:06:13 GMT-0500 (Central Daylight Time),683683.5,A,finge,O,e,193,1,1249.2000000029802,682434.299999997,7128,WL,A,11.0
5,25.39199995994568,learn,60000.0,Thu Apr 17 2025 11:06:13 GMT-0500 (Central Daylight Time),683800.1000000015,A,finger,O,r,105,1,1365.8000000044703,682434.299999997,7128,WL,A,11.0
5,25.54200005531311,learn,60000.0,Thu Apr 17 2025 11:06:13 GMT-0500 (Central Daylight Time),683950.200000003,A,fingerenter,O,enter,141,1,1515.9000000059605,682434.299999997,7128,WL,A,11.0
5,36.6029999256134,learn,60000.0,Thu Apr 17 2025 11:06:13 GMT-0500 (Central Daylight Time),695011.1000000015,A,l,O,l,11056,1,11060.70000000298,683950.3999999985,7128,WL,A,12.0
5,36.75200009346008,learn,60000.0,Thu Apr 17 2025 11:06:13 GMT-0500 (Central Daylight Time),695160.0,A,lo,O,o,144,1,11209.60000000149,683950.3999999985,7128,WL,A,12.0
5,36.82200002670288,learn,60000.0,Thu Apr 17 2025 11:06:13 GMT-0500 (Central Daylight Time),695229.8999999985,A,log,O,g,60,1,11279.5,683950.3999999985,7128,WL,A,12.0
5,36.97200012207031,learn,60000.0,Thu Apr 17 2025 11:06:13 GMT-0500 (Central Daylight Time),695379.700000003,A,logenter,O,enter,142,1,11429.30000000447,683950.3999999985,7128,WL,A,12.0
5,54.15000009536743,learn,60000.0,Thu Apr 17 2025 11:06:13 GMT-0500 (Central Daylight Time),712557.700000003,A,a,O,a,17161,1,17177.70000000298,695380.0,7128,WL,A,13.0
5,54.38300013542175,learn,60000.0,Thu Apr 17 2025 11:06:13 GMT-0500 (Central Daylight Time),712791.299999997,A,ap,O,p,222,1,17411.29999999702,695380.0,7128,WL,A,13.0
5,54.53399991989136,learn,60000.0,Thu Apr 17 2025 11:06:13 GMT-0500 (Central Daylight Time),712942.0,A,app,O,p,133,1,17562.0,695380.0,7128,WL,A,13.0
5,54.73300004005432,learn,60000.0,Thu Apr 17 2025 11:06:13 GMT-0500 (Central Daylight Time),713141.0,A,appl,O,l,182,1,17761.0,695380.0,7128,WL,A,13.0
5,54.84999990463257,learn,60000.0,Thu Apr 17 2025 11:06:13 GMT-0500 (Central Daylight Time),713257.799999997,A,apple,O,e,112,1,17877.79999999702,695380.0,7128,WL,A,13.0
5,55.01600003242493,learn,60000.0,Thu Apr 17 2025 11:06:13 GMT-0500 (Central Daylight Time),713424.299999997,A,appleenter,O,enter,147,1,18044.29999999702,695380.0,7128,WL,A,13.0
5,61.71399998664856,learn,60000.0,Thu Apr 17 2025 11:06:13 GMT-0500 (Central Daylight Time),720122.0,A,h,O,h,6684,1,6697.29999999702,713424.700000003,7128,WL,A,14.0
6,1.1659998893737793,distr,58834.00011062622,Thu Apr 17 2025 11:06:13 GMT-0500 (Central Daylight Time),790800.299999997,B,b,O,b,1156,1,1166.0999999940395,789634.200000003,7128,WL,A,1.0
6,1.3829998970031738,distr,58617.000102996826,Thu Apr 17 2025 11:06:13 GMT-0500 (Central Daylight Time),791016.799999997,B,bo,O,o,204,1,1382.5999999940395,789634.200000003,7128,WL,A,1.0
6,1.5320000648498535,distr,58467.99993515015,Thu Apr 17 2025 11:06:13 GMT-0500 (Central Daylight Time),791166.3999999985,B,bow,O,w,131,1,1532.1999999955297,789634.200000003,7128,WL,A,1.0
6,1.7319998741149902,distr,58268.00012588501,Thu Apr 17 2025 11:06:13 GMT-0500 (Central Daylight Time),791366.3999999985,B,bowl,O,l,182,1,1732.1999999955297,789634.200000003,7128,WL,A,1.0
6,2.0490000247955322,distr,57950.99997520447,Thu Apr 17 2025 11:06:13 GMT-0500 (Central Daylight Time),791683.3999999985,B,bowlenter,O,enter,303,1,2049.1999999955297,789634.200000003,7128,WL,A,1.0
6,2.4159998893737793,distr,57584.00011062622,Thu Apr 17 2025 11:06:13 GMT-0500 (Central Daylight Time),792049.8999999985,B,c,O,c,362,1,366.1000000014901,791683.799999997,7128,WL,A,2.0
6,2.5490000247955322,distr,57450.99997520447,Thu Apr 17 2025 11:06:13 GMT-0500 (Central Daylight Time),792183.1000000015,B,co,O,o,116,1,499.30000000447035,791683.799999997,7128,WL,A,2.0
6,2.7990000247955322,distr,57200.99997520447,Thu Apr 17 2025 11:06:13 GMT-0500 (Central Daylight Time),792433.0,B,cou,O,u,238,1,749.2000000029802,791683.799999997,7128,WL,A,2.0
6,3.2159998416900635,distr,56784.00015830994,Thu Apr 17 2025 11:06:13 GMT-0500 (Central Daylight Time),792849.6000000015,B,coun,O,n,403,1,1165.8000000044703,791683.799999997,7128,WL,A,2.0
6,3.4159998893737793,distr,56584.00011062622,Thu Apr 17 2025 11:06:13 GMT-0500 (Central Daylight Time),793049.8999999985,B,count,O,t,196,1,1366.1000000014901,791683.799999997,7128,WL,A,2.0
6,3.631999969482422,distr,56368.00003051758,Thu Apr 17 2025 11:06:13 GMT-0500 (Central Daylight Time),793266.200000003,B,county,O,y,203,1,1582.4000000059605,791683.799999997,7128,WL,A,2.0
6,4.332000017166138,distr,55667.99998283386,Thu Apr 17 2025 11:06:13 GMT-0500 (Central Daylight Time),793966.0,B,countyenter,O,enter,683,1,2282.2000000029802,791683.799999997,7128,WL,A,2.0
6,4.914999961853027,distr,55085.00003814697,Thu Apr 17 2025 11:06:13 GMT-0500 (Central Daylight Time),794549.1000000015,B,s,O,s,567,1,582.8000000044703,793966.299999997,7128,WL,A,3.0
6,4.997999906539917,distr,55002.00009346008,Thu Apr 17 2025 11:06:13 GMT-0500 (Central Daylight Time),794632.5,B,sh,O,h,71,1,666.2000000029802,793966.299999997,7128,WL,A,3.0
6,5.181999921798706,distr,54818.000078201294,Thu Apr 17 2025 11:06:13 GMT-0500 (Central Daylight Time),794816.0,B,she,O,e,165,1,849.7000000029802,793966.299999997,7128,WL,A,3.0
6,5.315000057220459,distr,54684.99994277954,Thu Apr 17 2025 11:06:13 GMT-0500 (Central Daylight Time),794949.0,B,shee,O,e,117,1,982.7000000029802,793966.299999997,7128,WL,A,3.0
6,5.615000009536743,distr,54384.99999046326,Thu Apr 17 2025 11:06:13 GMT-0500 (Central Daylight Time),795249.0,B,sheep,O,p,279,1,1282.7000000029802,793966.299999997,7128,WL,A,3.0
6,5.898000001907349,distr,54101.99999809265,Thu Apr 17 2025 11:06:13 GMT-0500 (Central Daylight Time),795532.5,B,sheepenter,O,enter,277,1,1566.2000000029802,793966.299999997,7128,WL,A,3.0
6,6.430999994277954,distr,53569.000005722046,Thu Apr 17 2025 11:06:13 GMT-0500 (Central Daylight Time),796065.3999999985,B,c,O,c,518,1,532.6000000014901,795532.799999997,7128,WL,A,4.0
6,6.547999858856201,distr,53452.0001411438,Thu Apr 17 2025 11:06:13 GMT-0500 (Central Daylight Time),796181.799999997,B,co,O,o,108,1,649.0,795532.799999997,7128,WL,A,4.0
6,6.681999921798706,distr,53318.000078201294,Thu Apr 17 2025 11:06:13 GMT-0500 (Central Daylight Time),796316.3999999985,B,coa,O,a,120,1,783.6000000014901,795532.799999997,7128,WL,A,4.0
6,6.88100004196167,distr,53118.99995803833,Thu Apr 17 2025 11:06:13 GMT-0500 (Central Daylight Time),796515.0,B,coat,O,t,193,1,982.2000000029802,795532.799999997,7128,WL,A,4.0
6,7.063999891281128,distr,52936.00010871887,Thu Apr 17 2025 11:06:13 GMT-0500 (Central Daylight Time),796698.5,B,coatenter,O,enter,170,1,1165.7000000029802,795532.799999997,7128,WL,A,4.0
6,7.664000034332275,distr,52335.999965667725,Thu Apr 17 2025 11:06:13 GMT-0500 (Central Daylight Time),797298.299999997,B,s,O,s,579,1,599.5,796698.799999997,7128,WL,A,5.0
6,8.047999858856201,distr,51952.0001411438,Thu Apr 17 2025 11:06:13 GMT-0500 (Central Daylight Time),797681.6000000015,B,,O,backspace,363,1,982.8000000044703,796698.799999997,7128,WL,A,5.0
6,8.19700002670288,distr,51802.99997329712,Thu Apr 17 2025 11:06:13 GMT-0500 (Central Daylight Time),797831.299999997,B,c,O,c,132,1,1132.5,796698.799999997,7128,WL,A,5.0
6,8.363999843597412,distr,51636.00015640259,Thu Apr 17 2025 11:06:13 GMT-0500 (Central Daylight Time),797998.0,B,ch,O,h,158,1,1299.2000000029802,796698.799999997,7128,WL,A,5.0
6,8.46399998664856,distr,51536.00001335144,Thu Apr 17 2025 11:06:13 GMT-0500 (Central Daylight Time),798098.1000000015,B,cha,O,a,79,1,1399.3000000044703,796698.799999997,7128,WL,A,5.0
6,8.96399998664856,distr,51036.00001335144,Thu Apr 17 2025 11:06:13 GMT-0500 (Central Daylight Time),798598.1000000015,B,chai,O,i,491,1,1899.3000000044703,796698.799999997,7128,WL,A,5.0
6,9.13100004196167,distr,50868.99995803833,Thu Apr 17 2025 11:06:13 GMT-0500 (Central Daylight Time),798764.5,B,chair,O,r,159,1,2065.7000000029802,796698.799999997,7128,WL,A,5.0
6,9.329999923706055,distr,50670.000076293945,Thu Apr 17 2025 11:06:13 GMT-0500 (Central Daylight Time),798964.5,B,chairenter,O,enter,185,1,2265.7000000029802,796698.799999997,7128,WL,A,5.0
6,26.092000007629395,distr,33907.999992370605,Thu Apr 17 2025 11:06:13 GMT-0500 (Central Daylight Time),815725.6000000015,B,b,O,b,16753,1,16760.80000000447,798964.799999997,7128,WL,A,6.0
6,26.274999856948853,distr,33725.00014305115,Thu Apr 17 2025 11:06:13 GMT-0500 (Central Daylight Time),815909.1000000015,B,bo,O,o,175,1,16944.30000000447,798964.799999997,7128,WL,A,6.0
6,26.807999849319458,distr,33192.00015068054,Thu Apr 17 2025 11:06:13 GMT-0500 (Central Daylight Time),816442.1000000015,B,bot,O,t,528,1,17477.30000000447,798964.799999997,7128,WL,A,6.0
6,26.95799994468689,distr,33042.00005531311,Thu Apr 17 2025 11:06:13 GMT-0500 (Central Daylight Time),816592.200000003,B,bott,O,t,132,1,17627.40000000596,798964.799999997,7128,WL,A,6.0
6,27.075000047683716,distr,32924.999952316284,Thu Apr 17 2025 11:06:13 GMT-0500 (Central Daylight Time),816708.8999999985,B,bottl,O,l,109,1,17744.10000000149,798964.799999997,7128,WL,A,6.0
6,27.20799994468689,distr,32792.00005531311,Thu Apr 17 2025 11:06:13 GMT-0500 (Central Daylight Time),816842.200000003,B,bottle,O,e,129,1,17877.40000000596,798964.799999997,7128,WL,A,6.0
6,27.391000032424927,distr,32608.999967575073,Thu Apr 17 2025 11:06:13 GMT-0500 (Central Daylight Time),817025.3999999985,B,bottleenter,O,enter,172,1,18060.60000000149,798964.799999997,7128,WL,A,6.0
6,35.388999938964844,distr,24611.000061035156,Thu Apr 17 2025 11:06:13 GMT-0500 (Central Daylight Time),825023.1000000015,B,c,O,c,7988,1,7997.39999999851,817025.700000003,7128,WL,A,7.0
6,35.52199983596802,distr,24478.000164031982,Thu Apr 17 2025 11:06:13 GMT-0500 (Central Daylight Time),825156.200000003,B,co,O,o,118,1,8130.5,817025.700000003,7128,WL,A,7.0
6,35.60599994659424,distr,24394.00005340576,Thu Apr 17 2025 11:06:13 GMT-0500 (Central Daylight Time),825239.5,B,coa,O,a,73,1,8213.79999999702,817025.700000003,7128,WL,A,7.0
6,35.8050000667572,distr,24194.999933242798,Thu Apr 17 2025 11:06:13 GMT-0500 (Central Daylight Time),825439.299999997,B,coat,O,t,182,1,8413.59999999404,817025.700000003,7128,WL,A,7.0
6,35.90499997138977,distr,24095.00002861023,Thu Apr 17 2025 11:06:13 GMT-0500 (Central Daylight Time),825539.3999999985,B,coatenter,O,enter,86,1,8513.69999999553,817025.700000003,7128,WL,A,7.0
6,60.014999866485596,distr,-14.999866485595703,Thu Apr 17 2025 11:06:13 GMT-0500 (Central Daylight Time),849648.700000003,B,None,O,None,24105,1,24109.0,825539.700000003,7128,WL,A,8.0
7,2.2820000648498535,immed,57717.99993515015,Thu Apr 17 2025 11:06:13 GMT-0500 (Central Daylight Time),864877.299999997,A,t,O,t,2275,1,2282.5,862594.799999997,7128,WL,A,1.0
7,2.4819998741149902,immed,57518.00012588501,Thu Apr 17 2025 11:06:13 GMT-0500 (Central Daylight Time),865077.0,A,tr,O,r,184,1,2482.2000000029802,862594.799999997,7128,WL,A,1.0
7,2.565000057220459,immed,57434.99994277954,Thu Apr 17 2025 11:06:13 GMT-0500 (Central Daylight Time),865160.3999999985,A,tra,O,a,73,1,2565.60000000149,862594.799999997,7128,WL,A,1.0
7,2.6989998817443848,immed,57301.000118255615,Thu Apr 17 2025 11:06:13 GMT-0500 (Central Daylight Time),865293.700000003,A,trai,O,i,117,1,2698.9000000059605,862594.799999997,7128,WL,A,1.0
7,2.865000009536743,immed,57134.99999046326,Thu Apr 17 2025 11:06:13 GMT-0500 (Central Daylight Time),865460.200000003,A,train,O,n,152,1,2865.4000000059605,862594.799999997,7128,WL,A,1.0
7,3.0989999771118164,immed,56901.00002288818,Thu Apr 17 2025 11:06:13 GMT-0500 (Central Daylight Time),865693.5,A,trainenter,O,enter,217,1,3098.7000000029802,862594.799999997,7128,WL,A,1.0
7,3.4819998741149902,immed,56518.00012588501,Thu Apr 17 2025 11:06:13 GMT-0500 (Central Daylight Time),866076.8999999985,A,r,O,r,376,1,383.1000000014901,865693.799999997,7128,WL,A,2.0
7,3.6480000019073486,immed,56351.99999809265,Thu Apr 17 2025 11:06:13 GMT-0500 (Central Daylight Time),866243.3999999985,A,ru,O,u,160,1,549.6000000014901,865693.799999997,7128,WL,A,2.0
7,3.881999969482422,immed,56118.00003051758,Thu Apr 17 2025 11:06:13 GMT-0500 (Central Daylight Time),866476.700000003,A,rug,O,g,226,1,782.9000000059605,865693.799999997,7128,WL,A,2.0
7,4.164999961853027,immed,55835.00003814697,Thu Apr 17 2025 11:06:13 GMT-0500 (Central Daylight Time),866759.8999999985,A,rugenter,O,enter,265,1,1066.1000000014901,865693.799999997,7128,WL,A,2.0
7,4.747999906539917,immed,55252.00009346008,Thu Apr 17 2025 11:06:13 GMT-0500 (Central Daylight Time),867342.8999999985,A,r,O,r,565,1,582.7999999970198,866760.1000000015,7128,WL,A,3.0
7,4.88100004196167,immed,55118.99995803833,Thu Apr 17 2025 11:06:13 GMT-0500 (Central Daylight Time),867476.200000003,A,ra,O,a,127,1,716.1000000014901,866760.1000000015,7128,WL,A,3.0
7,5.081000089645386,immed,54918.999910354614,Thu Apr 17 2025 11:06:13 GMT-0500 (Central Daylight Time),867676.200000003,A,rat,O,t,185,1,916.1000000014901,866760.1000000015,7128,WL,A,3.0
7,5.197999954223633,immed,54802.00004577637,Thu Apr 17 2025 11:06:13 GMT-0500 (Central Daylight Time),867793.0,A,ratt,O,t,96,1,1032.8999999985099,866760.1000000015,7128,WL,A,3.0
7,5.331000089645386,immed,54668.999910354614,Thu Apr 17 2025 11:06:13 GMT-0500 (Central Daylight Time),867926.1000000015,A,rattl,O,l,124,1,1166.0,866760.1000000015,7128,WL,A,3.0
7,5.46399998664856,immed,54536.00001335144,Thu Apr 17 2025 11:06:13 GMT-0500 (Central Daylight Time),868059.3999999985,A,rattle,O,e,119,1,1299.2999999970198,866760.1000000015,7128,WL,A,3.0
7,5.647000074386597,immed,54352.9999256134,Thu Apr 17 2025 11:06:13 GMT-0500 (Central Daylight Time),868242.299999997,A,rattleenter,O,enter,178,1,1482.1999999955297,866760.1000000015,7128,WL,A,3.0
7,5.930999994277954,immed,54069.000005722046,Thu Apr 17 2025 11:06:13 GMT-0500 (Central Daylight Time),868526.1000000015,A,h,O,h,267,1,283.5,868242.6000000015,7128,WL,A,4.0
7,6.013999938964844,immed,53986.000061035156,Thu Apr 17 2025 11:06:13 GMT-0500 (Central Daylight Time),868609.1000000015,A,ha,O,a,71,1,366.5,868242.6000000015,7128,WL,A,4.0
7,6.313999891281128,immed,53686.00010871887,Thu Apr 17 2025 11:06:13 GMT-0500 (Central Daylight Time),868909.200000003,A,hap,O,p,292,1,666.6000000014901,868242.6000000015,7128,WL,A,4.0
7,6.996999979019165,immed,53003.000020980835,Thu Apr 17 2025 11:06:13 GMT-0500 (Central Daylight Time),869592.299999997,A,ha,O,backspace,665,1,1349.6999999955297,868242.6000000015,7128,WL,A,4.0
7,7.114000082015991,immed,52885.99991798401,Thu Apr 17 2025 11:06:13 GMT-0500 (Central Daylight Time),869708.799999997,A,har,O,r,101,1,1466.1999999955297,868242.6000000015,7128,WL,A,4.0
7,7.63100004196167,immed,52368.99995803833,Thu Apr 17 2025 11:06:13 GMT-0500 (Central Daylight Time),870225.6000000015,A,harp,O,p,497,1,1983.0,868242.6000000015,7128,WL,A,4.0
7,7.96399998664856,immed,52036.00001335144,Thu Apr 17 2025 11:06:13 GMT-0500 (Central Daylight Time),870558.700000003,A,harpenter,O,enter,323,1,2316.10000000149,868242.6000000015,7128,WL,A,4.0
7,8.346999883651733,immed,51653.00011634827,Thu Apr 17 2025 11:06:13 GMT-0500 (Central Daylight Time),870941.8999999985,A,s,O,s,374,1,382.8999999985099,870559.0,7128,WL,A,5.0
7,8.52999997138977,immed,51470.00002861023,Thu Apr 17 2025 11:06:13 GMT-0500 (Central Daylight Time),871125.0,A,sa,O,a,176,1,566.0,870559.0,7128,WL,A,5.0
7,8.629999876022339,immed,51370.00012397766,Thu Apr 17 2025 11:06:13 GMT-0500 (Central Daylight Time),871225.0,A,sal,O,l,79,1,666.0,870559.0,7128,WL,A,5.0
7,9.04699993133545,immed,50953.00006866455,Thu Apr 17 2025 11:06:13 GMT-0500 (Central Daylight Time),871641.799999997,A,salt,O,t,396,1,1082.7999999970198,870559.0,7128,WL,A,5.0
7,9.763000011444092,immed,50236.99998855591,Thu Apr 17 2025 11:06:13 GMT-0500 (Central Daylight Time),872358.0,A,saltenter,O,enter,708,1,1799.0,870559.0,7128,WL,A,5.0
7,10.180000066757202,immed,49819.9999332428,Thu Apr 17 2025 11:06:13 GMT-0500 (Central Daylight Time),872774.5,A,f,O,f,399,1,416.1000000014901,872358.3999999985,7128,WL,A,6.0
7,10.263000011444092,immed,49736.99998855591,Thu Apr 17 2025 11:06:13 GMT-0500 (Central Daylight Time),872857.8999999985,A,fi,O,i,70,1,499.5,872358.3999999985,7128,WL,A,6.0
7,10.463000059127808,immed,49536.99994087219,Thu Apr 17 2025 11:06:13 GMT-0500 (Central Daylight Time),873057.8999999985,A,fin,O,n,195,1,699.5,872358.3999999985,7128,WL,A,6.0
7,10.645999908447266,immed,49354.000091552734,Thu Apr 17 2025 11:06:13 GMT-0500 (Central Daylight Time),873241.299999997,A,fing,O,g,163,1,882.8999999985099,872358.3999999985,7128,WL,A,6.0
7,10.878999948501587,immed,49121.00005149841,Thu Apr 17 2025 11:06:13 GMT-0500 (Central Daylight Time),873474.3999999985,A,finge,O,e,220,1,1116.0,872358.3999999985,7128,WL,A,6.0
7,10.946000099182129,immed,49053.99990081787,Thu Apr 17 2025 11:06:13 GMT-0500 (Central Daylight Time),873541.1000000015,A,finger,O,r,59,1,1182.7000000029802,872358.3999999985,7128,WL,A,6.0
7,11.078999996185303,immed,48921.0000038147,Thu Apr 17 2025 11:06:13 GMT-0500 (Central Daylight Time),873674.3999999985,A,fingerenter,O,enter,121,1,1316.0,872358.3999999985,7128,WL,A,6.0
7,21.05999994277954,immed,38940.00005722046,Thu Apr 17 2025 11:06:13 GMT-0500 (Central Daylight Time),883654.5,A,a,O,a,9971,1,9979.79999999702,873674.700000003,7128,WL,A,7.0
7,21.20899987220764,immed,38791.00012779236,Thu Apr 17 2025 11:06:13 GMT-0500 (Central Daylight Time),883804.200000003,A,ap,O,p,142,1,10129.5,873674.700000003,7128,WL,A,7.0
7,21.358999967575073,immed,38641.00003242493,Thu Apr 17 2025 11:06:13 GMT-0500 (Central Daylight Time),883954.200000003,A,app,O,p,145,1,10279.5,873674.700000003,7128,WL,A,7.0
7,21.55900001525879,immed,38440.99998474121,Thu Apr 17 2025 11:06:13 GMT-0500 (Central Daylight Time),884154.200000003,A,appl,O,l,195,1,10479.5,873674.700000003,7128,WL,A,7.0
7,21.7260000705719,immed,38273.9999294281,Thu Apr 17 2025 11:06:13 GMT-0500 (Central Daylight Time),884321.0,A,apple,O,e,147,1,10646.29999999702,873674.700000003,7128,WL,A,7.0
7,21.875999927520752,immed,38124.00007247925,Thu Apr 17 2025 11:06:13 GMT-0500 (Central Daylight Time),884471.0,A,appleenter,O,enter,132,1,10796.29999999702,873674.700000003,7128,WL,A,7.0
7,26.70799994468689,immed,33292.00005531311,Thu Apr 17 2025 11:06:13 GMT-0500 (Central Daylight Time),889302.799999997,A,l,O,l,4815,1,4831.5999999940395,884471.200000003,7128,WL,A,8.0
7,26.875,immed,33125.0,Thu Apr 17 2025 11:06:13 GMT-0500 (Central Daylight Time),889469.6000000015,A,lo,O,o,158,1,4998.39999999851,884471.200000003,7128,WL,A,8.0
7,27.073999881744385,immed,32926.000118255615,Thu Apr 17 2025 11:06:13 GMT-0500 (Central Daylight Time),889669.200000003,A,log,O,g,192,1,5198.0,884471.200000003,7128,WL,A,8.0
7,27.240999937057495,immed,32759.000062942505,Thu Apr 17 2025 11:06:13 GMT-0500 (Central Daylight Time),889835.700000003,A,logenter,O,enter,152,1,5364.5,884471.200000003,7128,WL,A,8.0
7,60.015000104904175,immed,-15.000104904174805,Thu Apr 17 2025 11:06:13 GMT-0500 (Central Daylight Time),922610.200000003,A,None,O,None,32770,1,32774.10000000149,889836.1000000015,7128,WL,A,9.0
