Q,Q1,Q2,Q3,Q4,acc_sum,block,block_c,correct,correct_response,datetime,endtime,project,response,response_time,row_sel,session_number,squiggle1,squiggle1x,squiggle1y,squiggle2,squiggle2x,squiggle2y,squiggle3,squiggle3x,squiggle3y,squiggle4,squiggle4x,squiggle4y,start_end,starttime,subject_id,target_congruent,task,task_vers,testsquiggle,testsquigglex,testsquiggley,time_practice_delay,time_practice_fixation,time_practice_stimuli,time_practice_study,time_test_delay,time_test_fixation,time_test_stimuli,time_test_study,trial
1,1,0,0,0,1,prac,1,1,z,Fri Oct 11 2024 12:19:44 GMT-0400 (Eastern Daylight Time),156729.79999995232,I,z,1653,1,1,116.bmp,-120,-120,117.bmp,120,-120,118.bmp,-120,120,119.bmp,120,120,10476.399999976158,146253.39999997616,9002,yes,SM,A,116.bmp,-120,-120,148713,142687,150730,144696,,,,,1
3,0,0,1,0,1,prac,1,0,m,Fri Oct 11 2024 12:19:44 GMT-0400 (Eastern Daylight Time),167079.79999995232,I,z,1523,2,1,120.bmp,-120,-120,121.bmp,120,-120,122.bmp,-120,120,123.bmp,120,120,10336.399999976158,156743.39999997616,9002,no,SM,A,123.bmp,-120,120,159196,153177,161213,155180,,,,,2
4,0,0,0,1,1,prac,1,0,m,Fri Oct 11 2024 12:19:44 GMT-0400 (Eastern Daylight Time),177912.69999992847,I,None,2016,3,1,124.bmp,-120,-120,125.bmp,120,-120,126.bmp,-120,120,127.bmp,120,120,10824.600000023842,167088.09999990463,9002,no,SM,A,124.bmp,120,120,169546,163521,171563,165530,,,,,3
2,0,1,0,0,2,prac,1,1,z,Fri Oct 11 2024 12:19:44 GMT-0400 (Eastern Daylight Time),188513.19999992847,I,z,1796,4,1,128.bmp,-120,-120,129.bmp,120,-120,130.bmp,-120,120,131.bmp,120,120,10592.5,177920.69999992847,9002,yes,SM,A,129.bmp,120,-120,180379,174354,182380,176363,,,,,4
3,0,0,1,0,2,prac,1,0,z,Fri Oct 11 2024 12:19:44 GMT-0400 (Eastern Daylight Time),198779.59999990463,I,m,1435,5,1,132.bmp,-120,-120,133.bmp,120,-120,134.bmp,-120,120,135.bmp,120,120,10255.299999952316,188524.29999995232,9002,yes,SM,A,134.bmp,-120,120,190979,184958,192996,186963,,,,,5
1,1,0,0,0,2,prac,1,0,m,Fri Oct 11 2024 12:19:44 GMT-0400 (Eastern Daylight Time),208929.69999992847,I,z,1329,6,1,136.bmp,-120,-120,137.bmp,120,-120,138.bmp,-120,120,139.bmp,120,120,10142.5,198787.19999992847,9002,no,SM,A,139.bmp,-120,-120,201246,195221,203263,197230,,,,,6
2,0,1,0,0,2,prac,1,0,m,Fri Oct 11 2024 12:19:44 GMT-0400 (Eastern Daylight Time),219196.29999995232,I,z,1434,7,1,140.bmp,-120,-120,141.bmp,120,-120,142.bmp,-120,120,143.bmp,120,120,10257.399999976158,208938.89999997616,9002,no,SM,A,140.bmp,120,-120,211396,205372,213413,207380,,,,,7
4,0,0,0,1,2,prac,1,0,z,Fri Oct 11 2024 12:19:44 GMT-0400 (Eastern Daylight Time),230029.5,I,None,2016,8,1,144.bmp,-120,-120,145.bmp,120,-120,146.bmp,-120,120,147.bmp,120,120,10825.5,219204.0,9002,yes,SM,A,147.bmp,120,120,221663,215637,223680,217646,,,,,8
1,1,0,0,0,1,prac,2,1,z,Fri Oct 11 2024 12:19:44 GMT-0400 (Eastern Daylight Time),253262.89999997616,I,z,931,1,1,116.bmp,-120,-120,117.bmp,120,-120,118.bmp,-120,120,119.bmp,120,120,9743.800000071526,243519.09999990463,9002,yes,SM,A,116.bmp,-120,-120,245980,239952,247996,241963,,,,,1
3,0,0,1,0,2,prac,2,1,m,Fri Oct 11 2024 12:19:44 GMT-0400 (Eastern Daylight Time),263579.7999999523,I,m,1485,2,1,120.bmp,-120,-120,121.bmp,120,-120,122.bmp,-120,120,123.bmp,120,120,10307.899999976158,253271.89999997616,9002,no,SM,A,123.bmp,-120,120,255729,249705,257747,251713,,,,,2
4,0,0,0,1,3,prac,2,1,m,Fri Oct 11 2024 12:19:44 GMT-0400 (Eastern Daylight Time),273946.5,I,m,1537,3,1,124.bmp,-120,-120,125.bmp,120,-120,126.bmp,-120,120,127.bmp,120,120,10357.5,263589.0,9002,no,SM,A,124.bmp,120,120,266046,260022,268063,262030,,,,,3
2,0,1,0,0,3,prac,2,0,z,Fri Oct 11 2024 12:19:44 GMT-0400 (Eastern Daylight Time),283996.2999999523,I,m,1218,4,1,128.bmp,-120,-120,129.bmp,120,-120,130.bmp,-120,120,131.bmp,120,120,10042.399999976158,273953.89999997616,9002,yes,SM,A,129.bmp,120,-120,276413,270387,278430,272396,,,,,4
3,0,0,1,0,3,prac,2,0,z,Fri Oct 11 2024 12:19:44 GMT-0400 (Eastern Daylight Time),294829.59999990463,I,None,2016,5,1,132.bmp,-120,-120,133.bmp,120,-120,134.bmp,-120,120,135.bmp,120,120,10825.699999928474,284003.89999997616,9002,yes,SM,A,134.bmp,-120,120,286463,280437,288480,282446,,,,,5
1,1,0,0,0,3,prac,2,0,m,Fri Oct 11 2024 12:19:44 GMT-0400 (Eastern Daylight Time),304712.89999997616,I,z,1054,6,1,136.bmp,-120,-120,137.bmp,120,-120,138.bmp,-120,120,139.bmp,120,120,9876.0,294836.89999997616,9002,no,SM,A,139.bmp,-120,-120,297296,291270,299313,293280,,,,,6
2,0,1,0,0,4,prac,2,1,m,Fri Oct 11 2024 12:19:44 GMT-0400 (Eastern Daylight Time),315263.09999990463,I,m,1731,7,1,140.bmp,-120,-120,141.bmp,120,-120,142.bmp,-120,120,143.bmp,120,120,10542.399999976158,304720.6999999285,9002,no,SM,A,140.bmp,120,-120,307180,301154,309197,303163,,,,,7
4,0,0,0,1,4,prac,2,0,z,Fri Oct 11 2024 12:19:44 GMT-0400 (Eastern Daylight Time),326096.1999999285,I,None,2017,8,1,144.bmp,-120,-120,145.bmp,120,-120,146.bmp,-120,120,147.bmp,120,120,10823.899999976158,315272.2999999523,9002,yes,SM,A,147.bmp,120,120,317729,311706,319746,313713,,,,,8
1,1,0,0,0,1,prac,3,1,z,Fri Oct 11 2024 12:19:44 GMT-0400 (Eastern Daylight Time),350329.7999999523,I,z,1304,1,1,116.bmp,-120,-120,117.bmp,120,-120,118.bmp,-120,120,119.bmp,120,120,10130.700000047684,340199.09999990463,9002,yes,SM,A,116.bmp,-120,-120,342663,336632,344680,338647,,,,,1
3,0,0,1,0,1,prac,3,0,m,Fri Oct 11 2024 12:19:44 GMT-0400 (Eastern Daylight Time),361163.09999990463,I,None,2016,2,1,120.bmp,-120,-120,121.bmp,120,-120,122.bmp,-120,120,123.bmp,120,120,10826.199999928474,350336.89999997616,9002,no,SM,A,123.bmp,-120,120,352796,346770,354813,348780,,,,,2
4,0,0,0,1,1,prac,3,0,m,Fri Oct 11 2024 12:19:44 GMT-0400 (Eastern Daylight Time),371463.09999990463,I,z,1473,3,1,124.bmp,-120,-120,125.bmp,120,-120,126.bmp,-120,120,127.bmp,120,120,10292.099999904633,361171.0,9002,no,SM,A,124.bmp,120,120,363630,357604,365647,359613,,,,,3
2,0,1,0,0,1,prac,3,0,z,Fri Oct 11 2024 12:19:44 GMT-0400 (Eastern Daylight Time),381396.5,I,m,1109,4,1,128.bmp,-120,-120,129.bmp,120,-120,130.bmp,-120,120,131.bmp,120,120,9924.600000023842,371471.89999997616,9002,yes,SM,A,129.bmp,120,-120,373930,367905,375947,369913,,,,,4
3,0,0,1,0,2,prac,3,1,z,Fri Oct 11 2024 12:19:44 GMT-0400 (Eastern Daylight Time),391296.5,I,z,1080,5,1,132.bmp,-120,-120,133.bmp,120,-120,134.bmp,-120,120,135.bmp,120,120,9892.800000071526,381403.6999999285,9002,yes,SM,A,134.bmp,-120,120,383863,377837,385880,379847,,,,,5
1,1,0,0,0,3,prac,3,1,m,Fri Oct 11 2024 12:19:44 GMT-0400 (Eastern Daylight Time),401296.5,I,m,1180,6,1,136.bmp,-120,-120,137.bmp,120,-120,138.bmp,-120,120,139.bmp,120,120,9991.800000071526,391304.6999999285,9002,no,SM,A,139.bmp,-120,-120,393763,387738,395780,389747,,,,,6
2,0,1,0,0,3,prac,3,0,m,Fri Oct 11 2024 12:19:44 GMT-0400 (Eastern Daylight Time),412129.7999999523,I,None,2016,7,1,140.bmp,-120,-120,141.bmp,120,-120,142.bmp,-120,120,143.bmp,120,120,10823.899999976158,401305.89999997616,9002,no,SM,A,140.bmp,120,-120,403763,397739,405780,399747,,,,,7
4,0,0,0,1,3,prac,3,0,z,Fri Oct 11 2024 12:19:44 GMT-0400 (Eastern Daylight Time),422962.89999997616,I,None,2016,8,1,144.bmp,-120,-120,145.bmp,120,-120,146.bmp,-120,120,147.bmp,120,120,10825.5,412137.39999997616,9002,yes,SM,A,147.bmp,120,120,414596,408571,416613,410579,,,,,8
1,1,0,0,0,1,prac,4,1,z,Fri Oct 11 2024 12:19:44 GMT-0400 (Eastern Daylight Time),453063.09999990463,I,z,740,1,1,116.bmp,-120,-120,117.bmp,120,-120,118.bmp,-120,120,119.bmp,120,120,9557.0,443506.09999990463,9002,yes,SM,A,116.bmp,-120,-120,445963,439939,447980,441946,,,,,1
3,0,0,1,0,2,prac,4,1,m,Fri Oct 11 2024 12:19:44 GMT-0400 (Eastern Daylight Time),462863.2999999523,I,m,981,2,1,120.bmp,-120,-120,121.bmp,120,-120,122.bmp,-120,120,123.bmp,120,120,9793.5,453069.7999999523,9002,no,SM,A,123.bmp,-120,120,455530,449503,457547,451513,,,,,2
4,0,0,0,1,2,prac,4,0,m,Fri Oct 11 2024 12:19:44 GMT-0400 (Eastern Daylight Time),473446.59999990463,I,z,1757,3,1,124.bmp,-120,-120,125.bmp,120,-120,126.bmp,-120,120,127.bmp,120,120,10575.299999952316,462871.2999999523,9002,no,SM,A,124.bmp,120,120,465330,459305,467347,461313,,,,,3
2,0,1,0,0,2,prac,4,0,z,Fri Oct 11 2024 12:19:44 GMT-0400 (Eastern Daylight Time),483329.7999999523,I,m,1062,4,1,128.bmp,-120,-120,129.bmp,120,-120,130.bmp,-120,120,131.bmp,120,120,9876.0,473453.7999999523,9002,yes,SM,A,129.bmp,120,-120,475913,469887,477930,471897,,,,,4
3,0,0,1,0,3,prac,4,1,z,Fri Oct 11 2024 12:19:44 GMT-0400 (Eastern Daylight Time),493163.39999997616,I,z,1003,5,1,132.bmp,-120,-120,133.bmp,120,-120,134.bmp,-120,120,135.bmp,120,120,9823.700000047684,483339.6999999285,9002,yes,SM,A,134.bmp,-120,120,485796,479773,487813,481780,,,,,5
1,1,0,0,0,3,prac,4,0,m,Fri Oct 11 2024 12:19:44 GMT-0400 (Eastern Daylight Time),502779.6999999285,I,z,785,6,1,136.bmp,-120,-120,137.bmp,120,-120,138.bmp,-120,120,139.bmp,120,120,9609.100000023842,493170.59999990463,9002,no,SM,A,139.bmp,-120,-120,495630,489604,497647,491613,,,,,6
2,0,1,0,0,4,prac,4,1,m,Fri Oct 11 2024 12:19:44 GMT-0400 (Eastern Daylight Time),512980.09999990463,I,m,1376,7,1,140.bmp,-120,-120,141.bmp,120,-120,142.bmp,-120,120,143.bmp,120,120,10192.799999952316,502787.2999999523,9002,no,SM,A,140.bmp,120,-120,505247,499221,507264,501234,,,,,7
4,0,0,0,1,4,prac,4,0,z,Fri Oct 11 2024 12:19:44 GMT-0400 (Eastern Daylight Time),523446.5,I,m,1641,8,1,144.bmp,-120,-120,145.bmp,120,-120,146.bmp,-120,120,147.bmp,120,120,10458.900000095367,512987.59999990463,9002,yes,SM,A,147.bmp,120,120,515446,509421,517463,511430,,,,,8
4,0,0,0,1,0,test,1,0,m,Fri Oct 11 2024 12:19:44 GMT-0400 (Eastern Daylight Time),557529.8999999762,I,z,1689,1,1,148.bmp,-120,-120,149.bmp,120,-120,150.bmp,-120,120,143.bmp,120,120,9743.300000071526,547786.5999999046,9002,no,SM,A,150.bmp,120,120,515446,509421,517463,511430,550246.0,544220.0,552263.0,546230.0,1
2,0,1,0,0,1,test,1,1,m,Fri Oct 11 2024 12:19:44 GMT-0400 (Eastern Daylight Time),567580.0,I,m,1986,2,1,101.bmp,-120,-120,102.bmp,120,-120,103.bmp,-120,120,104.bmp,120,120,10042.600000023842,557537.3999999762,9002,no,SM,A,103.bmp,120,-120,515446,509421,517463,511430,559996.0,553971.0,562014.0,555980.0,2
1,1,0,0,0,2,test,1,1,z,Fri Oct 11 2024 12:19:44 GMT-0400 (Eastern Daylight Time),577046.5999999046,I,z,1409,3,1,105.bmp,-120,-120,106.bmp,120,-120,107.bmp,-120,120,108.bmp,120,120,9459.199999928474,567587.3999999762,9002,yes,SM,A,105.bmp,-120,-120,515446,509421,517463,511430,570046.0,564021.0,572063.0,566030.0,3
3,0,0,1,0,3,test,1,1,m,Fri Oct 11 2024 12:19:44 GMT-0400 (Eastern Daylight Time),586863.1999999285,I,m,1750,4,1,109.bmp,-120,-120,110.bmp,120,-120,111.bmp,-120,120,112.bmp,120,120,9806.799999952316,577056.3999999762,9002,no,SM,A,109.bmp,-120,120,515446,509421,517463,511430,579513.0,573490.0,581530.0,575497.0,4
2,0,1,0,0,3,test,1,0,z,Fri Oct 11 2024 12:19:44 GMT-0400 (Eastern Daylight Time),596929.8999999762,I,None,2016,5,1,113.bmp,-120,-120,114.bmp,120,-120,115.bmp,-120,120,116.bmp,120,120,10058.0,586871.8999999762,9002,yes,SM,A,114.bmp,120,-120,515446,509421,517463,511430,589330.0,583305.0,591347.0,585313.0,5
3,0,0,1,0,4,test,1,1,z,Fri Oct 11 2024 12:19:44 GMT-0400 (Eastern Daylight Time),606513.2999999523,I,z,1530,6,1,117.bmp,-120,-120,118.bmp,120,-120,119.bmp,-120,120,120.bmp,120,120,9573.899999976158,596939.3999999762,9002,yes,SM,A,119.bmp,-120,120,515446,509421,517463,511430,599396.0,593373.0,601414.0,595380.0,6
4,0,0,0,1,4,test,1,0,z,Fri Oct 11 2024 12:19:44 GMT-0400 (Eastern Daylight Time),616496.3999999762,I,m,1931,7,1,121.bmp,-120,-120,122.bmp,120,-120,123.bmp,-120,120,124.bmp,120,120,9976.100000023842,606520.2999999523,9002,yes,SM,A,124.bmp,120,120,515446,509421,517463,511430,608980.0,602953.0,610997.0,604963.0,7
2,0,1,0,0,5,test,1,1,m,Fri Oct 11 2024 12:19:44 GMT-0400 (Eastern Daylight Time),626513.1999999285,I,m,1964,8,1,125.bmp,-120,-120,126.bmp,120,-120,127.bmp,-120,120,128.bmp,120,120,10009.199999928474,616504.0,9002,no,SM,A,125.bmp,120,-120,515446,509421,517463,511430,618963.0,612937.0,620980.0,614947.0,8
3,0,0,1,0,5,test,1,0,m,Fri Oct 11 2024 12:19:44 GMT-0400 (Eastern Daylight Time),636580.0999999046,I,None,2016,9,1,129.bmp,-120,-120,130.bmp,120,-120,131.bmp,-120,120,132.bmp,120,120,10060.199999928474,626519.8999999762,9002,no,SM,A,130.bmp,-120,120,515446,509421,517463,511430,628980.0,622953.0,630997.0,624963.0,9
4,0,0,0,1,5,test,1,0,z,Fri Oct 11 2024 12:19:44 GMT-0400 (Eastern Daylight Time),646546.5999999046,I,m,1912,10,1,137.bmp,-120,-120,138.bmp,120,-120,139.bmp,-120,120,140.bmp,120,120,9960.299999952316,636586.2999999523,9002,yes,SM,A,140.bmp,120,120,515446,509421,517463,511430,639047.0,633020.0,641064.0,635030.0,10
3,0,0,1,0,5,test,1,0,z,Fri Oct 11 2024 12:19:44 GMT-0400 (Eastern Daylight Time),656613.5,I,None,2016,11,1,133.bmp,-120,-120,134.bmp,120,-120,135.bmp,-120,120,136.bmp,120,120,10059.800000071526,646553.6999999285,9002,yes,SM,A,135.bmp,-120,120,515446,509421,517463,511430,649013.0,642987.0,651030.0,644997.0,11
2,0,1,0,0,5,test,1,0,m,Fri Oct 11 2024 12:19:44 GMT-0400 (Eastern Daylight Time),666396.6999999285,I,z,1719,12,1,141.bmp,-120,-120,142.bmp,120,-120,143.bmp,-120,120,144.bmp,120,120,9775.699999928474,656621.0,9002,no,SM,A,141.bmp,120,-120,515446,509421,517463,511430,659080.0,653054.0,661097.0,655063.0,12
3,0,0,1,0,6,test,1,1,m,Fri Oct 11 2024 12:19:44 GMT-0400 (Eastern Daylight Time),676096.5,I,m,1648,13,1,145.bmp,-120,-120,146.bmp,120,-120,147.bmp,-120,120,148.bmp,120,120,9692.200000047684,666404.2999999523,9002,no,SM,A,146.bmp,-120,120,515446,509421,517463,511430,668863.0,662837.0,670880.0,664847.0,13
1,1,0,0,0,7,test,1,1,z,Fri Oct 11 2024 12:19:44 GMT-0400 (Eastern Daylight Time),686063.5,I,z,1900,14,1,149.bmp,-120,-120,150.bmp,120,-120,104.bmp,-120,120,101.bmp,120,120,9957.200000047684,676106.2999999523,9002,yes,SM,A,149.bmp,-120,-120,515446,509421,517463,511430,678563.0,672540.0,680580.0,674547.0,14
4,0,0,0,1,7,test,1,0,m,Fri Oct 11 2024 12:19:44 GMT-0400 (Eastern Daylight Time),695646.7999999523,I,z,1517,15,1,110.bmp,-120,-120,111.bmp,120,-120,112.bmp,-120,120,113.bmp,120,120,9573.700000047684,686073.0999999046,9002,no,SM,A,111.bmp,120,120,515446,509421,517463,511430,688530.0,682507.0,690547.0,684514.0,15
1,1,0,0,0,8,test,1,1,m,Fri Oct 11 2024 12:19:44 GMT-0400 (Eastern Daylight Time),705446.7999999523,I,m,1742,16,1,102.bmp,-120,-120,103.bmp,120,-120,104.bmp,-120,120,105.bmp,120,120,9791.399999976158,695655.3999999762,9002,no,SM,A,105.bmp,-120,-120,515446,509421,517463,511430,698113.0,692089.0,700130.0,694097.0,16
3,0,0,1,0,9,test,1,1,m,Fri Oct 11 2024 12:19:44 GMT-0400 (Eastern Daylight Time),715430.0999999046,I,m,1926,17,1,122.bmp,-120,-120,123.bmp,120,-120,124.bmp,-120,120,125.bmp,120,120,9974.0,705456.0999999046,9002,no,SM,A,122.bmp,-120,120,515446,509421,517463,511430,707913.0,701890.0,709930.0,703897.0,17
1,1,0,0,0,10,test,1,1,z,Fri Oct 11 2024 12:19:44 GMT-0400 (Eastern Daylight Time),725096.5999999046,I,z,1606,18,1,106.bmp,-120,-120,107.bmp,120,-120,108.bmp,-120,120,109.bmp,120,120,9660.299999952316,715436.2999999523,9002,yes,SM,A,106.bmp,-120,-120,515446,509421,517463,511430,717896.0,711870.0,719914.0,713880.0,18
2,0,1,0,0,11,test,1,1,z,Fri Oct 11 2024 12:19:44 GMT-0400 (Eastern Daylight Time),734580.0,I,z,1428,19,1,126.bmp,-120,-120,127.bmp,120,-120,128.bmp,-120,120,129.bmp,120,120,9474.700000047684,725105.2999999523,9002,yes,SM,A,127.bmp,120,-120,515446,509421,517463,511430,727563.0,721538.0,729580.0,723547.0,19
3,0,0,1,0,12,test,1,1,z,Fri Oct 11 2024 12:19:44 GMT-0400 (Eastern Daylight Time),744113.1999999285,I,z,1480,20,1,130.bmp,-120,-120,131.bmp,120,-120,132.bmp,-120,120,133.bmp,120,120,9526.100000023842,734587.0999999046,9002,yes,SM,A,132.bmp,-120,120,515446,509421,517463,511430,737046.0,731020.0,739064.0,733030.0,20
1,1,0,0,0,13,test,1,1,m,Fri Oct 11 2024 12:19:44 GMT-0400 (Eastern Daylight Time),753547.0,I,m,1371,21,1,114.bmp,-120,-120,115.bmp,120,-120,116.bmp,-120,120,117.bmp,120,120,9425.900000095367,744121.0999999046,9002,no,SM,A,116.bmp,-120,-120,515446,509421,517463,511430,746580.0,740554.0,748597.0,742563.0,21
4,0,0,0,1,13,test,1,0,z,Fri Oct 11 2024 12:19:44 GMT-0400 (Eastern Daylight Time),763413.5,I,m,1810,22,1,118.bmp,-120,-120,119.bmp,120,-120,120.bmp,-120,120,121.bmp,120,120,9859.200000047684,753554.2999999523,9002,yes,SM,A,121.bmp,120,120,515446,509421,517463,511430,756013.0,749987.0,758030.0,751997.0,22
1,1,0,0,0,14,test,1,1,m,Fri Oct 11 2024 12:19:44 GMT-0400 (Eastern Daylight Time),773146.7999999523,I,m,1671,23,1,134.bmp,-120,-120,135.bmp,120,-120,136.bmp,-120,120,137.bmp,120,120,9725.899999976158,763420.8999999762,9002,no,SM,A,137.bmp,-120,-120,515446,509421,517463,511430,765880.0,759854.0,767897.0,761863.0,23
2,0,1,0,0,14,test,1,0,z,Fri Oct 11 2024 12:19:44 GMT-0400 (Eastern Daylight Time),783213.5,I,None,2016,24,1,142.bmp,-120,-120,143.bmp,120,-120,144.bmp,-120,120,145.bmp,120,120,10060.300000071526,773153.1999999285,9002,yes,SM,A,143.bmp,120,-120,515446,509421,517463,511430,775613.0,769587.0,777630.0,771596.0,24
4,0,0,0,1,15,test,1,1,m,Fri Oct 11 2024 12:19:44 GMT-0400 (Eastern Daylight Time),792696.7999999523,I,m,1423,25,1,146.bmp,-120,-120,147.bmp,120,-120,148.bmp,-120,120,149.bmp,120,120,9474.5,783222.2999999523,9002,no,SM,A,148.bmp,120,120,515446,509421,517463,511430,785680.0,779656.0,787697.0,781664.0,25
1,1,0,0,0,16,test,1,1,z,Fri Oct 11 2024 12:19:44 GMT-0400 (Eastern Daylight Time),801896.5,I,z,1140,26,1,138.bmp,-120,-120,139.bmp,120,-120,140.bmp,-120,120,141.bmp,120,120,9192.400000095367,792704.0999999046,9002,yes,SM,A,138.bmp,-120,-120,515446,509421,517463,511430,795163.0,789137.0,797180.0,791147.0,26
4,0,0,0,1,17,test,1,1,z,Fri Oct 11 2024 12:19:44 GMT-0400 (Eastern Daylight Time),811313.3999999762,I,z,1364,27,1,150.bmp,-120,-120,111.bmp,120,-120,101.bmp,-120,120,102.bmp,120,120,9413.200000047684,801900.1999999285,9002,yes,SM,A,102.bmp,120,120,515446,509421,517463,511430,804363.0,798333.0,806380.0,800347.0,27
3,0,0,1,0,18,test,1,1,m,Fri Oct 11 2024 12:19:44 GMT-0400 (Eastern Daylight Time),821263.2999999523,I,m,1883,28,1,103.bmp,-120,-120,104.bmp,120,-120,105.bmp,-120,120,106.bmp,120,120,9942.5,811320.7999999523,9002,no,SM,A,103.bmp,-120,120,515446,509421,517463,511430,813780.0,807754.0,815797.0,809764.0,28
2,0,1,0,0,19,test,1,1,z,Fri Oct 11 2024 12:19:44 GMT-0400 (Eastern Daylight Time),830747.0,I,z,1421,29,1,107.bmp,-120,-120,108.bmp,120,-120,109.bmp,-120,120,110.bmp,120,120,9477.100000023842,821269.8999999762,9002,yes,SM,A,108.bmp,120,-120,515446,509421,517463,511430,823730.0,817703.0,825747.0,819714.0,29
3,0,0,1,0,20,test,1,1,z,Fri Oct 11 2024 12:19:44 GMT-0400 (Eastern Daylight Time),840246.8999999762,I,z,1442,30,1,111.bmp,-120,-120,112.bmp,120,-120,113.bmp,-120,120,114.bmp,120,120,9490.100000023842,830756.7999999523,9002,yes,SM,A,113.bmp,-120,120,515446,509421,517463,511430,833214.0,827190.0,835230.0,829197.0,30
1,1,0,0,0,21,test,1,1,z,Fri Oct 11 2024 12:19:44 GMT-0400 (Eastern Daylight Time),850296.8999999762,I,z,1990,31,1,115.bmp,-120,-120,116.bmp,120,-120,117.bmp,-120,120,118.bmp,120,120,10043.800000071526,840253.0999999046,9002,yes,SM,A,115.bmp,-120,-120,515446,509421,517463,511430,842713.0,836686.0,844730.0,838697.0,31
2,0,1,0,0,22,test,1,1,m,Fri Oct 11 2024 12:19:44 GMT-0400 (Eastern Daylight Time),859746.8999999762,I,m,1395,32,1,119.bmp,-120,-120,120.bmp,120,-120,121.bmp,-120,120,122.bmp,120,120,9440.899999976158,850306.0,9002,no,SM,A,119.bmp,120,-120,515446,509421,517463,511430,852763.0,846739.0,854781.0,848747.0,32
4,0,0,0,1,23,test,1,1,z,Fri Oct 11 2024 12:19:44 GMT-0400 (Eastern Daylight Time),869463.5999999046,I,z,1657,33,1,131.bmp,-120,-120,132.bmp,120,-120,133.bmp,-120,120,134.bmp,120,120,9709.399999976158,859754.1999999285,9002,yes,SM,A,134.bmp,120,120,515446,509421,517463,511430,862213.0,856187.0,864230.0,858197.0,33
2,0,1,0,0,24,test,1,1,z,Fri Oct 11 2024 12:19:44 GMT-0400 (Eastern Daylight Time),878596.8999999762,I,z,1077,34,1,123.bmp,-120,-120,124.bmp,120,-120,125.bmp,-120,120,126.bmp,120,120,9126.600000023842,869470.2999999523,9002,yes,SM,A,124.bmp,120,-120,515446,509421,517463,511430,871930.0,865903.0,873947.0,867914.0,34
4,0,0,0,1,25,test,1,1,m,Fri Oct 11 2024 12:19:44 GMT-0400 (Eastern Daylight Time),887897.0,I,m,1239,35,1,127.bmp,-120,-120,128.bmp,120,-120,129.bmp,-120,120,130.bmp,120,120,9293.800000071526,878603.1999999285,9002,no,SM,A,129.bmp,120,120,515446,509421,517463,511430,881063.0,875036.0,883080.0,877047.0,35
3,0,0,1,0,26,test,1,1,m,Fri Oct 11 2024 12:19:44 GMT-0400 (Eastern Daylight Time),897113.5999999046,I,m,1156,36,1,135.bmp,-120,-120,136.bmp,120,-120,137.bmp,-120,120,138.bmp,120,120,9209.899999976158,887903.6999999285,9002,no,SM,A,135.bmp,-120,120,515446,509421,517463,511430,890363.0,884337.0,892380.0,886347.0,36
1,1,0,0,0,26,test,1,0,m,Fri Oct 11 2024 12:19:44 GMT-0400 (Eastern Daylight Time),906813.5,I,z,1635,37,1,139.bmp,-120,-120,140.bmp,120,-120,141.bmp,-120,120,142.bmp,120,120,9691.800000071526,897121.6999999285,9002,no,SM,A,140.bmp,-120,-120,515446,509421,517463,511430,899580.0,893555.0,901597.0,895564.0,37
2,0,1,0,0,26,test,1,0,m,Fri Oct 11 2024 12:19:44 GMT-0400 (Eastern Daylight Time),916680.3999999762,I,z,1807,38,1,143.bmp,-120,-120,144.bmp,120,-120,145.bmp,-120,120,146.bmp,120,120,9858.200000047684,906822.1999999285,9002,no,SM,A,145.bmp,120,-120,515446,509421,517463,511430,909280.0,903255.0,911297.0,905264.0,38
4,0,0,0,1,26,test,1,0,z,Fri Oct 11 2024 12:19:44 GMT-0400 (Eastern Daylight Time),926413.5,I,m,1668,39,1,147.bmp,-120,-120,148.bmp,120,-120,149.bmp,-120,120,150.bmp,120,120,9726.200000047684,916687.2999999523,9002,yes,SM,A,150.bmp,120,120,515446,509421,517463,511430,919147.0,913121.0,921164.0,915130.0,39
3,0,0,1,0,27,test,1,1,m,Fri Oct 11 2024 12:19:44 GMT-0400 (Eastern Daylight Time),936046.8999999762,I,m,1567,40,1,104.bmp,-120,-120,105.bmp,120,-120,106.bmp,-120,120,107.bmp,120,120,9626.600000023842,926420.2999999523,9002,no,SM,A,105.bmp,-120,120,515446,509421,517463,511430,928880.0,922854.0,930897.0,924864.0,40
1,1,0,0,0,28,test,1,1,z,Fri Oct 11 2024 12:19:44 GMT-0400 (Eastern Daylight Time),945647.2999999523,I,z,1533,41,1,108.bmp,-120,-120,109.bmp,120,-120,110.bmp,-120,120,111.bmp,120,120,9591.899999976158,936055.3999999762,9002,yes,SM,A,108.bmp,-120,-120,515446,509421,517463,511430,938513.0,932489.0,940531.0,934497.0,41
4,0,0,0,1,28,test,1,0,z,Fri Oct 11 2024 12:19:44 GMT-0400 (Eastern Daylight Time),955713.5999999046,I,None,2015,42,1,112.bmp,-120,-120,113.bmp,120,-120,114.bmp,-120,120,115.bmp,120,120,10058.0,945655.5999999046,9002,yes,SM,A,115.bmp,120,120,515446,509421,517463,511430,948113.0,942089.0,950130.0,944097.0,42
1,1,0,0,0,29,test,1,1,z,Fri Oct 11 2024 12:19:44 GMT-0400 (Eastern Daylight Time),965296.7999999523,I,z,1531,43,1,116.bmp,-120,-120,117.bmp,120,-120,118.bmp,-120,120,119.bmp,120,120,9576.799999952316,955720.0,9002,yes,SM,A,116.bmp,-120,-120,515446,509421,517463,511430,958180.0,952153.0,960197.0,954164.0,43
4,0,0,0,1,30,test,1,1,m,Fri Oct 11 2024 12:19:44 GMT-0400 (Eastern Daylight Time),974529.5999999046,I,m,1178,44,1,104.bmp,-120,-120,101.bmp,120,-120,102.bmp,-120,120,103.bmp,120,120,9224.799999952316,965304.7999999523,9002,no,SM,A,104.bmp,120,120,515446,509421,517463,511430,967763.0,961738.0,969781.0,963747.0,44
1,1,0,0,0,31,test,1,1,m,Fri Oct 11 2024 12:19:44 GMT-0400 (Eastern Daylight Time),983613.5999999046,I,m,1018,45,1,128.bmp,-120,-120,129.bmp,120,-120,130.bmp,-120,120,131.bmp,120,120,9079.299999952316,974534.2999999523,9002,no,SM,A,131.bmp,-120,-120,515446,509421,517463,511430,976997.0,970968.0,979014.0,972980.0,45
1,1,0,0,0,32,test,1,1,m,Fri Oct 11 2024 12:19:44 GMT-0400 (Eastern Daylight Time),993230.1999999285,I,m,1551,46,1,120.bmp,-120,-120,121.bmp,120,-120,122.bmp,-120,120,123.bmp,120,120,9607.299999952316,983622.8999999762,9002,no,SM,A,121.bmp,-120,-120,515446,509421,517463,511430,986080.0,980056.0,988097.0,982064.0,46
3,0,0,1,0,33,test,1,1,z,Fri Oct 11 2024 12:19:44 GMT-0400 (Eastern Daylight Time),1002363.5999999046,I,z,1067,47,1,124.bmp,-120,-120,125.bmp,120,-120,126.bmp,-120,120,127.bmp,120,120,9125.399999976158,993238.1999999285,9002,yes,SM,A,126.bmp,-120,120,515446,509421,517463,511430,995697.0,989671.0,997715.0,991680.0,47
3,0,0,1,0,33,test,1,0,z,Fri Oct 11 2024 12:19:44 GMT-0400 (Eastern Daylight Time),1012130.3999999762,I,m,1714,48,1,140.bmp,-120,-120,141.bmp,120,-120,142.bmp,-120,120,143.bmp,120,120,9760.800000071526,1002369.5999999046,9002,yes,SM,A,142.bmp,-120,120,515446,509421,517463,511430,1004830.0,998803.0,1006847.0,1000814.0,48
2,0,1,0,0,34,test,1,1,z,Fri Oct 11 2024 12:19:44 GMT-0400 (Eastern Daylight Time),1022013.7999999523,I,z,1818,49,1,136.bmp,-120,-120,137.bmp,120,-120,138.bmp,-120,120,139.bmp,120,120,9875.0,1012138.7999999523,9002,yes,SM,A,137.bmp,120,-120,515446,509421,517463,511430,1014597.0,1008572.0,1016614.0,1010580.0,49
3,0,0,1,0,35,test,1,1,m,Fri Oct 11 2024 12:19:44 GMT-0400 (Eastern Daylight Time),1031897.0999999046,I,m,1824,50,1,132.bmp,-120,-120,133.bmp,120,-120,134.bmp,-120,120,135.bmp,120,120,9876.099999904633,1022021.0,9002,no,SM,A,132.bmp,-120,120,515446,509421,517463,511430,1024480.0,1018454.0,1026497.0,1020464.0,50
2,0,1,0,0,35,test,1,0,z,Fri Oct 11 2024 12:19:44 GMT-0400 (Eastern Daylight Time),1041963.5999999046,I,None,2015,51,1,144.bmp,-120,-120,145.bmp,120,-120,146.bmp,-120,120,147.bmp,120,120,10059.5,1031904.0999999046,9002,yes,SM,A,145.bmp,120,-120,515446,509421,517463,511430,1034364.0,1028337.0,1036381.0,1030347.0,51
4,0,0,0,1,36,test,1,1,m,Fri Oct 11 2024 12:19:44 GMT-0400 (Eastern Daylight Time),1051863.7999999523,I,m,1841,52,1,148.bmp,-120,-120,149.bmp,120,-120,150.bmp,-120,120,131.bmp,120,120,9893.399999976158,1041970.3999999762,9002,no,SM,A,148.bmp,120,120,515446,509421,517463,511430,1044430.0,1038404.0,1046447.0,1040414.0,52
3,0,0,1,0,37,test,1,1,z,Fri Oct 11 2024 12:19:44 GMT-0400 (Eastern Daylight Time),1061347.0,I,z,1430,53,1,101.bmp,-120,-120,102.bmp,120,-120,103.bmp,-120,120,104.bmp,120,120,9473.100000023842,1051873.8999999762,9002,yes,SM,A,103.bmp,-120,120,515446,509421,517463,511430,1054330.0,1048307.0,1056347.0,1050314.0,53
1,1,0,0,0,38,test,1,1,m,Fri Oct 11 2024 12:19:44 GMT-0400 (Eastern Daylight Time),1071264.0999999046,I,m,1866,54,1,105.bmp,-120,-120,106.bmp,120,-120,107.bmp,-120,120,108.bmp,120,120,9909.399999976158,1061354.6999999285,9002,no,SM,A,107.bmp,-120,-120,515446,509421,517463,511430,1063814.0,1057788.0,1065831.0,1059797.0,54
4,0,0,0,1,39,test,1,1,z,Fri Oct 11 2024 12:19:44 GMT-0400 (Eastern Daylight Time),1080363.7999999523,I,z,1038,55,1,109.bmp,-120,-120,110.bmp,120,-120,111.bmp,-120,120,112.bmp,120,120,9090.600000023842,1071273.1999999285,9002,yes,SM,A,112.bmp,120,120,515446,509421,517463,511430,1073730.0,1067707.0,1075747.0,1069714.0,55
2,0,1,0,0,40,test,1,1,m,Fri Oct 11 2024 12:19:44 GMT-0400 (Eastern Daylight Time),1089780.5,I,m,1361,56,1,113.bmp,-120,-120,114.bmp,120,-120,115.bmp,-120,120,116.bmp,120,120,9410.800000071526,1080369.6999999285,9002,no,SM,A,113.bmp,120,-120,515446,509421,517463,511430,1082830.0,1076803.0,1084847.0,1078814.0,56
4,0,0,0,1,41,test,1,1,m,Fri Oct 11 2024 12:19:44 GMT-0400 (Eastern Daylight Time),1099413.6999999285,I,m,1577,57,1,117.bmp,-120,-120,118.bmp,120,-120,119.bmp,-120,120,120.bmp,120,120,9627.0,1089786.6999999285,9002,no,SM,A,118.bmp,120,120,515446,509421,517463,511430,1092247.0,1086220.0,1094264.0,1088231.0,57
3,0,0,1,0,42,test,1,1,z,Fri Oct 11 2024 12:19:44 GMT-0400 (Eastern Daylight Time),1108463.6999999285,I,z,983,58,1,121.bmp,-120,-120,122.bmp,120,-120,123.bmp,-120,120,124.bmp,120,120,9040.899999976158,1099422.7999999523,9002,yes,SM,A,123.bmp,-120,120,515446,509421,517463,511430,1101880.0,1095856.0,1103897.0,1097864.0,58
2,0,1,0,0,43,test,1,1,m,Fri Oct 11 2024 12:19:44 GMT-0400 (Eastern Daylight Time),1118213.7999999523,I,m,1694,59,1,125.bmp,-120,-120,126.bmp,120,-120,127.bmp,-120,120,128.bmp,120,120,9743.700000047684,1108470.0999999046,9002,no,SM,A,128.bmp,120,-120,515446,509421,517463,511430,1110930.0,1104903.0,1112947.0,1106914.0,59
1,1,0,0,0,44,test,1,1,z,Fri Oct 11 2024 12:19:44 GMT-0400 (Eastern Daylight Time),1127513.6999999285,I,z,1240,60,1,129.bmp,-120,-120,130.bmp,120,-120,131.bmp,-120,120,132.bmp,120,120,9291.899999976158,1118221.7999999523,9002,yes,SM,A,129.bmp,-120,-120,515446,509421,517463,511430,1120680.0,1114655.0,1122697.0,1116664.0,60
2,0,1,0,0,45,test,1,1,z,Fri Oct 11 2024 12:19:44 GMT-0400 (Eastern Daylight Time),1136897.0,I,z,1332,61,1,133.bmp,-120,-120,134.bmp,120,-120,135.bmp,-120,120,136.bmp,120,120,9376.300000071526,1127520.6999999285,9002,yes,SM,A,134.bmp,120,-120,515446,509421,517463,511430,1129980.0,1123954.0,1131997.0,1125964.0,61
4,0,0,0,1,45,test,1,0,z,Fri Oct 11 2024 12:19:44 GMT-0400 (Eastern Daylight Time),1146714.0,I,m,1756,62,1,141.bmp,-120,-120,142.bmp,120,-120,143.bmp,-120,120,144.bmp,120,120,9808.400000095367,1136905.5999999046,9002,yes,SM,A,144.bmp,120,120,515446,509421,517463,511430,1139364.0,1133339.0,1141381.0,1135348.0,62
1,1,0,0,0,45,test,1,0,m,Fri Oct 11 2024 12:19:44 GMT-0400 (Eastern Daylight Time),1156263.7999999523,I,z,1492,63,1,145.bmp,-120,-120,146.bmp,120,-120,147.bmp,-120,120,148.bmp,120,120,9543.5,1146720.2999999523,9002,no,SM,A,145.bmp,-120,120,515446,509421,517463,511430,1149181.0,1143154.0,1151197.0,1145164.0,63
2,0,1,0,0,46,test,1,1,z,Fri Oct 11 2024 12:19:44 GMT-0400 (Eastern Daylight Time),1165580.5,I,z,1253,64,1,149.bmp,-120,-120,150.bmp,120,-120,112.bmp,-120,120,101.bmp,120,120,9308.400000095367,1156272.0999999046,9002,yes,SM,A,150.bmp,120,-120,515446,509421,517463,511430,1158730.0,1152705.0,1160747.0,1154714.0,64
4,0,0,0,1,47,test,1,1,m,Fri Oct 11 2024 12:19:44 GMT-0400 (Eastern Daylight Time),1174897.0,I,m,1265,65,1,102.bmp,-120,-120,103.bmp,120,-120,104.bmp,-120,120,105.bmp,120,120,9310.100000023842,1165586.8999999762,9002,no,SM,A,104.bmp,120,120,515446,509421,517463,511430,1168047.0,1162020.0,1170064.0,1164031.0,65
3,0,0,1,0,48,test,1,1,m,Fri Oct 11 2024 12:19:44 GMT-0400 (Eastern Daylight Time),1184663.5,I,m,1707,66,1,106.bmp,-120,-120,107.bmp,120,-120,108.bmp,-120,120,109.bmp,120,120,9760.5,1174903.0,9002,no,SM,A,109.bmp,-120,120,515446,509421,517463,511430,1177364.0,1171336.0,1179381.0,1173347.0,66
2,0,1,0,0,49,test,1,1,m,Fri Oct 11 2024 12:19:44 GMT-0400 (Eastern Daylight Time),1194130.5999999046,I,m,1414,67,1,137.bmp,-120,-120,138.bmp,120,-120,139.bmp,-120,120,140.bmp,120,120,9460.099999904633,1184670.5,9002,no,SM,A,139.bmp,120,-120,515446,509421,517463,511430,1187130.0,1181104.0,1189147.0,1183114.0,67
3,0,0,1,0,50,test,1,1,z,Fri Oct 11 2024 12:19:44 GMT-0400 (Eastern Daylight Time),1203964.0,I,z,1770,68,1,110.bmp,-120,-120,111.bmp,120,-120,112.bmp,-120,120,113.bmp,120,120,9826.0,1194138.0,9002,yes,SM,A,112.bmp,-120,120,515446,509421,517463,511430,1196597.0,1190571.0,1198614.0,1192581.0,68
1,1,0,0,0,50,test,1,0,m,Fri Oct 11 2024 12:19:44 GMT-0400 (Eastern Daylight Time),1214030.5,I,None,2016,69,1,114.bmp,-120,-120,115.bmp,120,-120,116.bmp,-120,120,117.bmp,120,120,10059.400000095367,1203971.0999999046,9002,no,SM,A,115.bmp,-120,-120,515446,509421,517463,511430,1206430.0,1200404.0,1208447.0,1202414.0,69
2,0,1,0,0,51,test,1,1,m,Fri Oct 11 2024 12:19:44 GMT-0400 (Eastern Daylight Time),1223364.0,I,m,1279,70,1,118.bmp,-120,-120,119.bmp,120,-120,120.bmp,-120,120,121.bmp,120,120,9326.700000047684,1214037.2999999523,9002,no,SM,A,120.bmp,120,-120,515446,509421,517463,511430,1216497.0,1210471.0,1218514.0,1212482.0,70
4,0,0,0,1,52,test,1,1,z,Fri Oct 11 2024 12:19:44 GMT-0400 (Eastern Daylight Time),1233047.1999999285,I,z,1625,71,1,122.bmp,-120,-120,123.bmp,120,-120,124.bmp,-120,120,125.bmp,120,120,9673.600000023842,1223373.5999999046,9002,yes,SM,A,125.bmp,120,120,515446,509421,517463,511430,1225831.0,1219807.0,1227847.0,1221814.0,71
1,1,0,0,0,53,test,1,1,z,Fri Oct 11 2024 12:19:44 GMT-0400 (Eastern Daylight Time),1242847.0,I,z,1733,72,1,126.bmp,-120,-120,127.bmp,120,-120,128.bmp,-120,120,129.bmp,120,120,9793.100000023842,1233053.8999999762,9002,yes,SM,A,126.bmp,-120,-120,515446,509421,517463,511430,1235514.0,1229487.0,1237531.0,1231497.0,72
2,0,1,0,0,54,test,1,1,z,Fri Oct 11 2024 12:19:44 GMT-0400 (Eastern Daylight Time),1251913.8999999762,I,z,1006,73,1,130.bmp,-120,-120,131.bmp,120,-120,132.bmp,-120,120,133.bmp,120,120,9063.700000047684,1242850.1999999285,9002,yes,SM,A,131.bmp,120,-120,515446,509421,517463,511430,1245314.0,1239283.0,1247331.0,1241297.0,73
4,0,0,0,1,55,test,1,1,m,Fri Oct 11 2024 12:19:44 GMT-0400 (Eastern Daylight Time),1261213.8999999762,I,m,1234,74,1,134.bmp,-120,-120,135.bmp,120,-120,136.bmp,-120,120,137.bmp,120,120,9290.800000071526,1251923.0999999046,9002,no,SM,A,136.bmp,120,120,515446,509421,517463,511430,1254380.0,1248357.0,1256398.0,1250364.0,74
2,0,1,0,0,56,test,1,1,m,Fri Oct 11 2024 12:19:44 GMT-0400 (Eastern Daylight Time),1270814.0999999046,I,m,1536,75,1,138.bmp,-120,-120,139.bmp,120,-120,140.bmp,-120,120,141.bmp,120,120,9590.899999976158,1261223.1999999285,9002,no,SM,A,141.bmp,120,-120,515446,509421,517463,511430,1263681.0,1257657.0,1265697.0,1259664.0,75
1,1,0,0,0,57,test,1,1,z,Fri Oct 11 2024 12:19:44 GMT-0400 (Eastern Daylight Time),1279764.0999999046,I,z,896,76,1,142.bmp,-120,-120,143.bmp,120,-120,144.bmp,-120,120,145.bmp,120,120,8942.0,1270822.0999999046,9002,yes,SM,A,142.bmp,-120,-120,515446,509421,517463,511430,1273281.0,1267255.0,1275297.0,1269264.0,76
3,0,0,1,0,57,test,1,0,z,Fri Oct 11 2024 12:19:44 GMT-0400 (Eastern Daylight Time),1289830.7999999523,I,None,2017,77,1,150.bmp,-120,-120,111.bmp,120,-120,101.bmp,-120,120,102.bmp,120,120,10058.799999952316,1279772.0,9002,yes,SM,A,101.bmp,-120,120,515446,509421,517463,511430,1282231.0,1276205.0,1284247.0,1278214.0,77
1,1,0,0,0,58,test,1,1,m,Fri Oct 11 2024 12:19:44 GMT-0400 (Eastern Daylight Time),1299247.0999999046,I,m,1350,78,1,146.bmp,-120,-120,147.bmp,120,-120,148.bmp,-120,120,149.bmp,120,120,9408.799999952316,1289838.2999999523,9002,no,SM,A,147.bmp,-120,-120,515446,509421,517463,511430,1292297.0,1286272.0,1294314.0,1288281.0,78
4,0,0,0,1,59,test,1,1,m,Fri Oct 11 2024 12:19:44 GMT-0400 (Eastern Daylight Time),1308480.5999999046,I,m,1166,79,1,107.bmp,-120,-120,108.bmp,120,-120,109.bmp,-120,120,110.bmp,120,120,9225.199999928474,1299255.3999999762,9002,no,SM,A,107.bmp,120,120,515446,509421,517463,511430,1301714.0,1295689.0,1303731.0,1297698.0,79
3,0,0,1,0,60,test,1,1,m,Fri Oct 11 2024 12:19:44 GMT-0400 (Eastern Daylight Time),1317880.5999999046,I,m,1341,80,1,103.bmp,-120,-120,104.bmp,120,-120,105.bmp,-120,120,106.bmp,120,120,9391.699999928474,1308488.8999999762,9002,no,SM,A,106.bmp,-120,120,515446,509421,517463,511430,1310947.0,1304922.0,1312964.0,1306931.0,80
