Q,Q1,Q2,Q3,Q4,acc_sum,block,block_c,correct,correct_response,datetime,endtime,project,response,response_time,row_sel,session_number,squiggle1,squiggle1x,squiggle1y,squiggle2,squiggle2x,squiggle2y,squiggle3,squiggle3x,squiggle3y,squiggle4,squiggle4x,squiggle4y,start_end,starttime,subject_id,target_congruent,task,task_vers,testsquiggle,testsquigglex,testsquiggley,time_practice_delay,time_practice_fixation,time_practice_stimuli,time_practice_study,time_test_delay,time_test_fixation,time_test_stimuli,time_test_study,trial
1,1,0,0,0,1,prac,1,1,z,Fri May 02 2025 12:00:46 GMT-0400 (Eastern Daylight Time),155068.69999980927,I,z,865,1,3,66.bmp,-120,-120,67.bmp,120,-120,68.bmp,-120,120,69.bmp,120,120,9693.0,145375.69999980927,9002,yes,SM,C,66.bmp,-120,-120,148043,142017,150061,144027,,,,,1
3,0,0,1,0,2,prac,1,1,m,Fri May 02 2025 12:00:46 GMT-0400 (Eastern Daylight Time),164984.5,I,m,1085,2,3,70.bmp,-120,-120,71.bmp,120,-120,72.bmp,-120,120,73.bmp,120,120,9906.70000076294,155077.79999923706,9002,no,SM,C,73.bmp,-120,120,157743,151719,159761,153727,,,,,2
4,0,0,0,1,2,prac,1,0,m,Fri May 02 2025 12:00:46 GMT-0400 (Eastern Daylight Time),175601.5999994278,I,z,1793,3,3,74.bmp,-120,-120,75.bmp,120,-120,76.bmp,-120,120,77.bmp,120,120,10612.199999809265,164989.39999961853,9002,no,SM,C,74.bmp,120,120,167660,161631,169677,163644,,,,,3
2,0,1,0,0,3,prac,1,1,z,Fri May 02 2025 12:00:46 GMT-0400 (Eastern Daylight Time),186001.69999980927,I,z,1576,4,3,78.bmp,-120,-120,79.bmp,120,-120,80.bmp,-120,120,81.bmp,120,120,10387.10000038147,175614.5999994278,9002,yes,SM,C,79.bmp,120,-120,178276,172256,180294,174260,,,,,4
3,0,0,1,0,4,prac,1,1,z,Fri May 02 2025 12:00:46 GMT-0400 (Eastern Daylight Time),195868.39999961853,I,z,1032,5,3,82.bmp,-120,-120,83.bmp,120,-120,84.bmp,-120,120,85.bmp,120,120,9858.0,186010.39999961853,9002,yes,SM,C,84.bmp,-120,120,188676,182652,190694,184660,,,,,5
1,1,0,0,0,5,prac,1,1,m,Fri May 02 2025 12:00:46 GMT-0400 (Eastern Daylight Time),205751.69999980927,I,m,1053,6,3,86.bmp,-120,-120,87.bmp,120,-120,88.bmp,-120,120,89.bmp,120,120,9873.900000572205,195877.79999923706,9002,no,SM,C,89.bmp,-120,-120,198543,192519,200561,194527,,,,,6
2,0,1,0,0,6,prac,1,1,m,Fri May 02 2025 12:00:46 GMT-0400 (Eastern Daylight Time),215701.69999980927,I,m,1122,7,3,90.bmp,-120,-120,91.bmp,120,-120,92.bmp,-120,120,93.bmp,120,120,9941.60000038147,205760.0999994278,9002,no,SM,C,90.bmp,120,-120,208426,202402,210444,204410,,,,,7
4,0,0,0,1,6,prac,1,0,z,Fri May 02 2025 12:00:46 GMT-0400 (Eastern Daylight Time),225801.5,I,m,1268,8,3,94.bmp,-120,-120,95.bmp,120,-120,96.bmp,-120,120,97.bmp,120,120,10091.70000076294,215709.79999923706,9002,yes,SM,C,97.bmp,120,120,218376,212351,220394,214360,,,,,8
4,0,0,0,1,1,test,1,1,m,Fri May 02 2025 12:00:46 GMT-0400 (Eastern Daylight Time),252835.0999994278,I,m,1676,1,3,98.bmp,-120,-120,99.bmp,120,-120,100.bmp,-120,120,93.bmp,120,120,9727.300000190735,243107.79999923706,9002,yes,SM,C,100.bmp,120,120,218376,212351,220394,214360,245776.0,239749.0,247794.0,241760.0,1
2,0,1,0,0,2,test,1,1,m,Fri May 02 2025 12:00:46 GMT-0400 (Eastern Daylight Time),262318.19999980927,I,m,1431,2,3,51.bmp,-120,-120,52.bmp,120,-120,53.bmp,-120,120,54.bmp,120,120,9474.800000190735,252843.39999961853,9002,yes,SM,C,53.bmp,120,-120,218376,212351,220394,214360,255509.0,249485.0,257527.0,251493.0,2
1,1,0,0,0,3,test,1,1,z,Fri May 02 2025 12:00:46 GMT-0400 (Eastern Daylight Time),272334.69999980927,I,z,1964,3,3,55.bmp,-120,-120,56.bmp,120,-120,57.bmp,-120,120,58.bmp,120,120,10007.5,262327.19999980927,9002,yes,SM,C,55.bmp,-120,-120,218376,212351,220394,214360,264993.0,258968.0,267010.0,260977.0,3
3,0,0,1,0,4,test,1,1,m,Fri May 02 2025 12:00:46 GMT-0400 (Eastern Daylight Time),281584.79999923706,I,m,1195,4,3,59.bmp,-120,-120,60.bmp,120,-120,61.bmp,-120,120,62.bmp,120,120,9240.599999427795,272344.19999980927,9002,yes,SM,C,59.bmp,-120,120,218376,212351,220394,214360,275009.0,268985.0,277027.0,270993.0,4
2,0,1,0,0,4,test,1,0,z,Fri May 02 2025 12:00:46 GMT-0400 (Eastern Daylight Time),291652.0999994278,I,None,2015,5,3,63.bmp,-120,-120,64.bmp,120,-120,65.bmp,-120,120,66.bmp,120,120,10059.5,281592.5999994278,9002,yes,SM,C,64.bmp,120,-120,218376,212351,220394,214360,284259.0,278234.0,286277.0,280244.0,5
3,0,0,1,0,5,test,1,1,z,Fri May 02 2025 12:00:46 GMT-0400 (Eastern Daylight Time),301701.5999994278,I,z,1990,6,3,67.bmp,-120,-120,68.bmp,120,-120,69.bmp,-120,120,70.bmp,120,120,10039.300000190735,291662.29999923706,9002,yes,SM,C,69.bmp,-120,120,218376,212351,220394,214360,294326.0,288304.0,296344.0,290310.0,6
4,0,0,0,1,5,test,1,0,z,Fri May 02 2025 12:00:46 GMT-0400 (Eastern Daylight Time),311634.69999980927,I,m,1877,7,3,71.bmp,-120,-120,72.bmp,120,-120,73.bmp,-120,120,74.bmp,120,120,9925.60000038147,301709.0999994278,9002,yes,SM,C,74.bmp,120,120,218376,212351,220394,214360,304376.0,298350.0,306393.0,300360.0,7
2,0,1,0,0,5,test,1,0,m,Fri May 02 2025 12:00:46 GMT-0400 (Eastern Daylight Time),321701.29999923706,I,None,2015,8,3,75.bmp,-120,-120,76.bmp,120,-120,77.bmp,-120,120,78.bmp,120,120,10059.89999961853,311641.39999961853,9002,yes,SM,C,75.bmp,120,-120,218376,212351,220394,214360,314309.0,308283.0,316327.0,310293.0,8
3,0,0,1,0,5,test,1,0,m,Fri May 02 2025 12:00:46 GMT-0400 (Eastern Daylight Time),331768.0999994278,I,None,2015,9,3,79.bmp,-120,-120,80.bmp,120,-120,81.bmp,-120,120,82.bmp,120,120,10058.39999961853,321709.69999980927,9002,yes,SM,C,80.bmp,-120,120,218376,212351,220394,214360,324376.0,318351.0,326394.0,320360.0,9
4,0,0,0,1,5,test,1,0,z,Fri May 02 2025 12:00:46 GMT-0400 (Eastern Daylight Time),341268.0,I,m,1442,10,3,87.bmp,-120,-120,88.bmp,120,-120,89.bmp,-120,120,90.bmp,120,120,9491.70000076294,331776.29999923706,9002,yes,SM,C,90.bmp,120,120,218376,212351,220394,214360,334443.0,328417.0,336460.0,330427.0,10
3,0,0,1,0,5,test,1,0,z,Fri May 02 2025 12:00:46 GMT-0400 (Eastern Daylight Time),351084.69999980927,I,m,1750,11,3,83.bmp,-120,-120,84.bmp,120,-120,85.bmp,-120,120,86.bmp,120,120,9806.400000572205,341278.29999923706,9002,yes,SM,C,85.bmp,-120,120,218376,212351,220394,214360,343943.0,337920.0,345960.0,339927.0,11
2,0,1,0,0,5,test,1,0,m,Fri May 02 2025 12:00:46 GMT-0400 (Eastern Daylight Time),361001.29999923706,I,z,1853,12,3,91.bmp,-120,-120,92.bmp,120,-120,93.bmp,-120,120,94.bmp,120,120,9906.39999961853,351094.89999961853,9002,yes,SM,C,91.bmp,120,-120,218376,212351,220394,214360,353759.0,347737.0,355777.0,349743.0,12
3,0,0,1,0,6,test,1,1,m,Fri May 02 2025 12:00:46 GMT-0400 (Eastern Daylight Time),370717.79999923706,I,m,1664,13,3,95.bmp,-120,-120,96.bmp,120,-120,97.bmp,-120,120,98.bmp,120,120,9707.39999961853,361010.39999961853,9002,yes,SM,C,96.bmp,-120,120,218376,212351,220394,214360,363676.0,357652.0,365694.0,359660.0,13
1,1,0,0,0,6,test,1,0,z,Fri May 02 2025 12:00:46 GMT-0400 (Eastern Daylight Time),380784.69999980927,I,None,2016,14,3,99.bmp,-120,-120,100.bmp,120,-120,54.bmp,-120,120,51.bmp,120,120,10056.199999809265,370728.5,9002,yes,SM,C,99.bmp,-120,-120,218376,212351,220394,214360,373392.0,367370.0,375410.0,369377.0,14
4,0,0,0,1,7,test,1,1,m,Fri May 02 2025 12:00:46 GMT-0400 (Eastern Daylight Time),389834.69999980927,I,m,985,15,3,60.bmp,-120,-120,61.bmp,120,-120,62.bmp,-120,120,63.bmp,120,120,9041.400000572205,380793.29999923706,9002,yes,SM,C,61.bmp,120,120,218376,212351,220394,214360,383459.0,377434.0,385477.0,379443.0,15
1,1,0,0,0,7,test,1,0,m,Fri May 02 2025 12:00:46 GMT-0400 (Eastern Daylight Time),399901.39999961853,I,None,2015,16,3,52.bmp,-120,-120,53.bmp,120,-120,54.bmp,-120,120,55.bmp,120,120,10059.300000190735,389842.0999994278,9002,yes,SM,C,55.bmp,-120,-120,218376,212351,220394,214360,392509.0,386483.0,394527.0,388493.0,16
3,0,0,1,0,8,test,1,1,m,Fri May 02 2025 12:00:46 GMT-0400 (Eastern Daylight Time),409601.39999961853,I,m,1644,17,3,72.bmp,-120,-120,73.bmp,120,-120,74.bmp,-120,120,75.bmp,120,120,9692.699999809265,399908.69999980927,9002,yes,SM,C,72.bmp,-120,120,218376,212351,220394,214360,402576.0,396550.0,404594.0,398560.0,17
1,1,0,0,0,9,test,1,1,z,Fri May 02 2025 12:00:46 GMT-0400 (Eastern Daylight Time),419368.0,I,z,1705,18,3,56.bmp,-120,-120,57.bmp,120,-120,58.bmp,-120,120,59.bmp,120,120,9755.70000076294,409612.29999923706,9002,yes,SM,C,56.bmp,-120,-120,218376,212351,220394,214360,412276.0,406254.0,414293.0,408260.0,18
2,0,1,0,0,9,test,1,0,z,Fri May 02 2025 12:00:46 GMT-0400 (Eastern Daylight Time),429434.5999994278,I,None,2015,19,3,76.bmp,-120,-120,77.bmp,120,-120,78.bmp,-120,120,79.bmp,120,120,10059.199999809265,419375.39999961853,9002,yes,SM,C,77.bmp,120,-120,218376,212351,220394,214360,422043.0,416017.0,424060.0,418027.0,19
3,0,0,1,0,9,test,1,0,z,Fri May 02 2025 12:00:46 GMT-0400 (Eastern Daylight Time),438717.69999980927,I,m,1231,20,3,80.bmp,-120,-120,81.bmp,120,-120,82.bmp,-120,120,83.bmp,120,120,9275.800000190735,429441.89999961853,9002,yes,SM,C,82.bmp,-120,120,218376,212351,220394,214360,432109.0,426083.0,434127.0,428093.0,20
1,1,0,0,0,10,test,1,1,m,Fri May 02 2025 12:00:46 GMT-0400 (Eastern Daylight Time),448384.5999994278,I,m,1612,21,3,64.bmp,-120,-120,65.bmp,120,-120,66.bmp,-120,120,67.bmp,120,120,9660.5,438724.0999994278,9002,yes,SM,C,66.bmp,-120,-120,218376,212351,220394,214360,441392.0,435365.0,443410.0,437377.0,21
4,0,0,0,1,11,test,1,1,z,Fri May 02 2025 12:00:46 GMT-0400 (Eastern Daylight Time),458267.79999923706,I,z,1817,22,3,68.bmp,-120,-120,69.bmp,120,-120,70.bmp,-120,120,71.bmp,120,120,9876.39999961853,448391.39999961853,9002,yes,SM,C,71.bmp,120,120,218376,212351,220394,214360,451059.0,445033.0,453077.0,447043.0,22
1,1,0,0,0,11,test,1,0,m,Fri May 02 2025 12:00:46 GMT-0400 (Eastern Daylight Time),468334.5,I,None,2015,23,3,84.bmp,-120,-120,85.bmp,120,-120,86.bmp,-120,120,87.bmp,120,120,10060.400000572205,458274.0999994278,9002,yes,SM,C,87.bmp,-120,-120,218376,212351,220394,214360,460942.0,454915.0,462960.0,456926.0,23
2,0,1,0,0,11,test,1,0,z,Fri May 02 2025 12:00:46 GMT-0400 (Eastern Daylight Time),478001.29999923706,I,m,1611,24,3,92.bmp,-120,-120,93.bmp,120,-120,94.bmp,-120,120,95.bmp,120,120,9658.0,468343.29999923706,9002,yes,SM,C,93.bmp,120,-120,218376,212351,220394,214360,471009.0,464985.0,473027.0,466993.0,24
4,0,0,0,1,11,test,1,0,m,Fri May 02 2025 12:00:46 GMT-0400 (Eastern Daylight Time),487667.69999980927,I,z,1609,25,3,96.bmp,-120,-120,97.bmp,120,-120,98.bmp,-120,120,99.bmp,120,120,9659.5,478008.19999980927,9002,yes,SM,C,98.bmp,120,120,218376,212351,220394,214360,480676.0,474649.0,482693.0,476660.0,25
1,1,0,0,0,11,test,1,0,z,Fri May 02 2025 12:00:46 GMT-0400 (Eastern Daylight Time),497734.39999961853,I,None,2015,26,3,88.bmp,-120,-120,89.bmp,120,-120,90.bmp,-120,120,91.bmp,120,120,10060.0,487674.39999961853,9002,yes,SM,C,88.bmp,-120,-120,218376,212351,220394,214360,490342.0,484316.0,492360.0,486327.0,26
4,0,0,0,1,11,test,1,0,z,Fri May 02 2025 12:00:46 GMT-0400 (Eastern Daylight Time),507284.5,I,m,1491,27,3,100.bmp,-120,-120,61.bmp,120,-120,51.bmp,-120,120,52.bmp,120,120,9542.60000038147,497741.89999961853,9002,yes,SM,C,52.bmp,120,120,218376,212351,220394,214360,500409.0,494383.0,502427.0,496393.0,27
3,0,0,1,0,12,test,1,1,m,Fri May 02 2025 12:00:46 GMT-0400 (Eastern Daylight Time),516567.79999923706,I,m,1221,28,3,53.bmp,-120,-120,54.bmp,120,-120,55.bmp,-120,120,56.bmp,120,120,9276.29999923706,507291.5,9002,yes,SM,C,53.bmp,-120,120,218376,212351,220394,214360,509959.0,503933.0,511977.0,505943.0,28
2,0,1,0,0,12,test,1,0,z,Fri May 02 2025 12:00:46 GMT-0400 (Eastern Daylight Time),526634.5999994278,I,None,2015,29,3,57.bmp,-120,-120,58.bmp,120,-120,59.bmp,-120,120,60.bmp,120,120,10057.5,516577.0999994278,9002,yes,SM,C,58.bmp,120,-120,218376,212351,220394,214360,519243.0,513218.0,521260.0,515227.0,29
3,0,0,1,0,13,test,1,1,z,Fri May 02 2025 12:00:46 GMT-0400 (Eastern Daylight Time),536551.1999998093,I,z,1855,30,3,61.bmp,-120,-120,62.bmp,120,-120,63.bmp,-120,120,64.bmp,120,120,9909.5,526641.6999998093,9002,yes,SM,C,63.bmp,-120,120,218376,212351,220394,214360,529309.0,523283.0,531326.0,525293.0,30
1,1,0,0,0,13,test,1,0,z,Fri May 02 2025 12:00:46 GMT-0400 (Eastern Daylight Time),546617.6999998093,I,None,2014,31,3,65.bmp,-120,-120,66.bmp,120,-120,67.bmp,-120,120,68.bmp,120,120,10059.900000572205,536557.7999992371,9002,yes,SM,C,65.bmp,-120,-120,218376,212351,220394,214360,539225.0,533199.0,541245.0,535210.0,31
2,0,1,0,0,14,test,1,1,m,Fri May 02 2025 12:00:46 GMT-0400 (Eastern Daylight Time),556151.0,I,m,1472,32,3,69.bmp,-120,-120,70.bmp,120,-120,71.bmp,-120,120,72.bmp,120,120,9527.5,546623.5,9002,yes,SM,C,69.bmp,120,-120,218376,212351,220394,214360,549292.0,543265.0,551310.0,545276.0,32
4,0,0,0,1,14,test,1,0,z,Fri May 02 2025 12:00:46 GMT-0400 (Eastern Daylight Time),566017.6999998093,I,m,1811,33,3,81.bmp,-120,-120,82.bmp,120,-120,83.bmp,-120,120,84.bmp,120,120,9858.5,556159.1999998093,9002,yes,SM,C,84.bmp,120,120,218376,212351,220394,214360,558825.0,552800.0,560843.0,554810.0,33
2,0,1,0,0,15,test,1,1,z,Fri May 02 2025 12:00:46 GMT-0400 (Eastern Daylight Time),575850.8999996185,I,z,1767,34,3,73.bmp,-120,-120,74.bmp,120,-120,75.bmp,-120,120,76.bmp,120,120,9825.60000038147,566025.2999992371,9002,yes,SM,C,74.bmp,120,-120,218376,212351,220394,214360,568692.0,562667.0,570710.0,564676.0,34
4,0,0,0,1,15,test,1,0,m,Fri May 02 2025 12:00:46 GMT-0400 (Eastern Daylight Time),585917.7999992371,I,None,2016,35,3,77.bmp,-120,-120,78.bmp,120,-120,79.bmp,-120,120,80.bmp,120,120,10057.199999809265,575860.5999994278,9002,yes,SM,C,79.bmp,120,120,218376,212351,220394,214360,578526.0,572502.0,580543.0,574510.0,35
3,0,0,1,0,15,test,1,0,m,Fri May 02 2025 12:00:46 GMT-0400 (Eastern Daylight Time),595367.6999998093,I,z,1388,36,3,85.bmp,-120,-120,86.bmp,120,-120,87.bmp,-120,120,88.bmp,120,120,9443.699999809265,585924.0,9002,yes,SM,C,85.bmp,-120,120,218376,212351,220394,214360,588592.0,582565.0,590610.0,584577.0,36
1,1,0,0,0,16,test,1,1,m,Fri May 02 2025 12:00:46 GMT-0400 (Eastern Daylight Time),604584.3999996185,I,m,1155,37,3,89.bmp,-120,-120,90.bmp,120,-120,91.bmp,-120,120,92.bmp,120,120,9209.89999961853,595374.5,9002,yes,SM,C,90.bmp,-120,-120,218376,212351,220394,214360,598042.0,592016.0,600058.0,594026.0,37
2,0,1,0,0,17,test,1,1,m,Fri May 02 2025 12:00:46 GMT-0400 (Eastern Daylight Time),614051.0,I,m,1409,38,3,93.bmp,-120,-120,94.bmp,120,-120,95.bmp,-120,120,96.bmp,120,120,9458.900000572205,604592.0999994278,9002,yes,SM,C,95.bmp,120,-120,218376,212351,220394,214360,607259.0,601233.0,609277.0,603243.0,38
4,0,0,0,1,18,test,1,1,z,Fri May 02 2025 12:00:46 GMT-0400 (Eastern Daylight Time),623717.5,I,z,1607,39,3,97.bmp,-120,-120,98.bmp,120,-120,99.bmp,-120,120,100.bmp,120,120,9657.20000076294,614060.2999992371,9002,yes,SM,C,100.bmp,120,120,218376,212351,220394,214360,616725.0,610702.0,618743.0,612709.0,39
3,0,0,1,0,19,test,1,1,m,Fri May 02 2025 12:00:46 GMT-0400 (Eastern Daylight Time),632917.6999998093,I,m,1139,40,3,54.bmp,-120,-120,55.bmp,120,-120,56.bmp,-120,120,57.bmp,120,120,9193.10000038147,623724.5999994278,9002,yes,SM,C,55.bmp,-120,120,218376,212351,220394,214360,626392.0,620366.0,628410.0,622376.0,40
1,1,0,0,0,20,test,1,1,z,Fri May 02 2025 12:00:46 GMT-0400 (Eastern Daylight Time),642733.7999992371,I,z,1763,41,3,58.bmp,-120,-120,59.bmp,120,-120,60.bmp,-120,120,61.bmp,120,120,9808.599999427795,632925.1999998093,9002,yes,SM,C,58.bmp,-120,-120,218376,212351,220394,214360,635592.0,629566.0,637610.0,631576.0,41
4,0,0,0,1,21,test,1,1,z,Fri May 02 2025 12:00:46 GMT-0400 (Eastern Daylight Time),652451.0999994278,I,z,1660,42,3,62.bmp,-120,-120,63.bmp,120,-120,64.bmp,-120,120,65.bmp,120,120,9713.39999961853,642737.6999998093,9002,yes,SM,C,65.bmp,120,120,218376,212351,220394,214360,645409.0,639379.0,647426.0,641393.0,42
1,1,0,0,0,22,test,1,1,z,Fri May 02 2025 12:00:46 GMT-0400 (Eastern Daylight Time),661634.2999992371,I,z,1127,43,3,66.bmp,-120,-120,67.bmp,120,-120,68.bmp,-120,120,69.bmp,120,120,9172.699999809265,652461.5999994278,9002,yes,SM,C,66.bmp,-120,-120,218376,212351,220394,214360,655125.0,649103.0,657143.0,651109.0,43
4,0,0,0,1,23,test,1,1,m,Fri May 02 2025 12:00:46 GMT-0400 (Eastern Daylight Time),671017.3999996185,I,m,1319,44,3,54.bmp,-120,-120,51.bmp,120,-120,52.bmp,-120,120,53.bmp,120,120,9375.60000038147,661641.7999992371,9002,yes,SM,C,54.bmp,120,120,218376,212351,220394,214360,664309.0,658283.0,666326.0,660293.0,44
1,1,0,0,0,24,test,1,1,m,Fri May 02 2025 12:00:46 GMT-0400 (Eastern Daylight Time),680284.1999998093,I,m,1200,45,3,78.bmp,-120,-120,79.bmp,120,-120,80.bmp,-120,120,81.bmp,120,120,9259.699999809265,671024.5,9002,yes,SM,C,81.bmp,-120,-120,218376,212351,220394,214360,673692.0,667666.0,675710.0,669676.0,45
1,1,0,0,0,25,test,1,1,m,Fri May 02 2025 12:00:46 GMT-0400 (Eastern Daylight Time),689834.2999992371,I,m,1485,46,3,70.bmp,-120,-120,71.bmp,120,-120,72.bmp,-120,120,73.bmp,120,120,9541.29999923706,680293.0,9002,yes,SM,C,71.bmp,-120,-120,218376,212351,220394,214360,682959.0,676934.0,684976.0,678943.0,46
3,0,0,1,0,26,test,1,1,z,Fri May 02 2025 12:00:46 GMT-0400 (Eastern Daylight Time),699667.5,I,z,1776,47,3,74.bmp,-120,-120,75.bmp,120,-120,76.bmp,-120,120,77.bmp,120,120,9824.0,689843.5,9002,yes,SM,C,76.bmp,-120,120,218376,212351,220394,214360,692509.0,686485.0,694526.0,688493.0,47
3,0,0,1,0,27,test,1,1,z,Fri May 02 2025 12:00:46 GMT-0400 (Eastern Daylight Time),709434.2999992371,I,z,1701,48,3,90.bmp,-120,-120,91.bmp,120,-120,92.bmp,-120,120,93.bmp,120,120,9759.5,699674.7999992371,9002,yes,SM,C,92.bmp,-120,120,218376,212351,220394,214360,702342.0,696316.0,704359.0,698326.0,48
2,0,1,0,0,27,test,1,0,z,Fri May 02 2025 12:00:46 GMT-0400 (Eastern Daylight Time),719500.8999996185,I,None,2016,49,3,86.bmp,-120,-120,87.bmp,120,-120,88.bmp,-120,120,89.bmp,120,120,10059.0,709441.8999996185,9002,yes,SM,C,87.bmp,120,-120,218376,212351,220394,214360,712109.0,706083.0,714126.0,708093.0,49
3,0,0,1,0,28,test,1,1,m,Fri May 02 2025 12:00:46 GMT-0400 (Eastern Daylight Time),729517.0999994278,I,m,1964,50,3,82.bmp,-120,-120,83.bmp,120,-120,84.bmp,-120,120,85.bmp,120,120,10009.800000190735,719507.2999992371,9002,yes,SM,C,82.bmp,-120,120,218376,212351,220394,214360,722175.0,716149.0,724193.0,718159.0,50
2,0,1,0,0,29,test,1,1,z,Fri May 02 2025 12:00:46 GMT-0400 (Eastern Daylight Time),738750.7999992371,I,z,1180,51,3,94.bmp,-120,-120,95.bmp,120,-120,96.bmp,-120,120,97.bmp,120,120,9225.79999923706,729525.0,9002,yes,SM,C,95.bmp,120,-120,218376,212351,220394,214360,732192.0,726166.0,734210.0,728176.0,51
4,0,0,0,1,30,test,1,1,m,Fri May 02 2025 12:00:46 GMT-0400 (Eastern Daylight Time),748217.3999996185,I,m,1402,52,3,98.bmp,-120,-120,99.bmp,120,-120,100.bmp,-120,120,81.bmp,120,120,9459.10000038147,738758.2999992371,9002,yes,SM,C,98.bmp,120,120,218376,212351,220394,214360,741425.0,735400.0,743443.0,737409.0,52
3,0,0,1,0,31,test,1,1,z,Fri May 02 2025 12:00:46 GMT-0400 (Eastern Daylight Time),758017.5,I,z,1744,53,3,51.bmp,-120,-120,52.bmp,120,-120,53.bmp,-120,120,54.bmp,120,120,9793.20000076294,748224.2999992371,9002,yes,SM,C,53.bmp,-120,120,218376,212351,220394,214360,750892.0,744866.0,752910.0,746876.0,53
1,1,0,0,0,31,test,1,0,m,Fri May 02 2025 12:00:46 GMT-0400 (Eastern Daylight Time),768084.2999992371,I,None,2016,54,3,55.bmp,-120,-120,56.bmp,120,-120,57.bmp,-120,120,58.bmp,120,120,10057.699999809265,758026.5999994278,9002,yes,SM,C,57.bmp,-120,-120,218376,212351,220394,214360,760692.0,754668.0,762709.0,756676.0,54
4,0,0,0,1,32,test,1,1,z,Fri May 02 2025 12:00:46 GMT-0400 (Eastern Daylight Time),777700.6999998093,I,z,1557,55,3,59.bmp,-120,-120,60.bmp,120,-120,61.bmp,-120,120,62.bmp,120,120,9609.699999809265,768091.0,9002,yes,SM,C,62.bmp,120,120,218376,212351,220394,214360,770759.0,764732.0,772776.0,766743.0,55
2,0,1,0,0,33,test,1,1,m,Fri May 02 2025 12:00:46 GMT-0400 (Eastern Daylight Time),787133.8999996185,I,m,1381,56,3,63.bmp,-120,-120,64.bmp,120,-120,65.bmp,-120,120,66.bmp,120,120,9426.300000190735,777707.5999994278,9002,yes,SM,C,63.bmp,120,-120,218376,212351,220394,214360,780376.0,774349.0,782393.0,776359.0,56
4,0,0,0,1,33,test,1,0,m,Fri May 02 2025 12:00:46 GMT-0400 (Eastern Daylight Time),797200.5999994278,I,None,2015,57,3,67.bmp,-120,-120,68.bmp,120,-120,69.bmp,-120,120,70.bmp,120,120,10059.0,787141.5999994278,9002,yes,SM,C,68.bmp,120,120,218376,212351,220394,214360,789809.0,783783.0,791827.0,785793.0,57
3,0,0,1,0,34,test,1,1,z,Fri May 02 2025 12:00:46 GMT-0400 (Eastern Daylight Time),806467.5,I,z,1208,58,3,71.bmp,-120,-120,72.bmp,120,-120,73.bmp,-120,120,74.bmp,120,120,9259.800000190735,797207.6999998093,9002,yes,SM,C,73.bmp,-120,120,218376,212351,220394,214360,799875.0,793849.0,801893.0,795859.0,58
2,0,1,0,0,35,test,1,1,m,Fri May 02 2025 12:00:46 GMT-0400 (Eastern Daylight Time),816034.0,I,m,1511,59,3,75.bmp,-120,-120,76.bmp,120,-120,77.bmp,-120,120,78.bmp,120,120,9556.800000190735,806477.1999998093,9002,yes,SM,C,78.bmp,120,-120,218376,212351,220394,214360,809142.0,803119.0,811159.0,805126.0,59
1,1,0,0,0,36,test,1,1,z,Fri May 02 2025 12:00:46 GMT-0400 (Eastern Daylight Time),825867.2999992371,I,z,1767,60,3,79.bmp,-120,-120,80.bmp,120,-120,81.bmp,-120,120,82.bmp,120,120,9825.89999961853,816041.3999996185,9002,yes,SM,C,79.bmp,-120,-120,218376,212351,220394,214360,818709.0,812683.0,820726.0,814692.0,60
2,0,1,0,0,37,test,1,1,z,Fri May 02 2025 12:00:46 GMT-0400 (Eastern Daylight Time),835667.3999996185,I,z,1743,61,3,83.bmp,-120,-120,84.bmp,120,-120,85.bmp,-120,120,86.bmp,120,120,9793.199999809265,825874.1999998093,9002,yes,SM,C,84.bmp,120,-120,218376,212351,220394,214360,828542.0,822515.0,830559.0,824526.0,61
4,0,0,0,1,37,test,1,0,z,Fri May 02 2025 12:00:46 GMT-0400 (Eastern Daylight Time),845733.8999996185,I,None,2016,62,3,91.bmp,-120,-120,92.bmp,120,-120,93.bmp,-120,120,94.bmp,120,120,10059.10000038147,835674.7999992371,9002,yes,SM,C,94.bmp,120,120,218376,212351,220394,214360,838342.0,832316.0,840359.0,834326.0,62
1,1,0,0,0,38,test,1,1,m,Fri May 02 2025 12:00:46 GMT-0400 (Eastern Daylight Time),855133.8999996185,I,m,1347,63,3,95.bmp,-120,-120,96.bmp,120,-120,97.bmp,-120,120,98.bmp,120,120,9391.0,845742.8999996185,9002,yes,SM,C,95.bmp,-120,120,218376,212351,220394,214360,848409.0,842384.0,850426.0,844393.0,63
2,0,1,0,0,38,test,1,0,z,Fri May 02 2025 12:00:46 GMT-0400 (Eastern Daylight Time),865101.0999994278,I,m,1916,64,3,99.bmp,-120,-120,100.bmp,120,-120,62.bmp,-120,120,51.bmp,120,120,9958.5,855142.5999994278,9002,yes,SM,C,100.bmp,120,-120,218376,212351,220394,214360,857808.0,851784.0,859826.0,853793.0,64
4,0,0,0,1,39,test,1,1,m,Fri May 02 2025 12:00:46 GMT-0400 (Eastern Daylight Time),875016.8999996185,I,m,1851,65,3,52.bmp,-120,-120,53.bmp,120,-120,54.bmp,-120,120,55.bmp,120,120,9907.199999809265,865109.6999998093,9002,yes,SM,C,54.bmp,120,120,218376,212351,220394,214360,867775.0,861751.0,869793.0,863759.0,65
3,0,0,1,0,40,test,1,1,m,Fri May 02 2025 12:00:46 GMT-0400 (Eastern Daylight Time),884134.0999994278,I,m,1056,66,3,56.bmp,-120,-120,57.bmp,120,-120,58.bmp,-120,120,59.bmp,120,120,9113.599999427795,875020.5,9002,yes,SM,C,59.bmp,-120,120,218376,212351,220394,214360,877692.0,871662.0,879710.0,873676.0,66
2,0,1,0,0,41,test,1,1,m,Fri May 02 2025 12:00:46 GMT-0400 (Eastern Daylight Time),893500.6999998093,I,m,1299,67,3,87.bmp,-120,-120,88.bmp,120,-120,89.bmp,-120,120,90.bmp,120,120,9357.400000572205,884143.2999992371,9002,yes,SM,C,89.bmp,120,-120,218376,212351,220394,214360,886809.0,880785.0,888826.0,882792.0,67
3,0,0,1,0,42,test,1,1,z,Fri May 02 2025 12:00:46 GMT-0400 (Eastern Daylight Time),903483.7999992371,I,z,1916,68,3,60.bmp,-120,-120,61.bmp,120,-120,62.bmp,-120,120,63.bmp,120,120,9975.89999961853,893507.8999996185,9002,yes,SM,C,62.bmp,-120,120,218376,212351,220394,214360,896175.0,890149.0,898193.0,892159.0,68
1,1,0,0,0,43,test,1,1,m,Fri May 02 2025 12:00:46 GMT-0400 (Eastern Daylight Time),912900.5,I,m,1357,69,3,64.bmp,-120,-120,65.bmp,120,-120,66.bmp,-120,120,67.bmp,120,120,9408.800000190735,903491.6999998093,9002,yes,SM,C,65.bmp,-120,-120,218376,212351,220394,214360,906158.0,900133.0,908176.0,902142.0,69
2,0,1,0,0,44,test,1,1,m,Fri May 02 2025 12:00:46 GMT-0400 (Eastern Daylight Time),922184.0,I,m,1221,70,3,68.bmp,-120,-120,69.bmp,120,-120,70.bmp,-120,120,71.bmp,120,120,9276.5,912907.5,9002,yes,SM,C,70.bmp,120,-120,218376,212351,220394,214360,915575.0,909549.0,917593.0,911559.0,70
4,0,0,0,1,45,test,1,1,z,Fri May 02 2025 12:00:46 GMT-0400 (Eastern Daylight Time),932200.6999998093,I,z,1953,71,3,72.bmp,-120,-120,73.bmp,120,-120,74.bmp,-120,120,75.bmp,120,120,10007.60000038147,922193.0999994278,9002,yes,SM,C,75.bmp,120,120,218376,212351,220394,214360,924858.0,918834.0,926876.0,920842.0,71
1,1,0,0,0,46,test,1,1,z,Fri May 02 2025 12:00:46 GMT-0400 (Eastern Daylight Time),941883.6999998093,I,z,1617,72,3,76.bmp,-120,-120,77.bmp,120,-120,78.bmp,-120,120,79.bmp,120,120,9674.0,932209.6999998093,9002,yes,SM,C,76.bmp,-120,-120,218376,212351,220394,214360,934875.0,928851.0,936892.0,930858.0,72
2,0,1,0,0,46,test,1,0,z,Fri May 02 2025 12:00:46 GMT-0400 (Eastern Daylight Time),951950.5999994278,I,None,2015,73,3,80.bmp,-120,-120,81.bmp,120,-120,82.bmp,-120,120,83.bmp,120,120,10059.0,941891.5999994278,9002,yes,SM,C,81.bmp,120,-120,218376,212351,220394,214360,944558.0,938533.0,946576.0,940542.0,73
4,0,0,0,1,47,test,1,1,m,Fri May 02 2025 12:00:46 GMT-0400 (Eastern Daylight Time),961350.5,I,m,1338,74,3,84.bmp,-120,-120,85.bmp,120,-120,86.bmp,-120,120,87.bmp,120,120,9393.400000572205,951957.0999994278,9002,yes,SM,C,86.bmp,120,120,218376,212351,220394,214360,954625.0,948598.0,956643.0,950609.0,74
2,0,1,0,0,47,test,1,0,m,Fri May 02 2025 12:00:46 GMT-0400 (Eastern Daylight Time),971183.7999992371,I,z,1779,75,3,88.bmp,-120,-120,89.bmp,120,-120,90.bmp,-120,120,91.bmp,120,120,9825.699999809265,961358.0999994278,9002,yes,SM,C,91.bmp,120,-120,218376,212351,220394,214360,964025.0,957999.0,966042.0,960009.0,75
1,1,0,0,0,48,test,1,1,z,Fri May 02 2025 12:00:46 GMT-0400 (Eastern Daylight Time),981033.7999992371,I,z,1785,76,3,92.bmp,-120,-120,93.bmp,120,-120,94.bmp,-120,120,95.bmp,120,120,9841.0,971192.7999992371,9002,yes,SM,C,92.bmp,-120,-120,218376,212351,220394,214360,973858.0,967834.0,975876.0,969842.0,76
3,0,0,1,0,48,test,1,0,z,Fri May 02 2025 12:00:46 GMT-0400 (Eastern Daylight Time),990383.7999992371,I,m,1295,77,3,100.bmp,-120,-120,61.bmp,120,-120,51.bmp,-120,120,52.bmp,120,120,9342.29999923706,981041.5,9002,yes,SM,C,51.bmp,-120,120,218376,212351,220394,214360,983708.0,977683.0,985726.0,979692.0,77
1,1,0,0,0,49,test,1,1,m,Fri May 02 2025 12:00:46 GMT-0400 (Eastern Daylight Time),999933.6999998093,I,m,1497,78,3,96.bmp,-120,-120,97.bmp,120,-120,98.bmp,-120,120,99.bmp,120,120,9540.300000190735,990393.3999996185,9002,yes,SM,C,97.bmp,-120,-120,218376,212351,220394,214360,993058.0,987035.0,995076.0,989042.0,78
4,0,0,0,1,50,test,1,1,m,Fri May 02 2025 12:00:46 GMT-0400 (Eastern Daylight Time),1009383.7999992371,I,m,1387,79,3,57.bmp,-120,-120,58.bmp,120,-120,59.bmp,-120,120,60.bmp,120,120,9437.79999923706,999946.0,9002,yes,SM,C,57.bmp,120,120,218376,212351,220394,214360,1002608.0,996587.0,1004626.0,998592.0,79
3,0,0,1,0,51,test,1,1,m,Fri May 02 2025 12:00:46 GMT-0400 (Eastern Daylight Time),1018400.3999996185,I,m,961,80,3,53.bmp,-120,-120,54.bmp,120,-120,55.bmp,-120,120,56.bmp,120,120,9008.800000190735,1009391.5999994278,9002,yes,SM,C,56.bmp,-120,120,218376,212351,220394,214360,1012058.0,1006033.0,1014076.0,1008042.0,80
