acc_sum,block,block_c,condition,correct,correct_response,datetime,endtime,flanker,jitter,project,response,response_test_buffer_response,response_test_target_response,response_time,response_time_test_buffer_response,response_time_test_target_response,row_sel,session_number,start_end,starttime,subject_id,target,task,task_vers,time_test_buffer,time_test_buffer_response,time_test_constants,time_test_flanker,time_test_jitter,time_test_logger,time_test_target,time_test_target_response,time_test_variables,trial
0,prac,1,inc,0,m,Wed Nov 13 2024 10:06:12 GMT-0500 (Eastern Standard Time),142786.7999997139,kind,900,I,None,,,1815,,,2,1,4977.099999904633,137809.69999980927,9005,rock,AF,A,,,,,,,,,,1
1,prac,1,inc,1,m,Wed Nov 13 2024 10:06:12 GMT-0500 (Eastern Standard Time),146120.0,brutal,1100,I,m,,,925,,,8,1,3321.0999999046326,142798.90000009537,9005,window,AF,A,,,,,,,,,,2
2,prac,1,con,1,m,Wed Nov 13 2024 10:06:12 GMT-0500 (Eastern Standard Time),148869.90000009537,step,800,I,m,,,645,,,1,1,2740.1000003814697,146129.7999997139,9005,step,AF,A,,,,,,,,,,3
3,prac,1,con,1,z,Wed Nov 13 2024 10:06:12 GMT-0500 (Eastern Standard Time),151503.2999997139,elated,800,I,z,,,518,,,9,1,2623.3999996185303,148879.90000009537,9005,elated,AF,A,,,,,,,,,,4
4,prac,1,inc,1,z,Wed Nov 13 2024 10:06:12 GMT-0500 (Eastern Standard Time),154369.2999997139,rock,900,I,z,,,649,,,10,1,2856.5,151512.7999997139,9005,kind,AF,A,,,,,,,,,,5
4,prac,1,inc,0,z,Wed Nov 13 2024 10:06:12 GMT-0500 (Eastern Standard Time),157286.59999990463,window,1100,I,m,,,510,,,16,1,2909.800000190735,154376.7999997139,9005,temper,AF,A,,,,,,,,,,6
5,prac,1,inc,1,m,Wed Nov 13 2024 10:06:12 GMT-0500 (Eastern Standard Time),160320.0,hate,1100,I,m,,,617,,,4,1,3023.2000002861023,157296.7999997139,9005,film,AF,A,,,,,,,,,,7
6,prac,1,con,1,z,Wed Nov 13 2024 10:06:12 GMT-0500 (Eastern Standard Time),163036.69999980927,love,1000,I,z,,,404,,,11,1,2707.199999809265,160329.5,9005,love,AF,A,,,,,,,,,,8
7,prac,1,inc,1,z,Wed Nov 13 2024 10:06:12 GMT-0500 (Eastern Standard Time),165920.0,film,900,I,z,,,668,,,14,1,2874.5999999046326,163045.40000009537,9005,hate,AF,A,,,,,,,,,,9
8,prac,1,con,1,m,Wed Nov 13 2024 10:06:12 GMT-0500 (Eastern Standard Time),168702.7999997139,jacket,800,I,m,,,669,,,5,1,2771.5999999046326,165931.19999980927,9005,jacket,AF,A,,,,,,,,,,10
9,prac,1,con,1,m,Wed Nov 13 2024 10:06:12 GMT-0500 (Eastern Standard Time),171486.69999980927,remote,1000,I,m,,,469,,,7,1,2777.199999809265,168709.5,9005,remote,AF,A,,,,,,,,,,11
10,prac,1,inc,1,m,Wed Nov 13 2024 10:06:12 GMT-0500 (Eastern Standard Time),174319.90000009537,elated,900,I,m,,,617,,,6,1,2824.300000190735,171495.59999990463,9005,napkin,AF,A,,,,,,,,,,12
11,prac,1,con,1,m,Wed Nov 13 2024 10:06:12 GMT-0500 (Eastern Standard Time),177586.2999997139,bell,1000,I,m,,,965,,,3,1,3257.5999999046326,174328.69999980927,9005,bell,AF,A,,,,,,,,,,13
12,prac,1,con,1,z,Wed Nov 13 2024 10:06:12 GMT-0500 (Eastern Standard Time),180370.09999990463,brutal,800,I,z,,,666,,,13,1,2776.4000000953674,177593.69999980927,9005,brutal,AF,A,,,,,,,,,,14
13,prac,1,con,1,z,Wed Nov 13 2024 10:06:12 GMT-0500 (Eastern Standard Time),183170.0,rage,1000,I,z,,,482,,,15,1,2790.300000190735,180379.69999980927,9005,rage,AF,A,,,,,,,,,,15
14,prac,1,inc,1,z,Wed Nov 13 2024 10:06:12 GMT-0500 (Eastern Standard Time),186303.2999997139,napkin,1100,I,z,,,718,,,12,1,3124.0999999046326,183179.19999980927,9005,friend,AF,A,,,,,,,,,,16
1,test,1,con,1,m,Wed Nov 13 2024 10:06:12 GMT-0500 (Eastern Standard Time),204019.5,film,1000,I,m,m,None,698,498.0,200.0,91,1,2224.0,201795.5,9005,film,AF,A,196588,196588,194863,195872,194864,197088,196388,196388,197087,1
2,test,1,con,1,z,Wed Nov 13 2024 10:06:12 GMT-0500 (Eastern Standard Time),206052.7999997139,brutal,1100,I,z,z,None,395,196.0,199.0,36,1,2024.0,204028.7999997139,9005,brutal,AF,A,198922,198922,197097,198205,197097,199121,198722,198722,199121,2
3,test,1,con,1,m,Wed Nov 13 2024 10:06:12 GMT-0500 (Eastern Standard Time),207870.0,jacket,800,I,m,m,None,471,272.0,199.0,97,1,1810.3000001907349,206059.69999980927,9005,jacket,AF,A,200655,200655,199128,199939,199128,200938,200455,200455,200938,3
4,test,1,inc,1,m,Wed Nov 13 2024 10:06:12 GMT-0500 (Eastern Standard Time),210202.90000009537,hate,1100,I,m,m,None,690,491.0,199.0,88,1,2323.800000190735,207879.09999990463,9005,bell,AF,A,202771,202771,200947,202055,200948,203271,202572,202572,203271,4
5,test,1,inc,1,m,Wed Nov 13 2024 10:06:12 GMT-0500 (Eastern Standard Time),212136.69999980927,elated,800,I,m,m,None,593,393.0,200.0,117,1,1926.1999998092651,210210.5,9005,remote,AF,A,204806,204806,203279,204088,203279,205205,204605,204605,205205,5
6,test,1,inc,1,m,Wed Nov 13 2024 10:06:12 GMT-0500 (Eastern Standard Time),214203.19999980927,kind,900,I,m,m,None,624,425.0,199.0,86,1,2058.0,212145.19999980927,9005,bell,AF,A,206838,206838,205213,206122,205214,207271,206639,206639,207271,6
7,test,1,inc,1,z,Wed Nov 13 2024 10:06:12 GMT-0500 (Eastern Standard Time),216269.90000009537,napkin,900,I,z,z,None,621,422.0,199.0,38,1,2057.0,214212.90000009537,9005,brutal,AF,A,208905,208905,207281,208188,207281,209338,208705,208705,209338,7
8,test,1,inc,1,m,Wed Nov 13 2024 10:06:12 GMT-0500 (Eastern Standard Time),218503.19999980927,temper,1000,I,m,m,None,694,495.0,199.0,119,1,2225.199999809265,216278.0,9005,remote,AF,A,211072,211072,209346,210355,209346,211571,210872,210872,211571,8
8,test,1,con,0,m,Wed Nov 13 2024 10:06:12 GMT-0500 (Eastern Standard Time),220569.90000009537,step,800,I,z,z,None,725,526.0,199.0,65,1,2058.4000000953674,218511.5,9005,step,AF,A,213105,213105,211580,212388,211580,213638,212905,212905,213638,9
9,test,1,inc,1,m,Wed Nov 13 2024 10:06:12 GMT-0500 (Eastern Standard Time),222619.7999997139,rage,800,I,m,m,None,707,508.0,199.0,69,1,2040.5999999046326,220579.19999980927,9005,step,AF,A,215171,215171,213647,214455,213648,215688,214972,214972,215688,10
10,test,1,con,1,m,Wed Nov 13 2024 10:06:12 GMT-0500 (Eastern Standard Time),224669.7999997139,film,800,I,m,m,None,687,488.0,199.0,89,1,2034.6999998092651,222635.09999990463,9005,film,AF,A,217238,217238,215703,216522,215704,217738,217039,217039,217738,11
11,test,1,inc,1,z,Wed Nov 13 2024 10:06:12 GMT-0500 (Eastern Standard Time),226753.0,rock,900,I,z,z,None,633,434.0,199.0,14,1,2074.5999999046326,224678.40000009537,9005,kind,AF,A,219372,219372,217746,218655,217747,219821,219172,219172,219821,12
12,test,1,inc,1,m,Wed Nov 13 2024 10:06:12 GMT-0500 (Eastern Standard Time),228802.59999990463,brutal,900,I,m,m,None,615,415.0,200.0,102,1,2037.8000001907349,226764.7999997139,9005,jacket,AF,A,221455,221455,219833,220738,219833,221871,221255,221255,221871,13
13,test,1,con,1,m,Wed Nov 13 2024 10:06:12 GMT-0500 (Eastern Standard Time),230986.5,remote,1000,I,m,m,None,641,442.0,199.0,115,1,2176.7000002861023,228809.7999997139,9005,remote,AF,A,223605,223605,221878,222888,221878,224055,223404,223405,224054,14
14,test,1,con,1,z,Wed Nov 13 2024 10:06:12 GMT-0500 (Eastern Standard Time),232720.0,love,800,I,z,z,None,387,187.0,200.0,17,1,1724.0999999046326,230995.90000009537,9005,love,AF,A,225588,225588,224064,224872,224064,225788,225388,225388,225788,15
15,test,1,inc,1,z,Wed Nov 13 2024 10:06:12 GMT-0500 (Eastern Standard Time),235035.7999997139,window,1100,I,z,z,None,671,472.0,199.0,40,1,2306.699999809265,232729.09999990463,9005,brutal,AF,A,227622,227622,225797,226905,225797,228104,227422,227422,228104,16
16,test,1,inc,1,z,Wed Nov 13 2024 10:06:12 GMT-0500 (Eastern Standard Time),237286.59999990463,remote,1000,I,z,z,None,712,512.0,200.0,31,1,2243.5,235043.09999990463,9005,friend,AF,A,229839,229839,228111,229121,228112,230355,229638,229638,230355,17
17,test,1,inc,1,z,Wed Nov 13 2024 10:06:12 GMT-0500 (Eastern Standard Time),239553.19999980927,bell,1000,I,z,z,None,717,518.0,199.0,55,1,2257.0999999046326,237296.09999990463,9005,rage,AF,A,232088,232089,230364,231372,230364,232621,231889,231889,232621,18
18,test,1,con,1,m,Wed Nov 13 2024 10:06:12 GMT-0500 (Eastern Standard Time),241936.59999990463,step,1100,I,m,m,None,736,536.0,200.0,68,1,2373.699999809265,239562.90000009537,9005,step,AF,A,234455,234455,232631,233738,232631,235005,234254,234254,235005,19
19,test,1,inc,1,z,Wed Nov 13 2024 10:06:12 GMT-0500 (Eastern Standard Time),244219.7999997139,window,1100,I,z,z,None,641,441.0,200.0,32,1,2274.0,241945.7999997139,9005,friend,AF,A,236838,236838,235014,236122,235014,237288,236638,236638,237288,20
20,test,1,inc,1,z,Wed Nov 13 2024 10:06:12 GMT-0500 (Eastern Standard Time),246386.09999990463,napkin,900,I,z,z,None,716,517.0,199.0,6,1,2156.300000190735,244229.7999997139,9005,elated,AF,A,238921,238921,237298,238205,237298,239454,238722,238722,239454,21
21,test,1,con,1,m,Wed Nov 13 2024 10:06:12 GMT-0500 (Eastern Standard Time),248402.90000009537,bell,800,I,m,m,None,665,450.0,215.0,81,1,2006.0,246396.90000009537,9005,bell,AF,A,241005,241005,239465,240272,239465,241471,240789,240789,241471,22
22,test,1,inc,1,z,Wed Nov 13 2024 10:06:12 GMT-0500 (Eastern Standard Time),250820.0,bell,1000,I,z,z,None,865,666.0,199.0,15,1,2410.9000000953674,248409.09999990463,9005,kind,AF,A,243205,243205,241477,242488,241477,243888,243005,243005,243888,23
23,test,1,con,1,z,Wed Nov 13 2024 10:06:12 GMT-0500 (Eastern Standard Time),253069.59999990463,friend,900,I,z,z,None,803,604.0,199.0,26,1,2240.300000190735,250829.2999997139,9005,friend,AF,A,245522,245522,243897,244805,243898,246138,245322,245322,246138,24
24,test,1,inc,1,z,Wed Nov 13 2024 10:06:12 GMT-0500 (Eastern Standard Time),255203.40000009537,rock,900,I,z,z,None,682,483.0,199.0,54,1,2127.9000000953674,253075.5,9005,rage,AF,A,247772,247772,246144,247055,246144,248271,247572,247572,248271,25
25,test,1,con,1,z,Wed Nov 13 2024 10:06:12 GMT-0500 (Eastern Standard Time),257270.0,rage,900,I,z,z,None,630,430.0,200.0,50,1,2057.5,255212.5,9005,rage,AF,A,249905,249905,248280,249188,248281,250338,249705,249705,250338,26
26,test,1,con,1,m,Wed Nov 13 2024 10:06:12 GMT-0500 (Eastern Standard Time),259436.69999980927,window,800,I,m,m,None,822,623.0,199.0,121,1,2152.5,257284.19999980927,9005,window,AF,A,251872,251872,250352,251155,250353,252505,251672,251672,252505,27
27,test,1,inc,1,m,Wed Nov 13 2024 10:06:12 GMT-0500 (Eastern Standard Time),261803.2999997139,friend,1100,I,m,m,None,724,525.0,199.0,120,1,2357.5999999046326,259445.69999980927,9005,remote,AF,A,254339,254339,252514,253622,252514,254871,254139,254139,254871,28
28,test,1,con,1,m,Wed Nov 13 2024 10:06:12 GMT-0500 (Eastern Standard Time),264186.7999997139,step,900,I,m,m,None,941,742.0,199.0,66,1,2374.5999999046326,261812.19999980927,9005,step,AF,A,256505,256505,254880,255788,254881,257255,256305,256305,257255,29
29,test,1,inc,1,z,Wed Nov 13 2024 10:06:12 GMT-0500 (Eastern Standard Time),266203.0,napkin,900,I,z,z,None,575,375.0,200.0,30,1,2007.9000000953674,264195.09999990463,9005,friend,AF,A,258888,258888,257263,258172,257264,259271,258688,258688,259271,30
30,test,1,inc,1,z,Wed Nov 13 2024 10:06:12 GMT-0500 (Eastern Standard Time),268536.19999980927,remote,1000,I,z,z,None,794,594.0,200.0,63,1,2322.7999997138977,266213.40000009537,9005,temper,AF,A,261005,261005,259281,260288,259282,261604,260805,260805,261604,31
31,test,1,inc,1,z,Wed Nov 13 2024 10:06:12 GMT-0500 (Eastern Standard Time),270753.40000009537,remote,1000,I,z,z,None,667,468.0,199.0,39,1,2210.800000190735,268542.59999990463,9005,brutal,AF,A,263338,263339,261611,262622,261611,263822,263138,263139,263821,32
32,test,1,con,1,m,Wed Nov 13 2024 10:06:12 GMT-0500 (Eastern Standard Time),272636.5,remote,800,I,m,m,None,540,340.0,200.0,113,1,1873.5999999046326,270762.90000009537,9005,remote,AF,A,265355,265355,263831,264638,263831,265705,265155,265155,265704,33
33,test,1,inc,1,m,Wed Nov 13 2024 10:06:12 GMT-0500 (Eastern Standard Time),274936.69999980927,temper,1000,I,m,m,None,760,560.0,200.0,111,1,2291.699999809265,272645.0,9005,napkin,AF,A,267438,267439,265713,266722,265713,268005,267238,267238,268005,34
34,test,1,con,1,z,Wed Nov 13 2024 10:06:12 GMT-0500 (Eastern Standard Time),277119.90000009537,kind,1000,I,z,z,None,635,436.0,199.0,11,1,2173.7000002861023,274946.19999980927,9005,kind,AF,A,269738,269739,268014,269022,268015,270188,269539,269539,270188,35
35,test,1,con,1,z,Wed Nov 13 2024 10:06:12 GMT-0500 (Eastern Standard Time),279353.2999997139,kind,1100,I,z,z,None,592,393.0,199.0,12,1,2221.199999809265,277132.09999990463,9005,kind,AF,A,272022,272022,270200,271305,270201,272421,271822,271822,272421,36
36,test,1,con,1,z,Wed Nov 13 2024 10:06:12 GMT-0500 (Eastern Standard Time),281620.09999990463,temper,1000,I,z,z,None,716,516.0,200.0,59,1,2257.4000000953674,279362.69999980927,9005,temper,AF,A,274155,274155,272431,273438,272431,274688,273955,273955,274688,37
37,test,1,inc,1,z,Wed Nov 13 2024 10:06:12 GMT-0500 (Eastern Standard Time),283770.0,film,1100,I,z,z,None,508,309.0,199.0,16,1,2139.9000000953674,281630.09999990463,9005,kind,AF,A,276522,276522,274698,275805,274698,276838,276322,276322,276838,38
38,test,1,inc,1,m,Wed Nov 13 2024 10:06:12 GMT-0500 (Eastern Standard Time),286020.09999990463,friend,1100,I,m,m,None,599,400.0,199.0,112,1,2241.9000000953674,283778.19999980927,9005,napkin,AF,A,278671,278671,276846,277955,276846,279088,278472,278472,279088,39
39,test,1,inc,1,m,Wed Nov 13 2024 10:06:12 GMT-0500 (Eastern Standard Time),288236.5,temper,1000,I,m,m,None,672,473.0,199.0,103,1,2206.800000190735,286029.69999980927,9005,jacket,AF,A,280822,280822,279098,280105,279098,281305,280622,280622,281304,40
40,test,1,inc,1,z,Wed Nov 13 2024 10:06:12 GMT-0500 (Eastern Standard Time),290520.0,film,1100,I,z,z,None,643,444.0,199.0,48,1,2270.300000190735,288249.69999980927,9005,hate,AF,A,283138,283139,281318,282422,281319,283588,282939,282939,283588,41
41,test,1,inc,1,m,Wed Nov 13 2024 10:06:12 GMT-0500 (Eastern Standard Time),292570.0,brutal,900,I,m,m,None,608,409.0,199.0,110,1,2040.8000001907349,290529.19999980927,9005,napkin,AF,A,285222,285222,283597,284505,283598,285638,285022,285022,285638,42
42,test,1,con,1,z,Wed Nov 13 2024 10:06:12 GMT-0500 (Eastern Standard Time),294720.0,rage,1000,I,z,z,None,602,403.0,199.0,51,1,2140.0,292580.0,9005,rage,AF,A,287372,287372,285648,286655,285648,287788,287172,287172,287788,43
43,test,1,con,1,z,Wed Nov 13 2024 10:06:12 GMT-0500 (Eastern Standard Time),296753.40000009537,rage,800,I,z,z,None,684,485.0,199.0,49,1,2023.8000001907349,294729.59999990463,9005,rage,AF,A,289321,289322,287798,288605,287798,289822,289122,289122,289821,44
44,test,1,con,1,m,Wed Nov 13 2024 10:06:12 GMT-0500 (Eastern Standard Time),298886.69999980927,bell,900,I,m,m,None,696,496.0,200.0,82,1,2123.7999997138977,296762.90000009537,9005,bell,AF,A,291455,291455,289831,290738,289831,291955,291255,291255,291955,45
45,test,1,inc,1,m,Wed Nov 13 2024 10:06:12 GMT-0500 (Eastern Standard Time),301136.2999997139,temper,1000,I,m,m,None,701,502.0,199.0,127,1,2240.7999997138977,298895.5,9005,window,AF,A,293688,293688,291964,292972,291964,294204,293488,293489,294204,46
46,test,1,inc,1,m,Wed Nov 13 2024 10:06:12 GMT-0500 (Eastern Standard Time),303202.90000009537,rage,800,I,m,m,None,716,516.0,200.0,77,1,2058.6000003814697,301144.2999997139,9005,rock,AF,A,295738,295738,294212,295022,294213,296271,295538,295538,296271,47
47,test,1,inc,1,z,Wed Nov 13 2024 10:06:12 GMT-0500 (Eastern Standard Time),305419.90000009537,remote,1000,I,z,z,None,676,475.0,201.0,7,1,2210.6000003814697,303209.2999997139,9005,elated,AF,A,298005,298005,296277,297288,296278,298488,297804,297804,298488,48
48,test,1,con,1,m,Wed Nov 13 2024 10:06:12 GMT-0500 (Eastern Standard Time),307536.7999997139,rock,800,I,m,m,None,768,569.0,199.0,73,1,2107.8999996185303,305428.90000009537,9005,rock,AF,A,300022,300022,298497,299305,298497,300605,299822,299822,300605,49
49,test,1,inc,1,z,Wed Nov 13 2024 10:06:12 GMT-0500 (Eastern Standard Time),309519.90000009537,step,800,I,z,z,None,636,436.0,200.0,45,1,1974.1000003814697,307545.7999997139,9005,hate,AF,A,302139,302139,300614,301421,300614,302588,301938,301938,302588,50
50,test,1,con,1,m,Wed Nov 13 2024 10:06:12 GMT-0500 (Eastern Standard Time),311452.90000009537,napkin,800,I,m,m,None,587,388.0,199.0,105,1,1923.9000000953674,309529.0,9005,napkin,AF,A,304122,304122,302597,303405,302597,304521,303922,303922,304521,51
51,test,1,con,1,z,Wed Nov 13 2024 10:06:12 GMT-0500 (Eastern Standard Time),313720.0,elated,1000,I,z,z,None,728,528.0,200.0,3,1,2261.2000002861023,311458.7999997139,9005,elated,AF,A,306255,306255,304527,305538,304527,306788,306054,306054,306788,52
52,test,1,inc,1,z,Wed Nov 13 2024 10:06:12 GMT-0500 (Eastern Standard Time),315653.0,step,800,I,z,z,None,614,414.0,200.0,53,1,1924.8000001907349,313728.19999980927,9005,rage,AF,A,308305,308305,306796,307604,306797,308721,308105,308105,308721,53
53,test,1,con,1,z,Wed Nov 13 2024 10:06:12 GMT-0500 (Eastern Standard Time),317603.40000009537,love,900,I,z,z,None,500,300.0,200.0,18,1,1941.0,315662.40000009537,9005,love,AF,A,310355,310355,308730,309638,308731,310671,310155,310155,310671,54
54,test,1,con,1,z,Wed Nov 13 2024 10:06:12 GMT-0500 (Eastern Standard Time),319769.7999997139,hate,1100,I,z,z,None,525,326.0,199.0,44,1,2157.8999996185303,317611.90000009537,9005,hate,AF,A,312505,312505,310680,311788,310680,312838,312305,312305,312838,55
55,test,1,con,1,z,Wed Nov 13 2024 10:06:12 GMT-0500 (Eastern Standard Time),321853.5,brutal,900,I,z,z,None,638,439.0,199.0,34,1,2072.5999999046326,319780.90000009537,9005,brutal,AF,A,314472,314472,312849,313755,312850,314922,314272,314272,314921,56
56,test,1,inc,1,z,Wed Nov 13 2024 10:06:12 GMT-0500 (Eastern Standard Time),324253.40000009537,window,1100,I,z,z,None,756,556.0,200.0,64,1,2390.9000000953674,321862.5,9005,temper,AF,A,316755,316755,314931,316039,314931,317322,316555,316555,317321,57
57,test,1,inc,1,z,Wed Nov 13 2024 10:06:12 GMT-0500 (Eastern Standard Time),326303.40000009537,jacket,800,I,z,z,None,705,505.0,200.0,37,1,2039.7000002861023,324263.69999980927,9005,brutal,AF,A,318855,318855,317332,318139,317332,319372,318655,318655,319371,58
58,test,1,con,1,z,Wed Nov 13 2024 10:06:12 GMT-0500 (Eastern Standard Time),328286.7999997139,elated,800,I,z,z,None,637,438.0,199.0,1,1,1974.3999996185303,326312.40000009537,9005,elated,AF,A,320905,320905,319380,320188,319381,321355,320705,320705,321355,59
59,test,1,con,1,m,Wed Nov 13 2024 10:06:12 GMT-0500 (Eastern Standard Time),330536.69999980927,film,900,I,m,m,None,809,610.0,199.0,90,1,2241.0999999046326,328295.59999990463,9005,film,AF,A,322989,322989,321364,322272,321364,323605,322789,322789,323605,60
60,test,1,inc,1,m,Wed Nov 13 2024 10:06:12 GMT-0500 (Eastern Standard Time),332520.09999990463,elated,800,I,m,m,None,643,444.0,199.0,101,1,1974.1999998092651,330545.90000009537,9005,jacket,AF,A,325139,325139,323614,324422,323614,325588,324938,324939,325588,61
61,test,1,inc,1,m,Wed Nov 13 2024 10:06:12 GMT-0500 (Eastern Standard Time),334520.09999990463,elated,800,I,m,m,None,660,461.0,199.0,125,1,1989.5,332530.59999990463,9005,window,AF,A,327122,327122,325599,326405,325599,327588,326922,326922,327588,62
62,test,1,inc,1,m,Wed Nov 13 2024 10:06:12 GMT-0500 (Eastern Standard Time),336736.69999980927,brutal,900,I,m,m,None,768,569.0,199.0,118,1,2207.4000000953674,334529.2999997139,9005,remote,AF,A,329222,329222,327597,328505,327598,329805,329022,329022,329805,63
63,test,1,con,1,z,Wed Nov 13 2024 10:06:12 GMT-0500 (Eastern Standard Time),338719.59999990463,hate,900,I,z,z,None,536,337.0,199.0,42,1,1975.0,336744.59999990463,9005,hate,AF,A,331438,331438,329813,330722,329813,331788,331238,331239,331788,64
64,test,1,con,1,z,Wed Nov 13 2024 10:06:12 GMT-0500 (Eastern Standard Time),340903.2999997139,hate,1000,I,z,z,None,660,445.0,215.0,43,1,2169.5999999046326,338733.69999980927,9005,hate,AF,A,333522,333522,331802,332804,331802,333971,333306,333306,333971,65
65,test,1,con,1,z,Wed Nov 13 2024 10:06:12 GMT-0500 (Eastern Standard Time),342820.0,temper,800,I,z,z,None,566,366.0,200.0,57,1,1906.2000002861023,340913.7999997139,9005,temper,AF,A,335505,335505,333982,334788,333982,335888,335305,335305,335888,66
66,test,1,con,1,z,Wed Nov 13 2024 10:06:12 GMT-0500 (Eastern Standard Time),344903.2999997139,temper,1100,I,z,z,None,444,245.0,199.0,60,1,2071.699999809265,342831.59999990463,9005,temper,AF,A,337722,337722,335900,337005,335900,337971,337522,337522,337971,67
67,test,1,inc,1,m,Wed Nov 13 2024 10:06:12 GMT-0500 (Eastern Standard Time),347303.40000009537,hate,1100,I,m,m,None,763,563.0,200.0,96,1,2389.6000003814697,344913.7999997139,9005,film,AF,A,339805,339805,337982,339089,337982,340372,339605,339605,340371,68
68,test,1,con,1,z,Wed Nov 13 2024 10:06:12 GMT-0500 (Eastern Standard Time),349370.09999990463,temper,900,I,z,z,None,626,426.0,200.0,58,1,2057.5999999046326,347312.5,9005,temper,AF,A,342005,342005,340381,341288,340381,342438,341805,341805,342438,69
69,test,1,inc,1,m,Wed Nov 13 2024 10:06:12 GMT-0500 (Eastern Standard Time),351303.09999990463,elated,800,I,m,m,None,594,395.0,199.0,109,1,1922.5,349380.59999990463,9005,napkin,AF,A,343972,343972,342449,343255,342449,344371,343772,343772,344371,70
70,test,1,con,1,m,Wed Nov 13 2024 10:06:12 GMT-0500 (Eastern Standard Time),353620.09999990463,step,1000,I,m,m,None,766,566.0,200.0,67,1,2307.699999809265,351312.40000009537,9005,step,AF,A,346105,346105,344380,345388,344381,346688,345905,345905,346688,71
71,test,1,inc,1,m,Wed Nov 13 2024 10:06:12 GMT-0500 (Eastern Standard Time),355770.09999990463,love,1000,I,m,m,None,609,409.0,200.0,95,1,2141.5999999046326,353628.5,9005,film,AF,A,348422,348422,346697,347705,346697,348838,348221,348221,348838,72
72,test,1,con,1,z,Wed Nov 13 2024 10:06:12 GMT-0500 (Eastern Standard Time),357936.7999997139,brutal,800,I,z,z,None,819,620.0,199.0,33,1,2157.8999996185303,355778.90000009537,9005,brutal,AF,A,350372,350372,348847,349655,348847,351005,350172,350172,351005,73
73,test,1,inc,1,z,Wed Nov 13 2024 10:06:12 GMT-0500 (Eastern Standard Time),360203.5,film,1100,I,z,z,None,624,424.0,200.0,24,1,2257.4000000953674,357946.09999990463,9005,love,AF,A,352839,352839,351014,352121,351014,353272,352638,352638,353272,74
74,test,1,inc,1,z,Wed Nov 13 2024 10:06:12 GMT-0500 (Eastern Standard Time),362286.5,bell,1000,I,z,z,None,538,338.0,200.0,23,1,2074.0,360212.5,9005,love,AF,A,355005,355005,353281,354289,353281,355355,354805,354805,355355,75
75,test,1,inc,1,m,Wed Nov 13 2024 10:06:12 GMT-0500 (Eastern Standard Time),364620.0,love,1000,I,m,m,None,789,590.0,199.0,87,1,2323.7000002861023,362296.2999997139,9005,bell,AF,A,357089,357089,355364,356372,355365,357688,356889,356889,357688,76
76,test,1,con,1,m,Wed Nov 13 2024 10:06:12 GMT-0500 (Eastern Standard Time),366803.0,napkin,1100,I,m,m,None,532,332.0,200.0,108,1,2172.300000190735,364630.69999980927,9005,napkin,AF,A,359522,359522,357699,358804,357699,359871,359321,359321,359871,77
77,test,1,con,1,z,Wed Nov 13 2024 10:06:12 GMT-0500 (Eastern Standard Time),369036.69999980927,friend,1100,I,z,z,None,591,391.0,200.0,28,1,2223.4000000953674,366813.2999997139,9005,friend,AF,A,361705,361705,359881,360989,359882,362105,361505,361505,362105,78
78,test,1,con,1,z,Wed Nov 13 2024 10:06:12 GMT-0500 (Eastern Standard Time),370903.0,kind,900,I,z,z,None,412,212.0,200.0,10,1,1851.3000001907349,369051.69999980927,9005,kind,AF,A,363755,363755,362120,363039,362121,363971,363555,363555,363971,79
79,test,1,inc,1,z,Wed Nov 13 2024 10:06:12 GMT-0500 (Eastern Standard Time),372969.69999980927,napkin,900,I,z,z,None,626,426.0,200.0,62,1,2061.199999809265,370908.5,9005,temper,AF,A,365605,365605,363977,364888,363977,366038,365405,365405,366038,80
80,test,1,inc,1,m,Wed Nov 13 2024 10:06:12 GMT-0500 (Eastern Standard Time),375203.19999980927,love,1000,I,m,m,None,683,483.0,200.0,79,1,2227.699999809265,372975.5,9005,rock,AF,A,367772,367772,366044,367055,366044,368271,367571,367571,368271,81
81,test,1,con,1,m,Wed Nov 13 2024 10:06:12 GMT-0500 (Eastern Standard Time),377320.0,napkin,1000,I,m,m,None,577,377.0,200.0,107,1,2106.5,375213.5,9005,napkin,AF,A,370006,370006,368282,369289,368282,370388,369805,369805,370388,82
82,test,1,inc,1,m,Wed Nov 13 2024 10:06:12 GMT-0500 (Eastern Standard Time),379386.90000009537,rage,800,I,m,m,None,725,526.0,199.0,93,1,2058.6000003814697,377328.2999997139,9005,film,AF,A,371922,371922,370396,371204,370397,372455,371722,371722,372455,83
83,test,1,con,1,z,Wed Nov 13 2024 10:06:12 GMT-0500 (Eastern Standard Time),381419.7999997139,love,1100,I,z,z,None,391,191.0,200.0,20,1,2023.7999997138977,379396.0,9005,love,AF,A,374288,374288,372464,373572,372464,374488,374088,374088,374488,84
84,test,1,con,1,m,Wed Nov 13 2024 10:06:12 GMT-0500 (Eastern Standard Time),383603.5,bell,1000,I,m,m,None,648,449.0,199.0,83,1,2169.0,381434.5,9005,bell,AF,A,376222,376222,374503,375505,374503,376672,376022,376022,376671,85
85,test,1,con,1,z,Wed Nov 13 2024 10:06:12 GMT-0500 (Eastern Standard Time),385619.69999980927,elated,1100,I,z,z,None,382,182.0,200.0,4,1,2008.6999998092651,383611.0,9005,elated,AF,A,378505,378505,376679,377788,376679,378688,378305,378305,378688,86
86,test,1,con,1,m,Wed Nov 13 2024 10:06:12 GMT-0500 (Eastern Standard Time),387836.59999990463,remote,1100,I,m,m,None,573,374.0,199.0,116,1,2207.800000190735,385628.7999997139,9005,remote,AF,A,380521,380521,378697,379805,378697,380905,380322,380322,380905,87
87,test,1,con,1,z,Wed Nov 13 2024 10:06:12 GMT-0500 (Eastern Standard Time),389836.7999997139,kind,800,I,z,z,None,657,457.0,200.0,9,1,1990.5999999046326,387846.19999980927,9005,kind,AF,A,382439,382439,380914,381722,380915,382905,382238,382238,382905,88
88,test,1,con,1,m,Wed Nov 13 2024 10:06:12 GMT-0500 (Eastern Standard Time),392203.19999980927,jacket,1000,I,m,m,None,824,609.0,215.0,99,1,2356.0999999046326,389847.09999990463,9005,jacket,AF,A,384654,384654,382915,383922,382915,385271,384438,384439,385271,89
89,test,1,inc,1,z,Wed Nov 13 2024 10:06:12 GMT-0500 (Eastern Standard Time),394086.90000009537,jacket,800,I,z,z,None,546,346.0,200.0,29,1,1873.7000002861023,392213.19999980927,9005,friend,AF,A,386805,386805,385281,386088,385282,387155,386605,386605,387155,90
90,test,1,inc,1,m,Wed Nov 13 2024 10:06:12 GMT-0500 (Eastern Standard Time),396136.59999990463,kind,900,I,m,m,None,610,411.0,199.0,94,1,2041.4000000953674,394095.19999980927,9005,film,AF,A,388788,388788,387163,388072,387164,389205,388589,388589,389205,91
91,test,1,con,1,m,Wed Nov 13 2024 10:06:12 GMT-0500 (Eastern Standard Time),398419.90000009537,remote,900,I,m,m,None,834,634.0,200.0,114,1,2273.9000000953674,396146.0,9005,remote,AF,A,390838,390838,389214,390122,389214,391488,390638,390638,391488,92
92,test,1,con,1,z,Wed Nov 13 2024 10:06:12 GMT-0500 (Eastern Standard Time),400603.40000009537,rage,1100,I,z,z,None,542,343.0,199.0,52,1,2173.0,398430.40000009537,9005,rage,AF,A,393321,393321,391498,392605,391499,393671,393122,393122,393671,93
93,test,1,con,1,m,Wed Nov 13 2024 10:06:12 GMT-0500 (Eastern Standard Time),402820.09999990463,rock,1100,I,m,m,None,565,366.0,199.0,76,1,2207.300000190735,400612.7999997139,9005,rock,AF,A,395505,395505,393681,394788,393681,395888,395305,395305,395888,94
94,test,1,con,1,m,Wed Nov 13 2024 10:06:12 GMT-0500 (Eastern Standard Time),405386.90000009537,window,1000,I,m,m,None,1025,826.0,199.0,123,1,2556.7000002861023,402830.19999980927,9005,window,AF,A,397621,397621,395898,396905,395899,398455,397422,397422,398455,95
95,test,1,con,1,z,Wed Nov 13 2024 10:06:12 GMT-0500 (Eastern Standard Time),407436.90000009537,love,1000,I,z,z,None,506,307.0,199.0,19,1,2041.2000002861023,405395.69999980927,9005,love,AF,A,400188,400188,398464,399472,398464,400505,399989,399989,400505,96
96,test,1,con,1,z,Wed Nov 13 2024 10:06:12 GMT-0500 (Eastern Standard Time),409553.59999990463,friend,800,I,z,z,None,767,568.0,199.0,25,1,2106.9000000953674,407446.69999980927,9005,friend,AF,A,402039,402039,400515,401322,400515,402622,401839,401839,402622,97
97,test,1,inc,1,z,Wed Nov 13 2024 10:06:12 GMT-0500 (Eastern Standard Time),411620.19999980927,step,800,I,z,z,None,717,517.0,200.0,21,1,2056.199999809265,409564.0,9005,love,AF,A,404155,404155,402632,403439,402632,404688,403955,403955,404688,98
98,test,1,inc,1,m,Wed Nov 13 2024 10:06:12 GMT-0500 (Eastern Standard Time),413869.90000009537,friend,1100,I,m,m,None,603,388.0,215.0,104,1,2238.5,411631.40000009537,9005,jacket,AF,A,406539,406539,404699,405805,404700,406938,406323,406323,406938,99
99,test,1,inc,1,m,Wed Nov 13 2024 10:06:12 GMT-0500 (Eastern Standard Time),416203.40000009537,hate,1100,I,m,m,None,707,508.0,199.0,72,1,2319.300000190735,413884.09999990463,9005,step,AF,A,408755,408755,406952,408054,406953,409271,408555,408555,409271,100
100,test,1,inc,1,z,Wed Nov 13 2024 10:06:12 GMT-0500 (Eastern Standard Time),418320.19999980927,rock,900,I,z,z,None,670,470.0,200.0,46,1,2107.2999997138977,416212.90000009537,9005,hate,AF,A,410905,410905,409281,410189,409281,411388,410705,410705,411388,101
101,test,1,con,1,z,Wed Nov 13 2024 10:06:12 GMT-0500 (Eastern Standard Time),420453.5,friend,1000,I,z,z,None,596,397.0,199.0,27,1,2124.4000000953674,418329.09999990463,9005,friend,AF,A,413121,413122,411397,412405,411397,413522,412922,412922,413521,102
102,test,1,inc,1,z,Wed Nov 13 2024 10:06:12 GMT-0500 (Eastern Standard Time),422753.5,window,1100,I,z,z,None,653,453.0,200.0,8,1,2289.2000002861023,420464.2999997139,9005,elated,AF,A,415355,415355,413532,414639,413533,415822,415155,415155,415821,103
103,test,1,con,1,m,Wed Nov 13 2024 10:06:12 GMT-0500 (Eastern Standard Time),424853.40000009537,napkin,900,I,m,m,None,663,464.0,199.0,106,1,2085.9000000953674,422767.5,9005,napkin,AF,A,417455,417455,415836,416738,415836,417922,417255,417255,417921,104
104,test,1,inc,1,m,Wed Nov 13 2024 10:06:12 GMT-0500 (Eastern Standard Time),427103.5,kind,900,I,m,m,None,804,604.0,200.0,78,1,2240.0,424863.5,9005,rock,AF,A,419555,419555,417932,418838,417932,420172,419355,419355,420171,105
105,test,1,con,1,m,Wed Nov 13 2024 10:06:12 GMT-0500 (Eastern Standard Time),429353.19999980927,rock,1000,I,m,m,None,710,510.0,200.0,75,1,2240.5,427112.69999980927,9005,rock,AF,A,421905,421905,420181,421189,420181,422421,421705,421705,422421,106
106,test,1,con,1,m,Wed Nov 13 2024 10:06:12 GMT-0500 (Eastern Standard Time),431352.90000009537,rock,900,I,m,m,None,560,360.0,200.0,74,1,1990.5,429362.40000009537,9005,rock,AF,A,424055,424055,422430,423338,422431,424421,423855,423855,424421,107
107,test,1,con,1,z,Wed Nov 13 2024 10:06:12 GMT-0500 (Eastern Standard Time),433270.09999990463,brutal,1000,I,z,z,None,381,181.0,200.0,35,1,1911.1999998092651,431358.90000009537,9005,brutal,AF,A,426155,426155,424427,425438,424427,426338,425955,425955,426338,108
108,test,1,inc,1,m,Wed Nov 13 2024 10:06:12 GMT-0500 (Eastern Standard Time),435636.59999990463,hate,1100,I,m,m,None,730,531.0,199.0,80,1,2355.0,433281.59999990463,9005,rock,AF,A,428172,428172,426350,427455,426350,428705,427972,427972,428705,109
109,test,1,con,1,m,Wed Nov 13 2024 10:06:12 GMT-0500 (Eastern Standard Time),437770.19999980927,jacket,1100,I,m,m,None,491,292.0,199.0,100,1,2118.699999809265,435651.5,9005,jacket,AF,A,430539,430539,428719,429822,428720,430838,430339,430339,430838,110
110,test,1,con,1,m,Wed Nov 13 2024 10:06:12 GMT-0500 (Eastern Standard Time),439920.09999990463,window,1100,I,m,m,None,502,303.0,199.0,124,1,2135.0999999046326,437785.0,9005,window,AF,A,432672,432672,430853,431955,430854,432988,432472,432472,432988,111
111,test,1,con,1,z,Wed Nov 13 2024 10:06:12 GMT-0500 (Eastern Standard Time),441920.19999980927,hate,800,I,z,z,None,652,453.0,199.0,41,1,1991.4000000953674,439928.7999997139,9005,hate,AF,A,434522,434522,432997,433805,432997,434988,434322,434322,434988,112
112,test,1,inc,1,m,Wed Nov 13 2024 10:06:12 GMT-0500 (Eastern Standard Time),444170.19999980927,love,1000,I,m,m,None,727,527.0,200.0,71,1,2238.4000000953674,441931.7999997139,9005,step,AF,A,436705,436705,435000,436004,435000,437238,436505,436505,437238,113
113,test,1,inc,1,m,Wed Nov 13 2024 10:06:12 GMT-0500 (Eastern Standard Time),446186.7999997139,rage,800,I,m,m,None,675,476.0,199.0,85,1,2007.7999997138977,444179.0,9005,bell,AF,A,438772,438772,437247,438055,437247,439255,438572,438572,439255,114
114,test,1,inc,1,m,Wed Nov 13 2024 10:06:12 GMT-0500 (Eastern Standard Time),448570.0,friend,1100,I,m,m,None,741,542.0,199.0,128,1,2374.9000000953674,446195.09999990463,9005,window,AF,A,441089,441089,439263,440372,439263,441638,440889,440889,441638,115
115,test,1,inc,1,z,Wed Nov 13 2024 10:06:12 GMT-0500 (Eastern Standard Time),450653.5,jacket,800,I,z,z,None,738,539.0,199.0,61,1,2073.2000002861023,448580.2999997139,9005,temper,AF,A,443172,443172,441648,442455,441649,443722,442972,442972,443722,116
116,test,1,con,1,m,Wed Nov 13 2024 10:06:12 GMT-0500 (Eastern Standard Time),452853.40000009537,jacket,900,I,m,m,None,764,564.0,200.0,98,1,2190.300000190735,450663.09999990463,9005,jacket,AF,A,445355,445355,443731,444638,443731,445922,445155,445155,445921,117
117,test,1,inc,1,z,Wed Nov 13 2024 10:06:12 GMT-0500 (Eastern Standard Time),455136.5,film,1100,I,z,z,None,636,436.0,200.0,56,1,2272.5999999046326,452863.90000009537,9005,rage,AF,A,447755,447755,445932,447038,445932,448205,447555,447555,448204,118
118,test,1,inc,1,z,Wed Nov 13 2024 10:06:12 GMT-0500 (Eastern Standard Time),457336.7999997139,rock,900,I,z,z,None,759,560.0,199.0,22,1,2187.3999996185303,455149.40000009537,9005,love,AF,A,449838,449839,448217,449122,448218,450405,449639,449639,450405,119
119,test,1,con,1,m,Wed Nov 13 2024 10:06:12 GMT-0500 (Eastern Standard Time),459420.19999980927,window,900,I,m,m,None,624,424.0,200.0,122,1,2068.4000000953674,457351.7999997139,9005,window,AF,A,452055,452055,450420,451338,450421,452488,451855,451855,452488,120
120,test,1,inc,1,m,Wed Nov 13 2024 10:06:12 GMT-0500 (Eastern Standard Time),461636.5,brutal,900,I,m,m,None,782,582.0,200.0,126,1,2207.5,459429.0,9005,window,AF,A,454122,454122,452497,453405,452497,454705,453921,453921,454705,121
121,test,1,con,1,z,Wed Nov 13 2024 10:06:12 GMT-0500 (Eastern Standard Time),463486.40000009537,elated,900,I,z,z,None,403,204.0,199.0,2,1,1839.3000001907349,461647.09999990463,9005,elated,AF,A,456339,456339,454715,455622,454715,456555,456139,456139,456554,122
122,test,1,inc,1,z,Wed Nov 13 2024 10:06:12 GMT-0500 (Eastern Standard Time),465487.0,bell,1000,I,z,z,None,455,255.0,200.0,47,1,1992.8000001907349,463494.19999980927,9005,hate,AF,A,458289,458289,456562,457571,456563,458555,458088,458088,458555,123
123,test,1,con,1,m,Wed Nov 13 2024 10:06:12 GMT-0500 (Eastern Standard Time),467686.59999990463,film,1100,I,m,m,None,562,362.0,200.0,92,1,2192.0999999046326,465494.5,9005,film,AF,A,460389,460389,458563,459672,458563,460755,460188,460188,460755,124
124,test,1,inc,1,z,Wed Nov 13 2024 10:06:12 GMT-0500 (Eastern Standard Time),469586.7999997139,step,800,I,z,z,None,549,350.0,199.0,13,1,1892.3999996185303,467694.40000009537,9005,kind,AF,A,462289,462289,460762,461572,460763,462655,462089,462089,462655,125
125,test,1,inc,1,m,Wed Nov 13 2024 10:06:12 GMT-0500 (Eastern Standard Time),471620.19999980927,kind,900,I,m,m,None,583,384.0,199.0,70,1,2022.9000000953674,469597.2999997139,9005,step,AF,A,464288,464288,462665,463572,462666,464688,464088,464089,464688,126
126,test,1,inc,1,z,Wed Nov 13 2024 10:06:12 GMT-0500 (Eastern Standard Time),473520.09999990463,jacket,800,I,z,z,None,552,353.0,199.0,5,1,1891.3000001907349,471628.7999997139,9005,elated,AF,A,466222,466222,464697,465505,464697,466588,466022,466022,466588,127
127,test,1,con,1,m,Wed Nov 13 2024 10:06:12 GMT-0500 (Eastern Standard Time),476086.69999980927,bell,1100,I,m,m,None,930,731.0,199.0,84,1,2557.699999809265,473529.0,9005,bell,AF,A,468421,468421,466597,467705,466597,469155,468222,468222,469155,128
