acc_sum,block,block_c,condition,correct,correct_response,datetime,endtime,flanker,jitter,project,response,response_test_buffer_response,response_test_target_response,response_time,response_time_test_buffer_response,response_time_test_target_response,row_sel,session_number,start_end,starttime,subject_id,target,task,task_vers,time_test_buffer,time_test_buffer_response,time_test_constants,time_test_flanker,time_test_jitter,time_test_logger,time_test_target,time_test_target_response,time_test_variables,trial
1,prac,1,con,1,z,Wed Mar 26 2025 10:52:54 GMT-0400 (Eastern Daylight Time),144720.69999980927,brutal,800,I,z,,,689,,,13,2,2798.199999809265,141922.5,9005,brutal,AF,C,,,,,,,,,,1
2,prac,1,inc,1,z,Wed Mar 26 2025 10:52:54 GMT-0400 (Eastern Daylight Time),147754.0,napkin,1100,I,z,,,632,,,12,2,3021.0,144733.0,9005,friend,AF,C,,,,,,,,,,2
3,prac,1,con,1,z,Wed Mar 26 2025 10:52:54 GMT-0400 (Eastern Daylight Time),150570.19999980927,rage,1000,I,z,,,513,,,15,2,2804.7999997138977,147765.40000009537,9005,rage,AF,C,,,,,,,,,,3
4,prac,1,inc,1,z,Wed Mar 26 2025 10:52:54 GMT-0400 (Eastern Daylight Time),153653.59999990463,window,1100,I,z,,,669,,,16,2,3072.2999997138977,150581.30000019073,9005,temper,AF,C,,,,,,,,,,4
5,prac,1,con,1,m,Wed Mar 26 2025 10:52:54 GMT-0400 (Eastern Daylight Time),156553.59999990463,jacket,800,I,m,,,798,,,5,2,2889.5,153664.09999990463,9005,jacket,AF,C,,,,,,,,,,5
6,prac,1,con,1,z,Wed Mar 26 2025 10:52:54 GMT-0400 (Eastern Daylight Time),159370.09999990463,elated,800,I,z,,,713,,,9,2,2806.9000000953674,156563.19999980927,9005,elated,AF,C,,,,,,,,,,6
6,prac,1,con,0,m,Wed Mar 26 2025 10:52:54 GMT-0400 (Eastern Daylight Time),162737.19999980927,remote,1000,I,z,,,1057,,,7,2,3357.199999809265,159380.0,9005,remote,AF,C,,,,,,,,,,7
7,prac,1,con,1,m,Wed Mar 26 2025 10:52:54 GMT-0400 (Eastern Daylight Time),165820.30000019073,step,800,I,m,,,978,,,1,2,3072.9000000953674,162747.40000009537,9005,step,AF,C,,,,,,,,,,8
8,prac,1,con,1,z,Wed Mar 26 2025 10:52:54 GMT-0400 (Eastern Daylight Time),168720.19999980927,love,1000,I,z,,,590,,,11,2,2887.699999809265,165832.5,9005,love,AF,C,,,,,,,,,,9
9,prac,1,inc,1,m,Wed Mar 26 2025 10:52:54 GMT-0400 (Eastern Daylight Time),171886.80000019073,brutal,1100,I,m,,,759,,,8,2,3156.1000003814697,168730.69999980927,9005,window,AF,C,,,,,,,,,,10
10,prac,1,inc,1,z,Wed Mar 26 2025 10:52:54 GMT-0400 (Eastern Daylight Time),174737.09999990463,film,900,I,z,,,640,,,14,2,2839.5999999046326,171897.5,9005,hate,AF,C,,,,,,,,,,11
11,prac,1,inc,1,m,Wed Mar 26 2025 10:52:54 GMT-0400 (Eastern Daylight Time),177753.80000019073,kind,900,I,m,,,798,,,2,2,3007.9000000953674,174745.90000009537,9005,rock,AF,C,,,,,,,,,,12
12,prac,1,con,1,m,Wed Mar 26 2025 10:52:54 GMT-0400 (Eastern Daylight Time),180753.59999990463,bell,1000,I,m,,,689,,,3,2,2990.0999999046326,177763.5,9005,bell,AF,C,,,,,,,,,,13
13,prac,1,inc,1,m,Wed Mar 26 2025 10:52:54 GMT-0400 (Eastern Daylight Time),183803.5,hate,1100,I,m,,,646,,,4,2,3038.9000000953674,180764.59999990463,9005,film,AF,C,,,,,,,,,,14
14,prac,1,inc,1,m,Wed Mar 26 2025 10:52:54 GMT-0400 (Eastern Daylight Time),186636.80000019073,elated,900,I,m,,,627,,,6,2,2821.300000190735,183815.5,9005,napkin,AF,C,,,,,,,,,,15
15,prac,1,inc,1,z,Wed Mar 26 2025 10:52:54 GMT-0400 (Eastern Daylight Time),189503.59999990463,rock,900,I,z,,,659,,,10,2,2857.5999999046326,186646.0,9005,kind,AF,C,,,,,,,,,,16
1,test,1,inc,1,z,Wed Mar 26 2025 10:52:54 GMT-0400 (Eastern Daylight Time),224487.0,jacket,800,I,z,z,None,569,370.0,199.0,37,2,1908.1999998092651,222578.80000019073,9005,brutal,AF,C,203332,203332,201807,202615,201808,203715,203132,203132,203715,1
2,test,1,inc,1,m,Wed Mar 26 2025 10:52:54 GMT-0400 (Eastern Daylight Time),226720.19999980927,friend,1100,I,m,m,None,592,393.0,199.0,120,2,2223.3999996185303,224496.80000019073,9005,remote,AF,C,205549,205549,203725,204832,203725,205948,205349,205349,205948,2
3,test,1,con,1,m,Wed Mar 26 2025 10:52:54 GMT-0400 (Eastern Daylight Time),229153.40000009537,bell,1100,I,m,m,None,791,592.0,199.0,84,2,2422.7000002861023,226730.69999980927,9005,bell,AF,C,207782,207782,205959,207065,205959,208381,207582,207582,208381,3
4,test,1,inc,1,m,Wed Mar 26 2025 10:52:54 GMT-0400 (Eastern Daylight Time),231286.59999990463,love,1000,I,m,m,None,586,387.0,199.0,87,2,2123.5999999046326,229163.0,9005,bell,AF,C,210115,210115,208391,209399,208392,210515,209916,209916,210515,4
5,test,1,con,1,m,Wed Mar 26 2025 10:52:54 GMT-0400 (Eastern Daylight Time),233370.09999990463,film,900,I,m,m,None,632,433.0,199.0,90,2,2073.9000000953674,231296.19999980927,9005,film,AF,C,212149,212149,210524,211432,210525,212598,211949,211949,212598,5
6,test,1,con,1,z,Wed Mar 26 2025 10:52:54 GMT-0400 (Eastern Daylight Time),235469.90000009537,brutal,900,I,z,z,None,660,445.0,215.0,34,2,2090.300000190735,233379.59999990463,9005,brutal,AF,C,214249,214249,212608,213516,212608,214698,214032,214033,214698,6
7,test,1,con,1,z,Wed Mar 26 2025 10:52:54 GMT-0400 (Eastern Daylight Time),237586.69999980927,love,1100,I,z,z,None,473,274.0,199.0,20,2,2106.2999997138977,235480.40000009537,9005,love,AF,C,216532,216532,214708,215815,214709,216815,216332,216332,216815,7
8,test,1,con,1,m,Wed Mar 26 2025 10:52:54 GMT-0400 (Eastern Daylight Time),239603.40000009537,remote,900,I,m,m,None,572,373.0,199.0,114,2,2005.3000001907349,237598.09999990463,9005,remote,AF,C,218449,218449,216826,217732,216827,218832,218249,218249,218831,8
9,test,1,inc,1,z,Wed Mar 26 2025 10:52:54 GMT-0400 (Eastern Daylight Time),241653.40000009537,step,800,I,z,z,None,704,505.0,199.0,45,2,2040.5,239612.90000009537,9005,hate,AF,C,220365,220365,218841,219649,218841,220881,220166,220166,220881,9
10,test,1,inc,1,z,Wed Mar 26 2025 10:52:54 GMT-0400 (Eastern Daylight Time),243736.30000019073,napkin,900,I,z,z,None,633,434.0,199.0,38,2,2073.7000002861023,241662.59999990463,9005,brutal,AF,C,222515,222515,220891,221798,220891,222964,222316,222316,222964,10
11,test,1,inc,1,z,Wed Mar 26 2025 10:52:54 GMT-0400 (Eastern Daylight Time),245836.80000019073,rock,900,I,z,z,None,662,463.0,199.0,14,2,2091.4000000953674,243745.40000009537,9005,kind,AF,C,224599,224599,222973,223882,222974,225065,224399,224399,225065,11
12,test,1,inc,1,m,Wed Mar 26 2025 10:52:54 GMT-0400 (Eastern Daylight Time),247970.09999990463,temper,1000,I,m,m,None,590,391.0,199.0,111,2,2122.0,245848.09999990463,9005,napkin,AF,C,226799,226799,225076,226082,225077,227198,226599,226599,227198,12
13,test,1,inc,1,m,Wed Mar 26 2025 10:52:54 GMT-0400 (Eastern Daylight Time),250469.90000009537,friend,1100,I,m,m,None,853,654.0,199.0,104,2,2490.800000190735,247979.09999990463,9005,jacket,AF,C,229032,229032,227207,228315,227208,229698,228832,228832,229698,13
14,test,1,con,1,m,Wed Mar 26 2025 10:52:54 GMT-0400 (Eastern Daylight Time),252770.0,rock,1100,I,m,m,None,657,458.0,199.0,76,2,2290.5,250479.5,9005,rock,AF,C,231532,231532,229708,230815,229708,231998,231332,231332,231998,14
15,test,1,inc,1,z,Wed Mar 26 2025 10:52:54 GMT-0400 (Eastern Daylight Time),255103.40000009537,window,1100,I,z,z,None,693,494.0,199.0,32,2,2324.2000002861023,252779.19999980927,9005,friend,AF,C,233832,233832,232007,233115,232008,234331,233632,233632,234331,15
16,test,1,con,1,z,Wed Mar 26 2025 10:52:54 GMT-0400 (Eastern Daylight Time),257436.59999990463,brutal,1100,I,z,z,None,696,497.0,199.0,36,2,2324.4000000953674,255112.19999980927,9005,brutal,AF,C,236165,236165,234340,235449,234341,236665,235965,235966,236665,16
17,test,1,inc,1,z,Wed Mar 26 2025 10:52:54 GMT-0400 (Eastern Daylight Time),259803.30000019073,bell,1000,I,z,z,None,830,631.0,199.0,15,2,2356.800000190735,257446.5,9005,kind,AF,C,238399,238399,236675,237682,236675,239031,238199,238199,239031,17
18,test,1,inc,1,z,Wed Mar 26 2025 10:52:54 GMT-0400 (Eastern Daylight Time),261819.90000009537,rock,900,I,z,z,None,581,381.0,200.0,22,2,2007.3000001907349,259812.59999990463,9005,love,AF,C,240665,240665,239041,239949,239041,241048,240465,240465,241048,18
19,test,1,con,1,z,Wed Mar 26 2025 10:52:54 GMT-0400 (Eastern Daylight Time),264220.0,hate,1000,I,z,z,None,863,664.0,199.0,43,2,2390.5999999046326,261829.40000009537,9005,hate,AF,C,242782,242782,241057,242065,241058,243448,242582,242582,243448,19
20,test,1,inc,1,m,Wed Mar 26 2025 10:52:54 GMT-0400 (Eastern Daylight Time),266753.19999980927,hate,1100,I,m,m,None,891,692.0,199.0,80,2,2524.0,264229.19999980927,9005,rock,AF,C,245282,245282,243457,244565,243458,245981,245082,245082,245981,20
21,test,1,con,1,m,Wed Mar 26 2025 10:52:54 GMT-0400 (Eastern Daylight Time),269153.40000009537,step,1100,I,m,m,None,758,559.0,199.0,68,2,2390.5,266762.90000009537,9005,step,AF,C,247815,247815,245991,247099,245992,248381,247616,247616,248381,21
22,test,1,con,1,z,Wed Mar 26 2025 10:52:54 GMT-0400 (Eastern Daylight Time),271203.30000019073,friend,900,I,z,z,None,606,407.0,199.0,26,2,2039.1000003814697,269164.19999980927,9005,friend,AF,C,250015,250015,248392,249299,248393,250431,249816,249816,250431,22
23,test,1,inc,1,z,Wed Mar 26 2025 10:52:54 GMT-0400 (Eastern Daylight Time),273386.59999990463,film,1100,I,z,z,None,532,333.0,199.0,24,2,2174.699999809265,271211.90000009537,9005,love,AF,C,252265,252265,250440,251549,250440,252615,252065,252066,252615,23
24,test,1,inc,1,z,Wed Mar 26 2025 10:52:54 GMT-0400 (Eastern Daylight Time),275519.80000019073,napkin,900,I,z,z,None,692,493.0,199.0,62,2,2123.800000190735,273396.0,9005,temper,AF,C,254249,254249,252624,253532,252625,254748,254049,254049,254748,24
25,test,1,con,1,m,Wed Mar 26 2025 10:52:54 GMT-0400 (Eastern Daylight Time),277503.40000009537,bell,800,I,m,m,None,643,444.0,199.0,81,2,1974.8000001907349,275528.59999990463,9005,bell,AF,C,256282,256282,254757,255565,254757,256731,256082,256082,256731,25
26,test,1,inc,1,m,Wed Mar 26 2025 10:52:54 GMT-0400 (Eastern Daylight Time),279536.59999990463,kind,900,I,m,m,None,593,393.0,200.0,70,2,2023.7999997138977,277512.80000019073,9005,step,AF,C,258365,258365,256741,257649,256741,258765,258165,258165,258765,26
27,test,1,con,1,z,Wed Mar 26 2025 10:52:54 GMT-0400 (Eastern Daylight Time),281436.59999990463,friend,800,I,z,z,None,562,363.0,199.0,25,2,1888.6999998092651,279547.90000009537,9005,friend,AF,C,260298,260299,258776,259582,258776,260665,260099,260099,260665,27
28,test,1,con,1,m,Wed Mar 26 2025 10:52:54 GMT-0400 (Eastern Daylight Time),283553.19999980927,jacket,1000,I,m,m,None,575,376.0,199.0,99,2,2108.0,281445.19999980927,9005,jacket,AF,C,262398,262398,260673,261682,260674,262781,262199,262199,262781,28
29,test,1,inc,1,z,Wed Mar 26 2025 10:52:54 GMT-0400 (Eastern Daylight Time),285753.40000009537,remote,1000,I,z,z,None,650,451.0,199.0,7,2,2190.9000000953674,283562.5,9005,elated,AF,C,264515,264515,262791,263799,262791,264981,264316,264316,264981,29
30,test,1,con,1,m,Wed Mar 26 2025 10:52:54 GMT-0400 (Eastern Daylight Time),287802.90000009537,bell,900,I,m,m,None,613,398.0,215.0,82,2,2040.9000000953674,285762.0,9005,bell,AF,C,266632,266632,264990,265899,264990,267031,266416,266416,267031,30
31,test,1,con,1,m,Wed Mar 26 2025 10:52:54 GMT-0400 (Eastern Daylight Time),289802.80000019073,window,1000,I,m,m,None,464,265.0,199.0,123,2,1991.2000002861023,287811.59999990463,9005,window,AF,C,268765,268765,267040,268049,267040,269031,268565,268565,269031,31
32,test,1,inc,1,m,Wed Mar 26 2025 10:52:54 GMT-0400 (Eastern Daylight Time),291886.80000019073,elated,800,I,m,m,None,744,545.0,199.0,109,2,2074.800000190735,289812.0,9005,napkin,AF,C,270565,270565,269040,269849,269040,271115,270365,270365,271115,32
33,test,1,con,1,m,Wed Mar 26 2025 10:52:54 GMT-0400 (Eastern Daylight Time),294036.59999990463,bell,1000,I,m,m,None,604,405.0,199.0,83,2,2141.0999999046326,291895.5,9005,bell,AF,C,272848,272849,271124,272132,271124,273265,272649,272649,273265,33
34,test,1,inc,1,m,Wed Mar 26 2025 10:52:54 GMT-0400 (Eastern Daylight Time),296053.30000019073,brutal,900,I,m,m,None,570,371.0,199.0,126,2,2007.9000000953674,294045.40000009537,9005,window,AF,C,274899,274899,273273,274182,273274,275281,274699,274699,275281,34
35,test,1,inc,1,m,Wed Mar 26 2025 10:52:54 GMT-0400 (Eastern Daylight Time),298253.30000019073,love,1000,I,m,m,None,661,446.0,215.0,95,2,2190.7000002861023,296062.59999990463,9005,film,AF,C,277032,277032,275291,276299,275291,277481,276816,276816,277481,35
36,test,1,inc,1,m,Wed Mar 26 2025 10:52:54 GMT-0400 (Eastern Daylight Time),300453.19999980927,elated,800,I,m,m,None,855,655.0,200.0,117,2,2191.0999999046326,298262.09999990463,9005,remote,AF,C,279015,279015,277490,278299,277491,279681,278815,278815,279681,36
37,test,1,inc,1,z,Wed Mar 26 2025 10:52:54 GMT-0400 (Eastern Daylight Time),302486.59999990463,jacket,800,I,z,z,None,687,487.0,200.0,29,2,2024.5,300462.09999990463,9005,friend,AF,C,281215,281215,279690,280498,279691,281715,281015,281015,281715,37
38,test,1,con,1,m,Wed Mar 26 2025 10:52:54 GMT-0400 (Eastern Daylight Time),304602.80000019073,remote,800,I,m,m,None,780,581.0,199.0,113,2,2105.6000003814697,302497.19999980927,9005,remote,AF,C,283249,283249,281725,282532,281726,283831,283049,283049,283831,38
39,test,1,inc,1,z,Wed Mar 26 2025 10:52:54 GMT-0400 (Eastern Daylight Time),306553.19999980927,step,800,I,z,z,None,600,401.0,199.0,21,2,1939.5,304613.69999980927,9005,love,AF,C,285365,285365,283842,284648,283842,285781,285165,285166,285781,39
40,test,1,inc,1,z,Wed Mar 26 2025 10:52:54 GMT-0400 (Eastern Daylight Time),308886.59999990463,film,1100,I,z,z,None,686,487.0,199.0,16,2,2324.0999999046326,306562.5,9005,kind,AF,C,287615,287615,285791,286898,285791,288115,287415,287415,288115,40
41,test,1,inc,1,z,Wed Mar 26 2025 10:52:54 GMT-0400 (Eastern Daylight Time),311153.30000019073,window,1100,I,z,z,None,624,425.0,199.0,8,2,2256.5,308896.80000019073,9005,elated,AF,C,289948,289949,288125,289232,288125,290381,289749,289749,290381,41
42,test,1,inc,1,m,Wed Mar 26 2025 10:52:54 GMT-0400 (Eastern Daylight Time),313136.69999980927,kind,900,I,m,m,None,542,343.0,199.0,78,2,1973.8999996185303,311162.80000019073,9005,rock,AF,C,292015,292015,290391,291299,290391,292365,291815,291815,292365,42
43,test,1,con,1,m,Wed Mar 26 2025 10:52:54 GMT-0400 (Eastern Daylight Time),315404.19999980927,napkin,1100,I,m,m,None,630,431.0,199.0,108,2,2257.0999999046326,313147.09999990463,9005,napkin,AF,C,294198,294199,292375,293482,292376,294632,293999,293999,294632,43
44,test,1,inc,1,z,Wed Mar 26 2025 10:52:54 GMT-0400 (Eastern Daylight Time),317486.59999990463,napkin,900,I,z,z,None,645,445.0,200.0,6,2,2071.7999997138977,315414.80000019073,9005,elated,AF,C,296265,296265,294643,295549,294643,296715,296065,296065,296715,44
45,test,1,inc,1,m,Wed Mar 26 2025 10:52:54 GMT-0400 (Eastern Daylight Time),319686.59999990463,hate,1100,I,m,m,None,552,353.0,199.0,72,2,2190.4000000953674,317496.19999980927,9005,step,AF,C,298549,298549,296724,297832,296725,298915,298349,298349,298915,45
46,test,1,inc,1,m,Wed Mar 26 2025 10:52:54 GMT-0400 (Eastern Daylight Time),321936.59999990463,friend,1100,I,m,m,None,608,409.0,199.0,128,2,2241.2999997138977,319695.30000019073,9005,window,AF,C,300748,300749,298923,300032,298924,301165,300549,300549,301165,46
47,test,1,con,1,m,Wed Mar 26 2025 10:52:54 GMT-0400 (Eastern Daylight Time),324120.0,step,1000,I,m,m,None,635,436.0,199.0,67,2,2173.0999999046326,321946.90000009537,9005,step,AF,C,302898,302898,301175,302182,301175,303348,302699,302699,303348,47
48,test,1,con,1,m,Wed Mar 26 2025 10:52:54 GMT-0400 (Eastern Daylight Time),326269.19999980927,remote,1000,I,m,m,None,610,411.0,199.0,115,2,2140.3999996185303,324128.80000019073,9005,remote,AF,C,305082,305082,303357,304365,303357,305497,304882,304882,305497,48
49,test,1,inc,1,m,Wed Mar 26 2025 10:52:54 GMT-0400 (Eastern Daylight Time),328386.5,hate,1100,I,m,m,None,473,274.0,199.0,88,2,2112.0,326274.5,9005,bell,AF,C,307332,307332,305503,306615,305503,307615,307132,307132,307614,49
49,test,1,con,0,z,Wed Mar 26 2025 10:52:54 GMT-0400 (Eastern Daylight Time),330336.59999990463,friend,1000,I,m,m,None,409,210.0,199.0,27,2,1940.9000000953674,328395.69999980927,9005,friend,AF,C,309348,309348,307624,308632,307624,309565,309149,309149,309565,50
50,test,1,con,1,z,Wed Mar 26 2025 10:52:54 GMT-0400 (Eastern Daylight Time),332503.30000019073,hate,800,I,z,z,None,818,619.0,199.0,41,2,2157.5,330345.80000019073,9005,hate,AF,C,311099,311099,309574,310382,309574,311731,310899,310899,311731,51
51,test,1,inc,1,m,Wed Mar 26 2025 10:52:54 GMT-0400 (Eastern Daylight Time),334586.69999980927,rage,800,I,m,m,None,748,549.0,199.0,93,2,2074.199999809265,332512.5,9005,film,AF,C,313265,313265,311741,312549,311741,313815,313065,313065,313815,52
52,test,1,con,1,z,Wed Mar 26 2025 10:52:54 GMT-0400 (Eastern Daylight Time),336453.30000019073,love,900,I,z,z,None,421,222.0,199.0,18,2,1860.0,334593.30000019073,9005,love,AF,C,315448,315448,313821,314732,313822,315681,315249,315249,315681,53
53,test,1,inc,1,z,Wed Mar 26 2025 10:52:54 GMT-0400 (Eastern Daylight Time),338636.40000009537,bell,1000,I,z,z,None,646,447.0,199.0,55,2,2174.5,336461.90000009537,9005,rage,AF,C,317415,317415,315690,316699,315690,317865,317215,317215,317864,54
54,test,1,inc,1,m,Wed Mar 26 2025 10:52:54 GMT-0400 (Eastern Daylight Time),340869.80000019073,friend,1100,I,m,m,None,587,388.0,199.0,112,2,2222.2000002861023,338647.59999990463,9005,napkin,AF,C,319698,319698,317876,318982,317876,320098,319499,319499,320098,55
55,test,1,con,1,z,Wed Mar 26 2025 10:52:54 GMT-0400 (Eastern Daylight Time),343069.90000009537,temper,1100,I,z,z,None,561,362.0,199.0,60,2,2191.4000000953674,340878.5,9005,temper,AF,C,321932,321932,320107,321215,320107,322298,321732,321732,322298,56
56,test,1,inc,1,m,Wed Mar 26 2025 10:52:54 GMT-0400 (Eastern Daylight Time),345103.30000019073,elated,800,I,m,m,None,693,494.0,199.0,101,2,2023.6000003814697,343079.69999980927,9005,jacket,AF,C,323832,323832,322308,323115,322308,324331,323632,323632,324331,57
57,test,1,inc,1,z,Wed Mar 26 2025 10:52:54 GMT-0400 (Eastern Daylight Time),347053.19999980927,jacket,800,I,z,z,None,613,413.0,200.0,5,2,1940.3999996185303,345112.80000019073,9005,elated,AF,C,325865,325865,324341,325149,324341,326281,325665,325665,326281,58
58,test,1,con,1,m,Wed Mar 26 2025 10:52:54 GMT-0400 (Eastern Daylight Time),349336.5,film,1000,I,m,m,None,734,535.0,199.0,91,2,2274.199999809265,347062.30000019073,9005,film,AF,C,328015,328015,326290,327298,326291,328565,327815,327815,328565,59
59,test,1,con,1,z,Wed Mar 26 2025 10:52:54 GMT-0400 (Eastern Daylight Time),351586.5,elated,1000,I,z,z,None,707,508.0,199.0,3,2,2240.9000000953674,349345.59999990463,9005,elated,AF,C,330298,330298,328574,329582,328574,330815,330099,330099,330815,60
60,test,1,inc,1,m,Wed Mar 26 2025 10:52:54 GMT-0400 (Eastern Daylight Time),353419.80000019073,rage,800,I,m,m,None,497,298.0,199.0,85,2,1822.8000001907349,351597.0,9005,bell,AF,C,332348,332348,330825,331632,330825,332648,332149,332149,332648,61
61,test,1,con,1,m,Wed Mar 26 2025 10:52:54 GMT-0400 (Eastern Daylight Time),355669.90000009537,napkin,1000,I,m,m,None,703,504.0,199.0,107,2,2241.800000190735,353428.09999990463,9005,napkin,AF,C,334382,334382,332656,333665,332656,334898,334182,334182,334898,62
62,test,1,con,1,z,Wed Mar 26 2025 10:52:54 GMT-0400 (Eastern Daylight Time),358003.19999980927,elated,1100,I,z,z,None,689,490.0,199.0,4,2,2325.199999809265,355678.0,9005,elated,AF,C,336732,336732,334906,336015,334907,337231,336532,336532,337231,63
63,test,1,inc,1,m,Wed Mar 26 2025 10:52:54 GMT-0400 (Eastern Daylight Time),360153.19999980927,temper,1000,I,m,m,None,600,401.0,199.0,127,2,2141.7999997138977,358011.40000009537,9005,window,AF,C,338965,338965,337239,338248,337240,339381,338765,338765,339381,64
64,test,1,con,1,z,Wed Mar 26 2025 10:52:54 GMT-0400 (Eastern Daylight Time),362319.90000009537,kind,1100,I,z,z,None,527,327.0,200.0,12,2,2157.7000002861023,360162.19999980927,9005,kind,AF,C,341215,341215,339390,340499,339391,341548,341015,341015,341548,65
65,test,1,inc,1,z,Wed Mar 26 2025 10:52:54 GMT-0400 (Eastern Daylight Time),364553.19999980927,bell,1000,I,z,z,None,683,484.0,199.0,23,2,2224.2999997138977,362328.90000009537,9005,love,AF,C,343282,343282,341557,342565,341557,343781,343082,343082,343781,66
66,test,1,inc,1,z,Wed Mar 26 2025 10:52:54 GMT-0400 (Eastern Daylight Time),366519.90000009537,step,800,I,z,z,None,618,419.0,199.0,53,2,1957.2000002861023,364562.69999980927,9005,rage,AF,C,345315,345315,343791,344599,343791,345748,345115,345115,345748,67
66,test,1,inc,0,z,Wed Mar 26 2025 10:52:54 GMT-0400 (Eastern Daylight Time),369953.19999980927,rock,900,I,None,None,None,1799,1799.0,199.0,54,2,3424.0,366529.19999980927,9005,rage,AF,C,347382,347382,345757,346665,345758,349181,347182,347182,349181,68
67,test,1,con,1,z,Wed Mar 26 2025 10:52:54 GMT-0400 (Eastern Daylight Time),372119.69999980927,elated,900,I,z,z,None,718,519.0,199.0,2,2,2156.7999997138977,369962.90000009537,9005,elated,AF,C,350815,350815,349191,350098,349191,351348,350615,350615,351348,69
68,test,1,con,1,z,Wed Mar 26 2025 10:52:54 GMT-0400 (Eastern Daylight Time),373903.0,love,800,I,z,z,None,443,244.0,199.0,17,2,1772.3000001907349,372130.69999980927,9005,love,AF,C,352882,352882,351359,352165,351359,353131,352682,352682,353131,70
69,test,1,inc,1,m,Wed Mar 26 2025 10:52:54 GMT-0400 (Eastern Daylight Time),375886.5,kind,900,I,m,m,None,544,345.0,199.0,94,2,1972.5999999046326,373913.90000009537,9005,film,AF,C,354765,354765,353142,354049,353142,355115,354565,354565,355115,71
70,test,1,con,1,m,Wed Mar 26 2025 10:52:54 GMT-0400 (Eastern Daylight Time),377836.5,step,900,I,m,m,None,513,314.0,199.0,66,2,1940.8000001907349,375895.69999980927,9005,step,AF,C,356748,356748,355124,356032,355124,357065,356549,356549,357065,72
71,test,1,con,1,z,Wed Mar 26 2025 10:52:54 GMT-0400 (Eastern Daylight Time),379636.40000009537,elated,800,I,z,z,None,455,256.0,199.0,1,2,1792.0999999046326,377844.30000019073,9005,elated,AF,C,358598,358598,357072,357882,357073,358865,358399,358399,358864,73
72,test,1,con,1,z,Wed Mar 26 2025 10:52:54 GMT-0400 (Eastern Daylight Time),381703.19999980927,love,1000,I,z,z,None,519,320.0,199.0,19,2,2058.5,379644.69999980927,9005,love,AF,C,360598,360598,358873,359882,358873,360931,360399,360399,360931,74
72,test,1,inc,0,m,Wed Mar 26 2025 10:52:54 GMT-0400 (Eastern Daylight Time),383369.90000009537,rage,800,I,z,z,None,316,117.0,199.0,77,2,1657.7000002861023,381712.19999980927,9005,rock,AF,C,362465,362465,360940,361748,360941,362598,362265,362265,362598,75
73,test,1,inc,1,m,Wed Mar 26 2025 10:52:54 GMT-0400 (Eastern Daylight Time),385586.5,temper,1000,I,m,m,None,673,474.0,199.0,119,2,2208.199999809265,383378.30000019073,9005,remote,AF,C,364332,364332,362606,363615,362607,364815,364132,364132,364814,76
74,test,1,inc,1,z,Wed Mar 26 2025 10:52:54 GMT-0400 (Eastern Daylight Time),387769.59999990463,remote,1000,I,z,z,None,633,434.0,199.0,39,2,2174.5999999046326,385595.0,9005,brutal,AF,C,366548,366548,364823,365832,364823,366998,366349,366349,366998,77
75,test,1,con,1,m,Wed Mar 26 2025 10:52:54 GMT-0400 (Eastern Daylight Time),390069.80000019073,jacket,1100,I,m,m,None,653,454.0,199.0,100,2,2290.6000003814697,387779.19999980927,9005,jacket,AF,C,368832,368832,367007,368115,367008,369298,368632,368632,369298,78
76,test,1,con,1,z,Wed Mar 26 2025 10:52:54 GMT-0400 (Eastern Daylight Time),392236.40000009537,kind,1000,I,z,z,None,629,430.0,199.0,11,2,2157.5999999046326,390078.80000019073,9005,kind,AF,C,371032,371032,369307,370315,369307,371465,370832,370832,371464,79
77,test,1,con,1,m,Wed Mar 26 2025 10:52:54 GMT-0400 (Eastern Daylight Time),394269.80000019073,window,900,I,m,m,None,595,396.0,199.0,122,2,2024.0,392245.80000019073,9005,window,AF,C,373098,373098,371474,372382,371474,373498,372899,372899,373498,80
78,test,1,con,1,m,Wed Mar 26 2025 10:52:54 GMT-0400 (Eastern Daylight Time),396569.69999980927,rock,1000,I,m,m,None,749,550.0,199.0,75,2,2289.5999999046326,394280.09999990463,9005,rock,AF,C,375232,375232,373508,374515,373508,375798,375032,375032,375798,81
79,test,1,con,1,m,Wed Mar 26 2025 10:52:54 GMT-0400 (Eastern Daylight Time),398469.80000019073,rock,800,I,m,m,None,553,354.0,199.0,73,2,1891.6000003814697,396578.19999980927,9005,rock,AF,C,377332,377332,375806,376615,375807,377698,377132,377132,377698,82
80,test,1,inc,1,m,Wed Mar 26 2025 10:52:54 GMT-0400 (Eastern Daylight Time),400453.19999980927,rage,800,I,m,m,None,637,438.0,199.0,69,2,1974.5,398478.69999980927,9005,step,AF,C,379232,379232,377707,378515,377707,379681,379032,379032,379681,83
81,test,1,con,1,m,Wed Mar 26 2025 10:52:54 GMT-0400 (Eastern Daylight Time),402553.19999980927,jacket,900,I,m,m,None,650,451.0,199.0,98,2,2092.0999999046326,400461.09999990463,9005,jacket,AF,C,381315,381315,379689,380598,379690,381781,381115,381115,381781,84
82,test,1,con,1,z,Wed Mar 26 2025 10:52:54 GMT-0400 (Eastern Daylight Time),404719.80000019073,temper,1000,I,z,z,None,626,427.0,199.0,59,2,2157.9000000953674,402561.90000009537,9005,temper,AF,C,383515,383515,381790,382799,381790,383948,383315,383315,383948,85
83,test,1,inc,1,m,Wed Mar 26 2025 10:52:54 GMT-0400 (Eastern Daylight Time),406953.19999980927,love,1000,I,m,m,None,683,484.0,199.0,71,2,2224.5999999046326,404728.59999990463,9005,step,AF,C,385681,385682,383957,384965,383957,386181,385482,385482,386181,86
84,test,1,inc,1,m,Wed Mar 26 2025 10:52:54 GMT-0400 (Eastern Daylight Time),409036.40000009537,brutal,900,I,m,m,None,646,447.0,199.0,102,2,2073.4000000953674,406963.0,9005,jacket,AF,C,387815,387815,386191,387098,386192,388265,387614,387615,388264,87
85,test,1,inc,1,z,Wed Mar 26 2025 10:52:54 GMT-0400 (Eastern Daylight Time),411036.40000009537,rock,900,I,z,z,None,563,364.0,199.0,46,2,1990.5,409045.90000009537,9005,hate,AF,C,389898,389898,388274,389182,388274,390264,389699,389699,390264,88
86,test,1,con,1,m,Wed Mar 26 2025 10:52:54 GMT-0400 (Eastern Daylight Time),413019.69999980927,napkin,800,I,m,m,None,647,448.0,199.0,105,2,1974.5999999046326,411045.09999990463,9005,napkin,AF,C,391798,391798,390273,391082,390274,392248,391599,391599,392248,89
87,test,1,inc,1,z,Wed Mar 26 2025 10:52:54 GMT-0400 (Eastern Daylight Time),415169.80000019073,remote,1000,I,z,z,None,607,408.0,199.0,63,2,2139.4000000953674,413030.40000009537,9005,temper,AF,C,393981,393982,392258,393265,392259,394398,393782,393782,394398,90
88,test,1,inc,1,z,Wed Mar 26 2025 10:52:54 GMT-0400 (Eastern Daylight Time),417069.80000019073,jacket,800,I,z,z,None,561,362.0,199.0,61,2,1890.6000003814697,415179.19999980927,9005,temper,AF,C,395932,395932,394407,395215,394408,396298,395732,395732,396298,91
89,test,1,inc,1,m,Wed Mar 26 2025 10:52:54 GMT-0400 (Eastern Daylight Time),419285.80000019073,love,1000,I,m,m,None,668,469.0,199.0,79,2,2206.7000002861023,417079.09999990463,9005,rock,AF,C,398032,398032,396307,397315,396308,398514,397832,397832,398514,92
90,test,1,con,1,z,Wed Mar 26 2025 10:52:54 GMT-0400 (Eastern Daylight Time),421419.5,temper,900,I,z,z,None,698,498.0,200.0,58,2,2127.699999809265,419291.80000019073,9005,temper,AF,C,400148,400148,398520,399432,398520,400648,399948,399948,400647,93
91,test,1,inc,1,m,Wed Mar 26 2025 10:52:54 GMT-0400 (Eastern Daylight Time),423553.0,kind,900,I,m,m,None,692,493.0,199.0,86,2,2124.199999809265,421428.80000019073,9005,bell,AF,C,402281,402281,400657,401565,400657,402781,402082,402082,402781,94
92,test,1,con,1,z,Wed Mar 26 2025 10:52:54 GMT-0400 (Eastern Daylight Time),425686.40000009537,rage,800,I,z,z,None,786,587.0,199.0,49,2,2124.5999999046326,423561.80000019073,9005,rage,AF,C,404315,404315,402790,403598,402790,404915,404115,404115,404914,95
93,test,1,inc,1,z,Wed Mar 26 2025 10:52:54 GMT-0400 (Eastern Daylight Time),427986.5,film,1100,I,z,z,None,656,457.0,199.0,48,2,2289.800000190735,425696.69999980927,9005,hate,AF,C,406749,406749,404925,406032,404925,407215,406549,406549,407214,96
94,test,1,con,1,m,Wed Mar 26 2025 10:52:54 GMT-0400 (Eastern Daylight Time),430402.90000009537,remote,1100,I,m,m,None,774,574.0,200.0,116,2,2406.9000000953674,427996.0,9005,remote,AF,C,409048,409048,407224,408332,407224,409631,408848,408848,409631,97
95,test,1,inc,1,z,Wed Mar 26 2025 10:52:54 GMT-0400 (Eastern Daylight Time),432469.69999980927,step,800,I,z,z,None,720,521.0,199.0,13,2,2058.5,430411.19999980927,9005,kind,AF,C,411165,411165,409639,410448,409640,411698,410965,410965,411698,98
96,test,1,con,1,z,Wed Mar 26 2025 10:52:54 GMT-0400 (Eastern Daylight Time),434669.59999990463,rage,900,I,z,z,None,761,562.0,199.0,50,2,2190.9000000953674,432478.69999980927,9005,rage,AF,C,413332,413332,411707,412616,411707,413898,413132,413132,413898,99
97,test,1,con,1,m,Wed Mar 26 2025 10:52:54 GMT-0400 (Eastern Daylight Time),436602.59999990463,rock,900,I,m,m,None,497,298.0,199.0,74,2,1925.1999998092651,434677.40000009537,9005,rock,AF,C,415531,415532,413905,414815,413906,415831,415332,415332,415831,100
98,test,1,con,1,z,Wed Mar 26 2025 10:52:54 GMT-0400 (Eastern Daylight Time),438602.69999980927,kind,900,I,z,z,None,564,365.0,199.0,10,2,1992.5999999046326,436610.09999990463,9005,kind,AF,C,417465,417465,415838,416748,415838,417831,417265,417265,417831,101
99,test,1,inc,1,z,Wed Mar 26 2025 10:52:54 GMT-0400 (Eastern Daylight Time),440819.69999980927,window,1100,I,z,z,None,572,373.0,199.0,64,2,2206.2999997138977,438613.40000009537,9005,temper,AF,C,419665,419665,417841,418948,417842,420048,419465,419465,420048,102
100,test,1,inc,1,z,Wed Mar 26 2025 10:52:54 GMT-0400 (Eastern Daylight Time),443036.30000019073,window,1100,I,z,z,None,580,381.0,199.0,40,2,2208.6000003814697,440827.69999980927,9005,brutal,AF,C,421881,421881,420056,421165,420056,422264,421682,421682,422264,103
101,test,1,inc,1,m,Wed Mar 26 2025 10:52:54 GMT-0400 (Eastern Daylight Time),445069.69999980927,brutal,900,I,m,m,None,595,396.0,199.0,110,2,2022.8999996185303,443046.80000019073,9005,napkin,AF,C,423898,423898,422275,423182,422275,424298,423699,423699,424298,104
102,test,1,con,1,m,Wed Mar 26 2025 10:52:54 GMT-0400 (Eastern Daylight Time),446903.09999990463,window,800,I,m,m,None,486,286.0,200.0,121,2,1822.5999999046326,445080.5,9005,window,AF,C,425831,425832,424309,425115,424309,426131,425631,425631,426131,105
103,test,1,con,1,m,Wed Mar 26 2025 10:52:54 GMT-0400 (Eastern Daylight Time),449002.69999980927,film,1100,I,m,m,None,464,265.0,199.0,92,2,2090.5,446912.19999980927,9005,film,AF,C,427965,427965,426140,427248,426141,428231,427765,427765,428231,106
104,test,1,inc,1,z,Wed Mar 26 2025 10:52:54 GMT-0400 (Eastern Daylight Time),451169.59999990463,film,1100,I,z,z,None,524,325.0,199.0,56,2,2159.5,449010.09999990463,9005,rage,AF,C,430065,430065,428238,429348,428239,430398,429865,429865,430398,107
105,test,1,inc,1,m,Wed Mar 26 2025 10:52:54 GMT-0400 (Eastern Daylight Time),453319.5,temper,1000,I,m,m,None,601,402.0,199.0,103,2,2141.300000190735,451178.19999980927,9005,jacket,AF,C,432132,432132,430406,431415,430407,432548,431932,431932,432547,108
106,test,1,con,1,z,Wed Mar 26 2025 10:52:54 GMT-0400 (Eastern Daylight Time),455370.30000019073,rage,1100,I,z,z,None,416,216.0,200.0,52,2,2040.3000001907349,453330.0,9005,rage,AF,C,434382,434382,432558,433664,432559,434598,434181,434181,434598,109
107,test,1,con,1,m,Wed Mar 26 2025 10:52:54 GMT-0400 (Eastern Daylight Time),457469.59999990463,window,1100,I,m,m,None,461,262.0,199.0,124,2,2090.0999999046326,455379.5,9005,window,AF,C,436432,436432,434608,435715,434608,436698,436232,436232,436698,110
108,test,1,con,1,z,Wed Mar 26 2025 10:52:54 GMT-0400 (Eastern Daylight Time),459469.69999980927,brutal,800,I,z,z,None,661,462.0,199.0,33,2,1991.5,457478.19999980927,9005,brutal,AF,C,438232,438232,436706,437515,436707,438698,438032,438032,438698,111
109,test,1,con,1,z,Wed Mar 26 2025 10:52:54 GMT-0400 (Eastern Daylight Time),461369.5,kind,800,I,z,z,None,549,350.0,199.0,9,2,1888.6999998092651,459480.80000019073,9005,kind,AF,C,440231,440231,438709,439515,438709,440598,440032,440032,440597,112
110,test,1,con,1,m,Wed Mar 26 2025 10:52:54 GMT-0400 (Eastern Daylight Time),463319.80000019073,step,800,I,m,m,None,601,402.0,199.0,65,2,1942.9000000953674,461376.90000009537,9005,step,AF,C,442131,442132,440605,441415,440605,442548,441932,441932,442548,113
111,test,1,con,1,z,Wed Mar 26 2025 10:52:54 GMT-0400 (Eastern Daylight Time),465236.5,brutal,1000,I,z,z,None,372,173.0,199.0,35,2,1906.5,463330.0,9005,brutal,AF,C,444281,444281,442558,443565,442558,444465,444082,444082,444464,114
112,test,1,inc,1,z,Wed Mar 26 2025 10:52:54 GMT-0400 (Eastern Daylight Time),467486.40000009537,remote,1000,I,z,z,None,712,512.0,200.0,31,2,2241.0,465245.40000009537,9005,friend,AF,C,446198,446198,444473,445482,444474,446715,445998,445998,446714,115
113,test,1,con,1,m,Wed Mar 26 2025 10:52:54 GMT-0400 (Eastern Daylight Time),469486.40000009537,napkin,900,I,m,m,None,562,362.0,200.0,106,2,1990.5,467495.90000009537,9005,napkin,AF,C,448348,448348,446724,447632,446724,448715,448148,448148,448714,116
114,test,1,inc,1,z,Wed Mar 26 2025 10:52:54 GMT-0400 (Eastern Daylight Time),471653.09999990463,bell,1000,I,z,z,None,622,422.0,200.0,47,2,2158.2999997138977,469494.80000019073,9005,hate,AF,C,450448,450448,448723,449731,448723,450881,450248,450248,450881,117
115,test,1,con,1,z,Wed Mar 26 2025 10:52:54 GMT-0400 (Eastern Daylight Time),473619.59999990463,temper,800,I,z,z,None,622,423.0,199.0,57,2,1957.0999999046326,471662.5,9005,temper,AF,C,452415,452415,450891,451698,450891,452848,452215,452215,452848,118
116,test,1,con,1,z,Wed Mar 26 2025 10:52:54 GMT-0400 (Eastern Daylight Time),475802.69999980927,rage,1000,I,z,z,None,648,449.0,199.0,51,2,2169.699999809265,473633.0,9005,rage,AF,C,454581,454581,452861,453865,452861,455031,454382,454382,455031,119
117,test,1,inc,1,m,Wed Mar 26 2025 10:52:54 GMT-0400 (Eastern Daylight Time),477702.59999990463,elated,800,I,m,m,None,552,353.0,199.0,125,2,1890.0999999046326,475812.5,9005,window,AF,C,456565,456565,455041,455848,455041,456931,456365,456365,456931,120
118,test,1,inc,1,m,Wed Mar 26 2025 10:52:54 GMT-0400 (Eastern Daylight Time),480136.30000019073,hate,1100,I,m,m,None,784,585.0,199.0,96,2,2428.6000003814697,477707.69999980927,9005,film,AF,C,458765,458765,456936,458048,456936,459364,458565,458565,459364,121
119,test,1,inc,1,m,Wed Mar 26 2025 10:52:54 GMT-0400 (Eastern Daylight Time),482019.69999980927,brutal,900,I,m,m,None,440,240.0,200.0,118,2,1874.2999997138977,480145.40000009537,9005,remote,AF,C,460998,460998,459373,460282,459374,461248,460798,460798,461248,122
120,test,1,con,1,z,Wed Mar 26 2025 10:52:54 GMT-0400 (Eastern Daylight Time),484053.09999990463,hate,900,I,z,z,None,588,389.0,199.0,42,2,2023.2999997138977,482029.80000019073,9005,hate,AF,C,462881,462881,461258,462165,461258,463281,462682,462682,463281,123
121,test,1,con,1,z,Wed Mar 26 2025 10:52:54 GMT-0400 (Eastern Daylight Time),486269.5,hate,1100,I,z,z,None,578,379.0,199.0,44,2,2207.5,484062.0,9005,hate,AF,C,465115,465115,463290,464398,463290,465498,464915,464915,465498,124
122,test,1,con,1,z,Wed Mar 26 2025 10:52:54 GMT-0400 (Eastern Daylight Time),488336.30000019073,friend,1100,I,z,z,None,425,226.0,199.0,28,2,2058.0,486278.30000019073,9005,friend,AF,C,467331,467332,465506,466615,465507,467564,467132,467132,467564,125
122,test,1,con,0,m,Wed Mar 26 2025 10:52:54 GMT-0400 (Eastern Daylight Time),490236.40000009537,film,800,I,z,z,None,564,364.0,200.0,89,2,1889.5999999046326,488346.80000019073,9005,film,AF,C,469098,469098,467575,468381,467575,469464,468898,468898,469464,126
123,test,1,inc,1,z,Wed Mar 26 2025 10:52:54 GMT-0400 (Eastern Daylight Time),492503.0,napkin,900,I,z,z,None,819,620.0,199.0,30,2,2257.0,490246.0,9005,friend,AF,C,471098,471098,469474,470382,469474,471731,470899,470899,471731,127
124,test,1,con,1,m,Wed Mar 26 2025 10:52:54 GMT-0400 (Eastern Daylight Time),494602.69999980927,jacket,800,I,m,m,None,764,565.0,199.0,97,2,2090.5,492512.19999980927,9005,jacket,AF,C,473265,473265,471740,472548,471741,473831,473065,473065,473831,128
