acc_sum,block,block_c,change,condition,correct,correct_response,datetime,endtime,face,project,response,response_time,row_sel,session_number,start_end,starttime,subject_id,task,task_vers,trial
0,prac,1,,1-Back,,,Tue Feb 11 2025 09:58:58 GMT-0600 (Central Standard Time),,124_o_f_d_a.png,O,space,14737,1,1,,,7047,VNB,A,0
1,prac,1,0.0,1-Back,1,m,Tue Feb 11 2025 09:58:58 GMT-0600 (Central Standard Time),204764.3999999985,071_y_f_n_a.png,O,m,933,2,1,1739.0,203025.3999999985,7047,VNB,A,1
2,prac,1,0.0,1-Back,1,m,Tue Feb 11 2025 09:58:58 GMT-0600 (Central Standard Time),207463.6000000015,165_m_m_h_a.png,O,m,1890,3,1,2690.39999999851,204773.20000000298,7047,VNB,A,2
3,prac,1,0.0,1-Back,1,m,Tue Feb 11 2025 09:58:58 GMT-0600 (Central Standard Time),209362.79999999702,109_y_m_d_a.png,O,m,1088,4,1,1889.7999999970198,207473.0,7047,VNB,A,3
4,prac,1,0.0,1-Back,1,m,Tue Feb 11 2025 09:58:58 GMT-0600 (Central Standard Time),211312.5,124_o_f_n_a.png,O,m,1108,5,1,1940.2999999970198,209372.20000000298,7047,VNB,A,4
5,prac,1,1.0,1-Back,1,z,Tue Feb 11 2025 09:58:58 GMT-0600 (Central Standard Time),213161.79999999702,109_y_m_n_a.png,O,z,1040,6,1,1839.7999999970198,211322.0,7047,VNB,A,5
6,prac,1,0.0,1-Back,1,m,Tue Feb 11 2025 09:58:58 GMT-0600 (Central Standard Time),214861.29999999702,039_o_m_h_a.png,O,m,885,7,1,1690.0,213171.29999999702,7047,VNB,A,6
7,prac,1,0.0,1-Back,1,m,Tue Feb 11 2025 09:58:58 GMT-0600 (Central Standard Time),217344.20000000298,139_m_f_d_a.png,O,m,1672,8,1,2473.2000000029802,214871.0,7047,VNB,A,7
8,prac,1,1.0,1-Back,1,z,Tue Feb 11 2025 09:58:58 GMT-0600 (Central Standard Time),219076.70000000298,071_y_f_d_a.png,O,z,919,9,1,1723.4000000059605,217353.29999999702,7047,VNB,A,8
9,prac,1,0.0,1-Back,1,m,Tue Feb 11 2025 09:58:58 GMT-0600 (Central Standard Time),220876.20000000298,165_m_m_n_a.png,O,m,993,10,1,1790.4000000059605,219085.79999999702,7047,VNB,A,9
10,prac,1,0.0,1-Back,1,m,Tue Feb 11 2025 09:58:58 GMT-0600 (Central Standard Time),222958.6000000015,124_o_f_h_a.png,O,m,1257,11,1,2073.39999999851,220885.20000000298,7047,VNB,A,10
10,prac,1,0.0,1-Back,0,m,Tue Feb 11 2025 09:58:58 GMT-0600 (Central Standard Time),225358.1000000015,109_y_m_d_a.png,O,z,1609,12,1,2390.8000000044703,222967.29999999702,7047,VNB,A,11
0,test,1,0.0,1-Back,,,Tue Feb 11 2025 09:58:58 GMT-0600 (Central Standard Time),225358.1000000015,071_y_f_d_a.png,O,space,9372,1,1,2390.8000000044703,222967.29999999702,7047,VNB,A,0
1,test,1,0.0,1-Back,1,m,Tue Feb 11 2025 09:58:58 GMT-0600 (Central Standard Time),246134.5,139_m_f_n_a.png,O,m,952,2,1,1974.7000000029802,244159.79999999702,7047,VNB,A,1
1,test,1,0.0,1-Back,0,m,Tue Feb 11 2025 09:58:58 GMT-0600 (Central Standard Time),248717.5,039_o_m_h_a.png,O,z,1553,3,1,2573.2999999970198,246144.20000000298,7047,VNB,A,2
2,test,1,1.0,1-Back,1,z,Tue Feb 11 2025 09:58:58 GMT-0600 (Central Standard Time),251433.1000000015,165_m_m_h_a.png,O,z,1682,4,1,2707.7000000029802,248725.3999999985,7047,VNB,A,3
3,test,1,0.0,1-Back,1,m,Tue Feb 11 2025 09:58:58 GMT-0600 (Central Standard Time),253299.0,124_o_f_n_a.png,O,m,847,5,1,1858.0,251441.0,7047,VNB,A,4
4,test,1,0.0,1-Back,1,m,Tue Feb 11 2025 09:58:58 GMT-0600 (Central Standard Time),255631.8999999985,109_y_m_d_a.png,O,m,1301,6,1,2323.5,253308.3999999985,7047,VNB,A,5
5,test,1,1.0,1-Back,1,z,Tue Feb 11 2025 09:58:58 GMT-0600 (Central Standard Time),257631.20000000298,139_m_f_d_a.png,O,z,971,7,1,1991.4000000059605,255639.79999999702,7047,VNB,A,6
6,test,1,0.0,1-Back,1,m,Tue Feb 11 2025 09:58:58 GMT-0600 (Central Standard Time),259597.0,071_y_f_h_a.png,O,m,945,8,1,1957.7999999970198,257639.20000000298,7047,VNB,A,7
7,test,1,0.0,1-Back,1,m,Tue Feb 11 2025 09:58:58 GMT-0600 (Central Standard Time),261513.5,039_o_m_n_a.png,O,m,891,9,1,1907.2999999970198,259606.20000000298,7047,VNB,A,8
8,test,1,0.0,1-Back,1,m,Tue Feb 11 2025 09:58:58 GMT-0600 (Central Standard Time),263662.3999999985,109_y_m_h_a.png,O,m,1126,10,1,2139.6999999955297,261522.70000000298,7047,VNB,A,9
9,test,1,0.0,1-Back,1,m,Tue Feb 11 2025 09:58:58 GMT-0600 (Central Standard Time),266278.3999999985,039_o_m_d_a.png,O,m,1593,11,1,2607.5,263670.8999999985,7047,VNB,A,10
10,test,1,1.0,1-Back,1,z,Tue Feb 11 2025 09:58:58 GMT-0600 (Central Standard Time),268228.0,124_o_f_d_a.png,O,z,929,12,1,1941.3999999985099,266286.6000000015,7047,VNB,A,11
11,test,1,0.0,1-Back,1,m,Tue Feb 11 2025 09:58:58 GMT-0600 (Central Standard Time),270160.3999999985,165_m_m_n_a.png,O,m,908,13,1,1924.6000000014901,268235.799999997,7047,VNB,A,12
12,test,1,1.0,1-Back,1,z,Tue Feb 11 2025 09:58:58 GMT-0600 (Central Standard Time),272176.700000003,071_y_f_n_a.png,O,z,983,14,1,2008.4000000059605,270168.299999997,7047,VNB,A,13
13,test,1,0.0,1-Back,1,m,Tue Feb 11 2025 09:58:58 GMT-0600 (Central Standard Time),274709.200000003,139_m_f_h_a.png,O,m,1511,15,1,2524.9000000059605,272184.299999997,7047,VNB,A,14
14,test,1,0.0,1-Back,1,m,Tue Feb 11 2025 09:58:58 GMT-0600 (Central Standard Time),277025.3999999985,165_m_m_d_a.png,O,m,1291,16,1,2307.89999999851,274717.5,7047,VNB,A,15
15,test,1,0.0,1-Back,1,m,Tue Feb 11 2025 09:58:58 GMT-0600 (Central Standard Time),279690.8999999985,109_y_m_n_a.png,O,m,1647,17,1,2657.1999999955297,277033.700000003,7047,VNB,A,16
16,test,1,0.0,1-Back,1,m,Tue Feb 11 2025 09:58:58 GMT-0600 (Central Standard Time),281906.8999999985,124_o_f_h_a.png,O,m,1189,18,1,2208.7999999970198,279698.1000000015,7047,VNB,A,17
0,test,2,0.0,1-Back,,,Tue Feb 11 2025 09:58:58 GMT-0600 (Central Standard Time),281906.8999999985,109_y_m_n_a.png,O,space,2750,1,1,2208.7999999970198,279698.1000000015,7047,VNB,A,0
1,test,2,0.0,1-Back,1,m,Tue Feb 11 2025 09:58:58 GMT-0600 (Central Standard Time),288538.299999997,071_y_f_h_a.png,O,m,823,2,1,1841.3999999985099,286696.8999999985,7047,VNB,A,1
2,test,2,1.0,1-Back,1,m,Tue Feb 11 2025 09:58:58 GMT-0600 (Central Standard Time),290670.700000003,039_o_m_n_a.png,O,m,1110,3,1,2124.5,288546.200000003,7047,VNB,A,2
2,test,2,0.0,1-Back,0,m,Tue Feb 11 2025 09:58:58 GMT-0600 (Central Standard Time),293353.200000003,139_m_f_d_a.png,O,z,1649,4,1,2674.7000000029802,290678.5,7047,VNB,A,3
3,test,2,0.0,1-Back,1,z,Tue Feb 11 2025 09:58:58 GMT-0600 (Central Standard Time),295502.6000000015,165_m_m_d_a.png,O,z,1126,5,1,2140.7000000029802,293361.8999999985,7047,VNB,A,4
4,test,2,0.0,1-Back,1,m,Tue Feb 11 2025 09:58:58 GMT-0600 (Central Standard Time),297918.799999997,109_y_m_h_a.png,O,m,1393,6,1,2408.1999999955297,295510.6000000015,7047,VNB,A,5
5,test,2,1.0,1-Back,1,z,Tue Feb 11 2025 09:58:58 GMT-0600 (Central Standard Time),299867.8999999985,124_o_f_h_a.png,O,z,929,7,1,1941.1999999955297,297926.700000003,7047,VNB,A,6
6,test,2,0.0,1-Back,1,m,Tue Feb 11 2025 09:58:58 GMT-0600 (Central Standard Time),302183.8999999985,139_m_f_n_a.png,O,m,1284,8,1,2307.89999999851,299876.0,7047,VNB,A,7
7,test,2,0.0,1-Back,1,m,Tue Feb 11 2025 09:58:58 GMT-0600 (Central Standard Time),304483.1000000015,071_y_f_d_a.png,O,m,1272,9,1,2290.7000000029802,302192.3999999985,7047,VNB,A,8
8,test,2,0.0,1-Back,1,m,Tue Feb 11 2025 09:58:58 GMT-0600 (Central Standard Time),306482.799999997,165_m_m_n_a.png,O,m,973,10,1,1991.6999999955297,304491.1000000015,7047,VNB,A,9
9,test,2,1.0,1-Back,1,m,Tue Feb 11 2025 09:58:58 GMT-0600 (Central Standard Time),308598.3999999985,139_m_f_h_a.png,O,m,1085,11,1,2107.10000000149,306491.299999997,7047,VNB,A,10
10,test,2,0.0,1-Back,1,z,Tue Feb 11 2025 09:58:58 GMT-0600 (Central Standard Time),310464.6000000015,039_o_m_h_a.png,O,z,833,12,1,1857.2000000029802,308607.3999999985,7047,VNB,A,11
11,test,2,0.0,1-Back,1,m,Tue Feb 11 2025 09:58:58 GMT-0600 (Central Standard Time),312530.6000000015,109_y_m_d_a.png,O,m,1047,13,1,2058.10000000149,310472.5,7047,VNB,A,12
12,test,2,0.0,1-Back,1,m,Tue Feb 11 2025 09:58:58 GMT-0600 (Central Standard Time),314679.6000000015,124_o_f_n_a.png,O,m,1117,14,1,2141.10000000149,312538.5,7047,VNB,A,13
13,test,2,0.0,1-Back,1,z,Tue Feb 11 2025 09:58:58 GMT-0600 (Central Standard Time),316662.700000003,071_y_f_n_a.png,O,z,951,15,1,1974.8000000044703,314687.8999999985,7047,VNB,A,14
14,test,2,1.0,1-Back,1,m,Tue Feb 11 2025 09:58:58 GMT-0600 (Central Standard Time),318729.0,165_m_m_h_a.png,O,m,1033,16,1,2058.0,316671.0,7047,VNB,A,15
15,test,2,0.0,1-Back,1,m,Tue Feb 11 2025 09:58:58 GMT-0600 (Central Standard Time),320961.3999999985,124_o_f_d_a.png,O,m,1207,17,1,2224.5,318736.8999999985,7047,VNB,A,16
16,test,2,1.0,1-Back,1,z,Tue Feb 11 2025 09:58:58 GMT-0600 (Central Standard Time),323127.5,039_o_m_d_a.png,O,z,1144,18,1,2158.2999999970198,320969.200000003,7047,VNB,A,17
0,test,3,1.0,1-Back,,,Tue Feb 11 2025 09:58:58 GMT-0600 (Central Standard Time),323127.5,124_o_f_h_a.png,O,space,3225,1,1,2158.2999999970198,320969.200000003,7047,VNB,A,0
1,test,3,0.0,1-Back,1,m,Tue Feb 11 2025 09:58:58 GMT-0600 (Central Standard Time),330474.700000003,139_m_f_d_a.png,O,m,1046,2,1,2056.8000000044703,328417.8999999985,7047,VNB,A,1
2,test,3,1.0,1-Back,1,m,Tue Feb 11 2025 09:58:58 GMT-0600 (Central Standard Time),332641.200000003,165_m_m_n_a.png,O,m,1141,3,1,2158.2000000029802,330483.0,7047,VNB,A,2
3,test,3,0.0,1-Back,1,z,Tue Feb 11 2025 09:58:58 GMT-0600 (Central Standard Time),334506.8999999985,124_o_f_n_a.png,O,z,847,4,1,1856.1000000014901,332650.799999997,7047,VNB,A,3
4,test,3,1.0,1-Back,1,m,Tue Feb 11 2025 09:58:58 GMT-0600 (Central Standard Time),336639.8999999985,039_o_m_d_a.png,O,m,1109,5,1,2125.2999999970198,334514.6000000015,7047,VNB,A,4
5,test,3,0.0,1-Back,1,m,Tue Feb 11 2025 09:58:58 GMT-0600 (Central Standard Time),339038.799999997,071_y_f_h_a.png,O,m,1368,6,1,2390.89999999851,336647.8999999985,7047,VNB,A,5
6,test,3,0.0,1-Back,1,z,Tue Feb 11 2025 09:58:58 GMT-0600 (Central Standard Time),340971.6000000015,109_y_m_h_a.png,O,z,913,7,1,1924.2000000029802,339047.3999999985,7047,VNB,A,6
7,test,3,0.0,1-Back,1,m,Tue Feb 11 2025 09:58:58 GMT-0600 (Central Standard Time),343120.799999997,139_m_f_n_a.png,O,m,1116,8,1,2140.6999999955297,340980.1000000015,7047,VNB,A,7
8,test,3,0.0,1-Back,1,m,Tue Feb 11 2025 09:58:58 GMT-0600 (Central Standard Time),345936.799999997,071_y_f_d_a.png,O,m,1783,9,1,2807.1999999955297,343129.6000000015,7047,VNB,A,8
8,test,3,1.0,1-Back,0,m,Tue Feb 11 2025 09:58:58 GMT-0600 (Central Standard Time),348969.299999997,039_o_m_n_a.png,O,None,2014,10,1,3024.5999999940395,345944.700000003,7047,VNB,A,9
9,test,3,0.0,1-Back,1,m,Tue Feb 11 2025 09:58:58 GMT-0600 (Central Standard Time),351385.1000000015,165_m_m_h_a.png,O,m,1381,11,1,2407.8000000044703,348977.299999997,7047,VNB,A,10
10,test,3,0.0,1-Back,1,z,Tue Feb 11 2025 09:58:58 GMT-0600 (Central Standard Time),353468.0,139_m_f_h_a.png,O,z,1055,12,1,2075.0,351393.0,7047,VNB,A,11
11,test,3,1.0,1-Back,1,m,Tue Feb 11 2025 09:58:58 GMT-0600 (Central Standard Time),355318.299999997,124_o_f_d_a.png,O,m,820,13,1,1841.6999999955297,353476.6000000015,7047,VNB,A,12
11,test,3,0.0,1-Back,0,z,Tue Feb 11 2025 09:58:58 GMT-0600 (Central Standard Time),357933.200000003,165_m_m_d_a.png,O,m,1594,14,1,2606.4000000059605,355326.799999997,7047,VNB,A,13
12,test,3,0.0,1-Back,1,m,Tue Feb 11 2025 09:58:58 GMT-0600 (Central Standard Time),360032.3999999985,109_y_m_n_a.png,O,m,1075,15,1,2091.60000000149,357940.799999997,7047,VNB,A,14
13,test,3,1.0,1-Back,1,m,Tue Feb 11 2025 09:58:58 GMT-0600 (Central Standard Time),362048.5,039_o_m_h_a.png,O,m,991,16,1,2008.2999999970198,360040.200000003,7047,VNB,A,15
14,test,3,0.0,1-Back,1,m,Tue Feb 11 2025 09:58:58 GMT-0600 (Central Standard Time),364481.1000000015,109_y_m_d_a.png,O,m,1399,17,1,2424.8000000044703,362056.299999997,7047,VNB,A,16
15,test,3,1.0,1-Back,1,m,Tue Feb 11 2025 09:58:58 GMT-0600 (Central Standard Time),366980.1000000015,071_y_f_n_a.png,O,m,1478,18,1,2491.39999999851,364488.700000003,7047,VNB,A,17
0,test,4,1.0,1-Back,,,Tue Feb 11 2025 09:58:58 GMT-0600 (Central Standard Time),366980.1000000015,165_m_m_d_a.png,O,space,2549,1,1,2491.39999999851,364488.700000003,7047,VNB,A,0
1,test,4,0.0,1-Back,1,z,Tue Feb 11 2025 09:58:58 GMT-0600 (Central Standard Time),373678.200000003,039_o_m_d_a.png,O,z,1069,2,1,2090.4000000059605,371587.799999997,7047,VNB,A,1
2,test,4,0.0,1-Back,1,m,Tue Feb 11 2025 09:58:58 GMT-0600 (Central Standard Time),375594.3999999985,109_y_m_h_a.png,O,m,889,3,1,1908.1999999955297,373686.200000003,7047,VNB,A,2
3,test,4,0.0,1-Back,1,m,Tue Feb 11 2025 09:58:58 GMT-0600 (Central Standard Time),377660.1000000015,139_m_f_n_a.png,O,m,1046,4,1,2057.10000000149,375603.0,7047,VNB,A,3
4,test,4,1.0,1-Back,1,m,Tue Feb 11 2025 09:58:58 GMT-0600 (Central Standard Time),379759.6000000015,124_o_f_h_a.png,O,m,1076,5,1,2092.10000000149,377667.5,7047,VNB,A,4
5,test,4,0.0,1-Back,1,m,Tue Feb 11 2025 09:58:58 GMT-0600 (Central Standard Time),381692.3999999985,165_m_m_n_a.png,O,m,904,6,1,1924.6000000014901,379767.799999997,7047,VNB,A,5
6,test,4,0.0,1-Back,1,m,Tue Feb 11 2025 09:58:58 GMT-0600 (Central Standard Time),384108.0,109_y_m_d_a.png,O,m,1387,7,1,2407.5,381700.5,7047,VNB,A,6
7,test,4,1.0,1-Back,1,z,Tue Feb 11 2025 09:58:58 GMT-0600 (Central Standard Time),385957.700000003,071_y_f_d_a.png,O,z,827,8,1,1840.4000000059605,384117.299999997,7047,VNB,A,7
8,test,4,0.0,1-Back,1,m,Tue Feb 11 2025 09:58:58 GMT-0600 (Central Standard Time),388123.700000003,139_m_f_h_a.png,O,m,1146,9,1,2158.5,385965.200000003,7047,VNB,A,8
9,test,4,0.0,1-Back,1,z,Tue Feb 11 2025 09:58:58 GMT-0600 (Central Standard Time),390189.700000003,039_o_m_h_a.png,O,z,1036,10,1,2058.0,388131.700000003,7047,VNB,A,9
10,test,4,1.0,1-Back,1,m,Tue Feb 11 2025 09:58:58 GMT-0600 (Central Standard Time),392089.200000003,124_o_f_n_a.png,O,m,874,11,1,1890.8000000044703,390198.3999999985,7047,VNB,A,10
11,test,4,0.0,1-Back,1,m,Tue Feb 11 2025 09:58:58 GMT-0600 (Central Standard Time),394804.799999997,139_m_f_d_a.png,O,m,1695,12,1,2707.0999999940395,392097.700000003,7047,VNB,A,11
12,test,4,0.0,1-Back,1,m,Tue Feb 11 2025 09:58:58 GMT-0600 (Central Standard Time),397104.0,071_y_f_n_a.png,O,m,1275,13,1,2290.7999999970198,394813.200000003,7047,VNB,A,12
13,test,4,0.0,1-Back,1,m,Tue Feb 11 2025 09:58:58 GMT-0600 (Central Standard Time),399820.200000003,124_o_f_d_a.png,O,m,1688,14,1,2707.7000000029802,397112.5,7047,VNB,A,13
14,test,4,0.0,1-Back,1,m,Tue Feb 11 2025 09:58:58 GMT-0600 (Central Standard Time),401903.3999999985,071_y_f_h_a.png,O,m,1052,15,1,2075.7999999970198,399827.6000000015,7047,VNB,A,14
15,test,4,1.0,1-Back,1,z,Tue Feb 11 2025 09:58:58 GMT-0600 (Central Standard Time),403802.299999997,165_m_m_h_a.png,O,z,865,16,1,1891.0,401911.299999997,7047,VNB,A,15
16,test,4,0.0,1-Back,1,m,Tue Feb 11 2025 09:58:58 GMT-0600 (Central Standard Time),405834.799999997,039_o_m_n_a.png,O,m,1006,17,1,2024.5999999940395,403810.200000003,7047,VNB,A,16
17,test,4,1.0,1-Back,1,z,Tue Feb 11 2025 09:58:58 GMT-0600 (Central Standard Time),407900.799999997,109_y_m_n_a.png,O,z,1045,18,1,2056.5,405844.299999997,7047,VNB,A,17
0,test,5,1.0,1-Back,,,Tue Feb 11 2025 09:58:58 GMT-0600 (Central Standard Time),407900.799999997,039_o_m_n_a.png,O,space,3668,1,1,2056.5,405844.299999997,7047,VNB,A,0
1,test,5,1.0,1-Back,1,m,Tue Feb 11 2025 09:58:58 GMT-0600 (Central Standard Time),415531.799999997,124_o_f_h_a.png,O,m,913,2,1,1924.5999999940395,413607.200000003,7047,VNB,A,1
2,test,5,0.0,1-Back,1,m,Tue Feb 11 2025 09:58:58 GMT-0600 (Central Standard Time),417847.6000000015,109_y_m_d_a.png,O,m,1292,3,1,2308.2000000029802,415539.3999999985,7047,VNB,A,2
3,test,5,0.0,1-Back,1,z,Tue Feb 11 2025 09:58:58 GMT-0600 (Central Standard Time),419830.299999997,039_o_m_d_a.png,O,z,960,4,1,1974.1999999955297,417856.1000000015,7047,VNB,A,3
4,test,5,0.0,1-Back,1,m,Tue Feb 11 2025 09:58:58 GMT-0600 (Central Standard Time),422513.200000003,139_m_f_h_a.png,O,m,1650,5,1,2674.9000000059605,419838.299999997,7047,VNB,A,4
5,test,5,0.0,1-Back,1,m,Tue Feb 11 2025 09:58:58 GMT-0600 (Central Standard Time),424545.799999997,071_y_f_n_a.png,O,m,1007,6,1,2024.2999999970198,422521.5,7047,VNB,A,5
6,test,5,1.0,1-Back,1,z,Tue Feb 11 2025 09:58:58 GMT-0600 (Central Standard Time),426545.0,124_o_f_n_a.png,O,z,973,7,1,1991.2000000029802,424553.799999997,7047,VNB,A,6
7,test,5,0.0,1-Back,1,m,Tue Feb 11 2025 09:58:58 GMT-0600 (Central Standard Time),429010.8999999985,139_m_f_d_a.png,O,m,1439,8,1,2458.39999999851,426552.5,7047,VNB,A,7
8,test,5,0.0,1-Back,1,m,Tue Feb 11 2025 09:58:58 GMT-0600 (Central Standard Time),431443.700000003,109_y_m_h_a.png,O,m,1405,9,1,2424.5,429019.200000003,7047,VNB,A,8
9,test,5,0.0,1-Back,1,m,Tue Feb 11 2025 09:58:58 GMT-0600 (Central Standard Time),433959.299999997,071_y_f_d_a.png,O,m,1492,10,1,2507.5,431451.799999997,7047,VNB,A,9
10,test,5,0.0,1-Back,1,m,Tue Feb 11 2025 09:58:58 GMT-0600 (Central Standard Time),436775.1000000015,165_m_m_n_a.png,O,m,1785,11,1,2807.89999999851,433967.200000003,7047,VNB,A,10
11,test,5,1.0,1-Back,1,z,Tue Feb 11 2025 09:58:58 GMT-0600 (Central Standard Time),438624.5,139_m_f_n_a.png,O,z,825,12,1,1841.1000000014901,436783.3999999985,7047,VNB,A,11
12,test,5,0.0,1-Back,1,m,Tue Feb 11 2025 09:58:58 GMT-0600 (Central Standard Time),440524.0,039_o_m_h_a.png,O,m,879,13,1,1891.2000000029802,438632.799999997,7047,VNB,A,12
13,test,5,0.0,1-Back,1,z,Tue Feb 11 2025 09:58:58 GMT-0600 (Central Standard Time),442490.1000000015,165_m_m_h_a.png,O,z,932,14,1,1956.7000000029802,440533.3999999985,7047,VNB,A,13
14,test,5,1.0,1-Back,1,m,Tue Feb 11 2025 09:58:58 GMT-0600 (Central Standard Time),445083.3999999985,124_o_f_d_a.png,O,m,1428,15,1,2584.6999999955297,442498.700000003,7047,VNB,A,14
15,test,5,0.0,1-Back,1,m,Tue Feb 11 2025 09:58:58 GMT-0600 (Central Standard Time),446888.6000000015,109_y_m_n_a.png,O,m,767,16,1,1793.1000000014901,445095.5,7047,VNB,A,15
16,test,5,0.0,1-Back,1,m,Tue Feb 11 2025 09:58:58 GMT-0600 (Central Standard Time),449137.8999999985,071_y_f_h_a.png,O,m,1215,17,1,2241.0,446896.8999999985,7047,VNB,A,16
17,test,5,0.0,1-Back,1,m,Tue Feb 11 2025 09:58:58 GMT-0600 (Central Standard Time),451503.8999999985,165_m_m_d_a.png,O,m,1342,18,1,2358.0,449145.8999999985,7047,VNB,A,17
0,prac,1,0.0,2-Back,,,Tue Feb 11 2025 09:58:58 GMT-0600 (Central Standard Time),451503.8999999985,139_m_f_n_a.png,O,space,16423,1,1,2358.0,449145.8999999985,7047,VNB,A,0
0,prac,1,0.0,2-Back,,,Tue Feb 11 2025 09:58:58 GMT-0600 (Central Standard Time),451503.8999999985,124_o_f_h_a.png,O,space,16423,2,1,2358.0,449145.8999999985,7047,VNB,A,0
1,prac,1,0.0,2-Back,1,m,Tue Feb 11 2025 09:58:58 GMT-0600 (Central Standard Time),615702.799999997,039_o_m_d_a.png,O,m,1189,3,1,1988.8999999985099,613713.8999999985,7047,VNB,A,1
2,prac,1,1.0,2-Back,1,z,Tue Feb 11 2025 09:58:58 GMT-0600 (Central Standard Time),617385.3999999985,165_m_m_h_a.png,O,z,870,4,1,1673.8999999985099,615711.5,7047,VNB,A,2
2,prac,1,0.0,2-Back,0,m,Tue Feb 11 2025 09:58:58 GMT-0600 (Central Standard Time),620201.1000000015,071_y_f_n_a.png,O,None,2013,5,1,2806.89999999851,617394.200000003,7047,VNB,A,3
2,prac,1,1.0,2-Back,0,z,Tue Feb 11 2025 09:58:58 GMT-0600 (Central Standard Time),622934.0,039_o_m_h_a.png,O,m,1926,6,1,2724.10000000149,620209.8999999985,7047,VNB,A,4
2,prac,1,1.0,2-Back,0,z,Tue Feb 11 2025 09:58:58 GMT-0600 (Central Standard Time),625232.8999999985,109_y_m_n_a.png,O,m,1474,7,1,2289.89999999851,622943.0,7047,VNB,A,5
3,prac,1,0.0,2-Back,1,m,Tue Feb 11 2025 09:58:58 GMT-0600 (Central Standard Time),627716.6000000015,139_m_f_d_a.png,O,m,1669,8,1,2475.3000000044703,625241.299999997,7047,VNB,A,6
3,prac,1,0.0,2-Back,0,m,Tue Feb 11 2025 09:58:58 GMT-0600 (Central Standard Time),630481.200000003,124_o_f_d_a.png,O,z,1913,9,1,2755.8000000044703,627725.3999999985,7047,VNB,A,7
4,prac,1,0.0,2-Back,1,m,Tue Feb 11 2025 09:58:58 GMT-0600 (Central Standard Time),633047.3999999985,165_m_m_h_a.png,O,m,1775,10,1,2557.7999999970198,630489.6000000015,7047,VNB,A,8
5,prac,1,1.0,2-Back,1,z,Tue Feb 11 2025 09:58:58 GMT-0600 (Central Standard Time),634913.5,071_y_f_d_a.png,O,z,1056,11,1,1857.8999999985099,633055.6000000015,7047,VNB,A,9
6,prac,1,0.0,2-Back,1,m,Tue Feb 11 2025 09:58:58 GMT-0600 (Central Standard Time),637045.799999997,039_o_m_n_a.png,O,m,1316,12,1,2122.1999999955297,634923.6000000015,7047,VNB,A,10
0,prac,2,0.0,2-Back,,,Tue Feb 11 2025 09:58:58 GMT-0600 (Central Standard Time),637045.799999997,139_m_f_n_a.png,O,a,3319,1,1,2122.1999999955297,634923.6000000015,7047,VNB,A,0
0,prac,2,0.0,2-Back,,,Tue Feb 11 2025 09:58:58 GMT-0600 (Central Standard Time),637045.799999997,124_o_f_h_a.png,O,a,3319,2,1,2122.1999999955297,634923.6000000015,7047,VNB,A,0
1,prac,2,0.0,2-Back,1,m,Tue Feb 11 2025 09:58:58 GMT-0600 (Central Standard Time),647809.200000003,039_o_m_d_a.png,O,m,1482,3,1,2290.2000000029802,645519.0,7047,VNB,A,1
2,prac,2,1.0,2-Back,1,z,Tue Feb 11 2025 09:58:58 GMT-0600 (Central Standard Time),649725.299999997,165_m_m_h_a.png,O,z,1126,4,1,1907.0999999940395,647818.200000003,7047,VNB,A,2
3,prac,2,0.0,2-Back,1,m,Tue Feb 11 2025 09:58:58 GMT-0600 (Central Standard Time),651408.0,071_y_f_n_a.png,O,m,864,5,1,1673.7999999970198,649734.200000003,7047,VNB,A,3
3,prac,2,1.0,2-Back,0,z,Tue Feb 11 2025 09:58:58 GMT-0600 (Central Standard Time),654024.200000003,039_o_m_h_a.png,O,m,1808,6,1,2607.5,651416.700000003,7047,VNB,A,4
3,prac,2,1.0,2-Back,0,z,Tue Feb 11 2025 09:58:58 GMT-0600 (Central Standard Time),656915.700000003,109_y_m_n_a.png,O,None,2005,7,1,2880.60000000149,654035.1000000015,7047,VNB,A,5
4,prac,2,0.0,2-Back,1,m,Tue Feb 11 2025 09:58:58 GMT-0600 (Central Standard Time),659388.8999999985,139_m_f_d_a.png,O,m,1644,8,1,2460.2999999970198,656928.6000000015,7047,VNB,A,6
4,prac,2,0.0,2-Back,0,m,Tue Feb 11 2025 09:58:58 GMT-0600 (Central Standard Time),661588.3999999985,124_o_f_d_a.png,O,z,1363,9,1,2190.89999999851,659397.5,7047,VNB,A,7
4,prac,2,0.0,2-Back,0,m,Tue Feb 11 2025 09:58:58 GMT-0600 (Central Standard Time),663437.8999999985,165_m_m_h_a.png,O,z,1067,10,1,1840.6000000014901,661597.299999997,7047,VNB,A,8
4,prac,2,1.0,2-Back,0,z,Tue Feb 11 2025 09:58:58 GMT-0600 (Central Standard Time),666253.299999997,071_y_f_d_a.png,O,None,2014,11,1,2806.7999999970198,663446.5,7047,VNB,A,9
4,prac,2,0.0,2-Back,0,m,Tue Feb 11 2025 09:58:58 GMT-0600 (Central Standard Time),669069.1000000015,039_o_m_n_a.png,O,None,2016,12,1,2807.3000000044703,666261.799999997,7047,VNB,A,10
0,test,1,0.0,2-Back,,,Tue Feb 11 2025 09:58:58 GMT-0600 (Central Standard Time),669069.1000000015,109_y_m_h_a.png,O,space,1942,1,1,2807.3000000044703,666261.799999997,7047,VNB,A,0
0,test,1,0.0,2-Back,,,Tue Feb 11 2025 09:58:58 GMT-0600 (Central Standard Time),669069.1000000015,124_o_f_n_a.png,O,space,1942,2,1,2807.3000000044703,666261.799999997,7047,VNB,A,0
1,test,1,0.0,2-Back,1,z,Tue Feb 11 2025 09:58:58 GMT-0600 (Central Standard Time),699992.700000003,039_o_m_h_a.png,O,z,1116,3,1,2140.8000000044703,697851.8999999985,7047,VNB,A,1
2,test,1,0.0,2-Back,1,m,Tue Feb 11 2025 09:58:58 GMT-0600 (Central Standard Time),702475.200000003,139_m_f_d_a.png,O,m,1455,4,1,2474.60000000149,700000.6000000015,7047,VNB,A,2
3,test,1,1.0,2-Back,1,m,Tue Feb 11 2025 09:58:58 GMT-0600 (Central Standard Time),705240.8999999985,109_y_m_n_a.png,O,m,1740,5,1,2758.10000000149,702482.799999997,7047,VNB,A,3
3,test,1,0.0,2-Back,0,z,Tue Feb 11 2025 09:58:58 GMT-0600 (Central Standard Time),708273.3999999985,071_y_f_d_a.png,O,None,2014,6,1,3024.7999999970198,705248.6000000015,7047,VNB,A,4
3,test,1,0.0,2-Back,0,m,Tue Feb 11 2025 09:58:58 GMT-0600 (Central Standard Time),710272.799999997,165_m_m_h_a.png,O,z,975,7,1,1990.6999999955297,708282.1000000015,7047,VNB,A,5
4,test,1,1.0,2-Back,1,m,Tue Feb 11 2025 09:58:58 GMT-0600 (Central Standard Time),712605.5,071_y_f_n_a.png,O,m,1311,8,1,2324.89999999851,710280.6000000015,7047,VNB,A,6
4,test,1,0.0,2-Back,0,z,Tue Feb 11 2025 09:58:58 GMT-0600 (Central Standard Time),715637.8999999985,124_o_f_h_a.png,O,None,2014,9,1,3023.60000000149,712614.299999997,7047,VNB,A,7
4,test,1,0.0,2-Back,0,m,Tue Feb 11 2025 09:58:58 GMT-0600 (Central Standard Time),718670.299999997,039_o_m_d_a.png,O,None,2014,10,1,3024.39999999851,715645.8999999985,7047,VNB,A,8
5,test,1,1.0,2-Back,1,m,Tue Feb 11 2025 09:58:58 GMT-0600 (Central Standard Time),721269.3999999985,165_m_m_d_a.png,O,m,1569,11,1,2591.1999999955297,718678.200000003,7047,VNB,A,9
5,test,1,0.0,2-Back,0,m,Tue Feb 11 2025 09:58:58 GMT-0600 (Central Standard Time),724302.0,139_m_f_n_a.png,O,None,2014,12,1,3024.7999999970198,721277.200000003,7047,VNB,A,10
6,test,1,0.0,2-Back,1,m,Tue Feb 11 2025 09:58:58 GMT-0600 (Central Standard Time),726751.200000003,071_y_f_h_a.png,O,m,1426,13,1,2441.4000000059605,724309.799999997,7047,VNB,A,11
6,test,1,0.0,2-Back,0,z,Tue Feb 11 2025 09:58:58 GMT-0600 (Central Standard Time),729783.299999997,165_m_m_n_a.png,O,None,2013,14,1,3024.5999999940395,726758.700000003,7047,VNB,A,12
6,test,1,0.0,2-Back,0,m,Tue Feb 11 2025 09:58:58 GMT-0600 (Central Standard Time),732816.0,109_y_m_d_a.png,O,None,2014,15,1,3024.7999999970198,729791.200000003,7047,VNB,A,13
7,test,1,1.0,2-Back,1,m,Tue Feb 11 2025 09:58:58 GMT-0600 (Central Standard Time),735548.3999999985,139_m_f_h_a.png,O,m,1703,16,1,2724.6999999955297,732823.700000003,7047,VNB,A,14
8,test,1,0.0,2-Back,1,z,Tue Feb 11 2025 09:58:58 GMT-0600 (Central Standard Time),738064.299999997,124_o_f_d_a.png,O,z,1491,17,1,2508.1999999955297,735556.1000000015,7047,VNB,A,15
8,test,1,0.0,2-Back,0,m,Tue Feb 11 2025 09:58:58 GMT-0600 (Central Standard Time),740863.299999997,039_o_m_n_a.png,O,z,1776,18,1,2788.7999999970198,738074.5,7047,VNB,A,16
0,test,2,0.0,2-Back,,,Tue Feb 11 2025 09:58:58 GMT-0600 (Central Standard Time),740863.299999997,165_m_m_h_a.png,O,space,5882,1,1,2788.7999999970198,738074.5,7047,VNB,A,0
0,test,2,0.0,2-Back,,,Tue Feb 11 2025 09:58:58 GMT-0600 (Central Standard Time),740863.299999997,071_y_f_n_a.png,O,space,5882,2,1,2788.7999999970198,738074.5,7047,VNB,A,0
1,test,2,1.0,2-Back,1,z,Tue Feb 11 2025 09:58:58 GMT-0600 (Central Standard Time),753842.6000000015,124_o_f_h_a.png,O,z,949,3,1,1975.1000000014901,751867.5,7047,VNB,A,1
2,test,2,0.0,2-Back,1,m,Tue Feb 11 2025 09:58:58 GMT-0600 (Central Standard Time),756092.0,039_o_m_d_a.png,O,m,1228,4,1,2241.10000000149,753850.8999999985,7047,VNB,A,2
2,test,2,0.0,2-Back,0,m,Tue Feb 11 2025 09:58:58 GMT-0600 (Central Standard Time),758791.0,139_m_f_d_a.png,O,z,1677,5,1,2690.60000000149,756100.3999999985,7047,VNB,A,3
3,test,2,0.0,2-Back,1,m,Tue Feb 11 2025 09:58:58 GMT-0600 (Central Standard Time),761156.799999997,109_y_m_h_a.png,O,m,1345,6,1,2358.0999999940395,758798.700000003,7047,VNB,A,4
4,test,2,0.0,2-Back,1,m,Tue Feb 11 2025 09:58:58 GMT-0600 (Central Standard Time),763606.200000003,124_o_f_n_a.png,O,m,1427,7,1,2440.9000000059605,761165.299999997,7047,VNB,A,5
5,test,2,1.0,2-Back,1,z,Tue Feb 11 2025 09:58:58 GMT-0600 (Central Standard Time),765372.200000003,039_o_m_h_a.png,O,z,737,8,1,1758.0,763614.200000003,7047,VNB,A,6
6,test,2,0.0,2-Back,1,m,Tue Feb 11 2025 09:58:58 GMT-0600 (Central Standard Time),768104.6000000015,071_y_f_d_a.png,O,m,1700,9,1,2723.8000000044703,765380.799999997,7047,VNB,A,7
6,test,2,0.0,2-Back,0,m,Tue Feb 11 2025 09:58:58 GMT-0600 (Central Standard Time),771137.299999997,109_y_m_d_a.png,O,None,2014,10,1,3024.6999999955297,768112.6000000015,7047,VNB,A,8
7,test,2,0.0,2-Back,1,m,Tue Feb 11 2025 09:58:58 GMT-0600 (Central Standard Time),773886.299999997,165_m_m_n_a.png,O,m,1719,11,1,2741.0999999940395,771145.200000003,7047,VNB,A,9
8,test,2,0.0,2-Back,1,m,Tue Feb 11 2025 09:58:58 GMT-0600 (Central Standard Time),776085.6000000015,139_m_f_h_a.png,O,m,1169,12,1,2191.5,773894.1000000015,7047,VNB,A,10
9,test,2,1.0,2-Back,1,z,Tue Feb 11 2025 09:58:58 GMT-0600 (Central Standard Time),778201.6000000015,039_o_m_n_a.png,O,z,1090,13,1,2108.2000000029802,776093.3999999985,7047,VNB,A,11
9,test,2,0.0,2-Back,0,m,Tue Feb 11 2025 09:58:58 GMT-0600 (Central Standard Time),781233.8999999985,124_o_f_d_a.png,O,None,2014,14,1,3024.5,778209.3999999985,7047,VNB,A,12
9,test,2,0.0,2-Back,0,m,Tue Feb 11 2025 09:58:58 GMT-0600 (Central Standard Time),784266.299999997,071_y_f_h_a.png,O,None,2014,15,1,3024.1999999955297,781242.1000000015,7047,VNB,A,13
9,test,2,0.0,2-Back,0,z,Tue Feb 11 2025 09:58:58 GMT-0600 (Central Standard Time),786582.200000003,165_m_m_d_a.png,O,m,1285,16,1,2307.5,784274.700000003,7047,VNB,A,14
9,test,2,0.0,2-Back,0,m,Tue Feb 11 2025 09:58:58 GMT-0600 (Central Standard Time),789615.0,109_y_m_n_a.png,O,None,2015,17,1,3025.10000000149,786589.8999999985,7047,VNB,A,15
9,test,2,1.0,2-Back,0,m,Tue Feb 11 2025 09:58:58 GMT-0600 (Central Standard Time),792647.299999997,139_m_f_n_a.png,O,None,2014,18,1,3024.7999999970198,789622.5,7047,VNB,A,16
0,test,3,1.0,2-Back,,,Tue Feb 11 2025 09:58:58 GMT-0600 (Central Standard Time),792647.299999997,039_o_m_n_a.png,O,space,4769,1,1,3024.7999999970198,789622.5,7047,VNB,A,0
0,test,3,1.0,2-Back,,,Tue Feb 11 2025 09:58:58 GMT-0600 (Central Standard Time),792647.299999997,124_o_f_d_a.png,O,space,4769,2,1,3024.7999999970198,789622.5,7047,VNB,A,0
1,test,3,0.0,2-Back,1,m,Tue Feb 11 2025 09:58:58 GMT-0600 (Central Standard Time),804676.700000003,071_y_f_h_a.png,O,m,1111,3,1,2124.8000000044703,802551.8999999985,7047,VNB,A,1
2,test,3,0.0,2-Back,1,z,Tue Feb 11 2025 09:58:58 GMT-0600 (Central Standard Time),806659.5,139_m_f_d_a.png,O,z,955,4,1,1975.0,804684.5,7047,VNB,A,2
3,test,3,1.0,2-Back,1,m,Tue Feb 11 2025 09:58:58 GMT-0600 (Central Standard Time),808992.0,109_y_m_n_a.png,O,m,1300,5,1,2324.2999999970198,806667.700000003,7047,VNB,A,3
3,test,3,0.0,2-Back,0,m,Tue Feb 11 2025 09:58:58 GMT-0600 (Central Standard Time),812024.6000000015,039_o_m_h_a.png,O,None,2014,6,1,3024.89999999851,808999.700000003,7047,VNB,A,4
4,test,3,0.0,2-Back,1,z,Tue Feb 11 2025 09:58:58 GMT-0600 (Central Standard Time),813924.799999997,071_y_f_n_a.png,O,z,871,7,1,1893.2999999970198,812031.5,7047,VNB,A,5
5,test,3,1.0,2-Back,1,m,Tue Feb 11 2025 09:58:58 GMT-0600 (Central Standard Time),816122.799999997,165_m_m_d_a.png,O,m,1180,8,1,2189.2999999970198,813933.5,7047,VNB,A,6
5,test,3,0.0,2-Back,0,m,Tue Feb 11 2025 09:58:58 GMT-0600 (Central Standard Time),818589.1000000015,109_y_m_d_a.png,O,z,1437,9,1,2458.39999999851,816130.700000003,7047,VNB,A,7
5,test,3,0.0,2-Back,0,m,Tue Feb 11 2025 09:58:58 GMT-0600 (Central Standard Time),821698.8999999985,124_o_f_h_a.png,O,None,2092,10,1,3101.6999999955297,818597.200000003,7047,VNB,A,8
6,test,3,1.0,2-Back,1,m,Tue Feb 11 2025 09:58:58 GMT-0600 (Central Standard Time),823788.5,139_m_f_n_a.png,O,m,1063,11,1,2077.5,821711.0,7047,VNB,A,9
7,test,3,1.0,2-Back,1,z,Tue Feb 11 2025 09:58:58 GMT-0600 (Central Standard Time),826219.8999999985,165_m_m_h_a.png,O,z,1404,12,1,2423.10000000149,823796.799999997,7047,VNB,A,10
8,test,3,0.0,2-Back,1,m,Tue Feb 11 2025 09:58:58 GMT-0600 (Central Standard Time),828602.6000000015,071_y_f_d_a.png,O,m,1364,13,1,2375.2000000029802,826227.3999999985,7047,VNB,A,11
8,test,3,0.0,2-Back,0,m,Tue Feb 11 2025 09:58:58 GMT-0600 (Central Standard Time),830585.200000003,124_o_f_n_a.png,O,z,949,14,1,1975.0,828610.200000003,7047,VNB,A,12
9,test,3,0.0,2-Back,1,z,Tue Feb 11 2025 09:58:58 GMT-0600 (Central Standard Time),833517.5,039_o_m_d_a.png,O,z,1902,15,1,2924.39999999851,830593.1000000015,7047,VNB,A,13
10,test,3,1.0,2-Back,1,m,Tue Feb 11 2025 09:58:58 GMT-0600 (Central Standard Time),836050.0,139_m_f_h_a.png,O,m,1506,16,1,2524.7000000029802,833525.299999997,7047,VNB,A,14
10,test,3,0.0,2-Back,0,m,Tue Feb 11 2025 09:58:58 GMT-0600 (Central Standard Time),838382.6000000015,165_m_m_n_a.png,O,z,1302,17,1,2324.3000000044703,836058.299999997,7047,VNB,A,15
10,test,3,0.0,2-Back,0,z,Tue Feb 11 2025 09:58:58 GMT-0600 (Central Standard Time),841415.1000000015,109_y_m_h_a.png,O,None,2014,18,1,3024.3000000044703,838390.799999997,7047,VNB,A,16
0,test,4,0.0,2-Back,,,Tue Feb 11 2025 09:58:58 GMT-0600 (Central Standard Time),841415.1000000015,139_m_f_n_a.png,O,space,4418,1,1,3024.3000000044703,838390.799999997,7047,VNB,A,0
0,test,4,0.0,2-Back,,,Tue Feb 11 2025 09:58:58 GMT-0600 (Central Standard Time),841415.1000000015,039_o_m_n_a.png,O,space,4418,2,1,3024.3000000044703,838390.799999997,7047,VNB,A,0
1,test,4,1.0,2-Back,1,m,Tue Feb 11 2025 09:58:58 GMT-0600 (Central Standard Time),852995.1000000015,109_y_m_h_a.png,O,m,1039,3,1,2057.3000000044703,850937.799999997,7047,VNB,A,1
2,test,4,1.0,2-Back,1,m,Tue Feb 11 2025 09:58:58 GMT-0600 (Central Standard Time),855494.0,124_o_f_d_a.png,O,m,1478,4,1,2491.2999999970198,853002.700000003,7047,VNB,A,2
3,test,4,0.0,2-Back,1,z,Tue Feb 11 2025 09:58:58 GMT-0600 (Central Standard Time),857277.0,039_o_m_h_a.png,O,z,754,5,1,1775.2000000029802,855501.799999997,7047,VNB,A,3
3,test,4,0.0,2-Back,0,m,Tue Feb 11 2025 09:58:58 GMT-0600 (Central Standard Time),860309.5,165_m_m_n_a.png,O,None,2014,6,1,3023.7000000029802,857285.799999997,7047,VNB,A,4
3,test,4,0.0,2-Back,0,m,Tue Feb 11 2025 09:58:58 GMT-0600 (Central Standard Time),862658.5,139_m_f_d_a.png,O,z,1323,7,1,2340.2999999970198,860318.200000003,7047,VNB,A,5
4,test,4,0.0,2-Back,1,z,Tue Feb 11 2025 09:58:58 GMT-0600 (Central Standard Time),864891.1000000015,071_y_f_n_a.png,O,z,1213,8,1,2224.3000000044703,862666.799999997,7047,VNB,A,6
5,test,4,1.0,2-Back,1,m,Tue Feb 11 2025 09:58:58 GMT-0600 (Central Standard Time),866724.0,124_o_f_h_a.png,O,m,813,9,1,1824.3999999985099,864899.6000000015,7047,VNB,A,7
6,test,4,0.0,2-Back,1,m,Tue Feb 11 2025 09:58:58 GMT-0600 (Central Standard Time),869440.299999997,165_m_m_h_a.png,O,m,1684,10,1,2708.2999999970198,866732.0,7047,VNB,A,8
7,test,4,0.0,2-Back,1,m,Tue Feb 11 2025 09:58:58 GMT-0600 (Central Standard Time),871772.299999997,071_y_f_d_a.png,O,m,1302,11,1,2323.1999999955297,869449.1000000015,7047,VNB,A,9
8,test,4,0.0,2-Back,1,m,Tue Feb 11 2025 09:58:58 GMT-0600 (Central Standard Time),873971.299999997,109_y_m_n_a.png,O,m,1179,12,1,2191.2999999970198,871780.0,7047,VNB,A,10
9,test,4,0.0,2-Back,1,z,Tue Feb 11 2025 09:58:58 GMT-0600 (Central Standard Time),875771.1000000015,039_o_m_d_a.png,O,z,772,13,1,1791.8999999985099,873979.200000003,7047,VNB,A,11
9,test,4,1.0,2-Back,0,m,Tue Feb 11 2025 09:58:58 GMT-0600 (Central Standard Time),878803.700000003,139_m_f_h_a.png,O,None,2015,14,1,3024.60000000149,875779.1000000015,7047,VNB,A,12
10,test,4,1.0,2-Back,1,m,Tue Feb 11 2025 09:58:58 GMT-0600 (Central Standard Time),881369.5,071_y_f_h_a.png,O,m,1532,15,1,2557.0,878812.5,7047,VNB,A,13
11,test,4,0.0,2-Back,1,m,Tue Feb 11 2025 09:58:58 GMT-0600 (Central Standard Time),883602.1000000015,124_o_f_n_a.png,O,m,1198,16,1,2224.39999999851,881377.700000003,7047,VNB,A,14
12,test,4,0.0,2-Back,1,m,Tue Feb 11 2025 09:58:58 GMT-0600 (Central Standard Time),885784.5,109_y_m_d_a.png,O,m,1150,17,1,2174.2999999970198,883610.200000003,7047,VNB,A,15
13,test,4,1.0,2-Back,1,m,Tue Feb 11 2025 09:58:58 GMT-0600 (Central Standard Time),888250.3999999985,165_m_m_d_a.png,O,m,1447,18,1,2458.0,885792.3999999985,7047,VNB,A,16
0,test,5,1.0,2-Back,,,Tue Feb 11 2025 09:58:58 GMT-0600 (Central Standard Time),888250.3999999985,071_y_f_d_a.png,O,space,2950,1,1,2458.0,885792.3999999985,7047,VNB,A,0
0,test,5,1.0,2-Back,,,Tue Feb 11 2025 09:58:58 GMT-0600 (Central Standard Time),888250.3999999985,124_o_f_h_a.png,O,space,2950,2,1,2458.0,885792.3999999985,7047,VNB,A,0
0,test,5,1.0,2-Back,0,z,Tue Feb 11 2025 09:58:58 GMT-0600 (Central Standard Time),898197.6000000015,039_o_m_d_a.png,O,m,844,3,1,1858.5,896339.1000000015,7047,VNB,A,1
1,test,5,1.0,2-Back,1,m,Tue Feb 11 2025 09:58:58 GMT-0600 (Central Standard Time),900696.8999999985,139_m_f_n_a.png,O,m,1474,4,1,2491.1999999955297,898205.700000003,7047,VNB,A,2
2,test,5,0.0,2-Back,1,m,Tue Feb 11 2025 09:58:58 GMT-0600 (Central Standard Time),903329.200000003,165_m_m_h_a.png,O,m,1599,5,1,2624.5,900704.700000003,7047,VNB,A,3
3,test,5,0.0,2-Back,1,z,Tue Feb 11 2025 09:58:58 GMT-0600 (Central Standard Time),905311.700000003,071_y_f_n_a.png,O,z,951,6,1,1974.7000000029802,903337.0,7047,VNB,A,4
4,test,5,0.0,2-Back,1,m,Tue Feb 11 2025 09:58:58 GMT-0600 (Central Standard Time),908010.8999999985,124_o_f_d_a.png,O,m,1680,7,1,2691.10000000149,905319.799999997,7047,VNB,A,5
4,test,5,0.0,2-Back,0,m,Tue Feb 11 2025 09:58:58 GMT-0600 (Central Standard Time),910110.1000000015,039_o_m_h_a.png,O,z,1069,8,1,2091.5,908018.6000000015,7047,VNB,A,6
4,test,5,1.0,2-Back,0,z,Tue Feb 11 2025 09:58:58 GMT-0600 (Central Standard Time),912876.299999997,139_m_f_d_a.png,O,m,1737,9,1,2758.0999999940395,910118.200000003,7047,VNB,A,7
4,test,5,0.0,2-Back,0,m,Tue Feb 11 2025 09:58:58 GMT-0600 (Central Standard Time),915192.1000000015,109_y_m_n_a.png,O,z,1292,10,1,2307.7000000029802,912884.3999999985,7047,VNB,A,8
5,test,5,0.0,2-Back,1,m,Tue Feb 11 2025 09:58:58 GMT-0600 (Central Standard Time),917674.6000000015,165_m_m_n_a.png,O,m,1456,11,1,2474.8000000044703,915199.799999997,7047,VNB,A,9
6,test,5,0.0,2-Back,1,m,Tue Feb 11 2025 09:58:58 GMT-0600 (Central Standard Time),919990.5,071_y_f_h_a.png,O,m,1285,12,1,2307.7000000029802,917682.799999997,7047,VNB,A,10
7,test,5,0.0,2-Back,1,m,Tue Feb 11 2025 09:58:58 GMT-0600 (Central Standard Time),922589.700000003,109_y_m_d_a.png,O,m,1570,13,1,2591.5,919998.200000003,7047,VNB,A,11
8,test,5,1.0,2-Back,1,z,Tue Feb 11 2025 09:58:58 GMT-0600 (Central Standard Time),924705.799999997,139_m_f_h_a.png,O,z,1090,14,1,2108.2999999970198,922597.5,7047,VNB,A,12
8,test,5,0.0,2-Back,0,m,Tue Feb 11 2025 09:58:58 GMT-0600 (Central Standard Time),927738.1000000015,039_o_m_n_a.png,O,None,2014,15,1,3024.39999999851,924713.700000003,7047,VNB,A,13
8,test,5,0.0,2-Back,0,m,Tue Feb 11 2025 09:58:58 GMT-0600 (Central Standard Time),929887.3999999985,165_m_m_d_a.png,O,z,1127,16,1,2141.2999999970198,927746.1000000015,7047,VNB,A,14
9,test,5,0.0,2-Back,1,z,Tue Feb 11 2025 09:58:58 GMT-0600 (Central Standard Time),932486.6000000015,124_o_f_n_a.png,O,z,1568,17,1,2591.0,929895.6000000015,7047,VNB,A,15
10,test,5,1.0,2-Back,1,m,Tue Feb 11 2025 09:58:58 GMT-0600 (Central Standard Time),935035.700000003,109_y_m_h_a.png,O,m,1521,18,1,2541.0,932494.700000003,7047,VNB,A,16
