acc_sum,block,block_c,change,condition,correct,correct_response,datetime,endtime,face,project,response,response_time,row_sel,session_number,start_end,starttime,subject_id,task,task_vers,trial
0,prac,1,,1-Back,,,Tue Apr 22 2025 09:56:07 GMT-0500 (Central Daylight Time),,005_o_f_d_a.png,I,space,3183,1,2,,,8031,VNB,B,0
1,prac,1,0.0,1-Back,1,m,Tue Apr 22 2025 09:56:07 GMT-0500 (Central Daylight Time),84480.79999999702,020_y_f_n_a.png,I,m,1102,2,2,1977.4000000059605,82503.39999999106,8031,VNB,B,1
2,prac,1,0.0,1-Back,1,m,Tue Apr 22 2025 09:56:07 GMT-0500 (Central Daylight Time),86313.59999999404,007_m_m_h_a.png,I,m,927,3,2,1815.5,84498.09999999404,8031,VNB,B,2
2,prac,1,0.0,1-Back,0,m,Tue Apr 22 2025 09:56:07 GMT-0500 (Central Daylight Time),88262.89999999106,016_y_m_d_a.png,I,z,1035,4,2,1931.7999999970198,86331.09999999404,8031,VNB,B,3
3,prac,1,0.0,1-Back,1,m,Tue Apr 22 2025 09:56:07 GMT-0500 (Central Daylight Time),90528.89999999106,005_o_f_n_a.png,I,m,1362,5,2,2245.5,88283.39999999106,8031,VNB,B,4
4,prac,1,1.0,1-Back,1,z,Tue Apr 22 2025 09:56:07 GMT-0500 (Central Daylight Time),92545.0,016_y_m_n_a.png,I,z,1108,6,2,1998.1000000089407,90546.89999999106,8031,VNB,B,5
5,prac,1,0.0,1-Back,1,m,Tue Apr 22 2025 09:56:07 GMT-0500 (Central Daylight Time),94361.09999999404,004_o_m_h_a.png,I,m,935,7,2,1797.7000000029802,92563.39999999106,8031,VNB,B,6
6,prac,1,0.0,1-Back,1,m,Tue Apr 22 2025 09:56:07 GMT-0500 (Central Daylight Time),96577.09999999404,011_m_f_d_a.png,I,m,1311,8,2,2198.0,94379.09999999404,8031,VNB,B,7
7,prac,1,1.0,1-Back,1,z,Tue Apr 22 2025 09:56:07 GMT-0500 (Central Daylight Time),98643.09999999404,020_y_f_d_a.png,I,z,1177,9,2,2047.7999999970198,96595.29999999702,8031,VNB,B,8
8,prac,1,0.0,1-Back,1,m,Tue Apr 22 2025 09:56:07 GMT-0500 (Central Daylight Time),100493.59999999404,007_m_m_n_a.png,I,m,948,10,2,1832.0,98661.59999999404,8031,VNB,B,9
9,prac,1,0.0,1-Back,1,m,Tue Apr 22 2025 09:56:07 GMT-0500 (Central Daylight Time),102225.29999999702,005_o_f_h_a.png,I,m,839,11,2,1712.5999999940395,100512.70000000298,8031,VNB,B,10
10,prac,1,0.0,1-Back,1,m,Tue Apr 22 2025 09:56:07 GMT-0500 (Central Daylight Time),104041.5,016_y_m_d_a.png,I,m,916,12,2,1798.1000000089407,102243.39999999106,8031,VNB,B,11
0,test,1,0.0,1-Back,,,Tue Apr 22 2025 09:56:07 GMT-0500 (Central Daylight Time),104041.5,020_y_f_d_a.png,I,space,3208,1,2,1798.1000000089407,102243.39999999106,8031,VNB,B,0
1,test,1,0.0,1-Back,1,m,Tue Apr 22 2025 09:56:07 GMT-0500 (Central Daylight Time),116170.59999999404,011_m_f_n_a.png,I,m,1015,2,2,2032.5,114138.09999999404,8031,VNB,B,1
2,test,1,0.0,1-Back,1,m,Tue Apr 22 2025 09:56:07 GMT-0500 (Central Daylight Time),118086.89999999106,004_o_m_h_a.png,I,m,870,3,2,1899.0,116187.89999999106,8031,VNB,B,2
3,test,1,1.0,1-Back,1,z,Tue Apr 22 2025 09:56:07 GMT-0500 (Central Daylight Time),119953.0,007_m_m_h_a.png,I,z,818,4,2,1849.4000000059605,118103.59999999404,8031,VNB,B,3
4,test,1,0.0,1-Back,1,m,Tue Apr 22 2025 09:56:07 GMT-0500 (Central Daylight Time),121719.09999999404,005_o_f_n_a.png,I,m,728,5,2,1749.2000000029802,119969.89999999106,8031,VNB,B,4
5,test,1,0.0,1-Back,1,m,Tue Apr 22 2025 09:56:07 GMT-0500 (Central Daylight Time),123618.59999999404,016_y_m_d_a.png,I,m,866,6,2,1883.0999999940395,121735.5,8031,VNB,B,5
6,test,1,1.0,1-Back,1,z,Tue Apr 22 2025 09:56:07 GMT-0500 (Central Daylight Time),125717.70000000298,011_m_f_d_a.png,I,z,1062,7,2,2082.4000000059605,123635.29999999702,8031,VNB,B,6
7,test,1,0.0,1-Back,1,m,Tue Apr 22 2025 09:56:07 GMT-0500 (Central Daylight Time),127600.39999999106,020_y_f_h_a.png,I,m,835,8,2,1866.2999999970198,125734.09999999404,8031,VNB,B,7
8,test,1,0.0,1-Back,1,m,Tue Apr 22 2025 09:56:07 GMT-0500 (Central Daylight Time),129300.09999999404,004_o_m_n_a.png,I,m,664,9,2,1682.5,127617.59999999404,8031,VNB,B,8
9,test,1,0.0,1-Back,1,m,Tue Apr 22 2025 09:56:07 GMT-0500 (Central Daylight Time),130982.79999999702,016_y_m_h_a.png,I,m,637,10,2,1664.2999999970198,129318.5,8031,VNB,B,9
10,test,1,0.0,1-Back,1,m,Tue Apr 22 2025 09:56:07 GMT-0500 (Central Daylight Time),132932.0,004_o_m_d_a.png,I,m,914,11,2,1931.1000000089407,131000.89999999106,8031,VNB,B,10
11,test,1,1.0,1-Back,1,z,Tue Apr 22 2025 09:56:07 GMT-0500 (Central Daylight Time),135048.09999999404,005_o_f_d_a.png,I,z,1076,12,2,2099.5,132948.59999999404,8031,VNB,B,11
12,test,1,0.0,1-Back,1,m,Tue Apr 22 2025 09:56:07 GMT-0500 (Central Daylight Time),136931.0,007_m_m_n_a.png,I,m,833,13,2,1866.4000000059605,135064.59999999404,8031,VNB,B,12
13,test,1,1.0,1-Back,1,z,Tue Apr 22 2025 09:56:07 GMT-0500 (Central Daylight Time),139063.5,020_y_f_n_a.png,I,z,1094,14,2,2115.7999999970198,136947.70000000298,8031,VNB,B,13
14,test,1,0.0,1-Back,1,m,Tue Apr 22 2025 09:56:07 GMT-0500 (Central Daylight Time),141262.89999999106,011_m_f_h_a.png,I,m,1153,15,2,2183.2999999970198,139079.59999999404,8031,VNB,B,14
15,test,1,0.0,1-Back,1,m,Tue Apr 22 2025 09:56:07 GMT-0500 (Central Daylight Time),143162.39999999106,007_m_m_d_a.png,I,m,865,16,2,1883.3999999910593,141279.0,8031,VNB,B,15
16,test,1,0.0,1-Back,1,m,Tue Apr 22 2025 09:56:07 GMT-0500 (Central Daylight Time),144978.70000000298,016_y_m_n_a.png,I,m,707,17,2,1800.1000000089407,143178.59999999404,8031,VNB,B,16
17,test,1,0.0,1-Back,1,m,Tue Apr 22 2025 09:56:07 GMT-0500 (Central Daylight Time),146827.59999999404,005_o_f_h_a.png,I,m,814,18,2,1833.0,144994.59999999404,8031,VNB,B,17
0,test,2,0.0,1-Back,,,Tue Apr 22 2025 09:56:07 GMT-0500 (Central Daylight Time),146827.59999999404,016_y_m_n_a.png,I,space,2134,1,2,1833.0,144994.59999999404,8031,VNB,B,0
1,test,2,0.0,1-Back,1,m,Tue Apr 22 2025 09:56:07 GMT-0500 (Central Daylight Time),152876.0,020_y_f_h_a.png,I,m,856,2,2,1867.2999999970198,151008.70000000298,8031,VNB,B,1
2,test,2,1.0,1-Back,1,m,Tue Apr 22 2025 09:56:07 GMT-0500 (Central Daylight Time),155575.20000000298,004_o_m_n_a.png,I,m,1661,3,2,2682.300000011921,152892.89999999106,8031,VNB,B,2
3,test,2,0.0,1-Back,1,m,Tue Apr 22 2025 09:56:07 GMT-0500 (Central Daylight Time),157541.20000000298,011_m_f_d_a.png,I,m,930,4,2,1948.5,155592.70000000298,8031,VNB,B,3
4,test,2,0.0,1-Back,1,z,Tue Apr 22 2025 09:56:07 GMT-0500 (Central Daylight Time),159340.70000000298,007_m_m_d_a.png,I,z,763,5,2,1782.4000000059605,157558.29999999702,8031,VNB,B,4
5,test,2,0.0,1-Back,1,m,Tue Apr 22 2025 09:56:07 GMT-0500 (Central Daylight Time),161306.79999999702,016_y_m_h_a.png,I,m,932,6,2,1949.4000000059605,159357.39999999106,8031,VNB,B,5
6,test,2,1.0,1-Back,1,z,Tue Apr 22 2025 09:56:07 GMT-0500 (Central Daylight Time),163206.20000000298,005_o_f_h_a.png,I,z,862,7,2,1882.7000000029802,161323.5,8031,VNB,B,6
7,test,2,0.0,1-Back,1,m,Tue Apr 22 2025 09:56:07 GMT-0500 (Central Daylight Time),165138.79999999702,011_m_f_n_a.png,I,m,890,8,2,1915.7999999970198,163223.0,8031,VNB,B,7
8,test,2,0.0,1-Back,1,m,Tue Apr 22 2025 09:56:07 GMT-0500 (Central Daylight Time),167684.09999999404,020_y_f_d_a.png,I,m,1512,9,2,2528.3999999910593,165155.70000000298,8031,VNB,B,8
9,test,2,0.0,1-Back,1,m,Tue Apr 22 2025 09:56:07 GMT-0500 (Central Daylight Time),169687.5,007_m_m_n_a.png,I,m,970,10,2,1984.2999999970198,167703.20000000298,8031,VNB,B,9
10,test,2,1.0,1-Back,1,m,Tue Apr 22 2025 09:56:07 GMT-0500 (Central Daylight Time),171570.39999999106,011_m_f_h_a.png,I,m,849,11,2,1866.2999999970198,169704.09999999404,8031,VNB,B,10
11,test,2,0.0,1-Back,1,z,Tue Apr 22 2025 09:56:07 GMT-0500 (Central Daylight Time),173236.09999999404,004_o_m_h_a.png,I,z,631,12,2,1648.0999999940395,171588.0,8031,VNB,B,11
12,test,2,0.0,1-Back,1,m,Tue Apr 22 2025 09:56:07 GMT-0500 (Central Daylight Time),175169.09999999404,016_y_m_d_a.png,I,m,884,13,2,1916.5999999940395,173252.5,8031,VNB,B,12
13,test,2,0.0,1-Back,1,m,Tue Apr 22 2025 09:56:07 GMT-0500 (Central Daylight Time),177085.09999999404,005_o_f_n_a.png,I,m,872,14,2,1899.2999999970198,175185.79999999702,8031,VNB,B,13
14,test,2,0.0,1-Back,1,z,Tue Apr 22 2025 09:56:07 GMT-0500 (Central Daylight Time),178850.89999999106,020_y_f_n_a.png,I,z,732,15,2,1748.699999988079,177102.20000000298,8031,VNB,B,14
15,test,2,1.0,1-Back,1,m,Tue Apr 22 2025 09:56:07 GMT-0500 (Central Daylight Time),180767.29999999702,007_m_m_h_a.png,I,m,869,16,2,1897.7000000029802,178869.59999999404,8031,VNB,B,15
16,test,2,0.0,1-Back,1,m,Tue Apr 22 2025 09:56:07 GMT-0500 (Central Daylight Time),182666.59999999404,005_o_f_d_a.png,I,m,865,17,2,1882.7999999970198,180783.79999999702,8031,VNB,B,16
17,test,2,1.0,1-Back,1,z,Tue Apr 22 2025 09:56:07 GMT-0500 (Central Daylight Time),184532.79999999702,004_o_m_d_a.png,I,z,822,18,2,1845.2999999970198,182687.5,8031,VNB,B,17
0,test,3,1.0,1-Back,,,Tue Apr 22 2025 09:56:07 GMT-0500 (Central Daylight Time),184532.79999999702,005_o_f_h_a.png,I,space,3165,1,2,1845.2999999970198,182687.5,8031,VNB,B,0
1,test,3,0.0,1-Back,1,m,Tue Apr 22 2025 09:56:07 GMT-0500 (Central Daylight Time),191830.5,011_m_f_d_a.png,I,m,979,2,2,1998.2999999970198,189832.20000000298,8031,VNB,B,1
2,test,3,1.0,1-Back,1,m,Tue Apr 22 2025 09:56:07 GMT-0500 (Central Daylight Time),193796.5,007_m_m_n_a.png,I,m,930,3,2,1949.0,191847.5,8031,VNB,B,2
3,test,3,0.0,1-Back,1,z,Tue Apr 22 2025 09:56:07 GMT-0500 (Central Daylight Time),195429.39999999106,005_o_f_n_a.png,I,z,596,4,2,1616.199999988079,193813.20000000298,8031,VNB,B,3
4,test,3,1.0,1-Back,1,m,Tue Apr 22 2025 09:56:07 GMT-0500 (Central Daylight Time),197378.89999999106,004_o_m_d_a.png,I,m,913,5,2,1930.8999999910593,195448.0,8031,VNB,B,4
5,test,3,0.0,1-Back,1,m,Tue Apr 22 2025 09:56:07 GMT-0500 (Central Daylight Time),199044.89999999106,020_y_f_h_a.png,I,m,630,6,2,1647.699999988079,197397.20000000298,8031,VNB,B,5
6,test,3,0.0,1-Back,1,z,Tue Apr 22 2025 09:56:07 GMT-0500 (Central Daylight Time),200594.39999999106,016_y_m_h_a.png,I,z,516,7,2,1533.5,199060.89999999106,8031,VNB,B,6
7,test,3,0.0,1-Back,1,m,Tue Apr 22 2025 09:56:07 GMT-0500 (Central Daylight Time),202643.70000000298,011_m_f_n_a.png,I,m,1014,8,2,2030.6000000089407,200613.09999999404,8031,VNB,B,7
7,test,3,0.0,1-Back,0,m,Tue Apr 22 2025 09:56:07 GMT-0500 (Central Daylight Time),205693.0,020_y_f_d_a.png,I,None,2016,9,2,3033.1000000089407,202659.89999999106,8031,VNB,B,8
8,test,3,1.0,1-Back,1,m,Tue Apr 22 2025 09:56:07 GMT-0500 (Central Daylight Time),207542.29999999702,004_o_m_n_a.png,I,m,812,10,2,1830.5999999940395,205711.70000000298,8031,VNB,B,9
9,test,3,0.0,1-Back,1,m,Tue Apr 22 2025 09:56:07 GMT-0500 (Central Daylight Time),209341.59999999404,007_m_m_h_a.png,I,m,754,11,2,1782.5999999940395,207559.0,8031,VNB,B,10
10,test,3,0.0,1-Back,1,z,Tue Apr 22 2025 09:56:07 GMT-0500 (Central Daylight Time),211007.79999999702,011_m_f_h_a.png,I,z,619,12,2,1648.7000000029802,209359.09999999404,8031,VNB,B,11
11,test,3,1.0,1-Back,1,m,Tue Apr 22 2025 09:56:07 GMT-0500 (Central Daylight Time),213006.89999999106,005_o_f_d_a.png,I,m,952,13,2,1982.699999988079,211024.20000000298,8031,VNB,B,12
12,test,3,0.0,1-Back,1,z,Tue Apr 22 2025 09:56:07 GMT-0500 (Central Daylight Time),214982.70000000298,007_m_m_d_a.png,I,z,926,14,2,1958.0,213024.70000000298,8031,VNB,B,13
13,test,3,0.0,1-Back,1,m,Tue Apr 22 2025 09:56:07 GMT-0500 (Central Daylight Time),216756.0,016_y_m_n_a.png,I,m,739,15,2,1753.2999999970198,215002.70000000298,8031,VNB,B,14
14,test,3,1.0,1-Back,1,m,Tue Apr 22 2025 09:56:07 GMT-0500 (Central Daylight Time),218956.5,004_o_m_h_a.png,I,m,1164,16,2,2183.7999999970198,216772.70000000298,8031,VNB,B,15
15,test,3,0.0,1-Back,1,m,Tue Apr 22 2025 09:56:07 GMT-0500 (Central Daylight Time),220938.09999999404,016_y_m_d_a.png,I,m,933,17,2,1964.7999999970198,218973.29999999702,8031,VNB,B,16
16,test,3,1.0,1-Back,1,m,Tue Apr 22 2025 09:56:07 GMT-0500 (Central Daylight Time),223137.29999999702,020_y_f_n_a.png,I,m,1159,18,2,2183.2000000029802,220954.09999999404,8031,VNB,B,17
0,test,4,1.0,1-Back,,,Tue Apr 22 2025 09:56:07 GMT-0500 (Central Daylight Time),223137.29999999702,007_m_m_d_a.png,I,space,3312,1,2,2183.2000000029802,220954.09999999404,8031,VNB,B,0
1,test,4,0.0,1-Back,1,z,Tue Apr 22 2025 09:56:07 GMT-0500 (Central Daylight Time),230635.20000000298,004_o_m_d_a.png,I,z,1124,2,2,2150.2000000029802,228485.0,8031,VNB,B,1
2,test,4,0.0,1-Back,1,m,Tue Apr 22 2025 09:56:07 GMT-0500 (Central Daylight Time),232251.0,016_y_m_h_a.png,I,m,566,3,2,1599.0,230652.0,8031,VNB,B,2
3,test,4,0.0,1-Back,1,m,Tue Apr 22 2025 09:56:07 GMT-0500 (Central Daylight Time),234017.20000000298,011_m_f_n_a.png,I,m,717,4,2,1750.2000000029802,232267.0,8031,VNB,B,3
4,test,4,1.0,1-Back,1,m,Tue Apr 22 2025 09:56:07 GMT-0500 (Central Daylight Time),235800.09999999404,005_o_f_h_a.png,I,m,743,5,2,1766.0999999940395,234034.0,8031,VNB,B,4
5,test,4,0.0,1-Back,1,m,Tue Apr 22 2025 09:56:07 GMT-0500 (Central Daylight Time),237516.20000000298,007_m_m_n_a.png,I,m,673,6,2,1699.6000000089407,235816.59999999404,8031,VNB,B,5
6,test,4,0.0,1-Back,1,m,Tue Apr 22 2025 09:56:07 GMT-0500 (Central Daylight Time),239165.29999999702,016_y_m_d_a.png,I,m,605,7,2,1632.9000000059605,237532.39999999106,8031,VNB,B,6
7,test,4,1.0,1-Back,1,z,Tue Apr 22 2025 09:56:07 GMT-0500 (Central Daylight Time),241015.29999999702,020_y_f_d_a.png,I,z,803,8,2,1831.9000000059605,239183.39999999106,8031,VNB,B,7
8,test,4,0.0,1-Back,1,m,Tue Apr 22 2025 09:56:07 GMT-0500 (Central Daylight Time),242697.79999999702,011_m_f_h_a.png,I,m,641,9,2,1665.0999999940395,241032.70000000298,8031,VNB,B,8
9,test,4,0.0,1-Back,1,z,Tue Apr 22 2025 09:56:07 GMT-0500 (Central Daylight Time),244330.39999999106,004_o_m_h_a.png,I,z,591,10,2,1614.5,242715.89999999106,8031,VNB,B,9
10,test,4,1.0,1-Back,1,m,Tue Apr 22 2025 09:56:07 GMT-0500 (Central Daylight Time),245947.0,005_o_f_n_a.png,I,m,575,11,2,1598.2000000029802,244348.79999999702,8031,VNB,B,10
11,test,4,0.0,1-Back,1,m,Tue Apr 22 2025 09:56:07 GMT-0500 (Central Daylight Time),247813.0,011_m_f_d_a.png,I,m,830,12,2,1849.2000000029802,245963.79999999702,8031,VNB,B,11
12,test,4,0.0,1-Back,1,m,Tue Apr 22 2025 09:56:07 GMT-0500 (Central Daylight Time),250045.70000000298,020_y_f_n_a.png,I,m,1195,13,2,2216.0,247829.70000000298,8031,VNB,B,12
13,test,4,0.0,1-Back,1,m,Tue Apr 22 2025 09:56:07 GMT-0500 (Central Daylight Time),252194.89999999106,005_o_f_d_a.png,I,m,1107,14,2,2130.2999999970198,250064.59999999404,8031,VNB,B,13
14,test,4,0.0,1-Back,1,m,Tue Apr 22 2025 09:56:07 GMT-0500 (Central Daylight Time),253961.09999999404,020_y_f_h_a.png,I,m,726,15,2,1749.2999999970198,252211.79999999702,8031,VNB,B,14
15,test,4,1.0,1-Back,1,z,Tue Apr 22 2025 09:56:07 GMT-0500 (Central Daylight Time),255660.39999999106,007_m_m_h_a.png,I,z,656,16,2,1682.5999999940395,253977.79999999702,8031,VNB,B,15
16,test,4,0.0,1-Back,1,m,Tue Apr 22 2025 09:56:07 GMT-0500 (Central Daylight Time),257626.59999999404,004_o_m_n_a.png,I,m,932,17,2,1949.5,255677.09999999404,8031,VNB,B,16
17,test,4,1.0,1-Back,1,z,Tue Apr 22 2025 09:56:07 GMT-0500 (Central Daylight Time),259542.79999999702,016_y_m_n_a.png,I,z,870,18,2,1900.2000000029802,257642.59999999404,8031,VNB,B,17
0,test,5,1.0,1-Back,,,Tue Apr 22 2025 09:56:07 GMT-0500 (Central Daylight Time),259542.79999999702,004_o_m_n_a.png,I,space,2994,1,2,1900.2000000029802,257642.59999999404,8031,VNB,B,0
0,test,5,1.0,1-Back,0,m,Tue Apr 22 2025 09:56:07 GMT-0500 (Central Daylight Time),267590.299999997,005_o_f_h_a.png,I,None,2015,2,2,3017.4000000059605,264572.89999999106,8031,VNB,B,1
1,test,5,0.0,1-Back,1,m,Tue Apr 22 2025 09:56:07 GMT-0500 (Central Daylight Time),269839.200000003,016_y_m_d_a.png,I,m,1209,3,2,2231.800000011921,267607.39999999106,8031,VNB,B,2
2,test,5,0.0,1-Back,1,z,Tue Apr 22 2025 09:56:07 GMT-0500 (Central Daylight Time),272205.39999999106,004_o_m_d_a.png,I,z,1321,4,2,2348.2999999970198,269857.09999999404,8031,VNB,B,3
3,test,5,0.0,1-Back,1,m,Tue Apr 22 2025 09:56:07 GMT-0500 (Central Daylight Time),273871.5,011_m_f_h_a.png,I,m,619,5,2,1649.5,272222.0,8031,VNB,B,4
4,test,5,0.0,1-Back,1,m,Tue Apr 22 2025 09:56:07 GMT-0500 (Central Daylight Time),275687.5,020_y_f_n_a.png,I,m,769,6,2,1797.7999999970198,273889.700000003,8031,VNB,B,5
5,test,5,1.0,1-Back,1,z,Tue Apr 22 2025 09:56:07 GMT-0500 (Central Daylight Time),277486.89999999106,005_o_f_n_a.png,I,z,753,7,2,1781.8999999910593,275705.0,8031,VNB,B,6
6,test,5,0.0,1-Back,1,m,Tue Apr 22 2025 09:56:07 GMT-0500 (Central Daylight Time),279286.299999997,011_m_f_d_a.png,I,m,753,8,2,1782.2000000029802,277504.09999999404,8031,VNB,B,7
7,test,5,0.0,1-Back,1,m,Tue Apr 22 2025 09:56:07 GMT-0500 (Central Daylight Time),281219.59999999404,016_y_m_h_a.png,I,m,890,9,2,1916.2999999970198,279303.299999997,8031,VNB,B,8
8,test,5,0.0,1-Back,1,m,Tue Apr 22 2025 09:56:07 GMT-0500 (Central Daylight Time),283218.59999999404,020_y_f_d_a.png,I,m,965,10,2,1981.8999999910593,281236.700000003,8031,VNB,B,9
9,test,5,0.0,1-Back,1,m,Tue Apr 22 2025 09:56:07 GMT-0500 (Central Daylight Time),285001.39999999106,007_m_m_n_a.png,I,m,742,11,2,1765.0999999940395,283236.299999997,8031,VNB,B,10
10,test,5,1.0,1-Back,1,z,Tue Apr 22 2025 09:56:07 GMT-0500 (Central Daylight Time),286950.59999999404,011_m_f_n_a.png,I,z,903,12,2,1932.2999999970198,285018.299999997,8031,VNB,B,11
11,test,5,0.0,1-Back,1,m,Tue Apr 22 2025 09:56:07 GMT-0500 (Central Daylight Time),289199.59999999404,004_o_m_h_a.png,I,m,1210,13,2,2231.0999999940395,286968.5,8031,VNB,B,12
12,test,5,0.0,1-Back,1,z,Tue Apr 22 2025 09:56:07 GMT-0500 (Central Daylight Time),291066.09999999404,007_m_m_h_a.png,I,z,817,14,2,1848.7000000029802,289217.39999999106,8031,VNB,B,13
13,test,5,1.0,1-Back,1,m,Tue Apr 22 2025 09:56:07 GMT-0500 (Central Daylight Time),293065.5,005_o_f_d_a.png,I,m,975,15,2,1983.5,291082.0,8031,VNB,B,14
14,test,5,0.0,1-Back,1,m,Tue Apr 22 2025 09:56:07 GMT-0500 (Central Daylight Time),295531.299999997,016_y_m_n_a.png,I,m,1423,16,2,2449.0999999940395,293082.200000003,8031,VNB,B,15
15,test,5,0.0,1-Back,1,m,Tue Apr 22 2025 09:56:07 GMT-0500 (Central Daylight Time),297214.5,020_y_f_h_a.png,I,m,637,17,2,1666.5,295548.0,8031,VNB,B,16
16,test,5,0.0,1-Back,1,m,Tue Apr 22 2025 09:56:07 GMT-0500 (Central Daylight Time),298896.89999999106,007_m_m_d_a.png,I,m,642,18,2,1666.0,297230.89999999106,8031,VNB,B,17
0,prac,1,0.0,2-Back,,,Tue Apr 22 2025 09:56:07 GMT-0500 (Central Daylight Time),298896.89999999106,011_m_f_n_a.png,I,space,4005,1,2,1666.0,297230.89999999106,8031,VNB,B,0
0,prac,1,0.0,2-Back,,,Tue Apr 22 2025 09:56:07 GMT-0500 (Central Daylight Time),298896.89999999106,005_o_f_h_a.png,I,space,4005,2,2,1666.0,297230.89999999106,8031,VNB,B,0
1,prac,1,0.0,2-Back,1,m,Tue Apr 22 2025 09:56:07 GMT-0500 (Central Daylight Time),372890.700000003,004_o_m_d_a.png,I,m,1684,3,2,2548.2000000029802,370342.5,8031,VNB,B,1
1,prac,1,1.0,2-Back,0,z,Tue Apr 22 2025 09:56:07 GMT-0500 (Central Daylight Time),375506.39999999106,007_m_m_h_a.png,I,m,1717,4,2,2597.8999999910593,372908.5,8031,VNB,B,2
2,prac,1,0.0,2-Back,1,m,Tue Apr 22 2025 09:56:07 GMT-0500 (Central Daylight Time),378072.299999997,020_y_f_n_a.png,I,m,1682,5,2,2547.7999999970198,375524.5,8031,VNB,B,3
3,prac,1,1.0,2-Back,1,z,Tue Apr 22 2025 09:56:07 GMT-0500 (Central Daylight Time),379905.09999999404,004_o_m_h_a.png,I,z,1047,6,2,1814.7999999970198,378090.299999997,8031,VNB,B,4
4,prac,1,1.0,2-Back,1,z,Tue Apr 22 2025 09:56:07 GMT-0500 (Central Daylight Time),381954.299999997,016_y_m_n_a.png,I,z,1139,7,2,2028.7000000029802,379925.59999999404,8031,VNB,B,5
5,prac,1,0.0,2-Back,1,m,Tue Apr 22 2025 09:56:07 GMT-0500 (Central Daylight Time),383770.59999999404,011_m_f_d_a.png,I,m,914,8,2,1796.2000000029802,381974.39999999106,8031,VNB,B,6
6,prac,1,0.0,2-Back,1,m,Tue Apr 22 2025 09:56:07 GMT-0500 (Central Daylight Time),385819.700000003,005_o_f_d_a.png,I,m,1146,9,2,2031.6000000089407,383788.09999999404,8031,VNB,B,7
7,prac,1,0.0,2-Back,1,m,Tue Apr 22 2025 09:56:07 GMT-0500 (Central Daylight Time),387769.09999999404,007_m_m_h_a.png,I,m,1165,10,2,1931.2000000029802,385837.89999999106,8031,VNB,B,8
8,prac,1,1.0,2-Back,1,z,Tue Apr 22 2025 09:56:07 GMT-0500 (Central Daylight Time),389435.09999999404,020_y_f_d_a.png,I,z,777,11,2,1648.7999999970198,387786.299999997,8031,VNB,B,9
8,prac,1,0.0,2-Back,0,m,Tue Apr 22 2025 09:56:07 GMT-0500 (Central Daylight Time),391801.299999997,004_o_m_n_a.png,I,z,1488,12,2,2348.4000000059605,389452.89999999106,8031,VNB,B,10
0,test,1,0.0,2-Back,,,Tue Apr 22 2025 09:56:07 GMT-0500 (Central Daylight Time),391801.299999997,016_y_m_h_a.png,I,space,3359,1,2,2348.4000000059605,389452.89999999106,8031,VNB,B,0
0,test,1,0.0,2-Back,,,Tue Apr 22 2025 09:56:07 GMT-0500 (Central Daylight Time),391801.299999997,005_o_f_n_a.png,I,space,3359,2,2,2348.4000000059605,389452.89999999106,8031,VNB,B,0
1,test,1,0.0,2-Back,1,z,Tue Apr 22 2025 09:56:07 GMT-0500 (Central Daylight Time),407379.799999997,004_o_m_h_a.png,I,z,823,3,2,1848.7999999970198,405531.0,8031,VNB,B,1
2,test,1,0.0,2-Back,1,m,Tue Apr 22 2025 09:56:07 GMT-0500 (Central Daylight Time),410095.700000003,011_m_f_d_a.png,I,m,1669,4,2,2699.6000000089407,407396.09999999404,8031,VNB,B,2
2,test,1,1.0,2-Back,0,m,Tue Apr 22 2025 09:56:07 GMT-0500 (Central Daylight Time),413144.59999999404,016_y_m_n_a.png,I,None,2015,5,2,3031.0,410113.59999999404,8031,VNB,B,3
3,test,1,0.0,2-Back,1,z,Tue Apr 22 2025 09:56:07 GMT-0500 (Central Daylight Time),416110.299999997,020_y_f_d_a.png,I,z,1928,6,2,2949.0,413161.299999997,8031,VNB,B,4
4,test,1,0.0,2-Back,1,m,Tue Apr 22 2025 09:56:07 GMT-0500 (Central Daylight Time),417976.200000003,007_m_m_h_a.png,I,m,818,7,2,1849.300000011921,416126.89999999106,8031,VNB,B,5
5,test,1,1.0,2-Back,1,m,Tue Apr 22 2025 09:56:07 GMT-0500 (Central Daylight Time),420292.39999999106,020_y_f_n_a.png,I,m,1280,8,2,2299.0,417993.39999999106,8031,VNB,B,6
5,test,1,0.0,2-Back,0,z,Tue Apr 22 2025 09:56:07 GMT-0500 (Central Daylight Time),422908.299999997,005_o_f_h_a.png,I,m,1572,9,2,2597.7000000029802,420310.59999999404,8031,VNB,B,7
5,test,1,0.0,2-Back,0,m,Tue Apr 22 2025 09:56:07 GMT-0500 (Central Daylight Time),424890.700000003,004_o_m_d_a.png,I,z,941,10,2,1965.7000000029802,422925.0,8031,VNB,B,8
6,test,1,1.0,2-Back,1,m,Tue Apr 22 2025 09:56:07 GMT-0500 (Central Daylight Time),427673.299999997,007_m_m_d_a.png,I,m,1734,11,2,2765.9000000059605,424907.39999999106,8031,VNB,B,9
7,test,1,0.0,2-Back,1,m,Tue Apr 22 2025 09:56:07 GMT-0500 (Central Daylight Time),430172.5,011_m_f_n_a.png,I,m,1456,12,2,2481.7000000029802,427690.799999997,8031,VNB,B,10
8,test,1,0.0,2-Back,1,m,Tue Apr 22 2025 09:56:07 GMT-0500 (Central Daylight Time),431938.700000003,020_y_f_h_a.png,I,m,733,13,2,1750.1000000089407,430188.59999999404,8031,VNB,B,11
9,test,1,0.0,2-Back,1,z,Tue Apr 22 2025 09:56:07 GMT-0500 (Central Daylight Time),434221.200000003,007_m_m_n_a.png,I,z,1247,14,2,2263.300000011921,431957.89999999106,8031,VNB,B,12
10,test,1,0.0,2-Back,1,m,Tue Apr 22 2025 09:56:07 GMT-0500 (Central Daylight Time),435970.799999997,016_y_m_d_a.png,I,m,715,15,2,1730.4000000059605,434240.39999999106,8031,VNB,B,13
10,test,1,1.0,2-Back,0,m,Tue Apr 22 2025 09:56:07 GMT-0500 (Central Daylight Time),438136.59999999404,011_m_f_h_a.png,I,z,1126,16,2,2145.2000000029802,435991.39999999106,8031,VNB,B,14
10,test,1,0.0,2-Back,0,z,Tue Apr 22 2025 09:56:07 GMT-0500 (Central Daylight Time),440969.0,005_o_f_d_a.png,I,m,1784,17,2,2815.2000000029802,438153.799999997,8031,VNB,B,15
10,test,1,0.0,2-Back,0,m,Tue Apr 22 2025 09:56:07 GMT-0500 (Central Daylight Time),444018.09999999404,004_o_m_n_a.png,I,None,2015,18,2,3032.7000000029802,440985.39999999106,8031,VNB,B,16
0,test,2,0.0,2-Back,,,Tue Apr 22 2025 09:56:07 GMT-0500 (Central Daylight Time),444018.09999999404,007_m_m_h_a.png,I,space,1880,1,2,3032.7000000029802,440985.39999999106,8031,VNB,B,0
0,test,2,0.0,2-Back,,,Tue Apr 22 2025 09:56:07 GMT-0500 (Central Daylight Time),444018.09999999404,020_y_f_n_a.png,I,space,1880,2,2,3032.7000000029802,440985.39999999106,8031,VNB,B,0
1,test,2,1.0,2-Back,1,z,Tue Apr 22 2025 09:56:07 GMT-0500 (Central Daylight Time),453015.39999999106,005_o_f_h_a.png,I,z,804,3,2,1832.5,451182.89999999106,8031,VNB,B,1
2,test,2,0.0,2-Back,1,m,Tue Apr 22 2025 09:56:07 GMT-0500 (Central Daylight Time),454781.5,004_o_m_d_a.png,I,m,722,4,2,1749.1000000089407,453032.39999999106,8031,VNB,B,2
3,test,2,0.0,2-Back,1,m,Tue Apr 22 2025 09:56:07 GMT-0500 (Central Daylight Time),457031.0,011_m_f_d_a.png,I,m,1211,5,2,2231.7999999970198,454799.200000003,8031,VNB,B,3
4,test,2,0.0,2-Back,1,m,Tue Apr 22 2025 09:56:07 GMT-0500 (Central Daylight Time),458913.5,016_y_m_h_a.png,I,m,834,6,2,1865.9000000059605,457047.59999999404,8031,VNB,B,4
5,test,2,0.0,2-Back,1,m,Tue Apr 22 2025 09:56:07 GMT-0500 (Central Daylight Time),461646.0,005_o_f_n_a.png,I,m,1695,7,2,2714.6000000089407,458931.39999999106,8031,VNB,B,5
6,test,2,1.0,2-Back,1,z,Tue Apr 22 2025 09:56:07 GMT-0500 (Central Daylight Time),463578.89999999106,004_o_m_h_a.png,I,z,891,8,2,1913.8999999910593,461665.0,8031,VNB,B,6
7,test,2,0.0,2-Back,1,m,Tue Apr 22 2025 09:56:07 GMT-0500 (Central Daylight Time),465544.700000003,020_y_f_d_a.png,I,m,926,9,2,1947.1000000089407,463597.59999999404,8031,VNB,B,7
8,test,2,0.0,2-Back,1,m,Tue Apr 22 2025 09:56:07 GMT-0500 (Central Daylight Time),467510.59999999404,016_y_m_d_a.png,I,m,928,10,2,1949.0,465561.59999999404,8031,VNB,B,8
8,test,2,0.0,2-Back,0,m,Tue Apr 22 2025 09:56:07 GMT-0500 (Central Daylight Time),469527.0,007_m_m_n_a.png,I,z,977,11,2,1999.2000000029802,467527.799999997,8031,VNB,B,9
8,test,2,0.0,2-Back,0,m,Tue Apr 22 2025 09:56:07 GMT-0500 (Central Daylight Time),470659.799999997,011_m_f_h_a.png,I,z,97,12,2,1116.2000000029802,469543.59999999404,8031,VNB,B,10
9,test,2,1.0,2-Back,1,z,Tue Apr 22 2025 09:56:07 GMT-0500 (Central Daylight Time),473275.299999997,004_o_m_n_a.png,I,z,1573,13,2,2599.4000000059605,470675.89999999106,8031,VNB,B,11
10,test,2,0.0,2-Back,1,m,Tue Apr 22 2025 09:56:07 GMT-0500 (Central Daylight Time),475258.5,005_o_f_d_a.png,I,m,941,14,2,1963.6000000089407,473294.89999999106,8031,VNB,B,12
11,test,2,0.0,2-Back,1,m,Tue Apr 22 2025 09:56:07 GMT-0500 (Central Daylight Time),478257.5,020_y_f_h_a.png,I,m,1958,15,2,2982.1000000089407,475275.39999999106,8031,VNB,B,13
11,test,2,0.0,2-Back,0,z,Tue Apr 22 2025 09:56:07 GMT-0500 (Central Daylight Time),481173.299999997,007_m_m_d_a.png,I,m,1872,16,2,2898.2000000029802,478275.09999999404,8031,VNB,B,14
11,test,2,0.0,2-Back,0,m,Tue Apr 22 2025 09:56:07 GMT-0500 (Central Daylight Time),484222.39999999106,016_y_m_n_a.png,I,None,2015,17,2,3032.3999999910593,481190.0,8031,VNB,B,15
11,test,2,1.0,2-Back,0,m,Tue Apr 22 2025 09:56:07 GMT-0500 (Central Daylight Time),486021.700000003,011_m_f_n_a.png,I,z,763,18,2,1780.1000000089407,484241.59999999404,8031,VNB,B,16
0,test,3,1.0,2-Back,,,Tue Apr 22 2025 09:56:07 GMT-0500 (Central Daylight Time),486021.700000003,004_o_m_n_a.png,I,space,2492,1,2,1780.1000000089407,484241.59999999404,8031,VNB,B,0
0,test,3,1.0,2-Back,,,Tue Apr 22 2025 09:56:07 GMT-0500 (Central Daylight Time),486021.700000003,005_o_f_d_a.png,I,space,2492,2,2,1780.1000000089407,484241.59999999404,8031,VNB,B,0
1,test,3,0.0,2-Back,1,m,Tue Apr 22 2025 09:56:07 GMT-0500 (Central Daylight Time),495552.09999999404,020_y_f_h_a.png,I,m,960,3,2,1967.2000000029802,493584.89999999106,8031,VNB,B,1
2,test,3,0.0,2-Back,1,z,Tue Apr 22 2025 09:56:07 GMT-0500 (Central Daylight Time),497718.0,011_m_f_d_a.png,I,z,1145,4,2,2151.0,495567.0,8031,VNB,B,2
2,test,3,1.0,2-Back,0,m,Tue Apr 22 2025 09:56:07 GMT-0500 (Central Daylight Time),499984.09999999404,016_y_m_n_a.png,I,z,1219,5,2,2248.2999999970198,497735.799999997,8031,VNB,B,3
3,test,3,0.0,2-Back,1,m,Tue Apr 22 2025 09:56:07 GMT-0500 (Central Daylight Time),501866.59999999404,004_o_m_h_a.png,I,m,849,6,2,1867.3999999910593,499999.200000003,8031,VNB,B,4
4,test,3,0.0,2-Back,1,z,Tue Apr 22 2025 09:56:07 GMT-0500 (Central Daylight Time),503949.39999999106,020_y_f_n_a.png,I,z,1038,7,2,2066.199999988079,501883.200000003,8031,VNB,B,5
5,test,3,1.0,2-Back,1,m,Tue Apr 22 2025 09:56:07 GMT-0500 (Central Daylight Time),506315.09999999404,007_m_m_d_a.png,I,m,1331,8,2,2348.8999999910593,503966.200000003,8031,VNB,B,6
6,test,3,0.0,2-Back,1,m,Tue Apr 22 2025 09:56:07 GMT-0500 (Central Daylight Time),508614.5,016_y_m_d_a.png,I,m,1261,9,2,2282.6000000089407,506331.89999999106,8031,VNB,B,7
7,test,3,0.0,2-Back,1,m,Tue Apr 22 2025 09:56:07 GMT-0500 (Central Daylight Time),510697.200000003,005_o_f_h_a.png,I,m,1034,10,2,2065.5,508631.700000003,8031,VNB,B,8
8,test,3,1.0,2-Back,1,m,Tue Apr 22 2025 09:56:07 GMT-0500 (Central Daylight Time),512913.39999999106,011_m_f_n_a.png,I,m,1167,11,2,2199.0,510714.39999999106,8031,VNB,B,9
8,test,3,1.0,2-Back,0,z,Tue Apr 22 2025 09:56:07 GMT-0500 (Central Daylight Time),515812.09999999404,007_m_m_h_a.png,I,m,1865,12,2,2881.7000000029802,512930.39999999106,8031,VNB,B,10
8,test,3,0.0,2-Back,0,m,Tue Apr 22 2025 09:56:07 GMT-0500 (Central Daylight Time),517961.700000003,020_y_f_d_a.png,I,z,1108,13,2,2132.9000000059605,515828.799999997,8031,VNB,B,11
9,test,3,0.0,2-Back,1,m,Tue Apr 22 2025 09:56:07 GMT-0500 (Central Daylight Time),520161.0,005_o_f_n_a.png,I,m,1152,14,2,2182.2000000029802,517978.799999997,8031,VNB,B,12
9,test,3,0.0,2-Back,0,z,Tue Apr 22 2025 09:56:07 GMT-0500 (Central Daylight Time),522976.89999999106,004_o_m_d_a.png,I,m,1767,15,2,2798.5999999940395,520178.299999997,8031,VNB,B,13
9,test,3,1.0,2-Back,0,m,Tue Apr 22 2025 09:56:07 GMT-0500 (Central Daylight Time),525309.3999999911,011_m_f_h_a.png,I,z,1289,16,2,2314.7999999970198,522994.59999999404,8031,VNB,B,14
10,test,3,0.0,2-Back,1,m,Tue Apr 22 2025 09:56:07 GMT-0500 (Central Daylight Time),527175.3999999911,007_m_m_n_a.png,I,m,827,17,2,1849.0,525326.3999999911,8031,VNB,B,15
10,test,3,0.0,2-Back,0,z,Tue Apr 22 2025 09:56:07 GMT-0500 (Central Daylight Time),529258.299999997,016_y_m_h_a.png,I,m,1041,18,2,2066.0,527192.299999997,8031,VNB,B,16
0,test,4,0.0,2-Back,,,Tue Apr 22 2025 09:56:07 GMT-0500 (Central Daylight Time),529258.299999997,011_m_f_n_a.png,I,space,2599,1,2,2066.0,527192.299999997,8031,VNB,B,0
0,test,4,0.0,2-Back,,,Tue Apr 22 2025 09:56:07 GMT-0500 (Central Daylight Time),529258.299999997,004_o_m_n_a.png,I,space,2599,2,2,2066.0,527192.299999997,8031,VNB,B,0
1,test,4,1.0,2-Back,1,m,Tue Apr 22 2025 09:56:07 GMT-0500 (Central Daylight Time),538938.799999997,016_y_m_h_a.png,I,m,784,3,2,1815.4000000059605,537123.3999999911,8031,VNB,B,1
2,test,4,1.0,2-Back,1,m,Tue Apr 22 2025 09:56:07 GMT-0500 (Central Daylight Time),541354.700000003,005_o_f_d_a.png,I,m,1382,4,2,2399.1000000089407,538955.599999994,8031,VNB,B,2
3,test,4,0.0,2-Back,1,z,Tue Apr 22 2025 09:56:07 GMT-0500 (Central Daylight Time),542920.5,004_o_m_h_a.png,I,z,526,5,2,1548.2999999970198,541372.200000003,8031,VNB,B,3
3,test,4,0.0,2-Back,0,m,Tue Apr 22 2025 09:56:07 GMT-0500 (Central Daylight Time),545519.700000003,007_m_m_n_a.png,I,z,1561,6,2,2582.0,542937.700000003,8031,VNB,B,4
4,test,4,0.0,2-Back,1,m,Tue Apr 22 2025 09:56:07 GMT-0500 (Central Daylight Time),547836.700000003,011_m_f_d_a.png,I,m,1281,7,2,2296.800000011921,545539.8999999911,8031,VNB,B,5
5,test,4,0.0,2-Back,1,z,Tue Apr 22 2025 09:56:07 GMT-0500 (Central Daylight Time),549702.0,020_y_f_n_a.png,I,z,822,8,2,1848.2000000029802,547853.799999997,8031,VNB,B,6
6,test,4,1.0,2-Back,1,m,Tue Apr 22 2025 09:56:07 GMT-0500 (Central Daylight Time),552417.5,005_o_f_h_a.png,I,m,1667,9,2,2697.7999999970198,549719.700000003,8031,VNB,B,7
7,test,4,0.0,2-Back,1,m,Tue Apr 22 2025 09:56:07 GMT-0500 (Central Daylight Time),554350.299999997,007_m_m_h_a.png,I,m,887,10,2,1913.0,552437.299999997,8031,VNB,B,8
7,test,4,0.0,2-Back,0,m,Tue Apr 22 2025 09:56:07 GMT-0500 (Central Daylight Time),556316.599999994,020_y_f_d_a.png,I,z,922,11,2,1947.8999999910593,554368.700000003,8031,VNB,B,9
8,test,4,0.0,2-Back,1,m,Tue Apr 22 2025 09:56:07 GMT-0500 (Central Daylight Time),559132.200000003,016_y_m_n_a.png,I,m,1780,12,2,2799.1000000089407,556333.099999994,8031,VNB,B,10
9,test,4,0.0,2-Back,1,z,Tue Apr 22 2025 09:56:07 GMT-0500 (Central Daylight Time),560864.8999999911,004_o_m_d_a.png,I,z,685,13,2,1714.5,559150.3999999911,8031,VNB,B,11
10,test,4,1.0,2-Back,1,m,Tue Apr 22 2025 09:56:07 GMT-0500 (Central Daylight Time),563080.799999997,011_m_f_h_a.png,I,m,1168,14,2,2199.4000000059605,560881.3999999911,8031,VNB,B,12
10,test,4,1.0,2-Back,0,m,Tue Apr 22 2025 09:56:07 GMT-0500 (Central Daylight Time),565863.5,020_y_f_h_a.png,I,z,1745,15,2,2764.4000000059605,563099.099999994,8031,VNB,B,13
11,test,4,0.0,2-Back,1,m,Tue Apr 22 2025 09:56:07 GMT-0500 (Central Daylight Time),567978.099999994,005_o_f_n_a.png,I,m,1081,16,2,2097.8999999910593,565880.200000003,8031,VNB,B,14
11,test,4,0.0,2-Back,0,m,Tue Apr 22 2025 09:56:07 GMT-0500 (Central Daylight Time),569978.8999999911,016_y_m_d_a.png,I,z,965,17,2,1983.0,567995.8999999911,8031,VNB,B,15
12,test,4,1.0,2-Back,1,m,Tue Apr 22 2025 09:56:07 GMT-0500 (Central Daylight Time),572461.299999997,007_m_m_d_a.png,I,m,1438,18,2,2465.9000000059605,569995.3999999911,8031,VNB,B,16
0,test,5,1.0,2-Back,,,Tue Apr 22 2025 09:56:07 GMT-0500 (Central Daylight Time),572461.299999997,020_y_f_d_a.png,I,space,1492,1,2,2465.9000000059605,569995.3999999911,8031,VNB,B,0
0,test,5,1.0,2-Back,,,Tue Apr 22 2025 09:56:07 GMT-0500 (Central Daylight Time),572461.299999997,005_o_f_h_a.png,I,space,1492,2,2,2465.9000000059605,569995.3999999911,8031,VNB,B,0
1,test,5,1.0,2-Back,1,z,Tue Apr 22 2025 09:56:07 GMT-0500 (Central Daylight Time),581158.599999994,004_o_m_d_a.png,I,z,911,3,2,1932.3999999910593,579226.200000003,8031,VNB,B,1
2,test,5,1.0,2-Back,1,m,Tue Apr 22 2025 09:56:07 GMT-0500 (Central Daylight Time),583374.5,011_m_f_n_a.png,I,m,1178,4,2,2196.5,581178.0,8031,VNB,B,2
2,test,5,0.0,2-Back,0,m,Tue Apr 22 2025 09:56:07 GMT-0500 (Central Daylight Time),586424.700000003,007_m_m_h_a.png,I,None,2017,5,2,3029.7000000029802,583395.0,8031,VNB,B,3
3,test,5,0.0,2-Back,1,z,Tue Apr 22 2025 09:56:07 GMT-0500 (Central Daylight Time),589056.5,020_y_f_n_a.png,I,z,1585,6,2,2615.6000000089407,586440.8999999911,8031,VNB,B,4
4,test,5,0.0,2-Back,1,m,Tue Apr 22 2025 09:56:07 GMT-0500 (Central Daylight Time),592055.099999994,005_o_f_d_a.png,I,m,1959,7,2,2981.8999999910593,589073.200000003,8031,VNB,B,5
5,test,5,0.0,2-Back,1,m,Tue Apr 22 2025 09:56:07 GMT-0500 (Central Daylight Time),594837.700000003,004_o_m_h_a.png,I,m,1737,8,2,2766.4000000059605,592071.299999997,8031,VNB,B,6
6,test,5,1.0,2-Back,1,z,Tue Apr 22 2025 09:56:07 GMT-0500 (Central Daylight Time),596737.099999994,011_m_f_d_a.png,I,z,852,9,2,1882.5,594854.599999994,8031,VNB,B,7
7,test,5,0.0,2-Back,1,m,Tue Apr 22 2025 09:56:07 GMT-0500 (Central Daylight Time),599436.200000003,016_y_m_n_a.png,I,m,1656,10,2,2680.1000000089407,596756.099999994,8031,VNB,B,8
8,test,5,0.0,2-Back,1,m,Tue Apr 22 2025 09:56:07 GMT-0500 (Central Daylight Time),602151.8999999911,007_m_m_n_a.png,I,m,1669,11,2,2694.5999999940395,599457.299999997,8031,VNB,B,9
9,test,5,0.0,2-Back,1,m,Tue Apr 22 2025 09:56:07 GMT-0500 (Central Daylight Time),604151.3999999911,020_y_f_h_a.png,I,m,961,12,2,1982.199999988079,602169.200000003,8031,VNB,B,10
10,test,5,0.0,2-Back,1,m,Tue Apr 22 2025 09:56:07 GMT-0500 (Central Daylight Time),606750.299999997,016_y_m_d_a.png,I,m,1561,13,2,2580.0,604170.299999997,8031,VNB,B,11
10,test,5,1.0,2-Back,0,z,Tue Apr 22 2025 09:56:07 GMT-0500 (Central Daylight Time),609799.599999994,011_m_f_h_a.png,I,None,2016,14,2,3027.5,606772.099999994,8031,VNB,B,12
11,test,5,0.0,2-Back,1,m,Tue Apr 22 2025 09:56:07 GMT-0500 (Central Daylight Time),612648.3999999911,004_o_m_n_a.png,I,m,1809,15,2,2831.8999999910593,609816.5,8031,VNB,B,13
12,test,5,0.0,2-Back,1,m,Tue Apr 22 2025 09:56:07 GMT-0500 (Central Daylight Time),615212.799999997,007_m_m_d_a.png,I,m,1530,16,2,2546.5999999940395,612666.200000003,8031,VNB,B,14
13,test,5,0.0,2-Back,1,z,Tue Apr 22 2025 09:56:07 GMT-0500 (Central Daylight Time),617580.5,005_o_f_n_a.png,I,z,1322,17,2,2347.6000000089407,615232.8999999911,8031,VNB,B,15
13,test,5,1.0,2-Back,0,m,Tue Apr 22 2025 09:56:07 GMT-0500 (Central Daylight Time),620629.799999997,016_y_m_h_a.png,I,None,2016,18,2,3032.0,617597.799999997,8031,VNB,B,16
