block_c,block_dur,condition,countdown,datetime,endtime,list,multichar_response,project,response,response_time,session_number,start_end,starttime,subject_id,task,task_vers,trial
,,,,Thu Feb 20 2025 13:31:47 GMT-0600 (Central Standard Time),,,,I,space,385,1,,,8030,WL,B,
prac,,0,,Thu Feb 20 2025 13:31:47 GMT-0600 (Central Standard Time),,NA,b,I,b,18565,1,,,8030,WL,B,1.0
prac,,0,,Thu Feb 20 2025 13:31:47 GMT-0600 (Central Standard Time),,NA,bo,I,o,2038,1,,,8030,WL,B,1.0
prac,,0,,Thu Feb 20 2025 13:31:47 GMT-0600 (Central Standard Time),,NA,bos,I,s,925,1,,,8030,WL,B,1.0
prac,,0,,Thu Feb 20 2025 13:31:47 GMT-0600 (Central Standard Time),,NA,bo,I,backspace,5337,1,,,8030,WL,B,1.0
prac,,0,,Thu Feb 20 2025 13:31:47 GMT-0600 (Central Standard Time),,NA,boo,I,o,1533,1,,,8030,WL,B,1.0
prac,,0,,Thu Feb 20 2025 13:31:47 GMT-0600 (Central Standard Time),,NA,boos,I,s,232,1,,,8030,WL,B,1.0
prac,,0,,Thu Feb 20 2025 13:31:47 GMT-0600 (Central Standard Time),,NA,boose,I,e,310,1,,,8030,WL,B,1.0
prac,,0,,Thu Feb 20 2025 13:31:47 GMT-0600 (Central Standard Time),,NA,boos,I,backspace,993,1,,,8030,WL,B,1.0
prac,,0,,Thu Feb 20 2025 13:31:47 GMT-0600 (Central Standard Time),,NA,boost,I,t,625,1,,,8030,WL,B,1.0
prac,,0,,Thu Feb 20 2025 13:31:47 GMT-0600 (Central Standard Time),,NA,boostenter,I,enter,2224,1,,,8030,WL,B,1.0
1,1.3399999141693115,learn,58660.00008583069,Thu Feb 20 2025 13:31:47 GMT-0600 (Central Standard Time),164425.69999999925,A,s,I,s,1318,1,1339.2999999998137,163086.39999999944,8030,WL,B,1.0
1,1.5399999618530273,learn,58460.00003814697,Thu Feb 20 2025 13:31:47 GMT-0600 (Central Standard Time),164625.59999999963,A,st,I,t,185,1,1539.2000000001863,163086.39999999944,8030,WL,B,1.0
1,1.7730000019073486,learn,58226.99999809265,Thu Feb 20 2025 13:31:47 GMT-0600 (Central Standard Time),164858.39999999944,A,str,I,r,227,1,1772.0,163086.39999999944,8030,WL,B,1.0
1,2.00600004196167,learn,57993.99995803833,Thu Feb 20 2025 13:31:47 GMT-0600 (Central Standard Time),165091.69999999925,A,stre,I,e,219,1,2005.2999999998137,163086.39999999944,8030,WL,B,1.0
1,2.172999858856201,learn,57827.0001411438,Thu Feb 20 2025 13:31:47 GMT-0600 (Central Standard Time),165258.39999999944,A,stree,I,e,153,1,2172.0,163086.39999999944,8030,WL,B,1.0
1,2.371999979019165,learn,57628.000020980835,Thu Feb 20 2025 13:31:47 GMT-0600 (Central Standard Time),165458.39999999944,A,street,I,t,194,1,2372.0,163086.39999999944,8030,WL,B,1.0
1,3.0220000743865967,learn,56977.9999256134,Thu Feb 20 2025 13:31:47 GMT-0600 (Central Standard Time),166108.2999999998,A,streetenter,I,enter,634,1,3021.9000000003725,163086.39999999944,8030,WL,B,1.0
1,3.871999979019165,learn,56128.000020980835,Thu Feb 20 2025 13:31:47 GMT-0600 (Central Standard Time),166957.7999999998,A,g,I,g,832,1,849.0,166108.7999999998,8030,WL,B,2.0
1,4.138999938964844,learn,55861.000061035156,Thu Feb 20 2025 13:31:47 GMT-0600 (Central Standard Time),167224.5,A,gr,I,r,246,1,1115.7000000001863,166108.7999999998,8030,WL,B,2.0
1,4.371999979019165,learn,55628.000020980835,Thu Feb 20 2025 13:31:47 GMT-0600 (Central Standard Time),167457.69999999925,A,gra,I,a,212,1,1348.8999999994412,166108.7999999998,8030,WL,B,2.0
1,4.687999963760376,learn,55312.000036239624,Thu Feb 20 2025 13:31:47 GMT-0600 (Central Standard Time),167774.2999999998,A,gras,I,s,307,1,1665.5,166108.7999999998,8030,WL,B,2.0
1,4.888000011444092,learn,55111.99998855591,Thu Feb 20 2025 13:31:47 GMT-0600 (Central Standard Time),167974.09999999963,A,grass,I,s,182,1,1865.2999999998137,166108.7999999998,8030,WL,B,2.0
1,5.105000019073486,learn,54894.999980926514,Thu Feb 20 2025 13:31:47 GMT-0600 (Central Standard Time),168190.89999999944,A,grassenter,I,enter,206,1,2082.0999999996275,166108.7999999998,8030,WL,B,2.0
1,6.204999923706055,learn,53795.000076293945,Thu Feb 20 2025 13:31:47 GMT-0600 (Central Standard Time),169290.89999999944,A,w,I,w,1086,1,1099.3999999994412,168191.5,8030,WL,B,3.0
1,6.48799991607666,learn,53512.00008392334,Thu Feb 20 2025 13:31:47 GMT-0600 (Central Standard Time),169574.09999999963,A,wi,I,i,266,1,1382.5999999996275,168191.5,8030,WL,B,3.0
1,6.838000059127808,learn,53161.99994087219,Thu Feb 20 2025 13:31:47 GMT-0600 (Central Standard Time),169923.69999999925,A,win,I,n,335,1,1732.199999999255,168191.5,8030,WL,B,3.0
1,7.088000059127808,learn,52911.99994087219,Thu Feb 20 2025 13:31:47 GMT-0600 (Central Standard Time),170173.39999999944,A,wind,I,d,233,1,1981.8999999994412,168191.5,8030,WL,B,3.0
1,7.421000003814697,learn,52578.9999961853,Thu Feb 20 2025 13:31:47 GMT-0600 (Central Standard Time),170506.89999999944,A,windo,I,o,318,1,2315.399999999441,168191.5,8030,WL,B,3.0
1,7.772000074386597,learn,52227.9999256134,Thu Feb 20 2025 13:31:47 GMT-0600 (Central Standard Time),170857.89999999944,A,window,I,w,346,1,2666.399999999441,168191.5,8030,WL,B,3.0
1,8.086999893188477,learn,51913.00010681152,Thu Feb 20 2025 13:31:47 GMT-0600 (Central Standard Time),171173.19999999925,A,windowenter,I,enter,307,1,2981.699999999255,168191.5,8030,WL,B,3.0
1,8.520999908447266,learn,51479.000091552734,Thu Feb 20 2025 13:31:47 GMT-0600 (Central Standard Time),171606.39999999944,A,d,I,d,415,1,432.59999999962747,171173.7999999998,8030,WL,B,4.0
1,8.836999893188477,learn,51163.00010681152,Thu Feb 20 2025 13:31:47 GMT-0600 (Central Standard Time),171923.09999999963,A,do,I,o,302,1,749.2999999998137,171173.7999999998,8030,WL,B,4.0
1,9.036999940872192,learn,50963.00005912781,Thu Feb 20 2025 13:31:47 GMT-0600 (Central Standard Time),172123.0,A,doo,I,o,186,1,949.2000000001863,171173.7999999998,8030,WL,B,4.0
1,9.369999885559082,learn,50630.00011444092,Thu Feb 20 2025 13:31:47 GMT-0600 (Central Standard Time),172455.7999999998,A,door,I,r,313,1,1282.0,171173.7999999998,8030,WL,B,4.0
1,9.619999885559082,learn,50380.00011444092,Thu Feb 20 2025 13:31:47 GMT-0600 (Central Standard Time),172706.09999999963,A,doorenter,I,enter,228,1,1532.2999999998137,171173.7999999998,8030,WL,B,4.0
1,10.187000036239624,learn,49812.999963760376,Thu Feb 20 2025 13:31:47 GMT-0600 (Central Standard Time),173272.59999999963,A,p,I,p,546,1,566.2000000001863,172706.39999999944,8030,WL,B,5.0
1,10.503000020980835,learn,49496.999979019165,Thu Feb 20 2025 13:31:47 GMT-0600 (Central Standard Time),173589.0,A,pu,I,u,308,1,882.6000000005588,172706.39999999944,8030,WL,B,5.0
1,10.935999870300293,learn,49064.00012969971,Thu Feb 20 2025 13:31:47 GMT-0600 (Central Standard Time),174022.39999999944,A,pup,I,p,416,1,1316.0,172706.39999999944,8030,WL,B,5.0
1,11.185999870300293,learn,48814.00012969971,Thu Feb 20 2025 13:31:47 GMT-0600 (Central Standard Time),174272.19999999925,A,pupi,I,i,239,1,1565.7999999998137,172706.39999999944,8030,WL,B,5.0
1,11.435999870300293,learn,48564.00012969971,Thu Feb 20 2025 13:31:47 GMT-0600 (Central Standard Time),174521.89999999944,A,pupil,I,l,229,1,1815.5,172706.39999999944,8030,WL,B,5.0
1,11.736000061035156,learn,48263.999938964844,Thu Feb 20 2025 13:31:47 GMT-0600 (Central Standard Time),174822.09999999963,A,pupilenter,I,enter,283,1,2115.7000000001863,172706.39999999944,8030,WL,B,5.0
1,14.802000045776367,learn,45197.99995422363,Thu Feb 20 2025 13:31:47 GMT-0600 (Central Standard Time),177887.89999999944,A,f,I,f,3046,1,3065.5,174822.39999999944,8030,WL,B,6.0
1,15.234999895095825,learn,44765.000104904175,Thu Feb 20 2025 13:31:47 GMT-0600 (Central Standard Time),178321.09999999963,A,fi,I,i,421,1,3498.7000000001863,174822.39999999944,8030,WL,B,6.0
1,15.585000038146973,learn,44414.99996185303,Thu Feb 20 2025 13:31:47 GMT-0600 (Central Standard Time),178670.89999999944,A,fir,I,r,340,1,3848.5,174822.39999999944,8030,WL,B,6.0
1,15.8510000705719,learn,44148.9999294281,Thu Feb 20 2025 13:31:47 GMT-0600 (Central Standard Time),178937.5,A,fire,I,e,254,1,4115.100000000559,174822.39999999944,8030,WL,B,6.0
1,16.217999935150146,learn,43782.00006484985,Thu Feb 20 2025 13:31:47 GMT-0600 (Central Standard Time),179303.89999999944,A,fireenter,I,enter,356,1,4481.5,174822.39999999944,8030,WL,B,6.0
1,22.8989999294281,learn,37101.0000705719,Thu Feb 20 2025 13:31:47 GMT-0600 (Central Standard Time),185985.39999999944,A,s,I,s,6661,1,6681.200000000186,179304.19999999925,8030,WL,B,7.0
1,24.348000049591064,learn,35651.999950408936,Thu Feb 20 2025 13:31:47 GMT-0600 (Central Standard Time),187434.59999999963,A,,I,backspace,1443,1,8130.4000000003725,179304.19999999925,8030,WL,B,7.0
1,28.863999843597412,learn,31136.000156402588,Thu Feb 20 2025 13:31:47 GMT-0600 (Central Standard Time),191950.0,A,w,I,w,4506,1,12645.800000000745,179304.19999999925,8030,WL,B,7.0
1,29.13100004196167,learn,30868.99995803833,Thu Feb 20 2025 13:31:47 GMT-0600 (Central Standard Time),192216.89999999944,A,wi,I,i,247,1,12912.700000000186,179304.19999999925,8030,WL,B,7.0
1,29.563999891281128,learn,30436.000108718872,Thu Feb 20 2025 13:31:47 GMT-0600 (Central Standard Time),192649.89999999944,A,wif,I,f,419,1,13345.700000000186,179304.19999999925,8030,WL,B,7.0
1,29.980000019073486,learn,30019.999980926514,Thu Feb 20 2025 13:31:47 GMT-0600 (Central Standard Time),193066.39999999944,A,wife,I,e,403,1,13762.200000000186,179304.19999999925,8030,WL,B,7.0
1,30.263999938964844,learn,29736.000061035156,Thu Feb 20 2025 13:31:47 GMT-0600 (Central Standard Time),193349.59999999963,A,wifeenter,I,enter,275,1,14045.400000000373,179304.19999999925,8030,WL,B,7.0
1,40.72699999809265,learn,19273.00000190735,Thu Feb 20 2025 13:31:47 GMT-0600 (Central Standard Time),203812.89999999944,A,enter,I,enter,10455,1,10462.799999999814,193350.09999999963,8030,WL,B,8.0
1,43.39299988746643,learn,16607.00011253357,Thu Feb 20 2025 13:31:47 GMT-0600 (Central Standard Time),206478.69999999925,A,enter,I,enter,2655,1,2665.399999999441,203813.2999999998,8030,WL,B,9.0
1,43.85899996757507,learn,16141.000032424927,Thu Feb 20 2025 13:31:47 GMT-0600 (Central Standard Time),206945.19999999925,A,enter,I,enter,446,1,465.8999999994412,206479.2999999998,8030,WL,B,10.0
1,44.87599992752075,learn,15124.000072479248,Thu Feb 20 2025 13:31:47 GMT-0600 (Central Standard Time),207962.0,A,enter,I,enter,1004,1,1016.5,206945.5,8030,WL,B,11.0
1,45.30900001525879,learn,14690.999984741211,Thu Feb 20 2025 13:31:47 GMT-0600 (Central Standard Time),208394.7999999998,A,enter,I,enter,419,1,432.29999999981374,207962.5,8030,WL,B,12.0
1,45.70899987220764,learn,14291.000127792358,Thu Feb 20 2025 13:31:47 GMT-0600 (Central Standard Time),208794.7999999998,A,enter,I,enter,386,1,399.6000000005588,208395.19999999925,8030,WL,B,13.0
1,46.15899991989136,learn,13841.000080108643,Thu Feb 20 2025 13:31:47 GMT-0600 (Central Standard Time),209244.7999999998,A,enter,I,enter,435,1,449.70000000018626,208795.09999999963,8030,WL,B,14.0
1,46.592000007629395,learn,13407.999992370605,Thu Feb 20 2025 13:31:47 GMT-0600 (Central Standard Time),209677.89999999944,A,enter,I,enter,424,1,432.70000000018626,209245.19999999925,8030,WL,B,15.0
2,1.183000087738037,learn,58816.99991226196,Thu Feb 20 2025 13:31:47 GMT-0600 (Central Standard Time),295751.0,A,a,I,a,1166,1,1182.9000000003725,294568.0999999996,8030,WL,B,1.0
2,1.5,learn,58500.0,Thu Feb 20 2025 13:31:47 GMT-0600 (Central Standard Time),296067.5999999996,A,ar,I,r,302,1,1499.5,294568.0999999996,8030,WL,B,1.0
2,2.200000047683716,learn,57799.999952316284,Thu Feb 20 2025 13:31:47 GMT-0600 (Central Standard Time),296767.2999999998,A,arm,I,m,690,1,2199.2000000001863,294568.0999999996,8030,WL,B,1.0
2,2.7160000801086426,learn,57283.99991989136,Thu Feb 20 2025 13:31:47 GMT-0600 (Central Standard Time),297283.89999999944,A,armenter,I,enter,502,1,2715.7999999998137,294568.0999999996,8030,WL,B,1.0
2,3.0989999771118164,learn,56901.00002288818,Thu Feb 20 2025 13:31:47 GMT-0600 (Central Standard Time),297666.69999999925,A,s,I,s,377,1,382.5,297284.19999999925,8030,WL,B,2.0
2,3.315999984741211,learn,56684.00001525879,Thu Feb 20 2025 13:31:47 GMT-0600 (Central Standard Time),297883.5999999996,A,st,I,t,203,1,599.4000000003725,297284.19999999925,8030,WL,B,2.0
2,3.4830000400543213,learn,56516.99995994568,Thu Feb 20 2025 13:31:47 GMT-0600 (Central Standard Time),298050.2999999998,A,sta,I,a,161,1,766.1000000005588,297284.19999999925,8030,WL,B,2.0
2,3.749000072479248,learn,56250.99992752075,Thu Feb 20 2025 13:31:47 GMT-0600 (Central Standard Time),298316.89999999944,A,star,I,r,259,1,1032.7000000001863,297284.19999999925,8030,WL,B,2.0
2,5.199000120162964,learn,54800.999879837036,Thu Feb 20 2025 13:31:47 GMT-0600 (Central Standard Time),299766.39999999944,A,starenter,I,enter,1432,1,2482.2000000001863,297284.19999999925,8030,WL,B,2.0
2,5.549000024795532,learn,54450.99997520447,Thu Feb 20 2025 13:31:47 GMT-0600 (Central Standard Time),300116.2999999998,A,c,I,c,343,1,349.70000000018626,299766.5999999996,8030,WL,B,3.0
2,5.865000009536743,learn,54134.99999046326,Thu Feb 20 2025 13:31:47 GMT-0600 (Central Standard Time),300432.89999999944,A,ci,I,i,297,1,666.2999999998137,299766.5999999996,8030,WL,B,3.0
2,6.131999969482422,learn,53868.00003051758,Thu Feb 20 2025 13:31:47 GMT-0600 (Central Standard Time),300699.39999999944,A,cit,I,t,260,1,932.7999999998137,299766.5999999996,8030,WL,B,3.0
2,6.381999969482422,learn,53618.00003051758,Thu Feb 20 2025 13:31:47 GMT-0600 (Central Standard Time),300949.39999999944,A,city,I,y,234,1,1182.7999999998137,299766.5999999996,8030,WL,B,3.0
2,6.765000104904175,learn,53234.999895095825,Thu Feb 20 2025 13:31:47 GMT-0600 (Central Standard Time),301332.5999999996,A,cityenter,I,enter,368,1,1566.0,299766.5999999996,8030,WL,B,3.0
2,7.315000057220459,learn,52684.99994277954,Thu Feb 20 2025 13:31:47 GMT-0600 (Central Standard Time),301882.39999999944,A,c,I,c,529,1,549.3999999994412,301333.0,8030,WL,B,4.0
2,7.4649999141693115,learn,52535.00008583069,Thu Feb 20 2025 13:31:47 GMT-0600 (Central Standard Time),302032.2999999998,A,ca,I,a,139,1,699.2999999998137,301333.0,8030,WL,B,4.0
2,8.030999898910522,learn,51969.00010108948,Thu Feb 20 2025 13:31:47 GMT-0600 (Central Standard Time),302598.7999999998,A,cab,I,b,556,1,1265.7999999998137,301333.0,8030,WL,B,4.0
2,8.398000001907349,learn,51601.99999809265,Thu Feb 20 2025 13:31:47 GMT-0600 (Central Standard Time),302965.2999999998,A,cabi,I,i,350,1,1632.2999999998137,301333.0,8030,WL,B,4.0
2,10.579999923706055,learn,49420.000076293945,Thu Feb 20 2025 13:31:47 GMT-0600 (Central Standard Time),305148.0,A,cabin,I,n,2176,1,3815.0,301333.0,8030,WL,B,4.0
2,11.130000114440918,learn,48869.99988555908,Thu Feb 20 2025 13:31:47 GMT-0600 (Central Standard Time),305697.7999999998,A,cabinenter,I,enter,537,1,4364.799999999814,301333.0,8030,WL,B,4.0
2,11.480000019073486,learn,48519.999980926514,Thu Feb 20 2025 13:31:47 GMT-0600 (Central Standard Time),306047.89999999944,A,l,I,l,332,1,349.79999999981374,305698.0999999996,8030,WL,B,5.0
2,11.71399998664856,learn,48286.00001335144,Thu Feb 20 2025 13:31:47 GMT-0600 (Central Standard Time),306281.19999999925,A,la,I,a,221,1,583.0999999996275,305698.0999999996,8030,WL,B,5.0
2,12.04699993133545,learn,47953.00006866455,Thu Feb 20 2025 13:31:47 GMT-0600 (Central Standard Time),306614.19999999925,A,lak,I,k,316,1,916.0999999996275,305698.0999999996,8030,WL,B,5.0
2,12.36299991607666,learn,47637.00008392334,Thu Feb 20 2025 13:31:47 GMT-0600 (Central Standard Time),306930.7999999998,A,lake,I,e,303,1,1232.7000000001863,305698.0999999996,8030,WL,B,5.0
2,12.680000066757202,learn,47319.9999332428,Thu Feb 20 2025 13:31:47 GMT-0600 (Central Standard Time),307247.5,A,lakeenter,I,enter,306,1,1549.4000000003725,305698.0999999996,8030,WL,B,5.0
2,12.980999946594238,learn,47019.00005340576,Thu Feb 20 2025 13:31:47 GMT-0600 (Central Standard Time),307548.39999999944,A,w,I,w,294,1,300.5,307247.89999999944,8030,WL,B,6.0
2,13.27999997138977,learn,46720.00002861023,Thu Feb 20 2025 13:31:47 GMT-0600 (Central Standard Time),307847.0999999996,A,wi,I,i,281,1,599.2000000001863,307247.89999999944,8030,WL,B,6.0
2,13.680000066757202,learn,46319.9999332428,Thu Feb 20 2025 13:31:47 GMT-0600 (Central Standard Time),308247.19999999925,A,wif,I,f,390,1,999.2999999998137,307247.89999999944,8030,WL,B,6.0
2,14.229000091552734,learn,45770.999908447266,Thu Feb 20 2025 13:31:47 GMT-0600 (Central Standard Time),308797.0,A,wife,I,e,542,1,1549.1000000005588,307247.89999999944,8030,WL,B,6.0
2,14.562999963760376,learn,45437.000036239624,Thu Feb 20 2025 13:31:47 GMT-0600 (Central Standard Time),309130.2999999998,A,wifeenter,I,enter,312,1,1882.4000000003725,307247.89999999944,8030,WL,B,6.0
2,16.111999988555908,learn,43888.00001144409,Thu Feb 20 2025 13:31:47 GMT-0600 (Central Standard Time),310679.69999999925,A,d,I,d,1531,1,1549.0,309130.69999999925,8030,WL,B,7.0
2,16.394999980926514,learn,43605.000019073486,Thu Feb 20 2025 13:31:47 GMT-0600 (Central Standard Time),310962.5999999996,A,do,I,o,278,1,1831.9000000003725,309130.69999999925,8030,WL,B,7.0
2,16.59500002861023,learn,43404.99997138977,Thu Feb 20 2025 13:31:47 GMT-0600 (Central Standard Time),311162.5999999996,A,doo,I,o,195,1,2031.9000000003725,309130.69999999925,8030,WL,B,7.0
2,16.911999940872192,learn,43088.00005912781,Thu Feb 20 2025 13:31:47 GMT-0600 (Central Standard Time),311479.39999999944,A,door,I,r,299,1,2348.7000000001863,309130.69999999925,8030,WL,B,7.0
2,17.295000076293945,learn,42704.999923706055,Thu Feb 20 2025 13:31:47 GMT-0600 (Central Standard Time),311862.5999999996,A,doorenter,I,enter,366,1,2731.9000000003725,309130.69999999925,8030,WL,B,7.0
2,17.795000076293945,learn,42204.999923706055,Thu Feb 20 2025 13:31:47 GMT-0600 (Central Standard Time),312362.2999999998,A,w,I,w,494,1,499.29999999981374,311863.0,8030,WL,B,8.0
2,18.045000076293945,learn,41954.999923706055,Thu Feb 20 2025 13:31:47 GMT-0600 (Central Standard Time),312612.39999999944,A,wi,I,i,235,1,749.3999999994412,311863.0,8030,WL,B,8.0
2,18.312999963760376,learn,41687.000036239624,Thu Feb 20 2025 13:31:47 GMT-0600 (Central Standard Time),312880.0999999996,A,win,I,n,256,1,1017.0999999996275,311863.0,8030,WL,B,8.0
2,18.528000116348267,learn,41471.99988365173,Thu Feb 20 2025 13:31:47 GMT-0600 (Central Standard Time),313095.5,A,wind,I,d,197,1,1232.5,311863.0,8030,WL,B,8.0
2,18.76099991798401,learn,41239.00008201599,Thu Feb 20 2025 13:31:47 GMT-0600 (Central Standard Time),313328.7999999998,A,windo,I,o,222,1,1465.7999999998137,311863.0,8030,WL,B,8.0
2,19.07800006866455,learn,40921.99993133545,Thu Feb 20 2025 13:31:47 GMT-0600 (Central Standard Time),313645.39999999944,A,window,I,w,308,1,1782.3999999994412,311863.0,8030,WL,B,8.0
2,19.41100001335144,learn,40588.99998664856,Thu Feb 20 2025 13:31:47 GMT-0600 (Central Standard Time),313978.5999999996,A,windowenter,I,enter,320,1,2115.5999999996275,311863.0,8030,WL,B,8.0
2,19.727999925613403,learn,40272.0000743866,Thu Feb 20 2025 13:31:47 GMT-0600 (Central Standard Time),314295.19999999925,A,w,I,w,307,1,316.29999999981374,313978.89999999944,8030,WL,B,9.0
2,20.01099991798401,learn,39989.00008201599,Thu Feb 20 2025 13:31:47 GMT-0600 (Central Standard Time),314578.5,A,wi,I,i,262,1,599.6000000005588,313978.89999999944,8030,WL,B,9.0
2,20.411999940872192,learn,39588.00005912781,Thu Feb 20 2025 13:31:47 GMT-0600 (Central Standard Time),314979.39999999944,A,wif,I,f,387,1,1000.5,313978.89999999944,8030,WL,B,9.0
2,20.793999910354614,learn,39206.000089645386,Thu Feb 20 2025 13:31:47 GMT-0600 (Central Standard Time),315361.19999999925,A,wife,I,e,370,1,1382.2999999998137,313978.89999999944,8030,WL,B,9.0
2,21.194000005722046,learn,38805.999994277954,Thu Feb 20 2025 13:31:47 GMT-0600 (Central Standard Time),315761.5,A,wifeenter,I,enter,380,1,1782.6000000005588,313978.89999999944,8030,WL,B,9.0
2,23.55999994277954,learn,36440.00005722046,Thu Feb 20 2025 13:31:47 GMT-0600 (Central Standard Time),318127.2999999998,A,g,I,g,2348,1,2365.4000000003725,315761.89999999944,8030,WL,B,10.0
2,23.792999982833862,learn,36207.00001716614,Thu Feb 20 2025 13:31:47 GMT-0600 (Central Standard Time),318360.5999999996,A,gr,I,r,222,1,2598.7000000001863,315761.89999999944,8030,WL,B,10.0
2,24.16000008583069,learn,35839.99991416931,Thu Feb 20 2025 13:31:47 GMT-0600 (Central Standard Time),318727.0999999996,A,gra,I,a,349,1,2965.2000000001863,315761.89999999944,8030,WL,B,10.0
2,25.259000062942505,learn,34740.999937057495,Thu Feb 20 2025 13:31:47 GMT-0600 (Central Standard Time),319827.0,A,gr,I,backspace,1086,1,4065.100000000559,315761.89999999944,8030,WL,B,10.0
2,25.426000118255615,learn,34573.999881744385,Thu Feb 20 2025 13:31:47 GMT-0600 (Central Standard Time),319993.2999999998,A,g,I,backspace,154,1,4231.4000000003725,315761.89999999944,8030,WL,B,10.0
2,25.575999975204468,learn,34424.00002479553,Thu Feb 20 2025 13:31:47 GMT-0600 (Central Standard Time),320143.39999999944,A,,I,backspace,140,1,4381.5,315761.89999999944,8030,WL,B,10.0
2,25.742000102996826,learn,34257.999897003174,Thu Feb 20 2025 13:31:47 GMT-0600 (Central Standard Time),320309.7999999998,A,,I,backspace,158,1,4547.9000000003725,315761.89999999944,8030,WL,B,10.0
2,26.342000007629395,learn,33657.999992370605,Thu Feb 20 2025 13:31:47 GMT-0600 (Central Standard Time),320909.89999999944,A,s,I,s,592,1,5148.0,315761.89999999944,8030,WL,B,10.0
2,26.592000007629395,learn,33407.999992370605,Thu Feb 20 2025 13:31:47 GMT-0600 (Central Standard Time),321159.89999999944,A,st,I,t,239,1,5398.0,315761.89999999944,8030,WL,B,10.0
2,27.14199995994568,learn,32858.00004005432,Thu Feb 20 2025 13:31:47 GMT-0600 (Central Standard Time),321709.5,A,str,I,r,533,1,5947.600000000559,315761.89999999944,8030,WL,B,10.0
2,27.408999919891357,learn,32591.000080108643,Thu Feb 20 2025 13:31:47 GMT-0600 (Central Standard Time),321976.2999999998,A,stre,I,e,248,1,6214.4000000003725,315761.89999999944,8030,WL,B,10.0
2,27.55900001525879,learn,32440.99998474121,Thu Feb 20 2025 13:31:47 GMT-0600 (Central Standard Time),322126.0999999996,A,stree,I,e,133,1,6364.200000000186,315761.89999999944,8030,WL,B,10.0
2,27.808000087738037,learn,32191.999912261963,Thu Feb 20 2025 13:31:47 GMT-0600 (Central Standard Time),322376.0999999996,A,street,I,t,231,1,6614.200000000186,315761.89999999944,8030,WL,B,10.0
2,28.22499990463257,learn,31775.00009536743,Thu Feb 20 2025 13:31:47 GMT-0600 (Central Standard Time),322792.5999999996,A,streetenter,I,enter,397,1,7030.700000000186,315761.89999999944,8030,WL,B,10.0
2,30.657999992370605,learn,29342.000007629395,Thu Feb 20 2025 13:31:47 GMT-0600 (Central Standard Time),325225.0999999996,A,p,I,p,2413,1,2432.2000000001863,322792.89999999944,8030,WL,B,11.0
2,30.94099998474121,learn,29059.00001525879,Thu Feb 20 2025 13:31:47 GMT-0600 (Central Standard Time),325508.0999999996,A,pi,I,i,268,1,2715.2000000001863,322792.89999999944,8030,WL,B,11.0
2,31.324000120162964,learn,28675.999879837036,Thu Feb 20 2025 13:31:47 GMT-0600 (Central Standard Time),325891.5999999996,A,pip,I,p,369,1,3098.7000000001863,322792.89999999944,8030,WL,B,11.0
2,31.723999977111816,learn,28276.000022888184,Thu Feb 20 2025 13:31:47 GMT-0600 (Central Standard Time),326291.39999999944,A,pipe,I,e,386,1,3498.5,322792.89999999944,8030,WL,B,11.0
2,32.09100008010864,learn,27908.999919891357,Thu Feb 20 2025 13:31:47 GMT-0600 (Central Standard Time),326658.0999999996,A,pipeenter,I,enter,346,1,3865.2000000001863,322792.89999999944,8030,WL,B,11.0
2,32.75699996948242,learn,27243.000030517578,Thu Feb 20 2025 13:31:47 GMT-0600 (Central Standard Time),327324.39999999944,A,p,I,p,659,1,666.0,326658.39999999944,8030,WL,B,12.0
2,33.180999994277954,learn,26819.000005722046,Thu Feb 20 2025 13:31:47 GMT-0600 (Central Standard Time),327748.5999999996,A,pu,I,u,419,1,1090.2000000001863,326658.39999999944,8030,WL,B,12.0
2,33.49000000953674,learn,26509.999990463257,Thu Feb 20 2025 13:31:47 GMT-0600 (Central Standard Time),328057.5,A,pup,I,p,287,1,1399.1000000005588,326658.39999999944,8030,WL,B,12.0
2,33.805999994277954,learn,26194.000005722046,Thu Feb 20 2025 13:31:47 GMT-0600 (Central Standard Time),328374.0,A,pupi,I,i,308,1,1715.6000000005588,326658.39999999944,8030,WL,B,12.0
2,34.08999991416931,learn,25910.00008583069,Thu Feb 20 2025 13:31:47 GMT-0600 (Central Standard Time),328657.2999999998,A,pupil,I,l,263,1,1998.9000000003725,326658.39999999944,8030,WL,B,12.0
2,34.37299990653992,learn,25627.000093460083,Thu Feb 20 2025 13:31:47 GMT-0600 (Central Standard Time),328940.5999999996,A,pupilenter,I,enter,276,1,2282.2000000001863,326658.39999999944,8030,WL,B,12.0
2,42.98699998855591,learn,17013.00001144409,Thu Feb 20 2025 13:31:47 GMT-0600 (Central Standard Time),337554.69999999925,A,f,I,f,8609,1,8613.699999999255,328941.0,8030,WL,B,13.0
2,43.47000002861023,learn,16529.99997138977,Thu Feb 20 2025 13:31:47 GMT-0600 (Central Standard Time),338037.7999999998,A,fi,I,i,474,1,9096.799999999814,328941.0,8030,WL,B,13.0
2,43.80299997329712,learn,16197.00002670288,Thu Feb 20 2025 13:31:47 GMT-0600 (Central Standard Time),338370.7999999998,A,fir,I,r,328,1,9429.799999999814,328941.0,8030,WL,B,13.0
2,44.0699999332428,learn,15930.000066757202,Thu Feb 20 2025 13:31:47 GMT-0600 (Central Standard Time),338637.7999999998,A,fire,I,e,251,1,9696.799999999814,328941.0,8030,WL,B,13.0
2,44.38700008392334,learn,15612.99991607666,Thu Feb 20 2025 13:31:47 GMT-0600 (Central Standard Time),338954.19999999925,A,fireenter,I,enter,303,1,10013.199999999255,328941.0,8030,WL,B,13.0
2,51.1010000705719,learn,8898.9999294281,Thu Feb 20 2025 13:31:47 GMT-0600 (Central Standard Time),345668.89999999944,A,enter,I,enter,6707,1,6714.399999999441,338954.5,8030,WL,B,14.0
2,53.818000078201294,learn,6181.999921798706,Thu Feb 20 2025 13:31:47 GMT-0600 (Central Standard Time),348385.5999999996,A,enter,I,enter,2705,1,2716.4000000003725,345669.19999999925,8030,WL,B,15.0
3,0.46700000762939453,learn,59532.999992370605,Thu Feb 20 2025 13:31:47 GMT-0600 (Central Standard Time),415397.0,A,c,I,c,459,1,466.6000000005588,414930.39999999944,8030,WL,B,1.0
3,0.7669999599456787,learn,59233.00004005432,Thu Feb 20 2025 13:31:47 GMT-0600 (Central Standard Time),415696.69999999925,A,cl,I,l,288,1,766.2999999998137,414930.39999999944,8030,WL,B,1.0
3,0.9830000400543213,learn,59016.99995994568,Thu Feb 20 2025 13:31:47 GMT-0600 (Central Standard Time),415913.2999999998,A,clo,I,o,205,1,982.9000000003725,414930.39999999944,8030,WL,B,1.0
3,1.2829999923706055,learn,58717.000007629395,Thu Feb 20 2025 13:31:47 GMT-0600 (Central Standard Time),416213.2999999998,A,cloc,I,c,284,1,1282.9000000003725,414930.39999999944,8030,WL,B,1.0
3,1.7999999523162842,learn,58200.000047683716,Thu Feb 20 2025 13:31:47 GMT-0600 (Central Standard Time),416729.89999999944,A,clock,I,k,496,1,1799.5,414930.39999999944,8030,WL,B,1.0
3,2.2160000801086426,learn,57783.99991989136,Thu Feb 20 2025 13:31:47 GMT-0600 (Central Standard Time),417146.39999999944,A,clockenter,I,enter,403,1,2216.0,414930.39999999944,8030,WL,B,1.0
3,2.8489999771118164,learn,57151.00002288818,Thu Feb 20 2025 13:31:47 GMT-0600 (Central Standard Time),417779.5,A,s,I,s,627,1,632.9000000003725,417146.5999999996,8030,WL,B,2.0
3,3.2160000801086426,learn,56783.99991989136,Thu Feb 20 2025 13:31:47 GMT-0600 (Central Standard Time),418146.0999999996,A,sk,I,k,354,1,999.5,417146.5999999996,8030,WL,B,2.0
3,3.431999921798706,learn,56568.000078201294,Thu Feb 20 2025 13:31:47 GMT-0600 (Central Standard Time),418362.69999999925,A,ski,I,i,203,1,1216.0999999996275,417146.5999999996,8030,WL,B,2.0
3,3.749000072479248,learn,56250.99992752075,Thu Feb 20 2025 13:31:47 GMT-0600 (Central Standard Time),418679.5,A,skin,I,n,299,1,1532.9000000003725,417146.5999999996,8030,WL,B,2.0
3,4.732000112533569,learn,55267.99988746643,Thu Feb 20 2025 13:31:47 GMT-0600 (Central Standard Time),419662.0999999996,A,skinenter,I,enter,974,1,2515.5,417146.5999999996,8030,WL,B,2.0
3,5.449000120162964,learn,54550.999879837036,Thu Feb 20 2025 13:31:47 GMT-0600 (Central Standard Time),420378.7999999998,A,a,I,a,696,1,716.4000000003725,419662.39999999944,8030,WL,B,3.0
3,5.79800009727478,learn,54201.99990272522,Thu Feb 20 2025 13:31:47 GMT-0600 (Central Standard Time),420728.69999999925,A,ar,I,r,330,1,1066.2999999998137,419662.39999999944,8030,WL,B,3.0
3,6.414999961853027,learn,53585.00003814697,Thu Feb 20 2025 13:31:47 GMT-0600 (Central Standard Time),421344.7999999998,A,arm,I,m,604,1,1682.4000000003725,419662.39999999944,8030,WL,B,3.0
3,7.075999975204468,learn,52924.00002479553,Thu Feb 20 2025 13:31:47 GMT-0600 (Central Standard Time),422006.2999999998,A,armenter,I,enter,509,1,2343.9000000003725,419662.39999999944,8030,WL,B,3.0
3,7.365000009536743,learn,52634.99999046326,Thu Feb 20 2025 13:31:47 GMT-0600 (Central Standard Time),422294.7999999998,A,f,I,f,279,1,288.20000000018626,422006.5999999996,8030,WL,B,4.0
3,7.648000001907349,learn,52351.99999809265,Thu Feb 20 2025 13:31:47 GMT-0600 (Central Standard Time),422577.89999999944,A,fo,I,o,270,1,571.2999999998137,422006.5999999996,8030,WL,B,4.0
3,8.480999946594238,learn,51519.00005340576,Thu Feb 20 2025 13:31:47 GMT-0600 (Central Standard Time),423410.89999999944,A,f,I,backspace,827,1,1404.2999999998137,422006.5999999996,8030,WL,B,4.0
3,9.04800009727478,learn,50951.99990272522,Thu Feb 20 2025 13:31:47 GMT-0600 (Central Standard Time),423977.69999999925,A,fi,I,i,554,1,1971.0999999996275,422006.5999999996,8030,WL,B,4.0
3,9.281000137329102,learn,50718.9998626709,Thu Feb 20 2025 13:31:47 GMT-0600 (Central Standard Time),424210.7999999998,A,fir,I,r,219,1,2204.2000000001863,422006.5999999996,8030,WL,B,4.0
3,9.531000137329102,learn,50468.9998626709,Thu Feb 20 2025 13:31:47 GMT-0600 (Central Standard Time),424460.7999999998,A,fire,I,e,235,1,2454.2000000001863,422006.5999999996,8030,WL,B,4.0
3,9.864000082015991,learn,50135.99991798401,Thu Feb 20 2025 13:31:47 GMT-0600 (Central Standard Time),424794.0,A,fireenter,I,enter,321,1,2787.4000000003725,422006.5999999996,8030,WL,B,4.0
3,10.52999997138977,learn,49470.00002861023,Thu Feb 20 2025 13:31:47 GMT-0600 (Central Standard Time),425460.5,A,c,I,c,651,1,666.1000000005588,424794.39999999944,8030,WL,B,5.0
3,10.71399998664856,learn,49286.00001335144,Thu Feb 20 2025 13:31:47 GMT-0600 (Central Standard Time),425643.7999999998,A,ci,I,i,177,1,849.4000000003725,424794.39999999944,8030,WL,B,5.0
3,11.062999963760376,learn,48937.000036239624,Thu Feb 20 2025 13:31:47 GMT-0600 (Central Standard Time),425993.5999999996,A,cit,I,t,337,1,1199.2000000001863,424794.39999999944,8030,WL,B,5.0
3,11.380000114440918,learn,48619.99988555908,Thu Feb 20 2025 13:31:47 GMT-0600 (Central Standard Time),426310.0,A,city,I,y,300,1,1515.6000000005588,424794.39999999944,8030,WL,B,5.0
3,11.763000011444092,learn,48236.99998855591,Thu Feb 20 2025 13:31:47 GMT-0600 (Central Standard Time),426693.39999999944,A,cityenter,I,enter,367,1,1899.0,424794.39999999944,8030,WL,B,5.0
3,12.095999956130981,learn,47904.00004386902,Thu Feb 20 2025 13:31:47 GMT-0600 (Central Standard Time),427026.69999999925,A,d,I,d,320,1,332.8999999994412,426693.7999999998,8030,WL,B,6.0
3,12.395999908447266,learn,47604.000091552734,Thu Feb 20 2025 13:31:47 GMT-0600 (Central Standard Time),427326.39999999944,A,do,I,o,291,1,632.5999999996275,426693.7999999998,8030,WL,B,6.0
3,12.61299991607666,learn,47387.00008392334,Thu Feb 20 2025 13:31:47 GMT-0600 (Central Standard Time),427543.19999999925,A,doo,I,o,199,1,849.3999999994412,426693.7999999998,8030,WL,B,6.0
3,13.013000011444092,learn,46986.99998855591,Thu Feb 20 2025 13:31:47 GMT-0600 (Central Standard Time),427942.89999999944,A,door,I,r,382,1,1249.0999999996275,426693.7999999998,8030,WL,B,6.0
3,13.42900013923645,learn,46570.99986076355,Thu Feb 20 2025 13:31:47 GMT-0600 (Central Standard Time),428359.5,A,doorenter,I,enter,406,1,1665.7000000001863,426693.7999999998,8030,WL,B,6.0
3,13.946000099182129,learn,46053.99990081787,Thu Feb 20 2025 13:31:47 GMT-0600 (Central Standard Time),428875.89999999944,A,w,I,w,510,1,516.0,428359.89999999944,8030,WL,B,7.0
3,14.196000099182129,learn,45803.99990081787,Thu Feb 20 2025 13:31:47 GMT-0600 (Central Standard Time),429126.0999999996,A,wi,I,i,233,1,766.2000000001863,428359.89999999944,8030,WL,B,7.0
3,14.479000091552734,learn,45520.999908447266,Thu Feb 20 2025 13:31:47 GMT-0600 (Central Standard Time),429409.2999999998,A,win,I,n,271,1,1049.4000000003725,428359.89999999944,8030,WL,B,7.0
3,14.76200008392334,learn,45237.99991607666,Thu Feb 20 2025 13:31:47 GMT-0600 (Central Standard Time),429692.39999999944,A,wind,I,d,276,1,1332.5,428359.89999999944,8030,WL,B,7.0
3,15.078999996185303,learn,44921.0000038147,Thu Feb 20 2025 13:31:47 GMT-0600 (Central Standard Time),430008.89999999944,A,windo,I,o,305,1,1649.0,428359.89999999944,8030,WL,B,7.0
3,15.444999933242798,learn,44555.0000667572,Thu Feb 20 2025 13:31:47 GMT-0600 (Central Standard Time),430375.5,A,window,I,w,357,1,2015.6000000005588,428359.89999999944,8030,WL,B,7.0
3,15.795000076293945,learn,44204.999923706055,Thu Feb 20 2025 13:31:47 GMT-0600 (Central Standard Time),430725.39999999944,A,windowenter,I,enter,342,1,2365.5,428359.89999999944,8030,WL,B,7.0
3,16.51200008392334,learn,43487.99991607666,Thu Feb 20 2025 13:31:47 GMT-0600 (Central Standard Time),431442.5,A,g,I,g,704,1,716.8000000007451,430725.69999999925,8030,WL,B,8.0
3,16.74500012397766,learn,43254.99987602234,Thu Feb 20 2025 13:31:47 GMT-0600 (Central Standard Time),431674.89999999944,A,gr,I,r,226,1,949.2000000001863,430725.69999999925,8030,WL,B,8.0
3,16.977999925613403,learn,43022.0000743866,Thu Feb 20 2025 13:31:47 GMT-0600 (Central Standard Time),431908.5,A,gra,I,a,219,1,1182.800000000745,430725.69999999925,8030,WL,B,8.0
3,17.34500002861023,learn,42654.99997138977,Thu Feb 20 2025 13:31:47 GMT-0600 (Central Standard Time),432274.7999999998,A,gras,I,s,361,1,1549.1000000005588,430725.69999999925,8030,WL,B,8.0
3,17.545000076293945,learn,42454.999923706055,Thu Feb 20 2025 13:31:47 GMT-0600 (Central Standard Time),432474.89999999944,A,grass,I,s,195,1,1749.2000000001863,430725.69999999925,8030,WL,B,8.0
3,17.944000005722046,learn,42055.999994277954,Thu Feb 20 2025 13:31:47 GMT-0600 (Central Standard Time),432874.5999999996,A,grassenter,I,enter,394,1,2148.9000000003725,430725.69999999925,8030,WL,B,8.0
3,18.710999965667725,learn,41289.000034332275,Thu Feb 20 2025 13:31:47 GMT-0600 (Central Standard Time),433641.19999999925,A,w,I,w,747,1,766.3999999994412,432874.7999999998,8030,WL,B,9.0
3,18.99399995803833,learn,41006.00004196167,Thu Feb 20 2025 13:31:47 GMT-0600 (Central Standard Time),433924.5,A,wi,I,i,268,1,1049.7000000001863,432874.7999999998,8030,WL,B,9.0
3,19.729000091552734,learn,40270.999908447266,Thu Feb 20 2025 13:31:47 GMT-0600 (Central Standard Time),434658.89999999944,A,wif,I,f,721,1,1784.0999999996275,432874.7999999998,8030,WL,B,9.0
3,20.177000045776367,learn,39822.99995422363,Thu Feb 20 2025 13:31:47 GMT-0600 (Central Standard Time),435107.39999999944,A,wife,I,e,434,1,2232.5999999996275,432874.7999999998,8030,WL,B,9.0
3,20.76200008392334,learn,39237.99991607666,Thu Feb 20 2025 13:31:47 GMT-0600 (Central Standard Time),435691.69999999925,A,wifeenter,I,enter,570,1,2816.899999999441,432874.7999999998,8030,WL,B,9.0
3,21.377000093460083,learn,38622.99990653992,Thu Feb 20 2025 13:31:47 GMT-0600 (Central Standard Time),436307.0,A,l,I,l,601,1,615.0,435692.0,8030,WL,B,10.0
3,21.592999935150146,learn,38407.00006484985,Thu Feb 20 2025 13:31:47 GMT-0600 (Central Standard Time),436523.5999999996,A,la,I,a,202,1,831.5999999996275,435692.0,8030,WL,B,10.0
3,21.927000045776367,learn,38072.99995422363,Thu Feb 20 2025 13:31:47 GMT-0600 (Central Standard Time),436857.0,A,lak,I,k,314,1,1165.0,435692.0,8030,WL,B,10.0
3,22.292999982833862,learn,37707.00001716614,Thu Feb 20 2025 13:31:47 GMT-0600 (Central Standard Time),437223.39999999944,A,lake,I,e,348,1,1531.3999999994412,435692.0,8030,WL,B,10.0
3,22.776999950408936,learn,37223.000049591064,Thu Feb 20 2025 13:31:47 GMT-0600 (Central Standard Time),437706.7999999998,A,lakeenter,I,enter,470,1,2014.7999999998137,435692.0,8030,WL,B,10.0
3,23.526000022888184,learn,36473.99997711182,Thu Feb 20 2025 13:31:47 GMT-0600 (Central Standard Time),438456.39999999944,A,p,I,p,731,1,749.3999999994412,437707.0,8030,WL,B,11.0
3,23.842999935150146,learn,36157.00006484985,Thu Feb 20 2025 13:31:47 GMT-0600 (Central Standard Time),438773.0,A,pu,I,u,301,1,1066.0,437707.0,8030,WL,B,11.0
3,24.292999982833862,learn,35707.00001716614,Thu Feb 20 2025 13:31:47 GMT-0600 (Central Standard Time),439223.0,A,pup,I,p,432,1,1516.0,437707.0,8030,WL,B,11.0
3,24.55900001525879,learn,35440.99998474121,Thu Feb 20 2025 13:31:47 GMT-0600 (Central Standard Time),439489.19999999925,A,pupi,I,i,246,1,1782.199999999255,437707.0,8030,WL,B,11.0
3,24.842000007629395,learn,35157.999992370605,Thu Feb 20 2025 13:31:47 GMT-0600 (Central Standard Time),439772.5999999996,A,pupil,I,l,268,1,2065.5999999996275,437707.0,8030,WL,B,11.0
3,25.30900001525879,learn,34690.99998474121,Thu Feb 20 2025 13:31:47 GMT-0600 (Central Standard Time),440239.0,A,pupilenter,I,enter,449,1,2532.0,437707.0,8030,WL,B,11.0
3,31.990000009536743,learn,28009.999990463257,Thu Feb 20 2025 13:31:47 GMT-0600 (Central Standard Time),446920.2999999998,A,s,I,s,6671,1,6680.799999999814,440239.5,8030,WL,B,12.0
3,32.20700001716614,learn,27792.999982833862,Thu Feb 20 2025 13:31:47 GMT-0600 (Central Standard Time),447137.0999999996,A,st,I,t,205,1,6897.5999999996275,440239.5,8030,WL,B,12.0
3,32.40700006484985,learn,27592.999935150146,Thu Feb 20 2025 13:31:47 GMT-0600 (Central Standard Time),447337.19999999925,A,sta,I,a,180,1,7097.699999999255,440239.5,8030,WL,B,12.0
3,32.70700001716614,learn,27292.999982833862,Thu Feb 20 2025 13:31:47 GMT-0600 (Central Standard Time),447636.89999999944,A,star,I,r,284,1,7397.399999999441,440239.5,8030,WL,B,12.0
3,34.25600004196167,learn,25743.99995803833,Thu Feb 20 2025 13:31:47 GMT-0600 (Central Standard Time),449186.5,A,starenter,I,enter,1536,1,8947.0,440239.5,8030,WL,B,12.0
3,47.58500003814697,learn,12414.999961853027,Thu Feb 20 2025 13:31:47 GMT-0600 (Central Standard Time),462515.19999999925,A,enter,I,enter,13322,1,13328.399999999441,449186.7999999998,8030,WL,B,13.0
3,48.46799993515015,learn,11532.000064849854,Thu Feb 20 2025 13:31:47 GMT-0600 (Central Standard Time),463398.5,A,enter,I,enter,866,1,882.9000000003725,462515.5999999996,8030,WL,B,14.0
3,49.05200004577637,learn,10947.999954223633,Thu Feb 20 2025 13:31:47 GMT-0600 (Central Standard Time),463981.7999999998,A,enter,I,enter,567,1,583.0,463398.7999999998,8030,WL,B,15.0
4,1.1660001277923584,learn,58833.99987220764,Thu Feb 20 2025 13:31:47 GMT-0600 (Central Standard Time),532727.0,A,c,I,c,1157,1,1166.0,531561.0,8030,WL,B,1.0
4,1.4500000476837158,learn,58549.999952316284,Thu Feb 20 2025 13:31:47 GMT-0600 (Central Standard Time),533010.2999999998,A,cl,I,l,278,1,1449.2999999998137,531561.0,8030,WL,B,1.0
4,1.7000000476837158,learn,58299.999952316284,Thu Feb 20 2025 13:31:47 GMT-0600 (Central Standard Time),533260.0999999996,A,clo,I,o,243,1,1699.0999999996275,531561.0,8030,WL,B,1.0
4,1.9830000400543213,learn,58016.99995994568,Thu Feb 20 2025 13:31:47 GMT-0600 (Central Standard Time),533543.2999999998,A,cloc,I,c,273,1,1982.2999999998137,531561.0,8030,WL,B,1.0
4,2.315999984741211,learn,57684.00001525879,Thu Feb 20 2025 13:31:47 GMT-0600 (Central Standard Time),533876.1999999993,A,clock,I,k,326,1,2315.199999999255,531561.0,8030,WL,B,1.0
4,3.0980000495910645,learn,56901.999950408936,Thu Feb 20 2025 13:31:47 GMT-0600 (Central Standard Time),534659.6999999993,A,clockenter,I,enter,768,1,3098.699999999255,531561.0,8030,WL,B,1.0
4,4.364000082015991,learn,55635.99991798401,Thu Feb 20 2025 13:31:47 GMT-0600 (Central Standard Time),535926.0,A,a,I,a,1258,1,1266.0,534660.0,8030,WL,B,2.0
4,4.564000129699707,learn,55435.99987030029,Thu Feb 20 2025 13:31:47 GMT-0600 (Central Standard Time),536125.8999999994,A,ar,I,r,191,1,1465.8999999994412,534660.0,8030,WL,B,2.0
4,5.5970001220703125,learn,54402.99987792969,Thu Feb 20 2025 13:31:47 GMT-0600 (Central Standard Time),537158.8999999994,A,arm,I,m,1015,1,2498.899999999441,534660.0,8030,WL,B,2.0
4,5.96399998664856,learn,54036.00001335144,Thu Feb 20 2025 13:31:47 GMT-0600 (Central Standard Time),537525.5,A,armenter,I,enter,351,1,2865.5,534660.0,8030,WL,B,2.0
4,6.397000074386597,learn,53602.9999256134,Thu Feb 20 2025 13:31:47 GMT-0600 (Central Standard Time),537958.5999999996,A,s,I,s,416,1,432.70000000018626,537525.8999999994,8030,WL,B,3.0
4,6.663000106811523,learn,53336.99989318848,Thu Feb 20 2025 13:31:47 GMT-0600 (Central Standard Time),538225.1999999993,A,sk,I,k,247,1,699.2999999998137,537525.8999999994,8030,WL,B,3.0
4,6.880000114440918,learn,53119.99988555908,Thu Feb 20 2025 13:31:47 GMT-0600 (Central Standard Time),538442.0,A,ski,I,i,196,1,916.1000000005588,537525.8999999994,8030,WL,B,3.0
4,7.213000059127808,learn,52786.99994087219,Thu Feb 20 2025 13:31:47 GMT-0600 (Central Standard Time),538775.0999999996,A,skin,I,n,324,1,1249.2000000001863,537525.8999999994,8030,WL,B,3.0
4,7.796000003814697,learn,52203.9999961853,Thu Feb 20 2025 13:31:47 GMT-0600 (Central Standard Time),539357.8999999994,A,skinenter,I,enter,566,1,1832.0,537525.8999999994,8030,WL,B,3.0
4,8.296000003814697,learn,51703.9999961853,Thu Feb 20 2025 13:31:47 GMT-0600 (Central Standard Time),539858.0,A,f,I,f,495,1,499.70000000018626,539358.2999999998,8030,WL,B,4.0
4,8.562999963760376,learn,51437.000036239624,Thu Feb 20 2025 13:31:47 GMT-0600 (Central Standard Time),540124.5999999996,A,fi,I,i,251,1,766.2999999998137,539358.2999999998,8030,WL,B,4.0
4,9.01200008392334,learn,50987.99991607666,Thu Feb 20 2025 13:31:47 GMT-0600 (Central Standard Time),540574.1999999993,A,fir,I,r,432,1,1215.8999999994412,539358.2999999998,8030,WL,B,4.0
4,9.212000131607056,learn,50787.999868392944,Thu Feb 20 2025 13:31:47 GMT-0600 (Central Standard Time),540774.1999999993,A,fire,I,e,190,1,1415.8999999994412,539358.2999999998,8030,WL,B,4.0
4,9.828999996185303,learn,50171.0000038147,Thu Feb 20 2025 13:31:47 GMT-0600 (Central Standard Time),541391.1999999993,A,fireenter,I,enter,599,1,2032.8999999994412,539358.2999999998,8030,WL,B,4.0
4,11.01200008392334,learn,48987.99991607666,Thu Feb 20 2025 13:31:47 GMT-0600 (Central Standard Time),542574.0999999996,A,d,I,d,1166,1,1182.5999999996275,541391.5,8030,WL,B,5.0
4,11.32800006866455,learn,48671.99993133545,Thu Feb 20 2025 13:31:47 GMT-0600 (Central Standard Time),542890.2999999998,A,do,I,o,303,1,1498.7999999998137,541391.5,8030,WL,B,5.0
4,11.529000043869019,learn,48470.99995613098,Thu Feb 20 2025 13:31:47 GMT-0600 (Central Standard Time),543090.2999999998,A,doo,I,o,179,1,1698.7999999998137,541391.5,8030,WL,B,5.0
4,11.82800006866455,learn,48171.99993133545,Thu Feb 20 2025 13:31:47 GMT-0600 (Central Standard Time),543389.8999999994,A,door,I,r,283,1,1998.3999999994412,541391.5,8030,WL,B,5.0
4,12.162000179290771,learn,47837.99982070923,Thu Feb 20 2025 13:31:47 GMT-0600 (Central Standard Time),543723.5,A,doorenter,I,enter,328,1,2332.0,541391.5,8030,WL,B,5.0
4,12.695000171661377,learn,47304.99982833862,Thu Feb 20 2025 13:31:47 GMT-0600 (Central Standard Time),544257.2999999998,A,w,I,w,522,1,533.5,543723.7999999998,8030,WL,B,6.0
4,12.962000131607056,learn,47037.999868392944,Thu Feb 20 2025 13:31:47 GMT-0600 (Central Standard Time),544523.5999999996,A,wi,I,i,260,1,799.7999999998137,543723.7999999998,8030,WL,B,6.0
4,13.311000108718872,learn,46688.99989128113,Thu Feb 20 2025 13:31:47 GMT-0600 (Central Standard Time),544873.1999999993,A,win,I,n,330,1,1149.3999999994412,543723.7999999998,8030,WL,B,6.0
4,13.561000108718872,learn,46438.99989128113,Thu Feb 20 2025 13:31:47 GMT-0600 (Central Standard Time),545123.0999999996,A,wind,I,d,244,1,1399.2999999998137,543723.7999999998,8030,WL,B,6.0
4,13.878000020980835,learn,46121.999979019165,Thu Feb 20 2025 13:31:47 GMT-0600 (Central Standard Time),545439.7999999998,A,windo,I,o,306,1,1716.0,543723.7999999998,8030,WL,B,6.0
4,14.24399995803833,learn,45756.00004196167,Thu Feb 20 2025 13:31:47 GMT-0600 (Central Standard Time),545806.1999999993,A,window,I,w,350,1,2082.399999999441,543723.7999999998,8030,WL,B,6.0
4,14.694000005722046,learn,45305.999994277954,Thu Feb 20 2025 13:31:47 GMT-0600 (Central Standard Time),546256.1999999993,A,windowenter,I,enter,439,1,2532.399999999441,543723.7999999998,8030,WL,B,6.0
4,15.261000156402588,learn,44738.99984359741,Thu Feb 20 2025 13:31:47 GMT-0600 (Central Standard Time),546822.5999999996,A,w,I,w,557,1,565.9000000003725,546256.6999999993,8030,WL,B,7.0
4,15.561000108718872,learn,44438.99989128113,Thu Feb 20 2025 13:31:47 GMT-0600 (Central Standard Time),547122.5,A,wi,I,i,295,1,865.8000000007451,546256.6999999993,8030,WL,B,7.0
4,15.976999998092651,learn,44023.00000190735,Thu Feb 20 2025 13:31:47 GMT-0600 (Central Standard Time),547538.7999999998,A,wif,I,f,411,1,1282.1000000005588,546256.6999999993,8030,WL,B,7.0
4,16.277000188827515,learn,43722.999811172485,Thu Feb 20 2025 13:31:47 GMT-0600 (Central Standard Time),547839.0999999996,A,wife,I,e,291,1,1582.4000000003725,546256.6999999993,8030,WL,B,7.0
4,16.5770001411438,learn,43422.9998588562,Thu Feb 20 2025 13:31:47 GMT-0600 (Central Standard Time),548138.6999999993,A,wifeenter,I,enter,286,1,1882.0,546256.6999999993,8030,WL,B,7.0
4,17.24399995803833,learn,42756.00004196167,Thu Feb 20 2025 13:31:47 GMT-0600 (Central Standard Time),548805.5,A,p,I,p,650,1,666.4000000003725,548139.0999999996,8030,WL,B,8.0
4,17.542999982833862,learn,42457.00001716614,Thu Feb 20 2025 13:31:47 GMT-0600 (Central Standard Time),549105.0,A,pi,I,i,280,1,965.9000000003725,548139.0999999996,8030,WL,B,8.0
4,18.676000118255615,learn,41323.999881744385,Thu Feb 20 2025 13:31:47 GMT-0600 (Central Standard Time),550238.0999999996,A,pip,I,p,1124,1,2099.0,548139.0999999996,8030,WL,B,8.0
4,19.41000008583069,learn,40589.99991416931,Thu Feb 20 2025 13:31:47 GMT-0600 (Central Standard Time),550971.2999999998,A,pipe,I,e,719,1,2832.2000000001863,548139.0999999996,8030,WL,B,8.0
4,20.259000062942505,learn,39740.999937057495,Thu Feb 20 2025 13:31:47 GMT-0600 (Central Standard Time),551820.7999999998,A,pipeenter,I,enter,842,1,3681.7000000001863,548139.0999999996,8030,WL,B,8.0
4,20.858999967575073,learn,39141.00003242493,Thu Feb 20 2025 13:31:47 GMT-0600 (Central Standard Time),552420.5,A,p,I,p,593,1,599.5,551821.0,8030,WL,B,9.0
4,21.20900011062622,learn,38790.99988937378,Thu Feb 20 2025 13:31:47 GMT-0600 (Central Standard Time),552770.5999999996,A,pu,I,u,336,1,949.5999999996275,551821.0,8030,WL,B,9.0
4,21.509000062942505,learn,38490.999937057495,Thu Feb 20 2025 13:31:47 GMT-0600 (Central Standard Time),553070.5999999996,A,pup,I,p,290,1,1249.5999999996275,551821.0,8030,WL,B,9.0
4,22.009000062942505,learn,37990.999937057495,Thu Feb 20 2025 13:31:47 GMT-0600 (Central Standard Time),553570.5,A,pupi,I,i,495,1,1749.5,551821.0,8030,WL,B,9.0
4,22.39199995994568,learn,37608.00004005432,Thu Feb 20 2025 13:31:47 GMT-0600 (Central Standard Time),553953.7999999998,A,pupil,I,l,363,1,2132.7999999998137,551821.0,8030,WL,B,9.0
4,22.725000143051147,learn,37274.99985694885,Thu Feb 20 2025 13:31:47 GMT-0600 (Central Standard Time),554286.7999999998,A,pupilenter,I,enter,323,1,2465.7999999998137,551821.0,8030,WL,B,9.0
4,23.20800018310547,learn,36791.99981689453,Thu Feb 20 2025 13:31:47 GMT-0600 (Central Standard Time),554770.0999999996,A,s,I,s,463,1,483.0,554287.0999999996,8030,WL,B,10.0
4,23.475000143051147,learn,36524.99985694885,Thu Feb 20 2025 13:31:47 GMT-0600 (Central Standard Time),555036.5999999996,A,st,I,t,251,1,749.5,554287.0999999996,8030,WL,B,10.0
4,23.725000143051147,learn,36274.99985694885,Thu Feb 20 2025 13:31:47 GMT-0600 (Central Standard Time),555286.5,A,str,I,r,241,1,999.4000000003725,554287.0999999996,8030,WL,B,10.0
4,23.991000175476074,learn,36008.999824523926,Thu Feb 20 2025 13:31:47 GMT-0600 (Central Standard Time),555553.0,A,stre,I,e,247,1,1265.9000000003725,554287.0999999996,8030,WL,B,10.0
4,24.157999992370605,learn,35842.000007629395,Thu Feb 20 2025 13:31:47 GMT-0600 (Central Standard Time),555719.8999999994,A,stree,I,e,148,1,1432.7999999998137,554287.0999999996,8030,WL,B,10.0
4,24.473999977111816,learn,35526.00002288818,Thu Feb 20 2025 13:31:47 GMT-0600 (Central Standard Time),556036.0999999996,A,street,I,t,302,1,1749.0,554287.0999999996,8030,WL,B,10.0
4,24.891000032424927,learn,35108.99996757507,Thu Feb 20 2025 13:31:47 GMT-0600 (Central Standard Time),556453.0,A,streetenter,I,enter,401,1,2165.9000000003725,554287.0999999996,8030,WL,B,10.0
4,25.52400016784668,learn,34475.99983215332,Thu Feb 20 2025 13:31:47 GMT-0600 (Central Standard Time),557086.0999999996,A,g,I,g,624,1,632.7000000001863,556453.3999999994,8030,WL,B,11.0
4,25.808000087738037,learn,34191.99991226196,Thu Feb 20 2025 13:31:47 GMT-0600 (Central Standard Time),557369.3999999994,A,gr,I,r,264,1,916.0,556453.3999999994,8030,WL,B,11.0
4,26.057000160217285,learn,33942.999839782715,Thu Feb 20 2025 13:31:47 GMT-0600 (Central Standard Time),557618.8999999994,A,gra,I,a,244,1,1165.5,556453.3999999994,8030,WL,B,11.0
4,26.640000104904175,learn,33359.999895095825,Thu Feb 20 2025 13:31:47 GMT-0600 (Central Standard Time),558202.2999999998,A,gras,I,s,563,1,1748.9000000003725,556453.3999999994,8030,WL,B,11.0
4,26.824000120162964,learn,33175.999879837036,Thu Feb 20 2025 13:31:47 GMT-0600 (Central Standard Time),558385.5,A,grass,I,s,171,1,1932.1000000005588,556453.3999999994,8030,WL,B,11.0
4,27.59000015258789,learn,32409.99984741211,Thu Feb 20 2025 13:31:47 GMT-0600 (Central Standard Time),559152.0999999996,A,grassenter,I,enter,756,1,2698.7000000001863,556453.3999999994,8030,WL,B,11.0
4,30.072999954223633,learn,29927.000045776367,Thu Feb 20 2025 13:31:47 GMT-0600 (Central Standard Time),561634.3999999994,A,l,I,l,2469,1,2482.0999999996275,559152.2999999998,8030,WL,B,12.0
4,30.289000034332275,learn,29710.999965667725,Thu Feb 20 2025 13:31:47 GMT-0600 (Central Standard Time),561851.2999999998,A,la,I,a,203,1,2699.0,559152.2999999998,8030,WL,B,12.0
4,30.606000185012817,learn,29393.999814987183,Thu Feb 20 2025 13:31:47 GMT-0600 (Central Standard Time),562167.7999999998,A,lak,I,k,306,1,3015.5,559152.2999999998,8030,WL,B,12.0
4,30.92200016975403,learn,29077.99983024597,Thu Feb 20 2025 13:31:47 GMT-0600 (Central Standard Time),562484.2999999998,A,lake,I,e,302,1,3332.0,559152.2999999998,8030,WL,B,12.0
4,31.289000034332275,learn,28710.999965667725,Thu Feb 20 2025 13:31:47 GMT-0600 (Central Standard Time),562850.8999999994,A,lakeenter,I,enter,353,1,3698.5999999996275,559152.2999999998,8030,WL,B,12.0
4,31.871999979019165,learn,28128.000020980835,Thu Feb 20 2025 13:31:47 GMT-0600 (Central Standard Time),563434.1999999993,A,c,I,c,571,1,582.8999999994412,562851.2999999998,8030,WL,B,13.0
4,32.055999994277954,learn,27944.000005722046,Thu Feb 20 2025 13:31:47 GMT-0600 (Central Standard Time),563618.0999999996,A,ca,I,a,179,1,766.7999999998137,562851.2999999998,8030,WL,B,13.0
4,32.42200016975403,learn,27577.99983024597,Thu Feb 20 2025 13:31:47 GMT-0600 (Central Standard Time),563983.8999999994,A,cab,I,b,348,1,1132.5999999996275,562851.2999999998,8030,WL,B,13.0
4,32.72200012207031,learn,27277.999877929688,Thu Feb 20 2025 13:31:47 GMT-0600 (Central Standard Time),564283.6999999993,A,cabi,I,i,294,1,1432.3999999994412,562851.2999999998,8030,WL,B,13.0
4,33.0220000743866,learn,26977.999925613403,Thu Feb 20 2025 13:31:47 GMT-0600 (Central Standard Time),564583.6999999993,A,cabin,I,n,289,1,1732.3999999994412,562851.2999999998,8030,WL,B,13.0
4,33.42200016975403,learn,26577.99983024597,Thu Feb 20 2025 13:31:47 GMT-0600 (Central Standard Time),564983.5,A,cabinenter,I,enter,382,1,2132.2000000001863,562851.2999999998,8030,WL,B,13.0
4,37.754000186920166,learn,22245.999813079834,Thu Feb 20 2025 13:31:47 GMT-0600 (Central Standard Time),569315.3999999994,A,s,I,s,4326,1,4331.700000000186,564983.6999999993,8030,WL,B,14.0
4,38.15300011634827,learn,21846.999883651733,Thu Feb 20 2025 13:31:47 GMT-0600 (Central Standard Time),569715.1999999993,A,st,I,t,394,1,4731.5,564983.6999999993,8030,WL,B,14.0
4,38.63700008392334,learn,21362.99991607666,Thu Feb 20 2025 13:31:47 GMT-0600 (Central Standard Time),570198.5,A,sta,I,a,466,1,5214.800000000745,564983.6999999993,8030,WL,B,14.0
4,38.98699998855591,learn,21013.00001144409,Thu Feb 20 2025 13:31:47 GMT-0600 (Central Standard Time),570548.3999999994,A,star,I,r,343,1,5564.700000000186,564983.6999999993,8030,WL,B,14.0
4,39.43600010871887,learn,20563.999891281128,Thu Feb 20 2025 13:31:47 GMT-0600 (Central Standard Time),570998.1999999993,A,starenter,I,enter,441,1,6014.5,564983.6999999993,8030,WL,B,14.0
4,41.2020001411438,learn,18797.9998588562,Thu Feb 20 2025 13:31:47 GMT-0600 (Central Standard Time),572764.0999999996,A,enter,I,enter,1759,1,1765.5999999996275,570998.5,8030,WL,B,15.0
5,2.0,learn,60000.0,Thu Feb 20 2025 13:31:47 GMT-0600 (Central Standard Time),642626.2999999998,A,s,I,s,1979,1,1999.6000000005588,640626.6999999993,8030,WL,B,1.0
5,2.31600022315979,learn,60000.0,Thu Feb 20 2025 13:31:47 GMT-0600 (Central Standard Time),642942.5999999996,A,st,I,t,299,1,2315.9000000003725,640626.6999999993,8030,WL,B,1.0
5,2.56600022315979,learn,60000.0,Thu Feb 20 2025 13:31:47 GMT-0600 (Central Standard Time),643192.5999999996,A,str,I,r,239,1,2565.9000000003725,640626.6999999993,8030,WL,B,1.0
5,2.933000087738037,learn,60000.0,Thu Feb 20 2025 13:31:47 GMT-0600 (Central Standard Time),643559.0,A,stre,I,e,349,1,2932.300000000745,640626.6999999993,8030,WL,B,1.0
5,3.0990002155303955,learn,60000.0,Thu Feb 20 2025 13:31:47 GMT-0600 (Central Standard Time),643725.3999999994,A,stree,I,e,158,1,3098.7000000001863,640626.6999999993,8030,WL,B,1.0
5,3.3490002155303955,learn,60000.0,Thu Feb 20 2025 13:31:47 GMT-0600 (Central Standard Time),643975.3999999994,A,street,I,t,239,1,3348.7000000001863,640626.6999999993,8030,WL,B,1.0
5,4.016000032424927,learn,60000.0,Thu Feb 20 2025 13:31:47 GMT-0600 (Central Standard Time),644642.0,A,streetenter,I,enter,646,1,4015.300000000745,640626.6999999993,8030,WL,B,1.0
5,4.699000120162964,learn,60000.0,Thu Feb 20 2025 13:31:47 GMT-0600 (Central Standard Time),645325.1999999993,A,g,I,g,676,1,682.8999999994412,644642.2999999998,8030,WL,B,2.0
5,4.949000120162964,learn,60000.0,Thu Feb 20 2025 13:31:47 GMT-0600 (Central Standard Time),645575.0999999996,A,gr,I,r,232,1,932.7999999998137,644642.2999999998,8030,WL,B,2.0
5,5.499000072479248,learn,60000.0,Thu Feb 20 2025 13:31:47 GMT-0600 (Central Standard Time),646125.0,A,gra,I,a,534,1,1482.7000000001863,644642.2999999998,8030,WL,B,2.0
5,5.815000057220459,learn,60000.0,Thu Feb 20 2025 13:31:47 GMT-0600 (Central Standard Time),646441.2999999998,A,gras,I,s,296,1,1799.0,644642.2999999998,8030,WL,B,2.0
5,6.04800009727478,learn,60000.0,Thu Feb 20 2025 13:31:47 GMT-0600 (Central Standard Time),646674.5999999996,A,grass,I,s,213,1,2032.2999999998137,644642.2999999998,8030,WL,B,2.0
5,6.482000112533569,learn,60000.0,Thu Feb 20 2025 13:31:47 GMT-0600 (Central Standard Time),647107.8999999994,A,grassenter,I,enter,427,1,2465.5999999996275,644642.2999999998,8030,WL,B,2.0
5,6.88100004196167,learn,60000.0,Thu Feb 20 2025 13:31:47 GMT-0600 (Central Standard Time),647507.5999999996,A,c,I,c,394,1,399.40000000037253,647108.1999999993,8030,WL,B,3.0
5,7.13100004196167,learn,60000.0,Thu Feb 20 2025 13:31:47 GMT-0600 (Central Standard Time),647757.5,A,ci,I,i,242,1,649.3000000007451,647108.1999999993,8030,WL,B,3.0
5,7.483000040054321,learn,60000.0,Thu Feb 20 2025 13:31:47 GMT-0600 (Central Standard Time),648108.7999999998,A,cit,I,t,336,1,1000.6000000005588,647108.1999999993,8030,WL,B,3.0
5,7.79800009727478,learn,60000.0,Thu Feb 20 2025 13:31:47 GMT-0600 (Central Standard Time),648424.2999999998,A,city,I,y,304,1,1316.1000000005588,647108.1999999993,8030,WL,B,3.0
5,8.54800009727478,learn,60000.0,Thu Feb 20 2025 13:31:47 GMT-0600 (Central Standard Time),649174.0,A,cityenter,I,enter,741,1,2065.800000000745,647108.1999999993,8030,WL,B,3.0
5,8.94700002670288,learn,60000.0,Thu Feb 20 2025 13:31:47 GMT-0600 (Central Standard Time),649573.6999999993,A,d,I,d,392,1,399.29999999981374,649174.3999999994,8030,WL,B,4.0
5,9.364000082015991,learn,60000.0,Thu Feb 20 2025 13:31:47 GMT-0600 (Central Standard Time),649990.1999999993,A,do,I,o,408,1,815.7999999998137,649174.3999999994,8030,WL,B,4.0
5,9.581000089645386,learn,60000.0,Thu Feb 20 2025 13:31:47 GMT-0600 (Central Standard Time),650206.8999999994,A,doo,I,o,199,1,1032.5,649174.3999999994,8030,WL,B,4.0
5,10.064000129699707,learn,60000.0,Thu Feb 20 2025 13:31:47 GMT-0600 (Central Standard Time),650690.2999999998,A,door,I,r,463,1,1515.9000000003725,649174.3999999994,8030,WL,B,4.0
5,10.480000019073486,learn,60000.0,Thu Feb 20 2025 13:31:47 GMT-0600 (Central Standard Time),651106.6999999993,A,doorenter,I,enter,403,1,1932.2999999998137,649174.3999999994,8030,WL,B,4.0
5,10.847000122070312,learn,60000.0,Thu Feb 20 2025 13:31:47 GMT-0600 (Central Standard Time),651473.1999999993,A,w,I,w,355,1,366.29999999981374,651106.8999999994,8030,WL,B,5.0
5,11.313000202178955,learn,60000.0,Thu Feb 20 2025 13:31:47 GMT-0600 (Central Standard Time),651939.5999999996,A,wi,I,i,460,1,832.7000000001863,651106.8999999994,8030,WL,B,5.0
5,11.580000162124634,learn,60000.0,Thu Feb 20 2025 13:31:47 GMT-0600 (Central Standard Time),652206.0,A,win,I,n,258,1,1099.1000000005588,651106.8999999994,8030,WL,B,5.0
5,11.880000114440918,learn,60000.0,Thu Feb 20 2025 13:31:47 GMT-0600 (Central Standard Time),652506.0,A,wind,I,d,279,1,1399.1000000005588,651106.8999999994,8030,WL,B,5.0
5,12.147000074386597,learn,60000.0,Thu Feb 20 2025 13:31:47 GMT-0600 (Central Standard Time),652772.7999999998,A,windo,I,o,252,1,1665.9000000003725,651106.8999999994,8030,WL,B,5.0
5,12.53000020980835,learn,60000.0,Thu Feb 20 2025 13:31:47 GMT-0600 (Central Standard Time),653156.0,A,window,I,w,377,1,2049.100000000559,651106.8999999994,8030,WL,B,5.0
5,12.963000059127808,learn,60000.0,Thu Feb 20 2025 13:31:47 GMT-0600 (Central Standard Time),653589.0,A,windowenter,I,enter,425,1,2482.100000000559,651106.8999999994,8030,WL,B,5.0
5,13.728000164031982,learn,60000.0,Thu Feb 20 2025 13:31:47 GMT-0600 (Central Standard Time),654355.3999999994,A,p,I,p,753,1,766.0999999996275,653589.2999999998,8030,WL,B,6.0
5,14.061000108718872,learn,60000.0,Thu Feb 20 2025 13:31:47 GMT-0600 (Central Standard Time),654688.8999999994,A,pu,I,u,313,1,1099.5999999996275,653589.2999999998,8030,WL,B,6.0
5,14.428000211715698,learn,60000.0,Thu Feb 20 2025 13:31:47 GMT-0600 (Central Standard Time),655055.3999999994,A,pup,I,p,348,1,1466.0999999996275,653589.2999999998,8030,WL,B,6.0
5,14.694000005722046,learn,60000.0,Thu Feb 20 2025 13:31:47 GMT-0600 (Central Standard Time),655321.8999999994,A,pupi,I,i,254,1,1732.5999999996275,653589.2999999998,8030,WL,B,6.0
5,15.028000116348267,learn,60000.0,Thu Feb 20 2025 13:31:47 GMT-0600 (Central Standard Time),655655.0999999996,A,pupil,I,l,315,1,2065.7999999998137,653589.2999999998,8030,WL,B,6.0
5,15.678000211715698,learn,60000.0,Thu Feb 20 2025 13:31:47 GMT-0600 (Central Standard Time),656305.0999999996,A,pupilenter,I,enter,630,1,2715.7999999998137,653589.2999999998,8030,WL,B,6.0
5,16.027000188827515,learn,60000.0,Thu Feb 20 2025 13:31:47 GMT-0600 (Central Standard Time),656655.0,A,p,I,p,332,1,349.6000000005588,656305.3999999994,8030,WL,B,7.0
5,16.39400005340576,learn,60000.0,Thu Feb 20 2025 13:31:47 GMT-0600 (Central Standard Time),657021.3999999994,A,pi,I,i,350,1,716.0,656305.3999999994,8030,WL,B,7.0
5,16.772000074386597,learn,60000.0,Thu Feb 20 2025 13:31:47 GMT-0600 (Central Standard Time),657399.2999999998,A,pip,I,p,373,1,1093.9000000003725,656305.3999999994,8030,WL,B,7.0
5,17.127000093460083,learn,60000.0,Thu Feb 20 2025 13:31:47 GMT-0600 (Central Standard Time),657754.5,A,pipe,I,e,350,1,1449.1000000005588,656305.3999999994,8030,WL,B,7.0
5,17.444000005722046,learn,60000.0,Thu Feb 20 2025 13:31:47 GMT-0600 (Central Standard Time),658071.0999999996,A,pipeenter,I,enter,307,1,1765.7000000001863,656305.3999999994,8030,WL,B,7.0
5,17.943000078201294,learn,60000.0,Thu Feb 20 2025 13:31:47 GMT-0600 (Central Standard Time),658570.7999999998,A,c,I,c,494,1,499.29999999981374,658071.5,8030,WL,B,8.0
5,18.14300012588501,learn,60000.0,Thu Feb 20 2025 13:31:47 GMT-0600 (Central Standard Time),658770.7999999998,A,ca,I,a,187,1,699.2999999998137,658071.5,8030,WL,B,8.0
5,18.593000173568726,learn,60000.0,Thu Feb 20 2025 13:31:47 GMT-0600 (Central Standard Time),659220.7999999998,A,cab,I,b,435,1,1149.2999999998137,658071.5,8030,WL,B,8.0
5,19.06000018119812,learn,60000.0,Thu Feb 20 2025 13:31:47 GMT-0600 (Central Standard Time),659687.0999999996,A,cabi,I,i,449,1,1615.5999999996275,658071.5,8030,WL,B,8.0
5,19.443000078201294,learn,60000.0,Thu Feb 20 2025 13:31:47 GMT-0600 (Central Standard Time),660070.5,A,cabin,I,n,366,1,1999.0,658071.5,8030,WL,B,8.0
5,20.159000158309937,learn,60000.0,Thu Feb 20 2025 13:31:47 GMT-0600 (Central Standard Time),660786.8999999994,A,cabinenter,I,enter,711,1,2715.399999999441,658071.5,8030,WL,B,8.0
5,20.693000078201294,learn,60000.0,Thu Feb 20 2025 13:31:47 GMT-0600 (Central Standard Time),661320.0,A,l,I,l,515,1,532.8000000007451,660787.1999999993,8030,WL,B,9.0
5,20.87600016593933,learn,60000.0,Thu Feb 20 2025 13:31:47 GMT-0600 (Central Standard Time),661503.1999999993,A,la,I,a,173,1,716.0,660787.1999999993,8030,WL,B,9.0
5,21.259000062942505,learn,60000.0,Thu Feb 20 2025 13:31:47 GMT-0600 (Central Standard Time),661886.3999999994,A,lak,I,k,374,1,1099.2000000001863,660787.1999999993,8030,WL,B,9.0
5,21.592000007629395,learn,60000.0,Thu Feb 20 2025 13:31:47 GMT-0600 (Central Standard Time),662219.8999999994,A,lake,I,e,319,1,1432.7000000001863,660787.1999999993,8030,WL,B,9.0
5,21.992000102996826,learn,60000.0,Thu Feb 20 2025 13:31:47 GMT-0600 (Central Standard Time),662619.5,A,lakeenter,I,enter,386,1,1832.300000000745,660787.1999999993,8030,WL,B,9.0
5,22.426000118255615,learn,60000.0,Thu Feb 20 2025 13:31:47 GMT-0600 (Central Standard Time),663053.0,A,w,I,w,426,1,433.1000000005588,662619.8999999994,8030,WL,B,10.0
5,22.742000102996826,learn,60000.0,Thu Feb 20 2025 13:31:47 GMT-0600 (Central Standard Time),663369.3999999994,A,wi,I,i,296,1,749.5,662619.8999999994,8030,WL,B,10.0
5,23.225000143051147,learn,60000.0,Thu Feb 20 2025 13:31:47 GMT-0600 (Central Standard Time),663852.5999999996,A,wif,I,f,468,1,1232.7000000001863,662619.8999999994,8030,WL,B,10.0
5,23.60800004005432,learn,60000.0,Thu Feb 20 2025 13:31:47 GMT-0600 (Central Standard Time),664235.8999999994,A,wife,I,e,369,1,1616.0,662619.8999999994,8030,WL,B,10.0
5,24.54200005531311,learn,60000.0,Thu Feb 20 2025 13:31:47 GMT-0600 (Central Standard Time),665169.0999999996,A,wifeenter,I,enter,921,1,2549.2000000001863,662619.8999999994,8030,WL,B,10.0
5,24.991000175476074,learn,60000.0,Thu Feb 20 2025 13:31:47 GMT-0600 (Central Standard Time),665618.5999999996,A,s,I,s,444,1,449.09999999962747,665169.5,8030,WL,B,11.0
5,25.674000024795532,learn,60000.0,Thu Feb 20 2025 13:31:47 GMT-0600 (Central Standard Time),666302.0,A,sa,I,a,675,1,1132.5,665169.5,8030,WL,B,11.0
5,26.54100012779236,learn,60000.0,Thu Feb 20 2025 13:31:47 GMT-0600 (Central Standard Time),667168.1999999993,A,sar,I,r,847,1,1998.699999999255,665169.5,8030,WL,B,11.0
5,27.091000080108643,learn,60000.0,Thu Feb 20 2025 13:31:47 GMT-0600 (Central Standard Time),667718.1999999993,A,sarenter,I,enter,533,1,2548.699999999255,665169.5,8030,WL,B,11.0
5,27.807000160217285,learn,60000.0,Thu Feb 20 2025 13:31:47 GMT-0600 (Central Standard Time),668434.7999999998,A,a,I,a,695,1,716.2999999998137,667718.5,8030,WL,B,12.0
5,28.09000015258789,learn,60000.0,Thu Feb 20 2025 13:31:47 GMT-0600 (Central Standard Time),668717.6999999993,A,ar,I,r,266,1,999.1999999992549,667718.5,8030,WL,B,12.0
5,29.307000160217285,learn,60000.0,Thu Feb 20 2025 13:31:47 GMT-0600 (Central Standard Time),669934.0,A,arm,I,m,1200,1,2215.5,667718.5,8030,WL,B,12.0
5,29.77300000190735,learn,60000.0,Thu Feb 20 2025 13:31:47 GMT-0600 (Central Standard Time),670400.5,A,armenter,I,enter,455,1,2682.0,667718.5,8030,WL,B,12.0
5,30.407000064849854,learn,60000.0,Thu Feb 20 2025 13:31:47 GMT-0600 (Central Standard Time),671034.2999999998,A,s,I,s,629,1,633.4000000003725,670400.8999999994,8030,WL,B,13.0
5,30.77300000190735,learn,60000.0,Thu Feb 20 2025 13:31:47 GMT-0600 (Central Standard Time),671400.1999999993,A,sk,I,k,347,1,999.2999999998137,670400.8999999994,8030,WL,B,13.0
5,31.00600004196167,learn,60000.0,Thu Feb 20 2025 13:31:47 GMT-0600 (Central Standard Time),671633.5999999996,A,ski,I,i,213,1,1232.7000000001863,670400.8999999994,8030,WL,B,13.0
5,31.389000177383423,learn,60000.0,Thu Feb 20 2025 13:31:47 GMT-0600 (Central Standard Time),672016.6999999993,A,skin,I,n,364,1,1615.7999999998137,670400.8999999994,8030,WL,B,13.0
5,32.08900022506714,learn,60000.0,Thu Feb 20 2025 13:31:47 GMT-0600 (Central Standard Time),672716.5999999996,A,skinenter,I,enter,685,1,2315.7000000001863,670400.8999999994,8030,WL,B,13.0
5,36.87100005149841,learn,60000.0,Thu Feb 20 2025 13:31:47 GMT-0600 (Central Standard Time),677498.5,A,f,I,f,4761,1,4781.600000000559,672716.8999999994,8030,WL,B,14.0
5,37.23700022697449,learn,60000.0,Thu Feb 20 2025 13:31:47 GMT-0600 (Central Standard Time),677864.7999999998,A,fi,I,i,355,1,5147.9000000003725,672716.8999999994,8030,WL,B,14.0
5,37.604000091552734,learn,60000.0,Thu Feb 20 2025 13:31:47 GMT-0600 (Central Standard Time),678231.6999999993,A,fir,I,r,349,1,5514.799999999814,672716.8999999994,8030,WL,B,14.0
5,37.854000091552734,learn,60000.0,Thu Feb 20 2025 13:31:47 GMT-0600 (Central Standard Time),678481.2999999998,A,fire,I,e,238,1,5764.4000000003725,672716.8999999994,8030,WL,B,14.0
5,38.22000002861023,learn,60000.0,Thu Feb 20 2025 13:31:47 GMT-0600 (Central Standard Time),678847.7999999998,A,fireenter,I,enter,356,1,6130.9000000003725,672716.8999999994,8030,WL,B,14.0
5,46.8510000705719,learn,60000.0,Thu Feb 20 2025 13:31:47 GMT-0600 (Central Standard Time),687478.3999999994,A,enter,I,enter,8621,1,8630.200000000186,678848.1999999993,8030,WL,B,15.0
6,2.1670000553131104,distr,57832.99994468689,Thu Feb 20 2025 13:31:47 GMT-0600 (Central Standard Time),755890.5,B,b,I,b,2154,1,2166.100000000559,753724.3999999994,8030,WL,B,1.0
6,2.6010000705718994,distr,57398.9999294281,Thu Feb 20 2025 13:31:47 GMT-0600 (Central Standard Time),756325.0,B,ba,I,a,419,1,2600.600000000559,753724.3999999994,8030,WL,B,1.0
6,2.9000000953674316,distr,57099.99990463257,Thu Feb 20 2025 13:31:47 GMT-0600 (Central Standard Time),756623.6999999993,B,bab,I,b,288,1,2899.2999999998137,753724.3999999994,8030,WL,B,1.0
6,3.2660000324249268,distr,56733.99996757507,Thu Feb 20 2025 13:31:47 GMT-0600 (Central Standard Time),756990.1999999993,B,baby,I,y,358,1,3265.7999999998137,753724.3999999994,8030,WL,B,1.0
6,3.866000175476074,distr,56133.999824523926,Thu Feb 20 2025 13:31:47 GMT-0600 (Central Standard Time),757590.0,B,babyenter,I,enter,583,1,3865.600000000559,753724.3999999994,8030,WL,B,1.0
6,4.366000175476074,distr,55633.999824523926,Thu Feb 20 2025 13:31:47 GMT-0600 (Central Standard Time),758090.0,B,l,I,l,480,1,499.70000000018626,757590.2999999998,8030,WL,B,2.0
6,4.666000127792358,distr,55333.99987220764,Thu Feb 20 2025 13:31:47 GMT-0600 (Central Standard Time),758389.6999999993,B,li,I,i,283,1,799.3999999994412,757590.2999999998,8030,WL,B,2.0
6,5.232000112533569,distr,54767.99988746643,Thu Feb 20 2025 13:31:47 GMT-0600 (Central Standard Time),758956.2999999998,B,lip,I,p,560,1,1366.0,757590.2999999998,8030,WL,B,2.0
6,5.950000047683716,distr,54049.999952316284,Thu Feb 20 2025 13:31:47 GMT-0600 (Central Standard Time),759673.7999999998,B,lipenter,I,enter,697,1,2083.5,757590.2999999998,8030,WL,B,2.0
6,6.881999969482422,distr,53118.00003051758,Thu Feb 20 2025 13:31:47 GMT-0600 (Central Standard Time),760605.5999999996,B,o,I,o,923,1,931.5,759674.0999999996,8030,WL,B,3.0
6,8.46500015258789,distr,51534.99984741211,Thu Feb 20 2025 13:31:47 GMT-0600 (Central Standard Time),762188.3999999994,B,oc,I,c,1568,1,2514.2999999998137,759674.0999999996,8030,WL,B,3.0
6,8.781000137329102,distr,51218.9998626709,Thu Feb 20 2025 13:31:47 GMT-0600 (Central Standard Time),762505.0999999996,B,oca,I,a,305,1,2831.0,759674.0999999996,8030,WL,B,3.0
6,9.04800009727478,distr,50951.99990272522,Thu Feb 20 2025 13:31:47 GMT-0600 (Central Standard Time),762771.8999999994,B,ocas,I,s,252,1,3097.7999999998137,759674.0999999996,8030,WL,B,3.0
6,9.264000177383423,distr,50735.99982261658,Thu Feb 20 2025 13:31:47 GMT-0600 (Central Standard Time),762988.1999999993,B,ocasi,I,i,210,1,3314.0999999996275,759674.0999999996,8030,WL,B,3.0
6,9.498000144958496,distr,50501.999855041504,Thu Feb 20 2025 13:31:47 GMT-0600 (Central Standard Time),763221.3999999994,B,ocasio,I,o,217,1,3547.2999999998137,759674.0999999996,8030,WL,B,3.0
6,10.114000082015991,distr,49885.99991798401,Thu Feb 20 2025 13:31:47 GMT-0600 (Central Standard Time),763838.0,B,ocasion,I,n,600,1,4163.9000000003725,759674.0999999996,8030,WL,B,3.0
6,10.46399998664856,distr,49536.00001335144,Thu Feb 20 2025 13:31:47 GMT-0600 (Central Standard Time),764187.7999999998,B,ocasionenter,I,enter,343,1,4513.700000000186,759674.0999999996,8030,WL,B,3.0
6,13.062999963760376,distr,46937.000036239624,Thu Feb 20 2025 13:31:47 GMT-0600 (Central Standard Time),766787.0999999996,B,s,I,s,2586,1,2599.0,764188.0999999996,8030,WL,B,4.0
6,13.330000162124634,distr,46669.999837875366,Thu Feb 20 2025 13:31:47 GMT-0600 (Central Standard Time),767053.6999999993,B,st,I,t,258,1,2865.5999999996275,764188.0999999996,8030,WL,B,4.0
6,13.562999963760376,distr,46437.000036239624,Thu Feb 20 2025 13:31:47 GMT-0600 (Central Standard Time),767286.8999999994,B,ste,I,e,224,1,3098.7999999998137,764188.0999999996,8030,WL,B,4.0
6,13.746000051498413,distr,46253.99994850159,Thu Feb 20 2025 13:31:47 GMT-0600 (Central Standard Time),767470.2999999998,B,stea,I,a,166,1,3282.2000000001863,764188.0999999996,8030,WL,B,4.0
6,14.663000106811523,distr,45336.99989318848,Thu Feb 20 2025 13:31:47 GMT-0600 (Central Standard Time),768386.5,B,steam,I,m,911,1,4198.4000000003725,764188.0999999996,8030,WL,B,4.0
6,15.146000146865845,distr,44853.999853134155,Thu Feb 20 2025 13:31:47 GMT-0600 (Central Standard Time),768869.6999999993,B,steamenter,I,enter,467,1,4681.5999999996275,764188.0999999996,8030,WL,B,4.0
6,29.60800004005432,distr,30391.99995994568,Thu Feb 20 2025 13:31:47 GMT-0600 (Central Standard Time),783332.0999999996,B,enter,I,enter,14456,1,14462.099999999627,768870.0,8030,WL,B,5.0
6,30.124000072479248,distr,29875.999927520752,Thu Feb 20 2025 13:31:47 GMT-0600 (Central Standard Time),783848.5,B,enter,I,enter,505,1,516.1000000005588,783332.3999999994,8030,WL,B,6.0
6,30.557000160217285,distr,29442.999839782715,Thu Feb 20 2025 13:31:47 GMT-0600 (Central Standard Time),784281.5,B,enter,I,enter,421,1,432.6000000005588,783848.8999999994,8030,WL,B,7.0
6,31.10700011253357,distr,28892.99988746643,Thu Feb 20 2025 13:31:47 GMT-0600 (Central Standard Time),784831.2999999998,B,enter,I,enter,539,1,549.4000000003725,784281.8999999994,8030,WL,B,8.0
6,31.375,distr,28625.0,Thu Feb 20 2025 13:31:47 GMT-0600 (Central Standard Time),785099.2999999998,B,enter,I,enter,246,1,267.70000000018626,784831.5999999996,8030,WL,B,9.0
6,31.574000120162964,distr,28425.999879837036,Thu Feb 20 2025 13:31:47 GMT-0600 (Central Standard Time),785297.8999999994,B,enter,I,enter,186,1,198.20000000018626,785099.6999999993,8030,WL,B,10.0
6,31.85700011253357,distr,28142.99988746643,Thu Feb 20 2025 13:31:47 GMT-0600 (Central Standard Time),785581.1999999993,B,enter,I,enter,276,1,282.8999999994412,785298.2999999998,8030,WL,B,11.0
6,32.27300000190735,distr,27726.99999809265,Thu Feb 20 2025 13:31:47 GMT-0600 (Central Standard Time),785997.5999999996,B,enter,I,enter,408,1,416.0,785581.5999999996,8030,WL,B,12.0
6,33.00600004196167,distr,26993.99995803833,Thu Feb 20 2025 13:31:47 GMT-0600 (Central Standard Time),786730.7999999998,B,enter,I,enter,713,1,732.7999999998137,785998.0,8030,WL,B,13.0
6,33.44000005722046,distr,26559.99994277954,Thu Feb 20 2025 13:31:47 GMT-0600 (Central Standard Time),787164.1999999993,B,enter,I,enter,419,1,433.09999999962747,786731.0999999996,8030,WL,B,14.0
6,33.85600018501282,distr,26143.999814987183,Thu Feb 20 2025 13:31:47 GMT-0600 (Central Standard Time),787580.5999999996,B,enter,I,enter,401,1,416.20000000018626,787164.3999999994,8030,WL,B,15.0
7,5.014999866485596,immed,54985.000133514404,Thu Feb 20 2025 13:31:47 GMT-0600 (Central Standard Time),804658.6999999993,A,s,I,s,4995,1,5014.899999999441,799643.7999999998,8030,WL,B,1.0
7,5.248999834060669,immed,54751.00016593933,Thu Feb 20 2025 13:31:47 GMT-0600 (Central Standard Time),804892.0,A,st,I,t,218,1,5248.200000000186,799643.7999999998,8030,WL,B,1.0
7,5.48199987411499,immed,54518.00012588501,Thu Feb 20 2025 13:31:47 GMT-0600 (Central Standard Time),805125.0999999996,A,str,I,r,217,1,5481.299999999814,799643.7999999998,8030,WL,B,1.0
7,5.81499981880188,immed,54185.00018119812,Thu Feb 20 2025 13:31:47 GMT-0600 (Central Standard Time),805458.3999999994,A,stre,I,e,312,1,5814.5999999996275,799643.7999999998,8030,WL,B,1.0
7,6.014999866485596,immed,53985.000133514404,Thu Feb 20 2025 13:31:47 GMT-0600 (Central Standard Time),805658.2999999998,A,stree,I,e,179,1,6014.5,799643.7999999998,8030,WL,B,1.0
7,6.247999906539917,immed,53752.00009346008,Thu Feb 20 2025 13:31:47 GMT-0600 (Central Standard Time),805891.7999999998,A,street,I,t,219,1,6248.0,799643.7999999998,8030,WL,B,1.0
7,6.863999843597412,immed,53136.00015640259,Thu Feb 20 2025 13:31:47 GMT-0600 (Central Standard Time),806507.8999999994,A,streetenter,I,enter,610,1,6864.0999999996275,799643.7999999998,8030,WL,B,1.0
7,7.813999891281128,immed,52186.00010871887,Thu Feb 20 2025 13:31:47 GMT-0600 (Central Standard Time),807457.7999999998,A,g,I,g,930,1,949.7000000001863,806508.0999999996,8030,WL,B,2.0
7,8.047999858856201,immed,51952.0001411438,Thu Feb 20 2025 13:31:47 GMT-0600 (Central Standard Time),807690.8999999994,A,gr,I,r,228,1,1182.7999999998137,806508.0999999996,8030,WL,B,2.0
7,8.563999891281128,immed,51436.00010871887,Thu Feb 20 2025 13:31:47 GMT-0600 (Central Standard Time),808207.5,A,gra,I,a,499,1,1699.4000000003725,806508.0999999996,8030,WL,B,2.0
7,9.030999898910522,immed,50969.00010108948,Thu Feb 20 2025 13:31:47 GMT-0600 (Central Standard Time),808674.1999999993,A,gras,I,s,454,1,2166.0999999996275,806508.0999999996,8030,WL,B,2.0
7,9.21399998664856,immed,50786.00001335144,Thu Feb 20 2025 13:31:47 GMT-0600 (Central Standard Time),808857.2999999998,A,grass,I,s,171,1,2349.2000000001863,806508.0999999996,8030,WL,B,2.0
7,9.52999997138977,immed,50470.00002861023,Thu Feb 20 2025 13:31:47 GMT-0600 (Central Standard Time),809173.6999999993,A,grassenter,I,enter,308,1,2665.5999999996275,806508.0999999996,8030,WL,B,2.0
7,12.44599986076355,immed,47554.00013923645,Thu Feb 20 2025 13:31:47 GMT-0600 (Central Standard Time),812089.7999999998,A,c,I,c,2896,1,2915.7000000001863,809174.0999999996,8030,WL,B,3.0
7,12.629999876022339,immed,47370.00012397766,Thu Feb 20 2025 13:31:47 GMT-0600 (Central Standard Time),812273.6999999993,A,ci,I,i,172,1,3099.5999999996275,809174.0999999996,8030,WL,B,3.0
7,12.94599986076355,immed,47054.00013923645,Thu Feb 20 2025 13:31:47 GMT-0600 (Central Standard Time),812589.5,A,cit,I,t,308,1,3415.4000000003725,809174.0999999996,8030,WL,B,3.0
7,13.212999820709229,immed,46787.00017929077,Thu Feb 20 2025 13:31:47 GMT-0600 (Central Standard Time),812856.0999999996,A,city,I,y,248,1,3682.0,809174.0999999996,8030,WL,B,3.0
7,14.228999853134155,immed,45771.000146865845,Thu Feb 20 2025 13:31:47 GMT-0600 (Central Standard Time),813872.5,A,cityenter,I,enter,998,1,4698.4000000003725,809174.0999999996,8030,WL,B,3.0
7,16.194999933242798,immed,43805.0000667572,Thu Feb 20 2025 13:31:47 GMT-0600 (Central Standard Time),815838.3999999994,A,d,I,d,1957,1,1965.7000000001863,813872.6999999993,8030,WL,B,4.0
7,16.527999877929688,immed,43472.00012207031,Thu Feb 20 2025 13:31:47 GMT-0600 (Central Standard Time),816171.5999999996,A,do,I,o,327,1,2298.9000000003725,813872.6999999993,8030,WL,B,4.0
7,16.711999893188477,immed,43288.00010681152,Thu Feb 20 2025 13:31:47 GMT-0600 (Central Standard Time),816354.7999999998,A,doo,I,o,179,1,2482.100000000559,813872.6999999993,8030,WL,B,4.0
7,16.994999885559082,immed,43005.00011444092,Thu Feb 20 2025 13:31:47 GMT-0600 (Central Standard Time),816638.3999999994,A,door,I,r,275,1,2765.7000000001863,813872.6999999993,8030,WL,B,4.0
7,17.34500002861023,immed,42654.99997138977,Thu Feb 20 2025 13:31:47 GMT-0600 (Central Standard Time),816988.1999999993,A,doorenter,I,enter,336,1,3115.5,813872.6999999993,8030,WL,B,4.0
7,17.76099991798401,immed,42239.00008201599,Thu Feb 20 2025 13:31:47 GMT-0600 (Central Standard Time),817404.6999999993,A,w,I,w,401,1,416.29999999981374,816988.3999999994,8030,WL,B,5.0
7,18.01099991798401,immed,41989.00008201599,Thu Feb 20 2025 13:31:47 GMT-0600 (Central Standard Time),817654.3999999994,A,wi,I,i,233,1,666.0,816988.3999999994,8030,WL,B,5.0
7,18.293999910354614,immed,41706.000089645386,Thu Feb 20 2025 13:31:47 GMT-0600 (Central Standard Time),817937.6999999993,A,win,I,n,271,1,949.2999999998137,816988.3999999994,8030,WL,B,5.0
7,18.5939998626709,immed,41406.0001373291,Thu Feb 20 2025 13:31:47 GMT-0600 (Central Standard Time),818237.5999999996,A,wind,I,d,292,1,1249.2000000001863,816988.3999999994,8030,WL,B,5.0
7,18.8439998626709,immed,41156.0001373291,Thu Feb 20 2025 13:31:47 GMT-0600 (Central Standard Time),818487.5,A,windo,I,o,232,1,1499.1000000005588,816988.3999999994,8030,WL,B,5.0
7,19.194000005722046,immed,40805.999994277954,Thu Feb 20 2025 13:31:47 GMT-0600 (Central Standard Time),818837.6999999993,A,window,I,w,342,1,1849.2999999998137,816988.3999999994,8030,WL,B,5.0
7,19.628000020980835,immed,40371.999979019165,Thu Feb 20 2025 13:31:47 GMT-0600 (Central Standard Time),819271.0,A,windowenter,I,enter,416,1,2282.600000000559,816988.3999999994,8030,WL,B,5.0
7,21.14299988746643,immed,38857.00011253357,Thu Feb 20 2025 13:31:47 GMT-0600 (Central Standard Time),820786.6999999993,A,f,I,f,1511,1,1515.3999999994412,819271.2999999998,8030,WL,B,6.0
7,21.40999984741211,immed,38590.00015258789,Thu Feb 20 2025 13:31:47 GMT-0600 (Central Standard Time),821053.3999999994,A,fi,I,i,251,1,1782.0999999996275,819271.2999999998,8030,WL,B,6.0
7,21.759999990463257,immed,38240.00000953674,Thu Feb 20 2025 13:31:47 GMT-0600 (Central Standard Time),821403.1999999993,A,fir,I,r,344,1,2131.899999999441,819271.2999999998,8030,WL,B,6.0
7,22.05999994277954,immed,37940.00005722046,Thu Feb 20 2025 13:31:47 GMT-0600 (Central Standard Time),821703.2999999998,A,fire,I,e,290,1,2432.0,819271.2999999998,8030,WL,B,6.0
7,22.432999849319458,immed,37567.00015068054,Thu Feb 20 2025 13:31:47 GMT-0600 (Central Standard Time),822076.5,A,fireenter,I,enter,368,1,2805.2000000001863,819271.2999999998,8030,WL,B,6.0
7,23.092999935150146,immed,36907.00006484985,Thu Feb 20 2025 13:31:47 GMT-0600 (Central Standard Time),822736.5999999996,A,p,I,p,641,1,659.5,822077.0999999996,8030,WL,B,7.0
7,23.442999839782715,immed,36557.000160217285,Thu Feb 20 2025 13:31:47 GMT-0600 (Central Standard Time),823086.1999999993,A,pu,I,u,341,1,1009.0999999996275,822077.0999999996,8030,WL,B,7.0
7,23.758999824523926,immed,36241.000175476074,Thu Feb 20 2025 13:31:47 GMT-0600 (Central Standard Time),823402.7999999998,A,pup,I,p,303,1,1325.7000000001863,822077.0999999996,8030,WL,B,7.0
7,24.05900001525879,immed,35940.99998474121,Thu Feb 20 2025 13:31:47 GMT-0600 (Central Standard Time),823702.5,A,pupi,I,i,282,1,1625.4000000003725,822077.0999999996,8030,WL,B,7.0
7,24.358999967575073,immed,35641.00003242493,Thu Feb 20 2025 13:31:47 GMT-0600 (Central Standard Time),824002.5,A,pupil,I,l,295,1,1925.4000000003725,822077.0999999996,8030,WL,B,7.0
7,24.774999856948853,immed,35225.00014305115,Thu Feb 20 2025 13:31:47 GMT-0600 (Central Standard Time),824418.6999999993,A,pupilenter,I,enter,412,1,2341.5999999996275,822077.0999999996,8030,WL,B,7.0
7,25.625,immed,34375.0,Thu Feb 20 2025 13:31:47 GMT-0600 (Central Standard Time),825268.6999999993,A,p,I,p,835,1,849.6999999992549,824419.0,8030,WL,B,8.0
7,25.858999967575073,immed,34141.00003242493,Thu Feb 20 2025 13:31:47 GMT-0600 (Central Standard Time),825502.1999999993,A,pi,I,i,217,1,1083.199999999255,824419.0,8030,WL,B,8.0
7,26.092000007629395,immed,33907.999992370605,Thu Feb 20 2025 13:31:47 GMT-0600 (Central Standard Time),825735.2999999998,A,pip,I,p,223,1,1316.2999999998137,824419.0,8030,WL,B,8.0
7,26.424999952316284,immed,33575.000047683716,Thu Feb 20 2025 13:31:47 GMT-0600 (Central Standard Time),826068.5,A,pipe,I,e,326,1,1649.5,824419.0,8030,WL,B,8.0
7,26.875,immed,33125.0,Thu Feb 20 2025 13:31:47 GMT-0600 (Central Standard Time),826518.3999999994,A,pipeenter,I,enter,441,1,2099.399999999441,824419.0,8030,WL,B,8.0
7,28.657999992370605,immed,31342.000007629395,Thu Feb 20 2025 13:31:47 GMT-0600 (Central Standard Time),828301.5,A,f,I,f,1775,1,1782.7000000001863,826518.7999999998,8030,WL,B,9.0
7,29.04099988937378,immed,30959.00011062622,Thu Feb 20 2025 13:31:47 GMT-0600 (Central Standard Time),828684.3999999994,A,fi,I,i,367,1,2165.5999999996275,826518.7999999998,8030,WL,B,9.0
7,29.424000024795532,immed,30575.999975204468,Thu Feb 20 2025 13:31:47 GMT-0600 (Central Standard Time),829067.5,A,fir,I,r,377,1,2548.7000000001863,826518.7999999998,8030,WL,B,9.0
7,29.674000024795532,immed,30325.999975204468,Thu Feb 20 2025 13:31:47 GMT-0600 (Central Standard Time),829317.5999999996,A,fire,I,e,234,1,2798.7999999998137,826518.7999999998,8030,WL,B,9.0
7,30.54099988937378,immed,29459.00011062622,Thu Feb 20 2025 13:31:47 GMT-0600 (Central Standard Time),830184.0,A,fireenter,I,enter,856,1,3665.2000000001863,826518.7999999998,8030,WL,B,9.0
7,31.87399983406067,immed,28126.00016593933,Thu Feb 20 2025 13:31:47 GMT-0600 (Central Standard Time),831516.8999999994,A,a,I,a,1318,1,1332.7000000001863,830184.1999999993,8030,WL,B,10.0
7,32.12299990653992,immed,27877.000093460083,Thu Feb 20 2025 13:31:47 GMT-0600 (Central Standard Time),831766.6999999993,A,ar,I,r,232,1,1582.5,830184.1999999993,8030,WL,B,10.0
7,32.656999826431274,immed,27343.000173568726,Thu Feb 20 2025 13:31:47 GMT-0600 (Central Standard Time),832300.0,A,arn,I,n,527,1,2115.800000000745,830184.1999999993,8030,WL,B,10.0
7,33.65599989891052,immed,26344.000101089478,Thu Feb 20 2025 13:31:47 GMT-0600 (Central Standard Time),833299.5999999996,A,ar,I,backspace,986,1,3115.4000000003725,830184.1999999993,8030,WL,B,10.0
7,34.08899998664856,immed,25911.00001335144,Thu Feb 20 2025 13:31:47 GMT-0600 (Central Standard Time),833732.7999999998,A,arm,I,m,426,1,3548.600000000559,830184.1999999993,8030,WL,B,10.0
7,34.47199988365173,immed,25528.000116348267,Thu Feb 20 2025 13:31:47 GMT-0600 (Central Standard Time),834115.8999999994,A,armenter,I,enter,377,1,3931.7000000001863,830184.1999999993,8030,WL,B,10.0
7,35.105000019073486,immed,24894.999980926514,Thu Feb 20 2025 13:31:47 GMT-0600 (Central Standard Time),834749.1999999993,A,s,I,s,626,1,633.0,834116.1999999993,8030,WL,B,11.0
7,35.63800001144409,immed,24361.99998855591,Thu Feb 20 2025 13:31:47 GMT-0600 (Central Standard Time),835282.3999999994,A,sk,I,k,512,1,1166.2000000001863,834116.1999999993,8030,WL,B,11.0
7,35.83899998664856,immed,24161.00001335144,Thu Feb 20 2025 13:31:47 GMT-0600 (Central Standard Time),835482.5,A,ski,I,i,187,1,1366.300000000745,834116.1999999993,8030,WL,B,11.0
7,36.15499997138977,immed,23845.00002861023,Thu Feb 20 2025 13:31:47 GMT-0600 (Central Standard Time),835798.8999999994,A,skin,I,n,307,1,1682.7000000001863,834116.1999999993,8030,WL,B,11.0
7,36.855000019073486,immed,23144.999980926514,Thu Feb 20 2025 13:31:47 GMT-0600 (Central Standard Time),836498.5999999996,A,skinenter,I,enter,680,1,2382.4000000003725,834116.1999999993,8030,WL,B,11.0
7,41.65299987792969,immed,18347.000122070312,Thu Feb 20 2025 13:31:47 GMT-0600 (Central Standard Time),841297.1999999993,A,c,I,c,4787,1,4798.299999999814,836498.8999999994,8030,WL,B,12.0
7,41.937000036239624,immed,18062.999963760376,Thu Feb 20 2025 13:31:47 GMT-0600 (Central Standard Time),841580.5999999996,A,ca,I,a,268,1,5081.700000000186,836498.8999999994,8030,WL,B,12.0
7,42.23699998855591,immed,17763.00001144409,Thu Feb 20 2025 13:31:47 GMT-0600 (Central Standard Time),841880.5,A,cab,I,b,281,1,5381.600000000559,836498.8999999994,8030,WL,B,12.0
7,42.55299997329712,immed,17447.00002670288,Thu Feb 20 2025 13:31:47 GMT-0600 (Central Standard Time),842196.7999999998,A,cabi,I,i,309,1,5697.9000000003725,836498.8999999994,8030,WL,B,12.0
7,42.90299987792969,immed,17097.000122070312,Thu Feb 20 2025 13:31:47 GMT-0600 (Central Standard Time),842546.6999999993,A,cabin,I,n,345,1,6047.799999999814,836498.8999999994,8030,WL,B,12.0
7,43.418999910354614,immed,16581.000089645386,Thu Feb 20 2025 13:31:47 GMT-0600 (Central Standard Time),843063.2999999998,A,cabinenter,I,enter,507,1,6564.4000000003725,836498.8999999994,8030,WL,B,12.0
7,60.013999938964844,immed,-13.99993896484375,Thu Feb 20 2025 13:31:47 GMT-0600 (Central Standard Time),859658.1999999993,A,None,I,None,16590,1,16594.5,843063.6999999993,8030,WL,B,13.0
