acc_sum,block,block_c,block_cond,con_img,correct,correct_response,datetime,endtime,face,jitter,line,project,response,response_time,row_sel,session_number,start_end,starttime,subject_id,task,task_vers,trial
1,prac,1,A,haborder.png,1,z,Fri Jan 31 2025 10:22:59 GMT-0600 (Central Standard Time),56361.19999999553,CFD-WM-036-018-A.jpg,1900,solid,I,z,913,8,2,3599.0,52762.19999999553,8003,ATS,C,1
2,prac,1,A,haborder.png,1,m,Fri Jan 31 2025 10:22:59 GMT-0600 (Central Standard Time),59226.89999999851,CFD-WM-028-005-HC.jpg,1400,solid,I,m,660,7,2,6464.70000000298,52762.19999999553,8003,ATS,C,2
3,prac,1,A,haborder.png,1,m,Fri Jan 31 2025 10:22:59 GMT-0600 (Central Standard Time),62692.29999999702,CFD-BF-019-004-HC.jpg,2000,solid,I,m,668,5,2,9930.10000000149,52762.19999999553,8003,ATS,C,3
4,prac,1,A,haborder.png,1,m,Fri Jan 31 2025 10:22:59 GMT-0600 (Central Standard Time),65541.39999999851,CFD-BM-022-004-HC.jpg,1500,solid,I,m,558,3,2,12779.20000000298,52762.19999999553,8003,ATS,C,4
5,prac,1,A,haborder.png,1,z,Fri Jan 31 2025 10:22:59 GMT-0600 (Central Standard Time),67874.19999999553,CFD-BF-031-020-A.jpg,1000,solid,I,z,537,4,2,15112.0,52762.19999999553,8003,ATS,C,5
6,prac,1,A,haborder.png,1,m,Fri Jan 31 2025 10:22:59 GMT-0600 (Central Standard Time),71039.79999999702,CFD-BM-034-035-HC.jpg,1700,solid,I,m,681,1,2,18277.60000000149,52762.19999999553,8003,ATS,C,6
7,prac,1,A,haborder.png,1,z,Fri Jan 31 2025 10:22:59 GMT-0600 (Central Standard Time),74105.29999999702,CFD-BM-043-014-A.jpg,1600,solid,I,z,670,2,2,21343.10000000149,52762.19999999553,8003,ATS,C,7
8,prac,1,A,haborder.png,1,z,Fri Jan 31 2025 10:22:59 GMT-0600 (Central Standard Time),77004.5,CFD-BF-002-018-A.jpg,1200,solid,I,z,901,6,2,24242.30000000447,52762.19999999553,8003,ATS,C,8
9,prac,1,A,haborder.png,1,z,Fri Jan 31 2025 10:22:59 GMT-0600 (Central Standard Time),79437.19999999553,CFD-WF-023-013-A.jpg,1000,solid,I,z,642,12,2,26675.0,52762.19999999553,8003,ATS,C,9
10,prac,1,A,haborder.png,1,m,Fri Jan 31 2025 10:22:59 GMT-0600 (Central Standard Time),82402.79999999702,CFD-WF-013-009-HC.jpg,1500,solid,I,m,670,11,2,29640.60000000149,52762.19999999553,8003,ATS,C,10
11,prac,1,A,haborder.png,1,z,Fri Jan 31 2025 10:22:59 GMT-0600 (Central Standard Time),85368.69999999553,CFD-WF-037-016-A.jpg,1600,solid,I,z,580,10,2,32606.5,52762.19999999553,8003,ATS,C,11
12,prac,1,A,haborder.png,1,m,Fri Jan 31 2025 10:22:59 GMT-0600 (Central Standard Time),88584.29999999702,CFD-WM-035-036-HC.jpg,1700,solid,I,m,730,9,2,35822.10000000149,52762.19999999553,8003,ATS,C,12
1,prac,1,B,mfborder.png,1,z,Fri Jan 31 2025 10:22:59 GMT-0600 (Central Standard Time),109261.29999999702,CFD-WF-013-009-HC.jpg,1000,12,I,z,793,dash,2,2582.60000000149,106678.69999999553,8003,ATS,C,1
2,prac,1,B,mfborder.png,1,m,Fri Jan 31 2025 10:22:59 GMT-0600 (Central Standard Time),112293.60000000149,CFD-BM-022-004-HC.jpg,1700,1,I,m,542,dash,2,5614.9000000059605,106678.69999999553,8003,ATS,C,2
3,prac,1,B,mfborder.png,1,m,Fri Jan 31 2025 10:22:59 GMT-0600 (Central Standard Time),115709.29999999702,CFD-BM-021-026-A.jpg,1600,2,I,m,1017,dash,2,9030.60000000149,106678.69999999553,8003,ATS,C,3
3,prac,1,B,mfborder.png,0,z,Fri Jan 31 2025 10:22:59 GMT-0600 (Central Standard Time),119091.39999999851,CFD-WF-037-016-A.jpg,1500,11,I,m,1086,dash,2,12412.70000000298,106678.69999999553,8003,ATS,C,4
4,prac,1,B,mfborder.png,1,z,Fri Jan 31 2025 10:22:59 GMT-0600 (Central Standard Time),122240.39999999851,CFD-BF-031-020-A.jpg,1000,4,I,z,1348,dash,2,15561.70000000298,106678.69999999553,8003,ATS,C,5
5,prac,1,B,mfborder.png,1,z,Fri Jan 31 2025 10:22:59 GMT-0600 (Central Standard Time),125689.29999999702,CFD-WF-001-010-HC.jpg,1900,8,I,z,763,dash,2,19010.60000000149,106678.69999999553,8003,ATS,C,6
6,prac,1,B,mfborder.png,1,m,Fri Jan 31 2025 10:22:59 GMT-0600 (Central Standard Time),129138.39999999851,CFD-WM-035-036-HC.jpg,1600,10,I,m,1060,dash,2,22459.70000000298,106678.69999999553,8003,ATS,C,7
7,prac,1,B,mfborder.png,1,m,Fri Jan 31 2025 10:22:59 GMT-0600 (Central Standard Time),131954.29999999702,CFD-WM-034-040-A.jpg,1200,6,I,m,829,dash,2,25275.60000000149,106678.69999999553,8003,ATS,C,8
8,prac,1,B,mfborder.png,1,z,Fri Jan 31 2025 10:22:59 GMT-0600 (Central Standard Time),134869.79999999702,CFD-BF-042-031-HC.jpg,1500,3,I,z,617,dash,2,28191.10000000149,106678.69999999553,8003,ATS,C,9
9,prac,1,B,mfborder.png,1,z,Fri Jan 31 2025 10:22:59 GMT-0600 (Central Standard Time),137702.19999999553,CFD-BF-019-004-HC.jpg,1400,7,I,z,641,dash,2,31023.5,106678.69999999553,8003,ATS,C,10
10,prac,1,B,mfborder.png,1,m,Fri Jan 31 2025 10:22:59 GMT-0600 (Central Standard Time),141034.3999999985,CFD-WM-036-018-A.jpg,1700,9,I,m,845,dash,2,34355.70000000298,106678.69999999553,8003,ATS,C,11
11,prac,1,B,mfborder.png,1,m,Fri Jan 31 2025 10:22:59 GMT-0600 (Central Standard Time),144500.1000000015,CFD-BM-043-014-A.jpg,2000,5,I,m,669,dash,2,37821.40000000596,106678.69999999553,8003,ATS,C,12
1,test,1,A,haborder.png,1,z,Fri Jan 31 2025 10:22:59 GMT-0600 (Central Standard Time),164910.1000000015,CFD-BF-031-020-A.jpg,1000,solid,I,z,1118,4,2,2149.10000000149,162761.0,8003,ATS,C,1
2,test,1,A,haborder.png,1,m,Fri Jan 31 2025 10:22:59 GMT-0600 (Central Standard Time),167293.1000000015,CFD-WM-035-036-HC.jpg,1700,solid,I,m,660,9,2,4532.10000000149,162761.0,8003,ATS,C,2
3,test,1,A,haborder.png,1,m,Fri Jan 31 2025 10:22:59 GMT-0600 (Central Standard Time),169359.0,CFD-BM-022-004-HC.jpg,1500,solid,I,m,542,3,2,6598.0,162761.0,8003,ATS,C,3
4,test,1,A,haborder.png,1,m,Fri Jan 31 2025 10:22:59 GMT-0600 (Central Standard Time),171474.79999999702,CFD-WF-013-009-HC.jpg,1500,solid,I,m,588,11,2,8713.79999999702,162761.0,8003,ATS,C,4
5,test,1,A,haborder.png,1,m,Fri Jan 31 2025 10:22:59 GMT-0600 (Central Standard Time),173457.5,CFD-WM-028-005-HC.jpg,1400,solid,I,m,556,7,2,10696.5,162761.0,8003,ATS,C,5
6,test,1,A,haborder.png,1,m,Fri Jan 31 2025 10:22:59 GMT-0600 (Central Standard Time),175418.79999999702,CFD-WM-028-005-HC.jpg,1400,solid,I,m,543,7,2,12657.79999999702,162761.0,8003,ATS,C,6
7,test,1,A,haborder.png,1,z,Fri Jan 31 2025 10:22:59 GMT-0600 (Central Standard Time),176973.5,CFD-WF-023-013-A.jpg,1000,solid,I,z,519,12,2,14212.5,162761.0,8003,ATS,C,7
8,test,1,A,haborder.png,1,m,Fri Jan 31 2025 10:22:59 GMT-0600 (Central Standard Time),179589.29999999702,CFD-BF-019-004-HC.jpg,2000,solid,I,m,586,5,2,16828.29999999702,162761.0,8003,ATS,C,8
9,test,1,A,haborder.png,1,z,Fri Jan 31 2025 10:22:59 GMT-0600 (Central Standard Time),181838.29999999702,CFD-BM-043-014-A.jpg,1600,solid,I,z,626,2,2,19077.29999999702,162761.0,8003,ATS,C,9
10,test,1,A,haborder.png,1,m,Fri Jan 31 2025 10:22:59 GMT-0600 (Central Standard Time),184587.5,CFD-BF-019-004-HC.jpg,2000,solid,I,m,730,5,2,21826.5,162761.0,8003,ATS,C,10
11,test,1,A,haborder.png,1,m,Fri Jan 31 2025 10:22:59 GMT-0600 (Central Standard Time),186654.69999999553,CFD-BM-022-004-HC.jpg,1500,solid,I,m,535,3,2,23893.69999999553,162761.0,8003,ATS,C,11
12,test,1,A,haborder.png,1,m,Fri Jan 31 2025 10:22:59 GMT-0600 (Central Standard Time),188852.69999999553,CFD-WM-035-036-HC.jpg,1700,solid,I,m,478,9,2,26091.69999999553,162761.0,8003,ATS,C,12
13,test,1,A,haborder.png,1,z,Fri Jan 31 2025 10:22:59 GMT-0600 (Central Standard Time),191085.3999999985,CFD-BM-043-014-A.jpg,1600,solid,I,z,602,2,2,28324.39999999851,162761.0,8003,ATS,C,13
14,test,1,A,haborder.png,1,z,Fri Jan 31 2025 10:22:59 GMT-0600 (Central Standard Time),192851.5,CFD-BF-002-018-A.jpg,1200,solid,I,z,537,6,2,30090.5,162761.0,8003,ATS,C,14
15,test,1,A,haborder.png,1,z,Fri Jan 31 2025 10:22:59 GMT-0600 (Central Standard Time),195433.8999999985,CFD-WM-036-018-A.jpg,1900,solid,I,z,663,8,2,32672.89999999851,162761.0,8003,ATS,C,15
16,test,1,A,haborder.png,1,m,Fri Jan 31 2025 10:22:59 GMT-0600 (Central Standard Time),197666.8999999985,CFD-WF-013-009-HC.jpg,1500,solid,I,m,704,11,2,34905.89999999851,162761.0,8003,ATS,C,16
17,test,1,A,haborder.png,1,z,Fri Jan 31 2025 10:22:59 GMT-0600 (Central Standard Time),199582.79999999702,CFD-BF-031-020-A.jpg,1000,solid,I,z,777,4,2,36821.79999999702,162761.0,8003,ATS,C,17
18,test,1,A,haborder.png,1,z,Fri Jan 31 2025 10:22:59 GMT-0600 (Central Standard Time),202165.29999999702,CFD-WM-036-018-A.jpg,1900,solid,I,z,660,8,2,39404.29999999702,162761.0,8003,ATS,C,18
19,test,1,A,haborder.png,1,m,Fri Jan 31 2025 10:22:59 GMT-0600 (Central Standard Time),204564.5,CFD-BM-034-035-HC.jpg,1700,solid,I,m,678,1,2,41803.5,162761.0,8003,ATS,C,19
20,test,1,A,haborder.png,1,z,Fri Jan 31 2025 10:22:59 GMT-0600 (Central Standard Time),206214.0,CFD-WF-023-013-A.jpg,1000,solid,I,z,626,12,2,43453.0,162761.0,8003,ATS,C,20
21,test,1,A,haborder.png,1,z,Fri Jan 31 2025 10:22:59 GMT-0600 (Central Standard Time),208446.6000000015,CFD-WF-037-016-A.jpg,1600,solid,I,z,601,10,2,45685.60000000149,162761.0,8003,ATS,C,21
22,test,1,A,haborder.png,1,m,Fri Jan 31 2025 10:22:59 GMT-0600 (Central Standard Time),210845.8999999985,CFD-BM-034-035-HC.jpg,1700,solid,I,m,668,1,2,48084.89999999851,162761.0,8003,ATS,C,22
23,test,1,A,haborder.png,1,z,Fri Jan 31 2025 10:22:59 GMT-0600 (Central Standard Time),212728.6000000015,CFD-BF-002-018-A.jpg,1200,solid,I,z,649,6,2,49967.60000000149,162761.0,8003,ATS,C,23
24,test,1,A,haborder.png,1,z,Fri Jan 31 2025 10:22:59 GMT-0600 (Central Standard Time),214911.6000000015,CFD-WF-037-016-A.jpg,1600,solid,I,z,550,10,2,52150.60000000149,162761.0,8003,ATS,C,24
1,test,1,B,mfborder.png,1,z,Fri Jan 31 2025 10:22:59 GMT-0600 (Central Standard Time),230423.0,CFD-BF-031-020-A.jpg,1000,dash,I,z,1097,4,2,2132.60000000149,228290.3999999985,8003,ATS,C,1
2,test,1,B,mfborder.png,1,z,Fri Jan 31 2025 10:22:59 GMT-0600 (Central Standard Time),232955.6000000015,CFD-WF-001-010-HC.jpg,1900,dash,I,z,612,8,2,4665.20000000298,228290.3999999985,8003,ATS,C,2
3,test,1,B,mfborder.png,1,m,Fri Jan 31 2025 10:22:59 GMT-0600 (Central Standard Time),235355.0,CFD-WM-036-018-A.jpg,1700,dash,I,m,679,9,2,7064.60000000149,228290.3999999985,8003,ATS,C,3
4,test,1,B,mfborder.png,1,m,Fri Jan 31 2025 10:22:59 GMT-0600 (Central Standard Time),237704.1000000015,CFD-BM-021-026-A.jpg,1600,dash,I,m,724,2,2,9413.70000000298,228290.3999999985,8003,ATS,C,4
5,test,1,B,mfborder.png,1,m,Fri Jan 31 2025 10:22:59 GMT-0600 (Central Standard Time),239537.0,CFD-WM-034-040-A.jpg,1200,dash,I,m,606,6,2,11246.60000000149,228290.3999999985,8003,ATS,C,5
6,test,1,B,mfborder.png,1,z,Fri Jan 31 2025 10:22:59 GMT-0600 (Central Standard Time),241553.1000000015,CFD-BF-042-031-HC.jpg,1500,dash,I,z,490,3,2,13262.70000000298,228290.3999999985,8003,ATS,C,6
7,test,1,B,mfborder.png,1,m,Fri Jan 31 2025 10:22:59 GMT-0600 (Central Standard Time),243219.1000000015,CFD-WM-034-040-A.jpg,1200,dash,I,m,443,6,2,14928.70000000298,228290.3999999985,8003,ATS,C,7
8,test,1,B,mfborder.png,1,m,Fri Jan 31 2025 10:22:59 GMT-0600 (Central Standard Time),245881.29999999702,CFD-BM-043-014-A.jpg,2000,dash,I,m,644,5,2,17590.89999999851,228290.3999999985,8003,ATS,C,8
9,test,1,B,mfborder.png,1,m,Fri Jan 31 2025 10:22:59 GMT-0600 (Central Standard Time),248384.1000000015,CFD-BM-043-014-A.jpg,2000,dash,I,m,474,5,2,20093.70000000298,228290.3999999985,8003,ATS,C,9
10,test,1,B,mfborder.png,1,z,Fri Jan 31 2025 10:22:59 GMT-0600 (Central Standard Time),250566.8999999985,CFD-BF-019-004-HC.jpg,1400,dash,I,z,746,7,2,22276.5,228290.3999999985,8003,ATS,C,10
11,test,1,B,mfborder.png,1,z,Fri Jan 31 2025 10:22:59 GMT-0600 (Central Standard Time),253049.19999999553,CFD-WF-001-010-HC.jpg,1900,dash,I,z,556,8,2,24758.79999999702,228290.3999999985,8003,ATS,C,11
12,test,1,B,mfborder.png,1,z,Fri Jan 31 2025 10:22:59 GMT-0600 (Central Standard Time),254532.29999999702,CFD-BF-031-020-A.jpg,1000,dash,I,z,461,4,2,26241.89999999851,228290.3999999985,8003,ATS,C,12
12,test,1,B,mfborder.png,0,m,Fri Jan 31 2025 10:22:59 GMT-0600 (Central Standard Time),256614.8999999985,CFD-BM-021-026-A.jpg,1600,dash,I,z,458,2,2,28324.5,228290.3999999985,8003,ATS,C,13
13,test,1,B,mfborder.png,1,m,Fri Jan 31 2025 10:22:59 GMT-0600 (Central Standard Time),258764.0,CFD-BM-022-004-HC.jpg,1700,dash,I,m,428,1,2,30473.60000000149,228290.3999999985,8003,ATS,C,14
14,test,1,B,mfborder.png,1,z,Fri Jan 31 2025 10:22:59 GMT-0600 (Central Standard Time),260763.8999999985,CFD-BF-019-004-HC.jpg,1400,dash,I,z,571,7,2,32473.5,228290.3999999985,8003,ATS,C,15
15,test,1,B,mfborder.png,1,m,Fri Jan 31 2025 10:22:59 GMT-0600 (Central Standard Time),262896.5,CFD-WM-035-036-HC.jpg,1600,dash,I,m,507,10,2,34606.10000000149,228290.3999999985,8003,ATS,C,16
16,test,1,B,mfborder.png,1,m,Fri Jan 31 2025 10:22:59 GMT-0600 (Central Standard Time),265545.3999999985,CFD-WM-036-018-A.jpg,1700,dash,I,m,914,9,2,37255.0,228290.3999999985,8003,ATS,C,17
17,test,1,B,mfborder.png,1,m,Fri Jan 31 2025 10:22:59 GMT-0600 (Central Standard Time),267628.19999999553,CFD-WM-035-036-HC.jpg,1600,dash,I,m,453,10,2,39337.79999999702,228290.3999999985,8003,ATS,C,18
18,test,1,B,mfborder.png,1,z,Fri Jan 31 2025 10:22:59 GMT-0600 (Central Standard Time),269610.6000000015,CFD-WF-013-009-HC.jpg,1000,dash,I,z,963,12,2,41320.20000000298,228290.3999999985,8003,ATS,C,19
19,test,1,B,mfborder.png,1,z,Fri Jan 31 2025 10:22:59 GMT-0600 (Central Standard Time),271943.3999999985,CFD-WF-037-016-A.jpg,1500,dash,I,z,800,11,2,43653.0,228290.3999999985,8003,ATS,C,20
20,test,1,B,mfborder.png,1,z,Fri Jan 31 2025 10:22:59 GMT-0600 (Central Standard Time),274226.1000000015,CFD-BF-042-031-HC.jpg,1500,dash,I,z,755,3,2,45935.70000000298,228290.3999999985,8003,ATS,C,21
21,test,1,B,mfborder.png,1,z,Fri Jan 31 2025 10:22:59 GMT-0600 (Central Standard Time),275825.6000000015,CFD-WF-013-009-HC.jpg,1000,dash,I,z,565,12,2,47535.20000000298,228290.3999999985,8003,ATS,C,22
22,test,1,B,mfborder.png,1,m,Fri Jan 31 2025 10:22:59 GMT-0600 (Central Standard Time),277974.8999999985,CFD-BM-022-004-HC.jpg,1700,dash,I,m,422,1,2,49684.5,228290.3999999985,8003,ATS,C,23
23,test,1,B,mfborder.png,1,z,Fri Jan 31 2025 10:22:59 GMT-0600 (Central Standard Time),280074.1000000015,CFD-WF-037-016-A.jpg,1500,dash,I,z,572,11,2,51783.70000000298,228290.3999999985,8003,ATS,C,24
1,prac,1,C,mfborder.png,1,m,Fri Jan 31 2025 10:22:59 GMT-0600 (Central Standard Time),321161.6000000015,CFD-BM-034-035-HC.jpg,2000,solid,I,m,1087,11,2,3881.9000000059605,317279.69999999553,8003,ATS,C,1
2,prac,1,C,haborder.png,1,m,Fri Jan 31 2025 10:22:59 GMT-0600 (Central Standard Time),324343.799999997,CFD-WM-028-005-HC.jpg,1400,solid,I,m,981,11,2,7064.10000000149,317279.69999999553,8003,ATS,C,2
3,prac,1,C,mfborder.png,1,z,Fri Jan 31 2025 10:22:59 GMT-0600 (Central Standard Time),327526.19999999553,CFD-WF-013-009-HC.jpg,1600,dash,I,z,783,11,2,10246.5,317279.69999999553,8003,ATS,C,3
4,prac,1,C,haborder.png,1,z,Fri Jan 31 2025 10:22:59 GMT-0600 (Central Standard Time),331274.8999999985,CFD-BF-031-020-A.jpg,1900,dash,I,z,1061,11,2,13995.20000000298,317279.69999999553,8003,ATS,C,4
5,prac,1,C,mfborder.png,1,m,Fri Jan 31 2025 10:22:59 GMT-0600 (Central Standard Time),335007.1000000015,CFD-WM-036-018-A.jpg,1700,solid,I,m,1240,11,2,17727.40000000596,317279.69999999553,8003,ATS,C,5
6,prac,1,C,haborder.png,1,z,Fri Jan 31 2025 10:22:59 GMT-0600 (Central Standard Time),338556.1000000015,CFD-WF-037-016-A.jpg,1600,dash,I,z,1160,11,2,21276.40000000596,317279.69999999553,8003,ATS,C,6
7,prac,1,C,haborder.png,1,z,Fri Jan 31 2025 10:22:59 GMT-0600 (Central Standard Time),341921.5,CFD-BF-002-018-A.jpg,1700,solid,I,z,878,11,2,24641.80000000447,317279.69999999553,8003,ATS,C,7
8,prac,1,C,haborder.png,1,m,Fri Jan 31 2025 10:22:59 GMT-0600 (Central Standard Time),345254.0,CFD-BM-022-004-HC.jpg,1500,solid,I,m,1041,11,2,27974.30000000447,317279.69999999553,8003,ATS,C,8
9,prac,1,C,mfborder.png,1,z,Fri Jan 31 2025 10:22:59 GMT-0600 (Central Standard Time),348303.0,CFD-WF-023-013-A.jpg,1500,solid,I,z,749,11,2,31023.30000000447,317279.69999999553,8003,ATS,C,9
10,prac,1,C,haborder.png,1,m,Fri Jan 31 2025 10:22:59 GMT-0600 (Central Standard Time),351085.299999997,CFD-WM-028-005-HC.jpg,1000,dash,I,m,984,11,2,33805.60000000149,317279.69999999553,8003,ATS,C,10
11,prac,1,C,mfborder.png,1,m,Fri Jan 31 2025 10:22:59 GMT-0600 (Central Standard Time),354201.1000000015,CFD-BM-043-014-A.jpg,1200,dash,I,m,1129,11,2,36921.40000000596,317279.69999999553,8003,ATS,C,11
12,prac,1,C,mfborder.png,1,z,Fri Jan 31 2025 10:22:59 GMT-0600 (Central Standard Time),356950.1000000015,CFD-BF-019-004-HC.jpg,1000,dash,I,z,949,11,2,39670.40000000596,317279.69999999553,8003,ATS,C,12
1,test,1,C,mfborder.png,1,z,Fri Jan 31 2025 10:22:59 GMT-0600 (Central Standard Time),378110.299999997,CFD-BF-031-020-A.jpg,1600,dash,I,z,1176,2,2,2799.1999999955297,375311.1000000015,8003,ATS,C,1
2,test,1,C,mfborder.png,1,z,Fri Jan 31 2025 10:22:59 GMT-0600 (Central Standard Time),380776.1000000015,CFD-BF-031-020-A.jpg,1600,dash,I,z,1040,2,2,5465.0,375311.1000000015,8003,ATS,C,2
3,test,1,C,haborder.png,1,z,Fri Jan 31 2025 10:22:59 GMT-0600 (Central Standard Time),383575.19999999553,CFD-BM-021-026-A.jpg,1700,solid,I,z,1074,9,2,8264.09999999404,375311.1000000015,8003,ATS,C,3
4,test,1,C,haborder.png,1,m,Fri Jan 31 2025 10:22:59 GMT-0600 (Central Standard Time),386024.5,CFD-BF-019-004-HC.jpg,1600,solid,I,m,823,10,2,10713.39999999851,375311.1000000015,8003,ATS,C,4
5,test,1,C,haborder.png,1,m,Fri Jan 31 2025 10:22:59 GMT-0600 (Central Standard Time),388573.6000000015,CFD-WF-001-010-HC.jpg,1500,solid,I,m,1026,11,2,13262.5,375311.1000000015,8003,ATS,C,5
6,test,1,C,haborder.png,1,m,Fri Jan 31 2025 10:22:59 GMT-0600 (Central Standard Time),390306.19999999553,CFD-WF-013-009-HC.jpg,1000,solid,I,m,713,12,2,14995.09999999404,375311.1000000015,8003,ATS,C,6
7,test,1,C,mfborder.png,1,z,Fri Jan 31 2025 10:22:59 GMT-0600 (Central Standard Time),393055.6000000015,CFD-BF-042-031-HC.jpg,1700,dash,I,z,1024,1,2,17744.5,375311.1000000015,8003,ATS,C,7
8,test,1,C,mfborder.png,1,m,Fri Jan 31 2025 10:22:59 GMT-0600 (Central Standard Time),395738.19999999553,CFD-WM-034-040-A.jpg,2000,dash,I,m,655,5,2,20427.09999999404,375311.1000000015,8003,ATS,C,8
9,test,1,C,haborder.png,1,m,Fri Jan 31 2025 10:22:59 GMT-0600 (Central Standard Time),398803.69999999553,CFD-BF-019-004-HC.jpg,1600,solid,I,m,1437,10,2,23492.59999999404,375311.1000000015,8003,ATS,C,9
10,test,1,C,mfborder.png,1,m,Fri Jan 31 2025 10:22:59 GMT-0600 (Central Standard Time),401186.1000000015,CFD-BM-022-004-HC.jpg,1200,dash,I,m,1155,6,2,25875.0,375311.1000000015,8003,ATS,C,10
11,test,1,C,mfborder.png,1,z,Fri Jan 31 2025 10:22:59 GMT-0600 (Central Standard Time),403489.1000000015,CFD-WF-037-016-A.jpg,1500,dash,I,z,768,3,2,28178.0,375311.1000000015,8003,ATS,C,11
11,test,1,C,haborder.png,0,z,Fri Jan 31 2025 10:22:59 GMT-0600 (Central Standard Time),405951.69999999553,CFD-WM-036-018-A.jpg,1400,solid,I,m,1033,7,2,30640.59999999404,375311.1000000015,8003,ATS,C,12
12,test,1,C,mfborder.png,1,m,Fri Jan 31 2025 10:22:59 GMT-0600 (Central Standard Time),408617.3999999985,CFD-BM-022-004-HC.jpg,1200,dash,I,m,1431,6,2,33306.29999999702,375311.1000000015,8003,ATS,C,13
13,test,1,C,haborder.png,1,z,Fri Jan 31 2025 10:22:59 GMT-0600 (Central Standard Time),411716.299999997,CFD-BM-043-014-A.jpg,1900,solid,I,z,1064,8,2,36405.19999999553,375311.1000000015,8003,ATS,C,14
13,test,1,C,mfborder.png,0,m,Fri Jan 31 2025 10:22:59 GMT-0600 (Central Standard Time),414732.1000000015,CFD-WM-034-040-A.jpg,2000,dash,I,z,987,5,2,39421.0,375311.1000000015,8003,ATS,C,15
14,test,1,C,mfborder.png,1,z,Fri Jan 31 2025 10:22:59 GMT-0600 (Central Standard Time),417298.0,CFD-BF-042-031-HC.jpg,1700,dash,I,z,839,1,2,41986.89999999851,375311.1000000015,8003,ATS,C,16
15,test,1,C,mfborder.png,1,z,Fri Jan 31 2025 10:22:59 GMT-0600 (Central Standard Time),419930.3999999985,CFD-WF-037-016-A.jpg,1500,dash,I,z,1112,3,2,44619.29999999702,375311.1000000015,8003,ATS,C,17
16,test,1,C,haborder.png,1,z,Fri Jan 31 2025 10:22:59 GMT-0600 (Central Standard Time),422429.6000000015,CFD-WM-036-018-A.jpg,1400,solid,I,z,1076,7,2,47118.5,375311.1000000015,8003,ATS,C,18
17,test,1,C,haborder.png,1,m,Fri Jan 31 2025 10:22:59 GMT-0600 (Central Standard Time),424862.299999997,CFD-WF-001-010-HC.jpg,1500,solid,I,m,899,11,2,49551.19999999553,375311.1000000015,8003,ATS,C,19
18,test,1,C,mfborder.png,1,m,Fri Jan 31 2025 10:22:59 GMT-0600 (Central Standard Time),426979.19999999553,CFD-WM-035-036-HC.jpg,1000,dash,I,m,1096,4,2,51668.09999999404,375311.1000000015,8003,ATS,C,20
19,test,1,C,mfborder.png,1,m,Fri Jan 31 2025 10:22:59 GMT-0600 (Central Standard Time),428561.0,CFD-WM-035-036-HC.jpg,1000,dash,I,m,556,4,2,53249.89999999851,375311.1000000015,8003,ATS,C,21
19,test,1,C,haborder.png,0,z,Fri Jan 31 2025 10:22:59 GMT-0600 (Central Standard Time),431993.5,CFD-BM-043-014-A.jpg,1900,solid,I,None,1514,8,2,56682.39999999851,375311.1000000015,8003,ATS,C,22
19,test,1,C,haborder.png,0,m,Fri Jan 31 2025 10:22:59 GMT-0600 (Central Standard Time),433759.69999999553,CFD-WF-013-009-HC.jpg,1000,solid,I,z,741,12,2,58448.59999999404,375311.1000000015,8003,ATS,C,23
20,test,1,C,haborder.png,1,z,Fri Jan 31 2025 10:22:59 GMT-0600 (Central Standard Time),436708.5,CFD-BM-021-026-A.jpg,1700,solid,I,z,1219,9,2,61397.39999999851,375311.1000000015,8003,ATS,C,24
1,test,2,C,mfborder.png,1,m,Fri Jan 31 2025 10:22:59 GMT-0600 (Central Standard Time),446622.19999999553,CFD-WM-036-018-A.jpg,1200,dash,I,m,1309,6,2,2532.5999999940395,444089.6000000015,8003,ATS,C,1
2,test,2,C,haborder.png,1,m,Fri Jan 31 2025 10:22:59 GMT-0600 (Central Standard Time),449521.299999997,CFD-BM-022-004-HC.jpg,1600,solid,I,m,1277,10,2,5431.69999999553,444089.6000000015,8003,ATS,C,2
3,test,2,C,mfborder.png,1,m,Fri Jan 31 2025 10:22:59 GMT-0600 (Central Standard Time),452587.0,CFD-BM-043-014-A.jpg,2000,dash,I,m,1037,5,2,8497.39999999851,444089.6000000015,8003,ATS,C,3
4,test,2,C,mfborder.png,1,m,Fri Jan 31 2025 10:22:59 GMT-0600 (Central Standard Time),454453.0,CFD-WM-036-018-A.jpg,1200,dash,I,m,636,6,2,10363.39999999851,444089.6000000015,8003,ATS,C,4
5,test,2,C,haborder.png,1,z,Fri Jan 31 2025 10:22:59 GMT-0600 (Central Standard Time),457385.6000000015,CFD-BF-002-018-A.jpg,1900,solid,I,z,1014,8,2,13296.0,444089.6000000015,8003,ATS,C,5
5,test,2,C,mfborder.png,0,z,Fri Jan 31 2025 10:22:59 GMT-0600 (Central Standard Time),460084.6000000015,CFD-WF-013-009-HC.jpg,1700,dash,I,m,977,1,2,15995.0,444089.6000000015,8003,ATS,C,6
6,test,2,C,mfborder.png,1,m,Fri Jan 31 2025 10:22:59 GMT-0600 (Central Standard Time),461854.1000000015,CFD-BM-034-035-HC.jpg,1000,dash,I,m,738,4,2,17764.5,444089.6000000015,8003,ATS,C,7
7,test,2,C,mfborder.png,1,z,Fri Jan 31 2025 10:22:59 GMT-0600 (Central Standard Time),464716.6000000015,CFD-WF-023-013-A.jpg,1600,dash,I,z,1236,2,2,20627.0,444089.6000000015,8003,ATS,C,8
8,test,2,C,mfborder.png,1,m,Fri Jan 31 2025 10:22:59 GMT-0600 (Central Standard Time),466432.5,CFD-BM-034-035-HC.jpg,1000,dash,I,m,690,4,2,22342.89999999851,444089.6000000015,8003,ATS,C,9
9,test,2,C,haborder.png,1,z,Fri Jan 31 2025 10:22:59 GMT-0600 (Central Standard Time),469048.3999999985,CFD-WF-037-016-A.jpg,1700,solid,I,z,882,9,2,24958.79999999702,444089.6000000015,8003,ATS,C,10
10,test,2,C,haborder.png,1,m,Fri Jan 31 2025 10:22:59 GMT-0600 (Central Standard Time),471081.3999999985,CFD-WM-028-005-HC.jpg,1000,solid,I,m,1014,12,2,26991.79999999702,444089.6000000015,8003,ATS,C,11
11,test,2,C,haborder.png,1,m,Fri Jan 31 2025 10:22:59 GMT-0600 (Central Standard Time),473397.0,CFD-WM-028-005-HC.jpg,1500,solid,I,m,794,11,2,29307.39999999851,444089.6000000015,8003,ATS,C,12
12,test,2,C,mfborder.png,1,m,Fri Jan 31 2025 10:22:59 GMT-0600 (Central Standard Time),476712.69999999553,CFD-BM-043-014-A.jpg,2000,dash,I,m,1289,5,2,32623.09999999404,444089.6000000015,8003,ATS,C,13
13,test,2,C,mfborder.png,1,z,Fri Jan 31 2025 10:22:59 GMT-0600 (Central Standard Time),479261.8999999985,CFD-BF-019-004-HC.jpg,1500,dash,I,z,1026,3,2,35172.29999999702,444089.6000000015,8003,ATS,C,14
13,test,2,C,haborder.png,0,z,Fri Jan 31 2025 10:22:59 GMT-0600 (Central Standard Time),482194.5,CFD-BF-031-020-A.jpg,1400,solid,I,None,1514,7,2,38104.89999999851,444089.6000000015,8003,ATS,C,15
14,test,2,C,mfborder.png,1,z,Fri Jan 31 2025 10:22:59 GMT-0600 (Central Standard Time),484993.5,CFD-WF-013-009-HC.jpg,1700,dash,I,z,1073,1,2,40903.89999999851,444089.6000000015,8003,ATS,C,16
14,test,2,C,haborder.png,0,m,Fri Jan 31 2025 10:22:59 GMT-0600 (Central Standard Time),488125.69999999553,CFD-BM-022-004-HC.jpg,1600,solid,I,None,1514,10,2,44036.09999999404,444089.6000000015,8003,ATS,C,17
15,test,2,C,haborder.png,1,m,Fri Jan 31 2025 10:22:59 GMT-0600 (Central Standard Time),490191.69999999553,CFD-WM-028-005-HC.jpg,1500,solid,I,m,541,11,2,46102.09999999404,444089.6000000015,8003,ATS,C,18
16,test,2,C,mfborder.png,1,z,Fri Jan 31 2025 10:22:59 GMT-0600 (Central Standard Time),492724.299999997,CFD-WF-023-013-A.jpg,1600,dash,I,z,903,2,2,48634.69999999553,444089.6000000015,8003,ATS,C,19
17,test,2,C,mfborder.png,1,z,Fri Jan 31 2025 10:22:59 GMT-0600 (Central Standard Time),494873.6000000015,CFD-BF-019-004-HC.jpg,1500,dash,I,z,615,3,2,50784.0,444089.6000000015,8003,ATS,C,20
17,test,2,C,haborder.png,0,z,Fri Jan 31 2025 10:22:59 GMT-0600 (Central Standard Time),497289.6000000015,CFD-BF-031-020-A.jpg,1400,solid,I,m,978,7,2,53200.0,444089.6000000015,8003,ATS,C,21
18,test,2,C,haborder.png,1,m,Fri Jan 31 2025 10:22:59 GMT-0600 (Central Standard Time),499039.1000000015,CFD-WM-028-005-HC.jpg,1000,solid,I,m,725,12,2,54949.5,444089.6000000015,8003,ATS,C,22
19,test,2,C,haborder.png,1,z,Fri Jan 31 2025 10:22:59 GMT-0600 (Central Standard Time),502171.299999997,CFD-BF-002-018-A.jpg,1900,solid,I,z,1212,8,2,58081.69999999553,444089.6000000015,8003,ATS,C,23
20,test,2,C,haborder.png,1,z,Fri Jan 31 2025 10:22:59 GMT-0600 (Central Standard Time),504786.1000000015,CFD-WF-037-016-A.jpg,1700,solid,I,z,760,9,2,60696.5,444089.6000000015,8003,ATS,C,24
1,test,3,C,mfborder.png,1,m,Fri Jan 31 2025 10:22:59 GMT-0600 (Central Standard Time),510402.5,CFD-WM-035-036-HC.jpg,1000,dash,I,m,701,4,2,1733.1000000014901,508669.3999999985,8003,ATS,C,1
2,test,3,C,mfborder.png,1,z,Fri Jan 31 2025 10:22:59 GMT-0600 (Central Standard Time),512934.69999999553,CFD-WF-037-016-A.jpg,1500,dash,I,z,1001,3,2,4265.29999999702,508669.3999999985,8003,ATS,C,2
3,test,3,C,mfborder.png,1,m,Fri Jan 31 2025 10:22:59 GMT-0600 (Central Standard Time),515600.3999999985,CFD-WM-034-040-A.jpg,2000,dash,I,m,632,5,2,6931.0,508669.3999999985,8003,ATS,C,3
4,test,3,C,haborder.png,1,z,Fri Jan 31 2025 10:22:59 GMT-0600 (Central Standard Time),518133.1000000015,CFD-WM-036-018-A.jpg,1400,solid,I,z,1098,7,2,9463.70000000298,508669.3999999985,8003,ATS,C,4
5,test,3,C,mfborder.png,1,m,Fri Jan 31 2025 10:22:59 GMT-0600 (Central Standard Time),520149.5,CFD-BM-022-004-HC.jpg,1200,dash,I,m,785,6,2,11480.10000000149,508669.3999999985,8003,ATS,C,5
6,test,3,C,mfborder.png,1,m,Fri Jan 31 2025 10:22:59 GMT-0600 (Central Standard Time),521715.299999997,CFD-WM-035-036-HC.jpg,1000,dash,I,m,538,4,2,13045.89999999851,508669.3999999985,8003,ATS,C,6
6,test,3,C,haborder.png,0,m,Fri Jan 31 2025 10:22:59 GMT-0600 (Central Standard Time),523414.69999999553,CFD-WF-013-009-HC.jpg,1000,solid,I,z,675,12,2,14745.29999999702,508669.3999999985,8003,ATS,C,7
6,test,3,C,haborder.png,0,m,Fri Jan 31 2025 10:22:59 GMT-0600 (Central Standard Time),526447.3999999985,CFD-WF-001-010-HC.jpg,1500,solid,I,None,1514,11,2,17778.0,508669.3999999985,8003,ATS,C,8
7,test,3,C,haborder.png,1,z,Fri Jan 31 2025 10:22:59 GMT-0600 (Central Standard Time),529679.3999999985,CFD-BM-043-014-A.jpg,1900,solid,I,z,1215,8,2,21010.0,508669.3999999985,8003,ATS,C,9
8,test,3,C,mfborder.png,1,z,Fri Jan 31 2025 10:22:59 GMT-0600 (Central Standard Time),532345.1000000015,CFD-BF-042-031-HC.jpg,1700,dash,I,z,939,1,2,23675.70000000298,508669.3999999985,8003,ATS,C,10
9,test,3,C,mfborder.png,1,z,Fri Jan 31 2025 10:22:59 GMT-0600 (Central Standard Time),535094.299999997,CFD-BF-031-020-A.jpg,1600,dash,I,z,1117,2,2,26424.89999999851,508669.3999999985,8003,ATS,C,11
10,test,3,C,haborder.png,1,m,Fri Jan 31 2025 10:22:59 GMT-0600 (Central Standard Time),538060.299999997,CFD-BF-019-004-HC.jpg,1600,solid,I,m,1336,10,2,29390.89999999851,508669.3999999985,8003,ATS,C,12
11,test,3,C,haborder.png,1,z,Fri Jan 31 2025 10:22:59 GMT-0600 (Central Standard Time),540576.1000000015,CFD-BM-021-026-A.jpg,1700,solid,I,z,783,9,2,31906.70000000298,508669.3999999985,8003,ATS,C,13
12,test,3,C,haborder.png,1,m,Fri Jan 31 2025 10:22:59 GMT-0600 (Central Standard Time),543025.1999999955,CFD-BF-019-004-HC.jpg,1600,solid,I,m,823,10,2,34355.79999999702,508669.3999999985,8003,ATS,C,14
13,test,3,C,haborder.png,1,z,Fri Jan 31 2025 10:22:59 GMT-0600 (Central Standard Time),545924.1999999955,CFD-BM-043-014-A.jpg,1900,solid,I,z,977,8,2,37254.79999999702,508669.3999999985,8003,ATS,C,15
14,test,3,C,haborder.png,1,m,Fri Jan 31 2025 10:22:59 GMT-0600 (Central Standard Time),547823.6999999955,CFD-WF-013-009-HC.jpg,1000,solid,I,m,866,12,2,39154.29999999702,508669.3999999985,8003,ATS,C,16
15,test,3,C,haborder.png,1,m,Fri Jan 31 2025 10:22:59 GMT-0600 (Central Standard Time),550173.1000000015,CFD-WF-001-010-HC.jpg,1500,solid,I,m,827,11,2,41503.70000000298,508669.3999999985,8003,ATS,C,17
16,test,3,C,mfborder.png,1,z,Fri Jan 31 2025 10:22:59 GMT-0600 (Central Standard Time),552855.5,CFD-WF-037-016-A.jpg,1500,dash,I,z,1027,3,2,44186.10000000149,508669.3999999985,8003,ATS,C,18
17,test,3,C,mfborder.png,1,z,Fri Jan 31 2025 10:22:59 GMT-0600 (Central Standard Time),555121.3999999985,CFD-BF-031-020-A.jpg,1600,dash,I,z,639,2,2,46452.0,508669.3999999985,8003,ATS,C,19
18,test,3,C,haborder.png,1,z,Fri Jan 31 2025 10:22:59 GMT-0600 (Central Standard Time),557371.6999999955,CFD-WM-036-018-A.jpg,1400,solid,I,z,829,7,2,48702.29999999702,508669.3999999985,8003,ATS,C,20
19,test,3,C,mfborder.png,1,z,Fri Jan 31 2025 10:22:59 GMT-0600 (Central Standard Time),560169.8999999985,CFD-BF-042-031-HC.jpg,1700,dash,I,z,1072,1,2,51500.5,508669.3999999985,8003,ATS,C,21
20,test,3,C,mfborder.png,1,m,Fri Jan 31 2025 10:22:59 GMT-0600 (Central Standard Time),562285.8999999985,CFD-BM-022-004-HC.jpg,1200,dash,I,m,893,6,2,53616.5,508669.3999999985,8003,ATS,C,22
21,test,3,C,haborder.png,1,z,Fri Jan 31 2025 10:22:59 GMT-0600 (Central Standard Time),565318.3999999985,CFD-BM-021-026-A.jpg,1700,solid,I,z,1301,9,2,56649.0,508669.3999999985,8003,ATS,C,23
22,test,3,C,mfborder.png,1,m,Fri Jan 31 2025 10:22:59 GMT-0600 (Central Standard Time),568300.799999997,CFD-WM-034-040-A.jpg,2000,dash,I,m,960,5,2,59631.39999999851,508669.3999999985,8003,ATS,C,24
1,test,4,C,haborder.png,1,m,Fri Jan 31 2025 10:22:59 GMT-0600 (Central Standard Time),573848.8999999985,CFD-WM-028-005-HC.jpg,1000,solid,I,m,1090,12,2,2116.0,571732.8999999985,8003,ATS,C,1
2,test,4,C,mfborder.png,1,z,Fri Jan 31 2025 10:22:59 GMT-0600 (Central Standard Time),576498.299999997,CFD-WF-023-013-A.jpg,1600,dash,I,z,952,2,2,4765.39999999851,571732.8999999985,8003,ATS,C,2
3,test,4,C,mfborder.png,1,z,Fri Jan 31 2025 10:22:59 GMT-0600 (Central Standard Time),579097.299999997,CFD-WF-023-013-A.jpg,1600,dash,I,z,972,2,2,7364.39999999851,571732.8999999985,8003,ATS,C,3
4,test,4,C,haborder.png,1,m,Fri Jan 31 2025 10:22:59 GMT-0600 (Central Standard Time),581396.5,CFD-WM-028-005-HC.jpg,1500,solid,I,m,769,11,2,9663.60000000149,571732.8999999985,8003,ATS,C,4
5,test,4,C,haborder.png,1,z,Fri Jan 31 2025 10:22:59 GMT-0600 (Central Standard Time),583912.299999997,CFD-WF-037-016-A.jpg,1700,solid,I,z,782,9,2,12179.39999999851,571732.8999999985,8003,ATS,C,5
6,test,4,C,mfborder.png,1,m,Fri Jan 31 2025 10:22:59 GMT-0600 (Central Standard Time),586111.6999999955,CFD-WM-036-018-A.jpg,1200,dash,I,m,966,6,2,14378.79999999702,571732.8999999985,8003,ATS,C,6
7,test,4,C,haborder.png,1,z,Fri Jan 31 2025 10:22:59 GMT-0600 (Central Standard Time),589110.8999999985,CFD-WF-037-016-A.jpg,1700,solid,I,z,1276,9,2,17378.0,571732.8999999985,8003,ATS,C,7
8,test,4,C,haborder.png,1,z,Fri Jan 31 2025 10:22:59 GMT-0600 (Central Standard Time),591993.3999999985,CFD-BF-002-018-A.jpg,1900,solid,I,z,965,8,2,20260.5,571732.8999999985,8003,ATS,C,8
9,test,4,C,haborder.png,1,z,Fri Jan 31 2025 10:22:59 GMT-0600 (Central Standard Time),594542.3999999985,CFD-BF-002-018-A.jpg,1900,solid,I,z,618,8,2,22809.5,571732.8999999985,8003,ATS,C,9
10,test,4,C,mfborder.png,1,z,Fri Jan 31 2025 10:22:59 GMT-0600 (Central Standard Time),597008.5,CFD-BF-019-004-HC.jpg,1500,dash,I,z,940,3,2,25275.60000000149,571732.8999999985,8003,ATS,C,10
11,test,4,C,mfborder.png,1,m,Fri Jan 31 2025 10:22:59 GMT-0600 (Central Standard Time),598904.1000000015,CFD-BM-034-035-HC.jpg,1000,dash,I,m,877,4,2,27171.20000000298,571732.8999999985,8003,ATS,C,11
12,test,4,C,mfborder.png,1,m,Fri Jan 31 2025 10:22:59 GMT-0600 (Central Standard Time),600823.799999997,CFD-WM-036-018-A.jpg,1200,dash,I,m,692,6,2,29090.89999999851,571732.8999999985,8003,ATS,C,12
13,test,4,C,haborder.png,1,m,Fri Jan 31 2025 10:22:59 GMT-0600 (Central Standard Time),603291.1000000015,CFD-WM-028-005-HC.jpg,1500,solid,I,m,938,11,2,31558.20000000298,571732.8999999985,8003,ATS,C,13
14,test,4,C,mfborder.png,1,z,Fri Jan 31 2025 10:22:59 GMT-0600 (Central Standard Time),605988.799999997,CFD-WF-013-009-HC.jpg,1700,dash,I,z,977,1,2,34255.89999999851,571732.8999999985,8003,ATS,C,14
15,test,4,C,haborder.png,1,m,Fri Jan 31 2025 10:22:59 GMT-0600 (Central Standard Time),608088.299999997,CFD-WM-028-005-HC.jpg,1000,solid,I,m,1074,12,2,36355.39999999851,571732.8999999985,8003,ATS,C,15
16,test,4,C,mfborder.png,1,m,Fri Jan 31 2025 10:22:59 GMT-0600 (Central Standard Time),610255.299999997,CFD-BM-034-035-HC.jpg,1000,dash,I,m,1143,4,2,38522.39999999851,571732.8999999985,8003,ATS,C,16
17,test,4,C,haborder.png,1,m,Fri Jan 31 2025 10:22:59 GMT-0600 (Central Standard Time),613120.0,CFD-BM-022-004-HC.jpg,1600,solid,I,m,1232,10,2,41387.10000000149,571732.8999999985,8003,ATS,C,17
18,test,4,C,mfborder.png,1,m,Fri Jan 31 2025 10:22:59 GMT-0600 (Central Standard Time),616302.299999997,CFD-BM-043-014-A.jpg,2000,dash,I,m,1151,5,2,44569.39999999851,571732.8999999985,8003,ATS,C,18
19,test,4,C,mfborder.png,1,m,Fri Jan 31 2025 10:22:59 GMT-0600 (Central Standard Time),619034.5,CFD-BM-043-014-A.jpg,2000,dash,I,m,712,5,2,47301.60000000149,571732.8999999985,8003,ATS,C,19
20,test,4,C,mfborder.png,1,z,Fri Jan 31 2025 10:22:59 GMT-0600 (Central Standard Time),621650.5,CFD-WF-013-009-HC.jpg,1700,dash,I,z,896,1,2,49917.60000000149,571732.8999999985,8003,ATS,C,20
21,test,4,C,haborder.png,1,z,Fri Jan 31 2025 10:22:59 GMT-0600 (Central Standard Time),624333.1999999955,CFD-BF-031-020-A.jpg,1400,solid,I,z,1261,7,2,52600.29999999702,571732.8999999985,8003,ATS,C,21
22,test,4,C,mfborder.png,1,z,Fri Jan 31 2025 10:22:59 GMT-0600 (Central Standard Time),626799.299999997,CFD-BF-019-004-HC.jpg,1500,dash,I,z,934,3,2,55066.39999999851,571732.8999999985,8003,ATS,C,22
23,test,4,C,haborder.png,1,m,Fri Jan 31 2025 10:22:59 GMT-0600 (Central Standard Time),629348.299999997,CFD-BM-022-004-HC.jpg,1600,solid,I,m,928,10,2,57615.39999999851,571732.8999999985,8003,ATS,C,23
24,test,4,C,haborder.png,1,z,Fri Jan 31 2025 10:22:59 GMT-0600 (Central Standard Time),631464.1999999955,CFD-BF-031-020-A.jpg,1400,solid,I,z,690,7,2,59731.29999999702,571732.8999999985,8003,ATS,C,24
