acc_sum,block,block_c,block_cond,con_img,correct,correct_response,datetime,endtime,face,jitter,line,project,response,response_time,row_sel,session_number,start_end,starttime,subject_id,task,task_vers,trial
1,prac,1,A,haborder.png,1,m,Tue Nov 12 2024 14:44:06 GMT-0500 (Eastern Standard Time),65294.0,CFD-WM-006-013-HC.jpg,1700,solid,I,m,799,9,1,3300.5,61993.5,9003,ATS,A,1
2,prac,1,A,haborder.png,1,m,Tue Nov 12 2024 14:44:06 GMT-0500 (Eastern Standard Time),68460.59999990463,CFD-WF-017-016-HC.jpg,1500,solid,I,m,849,11,1,6467.099999904633,61993.5,9003,ATS,A,2
3,prac,1,A,haborder.png,1,z,Tue Nov 12 2024 14:44:06 GMT-0500 (Eastern Standard Time),71093.09999990463,CFD-BF-039-039-A.jpg,1200,solid,I,z,623,6,1,9099.599999904633,61993.5,9003,ATS,A,3
3,prac,1,A,haborder.png,0,m,Tue Nov 12 2024 14:44:06 GMT-0500 (Eastern Standard Time),74893.59999990463,CFD-BM-029-026-HC.jpg,1500,solid,I,None,1516,3,1,12900.099999904633,61993.5,9003,ATS,A,4
4,prac,1,A,haborder.png,1,z,Tue Nov 12 2024 14:44:06 GMT-0500 (Eastern Standard Time),78410.2999997139,CFD-WM-013-015-A.jpg,1900,solid,I,z,802,8,1,16416.799999713898,61993.5,9003,ATS,A,5
5,prac,1,A,haborder.png,1,z,Tue Nov 12 2024 14:44:06 GMT-0500 (Eastern Standard Time),81426.5,CFD-BM-005-010-A.jpg,1600,solid,I,z,608,2,1,19433.0,61993.5,9003,ATS,A,6
6,prac,1,A,haborder.png,1,z,Tue Nov 12 2024 14:44:06 GMT-0500 (Eastern Standard Time),83910.59999990463,CFD-WF-019-015-A.jpg,1000,solid,I,z,689,12,1,21917.099999904633,61993.5,9003,ATS,A,7
7,prac,1,A,haborder.png,1,m,Tue Nov 12 2024 14:44:06 GMT-0500 (Eastern Standard Time),87277.0,CFD-BF-028-020-HC.jpg,2000,solid,I,m,550,5,1,25283.5,61993.5,9003,ATS,A,8
8,prac,1,A,haborder.png,1,m,Tue Nov 12 2024 14:44:06 GMT-0500 (Eastern Standard Time),90477.19999980927,CFD-BM-017-052-HC.jpg,1700,solid,I,m,698,1,1,28483.699999809265,61993.5,9003,ATS,A,9
9,prac,1,A,haborder.png,1,z,Tue Nov 12 2024 14:44:06 GMT-0500 (Eastern Standard Time),93543.69999980927,CFD-WF-003-014-A.jpg,1600,solid,I,z,654,10,1,31550.199999809265,61993.5,9003,ATS,A,10
10,prac,1,A,haborder.png,1,m,Tue Nov 12 2024 14:44:06 GMT-0500 (Eastern Standard Time),96476.69999980927,CFD-WM-004-005-HC.jpg,1400,solid,I,m,716,7,1,34483.199999809265,61993.5,9003,ATS,A,11
11,prac,1,A,haborder.png,1,z,Tue Nov 12 2024 14:44:06 GMT-0500 (Eastern Standard Time),98960.59999990463,CFD-BF-023-013-A.jpg,1000,solid,I,z,696,4,1,36967.09999990463,61993.5,9003,ATS,A,12
1,prac,1,B,mfborder.png,1,z,Tue Nov 12 2024 14:44:06 GMT-0500 (Eastern Standard Time),123560.40000009537,CFD-BF-010-005-HC.jpg,1500,dash,I,z,804,3,1,3116.5,120443.90000009537,9003,ATS,A,1
2,prac,1,B,mfborder.png,1,m,Tue Nov 12 2024 14:44:06 GMT-0500 (Eastern Standard Time),126643.7999997139,CFD-WM-006-013-HC.jpg,1600,dash,I,m,675,10,1,6199.89999961853,120443.90000009537,9003,ATS,A,2
3,prac,1,B,mfborder.png,1,z,Tue Nov 12 2024 14:44:06 GMT-0500 (Eastern Standard Time),129627.19999980927,CFD-WF-003-014-A.jpg,1500,dash,I,z,667,11,1,9183.299999713898,120443.90000009537,9003,ATS,A,3
4,prac,1,B,mfborder.png,1,m,Tue Nov 12 2024 14:44:06 GMT-0500 (Eastern Standard Time),133327.0,CFD-BM-029-026-HC.jpg,1700,dash,I,m,1197,1,1,12883.099999904633,120443.90000009537,9003,ATS,A,4
5,prac,1,B,mfborder.png,1,z,Tue Nov 12 2024 14:44:06 GMT-0500 (Eastern Standard Time),136177.0,CFD-BF-028-020-HC.jpg,1400,dash,I,z,645,7,1,15733.099999904633,120443.90000009537,9003,ATS,A,5
6,prac,1,B,mfborder.png,1,z,Tue Nov 12 2024 14:44:06 GMT-0500 (Eastern Standard Time),139460.40000009537,CFD-WF-002-008-HC.jpg,1900,dash,I,z,575,8,1,19016.5,120443.90000009537,9003,ATS,A,6
7,prac,1,B,mfborder.png,1,z,Tue Nov 12 2024 14:44:06 GMT-0500 (Eastern Standard Time),142043.69999980927,CFD-BF-023-013-A.jpg,1000,dash,I,z,783,4,1,21599.799999713898,120443.90000009537,9003,ATS,A,7
8,prac,1,B,mfborder.png,1,m,Tue Nov 12 2024 14:44:06 GMT-0500 (Eastern Standard Time),145127.09999990463,CFD-WM-013-015-A.jpg,1700,dash,I,m,572,9,1,24683.199999809265,120443.90000009537,9003,ATS,A,8
9,prac,1,B,mfborder.png,1,m,Tue Nov 12 2024 14:44:06 GMT-0500 (Eastern Standard Time),148643.40000009537,CFD-BM-005-010-A.jpg,2000,dash,I,m,709,5,1,28199.5,120443.90000009537,9003,ATS,A,9
10,prac,1,B,mfborder.png,1,m,Tue Nov 12 2024 14:44:06 GMT-0500 (Eastern Standard Time),151244.40000009537,CFD-WM-019-013-A.jpg,1200,dash,I,m,600,6,1,30800.5,120443.90000009537,9003,ATS,A,10
11,prac,1,B,mfborder.png,1,z,Tue Nov 12 2024 14:44:06 GMT-0500 (Eastern Standard Time),153760.40000009537,CFD-WF-017-016-HC.jpg,1000,dash,I,z,730,12,1,33316.5,120443.90000009537,9003,ATS,A,11
12,prac,1,B,mfborder.png,1,m,Tue Nov 12 2024 14:44:06 GMT-0500 (Eastern Standard Time),156777.09999990463,CFD-BM-010-019-A.jpg,1600,dash,I,m,604,2,1,36333.199999809265,120443.90000009537,9003,ATS,A,12
1,test,1,A,haborder.png,1,z,Tue Nov 12 2024 14:44:06 GMT-0500 (Eastern Standard Time),180377.2999997139,CFD-WF-003-014-A.jpg,1600,solid,I,z,688,10,1,2316.7999997138977,178060.5,9003,ATS,A,1
2,test,1,A,haborder.png,1,m,Tue Nov 12 2024 14:44:06 GMT-0500 (Eastern Standard Time),182643.7999997139,CFD-BM-029-026-HC.jpg,1500,solid,I,m,743,3,1,4583.299999713898,178060.5,9003,ATS,A,2
3,test,1,A,haborder.png,1,z,Tue Nov 12 2024 14:44:06 GMT-0500 (Eastern Standard Time),185326.59999990463,CFD-WM-013-015-A.jpg,1900,solid,I,z,764,8,1,7266.099999904633,178060.5,9003,ATS,A,3
4,test,1,A,haborder.png,1,z,Tue Nov 12 2024 14:44:06 GMT-0500 (Eastern Standard Time),187110.40000009537,CFD-BF-039-039-A.jpg,1200,solid,I,z,557,6,1,9049.900000095367,178060.5,9003,ATS,A,4
5,test,1,A,haborder.png,1,m,Tue Nov 12 2024 14:44:06 GMT-0500 (Eastern Standard Time),189193.59999990463,CFD-WF-017-016-HC.jpg,1500,solid,I,m,554,11,1,11133.099999904633,178060.5,9003,ATS,A,5
6,test,1,A,haborder.png,1,m,Tue Nov 12 2024 14:44:06 GMT-0500 (Eastern Standard Time),191360.40000009537,CFD-WM-004-005-HC.jpg,1400,solid,I,m,746,7,1,13299.900000095367,178060.5,9003,ATS,A,6
7,test,1,A,haborder.png,1,m,Tue Nov 12 2024 14:44:06 GMT-0500 (Eastern Standard Time),193293.59999990463,CFD-WM-004-005-HC.jpg,1400,solid,I,m,500,7,1,15233.099999904633,178060.5,9003,ATS,A,7
8,test,1,A,haborder.png,1,m,Tue Nov 12 2024 14:44:06 GMT-0500 (Eastern Standard Time),195843.7999997139,CFD-BF-028-020-HC.jpg,2000,solid,I,m,527,5,1,17783.299999713898,178060.5,9003,ATS,A,8
9,test,1,A,haborder.png,1,z,Tue Nov 12 2024 14:44:06 GMT-0500 (Eastern Standard Time),197526.69999980927,CFD-BF-023-013-A.jpg,1000,solid,I,z,655,4,1,19466.199999809265,178060.5,9003,ATS,A,9
10,test,1,A,haborder.png,1,z,Tue Nov 12 2024 14:44:06 GMT-0500 (Eastern Standard Time),199710.5,CFD-BM-005-010-A.jpg,1600,solid,I,z,549,2,1,21650.0,178060.5,9003,ATS,A,10
11,test,1,A,haborder.png,1,z,Tue Nov 12 2024 14:44:06 GMT-0500 (Eastern Standard Time),201477.09999990463,CFD-WF-019-015-A.jpg,1000,solid,I,z,742,12,1,23416.599999904633,178060.5,9003,ATS,A,11
12,test,1,A,haborder.png,1,z,Tue Nov 12 2024 14:44:06 GMT-0500 (Eastern Standard Time),203010.5,CFD-BF-023-013-A.jpg,1000,solid,I,z,511,4,1,24950.0,178060.5,9003,ATS,A,12
13,test,1,A,haborder.png,1,z,Tue Nov 12 2024 14:44:06 GMT-0500 (Eastern Standard Time),205193.7999997139,CFD-BM-005-010-A.jpg,1600,solid,I,z,554,2,1,27133.299999713898,178060.5,9003,ATS,A,13
14,test,1,A,haborder.png,1,z,Tue Nov 12 2024 14:44:06 GMT-0500 (Eastern Standard Time),206943.69999980927,CFD-BF-039-039-A.jpg,1200,solid,I,z,530,6,1,28883.199999809265,178060.5,9003,ATS,A,14
15,test,1,A,haborder.png,1,m,Tue Nov 12 2024 14:44:06 GMT-0500 (Eastern Standard Time),208943.5,CFD-WF-017-016-HC.jpg,1500,solid,I,m,481,11,1,30883.0,178060.5,9003,ATS,A,15
16,test,1,A,haborder.png,1,m,Tue Nov 12 2024 14:44:06 GMT-0500 (Eastern Standard Time),211176.69999980927,CFD-BM-017-052-HC.jpg,1700,solid,I,m,504,1,1,33116.199999809265,178060.5,9003,ATS,A,16
17,test,1,A,haborder.png,1,z,Tue Nov 12 2024 14:44:06 GMT-0500 (Eastern Standard Time),212993.69999980927,CFD-WF-019-015-A.jpg,1000,solid,I,z,796,12,1,34933.199999809265,178060.5,9003,ATS,A,17
18,test,1,A,haborder.png,1,m,Tue Nov 12 2024 14:44:06 GMT-0500 (Eastern Standard Time),215276.69999980927,CFD-BM-017-052-HC.jpg,1700,solid,I,m,549,1,1,37216.199999809265,178060.5,9003,ATS,A,18
19,test,1,A,haborder.png,1,m,Tue Nov 12 2024 14:44:06 GMT-0500 (Eastern Standard Time),217643.69999980927,CFD-WM-006-013-HC.jpg,1700,solid,I,m,635,9,1,39583.199999809265,178060.5,9003,ATS,A,19
20,test,1,A,haborder.png,1,z,Tue Nov 12 2024 14:44:06 GMT-0500 (Eastern Standard Time),219860.69999980927,CFD-WF-003-014-A.jpg,1600,solid,I,z,593,10,1,41800.199999809265,178060.5,9003,ATS,A,20
21,test,1,A,haborder.png,1,m,Tue Nov 12 2024 14:44:06 GMT-0500 (Eastern Standard Time),222143.7999997139,CFD-BM-029-026-HC.jpg,1500,solid,I,m,764,3,1,44083.2999997139,178060.5,9003,ATS,A,21
22,test,1,A,haborder.png,1,m,Tue Nov 12 2024 14:44:06 GMT-0500 (Eastern Standard Time),224810.40000009537,CFD-BF-028-020-HC.jpg,2000,solid,I,m,637,5,1,46749.90000009537,178060.5,9003,ATS,A,22
23,test,1,A,haborder.png,1,z,Tue Nov 12 2024 14:44:06 GMT-0500 (Eastern Standard Time),227477.19999980927,CFD-WM-013-015-A.jpg,1900,solid,I,z,742,8,1,49416.699999809265,178060.5,9003,ATS,A,23
24,test,1,A,haborder.png,1,m,Tue Nov 12 2024 14:44:06 GMT-0500 (Eastern Standard Time),229860.40000009537,CFD-WM-006-013-HC.jpg,1700,solid,I,m,659,9,1,51799.90000009537,178060.5,9003,ATS,A,24
1,test,1,B,mfborder.png,1,z,Tue Nov 12 2024 14:44:06 GMT-0500 (Eastern Standard Time),246110.40000009537,CFD-BF-028-020-HC.jpg,1400,dash,I,z,632,7,1,2066.5,244043.90000009537,9003,ATS,A,1
2,test,1,B,mfborder.png,1,m,Tue Nov 12 2024 14:44:06 GMT-0500 (Eastern Standard Time),248376.7999997139,CFD-WM-013-015-A.jpg,1700,dash,I,m,538,9,1,4332.89999961853,244043.90000009537,9003,ATS,A,2
3,test,1,B,mfborder.png,1,m,Tue Nov 12 2024 14:44:06 GMT-0500 (Eastern Standard Time),250093.7999997139,CFD-WM-019-013-A.jpg,1200,dash,I,m,483,6,1,6049.89999961853,244043.90000009537,9003,ATS,A,3
4,test,1,B,mfborder.png,1,z,Tue Nov 12 2024 14:44:06 GMT-0500 (Eastern Standard Time),252043.90000009537,CFD-BF-010-005-HC.jpg,1500,dash,I,z,418,3,1,8000.0,244043.90000009537,9003,ATS,A,4
5,test,1,B,mfborder.png,1,m,Tue Nov 12 2024 14:44:06 GMT-0500 (Eastern Standard Time),254210.5,CFD-WM-006-013-HC.jpg,1600,dash,I,m,544,10,1,10166.599999904633,244043.90000009537,9003,ATS,A,5
6,test,1,B,mfborder.png,1,m,Tue Nov 12 2024 14:44:06 GMT-0500 (Eastern Standard Time),256343.90000009537,CFD-BM-010-019-A.jpg,1600,dash,I,m,506,2,1,12300.0,244043.90000009537,9003,ATS,A,6
7,test,1,B,mfborder.png,1,z,Tue Nov 12 2024 14:44:06 GMT-0500 (Eastern Standard Time),258377.19999980927,CFD-BF-010-005-HC.jpg,1500,dash,I,z,504,3,1,14333.299999713898,244043.90000009537,9003,ATS,A,7
8,test,1,B,mfborder.png,1,z,Tue Nov 12 2024 14:44:06 GMT-0500 (Eastern Standard Time),260843.40000009537,CFD-WF-002-008-HC.jpg,1900,dash,I,z,534,8,1,16799.5,244043.90000009537,9003,ATS,A,8
9,test,1,B,mfborder.png,1,z,Tue Nov 12 2024 14:44:06 GMT-0500 (Eastern Standard Time),262427.09999990463,CFD-WF-017-016-HC.jpg,1000,dash,I,z,552,12,1,18383.199999809265,244043.90000009537,9003,ATS,A,9
10,test,1,B,mfborder.png,1,m,Tue Nov 12 2024 14:44:06 GMT-0500 (Eastern Standard Time),264643.7999997139,CFD-BM-029-026-HC.jpg,1700,dash,I,m,493,1,1,20599.89999961853,244043.90000009537,9003,ATS,A,10
11,test,1,B,mfborder.png,1,m,Tue Nov 12 2024 14:44:06 GMT-0500 (Eastern Standard Time),266793.69999980927,CFD-BM-029-026-HC.jpg,1700,dash,I,m,420,1,1,22749.799999713898,244043.90000009537,9003,ATS,A,11
12,test,1,B,mfborder.png,1,z,Tue Nov 12 2024 14:44:06 GMT-0500 (Eastern Standard Time),268427.09999990463,CFD-BF-023-013-A.jpg,1000,dash,I,z,602,4,1,24383.199999809265,244043.90000009537,9003,ATS,A,12
13,test,1,B,mfborder.png,1,z,Tue Nov 12 2024 14:44:06 GMT-0500 (Eastern Standard Time),270510.5,CFD-WF-003-014-A.jpg,1500,dash,I,z,549,11,1,26466.599999904633,244043.90000009537,9003,ATS,A,13
14,test,1,B,mfborder.png,1,z,Tue Nov 12 2024 14:44:06 GMT-0500 (Eastern Standard Time),272410.5,CFD-BF-028-020-HC.jpg,1400,dash,I,z,469,7,1,28366.599999904633,244043.90000009537,9003,ATS,A,14
15,test,1,B,mfborder.png,1,z,Tue Nov 12 2024 14:44:06 GMT-0500 (Eastern Standard Time),274060.5,CFD-BF-023-013-A.jpg,1000,dash,I,z,600,4,1,30016.599999904633,244043.90000009537,9003,ATS,A,15
16,test,1,B,mfborder.png,1,m,Tue Nov 12 2024 14:44:06 GMT-0500 (Eastern Standard Time),276276.69999980927,CFD-WM-013-015-A.jpg,1700,dash,I,m,492,9,1,32232.799999713898,244043.90000009537,9003,ATS,A,16
17,test,1,B,mfborder.png,1,m,Tue Nov 12 2024 14:44:06 GMT-0500 (Eastern Standard Time),278494.0,CFD-WM-019-013-A.jpg,1200,dash,I,m,983,6,1,34450.09999990463,244043.90000009537,9003,ATS,A,17
18,test,1,B,mfborder.png,1,z,Tue Nov 12 2024 14:44:06 GMT-0500 (Eastern Standard Time),280027.2999997139,CFD-WF-017-016-HC.jpg,1000,dash,I,z,502,12,1,35983.39999961853,244043.90000009537,9003,ATS,A,18
19,test,1,B,mfborder.png,1,m,Tue Nov 12 2024 14:44:06 GMT-0500 (Eastern Standard Time),282193.69999980927,CFD-WM-006-013-HC.jpg,1600,dash,I,m,545,10,1,38149.7999997139,244043.90000009537,9003,ATS,A,19
20,test,1,B,mfborder.png,1,z,Tue Nov 12 2024 14:44:06 GMT-0500 (Eastern Standard Time),284777.19999980927,CFD-WF-002-008-HC.jpg,1900,dash,I,z,654,8,1,40733.2999997139,244043.90000009537,9003,ATS,A,20
21,test,1,B,mfborder.png,1,m,Tue Nov 12 2024 14:44:06 GMT-0500 (Eastern Standard Time),287310.69999980927,CFD-BM-005-010-A.jpg,2000,dash,I,m,499,5,1,43266.7999997139,244043.90000009537,9003,ATS,A,21
22,test,1,B,mfborder.png,1,m,Tue Nov 12 2024 14:44:06 GMT-0500 (Eastern Standard Time),289493.69999980927,CFD-BM-010-019-A.jpg,1600,dash,I,m,558,2,1,45449.7999997139,244043.90000009537,9003,ATS,A,22
23,test,1,B,mfborder.png,1,m,Tue Nov 12 2024 14:44:06 GMT-0500 (Eastern Standard Time),291993.7999997139,CFD-BM-005-010-A.jpg,2000,dash,I,m,470,5,1,47949.89999961853,244043.90000009537,9003,ATS,A,23
24,test,1,B,mfborder.png,1,z,Tue Nov 12 2024 14:44:06 GMT-0500 (Eastern Standard Time),294093.69999980927,CFD-WF-003-014-A.jpg,1500,dash,I,z,566,11,1,50049.7999997139,244043.90000009537,9003,ATS,A,24
0,prac,1,C,mfborder.png,0,z,Tue Nov 12 2024 14:44:06 GMT-0500 (Eastern Standard Time),326260.69999980927,CFD-WF-019-015-A.jpg,1500,solid,I,None,1516,2,1,3800.0999999046326,322460.59999990463,9003,ATS,A,1
1,prac,1,C,haborder.png,1,m,Tue Nov 12 2024 14:44:06 GMT-0500 (Eastern Standard Time),329694.19999980927,CFD-BM-029-026-HC.jpg,1500,solid,I,m,1131,10,1,7233.599999904633,322460.59999990463,9003,ATS,A,2
2,prac,1,C,mfborder.png,1,z,Tue Nov 12 2024 14:44:06 GMT-0500 (Eastern Standard Time),332394.19999980927,CFD-BF-028-020-HC.jpg,1000,dash,I,z,886,3,1,9933.599999904633,322460.59999990463,9003,ATS,A,3
2,prac,1,C,mfborder.png,0,m,Tue Nov 12 2024 14:44:06 GMT-0500 (Eastern Standard Time),336377.2999997139,CFD-WM-013-015-A.jpg,1700,solid,I,z,1487,6,1,13916.699999809265,322460.59999990463,9003,ATS,A,4
3,prac,1,C,haborder.png,1,m,Tue Nov 12 2024 14:44:06 GMT-0500 (Eastern Standard Time),339660.5,CFD-WM-004-005-HC.jpg,1000,dash,I,m,1484,11,1,17199.900000095367,322460.59999990463,9003,ATS,A,5
4,prac,1,C,mfborder.png,1,z,Tue Nov 12 2024 14:44:06 GMT-0500 (Eastern Standard Time),343077.2999997139,CFD-WF-017-016-HC.jpg,1600,dash,I,z,1007,1,1,20616.699999809265,322460.59999990463,9003,ATS,A,6
5,prac,1,C,haborder.png,1,m,Tue Nov 12 2024 14:44:06 GMT-0500 (Eastern Standard Time),346060.09999990463,CFD-WM-004-005-HC.jpg,1400,solid,I,m,783,12,1,23599.5,322460.59999990463,9003,ATS,A,7
6,prac,1,C,haborder.png,1,z,Tue Nov 12 2024 14:44:06 GMT-0500 (Eastern Standard Time),349443.90000009537,CFD-BF-039-039-A.jpg,1700,solid,I,z,891,8,1,26983.300000190735,322460.59999990463,9003,ATS,A,8
7,prac,1,C,mfborder.png,1,m,Tue Nov 12 2024 14:44:06 GMT-0500 (Eastern Standard Time),352644.0,CFD-BM-005-010-A.jpg,1200,dash,I,m,1192,5,1,30183.400000095367,322460.59999990463,9003,ATS,A,9
8,prac,1,C,mfborder.png,1,m,Tue Nov 12 2024 14:44:06 GMT-0500 (Eastern Standard Time),356893.7999997139,CFD-BM-017-052-HC.jpg,2000,solid,I,m,1448,4,1,34433.199999809265,322460.59999990463,9003,ATS,A,10
8,prac,1,C,haborder.png,0,z,Tue Nov 12 2024 14:44:06 GMT-0500 (Eastern Standard Time),360810.59999990463,CFD-WF-003-014-A.jpg,1600,dash,I,None,1516,9,1,38350.0,322460.59999990463,9003,ATS,A,11
8,prac,1,C,haborder.png,0,z,Tue Nov 12 2024 14:44:06 GMT-0500 (Eastern Standard Time),364943.90000009537,CFD-BF-023-013-A.jpg,1900,dash,I,m,1445,7,1,42483.300000190735,322460.59999990463,9003,ATS,A,12
1,test,1,C,mfborder.png,1,m,Tue Nov 12 2024 14:44:06 GMT-0500 (Eastern Standard Time),391694.09999990463,CFD-BM-029-026-HC.jpg,1200,dash,I,m,1233,6,1,2466.5999999046326,389227.5,9003,ATS,A,1
2,test,1,C,haborder.png,1,m,Tue Nov 12 2024 14:44:06 GMT-0500 (Eastern Standard Time),394693.69999980927,CFD-WF-002-008-HC.jpg,1500,solid,I,m,1474,11,1,5466.199999809265,389227.5,9003,ATS,A,2
3,test,1,C,haborder.png,1,m,Tue Nov 12 2024 14:44:06 GMT-0500 (Eastern Standard Time),396626.69999980927,CFD-WF-017-016-HC.jpg,1000,solid,I,m,910,12,1,7399.199999809265,389227.5,9003,ATS,A,3
4,test,1,C,mfborder.png,1,z,Tue Nov 12 2024 14:44:06 GMT-0500 (Eastern Standard Time),398943.5,CFD-BF-010-005-HC.jpg,1700,dash,I,z,597,1,1,9716.0,389227.5,9003,ATS,A,4
5,test,1,C,mfborder.png,1,m,Tue Nov 12 2024 14:44:06 GMT-0500 (Eastern Standard Time),401160.69999980927,CFD-BM-029-026-HC.jpg,1200,dash,I,m,989,6,1,11933.199999809265,389227.5,9003,ATS,A,5
6,test,1,C,haborder.png,1,z,Tue Nov 12 2024 14:44:06 GMT-0500 (Eastern Standard Time),403777.2999997139,CFD-BM-005-010-A.jpg,1900,solid,I,z,696,8,1,14549.799999713898,389227.5,9003,ATS,A,6
7,test,1,C,haborder.png,1,z,Tue Nov 12 2024 14:44:06 GMT-0500 (Eastern Standard Time),406493.59999990463,CFD-BM-010-019-A.jpg,1700,solid,I,z,984,9,1,17266.099999904633,389227.5,9003,ATS,A,7
8,test,1,C,haborder.png,1,z,Tue Nov 12 2024 14:44:06 GMT-0500 (Eastern Standard Time),409177.2999997139,CFD-BM-010-019-A.jpg,1700,solid,I,z,955,9,1,19949.799999713898,389227.5,9003,ATS,A,8
8,test,1,C,haborder.png,0,z,Tue Nov 12 2024 14:44:06 GMT-0500 (Eastern Standard Time),412110.69999980927,CFD-WM-013-015-A.jpg,1400,solid,I,None,1516,7,1,22883.199999809265,389227.5,9003,ATS,A,9
9,test,1,C,mfborder.png,1,z,Tue Nov 12 2024 14:44:06 GMT-0500 (Eastern Standard Time),414727.2999997139,CFD-BF-023-013-A.jpg,1600,dash,I,z,991,2,1,25499.799999713898,389227.5,9003,ATS,A,10
9,test,1,C,mfborder.png,0,z,Tue Nov 12 2024 14:44:06 GMT-0500 (Eastern Standard Time),417760.59999990463,CFD-WF-003-014-A.jpg,1500,dash,I,None,1515,3,1,28533.099999904633,389227.5,9003,ATS,A,11
10,test,1,C,haborder.png,1,m,Tue Nov 12 2024 14:44:06 GMT-0500 (Eastern Standard Time),420377.40000009537,CFD-WF-002-008-HC.jpg,1500,solid,I,m,1088,11,1,31149.900000095367,389227.5,9003,ATS,A,12
11,test,1,C,haborder.png,1,m,Tue Nov 12 2024 14:44:06 GMT-0500 (Eastern Standard Time),422710.59999990463,CFD-BF-028-020-HC.jpg,1600,solid,I,m,708,10,1,33483.09999990463,389227.5,9003,ATS,A,13
12,test,1,C,haborder.png,1,m,Tue Nov 12 2024 14:44:06 GMT-0500 (Eastern Standard Time),425143.90000009537,CFD-BF-028-020-HC.jpg,1600,solid,I,m,805,10,1,35916.40000009537,389227.5,9003,ATS,A,14
13,test,1,C,haborder.png,1,m,Tue Nov 12 2024 14:44:06 GMT-0500 (Eastern Standard Time),427027.40000009537,CFD-WF-017-016-HC.jpg,1000,solid,I,m,861,12,1,37799.90000009537,389227.5,9003,ATS,A,15
14,test,1,C,mfborder.png,1,z,Tue Nov 12 2024 14:44:06 GMT-0500 (Eastern Standard Time),429226.90000009537,CFD-BF-023-013-A.jpg,1600,dash,I,z,561,2,1,39999.40000009537,389227.5,9003,ATS,A,16
15,test,1,C,haborder.png,1,z,Tue Nov 12 2024 14:44:06 GMT-0500 (Eastern Standard Time),431660.69999980927,CFD-WM-013-015-A.jpg,1400,solid,I,z,1000,7,1,42433.199999809265,389227.5,9003,ATS,A,17
16,test,1,C,mfborder.png,1,z,Tue Nov 12 2024 14:44:06 GMT-0500 (Eastern Standard Time),434027.2999997139,CFD-BF-010-005-HC.jpg,1700,dash,I,z,637,1,1,44799.7999997139,389227.5,9003,ATS,A,18
17,test,1,C,mfborder.png,1,m,Tue Nov 12 2024 14:44:06 GMT-0500 (Eastern Standard Time),436027.2999997139,CFD-WM-006-013-HC.jpg,1000,dash,I,m,969,4,1,46799.7999997139,389227.5,9003,ATS,A,19
18,test,1,C,mfborder.png,1,m,Tue Nov 12 2024 14:44:06 GMT-0500 (Eastern Standard Time),438944.0,CFD-WM-019-013-A.jpg,2000,dash,I,m,897,5,1,49716.5,389227.5,9003,ATS,A,20
19,test,1,C,haborder.png,1,z,Tue Nov 12 2024 14:44:06 GMT-0500 (Eastern Standard Time),441710.5,CFD-BM-005-010-A.jpg,1900,solid,I,z,833,8,1,52483.0,389227.5,9003,ATS,A,21
20,test,1,C,mfborder.png,1,z,Tue Nov 12 2024 14:44:06 GMT-0500 (Eastern Standard Time),444344.0,CFD-WF-003-014-A.jpg,1500,dash,I,z,1106,3,1,55116.5,389227.5,9003,ATS,A,22
21,test,1,C,mfborder.png,1,m,Tue Nov 12 2024 14:44:06 GMT-0500 (Eastern Standard Time),446177.2999997139,CFD-WM-006-013-HC.jpg,1000,dash,I,m,813,4,1,56949.7999997139,389227.5,9003,ATS,A,23
22,test,1,C,mfborder.png,1,m,Tue Nov 12 2024 14:44:06 GMT-0500 (Eastern Standard Time),448960.5,CFD-WM-019-013-A.jpg,2000,dash,I,m,763,5,1,59733.0,389227.5,9003,ATS,A,24
1,test,2,C,mfborder.png,1,m,Tue Nov 12 2024 14:44:06 GMT-0500 (Eastern Standard Time),461477.5,CFD-BM-005-010-A.jpg,2000,dash,I,m,792,5,1,2817.4000000953674,458660.09999990463,9003,ATS,A,1
2,test,2,C,mfborder.png,1,m,Tue Nov 12 2024 14:44:06 GMT-0500 (Eastern Standard Time),463360.59999990463,CFD-WM-013-015-A.jpg,1200,dash,I,m,662,6,1,4700.5,458660.09999990463,9003,ATS,A,2
3,test,2,C,mfborder.png,1,z,Tue Nov 12 2024 14:44:06 GMT-0500 (Eastern Standard Time),465893.2999997139,CFD-BF-028-020-HC.jpg,1500,dash,I,z,1009,3,1,7233.199999809265,458660.09999990463,9003,ATS,A,3
4,test,2,C,haborder.png,1,m,Tue Nov 12 2024 14:44:06 GMT-0500 (Eastern Standard Time),467727.09999990463,CFD-WM-004-005-HC.jpg,1000,solid,I,m,814,12,1,9067.0,458660.09999990463,9003,ATS,A,4
5,test,2,C,haborder.png,1,z,Tue Nov 12 2024 14:44:06 GMT-0500 (Eastern Standard Time),470410.69999980927,CFD-BF-039-039-A.jpg,1900,solid,I,z,753,8,1,11750.599999904633,458660.09999990463,9003,ATS,A,5
5,test,2,C,haborder.png,0,z,Tue Nov 12 2024 14:44:06 GMT-0500 (Eastern Standard Time),473844.19999980927,CFD-BF-039-039-A.jpg,1900,solid,I,None,1516,8,1,15184.099999904633,458660.09999990463,9003,ATS,A,6
6,test,2,C,haborder.png,1,z,Tue Nov 12 2024 14:44:06 GMT-0500 (Eastern Standard Time),476477.5,CFD-BF-023-013-A.jpg,1400,solid,I,z,1201,7,1,17817.400000095367,458660.09999990463,9003,ATS,A,7
7,test,2,C,haborder.png,1,z,Tue Nov 12 2024 14:44:06 GMT-0500 (Eastern Standard Time),478894.0,CFD-WF-003-014-A.jpg,1700,solid,I,z,683,9,1,20233.900000095367,458660.09999990463,9003,ATS,A,8
8,test,2,C,mfborder.png,1,m,Tue Nov 12 2024 14:44:06 GMT-0500 (Eastern Standard Time),480877.2999997139,CFD-WM-013-015-A.jpg,1200,dash,I,m,766,6,1,22217.199999809265,458660.09999990463,9003,ATS,A,9
9,test,2,C,mfborder.png,1,m,Tue Nov 12 2024 14:44:06 GMT-0500 (Eastern Standard Time),482543.7999997139,CFD-BM-017-052-HC.jpg,1000,dash,I,m,647,4,1,23883.699999809265,458660.09999990463,9003,ATS,A,10
10,test,2,C,mfborder.png,1,z,Tue Nov 12 2024 14:44:06 GMT-0500 (Eastern Standard Time),484827.19999980927,CFD-WF-017-016-HC.jpg,1700,dash,I,z,553,1,1,26167.099999904633,458660.09999990463,9003,ATS,A,11
11,test,2,C,haborder.png,1,m,Tue Nov 12 2024 14:44:06 GMT-0500 (Eastern Standard Time),487360.69999980927,CFD-BM-029-026-HC.jpg,1600,solid,I,m,913,10,1,28700.599999904633,458660.09999990463,9003,ATS,A,12
12,test,2,C,haborder.png,1,z,Tue Nov 12 2024 14:44:06 GMT-0500 (Eastern Standard Time),489443.90000009537,CFD-BF-023-013-A.jpg,1400,solid,I,z,660,7,1,30783.800000190735,458660.09999990463,9003,ATS,A,13
13,test,2,C,haborder.png,1,z,Tue Nov 12 2024 14:44:06 GMT-0500 (Eastern Standard Time),491894.09999990463,CFD-WF-003-014-A.jpg,1700,solid,I,z,725,9,1,33234.0,458660.09999990463,9003,ATS,A,14
14,test,2,C,mfborder.png,1,z,Tue Nov 12 2024 14:44:06 GMT-0500 (Eastern Standard Time),494143.90000009537,CFD-WF-019-015-A.jpg,1600,dash,I,z,630,2,1,35483.800000190735,458660.09999990463,9003,ATS,A,15
15,test,2,C,mfborder.png,1,z,Tue Nov 12 2024 14:44:06 GMT-0500 (Eastern Standard Time),496344.0,CFD-WF-019-015-A.jpg,1600,dash,I,z,573,2,1,37683.90000009537,458660.09999990463,9003,ATS,A,16
16,test,2,C,mfborder.png,1,m,Tue Nov 12 2024 14:44:06 GMT-0500 (Eastern Standard Time),498476.90000009537,CFD-BM-017-052-HC.jpg,1000,dash,I,m,1100,4,1,39816.800000190735,458660.09999990463,9003,ATS,A,17
17,test,2,C,haborder.png,1,m,Tue Nov 12 2024 14:44:06 GMT-0500 (Eastern Standard Time),500844.19999980927,CFD-WM-004-005-HC.jpg,1500,solid,I,m,836,11,1,42184.09999990463,458660.09999990463,9003,ATS,A,18
17,test,2,C,mfborder.png,0,m,Tue Nov 12 2024 14:44:06 GMT-0500 (Eastern Standard Time),504310.69999980927,CFD-BM-005-010-A.jpg,2000,dash,I,z,1440,5,1,45650.59999990463,458660.09999990463,9003,ATS,A,19
18,test,2,C,haborder.png,1,m,Tue Nov 12 2024 14:44:06 GMT-0500 (Eastern Standard Time),506877.19999980927,CFD-BM-029-026-HC.jpg,1600,solid,I,m,933,10,1,48217.09999990463,458660.09999990463,9003,ATS,A,20
19,test,2,C,haborder.png,1,m,Tue Nov 12 2024 14:44:06 GMT-0500 (Eastern Standard Time),509110.59999990463,CFD-WM-004-005-HC.jpg,1500,solid,I,m,708,11,1,50450.5,458660.09999990463,9003,ATS,A,21
20,test,2,C,mfborder.png,1,z,Tue Nov 12 2024 14:44:06 GMT-0500 (Eastern Standard Time),511760.69999980927,CFD-WF-017-016-HC.jpg,1700,dash,I,z,930,1,1,53100.59999990463,458660.09999990463,9003,ATS,A,22
21,test,2,C,mfborder.png,1,z,Tue Nov 12 2024 14:44:06 GMT-0500 (Eastern Standard Time),513877.40000009537,CFD-BF-028-020-HC.jpg,1500,dash,I,z,592,3,1,55217.300000190735,458660.09999990463,9003,ATS,A,23
22,test,2,C,haborder.png,1,m,Tue Nov 12 2024 14:44:06 GMT-0500 (Eastern Standard Time),515627.5,CFD-WM-004-005-HC.jpg,1000,solid,I,m,719,12,1,56967.40000009537,458660.09999990463,9003,ATS,A,24
1,test,3,C,mfborder.png,1,m,Tue Nov 12 2024 14:44:06 GMT-0500 (Eastern Standard Time),525827.1999998093,CFD-WM-019-013-A.jpg,2000,dash,I,m,943,5,1,2966.4000000953674,522860.7999997139,9003,ATS,A,1
2,test,3,C,haborder.png,1,z,Tue Nov 12 2024 14:44:06 GMT-0500 (Eastern Standard Time),528510.5999999046,CFD-BM-005-010-A.jpg,1900,solid,I,z,765,8,1,5649.800000190735,522860.7999997139,9003,ATS,A,2
3,test,3,C,mfborder.png,1,z,Tue Nov 12 2024 14:44:06 GMT-0500 (Eastern Standard Time),530627.2999997139,CFD-WF-003-014-A.jpg,1500,dash,I,z,594,3,1,7766.5,522860.7999997139,9003,ATS,A,3
4,test,3,C,haborder.png,1,z,Tue Nov 12 2024 14:44:06 GMT-0500 (Eastern Standard Time),533027.4000000954,CFD-WM-013-015-A.jpg,1400,solid,I,z,977,7,1,10166.60000038147,522860.7999997139,9003,ATS,A,4
4,test,3,C,haborder.png,0,m,Tue Nov 12 2024 14:44:06 GMT-0500 (Eastern Standard Time),536010.7999997139,CFD-BF-028-020-HC.jpg,1600,solid,I,z,1354,10,1,13150.0,522860.7999997139,9003,ATS,A,5
5,test,3,C,haborder.png,1,m,Tue Nov 12 2024 14:44:06 GMT-0500 (Eastern Standard Time),538210.6999998093,CFD-WF-002-008-HC.jpg,1500,solid,I,m,679,11,1,15349.900000095367,522860.7999997139,9003,ATS,A,6
6,test,3,C,mfborder.png,1,m,Tue Nov 12 2024 14:44:06 GMT-0500 (Eastern Standard Time),540744.0,CFD-BM-029-026-HC.jpg,1200,dash,I,m,1306,6,1,17883.200000286102,522860.7999997139,9003,ATS,A,7
7,test,3,C,mfborder.png,1,z,Tue Nov 12 2024 14:44:06 GMT-0500 (Eastern Standard Time),543277.5999999046,CFD-BF-010-005-HC.jpg,1700,dash,I,z,800,1,1,20416.800000190735,522860.7999997139,9003,ATS,A,8
8,test,3,C,haborder.png,1,z,Tue Nov 12 2024 14:44:06 GMT-0500 (Eastern Standard Time),545960.7999997139,CFD-BM-005-010-A.jpg,1900,solid,I,z,755,8,1,23100.0,522860.7999997139,9003,ATS,A,9
9,test,3,C,mfborder.png,1,z,Tue Nov 12 2024 14:44:06 GMT-0500 (Eastern Standard Time),548677.5,CFD-BF-010-005-HC.jpg,1700,dash,I,z,992,1,1,25816.700000286102,522860.7999997139,9003,ATS,A,10
10,test,3,C,haborder.png,1,m,Tue Nov 12 2024 14:44:06 GMT-0500 (Eastern Standard Time),550710.6999998093,CFD-WF-017-016-HC.jpg,1000,solid,I,m,1007,12,1,27849.900000095367,522860.7999997139,9003,ATS,A,11
11,test,3,C,mfborder.png,1,m,Tue Nov 12 2024 14:44:06 GMT-0500 (Eastern Standard Time),553010.6999998093,CFD-WM-006-013-HC.jpg,1000,dash,I,m,1278,4,1,30149.900000095367,522860.7999997139,9003,ATS,A,12
12,test,3,C,mfborder.png,1,z,Tue Nov 12 2024 14:44:06 GMT-0500 (Eastern Standard Time),555293.6999998093,CFD-BF-023-013-A.jpg,1600,dash,I,z,650,2,1,32432.900000095367,522860.7999997139,9003,ATS,A,13
13,test,3,C,haborder.png,1,m,Tue Nov 12 2024 14:44:06 GMT-0500 (Eastern Standard Time),557077.5,CFD-WF-017-016-HC.jpg,1000,solid,I,m,759,12,1,34216.7000002861,522860.7999997139,9003,ATS,A,14
14,test,3,C,mfborder.png,1,m,Tue Nov 12 2024 14:44:06 GMT-0500 (Eastern Standard Time),559010.9000000954,CFD-BM-029-026-HC.jpg,1200,dash,I,m,711,6,1,36150.10000038147,522860.7999997139,9003,ATS,A,15
15,test,3,C,haborder.png,1,z,Tue Nov 12 2024 14:44:06 GMT-0500 (Eastern Standard Time),561627.5,CFD-BM-010-019-A.jpg,1700,solid,I,z,886,9,1,38766.7000002861,522860.7999997139,9003,ATS,A,16
16,test,3,C,mfborder.png,1,m,Tue Nov 12 2024 14:44:06 GMT-0500 (Eastern Standard Time),563760.9000000954,CFD-WM-006-013-HC.jpg,1000,dash,I,m,1113,4,1,40900.10000038147,522860.7999997139,9003,ATS,A,17
17,test,3,C,haborder.png,1,z,Tue Nov 12 2024 14:44:06 GMT-0500 (Eastern Standard Time),566143.5999999046,CFD-WM-013-015-A.jpg,1400,solid,I,z,963,7,1,43282.800000190735,522860.7999997139,9003,ATS,A,18
18,test,3,C,mfborder.png,1,m,Tue Nov 12 2024 14:44:06 GMT-0500 (Eastern Standard Time),568794.1999998093,CFD-WM-019-013-A.jpg,2000,dash,I,m,621,5,1,45933.40000009537,522860.7999997139,9003,ATS,A,19
19,test,3,C,mfborder.png,1,z,Tue Nov 12 2024 14:44:06 GMT-0500 (Eastern Standard Time),571027.4000000954,CFD-BF-023-013-A.jpg,1600,dash,I,z,611,2,1,48166.60000038147,522860.7999997139,9003,ATS,A,20
20,test,3,C,haborder.png,1,z,Tue Nov 12 2024 14:44:06 GMT-0500 (Eastern Standard Time),573694.0999999046,CFD-BM-010-019-A.jpg,1700,solid,I,z,933,9,1,50833.300000190735,522860.7999997139,9003,ATS,A,21
21,test,3,C,haborder.png,1,m,Tue Nov 12 2024 14:44:06 GMT-0500 (Eastern Standard Time),575894.0,CFD-WF-002-008-HC.jpg,1500,solid,I,m,675,11,1,53033.2000002861,522860.7999997139,9003,ATS,A,22
22,test,3,C,haborder.png,1,m,Tue Nov 12 2024 14:44:06 GMT-0500 (Eastern Standard Time),578294.1999998093,CFD-BF-028-020-HC.jpg,1600,solid,I,m,775,10,1,55433.40000009537,522860.7999997139,9003,ATS,A,23
23,test,3,C,mfborder.png,1,z,Tue Nov 12 2024 14:44:06 GMT-0500 (Eastern Standard Time),580977.0999999046,CFD-WF-003-014-A.jpg,1500,dash,I,z,1162,3,1,58116.300000190735,522860.7999997139,9003,ATS,A,24
0,test,4,C,haborder.png,0,z,Tue Nov 12 2024 14:44:06 GMT-0500 (Eastern Standard Time),587194.4000000954,CFD-BF-023-013-A.jpg,1400,solid,I,None,1516,7,1,2933.9000000953674,584260.5,9003,ATS,A,1
1,test,4,C,mfborder.png,1,m,Tue Nov 12 2024 14:44:06 GMT-0500 (Eastern Standard Time),589277.7999997139,CFD-BM-017-052-HC.jpg,1000,dash,I,m,1050,4,1,5017.299999713898,584260.5,9003,ATS,A,2
2,test,4,C,haborder.png,1,m,Tue Nov 12 2024 14:44:06 GMT-0500 (Eastern Standard Time),591010.5,CFD-WM-004-005-HC.jpg,1000,solid,I,m,710,12,1,6750.0,584260.5,9003,ATS,A,3
3,test,4,C,haborder.png,1,m,Tue Nov 12 2024 14:44:06 GMT-0500 (Eastern Standard Time),593210.6999998093,CFD-WM-004-005-HC.jpg,1000,solid,I,m,1171,12,1,8950.199999809265,584260.5,9003,ATS,A,4
4,test,4,C,mfborder.png,1,z,Tue Nov 12 2024 14:44:06 GMT-0500 (Eastern Standard Time),595310.9000000954,CFD-BF-028-020-HC.jpg,1500,dash,I,z,583,3,1,11050.400000095367,584260.5,9003,ATS,A,5
5,test,4,C,mfborder.png,1,m,Tue Nov 12 2024 14:44:06 GMT-0500 (Eastern Standard Time),597244.2999997139,CFD-BM-017-052-HC.jpg,1000,dash,I,m,902,4,1,12983.799999713898,584260.5,9003,ATS,A,6
6,test,4,C,mfborder.png,1,m,Tue Nov 12 2024 14:44:06 GMT-0500 (Eastern Standard Time),600044.0999999046,CFD-BM-005-010-A.jpg,2000,dash,I,m,768,5,1,15783.599999904633,584260.5,9003,ATS,A,7
7,test,4,C,mfborder.png,1,m,Tue Nov 12 2024 14:44:06 GMT-0500 (Eastern Standard Time),601977.2999997139,CFD-WM-013-015-A.jpg,1200,dash,I,m,704,6,1,17716.799999713898,584260.5,9003,ATS,A,8
8,test,4,C,mfborder.png,1,z,Tue Nov 12 2024 14:44:06 GMT-0500 (Eastern Standard Time),604611.2999997139,CFD-WF-017-016-HC.jpg,1700,dash,I,z,910,1,1,20350.799999713898,584260.5,9003,ATS,A,9
9,test,4,C,mfborder.png,1,z,Tue Nov 12 2024 14:44:06 GMT-0500 (Eastern Standard Time),607344.1999998093,CFD-WF-019-015-A.jpg,1600,dash,I,z,1114,2,1,23083.699999809265,584260.5,9003,ATS,A,10
10,test,4,C,haborder.png,1,z,Tue Nov 12 2024 14:44:06 GMT-0500 (Eastern Standard Time),609860.9000000954,CFD-BF-039-039-A.jpg,1900,solid,I,z,592,8,1,25600.400000095367,584260.5,9003,ATS,A,11
11,test,4,C,mfborder.png,1,z,Tue Nov 12 2024 14:44:06 GMT-0500 (Eastern Standard Time),612243.9000000954,CFD-BF-028-020-HC.jpg,1500,dash,I,z,860,3,1,27983.400000095367,584260.5,9003,ATS,A,12
12,test,4,C,mfborder.png,1,m,Tue Nov 12 2024 14:44:06 GMT-0500 (Eastern Standard Time),614210.5,CFD-WM-013-015-A.jpg,1200,dash,I,m,745,6,1,29950.0,584260.5,9003,ATS,A,13
13,test,4,C,haborder.png,1,m,Tue Nov 12 2024 14:44:06 GMT-0500 (Eastern Standard Time),616761.0999999046,CFD-BM-029-026-HC.jpg,1600,solid,I,m,922,10,1,32500.599999904633,584260.5,9003,ATS,A,14
14,test,4,C,haborder.png,1,m,Tue Nov 12 2024 14:44:06 GMT-0500 (Eastern Standard Time),618893.7999997139,CFD-WM-004-005-HC.jpg,1500,solid,I,m,600,11,1,34633.2999997139,584260.5,9003,ATS,A,15
15,test,4,C,mfborder.png,1,z,Tue Nov 12 2024 14:44:06 GMT-0500 (Eastern Standard Time),621294.0999999046,CFD-WF-017-016-HC.jpg,1700,dash,I,z,667,1,1,37033.59999990463,584260.5,9003,ATS,A,16
16,test,4,C,haborder.png,1,m,Tue Nov 12 2024 14:44:06 GMT-0500 (Eastern Standard Time),623344.0999999046,CFD-WM-004-005-HC.jpg,1500,solid,I,m,531,11,1,39083.59999990463,584260.5,9003,ATS,A,17
17,test,4,C,haborder.png,1,z,Tue Nov 12 2024 14:44:06 GMT-0500 (Eastern Standard Time),625444.0,CFD-BF-023-013-A.jpg,1400,solid,I,z,676,7,1,41183.5,584260.5,9003,ATS,A,18
18,test,4,C,haborder.png,1,m,Tue Nov 12 2024 14:44:06 GMT-0500 (Eastern Standard Time),627693.7999997139,CFD-BM-029-026-HC.jpg,1600,solid,I,m,633,10,1,43433.2999997139,584260.5,9003,ATS,A,19
19,test,4,C,haborder.png,1,z,Tue Nov 12 2024 14:44:06 GMT-0500 (Eastern Standard Time),630344.0999999046,CFD-BF-039-039-A.jpg,1900,solid,I,z,723,8,1,46083.59999990463,584260.5,9003,ATS,A,20
19,test,4,C,haborder.png,0,z,Tue Nov 12 2024 14:44:06 GMT-0500 (Eastern Standard Time),632811.0,CFD-WF-003-014-A.jpg,1700,solid,I,m,737,9,1,48550.5,584260.5,9003,ATS,A,21
20,test,4,C,mfborder.png,1,z,Tue Nov 12 2024 14:44:06 GMT-0500 (Eastern Standard Time),635110.9000000954,CFD-WF-019-015-A.jpg,1600,dash,I,z,674,2,1,50850.40000009537,584260.5,9003,ATS,A,22
21,test,4,C,haborder.png,1,z,Tue Nov 12 2024 14:44:06 GMT-0500 (Eastern Standard Time),637677.5999999046,CFD-WF-003-014-A.jpg,1700,solid,I,z,834,9,1,53417.09999990463,584260.5,9003,ATS,A,23
22,test,4,C,mfborder.png,1,m,Tue Nov 12 2024 14:44:06 GMT-0500 (Eastern Standard Time),640327.5999999046,CFD-BM-005-010-A.jpg,2000,dash,I,m,623,5,1,56067.09999990463,584260.5,9003,ATS,A,24
