block_c,block_dur,condition,countdown,datetime,endtime,list,multichar_response,project,response,response_time,session_number,start_end,starttime,subject_id,task,task_vers,trial
,,,,Mon Oct 28 2024 16:12:54 GMT-0500 (Central Daylight Time),,,,O,space,2139,1,,,7028,WL,B,
prac,,0,,Mon Oct 28 2024 16:12:54 GMT-0500 (Central Daylight Time),,NA,b,O,b,5980,1,,,7028,WL,B,1.0
prac,,0,,Mon Oct 28 2024 16:12:54 GMT-0500 (Central Daylight Time),,NA,bo,O,o,1048,1,,,7028,WL,B,1.0
prac,,0,,Mon Oct 28 2024 16:12:54 GMT-0500 (Central Daylight Time),,NA,boo,O,o,135,1,,,7028,WL,B,1.0
prac,,0,,Mon Oct 28 2024 16:12:54 GMT-0500 (Central Daylight Time),,NA,boos,O,s,161,1,,,7028,WL,B,1.0
prac,,0,,Mon Oct 28 2024 16:12:54 GMT-0500 (Central Daylight Time),,NA,boost,O,t,211,1,,,7028,WL,B,1.0
prac,,0,,Mon Oct 28 2024 16:12:54 GMT-0500 (Central Daylight Time),,NA,boostenter,O,enter,408,1,,,7028,WL,B,1.0
1,1.5329999923706055,learn,58467.000007629395,Mon Oct 28 2024 16:12:54 GMT-0500 (Central Daylight Time),163031.7999999998,A,c,O,c,1522,1,1533.0,161498.7999999998,7028,WL,B,1.0
1,1.7679998874664307,learn,58232.00011253357,Mon Oct 28 2024 16:12:54 GMT-0500 (Central Daylight Time),163266.7999999998,A,ca,O,a,211,1,1768.0,161498.7999999998,7028,WL,B,1.0
1,2.615999937057495,learn,57384.000062942505,Mon Oct 28 2024 16:12:54 GMT-0500 (Central Daylight Time),164114.5,A,cab,O,b,842,1,2615.7000000001863,161498.7999999998,7028,WL,B,1.0
1,2.7829999923706055,learn,57217.000007629395,Mon Oct 28 2024 16:12:54 GMT-0500 (Central Daylight Time),164281.2999999998,A,cabi,O,i,146,1,2782.5,161498.7999999998,7028,WL,B,1.0
1,2.9659998416900635,learn,57034.00015830994,Mon Oct 28 2024 16:12:54 GMT-0500 (Central Daylight Time),164464.5,A,cabin,O,n,164,1,2965.7000000001863,161498.7999999998,7028,WL,B,1.0
1,3.365999937057495,learn,56634.000062942505,Mon Oct 28 2024 16:12:54 GMT-0500 (Central Daylight Time),164864.2999999998,A,cabinenter,O,enter,389,1,3365.5,161498.7999999998,7028,WL,B,1.0
1,3.9489998817443848,learn,56051.000118255615,Mon Oct 28 2024 16:12:54 GMT-0500 (Central Daylight Time),165447.60000000056,A,l,O,l,572,1,582.6000000005588,164865.0,7028,WL,B,2.0
1,4.181999921798706,learn,55818.000078201294,Mon Oct 28 2024 16:12:54 GMT-0500 (Central Daylight Time),165680.7999999998,A,la,O,a,221,1,815.7999999998137,164865.0,7028,WL,B,2.0
1,4.315000057220459,learn,55684.99994277954,Mon Oct 28 2024 16:12:54 GMT-0500 (Central Daylight Time),165814.0,A,lak,O,k,116,1,949.0,164865.0,7028,WL,B,2.0
1,4.431999921798706,learn,55568.000078201294,Mon Oct 28 2024 16:12:54 GMT-0500 (Central Daylight Time),165930.40000000037,A,lake,O,e,111,1,1065.4000000003725,164865.0,7028,WL,B,2.0
1,4.73199987411499,learn,55268.00012588501,Mon Oct 28 2024 16:12:54 GMT-0500 (Central Daylight Time),166230.60000000056,A,lakeenter,O,enter,282,1,1365.6000000005588,164865.0,7028,WL,B,2.0
1,5.631999969482422,learn,54368.00003051758,Mon Oct 28 2024 16:12:54 GMT-0500 (Central Daylight Time),167130.40000000037,A,f,O,f,886,1,899.1000000005588,166231.2999999998,7028,WL,B,3.0
1,5.730999946594238,learn,54269.00005340576,Mon Oct 28 2024 16:12:54 GMT-0500 (Central Daylight Time),167230.2999999998,A,fi,O,i,82,1,999.0,166231.2999999998,7028,WL,B,3.0
1,5.997999906539917,learn,54002.00009346008,Mon Oct 28 2024 16:12:54 GMT-0500 (Central Daylight Time),167497.0,A,fir,O,r,247,1,1265.7000000001863,166231.2999999998,7028,WL,B,3.0
1,6.164999961853027,learn,53835.00003814697,Mon Oct 28 2024 16:12:54 GMT-0500 (Central Daylight Time),167663.5,A,fire,O,e,148,1,1432.2000000001863,166231.2999999998,7028,WL,B,3.0
1,6.381999969482422,learn,53618.00003051758,Mon Oct 28 2024 16:12:54 GMT-0500 (Central Daylight Time),167881.2999999998,A,fireenter,O,enter,205,1,1650.0,166231.2999999998,7028,WL,B,3.0
1,6.98199987411499,learn,53018.00012588501,Mon Oct 28 2024 16:12:54 GMT-0500 (Central Daylight Time),168481.10000000056,A,s,O,s,588,1,599.5,167881.60000000056,7028,WL,B,4.0
1,7.0980000495910645,learn,52901.999950408936,Mon Oct 28 2024 16:12:54 GMT-0500 (Central Daylight Time),168596.5,A,sk,O,k,100,1,714.8999999994412,167881.60000000056,7028,WL,B,4.0
1,7.2809998989105225,learn,52719.00010108948,Mon Oct 28 2024 16:12:54 GMT-0500 (Central Daylight Time),168779.7999999998,A,ski,O,i,169,1,898.1999999992549,167881.60000000056,7028,WL,B,4.0
1,7.480999946594238,learn,52519.00005340576,Mon Oct 28 2024 16:12:54 GMT-0500 (Central Daylight Time),168979.90000000037,A,skin,O,n,186,1,1098.2999999998137,167881.60000000056,7028,WL,B,4.0
1,7.813999891281128,learn,52186.00010871887,Mon Oct 28 2024 16:12:54 GMT-0500 (Central Daylight Time),169313.10000000056,A,skinenter,O,enter,320,1,1431.5,167881.60000000056,7028,WL,B,4.0
1,8.348999977111816,learn,51651.00002288818,Mon Oct 28 2024 16:12:54 GMT-0500 (Central Daylight Time),169847.2999999998,A,p,O,p,515,1,533.5999999996275,169313.7000000002,7028,WL,B,5.0
1,8.664000034332275,learn,51335.999965667725,Mon Oct 28 2024 16:12:54 GMT-0500 (Central Daylight Time),170162.7999999998,A,pu,O,u,302,1,849.0999999996275,169313.7000000002,7028,WL,B,5.0
1,8.914000034332275,learn,51085.999965667725,Mon Oct 28 2024 16:12:54 GMT-0500 (Central Daylight Time),170412.60000000056,A,pup,O,p,235,1,1098.9000000003725,169313.7000000002,7028,WL,B,5.0
1,9.19700002670288,learn,50802.99997329712,Mon Oct 28 2024 16:12:54 GMT-0500 (Central Daylight Time),170695.7999999998,A,pupi,O,i,272,1,1382.0999999996275,169313.7000000002,7028,WL,B,5.0
1,9.596999883651733,learn,50403.00011634827,Mon Oct 28 2024 16:12:54 GMT-0500 (Central Daylight Time),171095.90000000037,A,pupil,O,l,381,1,1782.2000000001863,169313.7000000002,7028,WL,B,5.0
1,10.19700002670288,learn,49802.99997329712,Mon Oct 28 2024 16:12:54 GMT-0500 (Central Daylight Time),171695.60000000056,A,pupilenter,O,enter,581,1,2381.9000000003725,169313.7000000002,7028,WL,B,5.0
1,12.19599986076355,learn,47804.00013923645,Mon Oct 28 2024 16:12:54 GMT-0500 (Central Daylight Time),173694.7999999998,A,w,O,w,1990,1,1998.8999999994412,171695.90000000037,7028,WL,B,6.0
1,12.36299991607666,learn,47637.00008392334,Mon Oct 28 2024 16:12:54 GMT-0500 (Central Daylight Time),173861.7000000002,A,wi,O,i,150,1,2165.7999999998137,171695.90000000037,7028,WL,B,6.0
1,12.513000011444092,learn,47486.99998855591,Mon Oct 28 2024 16:12:54 GMT-0500 (Central Daylight Time),174011.60000000056,A,wif,O,f,144,1,2315.7000000001863,171695.90000000037,7028,WL,B,6.0
1,12.69599986076355,learn,47304.00013923645,Mon Oct 28 2024 16:12:54 GMT-0500 (Central Daylight Time),174194.5,A,wife,O,e,177,1,2498.5999999996275,171695.90000000037,7028,WL,B,6.0
1,12.963000059127808,learn,47036.99994087219,Mon Oct 28 2024 16:12:54 GMT-0500 (Central Daylight Time),174461.40000000037,A,wifeenter,O,enter,250,1,2765.5,171695.90000000037,7028,WL,B,6.0
1,13.645999908447266,learn,46354.000091552734,Mon Oct 28 2024 16:12:54 GMT-0500 (Central Daylight Time),175144.5,A,s,O,s,672,1,682.7000000001863,174461.7999999998,7028,WL,B,7.0
1,13.879999876022339,learn,46120.00012397766,Mon Oct 28 2024 16:12:54 GMT-0500 (Central Daylight Time),175378.7999999998,A,st,O,t,220,1,917.0,174461.7999999998,7028,WL,B,7.0
1,14.17199993133545,learn,45828.00006866455,Mon Oct 28 2024 16:12:54 GMT-0500 (Central Daylight Time),175670.40000000037,A,str,O,r,285,1,1208.6000000005588,174461.7999999998,7028,WL,B,7.0
1,14.478999853134155,learn,45521.000146865845,Mon Oct 28 2024 16:12:54 GMT-0500 (Central Daylight Time),175977.60000000056,A,stre,O,e,295,1,1515.800000000745,174461.7999999998,7028,WL,B,7.0
1,14.644999980926514,learn,45355.000019073486,Mon Oct 28 2024 16:12:54 GMT-0500 (Central Daylight Time),176144.10000000056,A,stree,O,e,148,1,1682.300000000745,174461.7999999998,7028,WL,B,7.0
1,14.812000036239624,learn,45187.999963760376,Mon Oct 28 2024 16:12:54 GMT-0500 (Central Daylight Time),176310.40000000037,A,street,O,t,148,1,1848.6000000005588,174461.7999999998,7028,WL,B,7.0
1,15.111999988555908,learn,44888.00001144409,Mon Oct 28 2024 16:12:54 GMT-0500 (Central Daylight Time),176610.60000000056,A,streetenter,O,enter,295,1,2148.800000000745,174461.7999999998,7028,WL,B,7.0
1,15.611999988555908,learn,44388.00001144409,Mon Oct 28 2024 16:12:54 GMT-0500 (Central Daylight Time),177110.5,A,s,O,s,491,1,499.70000000018626,176610.7999999998,7028,WL,B,8.0
1,15.779000043869019,learn,44220.99995613098,Mon Oct 28 2024 16:12:54 GMT-0500 (Central Daylight Time),177277.2999999998,A,st,O,t,159,1,666.5,176610.7999999998,7028,WL,B,8.0
1,16.09500002861023,learn,43904.99997138977,Mon Oct 28 2024 16:12:54 GMT-0500 (Central Daylight Time),177593.7999999998,A,sta,O,a,312,1,983.0,176610.7999999998,7028,WL,B,8.0
1,16.194999933242798,learn,43805.0000667572,Mon Oct 28 2024 16:12:54 GMT-0500 (Central Daylight Time),177693.60000000056,A,star,O,r,91,1,1082.800000000745,176610.7999999998,7028,WL,B,8.0
1,16.661999940872192,learn,43338.00005912781,Mon Oct 28 2024 16:12:54 GMT-0500 (Central Daylight Time),178160.40000000037,A,starenter,O,enter,447,1,1549.6000000005588,176610.7999999998,7028,WL,B,8.0
1,17.444000005722046,learn,42555.999994277954,Mon Oct 28 2024 16:12:54 GMT-0500 (Central Daylight Time),178943.2999999998,A,a,O,a,773,1,782.5,178160.7999999998,7028,WL,B,9.0
1,17.64400005340576,learn,42355.99994659424,Mon Oct 28 2024 16:12:54 GMT-0500 (Central Daylight Time),179143.2000000002,A,ar,O,r,182,1,982.4000000003725,178160.7999999998,7028,WL,B,9.0
1,17.960999965667725,learn,42039.000034332275,Mon Oct 28 2024 16:12:54 GMT-0500 (Central Daylight Time),179459.2999999998,A,arm,O,m,309,1,1298.5,178160.7999999998,7028,WL,B,9.0
1,20.258999824523926,learn,39741.000175476074,Mon Oct 28 2024 16:12:54 GMT-0500 (Central Daylight Time),181759.0,A,armenter,O,enter,2289,1,3598.2000000001863,178160.7999999998,7028,WL,B,9.0
1,21.342000007629395,learn,38657.999992370605,Mon Oct 28 2024 16:12:54 GMT-0500 (Central Daylight Time),182842.2999999998,A,w,O,w,1071,1,1082.8999999994412,181759.40000000037,7028,WL,B,10.0
1,21.441999912261963,learn,38558.00008773804,Mon Oct 28 2024 16:12:54 GMT-0500 (Central Daylight Time),182941.90000000037,A,wi,O,i,83,1,1182.5,181759.40000000037,7028,WL,B,10.0
1,21.592000007629395,learn,38407.999992370605,Mon Oct 28 2024 16:12:54 GMT-0500 (Central Daylight Time),183091.7000000002,A,win,O,n,144,1,1332.2999999998137,181759.40000000037,7028,WL,B,10.0
1,21.80900001525879,learn,38190.99998474121,Mon Oct 28 2024 16:12:54 GMT-0500 (Central Daylight Time),183308.7000000002,A,wind,O,d,202,1,1549.2999999998137,181759.40000000037,7028,WL,B,10.0
1,21.991999864578247,learn,38008.00013542175,Mon Oct 28 2024 16:12:54 GMT-0500 (Central Daylight Time),183492.2000000002,A,windo,O,o,169,1,1732.7999999998137,181759.40000000037,7028,WL,B,10.0
1,22.407999992370605,learn,37592.000007629395,Mon Oct 28 2024 16:12:54 GMT-0500 (Central Daylight Time),183908.2999999998,A,window,O,w,401,1,2148.899999999441,181759.40000000037,7028,WL,B,10.0
1,23.04200005531311,learn,36957.99994468689,Mon Oct 28 2024 16:12:54 GMT-0500 (Central Daylight Time),184541.5,A,windowenter,O,enter,625,1,2782.0999999996275,181759.40000000037,7028,WL,B,10.0
1,24.10800004005432,learn,35891.99995994568,Mon Oct 28 2024 16:12:54 GMT-0500 (Central Daylight Time),185607.7999999998,A,g,O,g,1056,1,1065.8999999994412,184541.90000000037,7028,WL,B,11.0
1,24.35800004005432,learn,35641.99995994568,Mon Oct 28 2024 16:12:54 GMT-0500 (Central Daylight Time),185858.0,A,gr,O,r,230,1,1316.0999999996275,184541.90000000037,7028,WL,B,11.0
1,24.507999897003174,learn,35492.000102996826,Mon Oct 28 2024 16:12:54 GMT-0500 (Central Daylight Time),186007.60000000056,A,gra,O,a,131,1,1465.7000000001863,184541.90000000037,7028,WL,B,11.0
1,24.840999841690063,learn,35159.00015830994,Mon Oct 28 2024 16:12:54 GMT-0500 (Central Daylight Time),186340.7999999998,A,gras,O,s,326,1,1798.8999999994412,184541.90000000037,7028,WL,B,11.0
1,24.990999937057495,learn,35009.000062942505,Mon Oct 28 2024 16:12:54 GMT-0500 (Central Daylight Time),186490.7000000002,A,grass,O,s,136,1,1948.7999999998137,184541.90000000037,7028,WL,B,11.0
1,25.29099988937378,learn,34709.00011062622,Mon Oct 28 2024 16:12:54 GMT-0500 (Central Daylight Time),186791.10000000056,A,grassenter,O,enter,283,1,2249.2000000001863,184541.90000000037,7028,WL,B,11.0
1,25.889999866485596,learn,34110.000133514404,Mon Oct 28 2024 16:12:54 GMT-0500 (Central Daylight Time),187390.2000000002,A,s,O,s,582,1,598.7000000001863,186791.5,7028,WL,B,12.0
1,26.141000032424927,learn,33858.99996757507,Mon Oct 28 2024 16:12:54 GMT-0500 (Central Daylight Time),187640.5,A,st,O,t,239,1,849.0,186791.5,7028,WL,B,12.0
1,26.37399983406067,learn,33626.00016593933,Mon Oct 28 2024 16:12:54 GMT-0500 (Central Daylight Time),187873.7000000002,A,str,O,r,228,1,1082.2000000001863,186791.5,7028,WL,B,12.0
1,26.707000017166138,learn,33292.99998283386,Mon Oct 28 2024 16:12:54 GMT-0500 (Central Daylight Time),188206.90000000037,A,stre,O,e,323,1,1415.4000000003725,186791.5,7028,WL,B,12.0
1,26.889999866485596,learn,33110.000133514404,Mon Oct 28 2024 16:12:54 GMT-0500 (Central Daylight Time),188390.2999999998,A,stree,O,e,167,1,1598.7999999998137,186791.5,7028,WL,B,12.0
1,27.039999961853027,learn,32960.00003814697,Mon Oct 28 2024 16:12:54 GMT-0500 (Central Daylight Time),188540.10000000056,A,street,O,t,135,1,1748.6000000005588,186791.5,7028,WL,B,12.0
1,28.539999961853027,learn,31460.000038146973,Mon Oct 28 2024 16:12:54 GMT-0500 (Central Daylight Time),190039.7000000002,A,streetenter,O,enter,1489,1,3248.2000000001863,186791.5,7028,WL,B,12.0
1,29.52300000190735,learn,30476.99999809265,Mon Oct 28 2024 16:12:54 GMT-0500 (Central Daylight Time),191022.90000000037,A,d,O,d,966,1,983.0,190039.90000000037,7028,WL,B,13.0
1,29.805999994277954,learn,30194.000005722046,Mon Oct 28 2024 16:12:54 GMT-0500 (Central Daylight Time),191306.0,A,do,O,o,278,1,1266.0999999996275,190039.90000000037,7028,WL,B,13.0
1,29.955999851226807,learn,30044.000148773193,Mon Oct 28 2024 16:12:54 GMT-0500 (Central Daylight Time),191455.90000000037,A,doo,O,o,131,1,1416.0,190039.90000000037,7028,WL,B,13.0
1,30.10599994659424,learn,29894.00005340576,Mon Oct 28 2024 16:12:54 GMT-0500 (Central Daylight Time),191606.0,A,door,O,r,141,1,1566.0999999996275,190039.90000000037,7028,WL,B,13.0
1,30.688999891281128,learn,29311.000108718872,Mon Oct 28 2024 16:12:54 GMT-0500 (Central Daylight Time),192189.2000000002,A,doorenter,O,enter,576,1,2149.2999999998137,190039.90000000037,7028,WL,B,13.0
1,44.60199999809265,learn,15398.000001907349,Mon Oct 28 2024 16:12:54 GMT-0500 (Central Daylight Time),206101.60000000056,A,d,O,d,13896,1,13912.100000000559,192189.5,7028,WL,B,14.0
1,45.03499984741211,learn,14965.00015258789,Mon Oct 28 2024 16:12:54 GMT-0500 (Central Daylight Time),206534.90000000037,A,do,O,o,415,1,14345.400000000373,192189.5,7028,WL,B,14.0
1,45.25099992752075,learn,14749.000072479248,Mon Oct 28 2024 16:12:54 GMT-0500 (Central Daylight Time),206751.2000000002,A,doo,O,o,198,1,14561.700000000186,192189.5,7028,WL,B,14.0
1,45.41799998283386,learn,14582.000017166138,Mon Oct 28 2024 16:12:54 GMT-0500 (Central Daylight Time),206917.7000000002,A,door,O,r,158,1,14728.200000000186,192189.5,7028,WL,B,14.0
1,45.68400001525879,learn,14315.999984741211,Mon Oct 28 2024 16:12:54 GMT-0500 (Central Daylight Time),207184.2999999998,A,doorenter,O,enter,255,1,14994.799999999814,192189.5,7028,WL,B,14.0
1,49.06699991226196,learn,10933.000087738037,Mon Oct 28 2024 16:12:54 GMT-0500 (Central Daylight Time),210566.7000000002,A,enter,O,enter,3365,1,3382.0,207184.7000000002,7028,WL,B,15.0
2,1.0169999599456787,learn,58983.00004005432,Mon Oct 28 2024 16:12:54 GMT-0500 (Central Daylight Time),285109.9000000004,A,p,O,p,1001,1,1016.2999999998137,284093.60000000056,7028,WL,B,1.0
2,1.2669999599456787,learn,58733.00004005432,Mon Oct 28 2024 16:12:54 GMT-0500 (Central Daylight Time),285360.0,A,pi,O,i,231,1,1266.3999999994412,284093.60000000056,7028,WL,B,1.0
2,1.4830000400543213,learn,58516.99995994568,Mon Oct 28 2024 16:12:54 GMT-0500 (Central Daylight Time),285576.60000000056,A,pip,O,p,198,1,1483.0,284093.60000000056,7028,WL,B,1.0
2,2.0169999599456787,learn,57983.00004005432,Mon Oct 28 2024 16:12:54 GMT-0500 (Central Daylight Time),286109.7000000002,A,pipe,O,e,524,1,2016.0999999996275,284093.60000000056,7028,WL,B,1.0
2,2.5,learn,57500.0,Mon Oct 28 2024 16:12:54 GMT-0500 (Central Daylight Time),286592.9000000004,A,pipeenter,O,enter,463,1,2499.2999999998137,284093.60000000056,7028,WL,B,1.0
2,3.0490000247955322,learn,56950.99997520447,Mon Oct 28 2024 16:12:54 GMT-0500 (Central Daylight Time),287142.60000000056,A,c,O,c,541,1,549.3000000007451,286593.2999999998,7028,WL,B,2.0
2,3.182999849319458,learn,56817.00015068054,Mon Oct 28 2024 16:12:54 GMT-0500 (Central Daylight Time),287275.7999999998,A,ci,O,i,127,1,682.5,286593.2999999998,7028,WL,B,2.0
2,3.4489998817443848,learn,56551.000118255615,Mon Oct 28 2024 16:12:54 GMT-0500 (Central Daylight Time),287542.5,A,cit,O,t,258,1,949.2000000001863,286593.2999999998,7028,WL,B,2.0
2,3.615999937057495,learn,56384.000062942505,Mon Oct 28 2024 16:12:54 GMT-0500 (Central Daylight Time),287709.10000000056,A,city,O,y,159,1,1115.800000000745,286593.2999999998,7028,WL,B,2.0
2,4.016000032424927,learn,55983.99996757507,Mon Oct 28 2024 16:12:54 GMT-0500 (Central Daylight Time),288108.9000000004,A,cityenter,O,enter,383,1,1515.6000000005588,286593.2999999998,7028,WL,B,2.0
2,4.365999937057495,learn,55634.000062942505,Mon Oct 28 2024 16:12:54 GMT-0500 (Central Daylight Time),288458.7000000002,A,s,O,s,344,1,349.5,288109.2000000002,7028,WL,B,3.0
2,4.5,learn,55500.0,Mon Oct 28 2024 16:12:54 GMT-0500 (Central Daylight Time),288593.4000000004,A,sk,O,k,115,1,484.20000000018626,288109.2000000002,7028,WL,B,3.0
2,4.681999921798706,learn,55318.000078201294,Mon Oct 28 2024 16:12:54 GMT-0500 (Central Daylight Time),288775.4000000004,A,ski,O,i,164,1,666.2000000001863,288109.2000000002,7028,WL,B,3.0
2,4.832000017166138,learn,55167.99998283386,Mon Oct 28 2024 16:12:54 GMT-0500 (Central Daylight Time),288925.4000000004,A,skin,O,n,134,1,816.2000000001863,288109.2000000002,7028,WL,B,3.0
2,5.450000047683716,learn,54549.999952316284,Mon Oct 28 2024 16:12:54 GMT-0500 (Central Daylight Time),289543.0,A,skinenter,O,enter,608,1,1433.7999999998137,288109.2000000002,7028,WL,B,3.0
2,5.848999977111816,learn,54151.00002288818,Mon Oct 28 2024 16:12:54 GMT-0500 (Central Daylight Time),289941.9000000004,A,c,O,c,383,1,398.6000000005588,289543.2999999998,7028,WL,B,4.0
2,5.98199987411499,learn,54018.00012588501,Mon Oct 28 2024 16:12:54 GMT-0500 (Central Daylight Time),290075.10000000056,A,cl,O,l,126,1,531.8000000007451,289543.2999999998,7028,WL,B,4.0
2,6.200000047683716,learn,53799.999952316284,Mon Oct 28 2024 16:12:54 GMT-0500 (Central Daylight Time),290292.7999999998,A,clo,O,o,202,1,749.5,289543.2999999998,7028,WL,B,4.0
2,6.56499981880188,learn,53435.00018119812,Mon Oct 28 2024 16:12:54 GMT-0500 (Central Daylight Time),290658.2999999998,A,cloc,O,c,361,1,1115.0,289543.2999999998,7028,WL,B,4.0
2,6.681999921798706,learn,53318.000078201294,Mon Oct 28 2024 16:12:54 GMT-0500 (Central Daylight Time),290775.10000000056,A,clock,O,k,106,1,1231.800000000745,289543.2999999998,7028,WL,B,4.0
2,7.047999858856201,learn,52952.0001411438,Mon Oct 28 2024 16:12:54 GMT-0500 (Central Daylight Time),291141.5,A,clockenter,O,enter,359,1,1598.2000000001863,289543.2999999998,7028,WL,B,4.0
2,7.56499981880188,learn,52435.00018119812,Mon Oct 28 2024 16:12:54 GMT-0500 (Central Daylight Time),291657.9000000004,A,w,O,w,503,1,516.0,291141.9000000004,7028,WL,B,5.0
2,7.664999961853027,learn,52335.00003814697,Mon Oct 28 2024 16:12:54 GMT-0500 (Central Daylight Time),291757.9000000004,A,wi,O,i,90,1,616.0,291141.9000000004,7028,WL,B,5.0
2,8.047999858856201,learn,51952.0001411438,Mon Oct 28 2024 16:12:54 GMT-0500 (Central Daylight Time),292141.10000000056,A,wif,O,f,368,1,999.2000000001863,291141.9000000004,7028,WL,B,5.0
2,8.247999906539917,learn,51752.00009346008,Mon Oct 28 2024 16:12:54 GMT-0500 (Central Daylight Time),292341.10000000056,A,wife,O,e,192,1,1199.2000000001863,291141.9000000004,7028,WL,B,5.0
2,8.799000024795532,learn,51200.99997520447,Mon Oct 28 2024 16:12:54 GMT-0500 (Central Daylight Time),292892.0,A,wifeenter,O,enter,544,1,1750.0999999996275,291141.9000000004,7028,WL,B,5.0
2,9.664000034332275,learn,50335.999965667725,Mon Oct 28 2024 16:12:54 GMT-0500 (Central Daylight Time),293757.2000000002,A,c,O,c,857,1,865.0,292892.2000000002,7028,WL,B,6.0
2,9.846999883651733,learn,50153.00011634827,Mon Oct 28 2024 16:12:54 GMT-0500 (Central Daylight Time),293940.4000000004,A,ca,O,a,175,1,1048.2000000001863,292892.2000000002,7028,WL,B,6.0
2,10.197999954223633,learn,49802.00004577637,Mon Oct 28 2024 16:12:54 GMT-0500 (Central Daylight Time),294291.60000000056,A,cab,O,b,345,1,1399.4000000003725,292892.2000000002,7028,WL,B,6.0
2,10.363999843597412,learn,49636.00015640259,Mon Oct 28 2024 16:12:54 GMT-0500 (Central Daylight Time),294456.9000000004,A,cabi,O,i,154,1,1564.7000000001863,292892.2000000002,7028,WL,B,6.0
2,10.496999979019165,learn,49503.000020980835,Mon Oct 28 2024 16:12:54 GMT-0500 (Central Daylight Time),294590.2000000002,A,cabin,O,n,124,1,1698.0,292892.2000000002,7028,WL,B,6.0
2,10.863999843597412,learn,49136.00015640259,Mon Oct 28 2024 16:12:54 GMT-0500 (Central Daylight Time),294956.7999999998,A,cabinenter,O,enter,350,1,2064.5999999996275,292892.2000000002,7028,WL,B,6.0
2,11.329999923706055,learn,48670.000076293945,Mon Oct 28 2024 16:12:54 GMT-0500 (Central Daylight Time),295423.4000000004,A,l,O,l,449,1,466.20000000018626,294957.2000000002,7028,WL,B,7.0
2,11.447999954223633,learn,48552.00004577637,Mon Oct 28 2024 16:12:54 GMT-0500 (Central Daylight Time),295541.2000000002,A,la,O,a,110,1,584.0,294957.2000000002,7028,WL,B,7.0
2,11.563999891281128,learn,48436.00010871887,Mon Oct 28 2024 16:12:54 GMT-0500 (Central Daylight Time),295656.60000000056,A,lak,O,k,96,1,699.4000000003725,294957.2000000002,7028,WL,B,7.0
2,11.69700002670288,learn,48302.99997329712,Mon Oct 28 2024 16:12:54 GMT-0500 (Central Daylight Time),295790.0,A,lake,O,e,124,1,832.7999999998137,294957.2000000002,7028,WL,B,7.0
2,11.96399998664856,learn,48036.00001335144,Mon Oct 28 2024 16:12:54 GMT-0500 (Central Daylight Time),296056.7999999998,A,lakeenter,O,enter,255,1,1099.5999999996275,294957.2000000002,7028,WL,B,7.0
2,13.013000011444092,learn,46986.99998855591,Mon Oct 28 2024 16:12:54 GMT-0500 (Central Daylight Time),297106.2000000002,A,f,O,f,1029,1,1049.0,296057.2000000002,7028,WL,B,8.0
2,13.129999876022339,learn,46870.00012397766,Mon Oct 28 2024 16:12:54 GMT-0500 (Central Daylight Time),297222.7999999998,A,fi,O,i,99,1,1165.5999999996275,296057.2000000002,7028,WL,B,8.0
2,13.27999997138977,learn,46720.00002861023,Mon Oct 28 2024 16:12:54 GMT-0500 (Central Daylight Time),297372.7000000002,A,fir,O,r,143,1,1315.5,296057.2000000002,7028,WL,B,8.0
2,13.496000051498413,learn,46503.99994850159,Mon Oct 28 2024 16:12:54 GMT-0500 (Central Daylight Time),297589.4000000004,A,fire,O,e,201,1,1532.2000000001863,296057.2000000002,7028,WL,B,8.0
2,13.730000019073486,learn,46269.999980926514,Mon Oct 28 2024 16:12:54 GMT-0500 (Central Daylight Time),297822.7000000002,A,fireenter,O,enter,223,1,1765.5,296057.2000000002,7028,WL,B,8.0
2,15.828999996185303,learn,44171.0000038147,Mon Oct 28 2024 16:12:54 GMT-0500 (Central Daylight Time),299922.0,A,w,O,w,2079,1,2099.0,297823.0,7028,WL,B,9.0
2,15.911999940872192,learn,44088.00005912781,Mon Oct 28 2024 16:12:54 GMT-0500 (Central Daylight Time),300005.2999999998,A,wi,O,i,67,1,2182.2999999998137,297823.0,7028,WL,B,9.0
2,16.044999837875366,learn,43955.000162124634,Mon Oct 28 2024 16:12:54 GMT-0500 (Central Daylight Time),300139.60000000056,A,win,O,n,128,1,2316.600000000559,297823.0,7028,WL,B,9.0
2,16.26099991798401,learn,43739.00008201599,Mon Oct 28 2024 16:12:54 GMT-0500 (Central Daylight Time),300355.2999999998,A,wind,O,d,210,1,2532.2999999998137,297823.0,7028,WL,B,9.0
2,16.39400005340576,learn,43605.99994659424,Mon Oct 28 2024 16:12:54 GMT-0500 (Central Daylight Time),300488.60000000056,A,windo,O,o,114,1,2665.600000000559,297823.0,7028,WL,B,9.0
2,16.74399995803833,learn,43256.00004196167,Mon Oct 28 2024 16:12:54 GMT-0500 (Central Daylight Time),300838.2999999998,A,window,O,w,341,1,3015.2999999998137,297823.0,7028,WL,B,9.0
2,17.044999837875366,learn,42955.000162124634,Mon Oct 28 2024 16:12:54 GMT-0500 (Central Daylight Time),301139.2000000002,A,windowenter,O,enter,294,1,3316.2000000001863,297823.0,7028,WL,B,9.0
2,17.49399995803833,learn,42506.00004196167,Mon Oct 28 2024 16:12:54 GMT-0500 (Central Daylight Time),301588.2000000002,A,p,O,p,433,1,448.70000000018626,301139.5,7028,WL,B,10.0
2,17.694000005722046,learn,42305.999994277954,Mon Oct 28 2024 16:12:54 GMT-0500 (Central Daylight Time),301788.0,A,pu,O,u,194,1,648.5,301139.5,7028,WL,B,10.0
2,17.90999984741211,learn,42090.00015258789,Mon Oct 28 2024 16:12:54 GMT-0500 (Central Daylight Time),302004.7000000002,A,pup,O,p,209,1,865.2000000001863,301139.5,7028,WL,B,10.0
2,18.30999994277954,learn,41690.00005722046,Mon Oct 28 2024 16:12:54 GMT-0500 (Central Daylight Time),302404.60000000056,A,pupi,O,i,393,1,1265.1000000005588,301139.5,7028,WL,B,10.0
2,18.59500002861023,learn,41404.99997138977,Mon Oct 28 2024 16:12:54 GMT-0500 (Central Daylight Time),302688.9000000004,A,pupil,O,l,264,1,1549.4000000003725,301139.5,7028,WL,B,10.0
2,19.125999927520752,learn,40874.00007247925,Mon Oct 28 2024 16:12:54 GMT-0500 (Central Daylight Time),303220.60000000056,A,pupilenter,O,enter,524,1,2081.100000000559,301139.5,7028,WL,B,10.0
2,20.092999935150146,learn,39907.00006484985,Mon Oct 28 2024 16:12:54 GMT-0500 (Central Daylight Time),304187.2999999998,A,s,O,s,961,1,966.3999999994412,303220.9000000004,7028,WL,B,11.0
2,20.276000022888184,learn,39723.99997711182,Mon Oct 28 2024 16:12:54 GMT-0500 (Central Daylight Time),304370.2999999998,A,st,O,t,178,1,1149.3999999994412,303220.9000000004,7028,WL,B,11.0
2,20.49399995803833,learn,39506.00004196167,Mon Oct 28 2024 16:12:54 GMT-0500 (Central Daylight Time),304588.2000000002,A,sta,O,a,211,1,1367.2999999998137,303220.9000000004,7028,WL,B,11.0
2,20.792999982833862,learn,39207.00001716614,Mon Oct 28 2024 16:12:54 GMT-0500 (Central Daylight Time),304887.0,A,star,O,r,289,1,1666.0999999996275,303220.9000000004,7028,WL,B,11.0
2,21.192999839782715,learn,38807.000160217285,Mon Oct 28 2024 16:12:54 GMT-0500 (Central Daylight Time),305287.10000000056,A,starenter,O,enter,390,1,2066.2000000001863,303220.9000000004,7028,WL,B,11.0
2,21.694000005722046,learn,38305.999994277954,Mon Oct 28 2024 16:12:54 GMT-0500 (Central Daylight Time),305787.9000000004,A,g,O,g,493,1,500.40000000037253,305287.5,7028,WL,B,12.0
2,21.95899987220764,learn,38041.00012779236,Mon Oct 28 2024 16:12:54 GMT-0500 (Central Daylight Time),306053.5,A,gr,O,r,249,1,766.0,305287.5,7028,WL,B,12.0
2,22.14199995994568,learn,37858.00004005432,Mon Oct 28 2024 16:12:54 GMT-0500 (Central Daylight Time),306236.5,A,gra,O,a,167,1,949.0,305287.5,7028,WL,B,12.0
2,22.47499990463257,learn,37525.00009536743,Mon Oct 28 2024 16:12:54 GMT-0500 (Central Daylight Time),306569.7999999998,A,gras,O,s,321,1,1282.2999999998137,305287.5,7028,WL,B,12.0
2,22.64199995994568,learn,37358.00004005432,Mon Oct 28 2024 16:12:54 GMT-0500 (Central Daylight Time),306736.60000000056,A,grass,O,s,147,1,1449.1000000005588,305287.5,7028,WL,B,12.0
2,22.825000047683716,learn,37174.999952316284,Mon Oct 28 2024 16:12:54 GMT-0500 (Central Daylight Time),306919.7000000002,A,grassenter,O,enter,173,1,1632.2000000001863,305287.5,7028,WL,B,12.0
2,23.274999856948853,learn,36725.00014305115,Mon Oct 28 2024 16:12:54 GMT-0500 (Central Daylight Time),307369.7999999998,A,s,O,s,438,1,449.79999999981374,306920.0,7028,WL,B,13.0
2,23.441999912261963,learn,36558.00008773804,Mon Oct 28 2024 16:12:54 GMT-0500 (Central Daylight Time),307536.2999999998,A,st,O,t,154,1,616.2999999998137,306920.0,7028,WL,B,13.0
2,23.70799994468689,learn,36292.00005531311,Mon Oct 28 2024 16:12:54 GMT-0500 (Central Daylight Time),307802.7999999998,A,str,O,r,253,1,882.7999999998137,306920.0,7028,WL,B,13.0
2,24.075000047683716,learn,35924.999952316284,Mon Oct 28 2024 16:12:54 GMT-0500 (Central Daylight Time),308169.60000000056,A,stre,O,e,346,1,1249.6000000005588,306920.0,7028,WL,B,13.0
2,24.20799994468689,learn,35792.00005531311,Mon Oct 28 2024 16:12:54 GMT-0500 (Central Daylight Time),308302.4000000004,A,stree,O,e,123,1,1382.4000000003725,306920.0,7028,WL,B,13.0
2,24.407999992370605,learn,35592.000007629395,Mon Oct 28 2024 16:12:54 GMT-0500 (Central Daylight Time),308502.7000000002,A,street,O,t,191,1,1582.7000000001863,306920.0,7028,WL,B,13.0
2,24.776000022888184,learn,35223.99997711182,Mon Oct 28 2024 16:12:54 GMT-0500 (Central Daylight Time),308870.4000000004,A,streetenter,O,enter,351,1,1950.4000000003725,306920.0,7028,WL,B,13.0
2,25.424999952316284,learn,34575.000047683716,Mon Oct 28 2024 16:12:54 GMT-0500 (Central Daylight Time),309519.0,A,d,O,d,631,1,648.2999999998137,308870.7000000002,7028,WL,B,14.0
2,25.674999952316284,learn,34325.000047683716,Mon Oct 28 2024 16:12:54 GMT-0500 (Central Daylight Time),309769.60000000056,A,do,O,o,229,1,898.9000000003725,308870.7000000002,7028,WL,B,14.0
2,25.825000047683716,learn,34174.999952316284,Mon Oct 28 2024 16:12:54 GMT-0500 (Central Daylight Time),309918.9000000004,A,doo,O,o,131,1,1048.2000000001863,308870.7000000002,7028,WL,B,14.0
2,25.973999977111816,learn,34026.00002288818,Mon Oct 28 2024 16:12:54 GMT-0500 (Central Daylight Time),310068.60000000056,A,door,O,r,134,1,1197.9000000003725,308870.7000000002,7028,WL,B,14.0
2,26.906999826431274,learn,33093.000173568726,Mon Oct 28 2024 16:12:54 GMT-0500 (Central Daylight Time),311001.7000000002,A,doorenter,O,enter,921,1,2131.0,308870.7000000002,7028,WL,B,14.0
2,27.274999856948853,learn,32725.000143051147,Mon Oct 28 2024 16:12:54 GMT-0500 (Central Daylight Time),311369.7000000002,A,a,O,a,356,1,367.59999999962747,311002.10000000056,7028,WL,B,15.0
2,27.44099998474121,learn,32559.00001525879,Mon Oct 28 2024 16:12:54 GMT-0500 (Central Daylight Time),311534.9000000004,A,ar,O,r,156,1,532.7999999998137,311002.10000000056,7028,WL,B,15.0
2,27.723999977111816,learn,32276.000022888184,Mon Oct 28 2024 16:12:54 GMT-0500 (Central Daylight Time),311818.0,A,arm,O,m,279,1,815.8999999994412,311002.10000000056,7028,WL,B,15.0
2,28.14199995994568,learn,31858.00004005432,Mon Oct 28 2024 16:12:54 GMT-0500 (Central Daylight Time),312235.9000000004,A,armenter,O,enter,411,1,1233.7999999998137,311002.10000000056,7028,WL,B,15.0
3,1.1319999694824219,learn,58868.00003051758,Mon Oct 28 2024 16:12:54 GMT-0500 (Central Daylight Time),382995.7999999998,A,p,O,p,1118,1,1132.699999999255,381863.10000000056,7028,WL,B,1.0
3,1.3819999694824219,learn,58618.00003051758,Mon Oct 28 2024 16:12:54 GMT-0500 (Central Daylight Time),383245.60000000056,A,pi,O,i,232,1,1382.5,381863.10000000056,7028,WL,B,1.0
3,1.6159999370574951,learn,58384.000062942505,Mon Oct 28 2024 16:12:54 GMT-0500 (Central Daylight Time),383479.0,A,pip,O,p,216,1,1615.8999999994412,381863.10000000056,7028,WL,B,1.0
3,1.9320001602172852,learn,58067.999839782715,Mon Oct 28 2024 16:12:54 GMT-0500 (Central Daylight Time),383795.7000000002,A,pipe,O,e,301,1,1932.5999999996275,381863.10000000056,7028,WL,B,1.0
3,2.2820000648498535,learn,57717.99993515015,Mon Oct 28 2024 16:12:54 GMT-0500 (Central Daylight Time),384145.60000000056,A,pipeenter,O,enter,337,1,2282.5,381863.10000000056,7028,WL,B,1.0
3,2.999000072479248,learn,57000.99992752075,Mon Oct 28 2024 16:12:54 GMT-0500 (Central Daylight Time),384862.0,A,s,O,s,708,1,716.2000000001863,384145.7999999998,7028,WL,B,2.0
3,3.1500000953674316,learn,56849.99990463257,Mon Oct 28 2024 16:12:54 GMT-0500 (Central Daylight Time),385013.0,A,sk,O,k,136,1,867.2000000001863,384145.7999999998,7028,WL,B,2.0
3,3.3480000495910645,learn,56651.999950408936,Mon Oct 28 2024 16:12:54 GMT-0500 (Central Daylight Time),385211.60000000056,A,ski,O,i,193,1,1065.800000000745,384145.7999999998,7028,WL,B,2.0
3,3.515000104904175,learn,56484.999895095825,Mon Oct 28 2024 16:12:54 GMT-0500 (Central Daylight Time),385378.2000000002,A,skin,O,n,162,1,1232.4000000003725,384145.7999999998,7028,WL,B,2.0
3,3.815000057220459,learn,56184.99994277954,Mon Oct 28 2024 16:12:54 GMT-0500 (Central Daylight Time),385678.4000000004,A,skinenter,O,enter,290,1,1532.6000000005588,384145.7999999998,7028,WL,B,2.0
3,4.398000001907349,learn,55601.99999809265,Mon Oct 28 2024 16:12:54 GMT-0500 (Central Daylight Time),386261.60000000056,A,c,O,c,574,1,582.9000000003725,385678.7000000002,7028,WL,B,3.0
3,4.498000144958496,learn,55501.999855041504,Mon Oct 28 2024 16:12:54 GMT-0500 (Central Daylight Time),386361.5,A,cl,O,l,88,1,682.7999999998137,385678.7000000002,7028,WL,B,3.0
3,4.947999954223633,learn,55052.00004577637,Mon Oct 28 2024 16:12:54 GMT-0500 (Central Daylight Time),386811.4000000004,A,clo,O,o,444,1,1132.7000000001863,385678.7000000002,7028,WL,B,3.0
3,5.248000144958496,learn,54751.999855041504,Mon Oct 28 2024 16:12:54 GMT-0500 (Central Daylight Time),387111.10000000056,A,cloc,O,c,290,1,1432.4000000003725,385678.7000000002,7028,WL,B,3.0
3,5.479000091552734,learn,54520.999908447266,Mon Oct 28 2024 16:12:54 GMT-0500 (Central Daylight Time),387342.0,A,clock,O,k,226,1,1663.2999999998137,385678.7000000002,7028,WL,B,3.0
3,5.96399998664856,learn,54036.00001335144,Mon Oct 28 2024 16:12:54 GMT-0500 (Central Daylight Time),387827.60000000056,A,clockenter,O,enter,471,1,2148.9000000003725,385678.7000000002,7028,WL,B,3.0
3,7.5299999713897705,learn,52470.00002861023,Mon Oct 28 2024 16:12:54 GMT-0500 (Central Daylight Time),389393.7999999998,A,c,O,c,1562,1,1565.8999999994412,387827.9000000004,7028,WL,B,4.0
3,7.630000114440918,learn,52369.99988555908,Mon Oct 28 2024 16:12:54 GMT-0500 (Central Daylight Time),389493.7999999998,A,ci,O,i,84,1,1665.8999999994412,387827.9000000004,7028,WL,B,4.0
3,7.930000066757202,learn,52069.9999332428,Mon Oct 28 2024 16:12:54 GMT-0500 (Central Daylight Time),389793.7000000002,A,cit,O,t,295,1,1965.7999999998137,387827.9000000004,7028,WL,B,4.0
3,8.04699993133545,learn,51953.00006866455,Mon Oct 28 2024 16:12:54 GMT-0500 (Central Daylight Time),389910.4000000004,A,city,O,y,107,1,2082.5,387827.9000000004,7028,WL,B,4.0
3,8.680000066757202,learn,51319.9999332428,Mon Oct 28 2024 16:12:54 GMT-0500 (Central Daylight Time),390543.4000000004,A,cityenter,O,enter,614,1,2715.5,387827.9000000004,7028,WL,B,4.0
3,9.330000162124634,learn,50669.999837875366,Mon Oct 28 2024 16:12:54 GMT-0500 (Central Daylight Time),391193.4000000004,A,d,O,d,638,1,649.6000000005588,390543.7999999998,7028,WL,B,5.0
3,9.54699993133545,learn,50453.00006866455,Mon Oct 28 2024 16:12:54 GMT-0500 (Central Daylight Time),391409.9000000004,A,do,O,o,212,1,866.1000000005588,390543.7999999998,7028,WL,B,5.0
3,9.696000099182129,learn,50303.99990081787,Mon Oct 28 2024 16:12:54 GMT-0500 (Central Daylight Time),391559.7000000002,A,doo,O,o,131,1,1015.9000000003725,390543.7999999998,7028,WL,B,5.0
3,9.86300015449524,learn,50136.99984550476,Mon Oct 28 2024 16:12:54 GMT-0500 (Central Daylight Time),391726.60000000056,A,door,O,r,158,1,1182.800000000745,390543.7999999998,7028,WL,B,5.0
3,10.430999994277954,learn,49569.000005722046,Mon Oct 28 2024 16:12:54 GMT-0500 (Central Daylight Time),392294.10000000056,A,doorenter,O,enter,551,1,1750.300000000745,390543.7999999998,7028,WL,B,5.0
3,11.163000106811523,learn,48836.99989318848,Mon Oct 28 2024 16:12:54 GMT-0500 (Central Daylight Time),393026.2999999998,A,c,O,c,711,1,731.8999999994412,392294.4000000004,7028,WL,B,6.0
3,11.330000162124634,learn,48669.999837875366,Mon Oct 28 2024 16:12:54 GMT-0500 (Central Daylight Time),393192.7999999998,A,ca,O,a,147,1,898.3999999994412,392294.4000000004,7028,WL,B,6.0
3,11.67900013923645,learn,48320.99986076355,Mon Oct 28 2024 16:12:54 GMT-0500 (Central Daylight Time),393542.5,A,cab,O,b,333,1,1248.0999999996275,392294.4000000004,7028,WL,B,6.0
3,11.92900013923645,learn,48070.99986076355,Mon Oct 28 2024 16:12:54 GMT-0500 (Central Daylight Time),393792.4000000004,A,cabi,O,i,231,1,1498.0,392294.4000000004,7028,WL,B,6.0
3,12.046000003814697,learn,47953.9999961853,Mon Oct 28 2024 16:12:54 GMT-0500 (Central Daylight Time),393909.0,A,cabin,O,n,109,1,1614.5999999996275,392294.4000000004,7028,WL,B,6.0
3,12.52999997138977,learn,47470.00002861023,Mon Oct 28 2024 16:12:54 GMT-0500 (Central Daylight Time),394393.4000000004,A,cabinenter,O,enter,464,1,2099.0,392294.4000000004,7028,WL,B,6.0
3,13.078999996185303,learn,46921.0000038147,Mon Oct 28 2024 16:12:54 GMT-0500 (Central Daylight Time),394942.2999999998,A,f,O,f,540,1,548.5,394393.7999999998,7028,WL,B,7.0
3,13.328999996185303,learn,46671.0000038147,Mon Oct 28 2024 16:12:54 GMT-0500 (Central Daylight Time),395192.10000000056,A,fi,O,i,230,1,798.3000000007451,394393.7999999998,7028,WL,B,7.0
3,13.611999988555908,learn,46388.00001144409,Mon Oct 28 2024 16:12:54 GMT-0500 (Central Daylight Time),395475.2000000002,A,fir,O,r,268,1,1081.4000000003725,394393.7999999998,7028,WL,B,7.0
3,13.779000043869019,learn,46220.99995613098,Mon Oct 28 2024 16:12:54 GMT-0500 (Central Daylight Time),395642.10000000056,A,fire,O,e,146,1,1248.300000000745,394393.7999999998,7028,WL,B,7.0
3,15.694000005722046,learn,44305.999994277954,Mon Oct 28 2024 16:12:54 GMT-0500 (Central Daylight Time),397557.7999999998,A,fireenter,O,enter,1899,1,3164.0,394393.7999999998,7028,WL,B,7.0
3,16.278000116348267,learn,43721.99988365173,Mon Oct 28 2024 16:12:54 GMT-0500 (Central Daylight Time),398141.0,A,l,O,l,568,1,582.7999999998137,397558.2000000002,7028,WL,B,8.0
3,16.394999980926514,learn,43605.000019073486,Mon Oct 28 2024 16:12:54 GMT-0500 (Central Daylight Time),398257.9000000004,A,la,O,a,113,1,699.7000000001863,397558.2000000002,7028,WL,B,8.0
3,16.594000101089478,learn,43405.99989891052,Mon Oct 28 2024 16:12:54 GMT-0500 (Central Daylight Time),398457.7000000002,A,lak,O,k,180,1,899.5,397558.2000000002,7028,WL,B,8.0
3,16.729000091552734,learn,43270.999908447266,Mon Oct 28 2024 16:12:54 GMT-0500 (Central Daylight Time),398591.9000000004,A,lake,O,e,115,1,1033.7000000001863,397558.2000000002,7028,WL,B,8.0
3,16.99399995803833,learn,43006.00004196167,Mon Oct 28 2024 16:12:54 GMT-0500 (Central Daylight Time),398857.5,A,lakeenter,O,enter,254,1,1299.2999999998137,397558.2000000002,7028,WL,B,8.0
3,17.91100001335144,learn,42088.99998664856,Mon Oct 28 2024 16:12:54 GMT-0500 (Central Daylight Time),399773.9000000004,A,w,O,w,900,1,916.1000000005588,398857.7999999998,7028,WL,B,9.0
3,17.99500012397766,learn,42004.99987602234,Mon Oct 28 2024 16:12:54 GMT-0500 (Central Daylight Time),399858.2999999998,A,wi,O,i,72,1,1000.5,398857.7999999998,7028,WL,B,9.0
3,18.30999994277954,learn,41690.00005722046,Mon Oct 28 2024 16:12:54 GMT-0500 (Central Daylight Time),400173.7999999998,A,wif,O,f,298,1,1316.0,398857.7999999998,7028,WL,B,9.0
3,18.509999990463257,learn,41490.00000953674,Mon Oct 28 2024 16:12:54 GMT-0500 (Central Daylight Time),400373.60000000056,A,wife,O,e,183,1,1515.800000000745,398857.7999999998,7028,WL,B,9.0
3,18.944000005722046,learn,41055.999994277954,Mon Oct 28 2024 16:12:54 GMT-0500 (Central Daylight Time),400807.0,A,wifeenter,O,enter,415,1,1949.2000000001863,398857.7999999998,7028,WL,B,9.0
3,20.026999950408936,learn,39973.000049591064,Mon Oct 28 2024 16:12:54 GMT-0500 (Central Daylight Time),401889.9000000004,A,w,O,w,1079,1,1082.6000000005588,400807.2999999998,7028,WL,B,10.0
3,20.110000133514404,learn,39889.999866485596,Mon Oct 28 2024 16:12:54 GMT-0500 (Central Daylight Time),401973.2000000002,A,wi,O,i,76,1,1165.9000000003725,400807.2999999998,7028,WL,B,10.0
3,20.259999990463257,learn,39740.00000953674,Mon Oct 28 2024 16:12:54 GMT-0500 (Central Daylight Time),402123.10000000056,A,win,O,n,135,1,1315.800000000745,400807.2999999998,7028,WL,B,10.0
3,20.526000022888184,learn,39473.99997711182,Mon Oct 28 2024 16:12:54 GMT-0500 (Central Daylight Time),402389.7999999998,A,wind,O,d,249,1,1582.5,400807.2999999998,7028,WL,B,10.0
3,20.676000118255615,learn,39323.999881744385,Mon Oct 28 2024 16:12:54 GMT-0500 (Central Daylight Time),402539.60000000056,A,windo,O,o,135,1,1732.300000000745,400807.2999999998,7028,WL,B,10.0
3,21.026000022888184,learn,38973.99997711182,Mon Oct 28 2024 16:12:54 GMT-0500 (Central Daylight Time),402889.7000000002,A,window,O,w,330,1,2082.4000000003725,400807.2999999998,7028,WL,B,10.0
3,21.693000078201294,learn,38306.999921798706,Mon Oct 28 2024 16:12:54 GMT-0500 (Central Daylight Time),403556.2999999998,A,windowenter,O,enter,652,1,2749.0,400807.2999999998,7028,WL,B,10.0
3,22.075999975204468,learn,37924.00002479553,Mon Oct 28 2024 16:12:54 GMT-0500 (Central Daylight Time),403939.2999999998,A,a,O,a,376,1,382.79999999981374,403556.5,7028,WL,B,11.0
3,22.2260000705719,learn,37773.9999294281,Mon Oct 28 2024 16:12:54 GMT-0500 (Central Daylight Time),404089.2000000002,A,ar,O,r,138,1,532.7000000001863,403556.5,7028,WL,B,11.0
3,22.594000101089478,learn,37405.99989891052,Mon Oct 28 2024 16:12:54 GMT-0500 (Central Daylight Time),404457.2000000002,A,arm,O,m,357,1,900.7000000001863,403556.5,7028,WL,B,11.0
3,23.04200005531311,learn,36957.99994468689,Mon Oct 28 2024 16:12:54 GMT-0500 (Central Daylight Time),404905.7999999998,A,armenter,O,enter,443,1,1349.2999999998137,403556.5,7028,WL,B,11.0
3,24.092000007629395,learn,35907.999992370605,Mon Oct 28 2024 16:12:54 GMT-0500 (Central Daylight Time),405955.10000000056,A,g,O,g,1044,1,1049.0,404906.10000000056,7028,WL,B,12.0
3,24.342000007629395,learn,35657.999992370605,Mon Oct 28 2024 16:12:54 GMT-0500 (Central Daylight Time),406205.2999999998,A,gr,O,r,241,1,1299.199999999255,404906.10000000056,7028,WL,B,12.0
3,24.52500009536743,learn,35474.99990463257,Mon Oct 28 2024 16:12:54 GMT-0500 (Central Daylight Time),406388.60000000056,A,gra,O,a,177,1,1482.5,404906.10000000056,7028,WL,B,12.0
3,24.89199995994568,learn,35108.00004005432,Mon Oct 28 2024 16:12:54 GMT-0500 (Central Daylight Time),406755.2000000002,A,gras,O,s,353,1,1849.0999999996275,404906.10000000056,7028,WL,B,12.0
3,25.04200005531311,learn,34957.99994468689,Mon Oct 28 2024 16:12:54 GMT-0500 (Central Daylight Time),406904.9000000004,A,grass,O,s,130,1,1998.7999999998137,404906.10000000056,7028,WL,B,12.0
3,25.39199995994568,learn,34608.00004005432,Mon Oct 28 2024 16:12:54 GMT-0500 (Central Daylight Time),407254.9000000004,A,grassenter,O,enter,332,1,2348.7999999998137,404906.10000000056,7028,WL,B,12.0
3,26.841000080108643,learn,33158.99991989136,Mon Oct 28 2024 16:12:54 GMT-0500 (Central Daylight Time),408704.5,A,s,O,s,1431,1,1449.2999999998137,407255.2000000002,7028,WL,B,13.0
3,27.0239999294281,learn,32976.0000705719,Mon Oct 28 2024 16:12:54 GMT-0500 (Central Daylight Time),408887.60000000056,A,st,O,t,172,1,1632.4000000003725,407255.2000000002,7028,WL,B,13.0
3,27.223999977111816,learn,32776.00002288818,Mon Oct 28 2024 16:12:54 GMT-0500 (Central Daylight Time),409087.60000000056,A,str,O,r,189,1,1832.4000000003725,407255.2000000002,7028,WL,B,13.0
3,27.558000087738037,learn,32441.999912261963,Mon Oct 28 2024 16:12:54 GMT-0500 (Central Daylight Time),409421.0,A,stre,O,e,325,1,2165.7999999998137,407255.2000000002,7028,WL,B,13.0
3,27.723999977111816,learn,32276.000022888184,Mon Oct 28 2024 16:12:54 GMT-0500 (Central Daylight Time),409587.7000000002,A,stree,O,e,153,1,2332.5,407255.2000000002,7028,WL,B,13.0
3,27.891000032424927,learn,32108.999967575073,Mon Oct 28 2024 16:12:54 GMT-0500 (Central Daylight Time),409754.0,A,street,O,t,162,1,2498.7999999998137,407255.2000000002,7028,WL,B,13.0
3,28.2739999294281,learn,31726.0000705719,Mon Oct 28 2024 16:12:54 GMT-0500 (Central Daylight Time),410137.2000000002,A,streetenter,O,enter,363,1,2882.0,407255.2000000002,7028,WL,B,13.0
3,31.789999961853027,learn,28210.000038146973,Mon Oct 28 2024 16:12:54 GMT-0500 (Central Daylight Time),413653.0,A,a,O,a,3508,1,3515.5,410137.5,7028,WL,B,14.0
3,31.956000089645386,learn,28043.999910354614,Mon Oct 28 2024 16:12:54 GMT-0500 (Central Daylight Time),413819.5,A,ar,O,r,160,1,3682.0,410137.5,7028,WL,B,14.0
3,32.10700011253357,learn,27892.99988746643,Mon Oct 28 2024 16:12:54 GMT-0500 (Central Daylight Time),413970.4000000004,A,arm,O,m,146,1,3832.9000000003725,410137.5,7028,WL,B,14.0
3,32.388999938964844,learn,27611.000061035156,Mon Oct 28 2024 16:12:54 GMT-0500 (Central Daylight Time),414252.5,A,armenter,O,enter,275,1,4115.0,410137.5,7028,WL,B,14.0
3,32.85599994659424,learn,27144.00005340576,Mon Oct 28 2024 16:12:54 GMT-0500 (Central Daylight Time),414719.10000000056,A,s,O,s,457,1,466.30000000074506,414252.7999999998,7028,WL,B,15.0
3,33.02300000190735,learn,26976.99999809265,Mon Oct 28 2024 16:12:54 GMT-0500 (Central Daylight Time),414885.9000000004,A,st,O,t,150,1,633.1000000005588,414252.7999999998,7028,WL,B,15.0
3,33.23900008201599,learn,26760.99991798401,Mon Oct 28 2024 16:12:54 GMT-0500 (Central Daylight Time),415102.4000000004,A,sta,O,a,200,1,849.6000000005588,414252.7999999998,7028,WL,B,15.0
3,33.33899998664856,learn,26661.00001335144,Mon Oct 28 2024 16:12:54 GMT-0500 (Central Daylight Time),415202.4000000004,A,star,O,r,87,1,949.6000000005588,414252.7999999998,7028,WL,B,15.0
3,33.73900008201599,learn,26260.99991798401,Mon Oct 28 2024 16:12:54 GMT-0500 (Central Daylight Time),415602.2000000002,A,starenter,O,enter,386,1,1349.4000000003725,414252.7999999998,7028,WL,B,15.0
4,0.7330000400543213,learn,59266.99995994568,Mon Oct 28 2024 16:12:54 GMT-0500 (Central Daylight Time),481831.10000000056,A,p,O,p,715,1,732.8000000007451,481098.2999999998,7028,WL,B,1.0
4,1.0500001907348633,learn,58949.99980926514,Mon Oct 28 2024 16:12:54 GMT-0500 (Central Daylight Time),482148.0,A,pu,O,u,310,1,1049.7000000001863,481098.2999999998,7028,WL,B,1.0
4,1.433000087738037,learn,58566.99991226196,Mon Oct 28 2024 16:12:54 GMT-0500 (Central Daylight Time),482531.4000000004,A,pup,O,p,378,1,1433.1000000005588,481098.2999999998,7028,WL,B,1.0
4,1.7829999923706055,learn,58217.000007629395,Mon Oct 28 2024 16:12:54 GMT-0500 (Central Daylight Time),482881.10000000056,A,pupi,O,i,330,1,1782.800000000745,481098.2999999998,7028,WL,B,1.0
4,2.0989999771118164,learn,57901.00002288818,Mon Oct 28 2024 16:12:54 GMT-0500 (Central Daylight Time),483197.7999999998,A,pupil,O,l,308,1,2099.5,481098.2999999998,7028,WL,B,1.0
4,2.749000072479248,learn,57250.99992752075,Mon Oct 28 2024 16:12:54 GMT-0500 (Central Daylight Time),483847.5,A,pupilenter,O,enter,639,1,2749.2000000001863,481098.2999999998,7028,WL,B,1.0
4,3.7660000324249268,learn,56233.99996757507,Mon Oct 28 2024 16:12:54 GMT-0500 (Central Daylight Time),484864.0,A,p,O,p,997,1,1016.0999999996275,483847.9000000004,7028,WL,B,2.0
4,3.9820001125335693,learn,56017.99988746643,Mon Oct 28 2024 16:12:54 GMT-0500 (Central Daylight Time),485080.4000000004,A,pi,O,i,206,1,1232.5,483847.9000000004,7028,WL,B,2.0
4,4.164999961853027,learn,55835.00003814697,Mon Oct 28 2024 16:12:54 GMT-0500 (Central Daylight Time),485263.9000000004,A,pip,O,p,164,1,1416.0,483847.9000000004,7028,WL,B,2.0
4,4.815000057220459,learn,55184.99994277954,Mon Oct 28 2024 16:12:54 GMT-0500 (Central Daylight Time),485913.5,A,pipe,O,e,638,1,2065.5999999996275,483847.9000000004,7028,WL,B,2.0
4,5.0980000495910645,learn,54901.999950408936,Mon Oct 28 2024 16:12:54 GMT-0500 (Central Daylight Time),486196.7000000002,A,pipeenter,O,enter,276,1,2348.7999999998137,483847.9000000004,7028,WL,B,2.0
4,5.581000089645386,learn,54418.999910354614,Mon Oct 28 2024 16:12:54 GMT-0500 (Central Daylight Time),486679.9000000004,A,s,O,s,465,1,482.90000000037253,486197.0,7028,WL,B,3.0
4,5.715000152587891,learn,54284.99984741211,Mon Oct 28 2024 16:12:54 GMT-0500 (Central Daylight Time),486813.4000000004,A,sk,O,k,126,1,616.4000000003725,486197.0,7028,WL,B,3.0
4,5.914000034332275,learn,54085.999965667725,Mon Oct 28 2024 16:12:54 GMT-0500 (Central Daylight Time),487012.9000000004,A,ski,O,i,191,1,815.9000000003725,486197.0,7028,WL,B,3.0
4,6.064000129699707,learn,53935.99987030029,Mon Oct 28 2024 16:12:54 GMT-0500 (Central Daylight Time),487162.7000000002,A,skin,O,n,135,1,965.7000000001863,486197.0,7028,WL,B,3.0
4,6.398000001907349,learn,53601.99999809265,Mon Oct 28 2024 16:12:54 GMT-0500 (Central Daylight Time),487495.9000000004,A,skinenter,O,enter,314,1,1298.9000000003725,486197.0,7028,WL,B,3.0
4,6.815999984741211,learn,53184.00001525879,Mon Oct 28 2024 16:12:54 GMT-0500 (Central Daylight Time),487914.10000000056,A,c,O,c,406,1,418.0,487496.10000000056,7028,WL,B,4.0
4,6.96399998664856,learn,53036.00001335144,Mon Oct 28 2024 16:12:54 GMT-0500 (Central Daylight Time),488062.7999999998,A,cl,O,l,130,1,566.6999999992549,487496.10000000056,7028,WL,B,4.0
4,7.29800009727478,learn,52701.99990272522,Mon Oct 28 2024 16:12:54 GMT-0500 (Central Daylight Time),488396.2999999998,A,clo,O,o,319,1,900.1999999992549,487496.10000000056,7028,WL,B,4.0
4,7.680999994277954,learn,52319.000005722046,Mon Oct 28 2024 16:12:54 GMT-0500 (Central Daylight Time),488779.4000000004,A,cloc,O,c,369,1,1283.2999999998137,487496.10000000056,7028,WL,B,4.0
4,7.8470001220703125,learn,52152.99987792969,Mon Oct 28 2024 16:12:54 GMT-0500 (Central Daylight Time),488945.9000000004,A,clock,O,k,154,1,1449.7999999998137,487496.10000000056,7028,WL,B,4.0
4,8.38100004196167,learn,51618.99995803833,Mon Oct 28 2024 16:12:54 GMT-0500 (Central Daylight Time),489479.10000000056,A,clockenter,O,enter,516,1,1983.0,487496.10000000056,7028,WL,B,4.0
4,9.77999997138977,learn,50220.00002861023,Mon Oct 28 2024 16:12:54 GMT-0500 (Central Daylight Time),490878.9000000004,A,c,O,c,1383,1,1399.5,489479.4000000004,7028,WL,B,5.0
4,9.996999979019165,learn,50003.000020980835,Mon Oct 28 2024 16:12:54 GMT-0500 (Central Daylight Time),491095.5,A,ca,O,a,197,1,1616.0999999996275,489479.4000000004,7028,WL,B,5.0
4,10.297000169754028,learn,49702.99983024597,Mon Oct 28 2024 16:12:54 GMT-0500 (Central Daylight Time),491395.0,A,cab,O,b,294,1,1915.5999999996275,489479.4000000004,7028,WL,B,5.0
4,10.44700002670288,learn,49552.99997329712,Mon Oct 28 2024 16:12:54 GMT-0500 (Central Daylight Time),491545.0,A,cabi,O,i,138,1,2065.5999999996275,489479.4000000004,7028,WL,B,5.0
4,10.630000114440918,learn,49369.99988555908,Mon Oct 28 2024 16:12:54 GMT-0500 (Central Daylight Time),491728.4000000004,A,cabin,O,n,173,1,2249.0,489479.4000000004,7028,WL,B,5.0
4,11.34600019454956,learn,48653.99980545044,Mon Oct 28 2024 16:12:54 GMT-0500 (Central Daylight Time),492444.60000000056,A,cabinenter,O,enter,708,1,2965.2000000001863,489479.4000000004,7028,WL,B,5.0
4,12.013000011444092,learn,47986.99998855591,Mon Oct 28 2024 16:12:54 GMT-0500 (Central Daylight Time),493111.2000000002,A,l,O,l,657,1,666.2999999998137,492444.9000000004,7028,WL,B,6.0
4,12.129000186920166,learn,47870.999813079834,Mon Oct 28 2024 16:12:54 GMT-0500 (Central Daylight Time),493227.7999999998,A,la,O,a,101,1,782.8999999994412,492444.9000000004,7028,WL,B,6.0
4,12.263000011444092,learn,47736.99998855591,Mon Oct 28 2024 16:12:54 GMT-0500 (Central Daylight Time),493361.0,A,lak,O,k,113,1,916.0999999996275,492444.9000000004,7028,WL,B,6.0
4,12.413000106811523,learn,47586.99989318848,Mon Oct 28 2024 16:12:54 GMT-0500 (Central Daylight Time),493511.0,A,lake,O,e,131,1,1066.0999999996275,492444.9000000004,7028,WL,B,6.0
4,12.646000146865845,learn,47353.999853134155,Mon Oct 28 2024 16:12:54 GMT-0500 (Central Daylight Time),493744.2999999998,A,lakeenter,O,enter,214,1,1299.3999999994412,492444.9000000004,7028,WL,B,6.0
4,13.328999996185303,learn,46671.0000038147,Mon Oct 28 2024 16:12:54 GMT-0500 (Central Daylight Time),494427.2999999998,A,f,O,f,676,1,682.5999999996275,493744.7000000002,7028,WL,B,7.0
4,13.42900013923645,learn,46570.99986076355,Mon Oct 28 2024 16:12:54 GMT-0500 (Central Daylight Time),494527.10000000056,A,fi,O,i,89,1,782.4000000003725,493744.7000000002,7028,WL,B,7.0
4,13.629000186920166,learn,46370.999813079834,Mon Oct 28 2024 16:12:54 GMT-0500 (Central Daylight Time),494727.2999999998,A,fir,O,r,182,1,982.5999999996275,493744.7000000002,7028,WL,B,7.0
4,13.745000123977661,learn,46254.99987602234,Mon Oct 28 2024 16:12:54 GMT-0500 (Central Daylight Time),494843.9000000004,A,fire,O,e,101,1,1099.2000000001863,493744.7000000002,7028,WL,B,7.0
4,14.445000171661377,learn,45554.99982833862,Mon Oct 28 2024 16:12:54 GMT-0500 (Central Daylight Time),495543.7000000002,A,fireenter,O,enter,681,1,1799.0,493744.7000000002,7028,WL,B,7.0
4,16.111999988555908,learn,43888.00001144409,Mon Oct 28 2024 16:12:54 GMT-0500 (Central Daylight Time),497210.0,A,w,O,w,1654,1,1666.0,495544.0,7028,WL,B,8.0
4,16.195000171661377,learn,43804.99982833862,Mon Oct 28 2024 16:12:54 GMT-0500 (Central Daylight Time),497293.4000000004,A,wi,O,i,67,1,1749.4000000003725,495544.0,7028,WL,B,8.0
4,16.394999980926514,learn,43605.000019073486,Mon Oct 28 2024 16:12:54 GMT-0500 (Central Daylight Time),497493.10000000056,A,wif,O,f,184,1,1949.1000000005588,495544.0,7028,WL,B,8.0
4,16.59500002861023,learn,43404.99997138977,Mon Oct 28 2024 16:12:54 GMT-0500 (Central Daylight Time),497693.10000000056,A,wife,O,e,184,1,2149.100000000559,495544.0,7028,WL,B,8.0
4,17.07800006866455,learn,42921.99993133545,Mon Oct 28 2024 16:12:54 GMT-0500 (Central Daylight Time),498176.4000000004,A,wifeenter,O,enter,471,1,2632.4000000003725,495544.0,7028,WL,B,8.0
4,17.511000156402588,learn,42488.99984359741,Mon Oct 28 2024 16:12:54 GMT-0500 (Central Daylight Time),498609.5,A,w,O,w,412,1,432.79999999981374,498176.7000000002,7028,WL,B,9.0
4,17.594000101089478,learn,42405.99989891052,Mon Oct 28 2024 16:12:54 GMT-0500 (Central Daylight Time),498692.7999999998,A,wi,O,i,75,1,516.0999999996275,498176.7000000002,7028,WL,B,9.0
4,17.728000164031982,learn,42271.99983596802,Mon Oct 28 2024 16:12:54 GMT-0500 (Central Daylight Time),498825.9000000004,A,win,O,n,128,1,649.2000000001863,498176.7000000002,7028,WL,B,9.0
4,17.91100001335144,learn,42088.99998664856,Mon Oct 28 2024 16:12:54 GMT-0500 (Central Daylight Time),499009.5,A,wind,O,d,163,1,832.7999999998137,498176.7000000002,7028,WL,B,9.0
4,18.24400019645691,learn,41755.99980354309,Mon Oct 28 2024 16:12:54 GMT-0500 (Central Daylight Time),499342.5,A,windo,O,o,315,1,1165.7999999998137,498176.7000000002,7028,WL,B,9.0
4,18.627000093460083,learn,41372.99990653992,Mon Oct 28 2024 16:12:54 GMT-0500 (Central Daylight Time),499725.7999999998,A,window,O,w,375,1,1549.0999999996275,498176.7000000002,7028,WL,B,9.0
4,19.194000005722046,learn,40805.999994277954,Mon Oct 28 2024 16:12:54 GMT-0500 (Central Daylight Time),500292.4000000004,A,windowenter,O,enter,551,1,2115.7000000001863,498176.7000000002,7028,WL,B,9.0
4,22.62600016593933,learn,37373.99983406067,Mon Oct 28 2024 16:12:54 GMT-0500 (Central Daylight Time),503724.60000000056,A,a,O,a,3425,1,3431.9000000003725,500292.7000000002,7028,WL,B,10.0
4,22.825999975204468,learn,37174.00002479553,Mon Oct 28 2024 16:12:54 GMT-0500 (Central Daylight Time),503924.60000000056,A,ar,O,r,192,1,3631.9000000003725,500292.7000000002,7028,WL,B,10.0
4,23.12600016593933,learn,36873.99983406067,Mon Oct 28 2024 16:12:54 GMT-0500 (Central Daylight Time),504224.5,A,arm,O,m,281,1,3931.7999999998137,500292.7000000002,7028,WL,B,10.0
4,23.80900001525879,learn,36190.99998474121,Mon Oct 28 2024 16:12:54 GMT-0500 (Central Daylight Time),504907.5,A,armenter,O,enter,676,1,4614.799999999814,500292.7000000002,7028,WL,B,10.0
4,24.30900001525879,learn,35690.99998474121,Mon Oct 28 2024 16:12:54 GMT-0500 (Central Daylight Time),505407.4000000004,A,d,O,d,489,1,499.5,504907.9000000004,7028,WL,B,11.0
4,24.509000062942505,learn,35490.999937057495,Mon Oct 28 2024 16:12:54 GMT-0500 (Central Daylight Time),505607.4000000004,A,do,O,o,190,1,699.5,504907.9000000004,7028,WL,B,11.0
4,24.675000190734863,learn,35324.99980926514,Mon Oct 28 2024 16:12:54 GMT-0500 (Central Daylight Time),505773.9000000004,A,doo,O,o,149,1,866.0,504907.9000000004,7028,WL,B,11.0
4,24.858999967575073,learn,35141.00003242493,Mon Oct 28 2024 16:12:54 GMT-0500 (Central Daylight Time),505957.2000000002,A,door,O,r,175,1,1049.2999999998137,504907.9000000004,7028,WL,B,11.0
4,25.30900001525879,learn,34690.99998474121,Mon Oct 28 2024 16:12:54 GMT-0500 (Central Daylight Time),506407.0,A,doorenter,O,enter,432,1,1499.0999999996275,504907.9000000004,7028,WL,B,11.0
4,25.642000198364258,learn,34357.99980163574,Mon Oct 28 2024 16:12:54 GMT-0500 (Central Daylight Time),506740.2999999998,A,s,O,s,319,1,332.8999999994412,506407.4000000004,7028,WL,B,12.0
4,25.808000087738037,learn,34191.99991226196,Mon Oct 28 2024 16:12:54 GMT-0500 (Central Daylight Time),506906.9000000004,A,st,O,t,161,1,499.5,506407.4000000004,7028,WL,B,12.0
4,26.110000133514404,learn,33889.999866485596,Mon Oct 28 2024 16:12:54 GMT-0500 (Central Daylight Time),507208.10000000056,A,sta,O,a,282,1,800.7000000001863,506407.4000000004,7028,WL,B,12.0
4,26.176000118255615,learn,33823.999881744385,Mon Oct 28 2024 16:12:54 GMT-0500 (Central Daylight Time),507274.10000000056,A,star,O,r,61,1,866.7000000001863,506407.4000000004,7028,WL,B,12.0
4,26.508000135421753,learn,33491.99986457825,Mon Oct 28 2024 16:12:54 GMT-0500 (Central Daylight Time),507606.5,A,starenter,O,enter,323,1,1199.0999999996275,506407.4000000004,7028,WL,B,12.0
4,27.157999992370605,learn,32842.000007629395,Mon Oct 28 2024 16:12:54 GMT-0500 (Central Daylight Time),508256.60000000056,A,g,O,g,631,1,649.8000000007451,507606.7999999998,7028,WL,B,13.0
4,27.391000032424927,learn,32608.999967575073,Mon Oct 28 2024 16:12:54 GMT-0500 (Central Daylight Time),508489.4000000004,A,gr,O,r,212,1,882.6000000005588,507606.7999999998,7028,WL,B,13.0
4,27.491000175476074,learn,32508.999824523926,Mon Oct 28 2024 16:12:54 GMT-0500 (Central Daylight Time),508589.2999999998,A,gre,O,e,91,1,982.5,507606.7999999998,7028,WL,B,13.0
4,28.058000087738037,learn,31941.999912261963,Mon Oct 28 2024 16:12:54 GMT-0500 (Central Daylight Time),509156.2000000002,A,gr,O,backspace,552,1,1549.4000000003725,507606.7999999998,7028,WL,B,13.0
4,28.324000120162964,learn,31675.999879837036,Mon Oct 28 2024 16:12:54 GMT-0500 (Central Daylight Time),509422.9000000004,A,gra,O,a,257,1,1816.1000000005588,507606.7999999998,7028,WL,B,13.0
4,28.723999977111816,learn,31276.000022888184,Mon Oct 28 2024 16:12:54 GMT-0500 (Central Daylight Time),509822.5,A,gras,O,s,382,1,2215.7000000001863,507606.7999999998,7028,WL,B,13.0
4,28.874000072479248,learn,31125.999927520752,Mon Oct 28 2024 16:12:54 GMT-0500 (Central Daylight Time),509972.7000000002,A,grass,O,s,143,1,2365.9000000003725,507606.7999999998,7028,WL,B,13.0
4,29.341000080108643,learn,30658.999919891357,Mon Oct 28 2024 16:12:54 GMT-0500 (Central Daylight Time),510439.4000000004,A,grassenter,O,enter,457,1,2832.600000000559,507606.7999999998,7028,WL,B,13.0
4,29.907000064849854,learn,30092.999935150146,Mon Oct 28 2024 16:12:54 GMT-0500 (Central Daylight Time),511005.7000000002,A,s,O,s,550,1,566.0999999996275,510439.60000000056,7028,WL,B,14.0
4,30.10700011253357,learn,29892.99988746643,Mon Oct 28 2024 16:12:54 GMT-0500 (Central Daylight Time),511205.60000000056,A,st,O,t,192,1,766.0,510439.60000000056,7028,WL,B,14.0
4,30.374000072479248,learn,29625.999927520752,Mon Oct 28 2024 16:12:54 GMT-0500 (Central Daylight Time),511472.0,A,str,O,r,248,1,1032.3999999994412,510439.60000000056,7028,WL,B,14.0
4,30.707000017166138,learn,29292.999982833862,Mon Oct 28 2024 16:12:54 GMT-0500 (Central Daylight Time),511805.60000000056,A,stre,O,e,325,1,1366.0,510439.60000000056,7028,WL,B,14.0
4,30.85700011253357,learn,29142.99988746643,Mon Oct 28 2024 16:12:54 GMT-0500 (Central Daylight Time),511955.4000000004,A,stree,O,e,144,1,1515.7999999998137,510439.60000000056,7028,WL,B,14.0
4,31.074000120162964,learn,28925.999879837036,Mon Oct 28 2024 16:12:54 GMT-0500 (Central Daylight Time),512172.10000000056,A,street,O,t,202,1,1732.5,510439.60000000056,7028,WL,B,14.0
4,31.27300000190735,learn,28726.99999809265,Mon Oct 28 2024 16:12:54 GMT-0500 (Central Daylight Time),512371.9000000004,A,streetenter,O,enter,194,1,1932.2999999998137,510439.60000000056,7028,WL,B,14.0
4,31.67300009727478,learn,28326.99990272522,Mon Oct 28 2024 16:12:54 GMT-0500 (Central Daylight Time),512771.60000000056,A,d,O,d,386,1,399.40000000037253,512372.2000000002,7028,WL,B,15.0
4,31.957000017166138,learn,28042.999982833862,Mon Oct 28 2024 16:12:54 GMT-0500 (Central Daylight Time),513055.0,A,do,O,o,265,1,682.7999999998137,512372.2000000002,7028,WL,B,15.0
4,32.10800004005432,learn,27891.99995994568,Mon Oct 28 2024 16:12:54 GMT-0500 (Central Daylight Time),513206.2000000002,A,doo,O,o,135,1,834.0,512372.2000000002,7028,WL,B,15.0
4,32.223999977111816,learn,27776.000022888184,Mon Oct 28 2024 16:12:54 GMT-0500 (Central Daylight Time),513322.7000000002,A,door,O,r,95,1,950.5,512372.2000000002,7028,WL,B,15.0
4,32.67300009727478,learn,27326.99990272522,Mon Oct 28 2024 16:12:54 GMT-0500 (Central Daylight Time),513771.5,A,doorenter,O,enter,435,1,1399.2999999998137,512372.2000000002,7028,WL,B,15.0
5,1.0169999599456787,learn,60000.0,Mon Oct 28 2024 16:12:54 GMT-0500 (Central Daylight Time),594629.4000000004,A,c,O,c,1001,1,1016.4000000003725,593613.0,7028,WL,B,1.0
5,1.0999999046325684,learn,60000.0,Mon Oct 28 2024 16:12:54 GMT-0500 (Central Daylight Time),594712.7999999998,A,ci,O,i,71,1,1099.7999999998137,593613.0,7028,WL,B,1.0
5,1.3509998321533203,learn,60000.0,Mon Oct 28 2024 16:12:54 GMT-0500 (Central Daylight Time),594963.6000000006,A,cit,O,t,244,1,1350.6000000005588,593613.0,7028,WL,B,1.0
5,1.5,learn,60000.0,Mon Oct 28 2024 16:12:54 GMT-0500 (Central Daylight Time),595112.4000000004,A,city,O,y,137,1,1499.4000000003725,593613.0,7028,WL,B,1.0
5,1.8659999370574951,learn,60000.0,Mon Oct 28 2024 16:12:54 GMT-0500 (Central Daylight Time),595479.1000000006,A,cityenter,O,enter,349,1,1866.1000000005588,593613.0,7028,WL,B,1.0
5,2.4159998893737793,learn,60000.0,Mon Oct 28 2024 16:12:54 GMT-0500 (Central Daylight Time),596029.0,A,p,O,p,542,1,549.5999999996275,595479.4000000004,7028,WL,B,2.0
5,2.615999937057495,learn,60000.0,Mon Oct 28 2024 16:12:54 GMT-0500 (Central Daylight Time),596228.7000000002,A,pu,O,u,185,1,749.2999999998137,595479.4000000004,7028,WL,B,2.0
5,2.865999937057495,learn,60000.0,Mon Oct 28 2024 16:12:54 GMT-0500 (Central Daylight Time),596478.7999999998,A,pup,O,p,232,1,999.3999999994412,595479.4000000004,7028,WL,B,2.0
5,3.315999984741211,learn,60000.0,Mon Oct 28 2024 16:12:54 GMT-0500 (Central Daylight Time),596928.7000000002,A,pupi,O,i,430,1,1449.2999999998137,595479.4000000004,7028,WL,B,2.0
5,3.5319998264312744,learn,60000.0,Mon Oct 28 2024 16:12:54 GMT-0500 (Central Daylight Time),597145.2999999998,A,pupil,O,l,204,1,1665.8999999994412,595479.4000000004,7028,WL,B,2.0
5,3.815999984741211,learn,60000.0,Mon Oct 28 2024 16:12:54 GMT-0500 (Central Daylight Time),597428.6000000006,A,pupilenter,O,enter,267,1,1949.2000000001863,595479.4000000004,7028,WL,B,2.0
5,4.198999881744385,learn,60000.0,Mon Oct 28 2024 16:12:54 GMT-0500 (Central Daylight Time),597811.9000000004,A,p,O,p,369,1,383.0,597428.9000000004,7028,WL,B,3.0
5,4.415999889373779,learn,60000.0,Mon Oct 28 2024 16:12:54 GMT-0500 (Central Daylight Time),598028.4000000004,A,pi,O,i,210,1,599.5,597428.9000000004,7028,WL,B,3.0
5,4.615000009536743,learn,60000.0,Mon Oct 28 2024 16:12:54 GMT-0500 (Central Daylight Time),598228.2999999998,A,pip,O,p,192,1,799.3999999994412,597428.9000000004,7028,WL,B,3.0
5,5.048999786376953,learn,60000.0,Mon Oct 28 2024 16:12:54 GMT-0500 (Central Daylight Time),598661.4000000004,A,pipe,O,e,424,1,1232.5,597428.9000000004,7028,WL,B,3.0
5,5.365000009536743,learn,60000.0,Mon Oct 28 2024 16:12:54 GMT-0500 (Central Daylight Time),598977.9000000004,A,pipeenter,O,enter,311,1,1549.0,597428.9000000004,7028,WL,B,3.0
5,5.7129998207092285,learn,60000.0,Mon Oct 28 2024 16:12:54 GMT-0500 (Central Daylight Time),599325.7999999998,A,s,O,s,327,1,347.59999999962747,598978.2000000002,7028,WL,B,4.0
5,5.799999952316284,learn,60000.0,Mon Oct 28 2024 16:12:54 GMT-0500 (Central Daylight Time),599412.9000000004,A,sk,O,k,70,1,434.70000000018626,598978.2000000002,7028,WL,B,4.0
5,5.980999946594238,learn,60000.0,Mon Oct 28 2024 16:12:54 GMT-0500 (Central Daylight Time),599594.1000000006,A,ski,O,i,176,1,615.9000000003725,598978.2000000002,7028,WL,B,4.0
5,6.115999937057495,learn,60000.0,Mon Oct 28 2024 16:12:54 GMT-0500 (Central Daylight Time),599728.9000000004,A,skin,O,n,123,1,750.7000000001863,598978.2000000002,7028,WL,B,4.0
5,6.447999954223633,learn,60000.0,Mon Oct 28 2024 16:12:54 GMT-0500 (Central Daylight Time),600061.0,A,skinenter,O,enter,316,1,1082.7999999998137,598978.2000000002,7028,WL,B,4.0
5,6.763999938964844,learn,60000.0,Mon Oct 28 2024 16:12:54 GMT-0500 (Central Daylight Time),600377.7000000002,A,c,O,c,312,1,316.29999999981374,600061.4000000004,7028,WL,B,5.0
5,6.880999803543091,learn,60000.0,Mon Oct 28 2024 16:12:54 GMT-0500 (Central Daylight Time),600494.2999999998,A,cl,O,l,107,1,432.8999999994412,600061.4000000004,7028,WL,B,5.0
5,7.113999843597412,learn,60000.0,Mon Oct 28 2024 16:12:54 GMT-0500 (Central Daylight Time),600727.5,A,clo,O,o,222,1,666.0999999996275,600061.4000000004,7028,WL,B,5.0
5,7.680999994277954,learn,60000.0,Mon Oct 28 2024 16:12:54 GMT-0500 (Central Daylight Time),601294.1000000006,A,cloc,O,c,558,1,1232.7000000001863,600061.4000000004,7028,WL,B,5.0
5,8.313999891281128,learn,60000.0,Mon Oct 28 2024 16:12:54 GMT-0500 (Central Daylight Time),601927.1000000006,A,clock,O,k,615,1,1865.7000000001863,600061.4000000004,7028,WL,B,5.0
5,8.71399998664856,learn,60000.0,Mon Oct 28 2024 16:12:54 GMT-0500 (Central Daylight Time),602326.9000000004,A,clockenter,O,enter,382,1,2265.5,600061.4000000004,7028,WL,B,5.0
5,10.230000019073486,learn,60000.0,Mon Oct 28 2024 16:12:54 GMT-0500 (Central Daylight Time),603843.1000000006,A,c,O,c,1510,1,1515.9000000003725,602327.2000000002,7028,WL,B,6.0
5,10.412999868392944,learn,60000.0,Mon Oct 28 2024 16:12:54 GMT-0500 (Central Daylight Time),604026.5,A,ca,O,a,170,1,1699.2999999998137,602327.2000000002,7028,WL,B,6.0
5,10.645999908447266,learn,60000.0,Mon Oct 28 2024 16:12:54 GMT-0500 (Central Daylight Time),604259.6000000006,A,cab,O,b,219,1,1932.4000000003725,602327.2000000002,7028,WL,B,6.0
5,10.77899980545044,learn,60000.0,Mon Oct 28 2024 16:12:54 GMT-0500 (Central Daylight Time),604392.7999999998,A,cabi,O,i,122,1,2065.5999999996275,602327.2000000002,7028,WL,B,6.0
5,10.912999868392944,learn,60000.0,Mon Oct 28 2024 16:12:54 GMT-0500 (Central Daylight Time),604526.2999999998,A,cabin,O,n,116,1,2199.0999999996275,602327.2000000002,7028,WL,B,6.0
5,11.296000003814697,learn,60000.0,Mon Oct 28 2024 16:12:54 GMT-0500 (Central Daylight Time),604909.6000000006,A,cabinenter,O,enter,375,1,2582.4000000003725,602327.2000000002,7028,WL,B,6.0
5,12.51199984550476,learn,60000.0,Mon Oct 28 2024 16:12:54 GMT-0500 (Central Daylight Time),606125.7999999998,A,f,O,f,1207,1,1215.8999999994412,604909.9000000004,7028,WL,B,7.0
5,12.595999956130981,learn,60000.0,Mon Oct 28 2024 16:12:54 GMT-0500 (Central Daylight Time),606209.1000000006,A,fi,O,i,63,1,1299.2000000001863,604909.9000000004,7028,WL,B,7.0
5,12.728999853134155,learn,60000.0,Mon Oct 28 2024 16:12:54 GMT-0500 (Central Daylight Time),606342.6000000006,A,fir,O,r,116,1,1432.7000000001863,604909.9000000004,7028,WL,B,7.0
5,12.978999853134155,learn,60000.0,Mon Oct 28 2024 16:12:54 GMT-0500 (Central Daylight Time),606592.2000000002,A,fire,O,e,230,1,1682.2999999998137,604909.9000000004,7028,WL,B,7.0
5,13.128999948501587,learn,60000.0,Mon Oct 28 2024 16:12:54 GMT-0500 (Central Daylight Time),606742.5,A,fireenter,O,enter,132,1,1832.5999999996275,604909.9000000004,7028,WL,B,7.0
5,13.561999797821045,learn,60000.0,Mon Oct 28 2024 16:12:54 GMT-0500 (Central Daylight Time),607175.5,A,l,O,l,414,1,432.70000000018626,606742.7999999998,7028,WL,B,8.0
5,13.678999900817871,learn,60000.0,Mon Oct 28 2024 16:12:54 GMT-0500 (Central Daylight Time),607292.0,A,la,O,a,102,1,549.2000000001863,606742.7999999998,7028,WL,B,8.0
5,13.811999797821045,learn,60000.0,Mon Oct 28 2024 16:12:54 GMT-0500 (Central Daylight Time),607425.4000000004,A,lak,O,k,113,1,682.6000000005588,606742.7999999998,7028,WL,B,8.0
5,13.911999940872192,learn,60000.0,Mon Oct 28 2024 16:12:54 GMT-0500 (Central Daylight Time),607525.2999999998,A,lake,O,e,93,1,782.5,606742.7999999998,7028,WL,B,8.0
5,14.244999885559082,learn,60000.0,Mon Oct 28 2024 16:12:54 GMT-0500 (Central Daylight Time),607858.5,A,lakeenter,O,enter,319,1,1115.7000000001863,606742.7999999998,7028,WL,B,8.0
5,15.59499979019165,learn,60000.0,Mon Oct 28 2024 16:12:54 GMT-0500 (Central Daylight Time),609208.1000000006,A,s,O,s,1338,1,1349.300000000745,607858.7999999998,7028,WL,B,9.0
5,16.044999837875366,learn,60000.0,Mon Oct 28 2024 16:12:54 GMT-0500 (Central Daylight Time),609657.9000000004,A,,O,backspace,446,1,1799.1000000005588,607858.7999999998,7028,WL,B,9.0
5,17.16100001335144,learn,60000.0,Mon Oct 28 2024 16:12:54 GMT-0500 (Central Daylight Time),610774.4000000004,A,s,O,s,1107,1,2915.600000000559,607858.7999999998,7028,WL,B,9.0
5,17.393999814987183,learn,60000.0,Mon Oct 28 2024 16:12:54 GMT-0500 (Central Daylight Time),611007.4000000004,A,st,O,t,222,1,3148.600000000559,607858.7999999998,7028,WL,B,9.0
5,17.66100001335144,learn,60000.0,Mon Oct 28 2024 16:12:54 GMT-0500 (Central Daylight Time),611274.2000000002,A,str,O,r,253,1,3415.4000000003725,607858.7999999998,7028,WL,B,9.0
5,17.977999925613403,learn,60000.0,Mon Oct 28 2024 16:12:54 GMT-0500 (Central Daylight Time),611591.0,A,stre,O,e,307,1,3732.2000000001863,607858.7999999998,7028,WL,B,9.0
5,18.143999814987183,learn,60000.0,Mon Oct 28 2024 16:12:54 GMT-0500 (Central Daylight Time),611757.4000000004,A,stree,O,e,158,1,3898.600000000559,607858.7999999998,7028,WL,B,9.0
5,18.293999910354614,learn,60000.0,Mon Oct 28 2024 16:12:54 GMT-0500 (Central Daylight Time),611907.2999999998,A,street,O,t,143,1,4048.5,607858.7999999998,7028,WL,B,9.0
5,18.643999814987183,learn,60000.0,Mon Oct 28 2024 16:12:54 GMT-0500 (Central Daylight Time),612257.1000000006,A,streetenter,O,enter,339,1,4398.300000000745,607858.7999999998,7028,WL,B,9.0
5,19.72699999809265,learn,60000.0,Mon Oct 28 2024 16:12:54 GMT-0500 (Central Daylight Time),613340.1000000006,A,g,O,g,1077,1,1082.7000000001863,612257.4000000004,7028,WL,B,10.0
5,19.97699999809265,learn,60000.0,Mon Oct 28 2024 16:12:54 GMT-0500 (Central Daylight Time),613590.2000000002,A,gr,O,r,232,1,1332.7999999998137,612257.4000000004,7028,WL,B,10.0
5,20.109999895095825,learn,60000.0,Mon Oct 28 2024 16:12:54 GMT-0500 (Central Daylight Time),613723.2999999998,A,gra,O,a,127,1,1465.8999999994412,612257.4000000004,7028,WL,B,10.0
5,20.444000005722046,learn,60000.0,Mon Oct 28 2024 16:12:54 GMT-0500 (Central Daylight Time),614057.7000000002,A,gras,O,s,313,1,1800.2999999998137,612257.4000000004,7028,WL,B,10.0
5,20.57699990272522,learn,60000.0,Mon Oct 28 2024 16:12:54 GMT-0500 (Central Daylight Time),614189.9000000004,A,grass,O,s,123,1,1932.5,612257.4000000004,7028,WL,B,10.0
5,20.84499979019165,learn,60000.0,Mon Oct 28 2024 16:12:54 GMT-0500 (Central Daylight Time),614457.9000000004,A,grassenter,O,enter,256,1,2200.5,612257.4000000004,7028,WL,B,10.0
5,21.209999799728394,learn,60000.0,Mon Oct 28 2024 16:12:54 GMT-0500 (Central Daylight Time),614823.1000000006,A,d,O,d,355,1,365.0,614458.1000000006,7028,WL,B,11.0
5,21.492999792099,learn,60000.0,Mon Oct 28 2024 16:12:54 GMT-0500 (Central Daylight Time),615106.4000000004,A,do,O,o,270,1,648.2999999998137,614458.1000000006,7028,WL,B,11.0
5,21.64299988746643,learn,60000.0,Mon Oct 28 2024 16:12:54 GMT-0500 (Central Daylight Time),615256.2000000002,A,doo,O,o,139,1,798.0999999996275,614458.1000000006,7028,WL,B,11.0
5,21.825999975204468,learn,60000.0,Mon Oct 28 2024 16:12:54 GMT-0500 (Central Daylight Time),615439.6000000006,A,door,O,r,164,1,981.5,614458.1000000006,7028,WL,B,11.0
5,22.042999982833862,learn,60000.0,Mon Oct 28 2024 16:12:54 GMT-0500 (Central Daylight Time),615656.2000000002,A,doorenter,O,enter,197,1,1198.0999999996275,614458.1000000006,7028,WL,B,11.0
5,22.342999935150146,learn,60000.0,Mon Oct 28 2024 16:12:54 GMT-0500 (Central Daylight Time),615956.0,A,a,O,a,293,1,299.59999999962747,615656.4000000004,7028,WL,B,12.0
5,22.542999982833862,learn,60000.0,Mon Oct 28 2024 16:12:54 GMT-0500 (Central Daylight Time),616156.1000000006,A,ar,O,r,185,1,499.70000000018626,615656.4000000004,7028,WL,B,12.0
5,22.692999839782715,learn,60000.0,Mon Oct 28 2024 16:12:54 GMT-0500 (Central Daylight Time),616306.1000000006,A,arm,O,m,136,1,649.7000000001863,615656.4000000004,7028,WL,B,12.0
5,23.075999975204468,learn,60000.0,Mon Oct 28 2024 16:12:54 GMT-0500 (Central Daylight Time),616689.0,A,armenter,O,enter,363,1,1032.5999999996275,615656.4000000004,7028,WL,B,12.0
5,23.79199981689453,learn,60000.0,Mon Oct 28 2024 16:12:54 GMT-0500 (Central Daylight Time),617405.5,A,w,O,w,708,1,716.0999999996275,616689.4000000004,7028,WL,B,13.0
5,23.89199995994568,learn,60000.0,Mon Oct 28 2024 16:12:54 GMT-0500 (Central Daylight Time),617505.7000000002,A,wi,O,i,95,1,816.2999999998137,616689.4000000004,7028,WL,B,13.0
5,24.05900001525879,learn,60000.0,Mon Oct 28 2024 16:12:54 GMT-0500 (Central Daylight Time),617672.2999999998,A,wif,O,f,155,1,982.8999999994412,616689.4000000004,7028,WL,B,13.0
5,24.30900001525879,learn,60000.0,Mon Oct 28 2024 16:12:54 GMT-0500 (Central Daylight Time),617922.2999999998,A,wife,O,e,230,1,1232.8999999994412,616689.4000000004,7028,WL,B,13.0
5,24.64199995994568,learn,60000.0,Mon Oct 28 2024 16:12:54 GMT-0500 (Central Daylight Time),618255.4000000004,A,wifeenter,O,enter,323,1,1566.0,616689.4000000004,7028,WL,B,13.0
5,25.307999849319458,learn,60000.0,Mon Oct 28 2024 16:12:54 GMT-0500 (Central Daylight Time),618921.7000000002,A,s,O,s,661,1,666.0999999996275,618255.6000000006,7028,WL,B,14.0
5,25.441999912261963,learn,60000.0,Mon Oct 28 2024 16:12:54 GMT-0500 (Central Daylight Time),619054.9000000004,A,st,O,t,123,1,799.2999999998137,618255.6000000006,7028,WL,B,14.0
5,25.70799994468689,learn,60000.0,Mon Oct 28 2024 16:12:54 GMT-0500 (Central Daylight Time),619321.7999999998,A,sta,O,a,262,1,1066.199999999255,618255.6000000006,7028,WL,B,14.0
5,25.79199981689453,learn,60000.0,Mon Oct 28 2024 16:12:54 GMT-0500 (Central Daylight Time),619404.9000000004,A,star,O,r,67,1,1149.2999999998137,618255.6000000006,7028,WL,B,14.0
5,27.12399983406067,learn,60000.0,Mon Oct 28 2024 16:12:54 GMT-0500 (Central Daylight Time),620737.6000000006,A,starenter,O,enter,1328,1,2482.0,618255.6000000006,7028,WL,B,14.0
5,31.4229998588562,learn,60000.0,Mon Oct 28 2024 16:12:54 GMT-0500 (Central Daylight Time),625036.6000000006,A,a,O,a,4283,1,4298.700000000186,620737.9000000004,7028,WL,B,15.0
5,31.60599994659424,learn,60000.0,Mon Oct 28 2024 16:12:54 GMT-0500 (Central Daylight Time),625219.7999999998,A,ar,O,r,168,1,4481.899999999441,620737.9000000004,7028,WL,B,15.0
5,31.905999898910522,learn,60000.0,Mon Oct 28 2024 16:12:54 GMT-0500 (Central Daylight Time),625519.6000000006,A,arm,O,m,281,1,4781.700000000186,620737.9000000004,7028,WL,B,15.0
5,32.288999795913696,learn,60000.0,Mon Oct 28 2024 16:12:54 GMT-0500 (Central Daylight Time),625902.7999999998,A,armenter,O,enter,366,1,5164.899999999441,620737.9000000004,7028,WL,B,15.0
6,1.5500001907348633,distr,58449.99980926514,Mon Oct 28 2024 16:12:54 GMT-0500 (Central Daylight Time),711192.6000000006,B,r,O,r,1530,1,1549.4000000003725,709643.2000000002,7028,WL,B,1.0
6,1.6660001277923584,distr,58333.99987220764,Mon Oct 28 2024 16:12:54 GMT-0500 (Central Daylight Time),711309.1000000006,B,ro,O,o,107,1,1665.9000000003725,709643.2000000002,7028,WL,B,1.0
6,1.8330001831054688,distr,58166.99981689453,Mon Oct 28 2024 16:12:54 GMT-0500 (Central Daylight Time),711475.7000000002,B,roc,O,c,159,1,1832.5,709643.2000000002,7028,WL,B,1.0
6,2.0160000324249268,distr,57983.99996757507,Mon Oct 28 2024 16:12:54 GMT-0500 (Central Daylight Time),711659.1000000006,B,rock,O,k,177,1,2015.9000000003725,709643.2000000002,7028,WL,B,1.0
6,2.3500001430511475,distr,57649.99985694885,Mon Oct 28 2024 16:12:54 GMT-0500 (Central Daylight Time),711992.5,B,rockenter,O,enter,321,1,2349.2999999998137,709643.2000000002,7028,WL,B,1.0
6,2.8330001831054688,distr,57166.99981689453,Mon Oct 28 2024 16:12:54 GMT-0500 (Central Daylight Time),712475.7000000002,B,c,O,c,476,1,483.0,711992.7000000002,7028,WL,B,2.0
6,3.065999984741211,distr,56934.00001525879,Mon Oct 28 2024 16:12:54 GMT-0500 (Central Daylight Time),712709.0,B,ce,O,e,226,1,716.2999999998137,711992.7000000002,7028,WL,B,2.0
6,3.2660000324249268,distr,56733.99996757507,Mon Oct 28 2024 16:12:54 GMT-0500 (Central Daylight Time),712908.9000000004,B,cel,O,l,192,1,916.2000000001863,711992.7000000002,7028,WL,B,2.0
6,3.3990001678466797,distr,56600.99983215332,Mon Oct 28 2024 16:12:54 GMT-0500 (Central Daylight Time),713042.2000000002,B,cell,O,l,120,1,1049.5,711992.7000000002,7028,WL,B,2.0
6,3.6500000953674316,distr,56349.99990463257,Mon Oct 28 2024 16:12:54 GMT-0500 (Central Daylight Time),713292.4000000004,B,cellenter,O,enter,234,1,1299.7000000001863,711992.7000000002,7028,WL,B,2.0
6,4.0329999923706055,distr,55967.000007629395,Mon Oct 28 2024 16:12:54 GMT-0500 (Central Daylight Time),713675.5,B,o,O,o,370,1,382.79999999981374,713292.7000000002,7028,WL,B,3.0
6,4.166000127792358,distr,55833.99987220764,Mon Oct 28 2024 16:12:54 GMT-0500 (Central Daylight Time),713808.6000000006,B,oc,O,c,113,1,515.9000000003725,713292.7000000002,7028,WL,B,3.0
6,4.466000080108643,distr,55533.99991989136,Mon Oct 28 2024 16:12:54 GMT-0500 (Central Daylight Time),714108.6000000006,B,oce,O,e,284,1,815.9000000003725,713292.7000000002,7028,WL,B,3.0
6,4.682000160217285,distr,55317.999839782715,Mon Oct 28 2024 16:12:54 GMT-0500 (Central Daylight Time),714325.1000000006,B,ocea,O,a,200,1,1032.4000000003725,713292.7000000002,7028,WL,B,3.0
6,4.8490002155303955,distr,55150.999784469604,Mon Oct 28 2024 16:12:54 GMT-0500 (Central Daylight Time),714491.7000000002,B,ocean,O,n,153,1,1199.0,713292.7000000002,7028,WL,B,3.0
6,5.116000175476074,distr,54883.999824523926,Mon Oct 28 2024 16:12:54 GMT-0500 (Central Daylight Time),714758.5,B,oceanenter,O,enter,249,1,1465.7999999998137,713292.7000000002,7028,WL,B,3.0
6,5.515000104904175,distr,54484.999895095825,Mon Oct 28 2024 16:12:54 GMT-0500 (Central Daylight Time),715158.4000000004,B,p,O,p,382,1,399.6000000005588,714758.7999999998,7028,WL,B,4.0
6,5.633000135421753,distr,54366.99986457825,Mon Oct 28 2024 16:12:54 GMT-0500 (Central Daylight Time),715275.7999999998,B,pa,O,a,111,1,517.0,714758.7999999998,7028,WL,B,4.0
6,5.8480000495910645,distr,54151.999950408936,Mon Oct 28 2024 16:12:54 GMT-0500 (Central Daylight Time),715491.0,B,pal,O,l,209,1,732.2000000001863,714758.7999999998,7028,WL,B,4.0
6,6.065000057220459,distr,53934.99994277954,Mon Oct 28 2024 16:12:54 GMT-0500 (Central Daylight Time),715708.2000000002,B,pala,O,a,202,1,949.4000000003725,714758.7999999998,7028,WL,B,4.0
6,6.182000160217285,distr,53817.999839782715,Mon Oct 28 2024 16:12:54 GMT-0500 (Central Daylight Time),715824.9000000004,B,palan,O,n,106,1,1066.1000000005588,714758.7999999998,7028,WL,B,4.0
6,6.6650002002716064,distr,53334.99979972839,Mon Oct 28 2024 16:12:54 GMT-0500 (Central Daylight Time),716307.7999999998,B,pala,O,backspace,477,1,1549.0,714758.7999999998,7028,WL,B,4.0
6,6.815000057220459,distr,53184.99994277954,Mon Oct 28 2024 16:12:54 GMT-0500 (Central Daylight Time),716457.7000000002,B,palac,O,c,130,1,1698.9000000003725,714758.7999999998,7028,WL,B,4.0
6,7.210000038146973,distr,52789.99996185303,Mon Oct 28 2024 16:12:54 GMT-0500 (Central Daylight Time),716852.7999999998,B,palace,O,e,390,1,2094.0,714758.7999999998,7028,WL,B,4.0
6,7.680999994277954,distr,52319.000005722046,Mon Oct 28 2024 16:12:54 GMT-0500 (Central Daylight Time),717324.2000000002,B,palaceenter,O,enter,455,1,2565.4000000003725,714758.7999999998,7028,WL,B,4.0
6,8.831000089645386,distr,51168.999910354614,Mon Oct 28 2024 16:12:54 GMT-0500 (Central Daylight Time),718474.1000000006,B,c,O,c,1130,1,1149.7000000001863,717324.4000000004,7028,WL,B,5.0
6,9.348000049591064,distr,50651.999950408936,Mon Oct 28 2024 16:12:54 GMT-0500 (Central Daylight Time),718990.4000000004,B,ca,O,a,506,1,1666.0,717324.4000000004,7028,WL,B,5.0
6,9.48200011253357,distr,50517.99988746643,Mon Oct 28 2024 16:12:54 GMT-0500 (Central Daylight Time),719124.5,B,cai,O,i,127,1,1800.0999999996275,717324.4000000004,7028,WL,B,5.0
6,9.63100004196167,distr,50368.99995803833,Mon Oct 28 2024 16:12:54 GMT-0500 (Central Daylight Time),719273.6000000006,B,cain,O,n,128,1,1949.2000000001863,717324.4000000004,7028,WL,B,5.0
6,10.047000169754028,distr,49952.99983024597,Mon Oct 28 2024 16:12:54 GMT-0500 (Central Daylight Time),719690.0,B,cai,O,backspace,412,1,2365.5999999996275,717324.4000000004,7028,WL,B,5.0
6,10.330000162124634,distr,49669.999837875366,Mon Oct 28 2024 16:12:54 GMT-0500 (Central Daylight Time),719973.4000000004,B,ca,O,backspace,267,1,2649.0,717324.4000000004,7028,WL,B,5.0
6,10.53000020980835,distr,49469.99979019165,Mon Oct 28 2024 16:12:54 GMT-0500 (Central Daylight Time),720173.2999999998,B,c,O,backspace,183,1,2848.899999999441,717324.4000000004,7028,WL,B,5.0
6,10.797000169754028,distr,49202.99983024597,Mon Oct 28 2024 16:12:54 GMT-0500 (Central Daylight Time),720439.9000000004,B,co,O,o,247,1,3115.5,717324.4000000004,7028,WL,B,5.0
6,11.047000169754028,distr,48952.99983024597,Mon Oct 28 2024 16:12:54 GMT-0500 (Central Daylight Time),720689.7999999998,B,con,O,n,245,1,3365.399999999441,717324.4000000004,7028,WL,B,5.0
6,11.597000122070312,distr,48402.99987792969,Mon Oct 28 2024 16:12:54 GMT-0500 (Central Daylight Time),721239.6000000006,B,co,O,backspace,531,1,3915.2000000001863,717324.4000000004,7028,WL,B,5.0
6,11.84600019454956,distr,48153.99980545044,Mon Oct 28 2024 16:12:54 GMT-0500 (Central Daylight Time),721489.4000000004,B,coi,O,i,230,1,4165.0,717324.4000000004,7028,WL,B,5.0
6,11.963000059127808,distr,48036.99994087219,Mon Oct 28 2024 16:12:54 GMT-0500 (Central Daylight Time),721606.2999999998,B,coin,O,n,107,1,4281.899999999441,717324.4000000004,7028,WL,B,5.0
6,12.296000003814697,distr,47703.9999961853,Mon Oct 28 2024 16:12:54 GMT-0500 (Central Daylight Time),721939.5,B,coinenter,O,enter,326,1,4615.0999999996275,717324.4000000004,7028,WL,B,5.0
6,12.847000122070312,distr,47152.99987792969,Mon Oct 28 2024 16:12:54 GMT-0500 (Central Daylight Time),722489.9000000004,B,b,O,b,546,1,550.0,721939.9000000004,7028,WL,B,6.0
6,13.063000202178955,distr,46936.999797821045,Mon Oct 28 2024 16:12:54 GMT-0500 (Central Daylight Time),722705.6000000006,B,ba,O,a,211,1,765.7000000001863,721939.9000000004,7028,WL,B,6.0
6,13.229000091552734,distr,46770.999908447266,Mon Oct 28 2024 16:12:54 GMT-0500 (Central Daylight Time),722872.4000000004,B,bab,O,b,148,1,932.5,721939.9000000004,7028,WL,B,6.0
6,13.546000003814697,distr,46453.9999961853,Mon Oct 28 2024 16:12:54 GMT-0500 (Central Daylight Time),723189.0,B,baby,O,y,301,1,1249.0999999996275,721939.9000000004,7028,WL,B,6.0
6,14.328999996185303,distr,45671.0000038147,Mon Oct 28 2024 16:12:54 GMT-0500 (Central Daylight Time),723972.1000000006,B,babyenter,O,enter,776,1,2032.2000000001863,721939.9000000004,7028,WL,B,6.0
6,15.26200008392334,distr,44737.99991607666,Mon Oct 28 2024 16:12:54 GMT-0500 (Central Daylight Time),724905.2000000002,B,o,O,o,913,1,932.7999999998137,723972.4000000004,7028,WL,B,7.0
6,15.328999996185303,distr,44671.0000038147,Mon Oct 28 2024 16:12:54 GMT-0500 (Central Daylight Time),724971.9000000004,B,oc,O,c,59,1,999.5,723972.4000000004,7028,WL,B,7.0
6,15.628000020980835,distr,44371.999979019165,Mon Oct 28 2024 16:12:54 GMT-0500 (Central Daylight Time),725271.6000000006,B,oce,O,e,289,1,1299.2000000001863,723972.4000000004,7028,WL,B,7.0
6,15.878000020980835,distr,44121.999979019165,Mon Oct 28 2024 16:12:54 GMT-0500 (Central Daylight Time),725521.5,B,ocea,O,a,229,1,1549.0999999996275,723972.4000000004,7028,WL,B,7.0
6,15.978000164031982,distr,44021.99983596802,Mon Oct 28 2024 16:12:54 GMT-0500 (Central Daylight Time),725621.5,B,ocean,O,n,91,1,1649.0999999996275,723972.4000000004,7028,WL,B,7.0
6,16.880000114440918,distr,43119.99988555908,Mon Oct 28 2024 16:12:54 GMT-0500 (Central Daylight Time),726522.6000000006,B,oceanenter,O,enter,887,1,2550.2000000001863,723972.4000000004,7028,WL,B,7.0
6,17.24500012397766,distr,42754.99987602234,Mon Oct 28 2024 16:12:54 GMT-0500 (Central Daylight Time),726887.9000000004,B,b,O,b,354,1,365.0,726522.9000000004,7028,WL,B,8.0
6,17.4280002117157,distr,42571.9997882843,Mon Oct 28 2024 16:12:54 GMT-0500 (Central Daylight Time),727071.1000000006,B,bu,O,u,165,1,548.2000000001863,726522.9000000004,7028,WL,B,8.0
6,17.611000061035156,distr,42388.999938964844,Mon Oct 28 2024 16:12:54 GMT-0500 (Central Daylight Time),727254.4000000004,B,bui,O,i,166,1,731.5,726522.9000000004,7028,WL,B,8.0
6,17.82800006866455,distr,42171.99993133545,Mon Oct 28 2024 16:12:54 GMT-0500 (Central Daylight Time),727471.2000000002,B,buil,O,l,207,1,948.2999999998137,726522.9000000004,7028,WL,B,8.0
6,18.194000005722046,distr,41805.999994277954,Mon Oct 28 2024 16:12:54 GMT-0500 (Central Daylight Time),727837.4000000004,B,build,O,d,358,1,1314.5,726522.9000000004,7028,WL,B,8.0
6,18.378000020980835,distr,41621.999979019165,Mon Oct 28 2024 16:12:54 GMT-0500 (Central Daylight Time),728020.7999999998,B,buildi,O,i,176,1,1497.8999999994412,726522.9000000004,7028,WL,B,8.0
6,18.511000156402588,distr,41488.99984359741,Mon Oct 28 2024 16:12:54 GMT-0500 (Central Daylight Time),728154.0,B,buildin,O,n,120,1,1631.0999999996275,726522.9000000004,7028,WL,B,8.0
6,18.64400005340576,distr,41355.99994659424,Mon Oct 28 2024 16:12:54 GMT-0500 (Central Daylight Time),728287.4000000004,B,building,O,g,114,1,1764.5,726522.9000000004,7028,WL,B,8.0
6,19.344000101089478,distr,40655.99989891052,Mon Oct 28 2024 16:12:54 GMT-0500 (Central Daylight Time),728987.2000000002,B,buildingenter,O,enter,686,1,2464.2999999998137,726522.9000000004,7028,WL,B,8.0
6,31.341000080108643,distr,28658.999919891357,Mon Oct 28 2024 16:12:54 GMT-0500 (Central Daylight Time),740983.5,B,enter,O,enter,11977,1,11996.0,728987.5,7028,WL,B,9.0
6,31.69000005722046,distr,28309.99994277954,Mon Oct 28 2024 16:12:54 GMT-0500 (Central Daylight Time),741333.2999999998,B,enter,O,enter,333,1,349.29999999981374,740984.0,7028,WL,B,10.0
6,31.907000064849854,distr,28092.999935150146,Mon Oct 28 2024 16:12:54 GMT-0500 (Central Daylight Time),741549.7999999998,B,enter,O,enter,201,1,216.09999999962747,741333.7000000002,7028,WL,B,11.0
6,32.27400016784668,distr,27725.99983215332,Mon Oct 28 2024 16:12:54 GMT-0500 (Central Daylight Time),741916.6000000006,B,enter,O,enter,351,1,366.40000000037253,741550.2000000002,7028,WL,B,12.0
6,32.473000049591064,distr,27526.999950408936,Mon Oct 28 2024 16:12:54 GMT-0500 (Central Daylight Time),742116.5,B,enter,O,enter,192,1,199.5,741917.0,7028,WL,B,13.0
6,32.82300019264221,distr,27176.999807357788,Mon Oct 28 2024 16:12:54 GMT-0500 (Central Daylight Time),742466.2999999998,B,enter,O,enter,337,1,349.5,742116.7999999998,7028,WL,B,14.0
6,33.52300000190735,distr,26476.99999809265,Mon Oct 28 2024 16:12:54 GMT-0500 (Central Daylight Time),743166.1000000006,B,enter,O,enter,690,1,699.5,742466.6000000006,7028,WL,B,15.0
7,1.25,immed,58750.0,Mon Oct 28 2024 16:12:54 GMT-0500 (Central Daylight Time),759777.6000000006,A,p,O,p,1245,1,1249.5,758528.1000000006,7028,WL,B,1.0
7,1.499000072479248,immed,58500.99992752075,Mon Oct 28 2024 16:12:54 GMT-0500 (Central Daylight Time),760027.5,A,pi,O,i,235,1,1499.3999999994412,758528.1000000006,7028,WL,B,1.0
7,1.7820000648498535,immed,58217.99993515015,Mon Oct 28 2024 16:12:54 GMT-0500 (Central Daylight Time),760310.5,A,pip,O,p,265,1,1782.3999999994412,758528.1000000006,7028,WL,B,1.0
7,2.1490001678466797,immed,57850.99983215332,Mon Oct 28 2024 16:12:54 GMT-0500 (Central Daylight Time),760677.2000000002,A,pipl,O,l,351,1,2149.0999999996275,758528.1000000006,7028,WL,B,1.0
7,2.7150001525878906,immed,57284.99984741211,Mon Oct 28 2024 16:12:54 GMT-0500 (Central Daylight Time),761243.2999999998,A,pip,O,backspace,560,1,2715.199999999255,758528.1000000006,7028,WL,B,1.0
7,3.0320000648498535,immed,56967.99993515015,Mon Oct 28 2024 16:12:54 GMT-0500 (Central Daylight Time),761560.2999999998,A,pipe,O,e,306,1,3032.199999999255,758528.1000000006,7028,WL,B,1.0
7,3.449000120162964,immed,56550.999879837036,Mon Oct 28 2024 16:12:54 GMT-0500 (Central Daylight Time),761977.1000000006,A,pipeenter,O,enter,396,1,3449.0,758528.1000000006,7028,WL,B,1.0
7,5.882000207901001,immed,54117.999792099,Mon Oct 28 2024 16:12:54 GMT-0500 (Central Daylight Time),764409.6000000006,A,c,O,c,2412,1,2432.300000000745,761977.2999999998,7028,WL,B,2.0
7,6.015000104904175,immed,53984.999895095825,Mon Oct 28 2024 16:12:54 GMT-0500 (Central Daylight Time),764542.7000000002,A,cl,O,l,115,1,2565.4000000003725,761977.2999999998,7028,WL,B,2.0
7,6.248000144958496,immed,53751.999855041504,Mon Oct 28 2024 16:12:54 GMT-0500 (Central Daylight Time),764776.2000000002,A,clo,O,o,214,1,2798.9000000003725,761977.2999999998,7028,WL,B,2.0
7,6.5980000495910645,immed,53401.999950408936,Mon Oct 28 2024 16:12:54 GMT-0500 (Central Daylight Time),765125.7999999998,A,cloc,O,c,341,1,3148.5,761977.2999999998,7028,WL,B,2.0
7,6.714000225067139,immed,53285.99977493286,Mon Oct 28 2024 16:12:54 GMT-0500 (Central Daylight Time),765242.2000000002,A,clock,O,k,111,1,3264.9000000003725,761977.2999999998,7028,WL,B,2.0
7,7.13100004196167,immed,52868.99995803833,Mon Oct 28 2024 16:12:54 GMT-0500 (Central Daylight Time),765658.9000000004,A,clockenter,O,enter,402,1,3681.600000000559,761977.2999999998,7028,WL,B,2.0
7,7.664000034332275,immed,52335.999965667725,Mon Oct 28 2024 16:12:54 GMT-0500 (Central Daylight Time),766192.2999999998,A,c,O,c,514,1,533.0999999996275,765659.2000000002,7028,WL,B,3.0
7,7.731000185012817,immed,52268.99981498718,Mon Oct 28 2024 16:12:54 GMT-0500 (Central Daylight Time),766259.0,A,ci,O,i,53,1,599.7999999998137,765659.2000000002,7028,WL,B,3.0
7,7.997000217437744,immed,52002.999782562256,Mon Oct 28 2024 16:12:54 GMT-0500 (Central Daylight Time),766525.4000000004,A,cit,O,t,258,1,866.2000000001863,765659.2000000002,7028,WL,B,3.0
7,8.130000114440918,immed,51869.99988555908,Mon Oct 28 2024 16:12:54 GMT-0500 (Central Daylight Time),766658.4000000004,A,city,O,y,128,1,999.2000000001863,765659.2000000002,7028,WL,B,3.0
7,8.614000082015991,immed,51385.99991798401,Mon Oct 28 2024 16:12:54 GMT-0500 (Central Daylight Time),767142.1000000006,A,cityenter,O,enter,474,1,1482.9000000003725,765659.2000000002,7028,WL,B,3.0
7,9.297000169754028,immed,50702.99983024597,Mon Oct 28 2024 16:12:54 GMT-0500 (Central Daylight Time),767824.9000000004,A,p,O,p,671,1,682.4000000003725,767142.5,7028,WL,B,4.0
7,9.514000177383423,immed,50485.99982261658,Mon Oct 28 2024 16:12:54 GMT-0500 (Central Daylight Time),768041.7000000002,A,pu,O,u,197,1,899.2000000001863,767142.5,7028,WL,B,4.0
7,9.714000225067139,immed,50285.99977493286,Mon Oct 28 2024 16:12:54 GMT-0500 (Central Daylight Time),768241.7000000002,A,pup,O,p,179,1,1099.2000000001863,767142.5,7028,WL,B,4.0
7,10.014000177383423,immed,49985.99982261658,Mon Oct 28 2024 16:12:54 GMT-0500 (Central Daylight Time),768541.6000000006,A,pupi,O,i,292,1,1399.1000000005588,767142.5,7028,WL,B,4.0
7,10.213000059127808,immed,49786.99994087219,Mon Oct 28 2024 16:12:54 GMT-0500 (Central Daylight Time),768741.6000000006,A,pupil,O,l,183,1,1599.1000000005588,767142.5,7028,WL,B,4.0
7,10.913000106811523,immed,49086.99989318848,Mon Oct 28 2024 16:12:54 GMT-0500 (Central Daylight Time),769441.2999999998,A,pupilenter,O,enter,679,1,2298.7999999998137,767142.5,7028,WL,B,4.0
7,12.611999988555908,immed,47388.00001144409,Mon Oct 28 2024 16:12:54 GMT-0500 (Central Daylight Time),771140.5,A,c,O,c,1692,1,1698.8999999994412,769441.6000000006,7028,WL,B,5.0
7,12.812000036239624,immed,47187.999963760376,Mon Oct 28 2024 16:12:54 GMT-0500 (Central Daylight Time),771340.4000000004,A,ca,O,a,185,1,1898.7999999998137,769441.6000000006,7028,WL,B,5.0
7,13.064000129699707,immed,46935.99987030029,Mon Oct 28 2024 16:12:54 GMT-0500 (Central Daylight Time),771591.7000000002,A,cab,O,b,232,1,2150.0999999996275,769441.6000000006,7028,WL,B,5.0
7,13.296000003814697,immed,46703.9999961853,Mon Oct 28 2024 16:12:54 GMT-0500 (Central Daylight Time),771823.7000000002,A,cabi,O,i,213,1,2382.0999999996275,769441.6000000006,7028,WL,B,5.0
7,13.412000179290771,immed,46587.99982070923,Mon Oct 28 2024 16:12:54 GMT-0500 (Central Daylight Time),771940.4000000004,A,cabin,O,n,110,1,2498.7999999998137,769441.6000000006,7028,WL,B,5.0
7,13.746000051498413,immed,46253.99994850159,Mon Oct 28 2024 16:12:54 GMT-0500 (Central Daylight Time),772273.7999999998,A,cabinenter,O,enter,312,1,2832.199999999255,769441.6000000006,7028,WL,B,5.0
7,14.26200008392334,immed,45737.99991607666,Mon Oct 28 2024 16:12:54 GMT-0500 (Central Daylight Time),772790.2000000002,A,f,O,f,499,1,516.0,772274.2000000002,7028,WL,B,6.0
7,14.361999988555908,immed,45638.00001144409,Mon Oct 28 2024 16:12:54 GMT-0500 (Central Daylight Time),772890.0,A,fi,O,i,86,1,615.7999999998137,772274.2000000002,7028,WL,B,6.0
7,14.545000076293945,immed,45454.999923706055,Mon Oct 28 2024 16:12:54 GMT-0500 (Central Daylight Time),773073.5,A,fir,O,r,162,1,799.2999999998137,772274.2000000002,7028,WL,B,6.0
7,14.645000219345093,immed,45354.99978065491,Mon Oct 28 2024 16:12:54 GMT-0500 (Central Daylight Time),773173.4000000004,A,fire,O,e,91,1,899.2000000001863,772274.2000000002,7028,WL,B,6.0
7,14.879000186920166,immed,45120.999813079834,Mon Oct 28 2024 16:12:54 GMT-0500 (Central Daylight Time),773406.6000000006,A,fireenter,O,enter,223,1,1132.4000000003725,772274.2000000002,7028,WL,B,6.0
7,16.478000164031982,immed,43521.99983596802,Mon Oct 28 2024 16:12:54 GMT-0500 (Central Daylight Time),775006.0,A,l,O,l,1591,1,1599.0,773407.0,7028,WL,B,7.0
7,16.59500002861023,immed,43404.99997138977,Mon Oct 28 2024 16:12:54 GMT-0500 (Central Daylight Time),775122.7000000002,A,la,O,a,110,1,1715.7000000001863,773407.0,7028,WL,B,7.0
7,16.729000091552734,immed,43270.999908447266,Mon Oct 28 2024 16:12:54 GMT-0500 (Central Daylight Time),775256.7999999998,A,lak,O,k,122,1,1849.7999999998137,773407.0,7028,WL,B,7.0
7,16.861000061035156,immed,43138.999938964844,Mon Oct 28 2024 16:12:54 GMT-0500 (Central Daylight Time),775389.4000000004,A,lake,O,e,116,1,1982.4000000003725,773407.0,7028,WL,B,7.0
7,17.16100001335144,immed,42838.99998664856,Mon Oct 28 2024 16:12:54 GMT-0500 (Central Daylight Time),775689.2000000002,A,lakeenter,O,enter,279,1,2282.2000000001863,773407.0,7028,WL,B,7.0
7,20.89300012588501,immed,39106.99987411499,Mon Oct 28 2024 16:12:54 GMT-0500 (Central Daylight Time),779421.5,A,w,O,w,3716,1,3731.899999999441,775689.6000000006,7028,WL,B,8.0
7,21.009999990463257,immed,38990.00000953674,Mon Oct 28 2024 16:12:54 GMT-0500 (Central Daylight Time),779537.7000000002,A,wi,O,i,103,1,3848.0999999996275,775689.6000000006,7028,WL,B,8.0
7,21.210000038146973,immed,38789.99996185303,Mon Oct 28 2024 16:12:54 GMT-0500 (Central Daylight Time),779737.7999999998,A,wif,O,f,180,1,4048.199999999255,775689.6000000006,7028,WL,B,8.0
7,21.41100001335144,immed,38588.99998664856,Mon Oct 28 2024 16:12:54 GMT-0500 (Central Daylight Time),779939.1000000006,A,wife,O,e,195,1,4249.5,775689.6000000006,7028,WL,B,8.0
7,21.610000133514404,immed,38389.999866485596,Mon Oct 28 2024 16:12:54 GMT-0500 (Central Daylight Time),780137.7000000002,A,wifeenter,O,enter,194,1,4448.0999999996275,775689.6000000006,7028,WL,B,8.0
7,22.16100001335144,immed,37838.99998664856,Mon Oct 28 2024 16:12:54 GMT-0500 (Central Daylight Time),780688.7999999998,A,w,O,w,531,1,550.7999999998137,780138.0,7028,WL,B,9.0
7,22.2260000705719,immed,37773.9999294281,Mon Oct 28 2024 16:12:54 GMT-0500 (Central Daylight Time),780754.0,A,wi,O,i,61,1,616.0,780138.0,7028,WL,B,9.0
7,22.37600016593933,immed,37623.99983406067,Mon Oct 28 2024 16:12:54 GMT-0500 (Central Daylight Time),780904.2999999998,A,win,O,n,140,1,766.2999999998137,780138.0,7028,WL,B,9.0
7,22.593000173568726,immed,37406.999826431274,Mon Oct 28 2024 16:12:54 GMT-0500 (Central Daylight Time),781120.9000000004,A,wind,O,d,205,1,982.9000000003725,780138.0,7028,WL,B,9.0
7,22.842000007629395,immed,37157.999992370605,Mon Oct 28 2024 16:12:54 GMT-0500 (Central Daylight Time),781370.7000000002,A,windo,O,o,244,1,1232.7000000001863,780138.0,7028,WL,B,9.0
7,23.326000213623047,immed,36673.99978637695,Mon Oct 28 2024 16:12:54 GMT-0500 (Central Daylight Time),781854.1000000006,A,window,O,w,466,1,1716.1000000005588,780138.0,7028,WL,B,9.0
7,23.576000213623047,immed,36423.99978637695,Mon Oct 28 2024 16:12:54 GMT-0500 (Central Daylight Time),782103.7999999998,A,windowenter,O,enter,231,1,1965.7999999998137,780138.0,7028,WL,B,9.0
7,23.843000173568726,immed,36156.999826431274,Mon Oct 28 2024 16:12:54 GMT-0500 (Central Daylight Time),782371.5,A,s,O,s,261,1,267.3999999994412,782104.1000000006,7028,WL,B,10.0
7,24.02500009536743,immed,35974.99990463257,Mon Oct 28 2024 16:12:54 GMT-0500 (Central Daylight Time),782553.7000000002,A,st,O,t,177,1,449.59999999962747,782104.1000000006,7028,WL,B,10.0
7,24.27500009536743,immed,35724.99990463257,Mon Oct 28 2024 16:12:54 GMT-0500 (Central Daylight Time),782803.7000000002,A,sta,O,a,236,1,699.5999999996275,782104.1000000006,7028,WL,B,10.0
7,24.325000047683716,immed,35674.999952316284,Mon Oct 28 2024 16:12:54 GMT-0500 (Central Daylight Time),782853.2999999998,A,star,O,r,41,1,749.1999999992549,782104.1000000006,7028,WL,B,10.0
7,24.776000022888184,immed,35223.99997711182,Mon Oct 28 2024 16:12:54 GMT-0500 (Central Daylight Time),783304.7000000002,A,starenter,O,enter,432,1,1200.5999999996275,782104.1000000006,7028,WL,B,10.0
7,26.407999992370605,immed,33592.000007629395,Mon Oct 28 2024 16:12:54 GMT-0500 (Central Daylight Time),784936.2999999998,A,d,O,d,1621,1,1631.2999999998137,783305.0,7028,WL,B,11.0
7,26.642000198364258,immed,33357.99980163574,Mon Oct 28 2024 16:12:54 GMT-0500 (Central Daylight Time),785169.7999999998,A,do,O,o,212,1,1864.7999999998137,783305.0,7028,WL,B,11.0
7,26.808000087738037,immed,33191.99991226196,Mon Oct 28 2024 16:12:54 GMT-0500 (Central Daylight Time),785336.1000000006,A,doo,O,o,147,1,2031.1000000005588,783305.0,7028,WL,B,11.0
7,26.925000190734863,immed,33074.99980926514,Mon Oct 28 2024 16:12:54 GMT-0500 (Central Daylight Time),785452.9000000004,A,door,O,r,101,1,2147.9000000003725,783305.0,7028,WL,B,11.0
7,27.141000032424927,immed,32858.99996757507,Mon Oct 28 2024 16:12:54 GMT-0500 (Central Daylight Time),785669.5,A,doorenter,O,enter,200,1,2364.5,783305.0,7028,WL,B,11.0
7,27.45800018310547,immed,32541.99981689453,Mon Oct 28 2024 16:12:54 GMT-0500 (Central Daylight Time),785985.9000000004,A,a,O,a,296,1,316.1000000005588,785669.7999999998,7028,WL,B,12.0
7,27.591000080108643,immed,32408.999919891357,Mon Oct 28 2024 16:12:54 GMT-0500 (Central Daylight Time),786119.2999999998,A,ar,O,r,124,1,449.5,785669.7999999998,7028,WL,B,12.0
7,27.725000143051147,immed,32274.999856948853,Mon Oct 28 2024 16:12:54 GMT-0500 (Central Daylight Time),786253.7000000002,A,arm,O,m,126,1,583.9000000003725,785669.7999999998,7028,WL,B,12.0
7,28.124000072479248,immed,31875.999927520752,Mon Oct 28 2024 16:12:54 GMT-0500 (Central Daylight Time),786652.5,A,armenter,O,enter,392,1,982.7000000001863,785669.7999999998,7028,WL,B,12.0
7,29.257000207901,immed,30742.999792099,Mon Oct 28 2024 16:12:54 GMT-0500 (Central Daylight Time),787785.2000000002,A,s,O,s,1113,1,1132.4000000003725,786652.7999999998,7028,WL,B,13.0
7,29.407000064849854,immed,30592.999935150146,Mon Oct 28 2024 16:12:54 GMT-0500 (Central Daylight Time),787935.4000000004,A,st,O,t,140,1,1282.6000000005588,786652.7999999998,7028,WL,B,13.0
7,29.657000064849854,immed,30342.999935150146,Mon Oct 28 2024 16:12:54 GMT-0500 (Central Daylight Time),788185.4000000004,A,str,O,r,237,1,1532.6000000005588,786652.7999999998,7028,WL,B,13.0
7,29.957000017166138,immed,30042.999982833862,Mon Oct 28 2024 16:12:54 GMT-0500 (Central Daylight Time),788485.4000000004,A,stre,O,e,291,1,1832.6000000005588,786652.7999999998,7028,WL,B,13.0
7,30.10800004005432,immed,29891.99995994568,Mon Oct 28 2024 16:12:54 GMT-0500 (Central Daylight Time),788636.2999999998,A,stree,O,e,136,1,1983.5,786652.7999999998,7028,WL,B,13.0
7,30.290000200271606,immed,29709.999799728394,Mon Oct 28 2024 16:12:54 GMT-0500 (Central Daylight Time),788818.2000000002,A,street,O,t,177,1,2165.4000000003725,786652.7999999998,7028,WL,B,13.0
