acc_sum,block_c,block_dur,condition,correct,correct_response,countdown,datetime,endtime,project,response,response_time,response_time_test1_response,response_time_test2_response,row_sel,same,session_number,start_end,starttime,stim1,stim2,subject_id,task,task_vers,time_test1,time_test2,trial
1,1,0.0,prac,1,z,30000.0,Tue Mar 18 2025 17:20:39 GMT-0500 (Central Daylight Time),35290.0,I,z,6390,,,6,yes,1,7910.9000000003725,27379.099999999627,CSDBFPHXZ,CSDBFPHXZ,8035,LC,C,,,1
2,1,0.0,prac,1,m,30000.0,Tue Mar 18 2025 17:20:39 GMT-0500 (Central Daylight Time),38388.799999999814,I,m,1563,,,1,no,1,3094.2999999998137,35294.5,RNV,FNV,8035,LC,C,,,2
3,1,0.0,prac,1,m,30000.0,Tue Mar 18 2025 17:20:39 GMT-0500 (Central Daylight Time),43170.5,I,m,3247,,,3,no,1,4776.4000000003725,38394.09999999963,QHZXPC,QHZWPC,8035,LC,C,,,3
4,1,0.0,prac,1,z,30000.0,Tue Mar 18 2025 17:20:39 GMT-0500 (Central Daylight Time),46286.09999999963,I,z,1587,,,4,yes,1,3111.4000000003725,43174.699999999255,RSM,RSM,8035,LC,C,,,4
5,1,0.0,prac,1,z,30000.0,Tue Mar 18 2025 17:20:39 GMT-0500 (Central Daylight Time),50386.0,I,z,2591,,,2,yes,1,4095.800000000745,46290.199999999255,NBGFSM,NBGFSM,8035,LC,C,,,5
6,1,0.0,prac,1,m,30000.0,Tue Mar 18 2025 17:20:39 GMT-0500 (Central Daylight Time),53600.59999999963,I,m,1691,,,5,no,1,3210.0999999996275,50390.5,LNDPRSKQB,LNDPRSJQB,8035,LC,C,,,6
1,1,1.4160001277923584,test,1,m,28583.99987220764,Tue Mar 18 2025 17:20:39 GMT-0500 (Central Daylight Time),63680.89999999944,I,m,1398,1398,,1,no,1,1413.5,62267.39999999944,HCF,RCF,8035,LC,C,60809,,1
2,1,4.748000144958496,test,1,m,25251.999855041504,Tue Mar 18 2025 17:20:39 GMT-0500 (Central Daylight Time),67013.19999999925,I,m,3325,3325,,2,no,1,3329.0,63684.199999999255,QTPRJX,QTPNJX,8035,LC,C,62226,,2
3,1,8.114000082015991,test,1,m,21885.99991798401,Tue Mar 18 2025 17:20:39 GMT-0500 (Central Daylight Time),70378.79999999981,I,m,3353,3353,,3,no,1,3362.4000000003725,67016.39999999944,MZDYGVGKQ,MZDYGLBKQ,8035,LC,C,65558,,3
4,1,9.59600019454956,test,1,m,20403.99980545044,Tue Mar 18 2025 17:20:39 GMT-0500 (Central Daylight Time),71861.39999999944,I,m,1467,1467,,4,no,1,1479.3999999994412,70382.0,FQTNMK,JQTNMK,8035,LC,C,68924,,4
5,1,10.92900013923645,test,1,z,19070.99986076355,Tue Mar 18 2025 17:20:39 GMT-0500 (Central Daylight Time),73194.5,I,z,1321,1321,,5,yes,1,1329.7000000001863,71864.79999999981,CLJ,CLJ,8035,LC,C,70406,,5
5,1,14.710999965667725,test,0,m,15289.000034332275,Tue Mar 18 2025 17:20:39 GMT-0500 (Central Daylight Time),76976.59999999963,I,z,3772,3772,,6,no,1,3778.9000000003725,73197.69999999925,JGDMNSVPW,JGZMNSVPW,8035,LC,C,71739,,6
6,1,18.544000148773193,test,1,z,11455.999851226807,Tue Mar 18 2025 17:20:39 GMT-0500 (Central Daylight Time),80808.79999999981,I,z,3814,3814,,7,yes,1,3828.9000000003725,76979.89999999944,FPTVHKCBJ,FPTVHKCBJ,8035,LC,C,75521,,7
7,1,20.14300012588501,test,1,m,9856.99987411499,Tue Mar 18 2025 17:20:39 GMT-0500 (Central Daylight Time),82408.29999999981,I,m,1589,1589,,8,no,1,1596.2999999998137,80812.0,XRPZBS,ZRPBDH,8035,LC,C,79354,,8
8,1,21.542999982833862,test,1,m,8457.000017166138,Tue Mar 18 2025 17:20:39 GMT-0500 (Central Daylight Time),83807.89999999944,I,m,1390,1390,,9,no,1,1396.0999999996275,82411.79999999981,ZSQ,ZSP,8035,LC,C,80953,,9
9,1,23.509000062942505,test,1,z,6490.999937057495,Tue Mar 18 2025 17:20:39 GMT-0500 (Central Daylight Time),85773.89999999944,I,z,1950,1950,,10,yes,1,1962.8999999994412,83811.0,MPZRXL,MPZRXL,8035,LC,C,82353,,10
10,1,24.842000007629395,test,1,m,5157.9999923706055,Tue Mar 18 2025 17:20:39 GMT-0500 (Central Daylight Time),87107.09999999963,I,m,1328,1328,,11,no,1,1330.0,85777.09999999963,KJH,KRH,8035,LC,C,84319,,11
11,1,29.006999969482422,test,1,z,993.0000305175781,Tue Mar 18 2025 17:20:39 GMT-0500 (Central Daylight Time),91272.0,I,z,4155,4155,,12,yes,1,4161.800000000745,87110.19999999925,SMNHVTFCB,SMNHVTFCB,8035,LC,C,85652,,12
11,1,30.006999969482422,test,0,z,-6.999969482421875,Tue Mar 18 2025 17:20:39 GMT-0500 (Central Daylight Time),92272.0,I,None,996,996,,13,yes,1,996.7000000001863,91275.29999999981,KJWTQF,KJWTQF,8035,LC,C,89817,,13
1,2,3.3380000591278076,test,1,z,26661.999940872192,Tue Mar 18 2025 17:20:39 GMT-0500 (Central Daylight Time),99269.59999999963,I,z,3322,,3322.0,1,yes,1,7994.299999999814,91275.29999999981,PRDBZTYFN,PRDBZTYFN,8035,LC,C,,94477.0,1
1,2,8.236000061035156,test,0,m,21763.999938964844,Tue Mar 18 2025 17:20:39 GMT-0500 (Central Daylight Time),104168.19999999925,I,z,4880,,4880.0,2,no,1,12892.899999999441,91275.29999999981,NCWJDZ,NCMJDZ,8035,LC,C,,97815.0,2
2,2,10.085000038146973,test,1,m,19914.999961853027,Tue Mar 18 2025 17:20:39 GMT-0500 (Central Daylight Time),106017.39999999944,I,m,1838,,1838.0,3,no,1,14742.099999999627,91275.29999999981,KHW,KBW,8035,LC,C,,102713.0,3
3,2,13.318000078201294,test,1,m,16681.999921798706,Tue Mar 18 2025 17:20:39 GMT-0500 (Central Daylight Time),109249.89999999944,I,m,3213,,3213.0,4,no,1,17974.599999999627,91275.29999999981,ZRBGMF,ZRBCMF,8035,LC,C,,104562.0,4
4,2,14.76800012588501,test,1,m,15231.99987411499,Tue Mar 18 2025 17:20:39 GMT-0500 (Central Daylight Time),110699.5,I,m,1436,,1436.0,5,no,1,19424.200000000186,91275.29999999981,BTH,BYH,8035,LC,C,,107795.0,5
5,2,17.700000047683716,test,1,z,12299.999952316284,Tue Mar 18 2025 17:20:39 GMT-0500 (Central Daylight Time),113631.69999999925,I,z,2923,,2923.0,6,yes,1,22356.39999999944,91275.29999999981,XWKQRYCNZ,XWKQRYCNZ,8035,LC,C,,109244.0,6
6,2,22.164000034332275,test,1,z,7835.999965667725,Tue Mar 18 2025 17:20:39 GMT-0500 (Central Daylight Time),118097.0,I,z,4447,,4447.0,7,yes,1,26821.700000000186,91275.29999999981,HNPDLK,HNPDLK,8035,LC,C,,112176.0,7
7,2,26.01200008392334,test,1,m,3987.99991607666,Tue Mar 18 2025 17:20:39 GMT-0500 (Central Daylight Time),121945.69999999925,I,m,3830,,3830.0,8,no,1,30670.39999999944,91275.29999999981,WMQTRSGLZ,WMQTRZGLZ,8035,LC,C,,116641.0,8
8,2,27.395999908447266,test,1,z,2604.0000915527344,Tue Mar 18 2025 17:20:39 GMT-0500 (Central Daylight Time),123328.89999999944,I,z,1365,,1365.0,9,yes,1,32053.599999999627,91275.29999999981,JPN,JPN,8035,LC,C,,120490.0,9
9,2,29.227999925613403,test,1,m,772.0000743865967,Tue Mar 18 2025 17:20:39 GMT-0500 (Central Daylight Time),125161.5,I,m,1822,,1822.0,10,no,1,33886.200000000186,91275.29999999981,QLXSVT,QLNSVT,8035,LC,C,,121873.0,10
9,2,30.01099991798401,test,0,z,-10.999917984008789,Tue Mar 18 2025 17:20:39 GMT-0500 (Central Daylight Time),125944.69999999925,I,None,779,,779.0,11,yes,1,34669.39999999944,91275.29999999981,YXHKZVFPB,YXHKZVFPD,8035,LC,C,,123706.0,11
