Number,acc_sum,block,block_c,block_cond,con_img,correct,correct_response,datetime,endtime,jitter,project,response,response_time,row_sel,session_number,start_end,starttime,subject_id,task,task_vers,trial
3,0,prac,1,A,circle.png,0,z,Thu Feb 06 2025 17:47:43 GMT-0600 (Central Standard Time),109973.5,1200,O,m,1322,3,1,3318.5,106655.0,7044,NTS,C,1
9,0,prac,1,A,circle.png,0,m,Thu Feb 06 2025 17:47:43 GMT-0600 (Central Standard Time),113455.60000002384,1500,O,z,1155,8,1,3449.400000035763,110006.19999998808,7044,NTS,C,2
7,1,prac,1,A,circle.png,1,m,Thu Feb 06 2025 17:47:43 GMT-0600 (Central Standard Time),117104.30000001192,1700,O,m,1118,6,1,3618.400000035763,113485.89999997616,7044,NTS,C,3
6,2,prac,1,A,circle.png,1,m,Thu Feb 06 2025 17:47:43 GMT-0600 (Central Standard Time),120536.60000002384,1900,O,m,696,5,1,3400.7000000476837,117135.89999997616,7044,NTS,C,4
8,2,prac,1,A,circle.png,0,m,Thu Feb 06 2025 17:47:43 GMT-0600 (Central Standard Time),123452.10000002384,1600,O,z,489,7,1,2884.0,120568.10000002384,7044,NTS,C,5
8,3,prac,1,A,circle.png,1,m,Thu Feb 06 2025 17:47:43 GMT-0600 (Central Standard Time),126351.19999998808,1600,O,m,470,7,1,2869.699999988079,123481.5,7044,NTS,C,6
6,3,prac,1,A,circle.png,0,m,Thu Feb 06 2025 17:47:43 GMT-0600 (Central Standard Time),129850.0,1900,O,z,769,5,1,3469.5,126380.5,7044,NTS,C,7
1,4,prac,1,A,circle.png,1,z,Thu Feb 06 2025 17:47:43 GMT-0600 (Central Standard Time),132965.89999997616,1000,O,z,1306,1,1,3088.099999964237,129877.80000001192,7044,NTS,C,8
4,5,prac,1,A,circle.png,1,z,Thu Feb 06 2025 17:47:43 GMT-0600 (Central Standard Time),136214.69999998808,1400,O,z,1013,4,1,3217.800000011921,132996.89999997616,7044,NTS,C,9
2,6,prac,1,A,circle.png,1,z,Thu Feb 06 2025 17:47:43 GMT-0600 (Central Standard Time),139680.19999998808,2000,O,z,639,2,1,3435.099999964237,136245.10000002384,7044,NTS,C,10
1,7,prac,1,A,circle.png,1,z,Thu Feb 06 2025 17:47:43 GMT-0600 (Central Standard Time),142079.5,1000,O,z,564,1,1,2370.100000023842,139709.39999997616,7044,NTS,C,11
4,8,prac,1,A,circle.png,1,z,Thu Feb 06 2025 17:47:43 GMT-0600 (Central Standard Time),145311.80000001192,1400,O,z,1013,4,1,3209.699999988079,142102.10000002384,7044,NTS,C,12
3,0,prac,1,B,triangle.png,0,z,Thu Feb 06 2025 17:47:43 GMT-0600 (Central Standard Time),171869.5,1600,O,None,1511,3,1,3889.0,167980.5,7044,NTS,C,1
2,1,prac,1,B,triangle.png,1,m,Thu Feb 06 2025 17:47:43 GMT-0600 (Central Standard Time),175018.69999998808,1700,O,m,636,2,1,3125.699999988079,171893.0,7044,NTS,C,2
6,2,prac,1,B,triangle.png,1,m,Thu Feb 06 2025 17:47:43 GMT-0600 (Central Standard Time),177717.10000002384,1000,O,m,866,5,1,2670.5,175046.60000002384,7044,NTS,C,3
9,3,prac,1,B,triangle.png,1,z,Thu Feb 06 2025 17:47:43 GMT-0600 (Central Standard Time),180666.80000001192,1400,O,z,728,8,1,2930.800000011921,177736.0,7044,NTS,C,4
9,4,prac,1,B,triangle.png,1,z,Thu Feb 06 2025 17:47:43 GMT-0600 (Central Standard Time),183465.0,1400,O,z,571,8,1,2769.300000011921,180695.69999998808,7044,NTS,C,5
4,5,prac,1,B,triangle.png,1,m,Thu Feb 06 2025 17:47:43 GMT-0600 (Central Standard Time),186247.5,1500,O,m,480,4,1,2773.100000023842,183474.39999997616,7044,NTS,C,6
4,6,prac,1,B,triangle.png,1,m,Thu Feb 06 2025 17:47:43 GMT-0600 (Central Standard Time),189247.39999997616,1500,O,m,705,4,1,2991.0,186256.39999997616,7044,NTS,C,7
8,6,prac,1,B,triangle.png,0,m,Thu Feb 06 2025 17:47:43 GMT-0600 (Central Standard Time),191996.30000001192,1200,O,z,718,7,1,2720.300000011921,189276.0,7044,NTS,C,8
1,7,prac,1,B,triangle.png,1,z,Thu Feb 06 2025 17:47:43 GMT-0600 (Central Standard Time),195445.30000001192,1900,O,z,734,1,1,3424.300000011921,192021.0,7044,NTS,C,9
2,8,prac,1,B,triangle.png,1,m,Thu Feb 06 2025 17:47:43 GMT-0600 (Central Standard Time),198410.89999997616,1700,O,m,460,2,1,2940.199999988079,195470.69999998808,7044,NTS,C,10
3,9,prac,1,B,triangle.png,1,z,Thu Feb 06 2025 17:47:43 GMT-0600 (Central Standard Time),201543.19999998808,1600,O,z,723,3,1,3103.800000011921,198439.39999997616,7044,NTS,C,11
7,10,prac,1,B,triangle.png,1,z,Thu Feb 06 2025 17:47:43 GMT-0600 (Central Standard Time),205125.39999997616,2000,O,z,758,6,1,3553.0,201572.39999997616,7044,NTS,C,12
7,1,test,1,A,circle.png,1,m,Thu Feb 06 2025 17:47:43 GMT-0600 (Central Standard Time),225718.80000001192,1700,O,m,1116,6,1,2840.0,222878.80000001192,7044,NTS,C,1
7,2,test,1,A,circle.png,1,m,Thu Feb 06 2025 17:47:43 GMT-0600 (Central Standard Time),228051.30000001192,1700,O,m,578,6,1,2312.600000023842,225738.69999998808,7044,NTS,C,2
9,3,test,1,A,circle.png,1,m,Thu Feb 06 2025 17:47:43 GMT-0600 (Central Standard Time),230317.0,1500,O,m,725,8,1,2245.100000023842,228071.89999997616,7044,NTS,C,3
4,4,test,1,A,circle.png,1,z,Thu Feb 06 2025 17:47:43 GMT-0600 (Central Standard Time),232366.39999997616,1400,O,z,598,4,1,2029.5,230336.89999997616,7044,NTS,C,4
9,5,test,1,A,circle.png,1,m,Thu Feb 06 2025 17:47:43 GMT-0600 (Central Standard Time),234449.0,1500,O,m,531,8,1,2063.0,232386.0,7044,NTS,C,5
8,6,test,1,A,circle.png,1,m,Thu Feb 06 2025 17:47:43 GMT-0600 (Central Standard Time),236548.30000001192,1600,O,m,442,7,1,2080.600000023842,234467.69999998808,7044,NTS,C,6
4,7,test,1,A,circle.png,1,z,Thu Feb 06 2025 17:47:43 GMT-0600 (Central Standard Time),238581.10000002384,1400,O,z,592,4,1,2013.0,236568.10000002384,7044,NTS,C,7
3,8,test,1,A,circle.png,1,z,Thu Feb 06 2025 17:47:43 GMT-0600 (Central Standard Time),240463.80000001192,1200,O,z,639,3,1,1863.9000000357628,238599.89999997616,7044,NTS,C,8
2,9,test,1,A,circle.png,1,z,Thu Feb 06 2025 17:47:43 GMT-0600 (Central Standard Time),243046.19999998808,2000,O,z,542,2,1,2563.599999964237,240482.60000002384,7044,NTS,C,9
6,10,test,1,A,circle.png,1,m,Thu Feb 06 2025 17:47:43 GMT-0600 (Central Standard Time),245578.69999998808,1900,O,m,588,5,1,2512.899999976158,243065.80000001192,7044,NTS,C,10
9,11,test,1,A,circle.png,1,m,Thu Feb 06 2025 17:47:43 GMT-0600 (Central Standard Time),247611.39999997616,1500,O,m,476,8,1,2011.8999999761581,245599.5,7044,NTS,C,11
1,12,test,1,A,circle.png,1,z,Thu Feb 06 2025 17:47:43 GMT-0600 (Central Standard Time),249327.30000001192,1000,O,z,673,1,1,1696.0,247631.30000001192,7044,NTS,C,12
8,13,test,1,A,circle.png,1,m,Thu Feb 06 2025 17:47:43 GMT-0600 (Central Standard Time),251560.0,1600,O,m,588,7,1,2213.5,249346.5,7044,NTS,C,13
3,14,test,1,A,circle.png,1,z,Thu Feb 06 2025 17:47:43 GMT-0600 (Central Standard Time),253426.10000002384,1200,O,z,616,3,1,1845.0,251581.10000002384,7044,NTS,C,14
1,15,test,1,A,circle.png,1,z,Thu Feb 06 2025 17:47:43 GMT-0600 (Central Standard Time),255008.89999997616,1000,O,z,531,1,1,1563.0999999642372,253445.80000001192,7044,NTS,C,15
7,16,test,1,A,circle.png,1,m,Thu Feb 06 2025 17:47:43 GMT-0600 (Central Standard Time),257275.10000002384,1700,O,m,512,6,1,2246.800000011921,255028.30000001192,7044,NTS,C,16
6,17,test,1,A,circle.png,1,m,Thu Feb 06 2025 17:47:43 GMT-0600 (Central Standard Time),259724.0,1900,O,m,502,5,1,2429.899999976158,257294.10000002384,7044,NTS,C,17
4,18,test,1,A,circle.png,1,z,Thu Feb 06 2025 17:47:43 GMT-0600 (Central Standard Time),261957.19999998808,1400,O,z,794,4,1,2212.699999988079,259744.5,7044,NTS,C,18
1,19,test,1,A,circle.png,1,z,Thu Feb 06 2025 17:47:43 GMT-0600 (Central Standard Time),263522.6999999881,1000,O,z,511,1,1,1547.3999999761581,261975.30000001192,7044,NTS,C,19
9,20,test,1,A,circle.png,1,m,Thu Feb 06 2025 17:47:43 GMT-0600 (Central Standard Time),265588.8000000119,1500,O,m,518,8,1,2047.199999988079,263541.60000002384,7044,NTS,C,20
3,21,test,1,A,circle.png,1,z,Thu Feb 06 2025 17:47:43 GMT-0600 (Central Standard Time),267471.5,1200,O,z,631,3,1,1862.300000011921,265609.1999999881,7044,NTS,C,21
2,22,test,1,A,circle.png,1,z,Thu Feb 06 2025 17:47:43 GMT-0600 (Central Standard Time),270037.39999997616,2000,O,z,517,2,1,2546.5,267490.89999997616,7044,NTS,C,22
1,23,test,1,A,circle.png,1,z,Thu Feb 06 2025 17:47:43 GMT-0600 (Central Standard Time),271670.10000002384,1000,O,z,589,1,1,1613.9000000357628,270056.1999999881,7044,NTS,C,23
2,24,test,1,A,circle.png,1,z,Thu Feb 06 2025 17:47:43 GMT-0600 (Central Standard Time),274319.3000000119,2000,O,z,607,2,1,2630.699999988079,271688.60000002384,7044,NTS,C,24
4,1,test,1,B,triangle.png,1,m,Thu Feb 06 2025 17:47:43 GMT-0600 (Central Standard Time),289214.3000000119,1500,O,m,1426,4,1,2947.0,286267.3000000119,7044,NTS,C,1
1,2,test,1,B,triangle.png,1,z,Thu Feb 06 2025 17:47:43 GMT-0600 (Central Standard Time),291530.39999997616,1400,O,z,872,9,1,2296.699999988079,289233.6999999881,7044,NTS,C,2
2,3,test,1,B,triangle.png,1,m,Thu Feb 06 2025 17:47:43 GMT-0600 (Central Standard Time),294062.5,1700,O,m,794,2,1,2513.100000023842,291549.39999997616,7044,NTS,C,3
3,4,test,1,B,triangle.png,1,z,Thu Feb 06 2025 17:47:43 GMT-0600 (Central Standard Time),296345.39999997616,1600,O,z,649,3,1,2270.899999976158,294074.5,7044,NTS,C,4
4,5,test,1,B,triangle.png,1,m,Thu Feb 06 2025 17:47:43 GMT-0600 (Central Standard Time),298411.39999997616,1500,O,m,512,4,1,2045.7999999523163,296365.60000002384,7044,NTS,C,5
1,6,test,1,B,triangle.png,1,z,Thu Feb 06 2025 17:47:43 GMT-0600 (Central Standard Time),300927.1999999881,1900,O,z,566,1,1,2497.399999976158,298429.8000000119,7044,NTS,C,6
3,7,test,1,B,triangle.png,1,z,Thu Feb 06 2025 17:47:43 GMT-0600 (Central Standard Time),303226.60000002384,1600,O,z,646,3,1,2279.5,300947.10000002384,7044,NTS,C,7
2,8,test,1,B,triangle.png,1,m,Thu Feb 06 2025 17:47:43 GMT-0600 (Central Standard Time),305459.1999999881,1700,O,m,488,2,1,2213.199999988079,303246.0,7044,NTS,C,8
3,9,test,1,B,triangle.png,1,z,Thu Feb 06 2025 17:47:43 GMT-0600 (Central Standard Time),308091.5,2000,O,z,579,11,1,2612.399999976158,305479.10000002384,7044,NTS,C,9
9,10,test,1,B,triangle.png,1,z,Thu Feb 06 2025 17:47:43 GMT-0600 (Central Standard Time),310774.0,1400,O,z,1242,8,1,2661.699999988079,308112.3000000119,7044,NTS,C,10
1,11,test,1,B,triangle.png,1,z,Thu Feb 06 2025 17:47:43 GMT-0600 (Central Standard Time),312923.5,1400,O,z,704,9,1,2130.100000023842,310793.39999997616,7044,NTS,C,11
6,12,test,1,B,triangle.png,1,m,Thu Feb 06 2025 17:47:43 GMT-0600 (Central Standard Time),315039.3000000119,1500,O,m,575,13,1,2096.300000011921,312943.0,7044,NTS,C,12
1,13,test,1,B,triangle.png,1,z,Thu Feb 06 2025 17:47:43 GMT-0600 (Central Standard Time),317638.39999997616,1900,O,z,651,1,1,2577.7999999523163,315060.60000002384,7044,NTS,C,13
4,14,test,1,B,triangle.png,1,m,Thu Feb 06 2025 17:47:43 GMT-0600 (Central Standard Time),319321.3000000119,1000,O,m,633,12,1,1663.9000000357628,317657.39999997616,7044,NTS,C,14
8,15,test,1,B,triangle.png,1,m,Thu Feb 06 2025 17:47:43 GMT-0600 (Central Standard Time),321603.60000002384,1700,O,m,537,15,1,2262.600000023842,319341.0,7044,NTS,C,15
8,16,test,1,B,triangle.png,1,m,Thu Feb 06 2025 17:47:43 GMT-0600 (Central Standard Time),323336.60000002384,1200,O,m,490,7,1,1713.1000000238419,321623.5,7044,NTS,C,16
8,17,test,1,B,triangle.png,1,m,Thu Feb 06 2025 17:47:43 GMT-0600 (Central Standard Time),325102.6999999881,1200,O,m,517,7,1,1745.800000011921,323356.89999997616,7044,NTS,C,17
6,18,test,1,B,triangle.png,1,m,Thu Feb 06 2025 17:47:43 GMT-0600 (Central Standard Time),326785.39999997616,1000,O,m,631,5,1,1664.0999999642372,325121.3000000119,7044,NTS,C,18
7,19,test,1,B,triangle.png,1,z,Thu Feb 06 2025 17:47:43 GMT-0600 (Central Standard Time),329168.10000002384,1600,O,z,740,14,1,2363.5,326804.60000002384,7044,NTS,C,19
2,20,test,1,B,triangle.png,1,m,Thu Feb 06 2025 17:47:43 GMT-0600 (Central Standard Time),331250.6999999881,1200,O,m,839,10,1,2062.800000011921,329187.89999997616,7044,NTS,C,20
8,21,test,1,B,triangle.png,1,m,Thu Feb 06 2025 17:47:43 GMT-0600 (Central Standard Time),333616.5,1700,O,m,623,15,1,2345.5,331271.0,7044,NTS,C,21
9,22,test,1,B,triangle.png,1,z,Thu Feb 06 2025 17:47:43 GMT-0600 (Central Standard Time),336381.89999997616,1900,O,z,827,16,1,2745.2999999523163,333636.60000002384,7044,NTS,C,22
2,23,test,1,B,triangle.png,1,m,Thu Feb 06 2025 17:47:43 GMT-0600 (Central Standard Time),338214.89999997616,1200,O,m,592,10,1,1814.0999999642372,336400.8000000119,7044,NTS,C,23
7,24,test,1,B,triangle.png,1,z,Thu Feb 06 2025 17:47:43 GMT-0600 (Central Standard Time),341181.1999999881,2000,O,z,928,6,1,2946.800000011921,338234.39999997616,7044,NTS,C,24
8,0,prac,1,C,triangle.png,0,m,Thu Feb 06 2025 17:47:43 GMT-0600 (Central Standard Time),378085.5,1400,O,None,1510,7,1,3691.800000011921,374393.6999999881,7044,NTS,C,1
6,0,prac,1,C,circle.png,0,m,Thu Feb 06 2025 17:47:43 GMT-0600 (Central Standard Time),381967.39999997616,2000,O,z,1072,5,1,3855.599999964237,378111.8000000119,7044,NTS,C,2
8,1,prac,1,C,triangle.png,1,m,Thu Feb 06 2025 17:47:43 GMT-0600 (Central Standard Time),385149.8000000119,1400,O,m,950,7,1,3154.100000023842,381995.6999999881,7044,NTS,C,3
6,2,prac,1,C,circle.png,1,m,Thu Feb 06 2025 17:47:43 GMT-0600 (Central Standard Time),389115.1999999881,2000,O,m,1137,5,1,3938.199999988079,385177.0,7044,NTS,C,4
1,3,prac,1,C,circle.png,1,z,Thu Feb 06 2025 17:47:43 GMT-0600 (Central Standard Time),392230.8000000119,1700,O,z,599,1,1,3088.600000023842,389142.1999999881,7044,NTS,C,5
1,4,prac,1,C,circle.png,1,z,Thu Feb 06 2025 17:47:43 GMT-0600 (Central Standard Time),395413.1999999881,1700,O,z,658,1,1,3153.399999976158,392259.8000000119,7044,NTS,C,6
7,5,prac,1,C,triangle.png,1,z,Thu Feb 06 2025 17:47:43 GMT-0600 (Central Standard Time),398812.10000002384,1200,O,z,1367,6,1,3370.7000000476837,395441.39999997616,7044,NTS,C,7
4,5,prac,1,C,circle.png,0,z,Thu Feb 06 2025 17:47:43 GMT-0600 (Central Standard Time),402127.5,1000,O,None,1511,4,1,3288.600000023842,398838.89999997616,7044,NTS,C,8
3,5,prac,1,C,triangle.png,0,z,Thu Feb 06 2025 17:47:43 GMT-0600 (Central Standard Time),405309.8000000119,1500,O,m,875,3,1,3155.699999988079,402154.10000002384,7044,NTS,C,9
7,6,prac,1,C,triangle.png,1,z,Thu Feb 06 2025 17:47:43 GMT-0600 (Central Standard Time),407675.6999999881,1200,O,z,344,6,1,2337.699999988079,405338.0,7044,NTS,C,10
9,6,prac,1,C,circle.png,0,m,Thu Feb 06 2025 17:47:43 GMT-0600 (Central Standard Time),411474.39999997616,1900,O,z,1061,8,1,3769.7999999523163,407704.60000002384,7044,NTS,C,11
2,7,prac,1,C,triangle.png,1,m,Thu Feb 06 2025 17:47:43 GMT-0600 (Central Standard Time),414823.39999997616,1600,O,m,915,2,1,3321.7999999523163,411501.60000002384,7044,NTS,C,12
9,1,prac,2,C,circle.png,1,m,Thu Feb 06 2025 17:47:43 GMT-0600 (Central Standard Time),430335.10000002384,1900,O,m,1149,8,1,3838.2000000476837,426496.89999997616,7044,NTS,C,1
2,1,prac,2,C,triangle.png,0,m,Thu Feb 06 2025 17:47:43 GMT-0600 (Central Standard Time),434267.0,1600,O,None,1510,2,1,3897.699999988079,430369.3000000119,7044,NTS,C,2
1,1,prac,2,C,circle.png,0,z,Thu Feb 06 2025 17:47:43 GMT-0600 (Central Standard Time),438232.39999997616,1700,O,m,1435,1,1,3937.2999999523163,434295.10000002384,7044,NTS,C,3
7,2,prac,2,C,triangle.png,1,z,Thu Feb 06 2025 17:47:43 GMT-0600 (Central Standard Time),441698.0,1200,O,z,1454,6,1,3438.100000023842,438259.89999997616,7044,NTS,C,4
3,2,prac,2,C,triangle.png,0,z,Thu Feb 06 2025 17:47:43 GMT-0600 (Central Standard Time),445529.8000000119,1500,O,None,1510,3,1,3804.300000011921,441725.5,7044,NTS,C,5
6,3,prac,2,C,circle.png,1,m,Thu Feb 06 2025 17:47:43 GMT-0600 (Central Standard Time),449428.8000000119,2000,O,m,1085,5,1,3875.800000011921,445553.0,7044,NTS,C,6
2,4,prac,2,C,triangle.png,1,m,Thu Feb 06 2025 17:47:43 GMT-0600 (Central Standard Time),453227.60000002384,1600,O,m,1386,2,1,3775.600000023842,449452.0,7044,NTS,C,7
6,5,prac,2,C,circle.png,1,m,Thu Feb 06 2025 17:47:43 GMT-0600 (Central Standard Time),456908.89999997616,2000,O,m,865,5,1,3654.099999964237,453254.8000000119,7044,NTS,C,8
1,6,prac,2,C,circle.png,1,z,Thu Feb 06 2025 17:47:43 GMT-0600 (Central Standard Time),460308.60000002384,1700,O,z,902,1,1,3392.400000035763,456916.1999999881,7044,NTS,C,9
4,6,prac,2,C,circle.png,0,z,Thu Feb 06 2025 17:47:43 GMT-0600 (Central Standard Time),463090.89999997616,1000,O,m,961,4,1,2753.899999976158,460337.0,7044,NTS,C,10
3,6,prac,2,C,triangle.png,0,z,Thu Feb 06 2025 17:47:43 GMT-0600 (Central Standard Time),466922.8000000119,1500,O,None,1509,3,1,3804.199999988079,463118.60000002384,7044,NTS,C,11
8,7,prac,2,C,triangle.png,1,m,Thu Feb 06 2025 17:47:43 GMT-0600 (Central Standard Time),469972.0,1400,O,m,835,7,1,3027.399999976158,466944.60000002384,7044,NTS,C,12
9,0,test,1,C,triangle.png,0,z,Thu Feb 06 2025 17:47:43 GMT-0600 (Central Standard Time),492765.3000000119,1400,O,m,1126,16,1,2547.300000011921,490218.0,7044,NTS,C,1
9,0,test,1,C,circle.png,0,m,Thu Feb 06 2025 17:47:43 GMT-0600 (Central Standard Time),495813.60000002384,1500,O,None,1510,24,1,3027.600000023842,492786.0,7044,NTS,C,2
4,0,test,1,C,triangle.png,0,m,Thu Feb 06 2025 17:47:43 GMT-0600 (Central Standard Time),498862.6999999881,1500,O,None,1511,20,1,3031.800000011921,495830.89999997616,7044,NTS,C,3
6,0,test,1,C,circle.png,0,m,Thu Feb 06 2025 17:47:43 GMT-0600 (Central Standard Time),502311.3000000119,1900,O,None,1510,5,1,3428.600000023842,498882.6999999881,7044,NTS,C,4
8,1,test,1,C,triangle.png,1,m,Thu Feb 06 2025 17:47:43 GMT-0600 (Central Standard Time),505026.39999997616,1600,O,m,1074,7,1,2695.7999999523163,502330.60000002384,7044,NTS,C,5
2,2,test,1,C,circle.png,1,z,Thu Feb 06 2025 17:47:43 GMT-0600 (Central Standard Time),507892.6999999881,1700,O,z,1136,10,1,2857.699999988079,505035.0,7044,NTS,C,6
4,3,test,1,C,triangle.png,1,m,Thu Feb 06 2025 17:47:43 GMT-0600 (Central Standard Time),510692.0,1500,O,m,1253,12,1,2779.899999976158,507912.10000002384,7044,NTS,C,7
8,4,test,1,C,triangle.png,1,m,Thu Feb 06 2025 17:47:43 GMT-0600 (Central Standard Time),513358.0,1600,O,m,1026,23,1,2645.300000011921,510712.6999999881,7044,NTS,C,8
3,5,test,1,C,circle.png,1,z,Thu Feb 06 2025 17:47:43 GMT-0600 (Central Standard Time),516156.8000000119,1600,O,z,1144,19,1,2777.900000035763,513378.89999997616,7044,NTS,C,9
1,6,test,1,C,circle.png,1,z,Thu Feb 06 2025 17:47:43 GMT-0600 (Central Standard Time),517922.8000000119,1000,O,z,721,1,1,1745.6000000238419,516177.1999999881,7044,NTS,C,10
1,6,test,1,C,triangle.png,0,z,Thu Feb 06 2025 17:47:43 GMT-0600 (Central Standard Time),520805.39999997616,1900,O,m,936,17,1,2864.7999999523163,517940.60000002384,7044,NTS,C,11
1,7,test,1,C,triangle.png,1,z,Thu Feb 06 2025 17:47:43 GMT-0600 (Central Standard Time),523787.60000002384,1900,O,z,1029,9,1,2961.800000011921,520825.8000000119,7044,NTS,C,12
7,7,test,1,C,triangle.png,0,z,Thu Feb 06 2025 17:47:43 GMT-0600 (Central Standard Time),527036.6999999881,1700,O,None,1510,6,1,3228.199999988079,523808.5,7044,NTS,C,13
6,8,test,1,C,circle.png,1,m,Thu Feb 06 2025 17:47:43 GMT-0600 (Central Standard Time),530235.5,1900,O,m,1254,21,1,3179.0,527056.5,7044,NTS,C,14
8,9,test,1,C,circle.png,1,m,Thu Feb 06 2025 17:47:43 GMT-0600 (Central Standard Time),532368.1000000238,1200,O,m,883,15,1,2113.0,530255.1000000238,7044,NTS,C,15
3,10,test,1,C,triangle.png,1,z,Thu Feb 06 2025 17:47:43 GMT-0600 (Central Standard Time),534933.8999999762,1200,O,z,1318,3,1,2544.7999999523163,532389.1000000238,7044,NTS,C,16
4,10,test,1,C,circle.png,0,z,Thu Feb 06 2025 17:47:43 GMT-0600 (Central Standard Time),537516.3000000119,1400,O,m,1127,4,1,2560.900000035763,534955.3999999762,7044,NTS,C,17
2,11,test,1,C,circle.png,1,z,Thu Feb 06 2025 17:47:43 GMT-0600 (Central Standard Time),540398.8999999762,1700,O,z,1134,18,1,2861.699999988079,537537.1999999881,7044,NTS,C,18
6,11,test,1,C,triangle.png,0,m,Thu Feb 06 2025 17:47:43 GMT-0600 (Central Standard Time),542881.1999999881,1000,O,z,1415,13,1,2449.399999976158,540431.8000000119,7044,NTS,C,19
7,11,test,1,C,circle.png,0,m,Thu Feb 06 2025 17:47:43 GMT-0600 (Central Standard Time),546380.1999999881,2000,O,z,1445,14,1,3478.199999988079,542902.0,7044,NTS,C,20
3,12,test,1,C,circle.png,1,z,Thu Feb 06 2025 17:47:43 GMT-0600 (Central Standard Time),549229.3000000119,1600,O,z,1203,11,1,2828.800000011921,546400.5,7044,NTS,C,21
2,13,test,1,C,triangle.png,1,m,Thu Feb 06 2025 17:47:43 GMT-0600 (Central Standard Time),552578.1000000238,2000,O,m,1305,2,1,3327.2000000476837,549250.8999999762,7044,NTS,C,22
7,14,test,1,C,triangle.png,1,z,Thu Feb 06 2025 17:47:43 GMT-0600 (Central Standard Time),555427.3999999762,1700,O,z,1104,22,1,2830.199999988079,552597.1999999881,7044,NTS,C,23
9,15,test,1,C,circle.png,1,m,Thu Feb 06 2025 17:47:43 GMT-0600 (Central Standard Time),558043.0,1500,O,m,1063,8,1,2595.800000011921,555447.1999999881,7044,NTS,C,24
3,1,test,2,C,circle.png,1,z,Thu Feb 06 2025 17:47:43 GMT-0600 (Central Standard Time),566573.8000000119,1600,O,z,1276,19,1,2897.199999988079,563676.6000000238,7044,NTS,C,1
6,1,test,2,C,triangle.png,0,m,Thu Feb 06 2025 17:47:43 GMT-0600 (Central Standard Time),569022.8999999762,1000,O,z,1408,13,1,2427.5,566595.3999999762,7044,NTS,C,2
6,2,test,2,C,triangle.png,1,m,Thu Feb 06 2025 17:47:43 GMT-0600 (Central Standard Time),571055.6000000238,1000,O,m,984,21,1,2012.4000000357628,569043.1999999881,7044,NTS,C,3
3,3,test,2,C,triangle.png,1,z,Thu Feb 06 2025 17:47:43 GMT-0600 (Central Standard Time),573237.8999999762,1200,O,z,942,3,1,2162.2999999523163,571075.6000000238,7044,NTS,C,4
9,4,test,2,C,circle.png,1,m,Thu Feb 06 2025 17:47:43 GMT-0600 (Central Standard Time),575853.8000000119,1500,O,m,1076,8,1,2596.900000035763,573256.8999999762,7044,NTS,C,5
2,5,test,2,C,circle.png,1,z,Thu Feb 06 2025 17:47:43 GMT-0600 (Central Standard Time),578903.0,1700,O,z,1309,18,1,3030.0,575873.0,7044,NTS,C,6
6,5,test,2,C,circle.png,0,m,Thu Feb 06 2025 17:47:43 GMT-0600 (Central Standard Time),582351.8000000119,1900,O,None,1511,5,1,3429.300000011921,578922.5,7044,NTS,C,7
7,5,test,2,C,triangle.png,0,z,Thu Feb 06 2025 17:47:43 GMT-0600 (Central Standard Time),585084.1000000238,1700,O,m,987,6,1,2712.800000011921,582371.3000000119,7044,NTS,C,8
8,6,test,2,C,circle.png,1,m,Thu Feb 06 2025 17:47:43 GMT-0600 (Central Standard Time),587233.3999999762,1200,O,m,906,15,1,2130.0,585103.3999999762,7044,NTS,C,9
9,7,test,2,C,triangle.png,1,z,Thu Feb 06 2025 17:47:43 GMT-0600 (Central Standard Time),589765.8000000119,1400,O,z,1093,24,1,2513.0,587252.8000000119,7044,NTS,C,10
4,8,test,2,C,triangle.png,1,m,Thu Feb 06 2025 17:47:43 GMT-0600 (Central Standard Time),592132.0,1500,O,m,811,20,1,2345.800000011921,589786.1999999881,7044,NTS,C,11
4,8,test,2,C,circle.png,0,z,Thu Feb 06 2025 17:47:43 GMT-0600 (Central Standard Time),594747.8999999762,1400,O,m,1170,4,1,2592.5,592155.3999999762,7044,NTS,C,12
1,9,test,2,C,circle.png,1,z,Thu Feb 06 2025 17:47:43 GMT-0600 (Central Standard Time),596547.1999999881,1000,O,z,746,1,1,1778.199999988079,594769.0,7044,NTS,C,13
7,10,test,2,C,circle.png,1,m,Thu Feb 06 2025 17:47:43 GMT-0600 (Central Standard Time),599879.3999999762,2000,O,m,1283,22,1,3312.099999964237,596567.3000000119,7044,NTS,C,14
9,11,test,2,C,triangle.png,1,z,Thu Feb 06 2025 17:47:43 GMT-0600 (Central Standard Time),602495.3000000119,1400,O,z,1175,16,1,2595.199999988079,599900.1000000238,7044,NTS,C,15
8,12,test,2,C,triangle.png,1,m,Thu Feb 06 2025 17:47:43 GMT-0600 (Central Standard Time),604977.6999999881,1600,O,m,832,7,1,2462.800000011921,602514.8999999762,7044,NTS,C,16
1,12,test,2,C,triangle.png,0,z,Thu Feb 06 2025 17:47:43 GMT-0600 (Central Standard Time),608209.8999999762,1900,O,m,1281,17,1,3211.599999964237,604998.3000000119,7044,NTS,C,17
7,13,test,2,C,circle.png,1,m,Thu Feb 06 2025 17:47:43 GMT-0600 (Central Standard Time),611659.0,2000,O,m,1396,14,1,3430.0,608229.0,7044,NTS,C,18
1,14,test,2,C,triangle.png,1,z,Thu Feb 06 2025 17:47:43 GMT-0600 (Central Standard Time),614757.8999999762,1900,O,z,1159,9,1,3079.2999999523163,611678.6000000238,7044,NTS,C,19
2,15,test,2,C,triangle.png,1,m,Thu Feb 06 2025 17:47:43 GMT-0600 (Central Standard Time),617723.3999999762,2000,O,m,921,2,1,2945.399999976158,614778.0,7044,NTS,C,20
2,16,test,2,C,circle.png,1,z,Thu Feb 06 2025 17:47:43 GMT-0600 (Central Standard Time),620573.3999999762,1700,O,z,1111,10,1,2830.899999976158,617742.5,7044,NTS,C,21
3,17,test,2,C,circle.png,1,z,Thu Feb 06 2025 17:47:43 GMT-0600 (Central Standard Time),623405.1000000238,1600,O,z,1186,11,1,2811.300000011921,620593.8000000119,7044,NTS,C,22
8,18,test,2,C,circle.png,1,m,Thu Feb 06 2025 17:47:43 GMT-0600 (Central Standard Time),625470.6000000238,1200,O,m,827,23,1,2045.1000000238419,623425.5,7044,NTS,C,23
4,19,test,2,C,triangle.png,1,m,Thu Feb 06 2025 17:47:43 GMT-0600 (Central Standard Time),628003.6000000238,1500,O,m,1004,12,1,2521.300000011921,625482.3000000119,7044,NTS,C,24
8,1,test,3,C,triangle.png,1,m,Thu Feb 06 2025 17:47:43 GMT-0600 (Central Standard Time),633051.6000000238,1600,O,m,969,23,1,2587.400000035763,630464.1999999881,7044,NTS,C,1
1,2,test,3,C,triangle.png,1,z,Thu Feb 06 2025 17:47:43 GMT-0600 (Central Standard Time),635867.3999999762,1900,O,z,878,9,1,2804.5,633062.8999999762,7044,NTS,C,2
6,3,test,3,C,triangle.png,1,m,Thu Feb 06 2025 17:47:43 GMT-0600 (Central Standard Time),637850.3000000119,1000,O,m,947,13,1,1971.699999988079,635878.6000000238,7044,NTS,C,3
8,3,test,3,C,circle.png,0,m,Thu Feb 06 2025 17:47:43 GMT-0600 (Central Standard Time),640182.8999999762,1200,O,z,1083,15,1,2307.099999964237,637875.8000000119,7044,NTS,C,4
9,4,test,3,C,circle.png,1,m,Thu Feb 06 2025 17:47:43 GMT-0600 (Central Standard Time),642298.8999999762,1500,O,m,563,24,1,2096.199999988079,640202.6999999881,7044,NTS,C,5
9,5,test,3,C,triangle.png,1,z,Thu Feb 06 2025 17:47:43 GMT-0600 (Central Standard Time),644731.5,1400,O,z,986,16,1,2412.5,642319.0,7044,NTS,C,6
4,5,test,3,C,circle.png,0,z,Thu Feb 06 2025 17:47:43 GMT-0600 (Central Standard Time),647113.8000000119,1400,O,m,939,4,1,2363.199999988079,644750.6000000238,7044,NTS,C,7
3,6,test,3,C,circle.png,1,z,Thu Feb 06 2025 17:47:43 GMT-0600 (Central Standard Time),649646.5,1600,O,z,884,11,1,2510.199999988079,647136.3000000119,7044,NTS,C,8
8,7,test,3,C,triangle.png,1,m,Thu Feb 06 2025 17:47:43 GMT-0600 (Central Standard Time),652229.6999999881,1600,O,m,944,7,1,2564.099999964237,649665.6000000238,7044,NTS,C,9
3,8,test,3,C,triangle.png,1,z,Thu Feb 06 2025 17:47:43 GMT-0600 (Central Standard Time),654444.8999999762,1200,O,z,974,19,1,2196.7999999523163,652248.1000000238,7044,NTS,C,10
1,9,test,3,C,circle.png,1,z,Thu Feb 06 2025 17:47:43 GMT-0600 (Central Standard Time),656959.8999999762,1000,O,z,1463,1,1,2495.7999999523163,654464.1000000238,7044,NTS,C,11
7,10,test,3,C,triangle.png,1,z,Thu Feb 06 2025 17:47:43 GMT-0600 (Central Standard Time),659876.3999999762,1700,O,z,1186,22,1,2910.7999999523163,656965.6000000238,7044,NTS,C,12
6,11,test,3,C,circle.png,1,m,Thu Feb 06 2025 17:47:43 GMT-0600 (Central Standard Time),662958.6000000238,1900,O,m,1142,21,1,3062.7000000476837,659895.8999999762,7044,NTS,C,13
2,11,test,3,C,triangle.png,0,m,Thu Feb 06 2025 17:47:43 GMT-0600 (Central Standard Time),666173.8000000119,2000,O,z,1175,2,1,3197.600000023842,662976.1999999881,7044,NTS,C,14
7,12,test,3,C,triangle.png,1,z,Thu Feb 06 2025 17:47:43 GMT-0600 (Central Standard Time),668773.6999999881,1700,O,z,876,6,1,2593.099999964237,666180.6000000238,7044,NTS,C,15
3,13,test,3,C,triangle.png,1,z,Thu Feb 06 2025 17:47:43 GMT-0600 (Central Standard Time),670889.3999999762,1200,O,z,873,3,1,2094.7999999523163,668794.6000000238,7044,NTS,C,16
9,14,test,3,C,circle.png,1,m,Thu Feb 06 2025 17:47:43 GMT-0600 (Central Standard Time),673288.8000000119,1500,O,m,857,8,1,2379.300000011921,670909.5,7044,NTS,C,17
4,15,test,3,C,circle.png,1,z,Thu Feb 06 2025 17:47:43 GMT-0600 (Central Standard Time),675704.5,1400,O,z,973,20,1,2395.199999988079,673309.3000000119,7044,NTS,C,18
1,16,test,3,C,circle.png,1,z,Thu Feb 06 2025 17:47:43 GMT-0600 (Central Standard Time),677420.6000000238,1000,O,z,662,17,1,1697.0,675723.6000000238,7044,NTS,C,19
4,16,test,3,C,triangle.png,0,m,Thu Feb 06 2025 17:47:43 GMT-0600 (Central Standard Time),680469.8000000119,1500,O,None,1511,12,1,3030.100000023842,677439.6999999881,7044,NTS,C,20
7,16,test,3,C,circle.png,0,m,Thu Feb 06 2025 17:47:43 GMT-0600 (Central Standard Time),683402.1999999881,2000,O,z,881,14,1,2908.0,680494.1999999881,7044,NTS,C,21
2,16,test,3,C,circle.png,0,z,Thu Feb 06 2025 17:47:43 GMT-0600 (Central Standard Time),686650.8999999762,1700,O,None,1510,10,1,3228.7999999523163,683422.1000000238,7044,NTS,C,22
6,16,test,3,C,circle.png,0,m,Thu Feb 06 2025 17:47:43 GMT-0600 (Central Standard Time),689966.3000000119,1900,O,z,1377,5,1,3296.900000035763,686669.3999999762,7044,NTS,C,23
2,16,test,3,C,triangle.png,0,m,Thu Feb 06 2025 17:47:43 GMT-0600 (Central Standard Time),693233.1000000238,2000,O,z,1216,18,1,3247.2000000476837,689985.8999999762,7044,NTS,C,24
1,0,test,4,C,triangle.png,0,z,Thu Feb 06 2025 17:47:43 GMT-0600 (Central Standard Time),698380.8999999762,1900,O,m,1162,9,1,3097.899999976158,695283.0,7044,NTS,C,1
6,1,test,4,C,triangle.png,1,m,Thu Feb 06 2025 17:47:43 GMT-0600 (Central Standard Time),700880.0,1000,O,m,1450,13,1,2474.800000011921,698405.1999999881,7044,NTS,C,2
8,2,test,4,C,triangle.png,1,m,Thu Feb 06 2025 17:47:43 GMT-0600 (Central Standard Time),703245.8999999762,1600,O,m,726,7,1,2346.2999999523163,700899.6000000238,7044,NTS,C,3
4,3,test,4,C,circle.png,1,z,Thu Feb 06 2025 17:47:43 GMT-0600 (Central Standard Time),706028.0,1400,O,z,1329,4,1,2761.600000023842,703266.3999999762,7044,NTS,C,4
2,4,test,4,C,triangle.png,1,m,Thu Feb 06 2025 17:47:43 GMT-0600 (Central Standard Time),708860.3999999762,2000,O,m,778,2,1,2813.399999976158,706047.0,7044,NTS,C,5
3,5,test,4,C,triangle.png,1,z,Thu Feb 06 2025 17:47:43 GMT-0600 (Central Standard Time),711159.6000000238,1200,O,z,1049,19,1,2280.400000035763,708879.1999999881,7044,NTS,C,6
7,6,test,4,C,triangle.png,1,z,Thu Feb 06 2025 17:47:43 GMT-0600 (Central Standard Time),713792.1000000238,1700,O,z,891,6,1,2612.7000000476837,711179.3999999762,7044,NTS,C,7
4,7,test,4,C,triangle.png,1,m,Thu Feb 06 2025 17:47:43 GMT-0600 (Central Standard Time),716107.8000000119,1500,O,m,770,12,1,2302.0,713805.8000000119,7044,NTS,C,8
7,8,test,4,C,triangle.png,1,z,Thu Feb 06 2025 17:47:43 GMT-0600 (Central Standard Time),718557.5,1700,O,z,710,22,1,2428.899999976158,716128.6000000238,7044,NTS,C,9
6,9,test,4,C,circle.png,1,m,Thu Feb 06 2025 17:47:43 GMT-0600 (Central Standard Time),721739.6000000238,1900,O,m,1229,21,1,3163.400000035763,718576.1999999881,7044,NTS,C,10
8,10,test,4,C,triangle.png,1,m,Thu Feb 06 2025 17:47:43 GMT-0600 (Central Standard Time),724871.8999999762,1600,O,m,1482,23,1,3106.699999988079,721765.1999999881,7044,NTS,C,11
1,11,test,4,C,circle.png,1,z,Thu Feb 06 2025 17:47:43 GMT-0600 (Central Standard Time),726871.0,1000,O,z,954,17,1,1978.300000011921,724892.6999999881,7044,NTS,C,12
3,12,test,4,C,circle.png,1,z,Thu Feb 06 2025 17:47:43 GMT-0600 (Central Standard Time),729253.1999999881,1600,O,z,736,11,1,2363.199999988079,726890.0,7044,NTS,C,13
2,12,test,4,C,circle.png,0,z,Thu Feb 06 2025 17:47:43 GMT-0600 (Central Standard Time),732486.0,1700,O,None,1510,10,1,3222.0,729264.0,7044,NTS,C,14
8,13,test,4,C,circle.png,1,m,Thu Feb 06 2025 17:47:43 GMT-0600 (Central Standard Time),734735.1999999881,1200,O,m,1000,15,1,2230.300000011921,732504.8999999762,7044,NTS,C,15
2,14,test,4,C,triangle.png,1,m,Thu Feb 06 2025 17:47:43 GMT-0600 (Central Standard Time),737734.1999999881,2000,O,m,951,18,1,2980.699999988079,734753.5,7044,NTS,C,16
9,14,test,4,C,circle.png,0,m,Thu Feb 06 2025 17:47:43 GMT-0600 (Central Standard Time),740350.1000000238,1500,O,z,1068,24,1,2596.300000011921,737753.8000000119,7044,NTS,C,17
7,15,test,4,C,circle.png,1,m,Thu Feb 06 2025 17:47:43 GMT-0600 (Central Standard Time),743814.8000000119,2000,O,m,1417,14,1,3446.300000011921,740368.5,7044,NTS,C,18
9,16,test,4,C,circle.png,1,m,Thu Feb 06 2025 17:47:43 GMT-0600 (Central Standard Time),746014.8000000119,1500,O,m,667,8,1,2194.199999988079,743820.6000000238,7044,NTS,C,19
3,17,test,4,C,triangle.png,1,z,Thu Feb 06 2025 17:47:43 GMT-0600 (Central Standard Time),748547.5,1200,O,z,1279,3,1,2513.5,746034.0,7044,NTS,C,20
9,17,test,4,C,triangle.png,0,z,Thu Feb 06 2025 17:47:43 GMT-0600 (Central Standard Time),750896.6999999881,1400,O,m,898,16,1,2331.300000011921,748565.3999999762,7044,NTS,C,21
4,17,test,4,C,circle.png,0,z,Thu Feb 06 2025 17:47:43 GMT-0600 (Central Standard Time),753095.8999999762,1400,O,m,750,20,1,2179.099999964237,750916.8000000119,7044,NTS,C,22
1,18,test,4,C,circle.png,1,z,Thu Feb 06 2025 17:47:43 GMT-0600 (Central Standard Time),755129.8999999762,1000,O,z,993,1,1,2010.199999988079,753119.6999999881,7044,NTS,C,23
6,18,test,4,C,circle.png,0,m,Thu Feb 06 2025 17:47:43 GMT-0600 (Central Standard Time),758577.3999999762,1900,O,None,1510,5,1,3426.2999999523163,755151.1000000238,7044,NTS,C,24
