acc_sum,block,block_c,change,condition,correct,correct_response,datetime,endtime,face,project,response,response_time,row_sel,session_number,start_end,starttime,subject_id,task,task_vers,trial
0,prac,1,,1-Back,,,Wed Nov 06 2024 13:55:30 GMT-0600 (Central Standard Time),,093_m_f_n_a.png,O,space,7449,1,1,,,7033,NNB,C,0
1,prac,1,0.0,1-Back,1,m,Wed Nov 06 2024 13:55:30 GMT-0600 (Central Standard Time),136350.59999990463,098_y_f_n_a.png,O,m,1610,2,1,2497.0999999046326,133853.5,7033,NNB,C,1
1,prac,1,1.0,1-Back,0,z,Wed Nov 06 2024 13:55:30 GMT-0600 (Central Standard Time),139149.59999990463,098_y_f_n_a.png,O,None,2007,3,1,2774.7999999523163,136374.79999995232,7033,NNB,C,2
2,prac,1,0.0,1-Back,1,m,Wed Nov 06 2024 13:55:30 GMT-0600 (Central Standard Time),141748.70000004768,059_o_m_n_a.png,O,m,1659,4,1,2564.4000000953674,139184.29999995232,7033,NNB,C,3
2,prac,1,0.0,1-Back,0,m,Wed Nov 06 2024 13:55:30 GMT-0600 (Central Standard Time),144680.79999995232,092_m_m_n_a.png,O,None,2012,5,1,2907.0999999046326,141773.70000004768,7033,NNB,C,4
3,prac,1,1.0,1-Back,1,z,Wed Nov 06 2024 13:55:30 GMT-0600 (Central Standard Time),146014.0,092_m_m_n_a.png,O,z,525,6,1,1303.5,144710.5,7033,NNB,C,5
3,prac,1,0.0,1-Back,0,m,Wed Nov 06 2024 13:55:30 GMT-0600 (Central Standard Time),148962.79999995232,130_o_f_n_a.png,O,None,2003,7,1,2919.0999999046326,146043.70000004768,7033,NNB,C,6
4,prac,1,0.0,1-Back,1,m,Wed Nov 06 2024 13:55:30 GMT-0600 (Central Standard Time),151245.5,082_m_m_n_a.png,O,m,1350,8,1,2252.2999999523163,148993.20000004768,7033,NNB,C,7
4,prac,1,0.0,1-Back,0,m,Wed Nov 06 2024 13:55:30 GMT-0600 (Central Standard Time),154177.79999995232,093_m_f_n_a.png,O,None,2007,9,1,2903.5,151274.29999995232,7033,NNB,C,8
5,prac,1,1.0,1-Back,1,z,Wed Nov 06 2024 13:55:30 GMT-0600 (Central Standard Time),155594.09999990463,093_m_f_n_a.png,O,z,613,10,1,1388.2999999523163,154205.79999995232,7033,NNB,C,9
5,prac,1,0.0,1-Back,0,m,Wed Nov 06 2024 13:55:30 GMT-0600 (Central Standard Time),158542.90000009537,059_o_m_n_a.png,O,None,2015,11,1,2915.800000190735,155627.09999990463,7033,NNB,C,10
6,prac,1,0.0,1-Back,1,m,Wed Nov 06 2024 13:55:30 GMT-0600 (Central Standard Time),160026.29999995232,028_y_f_n_a.png,O,m,554,12,1,1455.7999999523163,158570.5,7033,NNB,C,11
0,prac,2,0.0,1-Back,,,Wed Nov 06 2024 13:55:30 GMT-0600 (Central Standard Time),160026.29999995232,093_m_f_n_a.png,O,a,15236,1,1,1455.7999999523163,158570.5,7033,NNB,C,0
0,prac,2,0.0,1-Back,0,m,Wed Nov 06 2024 13:55:30 GMT-0600 (Central Standard Time),181235.70000004768,098_y_f_n_a.png,O,None,2002,2,1,2889.5,178346.20000004768,7033,NNB,C,1
0,prac,2,1.0,1-Back,0,z,Wed Nov 06 2024 13:55:30 GMT-0600 (Central Standard Time),184034.70000004768,098_y_f_n_a.png,O,None,2002,3,1,2769.0,181265.70000004768,7033,NNB,C,2
1,prac,2,0.0,1-Back,1,m,Wed Nov 06 2024 13:55:30 GMT-0600 (Central Standard Time),186084.0,059_o_m_n_a.png,O,m,1114,4,1,2023.7000000476837,184060.29999995232,7033,NNB,C,3
1,prac,2,0.0,1-Back,0,m,Wed Nov 06 2024 13:55:30 GMT-0600 (Central Standard Time),189033.0,092_m_m_n_a.png,O,None,2014,5,1,2920.4000000953674,186112.59999990463,7033,NNB,C,4
2,prac,2,1.0,1-Back,1,z,Wed Nov 06 2024 13:55:30 GMT-0600 (Central Standard Time),191032.5,092_m_m_n_a.png,O,z,1194,6,1,1968.9000000953674,189063.59999990463,7033,NNB,C,5
2,prac,2,0.0,1-Back,0,m,Wed Nov 06 2024 13:55:30 GMT-0600 (Central Standard Time),193998.20000004768,130_o_f_n_a.png,O,None,2004,7,1,2935.100000143051,191063.09999990463,7033,NNB,C,6
3,prac,2,0.0,1-Back,1,m,Wed Nov 06 2024 13:55:30 GMT-0600 (Central Standard Time),195880.79999995232,082_m_m_n_a.png,O,m,960,8,1,1859.3999998569489,194021.40000009537,7033,NNB,C,7
3,prac,2,0.0,1-Back,0,m,Wed Nov 06 2024 13:55:30 GMT-0600 (Central Standard Time),198813.09999990463,093_m_f_n_a.png,O,None,2004,9,1,2904.5,195908.59999990463,7033,NNB,C,8
4,prac,2,1.0,1-Back,1,z,Wed Nov 06 2024 13:55:30 GMT-0600 (Central Standard Time),200429.40000009537,093_m_f_n_a.png,O,z,824,10,1,1593.8000001907349,198835.59999990463,7033,NNB,C,9
4,prac,2,0.0,1-Back,0,m,Wed Nov 06 2024 13:55:30 GMT-0600 (Central Standard Time),203361.5,059_o_m_n_a.png,O,None,2005,11,1,2905.7999999523163,200455.70000004768,7033,NNB,C,10
5,prac,2,0.0,1-Back,1,m,Wed Nov 06 2024 13:55:30 GMT-0600 (Central Standard Time),205461.09999990463,028_y_f_n_a.png,O,m,1174,12,1,2071.199999809265,203389.90000009537,7033,NNB,C,11
0,test,1,0.0,1-Back,,,Wed Nov 06 2024 13:55:30 GMT-0600 (Central Standard Time),205461.09999990463,098_y_f_n_a.png,O,space,33726,1,1,2071.199999809265,203389.90000009537,7033,NNB,C,0
1,test,1,0.0,1-Back,1,m,Wed Nov 06 2024 13:55:30 GMT-0600 (Central Standard Time),259293.40000009537,006_m_f_n_a.png,O,m,1139,2,1,2181.7000000476837,257111.70000004768,7033,NNB,C,1
2,test,1,0.0,1-Back,1,m,Wed Nov 06 2024 13:55:30 GMT-0600 (Central Standard Time),261459.20000004768,028_y_f_n_a.png,O,m,1117,3,1,2147.2999999523163,259311.90000009537,7033,NNB,C,2
3,test,1,1.0,1-Back,1,z,Wed Nov 06 2024 13:55:30 GMT-0600 (Central Standard Time),263525.40000009537,028_y_f_n_a.png,O,z,1023,4,1,2048.9000000953674,261476.5,7033,NNB,C,3
4,test,1,0.0,1-Back,1,m,Wed Nov 06 2024 13:55:30 GMT-0600 (Central Standard Time),265657.7000000477,006_m_f_n_a.png,O,m,1093,5,1,2113.100000143051,263544.59999990463,7033,NNB,C,4
5,test,1,0.0,1-Back,1,m,Wed Nov 06 2024 13:55:30 GMT-0600 (Central Standard Time),267756.7999999523,059_o_m_n_a.png,O,m,1066,6,1,2081.899999856949,265674.90000009537,7033,NNB,C,5
6,test,1,1.0,1-Back,1,z,Wed Nov 06 2024 13:55:30 GMT-0600 (Central Standard Time),269623.09999990463,059_o_m_n_a.png,O,z,829,7,1,1847.5999999046326,267775.5,7033,NNB,C,6
7,test,1,0.0,1-Back,1,m,Wed Nov 06 2024 13:55:30 GMT-0600 (Central Standard Time),271872.2999999523,092_m_m_n_a.png,O,m,1203,8,1,2228.899999856949,269643.40000009537,7033,NNB,C,7
8,test,1,0.0,1-Back,1,m,Wed Nov 06 2024 13:55:30 GMT-0600 (Central Standard Time),274171.59999990463,130_o_f_n_a.png,O,m,1250,9,1,2281.0,271890.59999990463,7033,NNB,C,8
9,test,1,0.0,1-Back,1,m,Wed Nov 06 2024 13:55:30 GMT-0600 (Central Standard Time),276387.40000009537,092_m_m_n_a.png,O,m,1174,10,1,2197.0,274190.40000009537,7033,NNB,C,9
10,test,1,0.0,1-Back,1,m,Wed Nov 06 2024 13:55:30 GMT-0600 (Central Standard Time),278353.40000009537,057_y_m_n_a.png,O,m,893,11,1,1941.6000001430511,276411.7999999523,7033,NNB,C,10
11,test,1,1.0,1-Back,1,z,Wed Nov 06 2024 13:55:30 GMT-0600 (Central Standard Time),280069.40000009537,057_y_m_n_a.png,O,z,647,12,1,1694.9000000953674,278374.5,7033,NNB,C,11
12,test,1,0.0,1-Back,1,m,Wed Nov 06 2024 13:55:30 GMT-0600 (Central Standard Time),282535.2999999523,030_o_f_n_a.png,O,m,1428,13,1,2444.2000000476837,280091.09999990463,7033,NNB,C,12
13,test,1,1.0,1-Back,1,z,Wed Nov 06 2024 13:55:30 GMT-0600 (Central Standard Time),284401.7999999523,030_o_f_n_a.png,O,z,827,14,1,1850.0999999046326,282551.7000000477,7033,NNB,C,13
14,test,1,0.0,1-Back,1,m,Wed Nov 06 2024 13:55:30 GMT-0600 (Central Standard Time),286351.09999990463,031_y_m_n_a.png,O,m,913,15,1,1930.5999999046326,284420.5,7033,NNB,C,14
15,test,1,0.0,1-Back,1,m,Wed Nov 06 2024 13:55:30 GMT-0600 (Central Standard Time),288566.7999999523,093_m_f_n_a.png,O,m,1171,16,1,2198.0999999046326,286368.7000000477,7033,NNB,C,15
16,test,1,0.0,1-Back,1,m,Wed Nov 06 2024 13:55:30 GMT-0600 (Central Standard Time),290483.0,146_o_m_n_a.png,O,m,834,17,1,1894.7000000476837,288588.2999999523,7033,NNB,C,16
17,test,1,0.0,1-Back,1,m,Wed Nov 06 2024 13:55:30 GMT-0600 (Central Standard Time),292398.90000009537,093_m_f_n_a.png,O,m,879,18,1,1898.3000001907349,290500.59999990463,7033,NNB,C,17
0,test,2,0.0,1-Back,,,Wed Nov 06 2024 13:55:30 GMT-0600 (Central Standard Time),292398.90000009537,092_m_m_n_a.png,O,space,2171,1,1,1898.3000001907349,290500.59999990463,7033,NNB,C,0
1,test,2,0.0,1-Back,1,m,Wed Nov 06 2024 13:55:30 GMT-0600 (Central Standard Time),298596.7000000477,006_m_f_n_a.png,O,m,807,2,1,1834.1000001430511,296762.59999990463,7033,NNB,C,1
2,test,2,1.0,1-Back,1,z,Wed Nov 06 2024 13:55:30 GMT-0600 (Central Standard Time),300182.40000009537,006_m_f_n_a.png,O,z,541,3,1,1565.5,298616.90000009537,7033,NNB,C,2
3,test,2,0.0,1-Back,1,m,Wed Nov 06 2024 13:55:30 GMT-0600 (Central Standard Time),302179.2000000477,092_m_m_n_a.png,O,m,942,4,1,1964.2000000476837,300215.0,7033,NNB,C,3
4,test,2,0.0,1-Back,1,m,Wed Nov 06 2024 13:55:30 GMT-0600 (Central Standard Time),303994.7000000477,057_y_m_n_a.png,O,m,767,5,1,1798.0,302196.7000000477,7033,NNB,C,4
5,test,2,0.0,1-Back,1,m,Wed Nov 06 2024 13:55:30 GMT-0600 (Central Standard Time),305761.2000000477,098_y_f_n_a.png,O,m,744,6,1,1756.1000001430511,304005.09999990463,7033,NNB,C,5
6,test,2,1.0,1-Back,1,z,Wed Nov 06 2024 13:55:30 GMT-0600 (Central Standard Time),307294.0,098_y_f_n_a.png,O,z,489,7,1,1515.5999999046326,305778.40000009537,7033,NNB,C,6
7,test,2,0.0,1-Back,1,m,Wed Nov 06 2024 13:55:30 GMT-0600 (Central Standard Time),309342.5,057_y_m_n_a.png,O,m,1003,8,1,2029.7999999523163,307312.7000000477,7033,NNB,C,7
8,test,2,0.0,1-Back,1,m,Wed Nov 06 2024 13:55:30 GMT-0600 (Central Standard Time),311226.0,030_o_f_n_a.png,O,m,851,9,1,1879.2000000476837,309346.7999999523,7033,NNB,C,8
9,test,2,0.0,1-Back,1,m,Wed Nov 06 2024 13:55:30 GMT-0600 (Central Standard Time),313025.40000009537,082_m_m_n_a.png,O,m,760,10,1,1780.6000001430511,311244.7999999523,7033,NNB,C,9
10,test,2,1.0,1-Back,1,z,Wed Nov 06 2024 13:55:30 GMT-0600 (Central Standard Time),314591.5,082_m_m_n_a.png,O,z,529,11,1,1547.2000000476837,313044.2999999523,7033,NNB,C,10
11,test,2,0.0,1-Back,1,m,Wed Nov 06 2024 13:55:30 GMT-0600 (Central Standard Time),316523.7999999523,030_o_f_n_a.png,O,m,890,12,1,1915.8999998569489,314607.90000009537,7033,NNB,C,11
12,test,2,0.0,1-Back,1,m,Wed Nov 06 2024 13:55:30 GMT-0600 (Central Standard Time),318440.2999999523,130_o_f_n_a.png,O,m,894,13,1,1910.5,316529.7999999523,7033,NNB,C,12
13,test,2,0.0,1-Back,1,m,Wed Nov 06 2024 13:55:30 GMT-0600 (Central Standard Time),320356.5,059_o_m_n_a.png,O,m,874,14,1,1898.9000000953674,318457.59999990463,7033,NNB,C,13
14,test,2,0.0,1-Back,1,m,Wed Nov 06 2024 13:55:30 GMT-0600 (Central Standard Time),322222.2999999523,146_o_m_n_a.png,O,m,830,15,1,1845.7999999523163,320376.5,7033,NNB,C,14
15,test,2,1.0,1-Back,1,z,Wed Nov 06 2024 13:55:30 GMT-0600 (Central Standard Time),323805.0,146_o_m_n_a.png,O,z,548,16,1,1565.2000000476837,322239.7999999523,7033,NNB,C,15
16,test,2,0.0,1-Back,1,m,Wed Nov 06 2024 13:55:30 GMT-0600 (Central Standard Time),325804.59999990463,031_y_m_n_a.png,O,m,957,17,1,1980.0,323824.59999990463,7033,NNB,C,16
17,test,2,1.0,1-Back,1,z,Wed Nov 06 2024 13:55:30 GMT-0600 (Central Standard Time),327503.90000009537,031_y_m_n_a.png,O,z,661,18,1,1681.8000001907349,325822.09999990463,7033,NNB,C,17
0,test,3,1.0,1-Back,,,Wed Nov 06 2024 13:55:30 GMT-0600 (Central Standard Time),327503.90000009537,028_y_f_n_a.png,O,space,1514,1,1,1681.8000001907349,325822.09999990463,7033,NNB,C,0
1,test,3,0.0,1-Back,1,m,Wed Nov 06 2024 13:55:30 GMT-0600 (Central Standard Time),333052.5,146_o_m_n_a.png,O,m,816,1,1,1845.2999999523163,331207.2000000477,7033,NNB,C,1
2,test,3,1.0,1-Back,1,z,Wed Nov 06 2024 13:55:30 GMT-0600 (Central Standard Time),334667.7999999523,146_o_m_n_a.png,O,z,574,1,1,1597.3999998569489,333070.40000009537,7033,NNB,C,2
3,test,3,0.0,1-Back,1,m,Wed Nov 06 2024 13:55:30 GMT-0600 (Central Standard Time),336401.0,093_m_f_n_a.png,O,m,711,1,1,1724.2999999523163,334676.7000000477,7033,NNB,C,3
4,test,3,1.0,1-Back,1,z,Wed Nov 06 2024 13:55:30 GMT-0600 (Central Standard Time),337983.90000009537,093_m_f_n_a.png,O,z,537,1,1,1560.2000000476837,336423.7000000477,7033,NNB,C,4
5,test,3,0.0,1-Back,1,m,Wed Nov 06 2024 13:55:30 GMT-0600 (Central Standard Time),339916.7000000477,030_o_f_n_a.png,O,m,890,1,1,1913.7000000476837,338003.0,7033,NNB,C,5
6,test,3,0.0,1-Back,1,m,Wed Nov 06 2024 13:55:30 GMT-0600 (Central Standard Time),341715.09999990463,057_y_m_n_a.png,O,m,765,1,1,1780.5999999046326,339934.5,7033,NNB,C,6
7,test,3,0.0,1-Back,1,m,Wed Nov 06 2024 13:55:30 GMT-0600 (Central Standard Time),343432.2000000477,030_o_f_n_a.png,O,m,687,1,1,1713.0,341719.2000000477,7033,NNB,C,7
8,test,3,0.0,1-Back,1,m,Wed Nov 06 2024 13:55:30 GMT-0600 (Central Standard Time),345198.40000009537,031_y_m_n_a.png,O,m,722,1,1,1746.7000000476837,343451.7000000477,7033,NNB,C,8
9,test,3,1.0,1-Back,1,z,Wed Nov 06 2024 13:55:30 GMT-0600 (Central Standard Time),346864.2999999523,031_y_m_n_a.png,O,z,620,1,1,1643.2000000476837,345221.09999990463,7033,NNB,C,9
10,test,3,0.0,1-Back,1,m,Wed Nov 06 2024 13:55:30 GMT-0600 (Central Standard Time),348647.0,006_m_f_n_a.png,O,m,738,1,1,1764.9000000953674,346882.09999990463,7033,NNB,C,10
11,test,3,0.0,1-Back,1,m,Wed Nov 06 2024 13:55:30 GMT-0600 (Central Standard Time),350380.7000000477,098_y_f_n_a.png,O,m,699,1,1,1716.4000000953674,348664.2999999523,7033,NNB,C,11
11,test,3,1.0,1-Back,0,z,Wed Nov 06 2024 13:55:30 GMT-0600 (Central Standard Time),352045.90000009537,098_y_f_n_a.png,O,m,622,1,1,1647.3000001907349,350398.59999990463,7033,NNB,C,12
12,test,3,0.0,1-Back,1,m,Wed Nov 06 2024 13:55:30 GMT-0600 (Central Standard Time),354112.0,006_m_f_n_a.png,O,m,1027,1,1,2043.9000000953674,352068.09999990463,7033,NNB,C,13
13,test,3,0.0,1-Back,1,m,Wed Nov 06 2024 13:55:30 GMT-0600 (Central Standard Time),355877.90000009537,092_m_m_n_a.png,O,m,730,1,1,1747.5,354130.40000009537,7033,NNB,C,14
14,test,3,1.0,1-Back,1,z,Wed Nov 06 2024 13:55:30 GMT-0600 (Central Standard Time),357494.2999999523,092_m_m_n_a.png,O,z,572,1,1,1598.7000000476837,355895.59999990463,7033,NNB,C,15
15,test,3,0.0,1-Back,1,m,Wed Nov 06 2024 13:55:30 GMT-0600 (Central Standard Time),359376.7999999523,130_o_f_n_a.png,O,m,836,1,1,1864.2000000476837,357512.59999990463,7033,NNB,C,16
16,test,3,1.0,1-Back,1,z,Wed Nov 06 2024 13:55:30 GMT-0600 (Central Standard Time),360909.40000009537,130_o_f_n_a.png,O,z,497,1,1,1513.3000001907349,359396.09999990463,7033,NNB,C,17
0,test,4,1.0,1-Back,,,Wed Nov 06 2024 13:55:30 GMT-0600 (Central Standard Time),360909.40000009537,093_m_f_n_a.png,O,space,1245,1,1,1513.3000001907349,359396.09999990463,7033,NNB,C,0
1,test,4,0.0,1-Back,1,m,Wed Nov 06 2024 13:55:30 GMT-0600 (Central Standard Time),366074.5,146_o_m_n_a.png,O,m,726,2,1,1744.2999999523163,364330.2000000477,7033,NNB,C,1
2,test,4,0.0,1-Back,1,m,Wed Nov 06 2024 13:55:30 GMT-0600 (Central Standard Time),367890.7000000477,093_m_f_n_a.png,O,m,768,3,1,1789.2000000476837,366101.5,7033,NNB,C,2
3,test,4,0.0,1-Back,1,m,Wed Nov 06 2024 13:55:30 GMT-0600 (Central Standard Time),369906.7999999523,030_o_f_n_a.png,O,m,976,4,1,1995.7999999523163,367911.0,7033,NNB,C,3
4,test,4,1.0,1-Back,1,z,Wed Nov 06 2024 13:55:30 GMT-0600 (Central Standard Time),371473.0,030_o_f_n_a.png,O,z,519,5,1,1549.5,369923.5,7033,NNB,C,4
5,test,4,0.0,1-Back,1,m,Wed Nov 06 2024 13:55:30 GMT-0600 (Central Standard Time),373588.09999990463,098_y_f_n_a.png,O,m,1080,6,1,2097.2999999523163,371490.7999999523,7033,NNB,C,5
6,test,4,0.0,1-Back,1,m,Wed Nov 06 2024 13:55:30 GMT-0600 (Central Standard Time),375288.2999999523,057_y_m_n_a.png,O,m,680,7,1,1695.2000000476837,373593.09999990463,7033,NNB,C,6
7,test,4,1.0,1-Back,1,z,Wed Nov 06 2024 13:55:30 GMT-0600 (Central Standard Time),377253.90000009537,057_y_m_n_a.png,O,z,929,8,1,1945.7000000476837,375308.2000000477,7033,NNB,C,7
8,test,4,0.0,1-Back,1,m,Wed Nov 06 2024 13:55:30 GMT-0600 (Central Standard Time),379103.7000000477,098_y_f_n_a.png,O,m,829,9,1,1839.6000001430511,377264.09999990463,7033,NNB,C,8
9,test,4,0.0,1-Back,1,m,Wed Nov 06 2024 13:55:30 GMT-0600 (Central Standard Time),381086.40000009537,082_m_m_n_a.png,O,m,939,10,1,1965.6000001430511,379120.7999999523,7033,NNB,C,9
10,test,4,1.0,1-Back,1,z,Wed Nov 06 2024 13:55:30 GMT-0600 (Central Standard Time),382952.5,082_m_m_n_a.png,O,z,820,11,1,1848.2999999523163,381104.2000000477,7033,NNB,C,10
11,test,4,0.0,1-Back,1,m,Wed Nov 06 2024 13:55:30 GMT-0600 (Central Standard Time),384901.59999990463,130_o_f_n_a.png,O,m,914,12,1,1928.5,382973.09999990463,7033,NNB,C,11
12,test,4,0.0,1-Back,1,m,Wed Nov 06 2024 13:55:30 GMT-0600 (Central Standard Time),387068.7000000477,059_o_m_n_a.png,O,m,1132,13,1,2149.5,384919.2000000477,7033,NNB,C,12
13,test,4,0.0,1-Back,1,m,Wed Nov 06 2024 13:55:30 GMT-0600 (Central Standard Time),388833.90000009537,130_o_f_n_a.png,O,m,719,14,1,1744.8000001907349,387089.09999990463,7033,NNB,C,13
14,test,4,0.0,1-Back,1,m,Wed Nov 06 2024 13:55:30 GMT-0600 (Central Standard Time),390583.2000000477,028_y_f_n_a.png,O,m,712,15,1,1725.6000001430511,388857.59999990463,7033,NNB,C,14
15,test,4,1.0,1-Back,1,z,Wed Nov 06 2024 13:55:30 GMT-0600 (Central Standard Time),392166.09999990463,028_y_f_n_a.png,O,z,539,16,1,1566.0999999046326,390600.0,7033,NNB,C,15
16,test,4,0.0,1-Back,1,m,Wed Nov 06 2024 13:55:30 GMT-0600 (Central Standard Time),394132.09999990463,006_m_f_n_a.png,O,m,916,17,1,1939.0,392193.09999990463,7033,NNB,C,16
17,test,4,1.0,1-Back,1,z,Wed Nov 06 2024 13:55:30 GMT-0600 (Central Standard Time),395748.2000000477,006_m_f_n_a.png,O,z,566,18,1,1598.7999999523163,394149.40000009537,7033,NNB,C,17
0,test,5,1.0,1-Back,,,Wed Nov 06 2024 13:55:30 GMT-0600 (Central Standard Time),395748.2000000477,059_o_m_n_a.png,O,space,1182,1,1,1598.7999999523163,394149.40000009537,7033,NNB,C,0
1,test,5,1.0,1-Back,1,z,Wed Nov 06 2024 13:55:30 GMT-0600 (Central Standard Time),401778.90000009537,059_o_m_n_a.png,O,z,1615,2,1,2645.600000143051,399133.2999999523,7033,NNB,C,1
2,test,5,0.0,1-Back,1,m,Wed Nov 06 2024 13:55:30 GMT-0600 (Central Standard Time),403812.7000000477,098_y_f_n_a.png,O,m,1015,3,1,2030.1000001430511,401782.59999990463,7033,NNB,C,2
3,test,5,0.0,1-Back,1,m,Wed Nov 06 2024 13:55:30 GMT-0600 (Central Standard Time),405678.5,057_y_m_n_a.png,O,m,830,4,1,1848.9000000953674,403829.59999990463,7033,NNB,C,3
4,test,5,0.0,1-Back,1,m,Wed Nov 06 2024 13:55:30 GMT-0600 (Central Standard Time),407594.5,098_y_f_n_a.png,O,m,876,5,1,1898.9000000953674,405695.59999990463,7033,NNB,C,4
5,test,5,0.0,1-Back,1,m,Wed Nov 06 2024 13:55:30 GMT-0600 (Central Standard Time),409427.2000000477,092_m_m_n_a.png,O,m,792,6,1,1815.6000001430511,407611.59999990463,7033,NNB,C,5
6,test,5,1.0,1-Back,1,z,Wed Nov 06 2024 13:55:30 GMT-0600 (Central Standard Time),410976.2999999523,092_m_m_n_a.png,O,z,503,7,1,1529.2000000476837,409447.09999990463,7033,NNB,C,6
7,test,5,0.0,1-Back,1,m,Wed Nov 06 2024 13:55:30 GMT-0600 (Central Standard Time),412776.0,028_y_f_n_a.png,O,m,778,8,1,1788.0,410988.0,7033,NNB,C,7
8,test,5,0.0,1-Back,1,m,Wed Nov 06 2024 13:55:30 GMT-0600 (Central Standard Time),414458.7000000477,031_y_m_n_a.png,O,m,634,9,1,1667.0,412791.7000000477,7033,NNB,C,8
9,test,5,0.0,1-Back,1,m,Wed Nov 06 2024 13:55:30 GMT-0600 (Central Standard Time),416208.2999999523,028_y_f_n_a.png,O,m,703,10,1,1732.2999999523163,414476.0,7033,NNB,C,9
10,test,5,0.0,1-Back,1,m,Wed Nov 06 2024 13:55:30 GMT-0600 (Central Standard Time),417924.2999999523,130_o_f_n_a.png,O,m,674,11,1,1698.0999999046326,416226.2000000477,7033,NNB,C,10
11,test,5,1.0,1-Back,1,z,Wed Nov 06 2024 13:55:30 GMT-0600 (Central Standard Time),419757.2000000477,130_o_f_n_a.png,O,z,790,12,1,1814.2000000476837,417943.0,7033,NNB,C,11
12,test,5,0.0,1-Back,1,m,Wed Nov 06 2024 13:55:30 GMT-0600 (Central Standard Time),421540.59999990463,146_o_m_n_a.png,O,m,749,13,1,1766.5,419774.09999990463,7033,NNB,C,12
13,test,5,0.0,1-Back,1,m,Wed Nov 06 2024 13:55:30 GMT-0600 (Central Standard Time),423572.40000009537,093_m_f_n_a.png,O,m,982,14,1,2014.6000001430511,421557.7999999523,7033,NNB,C,13
14,test,5,1.0,1-Back,1,z,Wed Nov 06 2024 13:55:30 GMT-0600 (Central Standard Time),425171.7999999523,093_m_f_n_a.png,O,z,558,15,1,1582.0,423589.7999999523,7033,NNB,C,14
15,test,5,0.0,1-Back,1,m,Wed Nov 06 2024 13:55:30 GMT-0600 (Central Standard Time),426938.0,146_o_m_n_a.png,O,m,718,16,1,1748.2999999523163,425189.7000000477,7033,NNB,C,15
16,test,5,0.0,1-Back,1,m,Wed Nov 06 2024 13:55:30 GMT-0600 (Central Standard Time),428604.09999990463,006_m_f_n_a.png,O,m,624,17,1,1647.7999999523163,426956.2999999523,7033,NNB,C,16
17,test,5,0.0,1-Back,1,m,Wed Nov 06 2024 13:55:30 GMT-0600 (Central Standard Time),430302.7999999523,082_m_m_n_a.png,O,m,653,18,1,1680.7999999523163,428622.0,7033,NNB,C,17
0,prac,1,0.0,2-Back,,,Wed Nov 06 2024 13:55:30 GMT-0600 (Central Standard Time),430302.7999999523,031_y_m_n_a.png,O,space,7742,1,1,1680.7999999523163,428622.0,7033,NNB,C,0
0,prac,1,0.0,2-Back,,,Wed Nov 06 2024 13:55:30 GMT-0600 (Central Standard Time),430302.7999999523,006_m_f_n_a.png,O,space,7742,2,1,1680.7999999523163,428622.0,7033,NNB,C,0
1,prac,1,1.0,2-Back,1,m,Wed Nov 06 2024 13:55:30 GMT-0600 (Central Standard Time),544136.5,146_o_m_n_a.png,O,m,1215,3,1,2145.7000000476837,541990.7999999523,7033,NNB,C,1
1,prac,1,0.0,2-Back,0,m,Wed Nov 06 2024 13:55:30 GMT-0600 (Central Standard Time),547165.4000000954,130_o_f_n_a.png,O,None,2015,4,1,2965.4000000953674,544200.0,7033,NNB,C,2
1,prac,1,0.0,2-Back,0,z,Wed Nov 06 2024 13:55:30 GMT-0600 (Central Standard Time),550130.7999999523,146_o_m_n_a.png,O,None,2015,5,1,2926.2000000476837,547204.5999999046,7033,NNB,C,3
2,prac,1,1.0,2-Back,1,z,Wed Nov 06 2024 13:55:30 GMT-0600 (Central Standard Time),552413.5,130_o_f_n_a.png,O,z,1297,6,1,2251.9000000953674,550161.5999999046,7033,NNB,C,4
2,prac,1,0.0,2-Back,0,m,Wed Nov 06 2024 13:55:30 GMT-0600 (Central Standard Time),555379.0,082_m_m_n_a.png,O,None,2007,7,1,2937.9000000953674,552441.0999999046,7033,NNB,C,5
2,prac,1,0.0,2-Back,0,m,Wed Nov 06 2024 13:55:30 GMT-0600 (Central Standard Time),558361.4000000954,059_o_m_n_a.png,O,None,2013,8,1,2954.600000143051,555406.7999999523,7033,NNB,C,6
3,prac,1,0.0,2-Back,1,m,Wed Nov 06 2024 13:55:30 GMT-0600 (Central Standard Time),559827.7999999523,028_y_f_n_a.png,O,m,544,9,1,1431.0999999046326,558396.7000000477,7033,NNB,C,7
3,prac,1,1.0,2-Back,0,z,Wed Nov 06 2024 13:55:30 GMT-0600 (Central Standard Time),562760.0,059_o_m_n_a.png,O,None,2001,10,1,2907.2999999523163,559852.7000000477,7033,NNB,C,8
3,prac,1,0.0,2-Back,0,m,Wed Nov 06 2024 13:55:30 GMT-0600 (Central Standard Time),565692.2999999523,098_y_f_n_a.png,O,None,2001,11,1,2905.0999999046326,562787.2000000477,7033,NNB,C,9
4,prac,1,0.0,2-Back,1,m,Wed Nov 06 2024 13:55:30 GMT-0600 (Central Standard Time),567575.4000000954,082_m_m_n_a.png,O,m,950,12,1,1856.8000001907349,565718.5999999046,7033,NNB,C,10
0,prac,2,0.0,2-Back,,,Wed Nov 06 2024 13:55:30 GMT-0600 (Central Standard Time),567575.4000000954,031_y_m_n_a.png,O,a,34567,1,1,1856.8000001907349,565718.5999999046,7033,NNB,C,0
0,prac,2,0.0,2-Back,,,Wed Nov 06 2024 13:55:30 GMT-0600 (Central Standard Time),567575.4000000954,006_m_f_n_a.png,O,a,34567,2,1,1856.8000001907349,565718.5999999046,7033,NNB,C,0
1,prac,2,1.0,2-Back,1,m,Wed Nov 06 2024 13:55:30 GMT-0600 (Central Standard Time),609444.7999999523,146_o_m_n_a.png,O,m,918,3,1,1839.0,607605.7999999523,7033,NNB,C,1
1,prac,2,0.0,2-Back,0,m,Wed Nov 06 2024 13:55:30 GMT-0600 (Central Standard Time),612410.2999999523,130_o_f_n_a.png,O,None,2008,4,1,2938.2999999523163,609472.0,7033,NNB,C,2
2,prac,2,0.0,2-Back,1,z,Wed Nov 06 2024 13:55:30 GMT-0600 (Central Standard Time),614326.5999999046,146_o_m_n_a.png,O,z,1104,5,1,1883.7999999523163,612442.7999999523,7033,NNB,C,3
2,prac,2,1.0,2-Back,0,z,Wed Nov 06 2024 13:55:30 GMT-0600 (Central Standard Time),617291.9000000954,130_o_f_n_a.png,O,None,2014,6,1,2944.7000000476837,614347.2000000477,7033,NNB,C,4
3,prac,2,0.0,2-Back,1,m,Wed Nov 06 2024 13:55:30 GMT-0600 (Central Standard Time),620024.7999999523,082_m_m_n_a.png,O,m,1793,7,1,2700.2999999523163,617324.5,7033,NNB,C,5
3,prac,2,0.0,2-Back,0,m,Wed Nov 06 2024 13:55:30 GMT-0600 (Central Standard Time),622956.7999999523,059_o_m_n_a.png,O,None,2007,8,1,2908.0999999046326,620048.7000000477,7033,NNB,C,6
4,prac,2,0.0,2-Back,1,m,Wed Nov 06 2024 13:55:30 GMT-0600 (Central Standard Time),624755.2999999523,028_y_f_n_a.png,O,m,871,9,1,1767.3999998569489,622987.9000000954,7033,NNB,C,7
4,prac,2,1.0,2-Back,0,z,Wed Nov 06 2024 13:55:30 GMT-0600 (Central Standard Time),627655.2000000477,059_o_m_n_a.png,O,None,2001,10,1,2893.100000143051,624762.0999999046,7033,NNB,C,8
5,prac,2,0.0,2-Back,1,m,Wed Nov 06 2024 13:55:30 GMT-0600 (Central Standard Time),629355.0,098_y_f_n_a.png,O,m,757,11,1,1671.4000000953674,627683.5999999046,7033,NNB,C,9
5,prac,2,0.0,2-Back,0,m,Wed Nov 06 2024 13:55:30 GMT-0600 (Central Standard Time),632287.2000000477,082_m_m_n_a.png,O,None,2013,12,1,2909.100000143051,629378.0999999046,7033,NNB,C,10
0,test,1,0.0,2-Back,,,Wed Nov 06 2024 13:55:30 GMT-0600 (Central Standard Time),632287.2000000477,057_y_m_n_a.png,O,space,23586,1,1,2909.100000143051,629378.0999999046,7033,NNB,C,0
0,test,1,0.0,2-Back,,,Wed Nov 06 2024 13:55:30 GMT-0600 (Central Standard Time),632287.2000000477,057_y_m_n_a.png,O,space,23586,2,1,2909.100000143051,629378.0999999046,7033,NNB,C,0
1,test,1,0.0,2-Back,1,m,Wed Nov 06 2024 13:55:30 GMT-0600 (Central Standard Time),674706.7000000477,130_o_f_n_a.png,O,m,676,3,1,1698.7000000476837,673008.0,7033,NNB,C,1
1,test,1,0.0,2-Back,0,m,Wed Nov 06 2024 13:55:30 GMT-0600 (Central Standard Time),677755.7000000477,092_m_m_n_a.png,O,None,2015,4,1,3030.4000000953674,674725.2999999523,7033,NNB,C,2
1,test,1,1.0,2-Back,0,z,Wed Nov 06 2024 13:55:30 GMT-0600 (Central Standard Time),679554.7999999523,130_o_f_n_a.png,O,m,759,5,1,1781.0,677773.7999999523,7033,NNB,C,3
1,test,1,0.0,2-Back,0,m,Wed Nov 06 2024 13:55:30 GMT-0600 (Central Standard Time),682604.0,098_y_f_n_a.png,O,None,2015,6,1,3031.7999999523163,679572.2000000477,7033,NNB,C,4
2,test,1,0.0,2-Back,1,m,Wed Nov 06 2024 13:55:30 GMT-0600 (Central Standard Time),684785.5999999046,092_m_m_n_a.png,O,m,1134,7,1,2162.0,682623.5999999046,7033,NNB,C,5
3,test,1,1.0,2-Back,1,z,Wed Nov 06 2024 13:55:30 GMT-0600 (Central Standard Time),686935.9000000954,098_y_f_n_a.png,O,z,1120,8,1,2145.600000143051,684790.2999999523,7033,NNB,C,6
4,test,1,0.0,2-Back,1,m,Wed Nov 06 2024 13:55:30 GMT-0600 (Central Standard Time),689384.9000000954,031_y_m_n_a.png,O,m,1403,9,1,2430.9000000953674,686954.0,7033,NNB,C,7
5,test,1,0.0,2-Back,1,m,Wed Nov 06 2024 13:55:30 GMT-0600 (Central Standard Time),691634.2999999523,030_o_f_n_a.png,O,m,1201,10,1,2231.2000000476837,689403.0999999046,7033,NNB,C,8
6,test,1,1.0,2-Back,1,z,Wed Nov 06 2024 13:55:30 GMT-0600 (Central Standard Time),694483.5,031_y_m_n_a.png,O,z,1800,11,1,2833.2999999523163,691650.2000000477,7033,NNB,C,9
7,test,1,0.0,2-Back,1,m,Wed Nov 06 2024 13:55:30 GMT-0600 (Central Standard Time),696666.0999999046,006_m_f_n_a.png,O,m,1135,12,1,2161.699999809265,694504.4000000954,7033,NNB,C,10
7,test,1,0.0,2-Back,0,m,Wed Nov 06 2024 13:55:30 GMT-0600 (Central Standard Time),699715.2000000477,006_m_f_n_a.png,O,None,2015,13,1,3020.5,696694.7000000477,7033,NNB,C,11
8,test,1,0.0,2-Back,1,m,Wed Nov 06 2024 13:55:30 GMT-0600 (Central Standard Time),702097.5999999046,146_o_m_n_a.png,O,m,1343,14,1,2363.399999856949,699734.2000000477,7033,NNB,C,12
9,test,1,0.0,2-Back,1,m,Wed Nov 06 2024 13:55:30 GMT-0600 (Central Standard Time),704430.0,030_o_f_n_a.png,O,m,1287,15,1,2314.7000000476837,702115.2999999523,7033,NNB,C,13
10,test,1,1.0,2-Back,1,z,Wed Nov 06 2024 13:55:30 GMT-0600 (Central Standard Time),706396.0999999046,146_o_m_n_a.png,O,z,933,16,1,1956.2999999523163,704439.7999999523,7033,NNB,C,14
11,test,1,0.0,2-Back,1,m,Wed Nov 06 2024 13:55:30 GMT-0600 (Central Standard Time),708478.7000000477,093_m_f_n_a.png,O,m,1046,17,1,2062.600000143051,706416.0999999046,7033,NNB,C,15
12,test,1,0.0,2-Back,1,m,Wed Nov 06 2024 13:55:30 GMT-0600 (Central Standard Time),710561.0999999046,082_m_m_n_a.png,O,m,1044,18,1,2065.199999809265,708495.9000000954,7033,NNB,C,16
0,test,2,0.0,2-Back,,,Wed Nov 06 2024 13:55:30 GMT-0600 (Central Standard Time),710561.0999999046,082_m_m_n_a.png,O,space,1841,1,1,2065.199999809265,708495.9000000954,7033,NNB,C,0
0,test,2,0.0,2-Back,,,Wed Nov 06 2024 13:55:30 GMT-0600 (Central Standard Time),710561.0999999046,028_y_f_n_a.png,O,space,1841,2,1,2065.199999809265,708495.9000000954,7033,NNB,C,0
0,test,2,1.0,2-Back,0,z,Wed Nov 06 2024 13:55:30 GMT-0600 (Central Standard Time),719325.0,082_m_m_n_a.png,O,m,681,3,1,1687.0,717638.0,7033,NNB,C,1
1,test,2,0.0,2-Back,1,m,Wed Nov 06 2024 13:55:30 GMT-0600 (Central Standard Time),721724.5999999046,093_m_f_n_a.png,O,m,1365,4,1,2382.5999999046326,719342.0,7033,NNB,C,2
1,test,2,0.0,2-Back,0,m,Wed Nov 06 2024 13:55:30 GMT-0600 (Central Standard Time),724007.0999999046,028_y_f_n_a.png,O,z,1229,5,1,2246.699999809265,721760.4000000954,7033,NNB,C,3
2,test,2,0.0,2-Back,1,m,Wed Nov 06 2024 13:55:30 GMT-0600 (Central Standard Time),725956.2000000477,146_o_m_n_a.png,O,m,907,6,1,1930.7000000476837,724025.5,7033,NNB,C,4
3,test,2,0.0,2-Back,1,m,Wed Nov 06 2024 13:55:30 GMT-0600 (Central Standard Time),728255.4000000954,098_y_f_n_a.png,O,m,1262,7,1,2280.600000143051,725974.7999999523,7033,NNB,C,5
4,test,2,1.0,2-Back,1,z,Wed Nov 06 2024 13:55:30 GMT-0600 (Central Standard Time),730238.2000000477,146_o_m_n_a.png,O,z,947,8,1,1956.9000000953674,728281.2999999523,7033,NNB,C,6
5,test,2,0.0,2-Back,1,m,Wed Nov 06 2024 13:55:30 GMT-0600 (Central Standard Time),732320.7000000477,031_y_m_n_a.png,O,m,1061,9,1,2068.2999999523163,730252.4000000954,7033,NNB,C,7
6,test,2,0.0,2-Back,1,m,Wed Nov 06 2024 13:55:30 GMT-0600 (Central Standard Time),734986.7999999523,031_y_m_n_a.png,O,m,1634,10,1,2660.0999999046326,732326.7000000477,7033,NNB,C,8
7,test,2,0.0,2-Back,1,m,Wed Nov 06 2024 13:55:30 GMT-0600 (Central Standard Time),737268.9000000954,006_m_f_n_a.png,O,m,1248,11,1,2261.5,735007.4000000954,7033,NNB,C,9
8,test,2,0.0,2-Back,1,m,Wed Nov 06 2024 13:55:30 GMT-0600 (Central Standard Time),739168.7000000477,028_y_f_n_a.png,O,m,861,12,1,1881.9000000953674,737286.7999999523,7033,NNB,C,10
9,test,2,1.0,2-Back,1,z,Wed Nov 06 2024 13:55:30 GMT-0600 (Central Standard Time),741184.5,006_m_f_n_a.png,O,z,970,13,1,1995.7000000476837,739188.7999999523,7033,NNB,C,11
10,test,2,0.0,2-Back,1,m,Wed Nov 06 2024 13:55:30 GMT-0600 (Central Standard Time),743150.4000000954,059_o_m_n_a.png,O,m,921,14,1,1945.0,741205.4000000954,7033,NNB,C,12
11,test,2,0.0,2-Back,1,m,Wed Nov 06 2024 13:55:30 GMT-0600 (Central Standard Time),745300.0999999046,059_o_m_n_a.png,O,m,1124,15,1,2135.7999999523163,743164.2999999523,7033,NNB,C,13
12,test,2,0.0,2-Back,1,m,Wed Nov 06 2024 13:55:30 GMT-0600 (Central Standard Time),747216.0,030_o_f_n_a.png,O,m,878,16,1,1898.9000000953674,745317.0999999046,7033,NNB,C,14
13,test,2,0.0,2-Back,1,m,Wed Nov 06 2024 13:55:30 GMT-0600 (Central Standard Time),749115.2000000477,092_m_m_n_a.png,O,m,850,17,1,1877.9000000953674,747237.2999999523,7033,NNB,C,15
14,test,2,1.0,2-Back,1,z,Wed Nov 06 2024 13:55:30 GMT-0600 (Central Standard Time),750848.0999999046,030_o_f_n_a.png,O,z,704,18,1,1721.0999999046326,749127.0,7033,NNB,C,16
0,test,3,1.0,2-Back,,,Wed Nov 06 2024 13:55:30 GMT-0600 (Central Standard Time),750848.0999999046,057_y_m_n_a.png,O,space,1578,1,1,1721.0999999046326,749127.0,7033,NNB,C,0
0,test,3,1.0,2-Back,,,Wed Nov 06 2024 13:55:30 GMT-0600 (Central Standard Time),750848.0999999046,057_y_m_n_a.png,O,space,1578,2,1,1721.0999999046326,749127.0,7033,NNB,C,0
1,test,3,0.0,2-Back,1,m,Wed Nov 06 2024 13:55:30 GMT-0600 (Central Standard Time),760028.7000000477,030_o_f_n_a.png,O,m,1374,3,1,2396.5,757632.2000000477,7033,NNB,C,1
2,test,3,0.0,2-Back,1,m,Wed Nov 06 2024 13:55:30 GMT-0600 (Central Standard Time),762327.5999999046,082_m_m_n_a.png,O,m,1254,4,1,2281.0,760046.5999999046,7033,NNB,C,2
3,test,3,1.0,2-Back,1,z,Wed Nov 06 2024 13:55:30 GMT-0600 (Central Standard Time),763993.7000000477,030_o_f_n_a.png,O,z,588,5,1,1646.0,762347.7000000477,7033,NNB,C,3
4,test,3,0.0,2-Back,1,m,Wed Nov 06 2024 13:55:30 GMT-0600 (Central Standard Time),765893.2999999523,031_y_m_n_a.png,O,m,856,6,1,1882.7000000476837,764010.5999999046,7033,NNB,C,4
4,test,3,0.0,2-Back,0,m,Wed Nov 06 2024 13:55:30 GMT-0600 (Central Standard Time),767892.5999999046,082_m_m_n_a.png,O,z,965,7,1,1980.5999999046326,765912.0,7033,NNB,C,5
4,test,3,1.0,2-Back,0,z,Wed Nov 06 2024 13:55:30 GMT-0600 (Central Standard Time),770941.5999999046,031_y_m_n_a.png,O,None,2015,8,1,3027.399999856949,767914.2000000477,7033,NNB,C,6
5,test,3,0.0,2-Back,1,m,Wed Nov 06 2024 13:55:30 GMT-0600 (Central Standard Time),772773.2999999523,028_y_f_n_a.png,O,m,796,9,1,1815.2000000476837,770958.0999999046,7033,NNB,C,7
6,test,3,0.0,2-Back,1,m,Wed Nov 06 2024 13:55:30 GMT-0600 (Central Standard Time),774656.0,092_m_m_n_a.png,O,m,860,10,1,1878.9000000953674,772777.0999999046,7033,NNB,C,8
7,test,3,1.0,2-Back,1,z,Wed Nov 06 2024 13:55:30 GMT-0600 (Central Standard Time),776288.7999999523,028_y_f_n_a.png,O,z,610,11,1,1628.2999999523163,774660.5,7033,NNB,C,9
7,test,3,1.0,2-Back,0,z,Wed Nov 06 2024 13:55:30 GMT-0600 (Central Standard Time),778554.7999999523,092_m_m_n_a.png,O,m,1249,12,1,2259.0999999046326,776295.7000000477,7033,NNB,C,10
8,test,3,0.0,2-Back,1,m,Wed Nov 06 2024 13:55:30 GMT-0600 (Central Standard Time),780537.4000000954,030_o_f_n_a.png,O,m,950,13,1,1979.0,778558.4000000954,7033,NNB,C,11
9,test,3,0.0,2-Back,1,m,Wed Nov 06 2024 13:55:30 GMT-0600 (Central Standard Time),782488.0,093_m_f_n_a.png,O,m,929,14,1,1944.5,780543.5,7033,NNB,C,12
10,test,3,0.0,2-Back,1,m,Wed Nov 06 2024 13:55:30 GMT-0600 (Central Standard Time),784470.2000000477,146_o_m_n_a.png,O,m,938,15,1,1962.9000000953674,782507.2999999523,7033,NNB,C,13
11,test,3,1.0,2-Back,1,z,Wed Nov 06 2024 13:55:30 GMT-0600 (Central Standard Time),785986.5,093_m_f_n_a.png,O,z,476,16,1,1494.4000000953674,784492.0999999046,7033,NNB,C,14
12,test,3,0.0,2-Back,1,m,Wed Nov 06 2024 13:55:30 GMT-0600 (Central Standard Time),787902.5999999046,130_o_f_n_a.png,O,m,880,17,1,1897.5,786005.0999999046,7033,NNB,C,15
13,test,3,0.0,2-Back,1,m,Wed Nov 06 2024 13:55:30 GMT-0600 (Central Standard Time),790251.2000000477,130_o_f_n_a.png,O,m,1299,18,1,2330.4000000953674,787920.7999999523,7033,NNB,C,16
0,test,4,0.0,2-Back,,,Wed Nov 06 2024 13:55:30 GMT-0600 (Central Standard Time),790251.2000000477,059_o_m_n_a.png,O,space,1352,1,1,2330.4000000953674,787920.7999999523,7033,NNB,C,0
0,test,4,0.0,2-Back,,,Wed Nov 06 2024 13:55:30 GMT-0600 (Central Standard Time),790251.2000000477,098_y_f_n_a.png,O,space,1352,2,1,2330.4000000953674,787920.7999999523,7033,NNB,C,0
1,test,4,1.0,2-Back,1,z,Wed Nov 06 2024 13:55:30 GMT-0600 (Central Standard Time),799315.5999999046,059_o_m_n_a.png,O,z,1299,3,1,2330.7999999523163,796984.7999999523,7033,NNB,C,1
2,test,4,1.0,2-Back,1,z,Wed Nov 06 2024 13:55:30 GMT-0600 (Central Standard Time),802064.5999999046,098_y_f_n_a.png,O,z,1711,4,1,2731.5999999046326,799333.0,7033,NNB,C,2
3,test,4,0.0,2-Back,1,m,Wed Nov 06 2024 13:55:30 GMT-0600 (Central Standard Time),803980.7999999523,030_o_f_n_a.png,O,m,882,5,1,1898.8999998569489,802081.9000000954,7033,NNB,C,3
4,test,4,0.0,2-Back,1,m,Wed Nov 06 2024 13:55:30 GMT-0600 (Central Standard Time),806346.5999999046,030_o_f_n_a.png,O,m,1318,6,1,2349.0999999046326,803997.5,7033,NNB,C,4
5,test,4,0.0,2-Back,1,m,Wed Nov 06 2024 13:55:30 GMT-0600 (Central Standard Time),808379.2999999523,006_m_f_n_a.png,O,m,991,7,1,2013.8999998569489,806365.4000000954,7033,NNB,C,5
6,test,4,0.0,2-Back,1,m,Wed Nov 06 2024 13:55:30 GMT-0600 (Central Standard Time),810245.0999999046,031_y_m_n_a.png,O,m,823,8,1,1843.5,808401.5999999046,7033,NNB,C,6
7,test,4,1.0,2-Back,1,z,Wed Nov 06 2024 13:55:30 GMT-0600 (Central Standard Time),811994.7000000477,006_m_f_n_a.png,O,z,709,9,1,1732.5,810262.2000000477,7033,NNB,C,7
8,test,4,0.0,2-Back,1,m,Wed Nov 06 2024 13:55:30 GMT-0600 (Central Standard Time),813910.5999999046,092_m_m_n_a.png,O,m,872,10,1,1899.8999998569489,812010.7000000477,7033,NNB,C,8
8,test,4,0.0,2-Back,0,m,Wed Nov 06 2024 13:55:30 GMT-0600 (Central Standard Time),815726.9000000954,031_y_m_n_a.png,O,z,773,11,1,1799.1000001430511,813927.7999999523,7033,NNB,C,9
9,test,4,0.0,2-Back,1,m,Wed Nov 06 2024 13:55:30 GMT-0600 (Central Standard Time),817526.0999999046,130_o_f_n_a.png,O,m,780,12,1,1785.6999998092651,815740.4000000954,7033,NNB,C,10
10,test,4,0.0,2-Back,1,m,Wed Nov 06 2024 13:55:30 GMT-0600 (Central Standard Time),819425.7999999523,057_y_m_n_a.png,O,m,860,13,1,1878.2999999523163,817547.5,7033,NNB,C,11
11,test,4,1.0,2-Back,1,z,Wed Nov 06 2024 13:55:30 GMT-0600 (Central Standard Time),821025.0,130_o_f_n_a.png,O,z,561,14,1,1579.0999999046326,819445.9000000954,7033,NNB,C,12
11,test,4,1.0,2-Back,0,z,Wed Nov 06 2024 13:55:30 GMT-0600 (Central Standard Time),822924.4000000954,057_y_m_n_a.png,O,m,849,15,1,1882.7000000476837,821041.7000000477,7033,NNB,C,13
12,test,4,0.0,2-Back,1,m,Wed Nov 06 2024 13:55:30 GMT-0600 (Central Standard Time),825090.2999999523,082_m_m_n_a.png,O,m,1118,16,1,2147.7000000476837,822942.5999999046,7033,NNB,C,14
13,test,4,0.0,2-Back,1,m,Wed Nov 06 2024 13:55:30 GMT-0600 (Central Standard Time),827072.5,093_m_f_n_a.png,O,m,944,17,1,1965.2999999523163,825107.2000000477,7033,NNB,C,15
14,test,4,1.0,2-Back,1,z,Wed Nov 06 2024 13:55:30 GMT-0600 (Central Standard Time),828639.0999999046,082_m_m_n_a.png,O,z,546,18,1,1558.5,827080.5999999046,7033,NNB,C,16
0,test,5,1.0,2-Back,,,Wed Nov 06 2024 13:55:30 GMT-0600 (Central Standard Time),828639.0999999046,057_y_m_n_a.png,O,space,1258,1,1,1558.5,827080.5999999046,7033,NNB,C,0
0,test,5,1.0,2-Back,,,Wed Nov 06 2024 13:55:30 GMT-0600 (Central Standard Time),828639.0999999046,093_m_f_n_a.png,O,space,1258,2,1,1558.5,827080.5999999046,7033,NNB,C,0
1,test,5,1.0,2-Back,1,z,Wed Nov 06 2024 13:55:30 GMT-0600 (Central Standard Time),837019.9000000954,057_y_m_n_a.png,O,z,708,3,1,1720.2000000476837,835299.7000000477,7033,NNB,C,1
2,test,5,1.0,2-Back,1,z,Wed Nov 06 2024 13:55:30 GMT-0600 (Central Standard Time),838868.7999999523,093_m_f_n_a.png,O,z,815,4,1,1831.7000000476837,837037.0999999046,7033,NNB,C,2
3,test,5,0.0,2-Back,1,m,Wed Nov 06 2024 13:55:30 GMT-0600 (Central Standard Time),840668.5999999046,130_o_f_n_a.png,O,m,757,5,1,1778.6999998092651,838889.9000000954,7033,NNB,C,3
3,test,5,0.0,2-Back,0,m,Wed Nov 06 2024 13:55:30 GMT-0600 (Central Standard Time),843217.7000000477,057_y_m_n_a.png,O,z,1508,6,1,2530.5,840687.2000000477,7033,NNB,C,4
4,test,5,0.0,2-Back,1,m,Wed Nov 06 2024 13:55:30 GMT-0600 (Central Standard Time),845433.7999999523,028_y_f_n_a.png,O,m,1168,7,1,2198.2999999523163,843235.5,7033,NNB,C,5
4,test,5,0.0,2-Back,0,m,Wed Nov 06 2024 13:55:30 GMT-0600 (Central Standard Time),847333.0,130_o_f_n_a.png,O,z,864,8,1,1882.0999999046326,845450.9000000954,7033,NNB,C,6
4,test,5,1.0,2-Back,0,z,Wed Nov 06 2024 13:55:30 GMT-0600 (Central Standard Time),850265.0,028_y_f_n_a.png,O,m,1892,9,1,2915.2000000476837,847349.7999999523,7033,NNB,C,7
5,test,5,0.0,2-Back,1,m,Wed Nov 06 2024 13:55:30 GMT-0600 (Central Standard Time),852681.0999999046,146_o_m_n_a.png,O,m,1386,10,1,2407.5,850273.5999999046,7033,NNB,C,8
6,test,5,0.0,2-Back,1,m,Wed Nov 06 2024 13:55:30 GMT-0600 (Central Standard Time),854614.2999999523,006_m_f_n_a.png,O,m,885,11,1,1915.7000000476837,852698.5999999046,7033,NNB,C,9
7,test,5,0.0,2-Back,1,m,Wed Nov 06 2024 13:55:30 GMT-0600 (Central Standard Time),856463.0,092_m_m_n_a.png,O,m,812,12,1,1831.7000000476837,854631.2999999523,7033,NNB,C,10
8,test,5,0.0,2-Back,1,m,Wed Nov 06 2024 13:55:30 GMT-0600 (Central Standard Time),858412.7999999523,146_o_m_n_a.png,O,m,899,13,1,1930.2000000476837,856482.5999999046,7033,NNB,C,11
8,test,5,1.0,2-Back,0,z,Wed Nov 06 2024 13:55:30 GMT-0600 (Central Standard Time),861465.5,092_m_m_n_a.png,O,None,2016,14,1,3035.2000000476837,858430.2999999523,7033,NNB,C,12
9,test,5,0.0,2-Back,1,m,Wed Nov 06 2024 13:55:30 GMT-0600 (Central Standard Time),862860.5,098_y_f_n_a.png,O,m,357,15,1,1376.4000000953674,861484.0999999046,7033,NNB,C,13
10,test,5,0.0,2-Back,1,m,Wed Nov 06 2024 13:55:30 GMT-0600 (Central Standard Time),864627.0999999046,059_o_m_n_a.png,O,m,743,16,1,1760.0999999046326,862867.0,7033,NNB,C,14
11,test,5,0.0,2-Back,1,m,Wed Nov 06 2024 13:55:30 GMT-0600 (Central Standard Time),866643.7999999523,006_m_f_n_a.png,O,m,966,17,1,1995.8999998569489,864647.9000000954,7033,NNB,C,15
12,test,5,1.0,2-Back,1,z,Wed Nov 06 2024 13:55:30 GMT-0600 (Central Standard Time),868192.7999999523,059_o_m_n_a.png,O,z,503,18,1,1531.7999999523163,866661.0,7033,NNB,C,16
