acc_sum,block,block_c,change,condition,correct,correct_response,datetime,endtime,face,project,response,response_time,row_sel,session_number,start_end,starttime,subject_id,task,task_vers,trial
0,prac,1,,1-Back,,,Fri Feb 28 2025 13:29:11 GMT-0600 (Central Standard Time),,005_o_f_d_a.png,O,space,20267,1,1,,,7042,VNB,B,0
0,prac,1,0.0,1-Back,0,m,Fri Feb 28 2025 13:29:11 GMT-0600 (Central Standard Time),161871.70000004768,020_y_f_n_a.png,O,None,2006,2,1,2863.800000011921,159007.90000003576,7042,VNB,B,1
0,prac,1,0.0,1-Back,0,m,Fri Feb 28 2025 13:29:11 GMT-0600 (Central Standard Time),164769.30000001192,007_m_m_h_a.png,O,None,2008,3,1,2887.599999964237,161881.70000004768,7042,VNB,B,2
1,prac,1,0.0,1-Back,1,m,Fri Feb 28 2025 13:29:11 GMT-0600 (Central Standard Time),166783.20000004768,016_y_m_d_a.png,O,m,1118,4,1,1997.800000011921,164785.40000003576,7042,VNB,B,3
1,prac,1,0.0,1-Back,0,m,Fri Feb 28 2025 13:29:11 GMT-0600 (Central Standard Time),169184.30000001192,005_o_f_n_a.png,O,z,1521,5,1,2396.099999964237,166788.20000004768,7042,VNB,B,4
2,prac,1,1.0,1-Back,1,z,Fri Feb 28 2025 13:29:11 GMT-0600 (Central Standard Time),171533.60000002384,016_y_m_n_a.png,O,z,1476,6,1,2339.100000023842,169194.5,7042,VNB,B,5
3,prac,1,0.0,1-Back,1,m,Fri Feb 28 2025 13:29:11 GMT-0600 (Central Standard Time),173568.70000004768,004_o_m_h_a.png,O,m,1184,7,1,2024.0,171544.70000004768,7042,VNB,B,6
3,prac,1,0.0,1-Back,0,m,Fri Feb 28 2025 13:29:11 GMT-0600 (Central Standard Time),175997.30000001192,011_m_f_d_a.png,O,z,1552,8,1,2423.699999988079,173573.60000002384,7042,VNB,B,7
3,prac,1,1.0,1-Back,0,z,Fri Feb 28 2025 13:29:11 GMT-0600 (Central Standard Time),178864.20000004768,020_y_f_d_a.png,O,None,2004,9,1,2858.100000023842,176006.10000002384,7042,VNB,B,8
3,prac,1,0.0,1-Back,0,m,Fri Feb 28 2025 13:29:11 GMT-0600 (Central Standard Time),181680.10000002384,007_m_m_n_a.png,O,z,1934,10,1,2807.300000011921,178872.80000001192,7042,VNB,B,9
4,prac,1,0.0,1-Back,1,m,Fri Feb 28 2025 13:29:11 GMT-0600 (Central Standard Time),184129.80000001192,005_o_f_h_a.png,O,m,1564,11,1,2440.300000011921,181689.5,7042,VNB,B,10
4,prac,1,0.0,1-Back,0,m,Fri Feb 28 2025 13:29:11 GMT-0600 (Central Standard Time),186912.0,016_y_m_d_a.png,O,z,1892,12,1,2772.699999988079,184139.30000001192,7042,VNB,B,11
0,prac,2,0.0,1-Back,,,Fri Feb 28 2025 13:29:11 GMT-0600 (Central Standard Time),186912.0,005_o_f_d_a.png,O,a,4627,1,1,2772.699999988079,184139.30000001192,7042,VNB,B,0
1,prac,2,0.0,1-Back,1,m,Fri Feb 28 2025 13:29:11 GMT-0600 (Central Standard Time),196525.70000004768,020_y_f_n_a.png,O,m,1057,2,1,1922.0,194603.70000004768,7042,VNB,B,1
2,prac,2,0.0,1-Back,1,m,Fri Feb 28 2025 13:29:11 GMT-0600 (Central Standard Time),198541.30000001192,007_m_m_h_a.png,O,m,1117,3,1,2004.5,196536.80000001192,7042,VNB,B,2
2,prac,2,0.0,1-Back,0,m,Fri Feb 28 2025 13:29:11 GMT-0600 (Central Standard Time),200407.0,016_y_m_d_a.png,O,z,1090,4,1,1857.199999988079,198549.80000001192,7042,VNB,B,3
3,prac,2,0.0,1-Back,1,m,Fri Feb 28 2025 13:29:11 GMT-0600 (Central Standard Time),202923.60000002384,005_o_f_n_a.png,O,m,1629,5,1,2509.300000011921,200414.30000001192,7042,VNB,B,4
4,prac,2,1.0,1-Back,1,z,Fri Feb 28 2025 13:29:11 GMT-0600 (Central Standard Time),205056.0,016_y_m_n_a.png,O,z,1242,6,1,2122.7999999523163,202933.20000004768,7042,VNB,B,5
5,prac,2,0.0,1-Back,1,m,Fri Feb 28 2025 13:29:11 GMT-0600 (Central Standard Time),206871.90000003576,004_o_m_h_a.png,O,m,959,7,1,1805.699999988079,205066.20000004768,7042,VNB,B,6
5,prac,2,0.0,1-Back,0,m,Fri Feb 28 2025 13:29:11 GMT-0600 (Central Standard Time),208837.40000003576,011_m_f_d_a.png,O,z,1087,8,1,1957.199999988079,206880.20000004768,7042,VNB,B,7
6,prac,2,1.0,1-Back,1,z,Fri Feb 28 2025 13:29:11 GMT-0600 (Central Standard Time),211670.70000004768,020_y_f_d_a.png,O,z,1955,9,1,2825.2000000476837,208845.5,7042,VNB,B,8
7,prac,2,0.0,1-Back,1,m,Fri Feb 28 2025 13:29:11 GMT-0600 (Central Standard Time),213820.40000003576,007_m_m_n_a.png,O,m,1257,10,1,2141.699999988079,211678.70000004768,7042,VNB,B,9
8,prac,2,0.0,1-Back,1,m,Fri Feb 28 2025 13:29:11 GMT-0600 (Central Standard Time),215954.70000004768,005_o_f_h_a.png,O,m,1274,11,1,2124.800000011921,213829.90000003576,7042,VNB,B,10
8,prac,2,0.0,1-Back,0,m,Fri Feb 28 2025 13:29:11 GMT-0600 (Central Standard Time),218852.20000004768,016_y_m_d_a.png,O,None,2005,12,1,2888.0,215964.20000004768,7042,VNB,B,11
0,test,1,0.0,1-Back,,,Fri Feb 28 2025 13:29:11 GMT-0600 (Central Standard Time),218852.20000004768,020_y_f_d_a.png,O,space,25055,1,1,2888.0,215964.20000004768,7042,VNB,B,0
1,test,1,0.0,1-Back,1,m,Fri Feb 28 2025 13:29:11 GMT-0600 (Central Standard Time),257539.30000001192,011_m_f_n_a.png,O,m,1863,2,1,2873.300000011921,254666.0,7042,VNB,B,1
2,test,1,0.0,1-Back,1,m,Fri Feb 28 2025 13:29:11 GMT-0600 (Central Standard Time),259489.20000004768,004_o_m_h_a.png,O,m,925,3,1,1944.300000011921,257544.90000003576,7042,VNB,B,2
3,test,1,1.0,1-Back,1,z,Fri Feb 28 2025 13:29:11 GMT-0600 (Central Standard Time),261304.10000002384,007_m_m_h_a.png,O,z,792,4,1,1806.1000000238419,259498.0,7042,VNB,B,3
4,test,1,0.0,1-Back,1,m,Fri Feb 28 2025 13:29:11 GMT-0600 (Central Standard Time),263204.5,005_o_f_n_a.png,O,m,873,5,1,1893.5,261311.0,7042,VNB,B,4
5,test,1,0.0,1-Back,1,m,Fri Feb 28 2025 13:29:11 GMT-0600 (Central Standard Time),264988.3000000119,016_y_m_d_a.png,O,m,756,6,1,1774.199999988079,263214.10000002384,7042,VNB,B,5
6,test,1,1.0,1-Back,1,z,Fri Feb 28 2025 13:29:11 GMT-0600 (Central Standard Time),266851.60000002384,011_m_f_d_a.png,O,z,845,7,1,1854.3999999761581,264997.2000000477,7042,VNB,B,6
7,test,1,0.0,1-Back,1,m,Fri Feb 28 2025 13:29:11 GMT-0600 (Central Standard Time),269268.90000003576,020_y_f_h_a.png,O,m,1395,8,1,2407.699999988079,266861.2000000477,7042,VNB,B,7
8,test,1,0.0,1-Back,1,m,Fri Feb 28 2025 13:29:11 GMT-0600 (Central Standard Time),271001.7000000477,004_o_m_n_a.png,O,m,705,9,1,1724.7000000476837,269277.0,7042,VNB,B,8
9,test,1,0.0,1-Back,1,m,Fri Feb 28 2025 13:29:11 GMT-0600 (Central Standard Time),272884.0,016_y_m_h_a.png,O,m,863,10,1,1873.5,271010.5,7042,VNB,B,9
10,test,1,0.0,1-Back,1,m,Fri Feb 28 2025 13:29:11 GMT-0600 (Central Standard Time),274933.8000000119,004_o_m_d_a.png,O,m,1028,11,1,2039.8999999761581,272893.90000003576,7042,VNB,B,10
11,test,1,1.0,1-Back,1,z,Fri Feb 28 2025 13:29:11 GMT-0600 (Central Standard Time),276917.40000003576,005_o_f_d_a.png,O,z,954,12,1,1973.9000000357628,274943.5,7042,VNB,B,11
12,test,1,0.0,1-Back,1,m,Fri Feb 28 2025 13:29:11 GMT-0600 (Central Standard Time),279098.5,007_m_m_n_a.png,O,m,1164,13,1,2172.399999976158,276926.10000002384,7042,VNB,B,12
13,test,1,1.0,1-Back,1,z,Fri Feb 28 2025 13:29:11 GMT-0600 (Central Standard Time),281298.60000002384,020_y_f_n_a.png,O,z,1174,14,1,2193.100000023842,279105.5,7042,VNB,B,13
14,test,1,0.0,1-Back,1,m,Fri Feb 28 2025 13:29:11 GMT-0600 (Central Standard Time),283015.3000000119,011_m_f_h_a.png,O,m,685,15,1,1709.300000011921,281306.0,7042,VNB,B,14
15,test,1,0.0,1-Back,1,m,Fri Feb 28 2025 13:29:11 GMT-0600 (Central Standard Time),285030.5,007_m_m_d_a.png,O,m,994,16,1,2005.0999999642372,283025.40000003576,7042,VNB,B,15
16,test,1,0.0,1-Back,1,m,Fri Feb 28 2025 13:29:11 GMT-0600 (Central Standard Time),287511.7000000477,016_y_m_n_a.png,O,m,1456,17,1,2472.400000035763,285039.3000000119,7042,VNB,B,16
17,test,1,0.0,1-Back,1,m,Fri Feb 28 2025 13:29:11 GMT-0600 (Central Standard Time),289678.0,005_o_f_h_a.png,O,m,1142,18,1,2163.599999964237,287514.40000003576,7042,VNB,B,17
0,test,2,0.0,1-Back,,,Fri Feb 28 2025 13:29:11 GMT-0600 (Central Standard Time),289678.0,016_y_m_n_a.png,O,space,1986,1,1,2163.599999964237,287514.40000003576,7042,VNB,B,0
1,test,2,0.0,1-Back,1,m,Fri Feb 28 2025 13:29:11 GMT-0600 (Central Standard Time),295844.0,020_y_f_h_a.png,O,m,1120,2,1,2143.099999964237,293700.90000003576,7042,VNB,B,1
2,test,2,1.0,1-Back,1,m,Fri Feb 28 2025 13:29:11 GMT-0600 (Central Standard Time),298043.7000000477,004_o_m_n_a.png,O,m,1182,3,1,2193.0,295850.7000000477,7042,VNB,B,2
3,test,2,0.0,1-Back,1,m,Fri Feb 28 2025 13:29:11 GMT-0600 (Central Standard Time),300227.3000000119,011_m_f_d_a.png,O,m,1166,4,1,2175.899999976158,298051.40000003576,7042,VNB,B,3
3,test,2,0.0,1-Back,0,z,Fri Feb 28 2025 13:29:11 GMT-0600 (Central Standard Time),302556.60000002384,007_m_m_d_a.png,O,m,1310,5,1,2322.300000011921,300234.3000000119,7042,VNB,B,4
4,test,2,0.0,1-Back,1,m,Fri Feb 28 2025 13:29:11 GMT-0600 (Central Standard Time),304540.3000000119,016_y_m_h_a.png,O,m,954,6,1,1980.5999999642372,302559.7000000477,7042,VNB,B,5
5,test,2,1.0,1-Back,1,z,Fri Feb 28 2025 13:29:11 GMT-0600 (Central Standard Time),306840.10000002384,005_o_f_h_a.png,O,z,1267,7,1,2292.800000011921,304547.3000000119,7042,VNB,B,6
6,test,2,0.0,1-Back,1,m,Fri Feb 28 2025 13:29:11 GMT-0600 (Central Standard Time),309004.90000003576,011_m_f_n_a.png,O,m,1143,8,1,2156.600000023842,306848.3000000119,7042,VNB,B,7
7,test,2,0.0,1-Back,1,m,Fri Feb 28 2025 13:29:11 GMT-0600 (Central Standard Time),311155.5,020_y_f_d_a.png,O,m,1131,9,1,2142.0,309013.5,7042,VNB,B,8
8,test,2,0.0,1-Back,1,m,Fri Feb 28 2025 13:29:11 GMT-0600 (Central Standard Time),313154.90000003576,007_m_m_n_a.png,O,m,972,10,1,1990.199999988079,311164.7000000477,7042,VNB,B,9
9,test,2,1.0,1-Back,1,m,Fri Feb 28 2025 13:29:11 GMT-0600 (Central Standard Time),315172.5,011_m_f_h_a.png,O,m,1002,11,1,2009.199999988079,313163.3000000119,7042,VNB,B,10
10,test,2,0.0,1-Back,1,z,Fri Feb 28 2025 13:29:11 GMT-0600 (Central Standard Time),316853.40000003576,004_o_m_h_a.png,O,z,653,12,1,1672.9000000357628,315180.5,7042,VNB,B,11
11,test,2,0.0,1-Back,1,m,Fri Feb 28 2025 13:29:11 GMT-0600 (Central Standard Time),318970.2000000477,016_y_m_d_a.png,O,m,1083,13,1,2109.100000023842,316861.10000002384,7042,VNB,B,12
12,test,2,0.0,1-Back,1,m,Fri Feb 28 2025 13:29:11 GMT-0600 (Central Standard Time),321151.7000000477,005_o_f_n_a.png,O,m,1150,14,1,2174.100000023842,318977.60000002384,7042,VNB,B,13
13,test,2,0.0,1-Back,1,z,Fri Feb 28 2025 13:29:11 GMT-0600 (Central Standard Time),323667.2000000477,020_y_f_n_a.png,O,z,1488,15,1,2505.900000035763,321161.3000000119,7042,VNB,B,14
14,test,2,1.0,1-Back,1,m,Fri Feb 28 2025 13:29:11 GMT-0600 (Central Standard Time),325601.0,007_m_m_h_a.png,O,m,899,16,1,1925.7999999523163,323675.2000000477,7042,VNB,B,15
15,test,2,0.0,1-Back,1,m,Fri Feb 28 2025 13:29:11 GMT-0600 (Central Standard Time),327267.0,005_o_f_d_a.png,O,m,640,17,1,1657.199999988079,325609.8000000119,7042,VNB,B,16
16,test,2,1.0,1-Back,1,z,Fri Feb 28 2025 13:29:11 GMT-0600 (Central Standard Time),329232.60000002384,004_o_m_d_a.png,O,z,941,18,1,1958.5,327274.10000002384,7042,VNB,B,17
0,test,3,1.0,1-Back,,,Fri Feb 28 2025 13:29:11 GMT-0600 (Central Standard Time),329232.60000002384,005_o_f_h_a.png,O,space,1903,1,1,1958.5,327274.10000002384,7042,VNB,B,0
1,test,3,0.0,1-Back,1,m,Fri Feb 28 2025 13:29:11 GMT-0600 (Central Standard Time),336097.60000002384,011_m_f_d_a.png,O,m,1807,2,1,2825.800000011921,333271.8000000119,7042,VNB,B,1
2,test,3,1.0,1-Back,1,m,Fri Feb 28 2025 13:29:11 GMT-0600 (Central Standard Time),338079.8000000119,007_m_m_n_a.png,O,m,949,3,1,1974.300000011921,336105.5,7042,VNB,B,2
3,test,3,0.0,1-Back,1,z,Fri Feb 28 2025 13:29:11 GMT-0600 (Central Standard Time),340079.5,005_o_f_n_a.png,O,z,976,4,1,1992.699999988079,338086.8000000119,7042,VNB,B,3
4,test,3,1.0,1-Back,1,m,Fri Feb 28 2025 13:29:11 GMT-0600 (Central Standard Time),341861.2000000477,004_o_m_d_a.png,O,m,762,5,1,1775.2000000476837,340086.0,7042,VNB,B,4
5,test,3,0.0,1-Back,1,m,Fri Feb 28 2025 13:29:11 GMT-0600 (Central Standard Time),344361.90000003576,020_y_f_h_a.png,O,m,1482,6,1,2493.900000035763,341868.0,7042,VNB,B,5
6,test,3,0.0,1-Back,1,z,Fri Feb 28 2025 13:29:11 GMT-0600 (Central Standard Time),345962.60000002384,016_y_m_h_a.png,O,z,576,7,1,1594.8999999761581,344367.7000000477,7042,VNB,B,6
7,test,3,0.0,1-Back,1,m,Fri Feb 28 2025 13:29:11 GMT-0600 (Central Standard Time),347642.8000000119,011_m_f_n_a.png,O,m,655,8,1,1672.5999999642372,345970.2000000477,7042,VNB,B,7
8,test,3,0.0,1-Back,1,m,Fri Feb 28 2025 13:29:11 GMT-0600 (Central Standard Time),349593.40000003576,020_y_f_d_a.png,O,m,915,9,1,1948.0,347645.40000003576,7042,VNB,B,8
9,test,3,1.0,1-Back,1,m,Fri Feb 28 2025 13:29:11 GMT-0600 (Central Standard Time),351758.90000003576,004_o_m_n_a.png,O,m,1143,10,1,2159.0,349599.90000003576,7042,VNB,B,9
10,test,3,0.0,1-Back,1,m,Fri Feb 28 2025 13:29:11 GMT-0600 (Central Standard Time),353658.5,007_m_m_h_a.png,O,m,872,11,1,1892.199999988079,351766.3000000119,7042,VNB,B,10
11,test,3,0.0,1-Back,1,z,Fri Feb 28 2025 13:29:11 GMT-0600 (Central Standard Time),355492.90000003576,011_m_f_h_a.png,O,z,815,12,1,1827.6000000238419,353665.3000000119,7042,VNB,B,11
12,test,3,1.0,1-Back,1,m,Fri Feb 28 2025 13:29:11 GMT-0600 (Central Standard Time),357340.40000003576,005_o_f_d_a.png,O,m,829,13,1,1838.6000000238419,355501.8000000119,7042,VNB,B,12
13,test,3,0.0,1-Back,1,z,Fri Feb 28 2025 13:29:11 GMT-0600 (Central Standard Time),359124.60000002384,007_m_m_d_a.png,O,z,766,14,1,1775.6000000238419,357349.0,7042,VNB,B,13
14,test,3,0.0,1-Back,1,m,Fri Feb 28 2025 13:29:11 GMT-0600 (Central Standard Time),361123.3000000119,016_y_m_n_a.png,O,m,974,15,1,1990.800000011921,359132.5,7042,VNB,B,14
15,test,3,1.0,1-Back,1,m,Fri Feb 28 2025 13:29:11 GMT-0600 (Central Standard Time),362940.0,004_o_m_h_a.png,O,m,799,16,1,1808.699999988079,361131.3000000119,7042,VNB,B,15
15,test,3,0.0,1-Back,0,m,Fri Feb 28 2025 13:29:11 GMT-0600 (Central Standard Time),365154.40000003576,016_y_m_d_a.png,O,z,1198,17,1,2209.5,362944.90000003576,7042,VNB,B,16
16,test,3,1.0,1-Back,1,m,Fri Feb 28 2025 13:29:11 GMT-0600 (Central Standard Time),367004.10000002384,020_y_f_n_a.png,O,m,820,18,1,1840.6000000238419,365163.5,7042,VNB,B,17
0,test,4,1.0,1-Back,,,Fri Feb 28 2025 13:29:11 GMT-0600 (Central Standard Time),367004.10000002384,007_m_m_d_a.png,O,space,1350,1,1,1840.6000000238419,365163.5,7042,VNB,B,0
1,test,4,0.0,1-Back,1,z,Fri Feb 28 2025 13:29:11 GMT-0600 (Central Standard Time),372586.8000000119,004_o_m_d_a.png,O,z,1183,2,1,2194.199999988079,370392.60000002384,7042,VNB,B,1
2,test,4,0.0,1-Back,1,m,Fri Feb 28 2025 13:29:11 GMT-0600 (Central Standard Time),374701.40000003576,016_y_m_h_a.png,O,m,1085,3,1,2105.0,372596.40000003576,7042,VNB,B,2
3,test,4,0.0,1-Back,1,m,Fri Feb 28 2025 13:29:11 GMT-0600 (Central Standard Time),377534.60000002384,011_m_f_n_a.png,O,m,1801,4,1,2825.899999976158,374708.7000000477,7042,VNB,B,3
4,test,4,1.0,1-Back,1,m,Fri Feb 28 2025 13:29:11 GMT-0600 (Central Standard Time),380001.8000000119,005_o_f_h_a.png,O,m,1450,5,1,2458.899999976158,377542.90000003576,7042,VNB,B,4
5,test,4,0.0,1-Back,1,m,Fri Feb 28 2025 13:29:11 GMT-0600 (Central Standard Time),381949.2000000477,007_m_m_n_a.png,O,m,928,6,1,1940.9000000357628,380008.3000000119,7042,VNB,B,5
6,test,4,0.0,1-Back,1,m,Fri Feb 28 2025 13:29:11 GMT-0600 (Central Standard Time),384015.7000000477,016_y_m_d_a.png,O,m,1043,7,1,2059.0,381956.7000000477,7042,VNB,B,6
7,test,4,1.0,1-Back,1,z,Fri Feb 28 2025 13:29:11 GMT-0600 (Central Standard Time),385883.10000002384,020_y_f_d_a.png,O,z,841,8,1,1860.6000000238419,384022.5,7042,VNB,B,7
8,test,4,0.0,1-Back,1,m,Fri Feb 28 2025 13:29:11 GMT-0600 (Central Standard Time),387915.0,011_m_f_h_a.png,O,m,1008,9,1,2024.2999999523163,385890.7000000477,7042,VNB,B,8
9,test,4,0.0,1-Back,1,z,Fri Feb 28 2025 13:29:11 GMT-0600 (Central Standard Time),389729.8000000119,004_o_m_h_a.png,O,z,790,10,1,1806.199999988079,387923.60000002384,7042,VNB,B,9
10,test,4,1.0,1-Back,1,m,Fri Feb 28 2025 13:29:11 GMT-0600 (Central Standard Time),391614.60000002384,005_o_f_n_a.png,O,m,866,11,1,1880.0,389734.60000002384,7042,VNB,B,10
11,test,4,0.0,1-Back,1,m,Fri Feb 28 2025 13:29:11 GMT-0600 (Central Standard Time),394163.0,011_m_f_d_a.png,O,m,1533,12,1,2539.599999964237,391623.40000003576,7042,VNB,B,11
12,test,4,0.0,1-Back,1,m,Fri Feb 28 2025 13:29:11 GMT-0600 (Central Standard Time),396313.60000002384,020_y_f_n_a.png,O,m,1126,13,1,2146.5,394167.10000002384,7042,VNB,B,12
13,test,4,0.0,1-Back,1,m,Fri Feb 28 2025 13:29:11 GMT-0600 (Central Standard Time),398045.5,005_o_f_d_a.png,O,m,697,14,1,1722.3999999761581,396323.10000002384,7042,VNB,B,13
14,test,4,0.0,1-Back,1,m,Fri Feb 28 2025 13:29:11 GMT-0600 (Central Standard Time),400011.5,020_y_f_h_a.png,O,m,940,15,1,1958.0,398053.5,7042,VNB,B,14
15,test,4,1.0,1-Back,1,z,Fri Feb 28 2025 13:29:11 GMT-0600 (Central Standard Time),401559.90000003576,007_m_m_h_a.png,O,z,516,16,1,1539.800000011921,400020.10000002384,7042,VNB,B,15
16,test,4,0.0,1-Back,1,m,Fri Feb 28 2025 13:29:11 GMT-0600 (Central Standard Time),403393.40000003576,004_o_m_n_a.png,O,m,815,17,1,1829.0,401564.40000003576,7042,VNB,B,16
17,test,4,1.0,1-Back,1,z,Fri Feb 28 2025 13:29:11 GMT-0600 (Central Standard Time),405426.2000000477,016_y_m_n_a.png,O,z,1007,18,1,2027.5,403398.7000000477,7042,VNB,B,17
0,test,5,1.0,1-Back,,,Fri Feb 28 2025 13:29:11 GMT-0600 (Central Standard Time),405426.2000000477,004_o_m_n_a.png,O,space,1822,1,1,2027.5,403398.7000000477,7042,VNB,B,0
1,test,5,1.0,1-Back,1,m,Fri Feb 28 2025 13:29:11 GMT-0600 (Central Standard Time),411458.7000000477,005_o_f_h_a.png,O,m,1082,2,1,2094.2000000476837,409364.5,7042,VNB,B,1
2,test,5,0.0,1-Back,1,m,Fri Feb 28 2025 13:29:11 GMT-0600 (Central Standard Time),414022.5,016_y_m_d_a.png,O,m,1543,3,1,2558.7999999523163,411463.7000000477,7042,VNB,B,2
3,test,5,0.0,1-Back,1,z,Fri Feb 28 2025 13:29:11 GMT-0600 (Central Standard Time),416038.5,004_o_m_d_a.png,O,z,986,4,1,2009.199999988079,414029.3000000119,7042,VNB,B,3
4,test,5,0.0,1-Back,1,m,Fri Feb 28 2025 13:29:11 GMT-0600 (Central Standard Time),418070.2000000477,011_m_f_h_a.png,O,m,1009,5,1,2022.9000000357628,416047.3000000119,7042,VNB,B,4
5,test,5,0.0,1-Back,1,m,Fri Feb 28 2025 13:29:11 GMT-0600 (Central Standard Time),419752.90000003576,020_y_f_n_a.png,O,m,657,6,1,1675.1000000238419,418077.8000000119,7042,VNB,B,5
6,test,5,1.0,1-Back,1,z,Fri Feb 28 2025 13:29:11 GMT-0600 (Central Standard Time),421886.0,005_o_f_n_a.png,O,z,1109,7,1,2129.899999976158,419756.10000002384,7042,VNB,B,6
7,test,5,0.0,1-Back,1,m,Fri Feb 28 2025 13:29:11 GMT-0600 (Central Standard Time),423768.7000000477,011_m_f_d_a.png,O,m,857,8,1,1875.800000011921,421892.90000003576,7042,VNB,B,7
8,test,5,0.0,1-Back,1,m,Fri Feb 28 2025 13:29:11 GMT-0600 (Central Standard Time),425803.3000000119,016_y_m_h_a.png,O,m,1016,9,1,2027.3999999761581,423775.90000003576,7042,VNB,B,8
8,test,5,0.0,1-Back,0,m,Fri Feb 28 2025 13:29:11 GMT-0600 (Central Standard Time),428534.3000000119,020_y_f_d_a.png,O,z,1711,10,1,2723.199999988079,425811.10000002384,7042,VNB,B,9
9,test,5,0.0,1-Back,1,m,Fri Feb 28 2025 13:29:11 GMT-0600 (Central Standard Time),430300.90000003576,007_m_m_n_a.png,O,m,734,11,1,1759.5,428541.40000003576,7042,VNB,B,10
10,test,5,1.0,1-Back,1,z,Fri Feb 28 2025 13:29:11 GMT-0600 (Central Standard Time),432400.7000000477,011_m_f_n_a.png,O,z,1067,12,1,2090.800000011921,430309.90000003576,7042,VNB,B,11
11,test,5,0.0,1-Back,1,m,Fri Feb 28 2025 13:29:11 GMT-0600 (Central Standard Time),434234.3000000119,004_o_m_h_a.png,O,m,818,13,1,1826.0999999642372,432408.2000000477,7042,VNB,B,12
12,test,5,0.0,1-Back,1,z,Fri Feb 28 2025 13:29:11 GMT-0600 (Central Standard Time),436233.10000002384,007_m_m_h_a.png,O,z,975,14,1,1990.3999999761581,434242.7000000477,7042,VNB,B,13
13,test,5,1.0,1-Back,1,m,Fri Feb 28 2025 13:29:11 GMT-0600 (Central Standard Time),438199.10000002384,005_o_f_d_a.png,O,m,934,15,1,1958.0,436241.10000002384,7042,VNB,B,14
13,test,5,0.0,1-Back,0,m,Fri Feb 28 2025 13:29:11 GMT-0600 (Central Standard Time),441013.8000000119,016_y_m_n_a.png,O,z,1794,16,1,2806.300000011921,438207.5,7042,VNB,B,15
14,test,5,0.0,1-Back,1,m,Fri Feb 28 2025 13:29:11 GMT-0600 (Central Standard Time),443163.60000002384,020_y_f_h_a.png,O,m,1122,17,1,2142.100000023842,441021.5,7042,VNB,B,16
15,test,5,0.0,1-Back,1,m,Fri Feb 28 2025 13:29:11 GMT-0600 (Central Standard Time),444980.40000003576,007_m_m_d_a.png,O,m,799,18,1,1808.699999988079,443171.7000000477,7042,VNB,B,17
0,prac,1,0.0,2-Back,,,Fri Feb 28 2025 13:29:11 GMT-0600 (Central Standard Time),444980.40000003576,011_m_f_n_a.png,O,space,5576,1,1,1808.699999988079,443171.7000000477,7042,VNB,B,0
0,prac,1,0.0,2-Back,,,Fri Feb 28 2025 13:29:11 GMT-0600 (Central Standard Time),444980.40000003576,005_o_f_h_a.png,O,space,5576,2,1,1808.699999988079,443171.7000000477,7042,VNB,B,0
0,prac,1,0.0,2-Back,0,m,Fri Feb 28 2025 13:29:11 GMT-0600 (Central Standard Time),573873.8000000119,004_o_m_d_a.png,O,None,2012,3,1,2842.599999964237,571031.2000000477,7042,VNB,B,1
1,prac,1,1.0,2-Back,1,z,Fri Feb 28 2025 13:29:11 GMT-0600 (Central Standard Time),576321.3000000119,007_m_m_h_a.png,O,z,1559,4,1,2440.0,573881.3000000119,7042,VNB,B,2
2,prac,1,0.0,2-Back,1,m,Fri Feb 28 2025 13:29:11 GMT-0600 (Central Standard Time),578887.8000000119,020_y_f_n_a.png,O,m,1714,5,1,2558.300000011921,576329.5,7042,VNB,B,3
3,prac,1,1.0,2-Back,1,z,Fri Feb 28 2025 13:29:11 GMT-0600 (Central Standard Time),581186.8000000119,004_o_m_h_a.png,O,z,1441,6,1,2290.800000011921,578896.0,7042,VNB,B,4
4,prac,1,1.0,2-Back,1,z,Fri Feb 28 2025 13:29:11 GMT-0600 (Central Standard Time),583519.1000000238,016_y_m_n_a.png,O,z,1445,7,1,2324.0,581195.1000000238,7042,VNB,B,5
5,prac,1,0.0,2-Back,1,m,Fri Feb 28 2025 13:29:11 GMT-0600 (Central Standard Time),586116.6000000238,011_m_f_d_a.png,O,m,1720,8,1,2589.100000023842,583527.5,7042,VNB,B,6
5,prac,1,0.0,2-Back,0,m,Fri Feb 28 2025 13:29:11 GMT-0600 (Central Standard Time),588618.6000000238,005_o_f_d_a.png,O,z,1636,9,1,2493.800000011921,586124.8000000119,7042,VNB,B,7
6,prac,1,0.0,2-Back,1,m,Fri Feb 28 2025 13:29:11 GMT-0600 (Central Standard Time),591317.0,007_m_m_h_a.png,O,m,1919,10,1,2690.7999999523163,588626.2000000477,7042,VNB,B,8
7,prac,1,1.0,2-Back,1,z,Fri Feb 28 2025 13:29:11 GMT-0600 (Central Standard Time),593516.0,020_y_f_d_a.png,O,z,1335,11,1,2190.0,591326.0,7042,VNB,B,9
8,prac,1,0.0,2-Back,1,m,Fri Feb 28 2025 13:29:11 GMT-0600 (Central Standard Time),596316.5,004_o_m_n_a.png,O,m,1958,12,1,2791.5,593525.0,7042,VNB,B,10
0,test,1,0.0,2-Back,,,Fri Feb 28 2025 13:29:11 GMT-0600 (Central Standard Time),596316.5,016_y_m_h_a.png,O,space,21381,1,1,2791.5,593525.0,7042,VNB,B,0
0,test,1,0.0,2-Back,,,Fri Feb 28 2025 13:29:11 GMT-0600 (Central Standard Time),596316.5,005_o_f_n_a.png,O,space,21381,2,1,2791.5,593525.0,7042,VNB,B,0
1,test,1,0.0,2-Back,1,z,Fri Feb 28 2025 13:29:11 GMT-0600 (Central Standard Time),642417.4000000358,004_o_m_h_a.png,O,z,642,3,1,1659.699999988079,640757.7000000477,7042,VNB,B,1
2,test,1,0.0,2-Back,1,m,Fri Feb 28 2025 13:29:11 GMT-0600 (Central Standard Time),644768.3000000119,011_m_f_d_a.png,O,m,1320,4,1,2346.199999988079,642422.1000000238,7042,VNB,B,2
2,test,1,1.0,2-Back,0,m,Fri Feb 28 2025 13:29:11 GMT-0600 (Central Standard Time),647315.3000000119,016_y_m_n_a.png,O,z,1521,5,1,2538.0,644777.3000000119,7042,VNB,B,3
2,test,1,0.0,2-Back,0,z,Fri Feb 28 2025 13:29:11 GMT-0600 (Central Standard Time),649479.8000000119,020_y_f_d_a.png,O,m,1140,6,1,2156.899999976158,647322.9000000358,7042,VNB,B,4
2,test,1,0.0,2-Back,0,m,Fri Feb 28 2025 13:29:11 GMT-0600 (Central Standard Time),651515.6000000238,007_m_m_h_a.png,O,z,1016,7,1,2033.199999988079,649482.4000000358,7042,VNB,B,5
2,test,1,1.0,2-Back,0,m,Fri Feb 28 2025 13:29:11 GMT-0600 (Central Standard Time),653897.6000000238,020_y_f_n_a.png,O,z,1366,8,1,2375.5,651522.1000000238,7042,VNB,B,6
3,test,1,0.0,2-Back,1,z,Fri Feb 28 2025 13:29:11 GMT-0600 (Central Standard Time),656530.1000000238,005_o_f_h_a.png,O,z,1617,9,1,2625.100000023842,653905.0,7042,VNB,B,7
4,test,1,0.0,2-Back,1,m,Fri Feb 28 2025 13:29:11 GMT-0600 (Central Standard Time),658495.0,004_o_m_d_a.png,O,m,935,10,1,1956.199999988079,656538.8000000119,7042,VNB,B,8
4,test,1,1.0,2-Back,0,m,Fri Feb 28 2025 13:29:11 GMT-0600 (Central Standard Time),660659.7000000477,007_m_m_d_a.png,O,z,1145,11,1,2157.2000000476837,658502.5,7042,VNB,B,9
5,test,1,0.0,2-Back,1,m,Fri Feb 28 2025 13:29:11 GMT-0600 (Central Standard Time),663026.6000000238,011_m_f_n_a.png,O,m,1340,12,1,2358.199999988079,660668.4000000358,7042,VNB,B,10
5,test,1,0.0,2-Back,0,m,Fri Feb 28 2025 13:29:11 GMT-0600 (Central Standard Time),665893.5,020_y_f_h_a.png,O,z,1846,13,1,2859.2999999523163,663034.2000000477,7042,VNB,B,11
5,test,1,0.0,2-Back,0,z,Fri Feb 28 2025 13:29:11 GMT-0600 (Central Standard Time),668226.0,007_m_m_n_a.png,O,m,1317,14,1,2324.699999988079,665901.3000000119,7042,VNB,B,12
6,test,1,0.0,2-Back,1,m,Fri Feb 28 2025 13:29:11 GMT-0600 (Central Standard Time),671041.8000000119,016_y_m_d_a.png,O,m,1783,15,1,2807.899999976158,668233.9000000358,7042,VNB,B,13
6,test,1,1.0,2-Back,0,m,Fri Feb 28 2025 13:29:11 GMT-0600 (Central Standard Time),673174.0,011_m_f_h_a.png,O,z,1111,16,1,2124.099999964237,671049.9000000358,7042,VNB,B,14
7,test,1,0.0,2-Back,1,z,Fri Feb 28 2025 13:29:11 GMT-0600 (Central Standard Time),675658.1000000238,005_o_f_d_a.png,O,z,1468,17,1,2477.100000023842,673181.0,7042,VNB,B,15
8,test,1,0.0,2-Back,1,m,Fri Feb 28 2025 13:29:11 GMT-0600 (Central Standard Time),677805.2000000477,004_o_m_n_a.png,O,m,1129,18,1,2137.600000023842,675667.6000000238,7042,VNB,B,16
0,test,2,0.0,2-Back,,,Fri Feb 28 2025 13:29:11 GMT-0600 (Central Standard Time),677805.2000000477,007_m_m_h_a.png,O,space,1382,1,1,2137.600000023842,675667.6000000238,7042,VNB,B,0
0,test,2,0.0,2-Back,,,Fri Feb 28 2025 13:29:11 GMT-0600 (Central Standard Time),677805.2000000477,020_y_f_n_a.png,O,space,1382,2,1,2137.600000023842,675667.6000000238,7042,VNB,B,0
1,test,2,1.0,2-Back,1,z,Fri Feb 28 2025 13:29:11 GMT-0600 (Central Standard Time),686684.6000000238,005_o_f_h_a.png,O,z,1246,3,1,2256.699999988079,684427.9000000358,7042,VNB,B,1
2,test,2,0.0,2-Back,1,m,Fri Feb 28 2025 13:29:11 GMT-0600 (Central Standard Time),689419.7000000477,004_o_m_d_a.png,O,m,1716,4,1,2727.900000035763,686691.8000000119,7042,VNB,B,2
3,test,2,0.0,2-Back,1,m,Fri Feb 28 2025 13:29:11 GMT-0600 (Central Standard Time),692235.0,011_m_f_d_a.png,O,m,1789,5,1,2809.399999976158,689425.6000000238,7042,VNB,B,3
4,test,2,0.0,2-Back,1,m,Fri Feb 28 2025 13:29:11 GMT-0600 (Central Standard Time),694483.6000000238,016_y_m_h_a.png,O,m,1221,6,1,2240.899999976158,692242.7000000477,7042,VNB,B,4
4,test,2,0.0,2-Back,0,m,Fri Feb 28 2025 13:29:11 GMT-0600 (Central Standard Time),696765.2000000477,005_o_f_n_a.png,O,z,1253,7,1,2273.100000023842,694492.1000000238,7042,VNB,B,5
5,test,2,1.0,2-Back,1,z,Fri Feb 28 2025 13:29:11 GMT-0600 (Central Standard Time),699031.3000000119,004_o_m_h_a.png,O,z,1242,8,1,2258.899999976158,696772.4000000358,7042,VNB,B,6
6,test,2,0.0,2-Back,1,m,Fri Feb 28 2025 13:29:11 GMT-0600 (Central Standard Time),701563.9000000358,020_y_f_d_a.png,O,m,1512,9,1,2526.199999988079,699037.7000000477,7042,VNB,B,7
7,test,2,0.0,2-Back,1,m,Fri Feb 28 2025 13:29:11 GMT-0600 (Central Standard Time),704532.7000000477,016_y_m_d_a.png,O,m,1950,10,1,2961.900000035763,701570.8000000119,7042,VNB,B,8
7,test,2,0.0,2-Back,0,m,Fri Feb 28 2025 13:29:11 GMT-0600 (Central Standard Time),707296.3000000119,007_m_m_n_a.png,O,z,1741,11,1,2759.0,704537.3000000119,7042,VNB,B,9
8,test,2,0.0,2-Back,1,m,Fri Feb 28 2025 13:29:11 GMT-0600 (Central Standard Time),709810.7000000477,011_m_f_h_a.png,O,m,1486,12,1,2507.900000035763,707302.8000000119,7042,VNB,B,10
8,test,2,1.0,2-Back,0,z,Fri Feb 28 2025 13:29:11 GMT-0600 (Central Standard Time),712561.9000000358,004_o_m_n_a.png,O,m,1733,13,1,2748.5,709813.4000000358,7042,VNB,B,11
9,test,2,0.0,2-Back,1,m,Fri Feb 28 2025 13:29:11 GMT-0600 (Central Standard Time),714511.3000000119,005_o_f_d_a.png,O,m,921,14,1,1942.300000011921,712569.0,7042,VNB,B,12
10,test,2,0.0,2-Back,1,m,Fri Feb 28 2025 13:29:11 GMT-0600 (Central Standard Time),716959.9000000358,020_y_f_h_a.png,O,m,1417,15,1,2443.0,714516.9000000358,7042,VNB,B,13
11,test,2,0.0,2-Back,1,z,Fri Feb 28 2025 13:29:11 GMT-0600 (Central Standard Time),719875.6000000238,007_m_m_d_a.png,O,z,1890,16,1,2908.600000023842,716967.0,7042,VNB,B,14
12,test,2,0.0,2-Back,1,m,Fri Feb 28 2025 13:29:11 GMT-0600 (Central Standard Time),722674.0,016_y_m_n_a.png,O,m,1773,17,1,2791.0,719883.0,7042,VNB,B,15
12,test,2,1.0,2-Back,0,m,Fri Feb 28 2025 13:29:11 GMT-0600 (Central Standard Time),724873.0,011_m_f_n_a.png,O,z,1174,18,1,2191.0,722682.0,7042,VNB,B,16
0,test,3,1.0,2-Back,,,Fri Feb 28 2025 13:29:11 GMT-0600 (Central Standard Time),724873.0,004_o_m_n_a.png,O,space,1423,1,1,2191.0,722682.0,7042,VNB,B,0
0,test,3,1.0,2-Back,,,Fri Feb 28 2025 13:29:11 GMT-0600 (Central Standard Time),724873.0,005_o_f_d_a.png,O,space,1423,2,1,2191.0,722682.0,7042,VNB,B,0
1,test,3,0.0,2-Back,1,m,Fri Feb 28 2025 13:29:11 GMT-0600 (Central Standard Time),733952.9000000358,020_y_f_h_a.png,O,m,1464,3,1,2490.300000011921,731462.6000000238,7042,VNB,B,1
1,test,3,0.0,2-Back,0,z,Fri Feb 28 2025 13:29:11 GMT-0600 (Central Standard Time),736984.7000000477,011_m_f_d_a.png,O,None,2013,4,1,3026.400000035763,733958.3000000119,7042,VNB,B,2
2,test,3,1.0,2-Back,1,m,Fri Feb 28 2025 13:29:11 GMT-0600 (Central Standard Time),739202.9000000358,016_y_m_n_a.png,O,m,1191,5,1,2212.100000023842,736990.8000000119,7042,VNB,B,3
3,test,3,0.0,2-Back,1,m,Fri Feb 28 2025 13:29:11 GMT-0600 (Central Standard Time),741434.4000000358,004_o_m_h_a.png,O,m,1202,6,1,2223.400000035763,739211.0,7042,VNB,B,4
4,test,3,0.0,2-Back,1,z,Fri Feb 28 2025 13:29:11 GMT-0600 (Central Standard Time),743684.0,020_y_f_n_a.png,O,z,1220,7,1,2241.099999964237,741442.9000000358,7042,VNB,B,5
5,test,3,1.0,2-Back,1,m,Fri Feb 28 2025 13:29:11 GMT-0600 (Central Standard Time),745883.1000000238,007_m_m_d_a.png,O,m,1181,8,1,2194.699999988079,743688.4000000358,7042,VNB,B,6
6,test,3,0.0,2-Back,1,m,Fri Feb 28 2025 13:29:11 GMT-0600 (Central Standard Time),748483.1000000238,016_y_m_d_a.png,O,m,1573,9,1,2594.100000023842,745889.0,7042,VNB,B,7
6,test,3,0.0,2-Back,0,m,Fri Feb 28 2025 13:29:11 GMT-0600 (Central Standard Time),750948.8000000119,005_o_f_h_a.png,O,z,1446,10,1,2459.599999964237,748489.2000000477,7042,VNB,B,8
6,test,3,1.0,2-Back,0,m,Fri Feb 28 2025 13:29:11 GMT-0600 (Central Standard Time),753731.6000000238,011_m_f_n_a.png,O,z,1754,11,1,2778.0,750953.6000000238,7042,VNB,B,9
7,test,3,1.0,2-Back,1,z,Fri Feb 28 2025 13:29:11 GMT-0600 (Central Standard Time),755548.2000000477,007_m_m_h_a.png,O,z,797,12,1,1807.9000000357628,753740.3000000119,7042,VNB,B,10
8,test,3,0.0,2-Back,1,m,Fri Feb 28 2025 13:29:11 GMT-0600 (Central Standard Time),757596.1000000238,020_y_f_d_a.png,O,m,1031,13,1,2041.0,755555.1000000238,7042,VNB,B,11
8,test,3,0.0,2-Back,0,m,Fri Feb 28 2025 13:29:11 GMT-0600 (Central Standard Time),759779.2000000477,005_o_f_n_a.png,O,z,1156,14,1,2174.400000035763,757604.8000000119,7042,VNB,B,12
8,test,3,0.0,2-Back,0,z,Fri Feb 28 2025 13:29:11 GMT-0600 (Central Standard Time),762662.7000000477,004_o_m_d_a.png,O,m,1862,15,1,2876.2000000476837,759786.5,7042,VNB,B,13
9,test,3,1.0,2-Back,1,m,Fri Feb 28 2025 13:29:11 GMT-0600 (Central Standard Time),765294.9000000358,011_m_f_h_a.png,O,m,1602,16,1,2624.400000035763,762670.5,7042,VNB,B,14
9,test,3,0.0,2-Back,0,m,Fri Feb 28 2025 13:29:11 GMT-0600 (Central Standard Time),767459.8000000119,007_m_m_n_a.png,O,z,1136,17,1,2157.5,765302.3000000119,7042,VNB,B,15
10,test,3,0.0,2-Back,1,z,Fri Feb 28 2025 13:29:11 GMT-0600 (Central Standard Time),769957.7000000477,016_y_m_h_a.png,O,z,1477,18,1,2489.100000023842,767468.6000000238,7042,VNB,B,16
0,test,4,0.0,2-Back,,,Fri Feb 28 2025 13:29:11 GMT-0600 (Central Standard Time),769957.7000000477,011_m_f_n_a.png,O,space,1902,1,1,2489.100000023842,767468.6000000238,7042,VNB,B,0
0,test,4,0.0,2-Back,,,Fri Feb 28 2025 13:29:11 GMT-0600 (Central Standard Time),769957.7000000477,004_o_m_n_a.png,O,space,1902,2,1,2489.100000023842,767468.6000000238,7042,VNB,B,0
1,test,4,1.0,2-Back,1,m,Fri Feb 28 2025 13:29:11 GMT-0600 (Central Standard Time),779091.2000000477,016_y_m_h_a.png,O,m,983,3,1,1993.6000000238419,777097.6000000238,7042,VNB,B,1
1,test,4,1.0,2-Back,0,m,Fri Feb 28 2025 13:29:11 GMT-0600 (Central Standard Time),781789.2000000477,005_o_f_d_a.png,O,z,1669,4,1,2689.100000023842,779100.1000000238,7042,VNB,B,2
1,test,4,0.0,2-Back,0,z,Fri Feb 28 2025 13:29:11 GMT-0600 (Central Standard Time),784687.8000000119,004_o_m_h_a.png,O,m,1866,5,1,2891.800000011921,781796.0,7042,VNB,B,3
1,test,4,0.0,2-Back,0,m,Fri Feb 28 2025 13:29:11 GMT-0600 (Central Standard Time),787588.4000000358,007_m_m_n_a.png,O,z,1882,6,1,2893.300000011921,784695.1000000238,7042,VNB,B,4
2,test,4,0.0,2-Back,1,m,Fri Feb 28 2025 13:29:11 GMT-0600 (Central Standard Time),789702.7000000477,011_m_f_d_a.png,O,m,1093,7,1,2105.900000035763,787596.8000000119,7042,VNB,B,5
3,test,4,0.0,2-Back,1,z,Fri Feb 28 2025 13:29:11 GMT-0600 (Central Standard Time),792054.2000000477,020_y_f_n_a.png,O,z,1335,8,1,2344.5,789709.7000000477,7042,VNB,B,6
4,test,4,1.0,2-Back,1,m,Fri Feb 28 2025 13:29:11 GMT-0600 (Central Standard Time),794586.9000000358,005_o_f_h_a.png,O,m,1503,9,1,2524.900000035763,792062.0,7042,VNB,B,7
4,test,4,0.0,2-Back,0,m,Fri Feb 28 2025 13:29:11 GMT-0600 (Central Standard Time),796835.7000000477,007_m_m_h_a.png,O,z,1232,10,1,2242.600000023842,794593.1000000238,7042,VNB,B,8
4,test,4,0.0,2-Back,0,m,Fri Feb 28 2025 13:29:11 GMT-0600 (Central Standard Time),799866.9000000358,020_y_f_d_a.png,O,None,2015,11,1,3023.400000035763,796843.5,7042,VNB,B,9
5,test,4,0.0,2-Back,1,m,Fri Feb 28 2025 13:29:11 GMT-0600 (Central Standard Time),802632.2000000477,016_y_m_n_a.png,O,m,1742,12,1,2758.300000011921,799873.9000000358,7042,VNB,B,10
5,test,4,0.0,2-Back,0,z,Fri Feb 28 2025 13:29:11 GMT-0600 (Central Standard Time),804698.4000000358,004_o_m_d_a.png,O,m,1039,13,1,2057.600000023842,802640.8000000119,7042,VNB,B,11
6,test,4,1.0,2-Back,1,m,Fri Feb 28 2025 13:29:11 GMT-0600 (Central Standard Time),806748.9000000358,011_m_f_h_a.png,O,m,1032,14,1,2046.9000000357628,804702.0,7042,VNB,B,12
6,test,4,1.0,2-Back,0,m,Fri Feb 28 2025 13:29:11 GMT-0600 (Central Standard Time),809396.5,020_y_f_h_a.png,O,z,1621,15,1,2641.099999964237,806755.4000000358,7042,VNB,B,13
7,test,4,0.0,2-Back,1,m,Fri Feb 28 2025 13:29:11 GMT-0600 (Central Standard Time),811861.9000000358,005_o_f_n_a.png,O,m,1443,16,1,2457.900000035763,809404.0,7042,VNB,B,14
8,test,4,0.0,2-Back,1,m,Fri Feb 28 2025 13:29:11 GMT-0600 (Central Standard Time),814196.4000000358,016_y_m_d_a.png,O,m,1316,17,1,2326.0,811870.4000000358,7042,VNB,B,15
9,test,4,1.0,2-Back,1,m,Fri Feb 28 2025 13:29:11 GMT-0600 (Central Standard Time),816195.0,007_m_m_d_a.png,O,m,975,18,1,1989.699999988079,814205.3000000119,7042,VNB,B,16
0,test,5,1.0,2-Back,,,Fri Feb 28 2025 13:29:11 GMT-0600 (Central Standard Time),816195.0,020_y_f_d_a.png,O,space,1550,1,1,1989.699999988079,814205.3000000119,7042,VNB,B,0
0,test,5,1.0,2-Back,,,Fri Feb 28 2025 13:29:11 GMT-0600 (Central Standard Time),816195.0,005_o_f_h_a.png,O,space,1550,2,1,1989.699999988079,814205.3000000119,7042,VNB,B,0
0,test,5,1.0,2-Back,0,z,Fri Feb 28 2025 13:29:11 GMT-0600 (Central Standard Time),825358.9000000358,004_o_m_d_a.png,O,m,1327,3,1,2340.800000011921,823018.1000000238,7042,VNB,B,1
0,test,5,1.0,2-Back,0,m,Fri Feb 28 2025 13:29:11 GMT-0600 (Central Standard Time),827540.2000000477,011_m_f_n_a.png,O,z,1153,4,1,2173.900000035763,825366.3000000119,7042,VNB,B,2
1,test,5,0.0,2-Back,1,m,Fri Feb 28 2025 13:29:11 GMT-0600 (Central Standard Time),830321.5,007_m_m_h_a.png,O,m,1755,5,1,2773.199999988079,827548.3000000119,7042,VNB,B,3
1,test,5,0.0,2-Back,0,z,Fri Feb 28 2025 13:29:11 GMT-0600 (Central Standard Time),832822.3000000119,020_y_f_n_a.png,O,m,1478,6,1,2498.399999976158,830323.9000000358,7042,VNB,B,4
1,test,5,0.0,2-Back,0,m,Fri Feb 28 2025 13:29:11 GMT-0600 (Central Standard Time),835272.9000000358,005_o_f_d_a.png,O,z,1416,7,1,2441.800000011921,832831.1000000238,7042,VNB,B,5
2,test,5,0.0,2-Back,1,m,Fri Feb 28 2025 13:29:11 GMT-0600 (Central Standard Time),837271.3000000119,004_o_m_h_a.png,O,m,977,8,1,1991.699999988079,835279.6000000238,7042,VNB,B,6
2,test,5,1.0,2-Back,0,z,Fri Feb 28 2025 13:29:11 GMT-0600 (Central Standard Time),839637.7000000477,011_m_f_d_a.png,O,m,1337,9,1,2359.800000011921,837277.9000000358,7042,VNB,B,7
2,test,5,0.0,2-Back,0,m,Fri Feb 28 2025 13:29:11 GMT-0600 (Central Standard Time),842368.8000000119,016_y_m_n_a.png,O,z,1697,10,1,2724.300000011921,839644.5,7042,VNB,B,8
3,test,5,0.0,2-Back,1,m,Fri Feb 28 2025 13:29:11 GMT-0600 (Central Standard Time),845102.3000000119,007_m_m_n_a.png,O,m,1702,11,1,2726.199999988079,842376.1000000238,7042,VNB,B,9
4,test,5,0.0,2-Back,1,m,Fri Feb 28 2025 13:29:11 GMT-0600 (Central Standard Time),847917.4000000358,020_y_f_h_a.png,O,m,1793,12,1,2805.900000035763,845111.5,7042,VNB,B,10
5,test,5,0.0,2-Back,1,m,Fri Feb 28 2025 13:29:11 GMT-0600 (Central Standard Time),850118.0,016_y_m_d_a.png,O,m,1170,13,1,2193.099999964237,847924.9000000358,7042,VNB,B,11
6,test,5,1.0,2-Back,1,z,Fri Feb 28 2025 13:29:11 GMT-0600 (Central Standard Time),852216.0,011_m_f_h_a.png,O,z,1075,14,1,2089.7999999523163,850126.2000000477,7042,VNB,B,12
6,test,5,0.0,2-Back,0,m,Fri Feb 28 2025 13:29:11 GMT-0600 (Central Standard Time),854670.1000000238,004_o_m_n_a.png,O,z,1421,15,1,2446.5,852223.6000000238,7042,VNB,B,13
7,test,5,0.0,2-Back,1,m,Fri Feb 28 2025 13:29:11 GMT-0600 (Central Standard Time),857264.1000000238,007_m_m_d_a.png,O,m,1568,16,1,2590.0,854674.1000000238,7042,VNB,B,14
8,test,5,0.0,2-Back,1,z,Fri Feb 28 2025 13:29:11 GMT-0600 (Central Standard Time),859413.3000000119,005_o_f_n_a.png,O,z,1126,17,1,2141.899999976158,857271.4000000358,7042,VNB,B,15
9,test,5,1.0,2-Back,1,m,Fri Feb 28 2025 13:29:11 GMT-0600 (Central Standard Time),862396.5,016_y_m_h_a.png,O,m,1950,18,1,2976.399999976158,859420.1000000238,7042,VNB,B,16
