acc_sum,block_c,block_dur,condition,correct,correct_response,countdown,datetime,endtime,project,response,response_time,response_time_test1_response,response_time_test2_response,row_sel,same,session_number,start_end,starttime,stim1,stim2,subject_id,task,task_vers,time_test1,time_test2,trial
1,1,0.0,prac,1,m,30000.0,Mon Mar 31 2025 11:44:23 GMT-0400 (Eastern Daylight Time),40425.300000190735,I,m,759,,,2,no,1,2292.5999999046326,38132.7000002861,practrial2.png,practrial2b.png,9013,PC,A,,,1
2,1,0.0,prac,1,z,30000.0,Mon Mar 31 2025 11:44:23 GMT-0400 (Eastern Daylight Time),42908.7000002861,I,z,955,,,1,yes,1,2474.800000190735,40433.90000009537,practrial1.png,practrial1.png,9013,PC,A,,,2
3,1,0.0,prac,1,m,30000.0,Mon Mar 31 2025 11:44:23 GMT-0400 (Eastern Daylight Time),45525.09999990463,I,m,1079,,,4,no,1,2607.699999809265,42917.40000009537,practrial4.png,practrial4b.png,9013,PC,A,,,3
4,1,0.0,prac,1,z,30000.0,Mon Mar 31 2025 11:44:23 GMT-0400 (Eastern Daylight Time),48275.09999990463,I,z,1216,,,5,yes,1,2741.8999996185303,45533.2000002861,practrial5.png,practrial5.png,9013,PC,A,,,4
5,1,0.0,prac,1,z,30000.0,Mon Mar 31 2025 11:44:23 GMT-0400 (Eastern Daylight Time),51441.7000002861,I,z,1633,,,3,yes,1,3157.7000002861023,48284.0,practrial3.png,practrial3.png,9013,PC,A,,,5
5,1,0.0,prac,0,m,30000.0,Mon Mar 31 2025 11:44:23 GMT-0400 (Eastern Daylight Time),54791.59999990463,I,z,1809,,,6,no,1,3339.699999809265,51451.90000009537,practrial6.png,practrial6b.png,9013,PC,A,,,6
1,1,2.2669999599456787,test,1,z,27733.00004005432,Mon Mar 31 2025 11:44:23 GMT-0400 (Eastern Daylight Time),73008.80000019073,I,z,2257,2257,,1,yes,1,2260.7000002861023,70748.09999990463,test1trial1.png,test1trial1.png,9013,PC,A,68518,,1
2,1,3.317000150680542,test,1,m,26682.999849319458,Mon Mar 31 2025 11:44:23 GMT-0400 (Eastern Daylight Time),74058.80000019073,I,m,1029,1029,,2,no,1,1043.0999999046326,73015.7000002861,test1trial2.png,test1trial2b.png,9013,PC,A,70786,,2
3,1,4.91700005531311,test,1,z,25082.99994468689,Mon Mar 31 2025 11:44:23 GMT-0400 (Eastern Daylight Time),75658.5,I,z,1579,1579,,3,yes,1,1593.2999997138977,74065.2000002861,test1trial3.png,test1trial3.png,9013,PC,A,71835,,3
4,1,5.900000095367432,test,1,m,24099.99990463257,Mon Mar 31 2025 11:44:23 GMT-0400 (Eastern Daylight Time),76641.7000002861,I,m,972,972,,4,no,1,977.0,75664.7000002861,test1trial4.png,test1trial4b.png,9013,PC,A,73435,,4
5,1,7.367000102996826,test,1,z,22632.999897003174,Mon Mar 31 2025 11:44:23 GMT-0400 (Eastern Daylight Time),78108.30000019073,I,z,1444,1444,,5,yes,1,1459.9000000953674,76648.40000009537,test1trial5.png,test1trial5.png,9013,PC,A,74418,,5
6,1,8.266999959945679,test,1,m,21733.00004005432,Mon Mar 31 2025 11:44:23 GMT-0400 (Eastern Daylight Time),79008.59999990463,I,m,888,888,,6,no,1,892.3999996185303,78116.2000002861,test1trial6.png,test1trial6b.png,9013,PC,A,75886,,6
7,1,9.867000102996826,test,1,z,20132.999897003174,Mon Mar 31 2025 11:44:23 GMT-0400 (Eastern Daylight Time),80608.40000009537,I,z,1590,1590,,7,yes,1,1593.4000000953674,79015.0,test1trial7.png,test1trial7.png,9013,PC,A,76785,,7
8,1,11.58299994468689,test,1,m,18417.00005531311,Mon Mar 31 2025 11:44:23 GMT-0400 (Eastern Daylight Time),82325.0,I,m,1701,1701,,8,no,1,1708.7999997138977,80616.2000002861,test1trial8.png,test1trial8b.png,9013,PC,A,78386,,8
9,1,12.900000095367432,test,1,z,17099.99990463257,Mon Mar 31 2025 11:44:23 GMT-0400 (Eastern Daylight Time),83641.80000019073,I,z,1298,1298,,9,yes,1,1310.5999999046326,82331.2000002861,test1trial9.png,test1trial9.png,9013,PC,A,80101,,9
10,1,13.933000087738037,test,1,m,16066.999912261963,Mon Mar 31 2025 11:44:23 GMT-0400 (Eastern Daylight Time),84675.09999990463,I,m,1021,1021,,10,no,1,1027.2999997138977,83647.80000019073,test1trial10.png,test1trial10b.png,9013,PC,A,81418,,10
11,1,15.282999992370605,test,1,z,14717.000007629395,Mon Mar 31 2025 11:44:23 GMT-0400 (Eastern Daylight Time),86025.09999990463,I,z,1331,1331,,11,yes,1,1343.6999998092651,84681.40000009537,test1trial11.png,test1trial11.png,9013,PC,A,82452,,11
12,1,16.950000047683716,test,1,m,13049.999952316284,Mon Mar 31 2025 11:44:23 GMT-0400 (Eastern Daylight Time),87691.7000002861,I,m,1644,1644,,12,no,1,1659.9000000953674,86031.80000019073,test1trial12.png,test1trial12b.png,9013,PC,A,83802,,12
13,1,18.200000047683716,test,1,m,11799.999952316284,Mon Mar 31 2025 11:44:23 GMT-0400 (Eastern Daylight Time),88941.80000019073,I,m,1227,1227,,13,no,1,1243.9000000953674,87697.90000009537,test1trial13.png,test1trial13b.png,9013,PC,A,85468,,13
14,1,19.40000009536743,test,1,m,10599.999904632568,Mon Mar 31 2025 11:44:23 GMT-0400 (Eastern Daylight Time),90142.2000002861,I,m,1193,1193,,14,no,1,1194.0,88948.2000002861,test1trial14.png,test1trial14b.png,9013,PC,A,86718,,14
15,1,20.615999937057495,test,1,z,9384.000062942505,Mon Mar 31 2025 11:44:23 GMT-0400 (Eastern Daylight Time),91358.09999990463,I,z,1208,1208,,15,yes,1,1210.5,90147.59999990463,test1trial15.png,test1trial15.png,9013,PC,A,87918,,15
16,1,21.83299994468689,test,1,m,8167.00005531311,Mon Mar 31 2025 11:44:23 GMT-0400 (Eastern Daylight Time),92574.7000002861,I,m,1209,1209,,16,no,1,1211.2000002861023,91363.5,test1trial16.png,test1trial16b.png,9013,PC,A,89134,,16
17,1,23.23300004005432,test,1,z,6766.999959945679,Mon Mar 31 2025 11:44:23 GMT-0400 (Eastern Daylight Time),93975.2000002861,I,z,1385,1385,,17,yes,1,1395.2000002861023,92580.0,test1trial17.png,test1trial17.png,9013,PC,A,90350,,17
18,1,24.433000087738037,test,1,m,5566.999912261963,Mon Mar 31 2025 11:44:23 GMT-0400 (Eastern Daylight Time),95174.59999990463,I,m,1177,1177,,18,no,1,1189.8999996185303,93984.7000002861,test1trial18.png,test1trial18b.png,9013,PC,A,91757,,18
18,1,25.883000135421753,test,0,m,4116.999864578247,Mon Mar 31 2025 11:44:23 GMT-0400 (Eastern Daylight Time),96625.09999990463,I,z,1442,1442,,19,no,1,1446.5999999046326,95178.5,test1trial19.png,test1trial19b.png,9013,PC,A,92949,,19
19,1,27.367000102996826,test,1,z,2632.999897003174,Mon Mar 31 2025 11:44:23 GMT-0400 (Eastern Daylight Time),98108.90000009537,I,z,1461,1461,,20,yes,1,1477.6999998092651,96631.2000002861,test1trial20.png,test1trial20.png,9013,PC,A,94401,,20
20,1,28.41600012779236,test,1,z,1583.9998722076416,Mon Mar 31 2025 11:44:23 GMT-0400 (Eastern Daylight Time),99158.2000002861,I,z,1033,1033,,21,yes,1,1042.3000001907349,98115.90000009537,test1trial21.png,test1trial21.png,9013,PC,A,95886,,21
21,1,29.73300004005432,test,1,z,266.9999599456787,Mon Mar 31 2025 11:44:23 GMT-0400 (Eastern Daylight Time),100475.2000002861,I,z,1295,1295,,22,yes,1,1310.6000003814697,99164.59999990463,test1trial22.png,test1trial22.png,9013,PC,A,96935,,22
21,1,30.01699995994568,test,0,z,-16.99995994567871,Mon Mar 31 2025 11:44:23 GMT-0400 (Eastern Daylight Time),100758.7000002861,I,None,275,275,,23,yes,1,277.0,100481.7000002861,test1trial23.png,test1trial23.png,9013,PC,A,98252,,23
1,2,1.184000015258789,test,1,m,28815.99998474121,Mon Mar 31 2025 11:44:23 GMT-0400 (Eastern Daylight Time),108475.5,I,m,1162,,1162.0,1,no,1,7993.799999713898,100481.7000002861,test2trial1.png,test2trial1b.png,9013,PC,A,,105068.0,1
2,2,2.5,test,1,m,27500.0,Mon Mar 31 2025 11:44:23 GMT-0400 (Eastern Daylight Time),109792.0,I,m,1306,,1306.0,2,no,1,9310.299999713898,100481.7000002861,test2trial2.png,test2trial2b.png,9013,PC,A,,106253.0,2
3,2,4.683000087738037,test,1,z,25316.999912261963,Mon Mar 31 2025 11:44:23 GMT-0400 (Eastern Daylight Time),111975.2000002861,I,z,2166,,2166.0,3,yes,1,11493.5,100481.7000002861,test2trial3.png,test2trial3.png,9013,PC,A,,107569.0,3
4,2,5.733000040054321,test,1,z,24266.99995994568,Mon Mar 31 2025 11:44:23 GMT-0400 (Eastern Daylight Time),113025.0,I,z,1040,,1040.0,4,yes,1,12543.299999713898,100481.7000002861,test2trial4.png,test2trial4.png,9013,PC,A,,109751.0,4
5,2,7.1000001430511475,test,1,z,22899.999856948853,Mon Mar 31 2025 11:44:23 GMT-0400 (Eastern Daylight Time),114391.80000019073,I,z,1349,,1349.0,5,yes,1,13910.099999904633,100481.7000002861,test2trial5.png,test2trial5.png,9013,PC,A,,110802.0,5
6,2,8.282999992370605,test,1,z,21717.000007629395,Mon Mar 31 2025 11:44:23 GMT-0400 (Eastern Daylight Time),115575.09999990463,I,z,1167,,1167.0,6,yes,1,15093.39999961853,100481.7000002861,test2trial6.png,test2trial6.png,9013,PC,A,,112168.0,6
7,2,9.483000040054321,test,1,m,20516.99995994568,Mon Mar 31 2025 11:44:23 GMT-0400 (Eastern Daylight Time),116775.0,I,m,1182,,1182.0,7,no,1,16293.299999713898,100481.7000002861,test2trial7.png,test2trial7b.png,9013,PC,A,,113353.0,7
8,2,10.583000183105469,test,1,m,19416.99981689453,Mon Mar 31 2025 11:44:23 GMT-0400 (Eastern Daylight Time),117875.09999990463,I,m,1084,,1084.0,8,no,1,17393.39999961853,100481.7000002861,test2trial8.png,test2trial8b.png,9013,PC,A,,114554.0,8
9,2,12.16700005531311,test,1,z,17832.99994468689,Mon Mar 31 2025 11:44:23 GMT-0400 (Eastern Daylight Time),119458.40000009537,I,z,1572,,1572.0,9,yes,1,18976.699999809265,100481.7000002861,test2trial9.png,test2trial9.png,9013,PC,A,,115651.0,9
10,2,13.467000007629395,test,1,z,16532.999992370605,Mon Mar 31 2025 11:44:23 GMT-0400 (Eastern Daylight Time),120758.5,I,z,1284,,1284.0,10,yes,1,20276.799999713898,100481.7000002861,test2trial10.png,test2trial10.png,9013,PC,A,,117235.0,10
11,2,14.467000007629395,test,1,m,15532.999992370605,Mon Mar 31 2025 11:44:23 GMT-0400 (Eastern Daylight Time),121758.5,I,m,992,,992.0,11,no,1,21276.799999713898,100481.7000002861,test2trial11.png,test2trial11b.png,9013,PC,A,,118535.0,11
12,2,15.583000183105469,test,1,m,14416.999816894531,Mon Mar 31 2025 11:44:23 GMT-0400 (Eastern Daylight Time),122875.0,I,m,1096,,1096.0,12,no,1,22393.299999713898,100481.7000002861,test2trial12.png,test2trial12b.png,9013,PC,A,,119535.0,12
13,2,16.817000150680542,test,1,z,13182.999849319458,Mon Mar 31 2025 11:44:23 GMT-0400 (Eastern Daylight Time),124108.40000009537,I,z,1209,,1209.0,13,yes,1,23626.699999809265,100481.7000002861,test2trial13.png,test2trial13.png,9013,PC,A,,120653.0,13
13,2,18.467000007629395,test,0,m,11532.999992370605,Mon Mar 31 2025 11:44:23 GMT-0400 (Eastern Daylight Time),125758.30000019073,I,z,1640,,1640.0,14,no,1,25276.599999904633,100481.7000002861,test2trial14.png,test2trial14b.png,9013,PC,A,,121887.0,14
14,2,19.850000143051147,test,1,m,10149.999856948853,Mon Mar 31 2025 11:44:23 GMT-0400 (Eastern Daylight Time),127141.7000002861,I,m,1367,,1367.0,15,no,1,26660.0,100481.7000002861,test2trial15.png,test2trial15b.png,9013,PC,A,,123536.0,15
15,2,20.950000047683716,test,1,m,9049.999952316284,Mon Mar 31 2025 11:44:23 GMT-0400 (Eastern Daylight Time),128241.7000002861,I,m,1089,,1089.0,16,no,1,27760.0,100481.7000002861,test2trial16.png,test2trial16b.png,9013,PC,A,,124918.0,16
16,2,22.117000102996826,test,1,z,7882.999897003174,Mon Mar 31 2025 11:44:23 GMT-0400 (Eastern Daylight Time),129408.40000009537,I,z,1156,,1156.0,17,yes,1,28926.699999809265,100481.7000002861,test2trial17.png,test2trial17.png,9013,PC,A,,126018.0,17
17,2,23.25,test,1,z,6750.0,Mon Mar 31 2025 11:44:23 GMT-0400 (Eastern Daylight Time),130542.09999990463,I,z,1126,,1126.0,18,yes,1,30060.39999961853,100481.7000002861,test2trial18.png,test2trial18.png,9013,PC,A,,127184.0,18
18,2,24.41700005531311,test,1,z,5582.99994468689,Mon Mar 31 2025 11:44:23 GMT-0400 (Eastern Daylight Time),131708.30000019073,I,z,1144,,1144.0,19,yes,1,31226.599999904633,100481.7000002861,test2trial19.png,test2trial19.png,9013,PC,A,,128318.0,19
19,2,25.73300004005432,test,1,z,4266.999959945679,Mon Mar 31 2025 11:44:23 GMT-0400 (Eastern Daylight Time),133025.09999990463,I,z,1306,,1306.0,20,yes,1,32543.39999961853,100481.7000002861,test2trial20.png,test2trial20.png,9013,PC,A,,129485.0,20
20,2,26.933000087738037,test,1,z,3066.999912261963,Mon Mar 31 2025 11:44:23 GMT-0400 (Eastern Daylight Time),134225.09999990463,I,z,1188,,1188.0,21,yes,1,33743.39999961853,100481.7000002861,test2trial21.png,test2trial21.png,9013,PC,A,,130803.0,21
21,2,28.032999992370605,test,1,m,1967.0000076293945,Mon Mar 31 2025 11:44:23 GMT-0400 (Eastern Daylight Time),135325.0,I,m,1077,,1077.0,22,no,1,34843.2999997139,100481.7000002861,test2trial22.png,test2trial22b.png,9013,PC,A,,132001.0,22
22,2,29.350000143051147,test,1,m,649.9998569488525,Mon Mar 31 2025 11:44:23 GMT-0400 (Eastern Daylight Time),136641.7000002861,I,m,1304,,1304.0,23,no,1,36160.0,100481.7000002861,test2trial23.png,test2trial23b.png,9013,PC,A,,133103.0,23
22,2,30.017000198364258,test,0,m,-17.000198364257812,Mon Mar 31 2025 11:44:23 GMT-0400 (Eastern Daylight Time),137308.40000009537,I,None,659,,659.0,24,no,1,36826.699999809265,100481.7000002861,test2trial24.png,test2trial24b.png,9013,PC,A,,134418.0,24
