block_c,block_dur,condition,countdown,datetime,endtime,list,multichar_response,project,response,response_time,session_number,start_end,starttime,subject_id,task,task_vers,trial
,,,,Thu Mar 27 2025 10:11:56 GMT-0500 (Central Daylight Time),,,,O,space,1128,1,,,7102,WL,A,
prac,,0,,Thu Mar 27 2025 10:11:56 GMT-0500 (Central Daylight Time),,NA,b,O,b,5227,1,,,7102,WL,A,1.0
prac,,0,,Thu Mar 27 2025 10:11:56 GMT-0500 (Central Daylight Time),,NA,bo,O,o,479,1,,,7102,WL,A,1.0
prac,,0,,Thu Mar 27 2025 10:11:56 GMT-0500 (Central Daylight Time),,NA,boo,O,o,171,1,,,7102,WL,A,1.0
prac,,0,,Thu Mar 27 2025 10:11:56 GMT-0500 (Central Daylight Time),,NA,boos,O,s,76,1,,,7102,WL,A,1.0
prac,,0,,Thu Mar 27 2025 10:11:56 GMT-0500 (Central Daylight Time),,NA,boose,O,e,64,1,,,7102,WL,A,1.0
prac,,0,,Thu Mar 27 2025 10:11:56 GMT-0500 (Central Daylight Time),,NA,booset,O,t,741,1,,,7102,WL,A,1.0
prac,,0,,Thu Mar 27 2025 10:11:56 GMT-0500 (Central Daylight Time),,NA,boose,O,backspace,487,1,,,7102,WL,A,1.0
prac,,0,,Thu Mar 27 2025 10:11:56 GMT-0500 (Central Daylight Time),,NA,boos,O,backspace,179,1,,,7102,WL,A,1.0
prac,,0,,Thu Mar 27 2025 10:11:56 GMT-0500 (Central Daylight Time),,NA,boost,O,t,203,1,,,7102,WL,A,1.0
prac,,0,,Thu Mar 27 2025 10:11:56 GMT-0500 (Central Daylight Time),,NA,boostenter,O,enter,203,1,,,7102,WL,A,1.0
1,1.1349999904632568,learn,58865.00000953674,Thu Mar 27 2025 10:11:56 GMT-0500 (Central Daylight Time),392016.8999999985,A,b,O,b,1114,1,1133.7999999970198,390883.1000000015,7102,WL,A,1.0
1,1.5830001831054688,learn,58416.99981689453,Thu Mar 27 2025 10:11:56 GMT-0500 (Central Daylight Time),392465.80000000447,A,bo,O,o,427,1,1582.7000000029802,390883.1000000015,7102,WL,A,1.0
1,1.7330000400543213,learn,58266.99995994568,Thu Mar 27 2025 10:11:56 GMT-0500 (Central Daylight Time),392615.5,A,boo,O,o,131,1,1732.3999999985099,390883.1000000015,7102,WL,A,1.0
1,2.0160000324249268,learn,57983.99996757507,Thu Mar 27 2025 10:11:56 GMT-0500 (Central Daylight Time),392898.700000003,A,book,O,k,262,1,2015.6000000014901,390883.1000000015,7102,WL,A,1.0
1,4.832000017166138,learn,55167.99998283386,Thu Mar 27 2025 10:11:56 GMT-0500 (Central Daylight Time),395714.200000003,A,bookenter,O,enter,2794,1,4831.10000000149,390883.1000000015,7102,WL,A,1.0
1,5.948000192642212,learn,54051.99980735779,Thu Mar 27 2025 10:11:56 GMT-0500 (Central Daylight Time),396830.6000000015,A,f,O,f,1098,1,1116.0,395714.6000000015,7102,WL,A,2.0
1,6.0320000648498535,learn,53967.99993515015,Thu Mar 27 2025 10:11:56 GMT-0500 (Central Daylight Time),396913.8999999985,A,fl,O,l,70,1,1199.2999999970198,395714.6000000015,7102,WL,A,2.0
1,6.2820000648498535,learn,53717.99993515015,Thu Mar 27 2025 10:11:56 GMT-0500 (Central Daylight Time),397164.0,A,flo,O,o,234,1,1449.3999999985099,395714.6000000015,7102,WL,A,2.0
1,6.382000207901001,learn,53617.999792099,Thu Mar 27 2025 10:11:56 GMT-0500 (Central Daylight Time),397264.0,A,flow,O,w,88,1,1549.3999999985099,395714.6000000015,7102,WL,A,2.0
1,6.465000152587891,learn,53534.99984741211,Thu Mar 27 2025 10:11:56 GMT-0500 (Central Daylight Time),397347.1000000015,A,flowe,O,e,77,1,1632.5,395714.6000000015,7102,WL,A,2.0
1,6.565000057220459,learn,53434.99994277954,Thu Mar 27 2025 10:11:56 GMT-0500 (Central Daylight Time),397447.30000000447,A,flower,O,r,90,1,1732.7000000029802,395714.6000000015,7102,WL,A,2.0
1,6.948000192642212,learn,53051.99980735779,Thu Mar 27 2025 10:11:56 GMT-0500 (Central Daylight Time),397830.6000000015,A,flowerenter,O,enter,374,1,2116.0,395714.6000000015,7102,WL,A,2.0
1,7.748000144958496,learn,52251.999855041504,Thu Mar 27 2025 10:11:56 GMT-0500 (Central Daylight Time),398630.0,A,t,O,t,791,1,798.8999999985099,397831.1000000015,7102,WL,A,3.0
1,8.04800009727478,learn,51951.99990272522,Thu Mar 27 2025 10:11:56 GMT-0500 (Central Daylight Time),398930.200000003,A,tr,O,r,288,1,1099.1000000014901,397831.1000000015,7102,WL,A,3.0
1,8.231000185012817,learn,51768.99981498718,Thu Mar 27 2025 10:11:56 GMT-0500 (Central Daylight Time),399113.3999999985,A,tra,O,a,163,1,1282.2999999970198,397831.1000000015,7102,WL,A,3.0
1,8.364000082015991,learn,51635.99991798401,Thu Mar 27 2025 10:11:56 GMT-0500 (Central Daylight Time),399246.700000003,A,trai,O,i,124,1,1415.6000000014901,397831.1000000015,7102,WL,A,3.0
1,8.414000034332275,learn,51585.999965667725,Thu Mar 27 2025 10:11:56 GMT-0500 (Central Daylight Time),399296.5,A,train,O,n,38,1,1465.3999999985099,397831.1000000015,7102,WL,A,3.0
1,9.04800009727478,learn,50951.99990272522,Thu Mar 27 2025 10:11:56 GMT-0500 (Central Daylight Time),399929.8999999985,A,trainenter,O,enter,621,1,2098.7999999970198,397831.1000000015,7102,WL,A,3.0
1,10.098000049591064,learn,49901.999950408936,Thu Mar 27 2025 10:11:56 GMT-0500 (Central Daylight Time),400980.6000000015,A,r,O,r,1043,1,1050.3999999985099,399930.200000003,7102,WL,A,4.0
1,10.264000177383423,learn,49735.99982261658,Thu Mar 27 2025 10:11:56 GMT-0500 (Central Daylight Time),401146.0,A,ru,O,u,144,1,1215.7999999970198,399930.200000003,7102,WL,A,4.0
1,10.480000019073486,learn,49519.999980926514,Thu Mar 27 2025 10:11:56 GMT-0500 (Central Daylight Time),401362.5,A,rug,O,g,196,1,1432.2999999970198,399930.200000003,7102,WL,A,4.0
1,10.747000217437744,learn,49252.999782562256,Thu Mar 27 2025 10:11:56 GMT-0500 (Central Daylight Time),401629.30000000447,A,rugenter,O,enter,258,1,1699.1000000014901,399930.200000003,7102,WL,A,4.0
1,11.313000202178955,learn,48686.999797821045,Thu Mar 27 2025 10:11:56 GMT-0500 (Central Daylight Time),402195.700000003,A,m,O,m,559,1,566.0,401629.700000003,7102,WL,A,5.0
1,11.73800015449524,learn,48261.99984550476,Thu Mar 27 2025 10:11:56 GMT-0500 (Central Daylight Time),402620.200000003,A,me,O,e,419,1,990.5,401629.700000003,7102,WL,A,5.0
1,11.896000146865845,learn,48103.999853134155,Thu Mar 27 2025 10:11:56 GMT-0500 (Central Daylight Time),402778.5,A,mea,O,a,137,1,1148.7999999970198,401629.700000003,7102,WL,A,5.0
1,12.147000074386597,learn,47852.9999256134,Thu Mar 27 2025 10:11:56 GMT-0500 (Central Daylight Time),403028.8999999985,A,mead,O,d,234,1,1399.1999999955297,401629.700000003,7102,WL,A,5.0
1,12.296000003814697,learn,47703.9999961853,Thu Mar 27 2025 10:11:56 GMT-0500 (Central Daylight Time),403178.6000000015,A,meado,O,o,129,1,1548.8999999985099,401629.700000003,7102,WL,A,5.0
1,12.614000082015991,learn,47385.99991798401,Thu Mar 27 2025 10:11:56 GMT-0500 (Central Daylight Time),403496.30000000447,A,meadow,O,w,298,1,1866.6000000014901,401629.700000003,7102,WL,A,5.0
1,13.513000011444092,learn,46486.99998855591,Thu Mar 27 2025 10:11:56 GMT-0500 (Central Daylight Time),404394.8999999985,A,meadowenter,O,enter,884,1,2765.1999999955297,401629.700000003,7102,WL,A,5.0
1,14.01200008392334,learn,45987.99991607666,Thu Mar 27 2025 10:11:56 GMT-0500 (Central Daylight Time),404894.8999999985,A,c,O,c,490,1,499.59999999403954,404395.30000000447,7102,WL,A,6.0
1,14.130000114440918,learn,45869.99988555908,Thu Mar 27 2025 10:11:56 GMT-0500 (Central Daylight Time),405012.700000003,A,ch,O,h,102,1,617.3999999985099,404395.30000000447,7102,WL,A,6.0
1,14.412000179290771,learn,45587.99982070923,Thu Mar 27 2025 10:11:56 GMT-0500 (Central Daylight Time),405294.700000003,A,chi,O,i,264,1,899.3999999985099,404395.30000000447,7102,WL,A,6.0
1,14.529000043869019,learn,45470.99995613098,Thu Mar 27 2025 10:11:56 GMT-0500 (Central Daylight Time),405411.5,A,chim,O,m,102,1,1016.1999999955297,404395.30000000447,7102,WL,A,6.0
1,14.729000091552734,learn,45270.999908447266,Thu Mar 27 2025 10:11:56 GMT-0500 (Central Daylight Time),405611.3999999985,A,chimp,O,p,185,1,1216.0999999940395,404395.30000000447,7102,WL,A,6.0
1,15.379000186920166,learn,44620.999813079834,Thu Mar 27 2025 10:11:56 GMT-0500 (Central Daylight Time),406261.1000000015,A,chim,O,backspace,642,1,1865.7999999970198,404395.30000000447,7102,WL,A,6.0
1,16.228000164031982,learn,43771.99983596802,Thu Mar 27 2025 10:11:56 GMT-0500 (Central Daylight Time),407110.700000003,A,chimn,O,n,832,1,2715.39999999851,404395.30000000447,7102,WL,A,6.0
1,16.462000131607056,learn,43537.999868392944,Thu Mar 27 2025 10:11:56 GMT-0500 (Central Daylight Time),407344.200000003,A,chimne,O,e,214,1,2948.89999999851,404395.30000000447,7102,WL,A,6.0
1,16.545000076293945,learn,43454.999923706055,Thu Mar 27 2025 10:11:56 GMT-0500 (Central Daylight Time),407427.3999999985,A,chimney,O,y,69,1,3032.0999999940395,404395.30000000447,7102,WL,A,6.0
1,17.195000171661377,learn,42804.99982833862,Thu Mar 27 2025 10:11:56 GMT-0500 (Central Daylight Time),408077.30000000447,A,chimneyenter,O,enter,633,1,3682.0,404395.30000000447,7102,WL,A,6.0
1,20.66000008583069,learn,39339.99991416931,Thu Mar 27 2025 10:11:56 GMT-0500 (Central Daylight Time),411542.8999999985,A,f,O,f,3449,1,3465.1999999955297,408077.700000003,7102,WL,A,7.0
1,20.91000008583069,learn,39089.99991416931,Thu Mar 27 2025 10:11:56 GMT-0500 (Central Daylight Time),411792.30000000447,A,fu,O,u,238,1,3714.60000000149,408077.700000003,7102,WL,A,7.0
1,20.99400019645691,learn,39005.99980354309,Thu Mar 27 2025 10:11:56 GMT-0500 (Central Daylight Time),411876.200000003,A,fur,O,r,77,1,3798.5,408077.700000003,7102,WL,A,7.0
1,21.210000038146973,learn,38789.99996185303,Thu Mar 27 2025 10:11:56 GMT-0500 (Central Daylight Time),412092.6000000015,A,furenter,O,enter,209,1,4014.89999999851,408077.700000003,7102,WL,A,7.0
1,26.975000143051147,learn,33024.99985694885,Thu Mar 27 2025 10:11:56 GMT-0500 (Central Daylight Time),417857.5,A,s,O,s,5744,1,5764.5,412093.0,7102,WL,A,8.0
1,27.29200005531311,learn,32707.99994468689,Thu Mar 27 2025 10:11:56 GMT-0500 (Central Daylight Time),418174.200000003,A,sa,O,a,299,1,6081.20000000298,412093.0,7102,WL,A,8.0
1,27.392000198364258,learn,32607.999801635742,Thu Mar 27 2025 10:11:56 GMT-0500 (Central Daylight Time),418274.0,A,sal,O,l,79,1,6181.0,412093.0,7102,WL,A,8.0
1,27.558000087738037,learn,32441.999912261963,Thu Mar 27 2025 10:11:56 GMT-0500 (Central Daylight Time),418440.80000000447,A,salt,O,t,147,1,6347.80000000447,412093.0,7102,WL,A,8.0
1,27.808000087738037,learn,32191.999912261963,Thu Mar 27 2025 10:11:56 GMT-0500 (Central Daylight Time),418690.5,A,saltenter,O,enter,236,1,6597.5,412093.0,7102,WL,A,8.0
1,34.723000049591064,learn,25276.999950408936,Thu Mar 27 2025 10:11:56 GMT-0500 (Central Daylight Time),425605.1000000015,A,enter,O,enter,6900,1,6914.29999999702,418690.80000000447,7102,WL,A,9.0
1,35.29800009727478,learn,24701.99990272522,Thu Mar 27 2025 10:11:56 GMT-0500 (Central Daylight Time),426180.3999999985,A,enter,O,enter,570,1,574.7999999970198,425605.6000000015,7102,WL,A,10.0
1,35.67300009727478,learn,24326.99990272522,Thu Mar 27 2025 10:11:56 GMT-0500 (Central Daylight Time),426555.0,A,enter,O,enter,353,1,374.3999999985099,426180.6000000015,7102,WL,A,11.0
1,36.09000015258789,learn,23909.99984741211,Thu Mar 27 2025 10:11:56 GMT-0500 (Central Daylight Time),426972.5,A,enter,O,enter,411,1,417.1000000014901,426555.3999999985,7102,WL,A,12.0
1,36.5220000743866,learn,23477.999925613403,Thu Mar 27 2025 10:11:56 GMT-0500 (Central Daylight Time),427404.5,A,enter,O,enter,416,1,431.69999999552965,426972.80000000447,7102,WL,A,13.0
1,36.955000162124634,learn,23044.999837875366,Thu Mar 27 2025 10:11:56 GMT-0500 (Central Daylight Time),427837.30000000447,A,enter,O,enter,417,1,432.40000000596046,427404.8999999985,7102,WL,A,14.0
1,37.40500020980835,learn,22594.99979019165,Thu Mar 27 2025 10:11:56 GMT-0500 (Central Daylight Time),428287.5,A,enter,O,enter,432,1,449.8999999985099,427837.6000000015,7102,WL,A,15.0
2,1.4769999980926514,learn,58523.00000190735,Thu Mar 27 2025 10:11:56 GMT-0500 (Central Daylight Time),496660.80000000447,A,b,O,b,1472,1,1477.4000000059605,495183.3999999985,7102,WL,A,1.0
2,1.625,learn,58375.0,Thu Mar 27 2025 10:11:56 GMT-0500 (Central Daylight Time),496808.1000000015,A,bo,O,o,142,1,1624.7000000029802,495183.3999999985,7102,WL,A,1.0
2,1.815999984741211,learn,58184.00001525879,Thu Mar 27 2025 10:11:56 GMT-0500 (Central Daylight Time),496999.3999999985,A,boo,O,o,174,1,1816.0,495183.3999999985,7102,WL,A,1.0
2,2.0160000324249268,learn,57983.99996757507,Thu Mar 27 2025 10:11:56 GMT-0500 (Central Daylight Time),497199.30000000447,A,book,O,k,183,1,2015.9000000059605,495183.3999999985,7102,WL,A,1.0
2,2.2819998264312744,learn,57718.000173568726,Thu Mar 27 2025 10:11:56 GMT-0500 (Central Daylight Time),497465.8999999985,A,bookenter,O,enter,254,1,2282.5,495183.3999999985,7102,WL,A,1.0
2,2.931999921798706,learn,57068.000078201294,Thu Mar 27 2025 10:11:56 GMT-0500 (Central Daylight Time),498115.700000003,A,f,O,f,636,1,649.5,497466.200000003,7102,WL,A,2.0
2,3.0160000324249268,learn,56983.99996757507,Thu Mar 27 2025 10:11:56 GMT-0500 (Central Daylight Time),498199.0,A,fl,O,l,73,1,732.7999999970198,497466.200000003,7102,WL,A,2.0
2,3.248999834060669,learn,56751.00016593933,Thu Mar 27 2025 10:11:56 GMT-0500 (Central Daylight Time),498432.3999999985,A,flo,O,o,214,1,966.1999999955297,497466.200000003,7102,WL,A,2.0
2,3.3489999771118164,learn,56651.00002288818,Thu Mar 27 2025 10:11:56 GMT-0500 (Central Daylight Time),498532.200000003,A,flow,O,w,85,1,1066.0,497466.200000003,7102,WL,A,2.0
2,3.431999921798706,learn,56568.000078201294,Thu Mar 27 2025 10:11:56 GMT-0500 (Central Daylight Time),498615.6000000015,A,flowe,O,e,65,1,1149.3999999985099,497466.200000003,7102,WL,A,2.0
2,3.5319998264312744,learn,56468.000173568726,Thu Mar 27 2025 10:11:56 GMT-0500 (Central Daylight Time),498715.6000000015,A,flower,O,r,87,1,1249.3999999985099,497466.200000003,7102,WL,A,2.0
2,3.8989999294281006,learn,56101.0000705719,Thu Mar 27 2025 10:11:56 GMT-0500 (Central Daylight Time),499082.1000000015,A,flowerenter,O,enter,345,1,1615.8999999985099,497466.200000003,7102,WL,A,2.0
2,4.264999866485596,learn,55735.000133514404,Thu Mar 27 2025 10:11:56 GMT-0500 (Central Daylight Time),499448.6000000015,A,t,O,t,356,1,366.0,499082.6000000015,7102,WL,A,3.0
2,4.497999906539917,learn,55502.00009346008,Thu Mar 27 2025 10:11:56 GMT-0500 (Central Daylight Time),499681.80000000447,A,tr,O,r,221,1,599.2000000029802,499082.6000000015,7102,WL,A,3.0
2,4.764999866485596,learn,55235.000133514404,Thu Mar 27 2025 10:11:56 GMT-0500 (Central Daylight Time),499948.5,A,tra,O,a,259,1,865.8999999985099,499082.6000000015,7102,WL,A,3.0
2,4.947999954223633,learn,55052.00004577637,Thu Mar 27 2025 10:11:56 GMT-0500 (Central Daylight Time),500131.700000003,A,trai,O,i,169,1,1049.1000000014901,499082.6000000015,7102,WL,A,3.0
2,4.98199987411499,learn,55018.00012588501,Thu Mar 27 2025 10:11:56 GMT-0500 (Central Daylight Time),500164.8999999985,A,train,O,n,27,1,1082.2999999970198,499082.6000000015,7102,WL,A,3.0
2,5.2809998989105225,learn,54719.00010108948,Thu Mar 27 2025 10:11:56 GMT-0500 (Central Daylight Time),500464.80000000447,A,trainenter,O,enter,289,1,1382.2000000029802,499082.6000000015,7102,WL,A,3.0
2,5.832000017166138,learn,54167.99998283386,Thu Mar 27 2025 10:11:56 GMT-0500 (Central Daylight Time),501015.0,A,r,O,r,541,1,550.0,500465.0,7102,WL,A,4.0
2,5.930999994277954,learn,54069.000005722046,Thu Mar 27 2025 10:11:56 GMT-0500 (Central Daylight Time),501114.6000000015,A,ru,O,u,94,1,649.6000000014901,500465.0,7102,WL,A,4.0
2,6.180999994277954,learn,53819.000005722046,Thu Mar 27 2025 10:11:56 GMT-0500 (Central Daylight Time),501364.700000003,A,rug,O,g,236,1,899.7000000029802,500465.0,7102,WL,A,4.0
2,6.398000001907349,learn,53601.99999809265,Thu Mar 27 2025 10:11:56 GMT-0500 (Central Daylight Time),501581.30000000447,A,rugenter,O,enter,201,1,1116.3000000044703,500465.0,7102,WL,A,4.0
2,6.980999946594238,learn,53019.00005340576,Thu Mar 27 2025 10:11:56 GMT-0500 (Central Daylight Time),502164.6000000015,A,m,O,m,568,1,583.1000000014901,501581.5,7102,WL,A,5.0
2,7.063999891281128,learn,52936.00010871887,Thu Mar 27 2025 10:11:56 GMT-0500 (Central Daylight Time),502247.6000000015,A,me,O,e,73,1,666.1000000014901,501581.5,7102,WL,A,5.0
2,7.2809998989105225,learn,52719.00010108948,Thu Mar 27 2025 10:11:56 GMT-0500 (Central Daylight Time),502464.30000000447,A,mea,O,a,198,1,882.8000000044703,501581.5,7102,WL,A,5.0
2,7.497999906539917,learn,52502.00009346008,Thu Mar 27 2025 10:11:56 GMT-0500 (Central Daylight Time),502681.1000000015,A,mead,O,d,205,1,1099.6000000014901,501581.5,7102,WL,A,5.0
2,7.596999883651733,learn,52403.00011634827,Thu Mar 27 2025 10:11:56 GMT-0500 (Central Daylight Time),502780.80000000447,A,meado,O,o,92,1,1199.3000000044703,501581.5,7102,WL,A,5.0
2,7.830999851226807,learn,52169.00014877319,Thu Mar 27 2025 10:11:56 GMT-0500 (Central Daylight Time),503014.0,A,meadow,O,w,225,1,1432.5,501581.5,7102,WL,A,5.0
2,8.280999898910522,learn,51719.00010108948,Thu Mar 27 2025 10:11:56 GMT-0500 (Central Daylight Time),503464.0,A,meadowenter,O,enter,431,1,1882.5,501581.5,7102,WL,A,5.0
2,9.179999828338623,learn,50820.00017166138,Thu Mar 27 2025 10:11:56 GMT-0500 (Central Daylight Time),504363.5,A,f,O,f,893,1,899.1999999955297,503464.30000000447,7102,WL,A,6.0
2,9.27999997138977,learn,50720.00002861023,Thu Mar 27 2025 10:11:56 GMT-0500 (Central Daylight Time),504463.700000003,A,fi,O,i,82,1,999.3999999985099,503464.30000000447,7102,WL,A,6.0
2,9.36299991607666,learn,50637.00008392334,Thu Mar 27 2025 10:11:56 GMT-0500 (Central Daylight Time),504546.8999999985,A,fin,O,n,78,1,1082.5999999940395,503464.30000000447,7102,WL,A,6.0
2,9.563999891281128,learn,50436.00010871887,Thu Mar 27 2025 10:11:56 GMT-0500 (Central Daylight Time),504746.8999999985,A,fing,O,g,194,1,1282.5999999940395,503464.30000000447,7102,WL,A,6.0
2,9.77999997138977,learn,50220.00002861023,Thu Mar 27 2025 10:11:56 GMT-0500 (Central Daylight Time),504963.5,A,finge,O,e,202,1,1499.1999999955297,503464.30000000447,7102,WL,A,6.0
2,9.846999883651733,learn,50153.00011634827,Thu Mar 27 2025 10:11:56 GMT-0500 (Central Daylight Time),505030.1000000015,A,finger,O,r,59,1,1565.7999999970198,503464.30000000447,7102,WL,A,6.0
2,9.980000019073486,learn,50019.999980926514,Thu Mar 27 2025 10:11:56 GMT-0500 (Central Daylight Time),505163.5,A,fingerenter,O,enter,119,1,1699.1999999955297,503464.30000000447,7102,WL,A,6.0
2,10.61299991607666,learn,49387.00008392334,Thu Mar 27 2025 10:11:56 GMT-0500 (Central Daylight Time),505796.6000000015,A,c,O,c,619,1,632.7999999970198,505163.80000000447,7102,WL,A,7.0
2,10.662999868392944,learn,49337.000131607056,Thu Mar 27 2025 10:11:56 GMT-0500 (Central Daylight Time),505846.6000000015,A,ch,O,h,42,1,682.7999999970198,505163.80000000447,7102,WL,A,7.0
2,10.86299991607666,learn,49137.00008392334,Thu Mar 27 2025 10:11:56 GMT-0500 (Central Daylight Time),506046.6000000015,A,chi,O,i,183,1,882.7999999970198,505163.80000000447,7102,WL,A,7.0
2,11.013000011444092,learn,48986.99998855591,Thu Mar 27 2025 10:11:56 GMT-0500 (Central Daylight Time),506196.6000000015,A,chim,O,m,135,1,1032.7999999970198,505163.80000000447,7102,WL,A,7.0
2,11.379999876022339,learn,48620.00012397766,Thu Mar 27 2025 10:11:56 GMT-0500 (Central Daylight Time),506563.0,A,chimn,O,n,352,1,1399.1999999955297,505163.80000000447,7102,WL,A,7.0
2,11.595999956130981,learn,48404.00004386902,Thu Mar 27 2025 10:11:56 GMT-0500 (Central Daylight Time),506779.5,A,chimne,O,e,210,1,1615.6999999955297,505163.80000000447,7102,WL,A,7.0
2,11.745999813079834,learn,48254.000186920166,Thu Mar 27 2025 10:11:56 GMT-0500 (Central Daylight Time),506929.5,A,chimney,O,y,130,1,1765.6999999955297,505163.80000000447,7102,WL,A,7.0
2,12.145999908447266,learn,47854.000091552734,Thu Mar 27 2025 10:11:56 GMT-0500 (Central Daylight Time),507329.6000000015,A,chimneyenter,O,enter,380,1,2165.7999999970198,505163.80000000447,7102,WL,A,7.0
2,12.44599986076355,learn,47554.00013923645,Thu Mar 27 2025 10:11:56 GMT-0500 (Central Daylight Time),507629.30000000447,A,a,O,a,284,1,299.40000000596046,507329.8999999985,7102,WL,A,8.0
2,12.52899980545044,learn,47471.00019454956,Thu Mar 27 2025 10:11:56 GMT-0500 (Central Daylight Time),507712.700000003,A,ap,O,p,72,1,382.80000000447035,507329.8999999985,7102,WL,A,8.0
2,12.712999820709229,learn,47287.00017929077,Thu Mar 27 2025 10:11:56 GMT-0500 (Central Daylight Time),507895.8999999985,A,app,O,p,173,1,566.0,507329.8999999985,7102,WL,A,8.0
2,12.928999900817871,learn,47071.00009918213,Thu Mar 27 2025 10:11:56 GMT-0500 (Central Daylight Time),508112.6000000015,A,appl,O,l,205,1,782.7000000029802,507329.8999999985,7102,WL,A,8.0
2,13.044999837875366,learn,46955.000162124634,Thu Mar 27 2025 10:11:56 GMT-0500 (Central Daylight Time),508229.200000003,A,apple,O,e,101,1,899.3000000044703,507329.8999999985,7102,WL,A,8.0
2,13.578999996185303,learn,46421.0000038147,Thu Mar 27 2025 10:11:56 GMT-0500 (Central Daylight Time),508762.3999999985,A,appleenter,O,enter,519,1,1432.5,507329.8999999985,7102,WL,A,8.0
2,14.394999980926514,learn,45605.000019073486,Thu Mar 27 2025 10:11:56 GMT-0500 (Central Daylight Time),509579.200000003,A,r,O,r,796,1,816.3000000044703,508762.8999999985,7102,WL,A,9.0
2,14.477999925613403,learn,45522.0000743866,Thu Mar 27 2025 10:11:56 GMT-0500 (Central Daylight Time),509662.1000000015,A,ru,O,u,66,1,899.2000000029802,508762.8999999985,7102,WL,A,9.0
2,14.67799997329712,learn,45322.00002670288,Thu Mar 27 2025 10:11:56 GMT-0500 (Central Daylight Time),509861.8999999985,A,rug,O,g,184,1,1099.0,508762.8999999985,7102,WL,A,9.0
2,14.860999822616577,learn,45139.00017738342,Thu Mar 27 2025 10:11:56 GMT-0500 (Central Daylight Time),510045.0,A,rugenter,O,enter,167,1,1282.1000000014901,508762.8999999985,7102,WL,A,9.0
2,23.758999824523926,learn,36241.000175476074,Thu Mar 27 2025 10:11:56 GMT-0500 (Central Daylight Time),518942.6000000015,A,s,O,s,8888,1,8897.29999999702,510045.30000000447,7102,WL,A,10.0
2,23.991999864578247,learn,36008.00013542175,Thu Mar 27 2025 10:11:56 GMT-0500 (Central Daylight Time),519175.700000003,A,sa,O,a,222,1,9130.39999999851,510045.30000000447,7102,WL,A,10.0
2,24.092000007629395,learn,35907.999992370605,Thu Mar 27 2025 10:11:56 GMT-0500 (Central Daylight Time),519275.80000000447,A,sal,O,l,86,1,9230.5,510045.30000000447,7102,WL,A,10.0
2,24.258999824523926,learn,35741.000175476074,Thu Mar 27 2025 10:11:56 GMT-0500 (Central Daylight Time),519442.6000000015,A,salt,O,t,145,1,9397.29999999702,510045.30000000447,7102,WL,A,10.0
2,24.424999952316284,learn,35575.000047683716,Thu Mar 27 2025 10:11:56 GMT-0500 (Central Daylight Time),519609.0,A,saltenter,O,enter,155,1,9563.69999999553,510045.30000000447,7102,WL,A,10.0
2,27.506999969482422,learn,32493.000030517578,Thu Mar 27 2025 10:11:56 GMT-0500 (Central Daylight Time),522691.5,A,enter,O,enter,3069,1,3082.1999999955297,519609.30000000447,7102,WL,A,11.0
2,27.79099988937378,learn,32209.00011062622,Thu Mar 27 2025 10:11:56 GMT-0500 (Central Daylight Time),522974.700000003,A,enter,O,enter,266,1,282.8999999985099,522691.80000000447,7102,WL,A,12.0
2,28.073999881744385,learn,31926.000118255615,Thu Mar 27 2025 10:11:56 GMT-0500 (Central Daylight Time),523257.80000000447,A,enter,O,enter,271,1,282.80000000447035,522975.0,7102,WL,A,13.0
2,28.33999991416931,learn,31660.00008583069,Thu Mar 27 2025 10:11:56 GMT-0500 (Central Daylight Time),523524.3999999985,A,enter,O,enter,252,1,266.19999999552965,523258.200000003,7102,WL,A,14.0
2,28.806999921798706,learn,31193.000078201294,Thu Mar 27 2025 10:11:56 GMT-0500 (Central Daylight Time),523990.80000000447,A,enter,O,enter,449,1,466.1000000014901,523524.700000003,7102,WL,A,15.0
3,0.5329999923706055,learn,59467.000007629395,Thu Mar 27 2025 10:11:56 GMT-0500 (Central Daylight Time),590153.6000000015,A,l,O,l,513,1,532.8999999985099,589620.700000003,7102,WL,A,1.0
3,0.75,learn,59250.0,Thu Mar 27 2025 10:11:56 GMT-0500 (Central Daylight Time),590370.0,A,lo,O,o,195,1,749.2999999970198,589620.700000003,7102,WL,A,1.0
3,0.8500001430511475,learn,59149.99985694885,Thu Mar 27 2025 10:11:56 GMT-0500 (Central Daylight Time),590470.1000000015,A,log,O,g,83,1,849.3999999985099,589620.700000003,7102,WL,A,1.0
3,1.1449999809265137,learn,58855.000019073486,Thu Mar 27 2025 10:11:56 GMT-0500 (Central Daylight Time),590765.6000000015,A,logenter,O,enter,290,1,1144.8999999985099,589620.700000003,7102,WL,A,1.0
3,1.4830000400543213,learn,58516.99995994568,Thu Mar 27 2025 10:11:56 GMT-0500 (Central Daylight Time),591103.200000003,A,k,O,k,327,1,337.20000000298023,590766.0,7102,WL,A,2.0
3,1.6660001277923584,learn,58333.99987220764,Thu Mar 27 2025 10:11:56 GMT-0500 (Central Daylight Time),591286.6000000015,A,ke,O,e,166,1,520.6000000014901,590766.0,7102,WL,A,2.0
3,1.8489999771118164,learn,58151.00002288818,Thu Mar 27 2025 10:11:56 GMT-0500 (Central Daylight Time),591469.8000000045,A,key,O,y,175,1,703.8000000044703,590766.0,7102,WL,A,2.0
3,2.1660001277923584,learn,57833.99987220764,Thu Mar 27 2025 10:11:56 GMT-0500 (Central Daylight Time),591786.3999999985,A,keyenter,O,enter,303,1,1020.3999999985099,590766.0,7102,WL,A,2.0
3,2.5820000171661377,learn,57417.99998283386,Thu Mar 27 2025 10:11:56 GMT-0500 (Central Daylight Time),592202.8999999985,A,r,O,r,411,1,416.09999999403954,591786.8000000045,7102,WL,A,3.0
3,2.7820000648498535,learn,57217.99993515015,Thu Mar 27 2025 10:11:56 GMT-0500 (Central Daylight Time),592402.8000000045,A,ra,O,a,187,1,616.0,591786.8000000045,7102,WL,A,3.0
3,2.999000072479248,learn,57000.99992752075,Thu Mar 27 2025 10:11:56 GMT-0500 (Central Daylight Time),592619.3000000045,A,rat,O,t,210,1,832.5,591786.8000000045,7102,WL,A,3.0
3,3.182000160217285,learn,56817.999839782715,Thu Mar 27 2025 10:11:56 GMT-0500 (Central Daylight Time),592802.8999999985,A,ratt,O,t,170,1,1016.0999999940395,591786.8000000045,7102,WL,A,3.0
3,3.315999984741211,learn,56684.00001525879,Thu Mar 27 2025 10:11:56 GMT-0500 (Central Daylight Time),592936.1000000015,A,rattl,O,l,122,1,1149.2999999970198,591786.8000000045,7102,WL,A,3.0
3,3.4160001277923584,learn,56583.99987220764,Thu Mar 27 2025 10:11:56 GMT-0500 (Central Daylight Time),593036.0,A,rattle,O,e,85,1,1249.1999999955297,591786.8000000045,7102,WL,A,3.0
3,3.881999969482422,learn,56118.00003051758,Thu Mar 27 2025 10:11:56 GMT-0500 (Central Daylight Time),593502.3999999985,A,rattleg,O,g,457,1,1715.5999999940395,591786.8000000045,7102,WL,A,3.0
3,3.999000072479248,learn,56000.99992752075,Thu Mar 27 2025 10:11:56 GMT-0500 (Central Daylight Time),593619.3999999985,A,rattlego,O,o,103,1,1832.5999999940395,591786.8000000045,7102,WL,A,3.0
3,4.432000160217285,learn,55567.999839782715,Thu Mar 27 2025 10:11:56 GMT-0500 (Central Daylight Time),594052.3999999985,A,rattleg,O,backspace,426,1,2265.5999999940395,591786.8000000045,7102,WL,A,3.0
3,4.631999969482422,learn,55368.00003051758,Thu Mar 27 2025 10:11:56 GMT-0500 (Central Daylight Time),594252.3000000045,A,rattle,O,backspace,185,1,2465.5,591786.8000000045,7102,WL,A,3.0
3,5.315000057220459,learn,54684.99994277954,Thu Mar 27 2025 10:11:56 GMT-0500 (Central Daylight Time),594935.3999999985,A,rattleenter,O,enter,674,1,3148.5999999940395,591786.8000000045,7102,WL,A,3.0
3,5.680999994277954,learn,54319.000005722046,Thu Mar 27 2025 10:11:56 GMT-0500 (Central Daylight Time),595302.0,A,g,O,g,351,1,366.29999999701977,594935.700000003,7102,WL,A,4.0
3,5.781000137329102,learn,54218.9998626709,Thu Mar 27 2025 10:11:56 GMT-0500 (Central Daylight Time),595401.8999999985,A,go,O,o,87,1,466.19999999552965,594935.700000003,7102,WL,A,4.0
3,6.015000104904175,learn,53984.999895095825,Thu Mar 27 2025 10:11:56 GMT-0500 (Central Daylight Time),595635.200000003,A,gol,O,l,220,1,699.5,594935.700000003,7102,WL,A,4.0
3,6.180999994277954,learn,53819.000005722046,Thu Mar 27 2025 10:11:56 GMT-0500 (Central Daylight Time),595801.8000000045,A,gold,O,d,155,1,866.1000000014901,594935.700000003,7102,WL,A,4.0
3,6.447999954223633,learn,53552.00004577637,Thu Mar 27 2025 10:11:56 GMT-0500 (Central Daylight Time),596068.5,A,goldenter,O,enter,259,1,1132.7999999970198,594935.700000003,7102,WL,A,4.0
3,6.947999954223633,learn,53052.00004577637,Thu Mar 27 2025 10:11:56 GMT-0500 (Central Daylight Time),596568.3000000045,A,b,O,b,482,1,499.5,596068.8000000045,7102,WL,A,5.0
3,7.04800009727478,learn,52951.99990272522,Thu Mar 27 2025 10:11:56 GMT-0500 (Central Daylight Time),596668.200000003,A,bo,O,o,85,1,599.3999999985099,596068.8000000045,7102,WL,A,5.0
3,7.21399998664856,learn,52786.00001335144,Thu Mar 27 2025 10:11:56 GMT-0500 (Central Daylight Time),596834.8000000045,A,boo,O,o,161,1,766.0,596068.8000000045,7102,WL,A,5.0
3,7.414000034332275,learn,52585.999965667725,Thu Mar 27 2025 10:11:56 GMT-0500 (Central Daylight Time),597034.8999999985,A,book,O,k,180,1,966.0999999940395,596068.8000000045,7102,WL,A,5.0
3,8.263999938964844,learn,51736.000061035156,Thu Mar 27 2025 10:11:56 GMT-0500 (Central Daylight Time),597884.5,A,bookenter,O,enter,834,1,1815.6999999955297,596068.8000000045,7102,WL,A,5.0
3,8.647000074386597,learn,51352.9999256134,Thu Mar 27 2025 10:11:56 GMT-0500 (Central Daylight Time),598267.8000000045,A,f,O,f,370,1,382.90000000596046,597884.8999999985,7102,WL,A,6.0
3,8.746999979019165,learn,51253.000020980835,Thu Mar 27 2025 10:11:56 GMT-0500 (Central Daylight Time),598367.6000000015,A,fl,O,l,91,1,482.70000000298023,597884.8999999985,7102,WL,A,6.0
3,8.980000019073486,learn,51019.999980926514,Thu Mar 27 2025 10:11:56 GMT-0500 (Central Daylight Time),598600.8999999985,A,flo,O,o,222,1,716.0,597884.8999999985,7102,WL,A,6.0
3,9.097000122070312,learn,50902.99987792969,Thu Mar 27 2025 10:11:56 GMT-0500 (Central Daylight Time),598717.5,A,flow,O,w,100,1,832.6000000014901,597884.8999999985,7102,WL,A,6.0
3,9.147000074386597,learn,50852.9999256134,Thu Mar 27 2025 10:11:56 GMT-0500 (Central Daylight Time),598767.6000000015,A,flowe,O,e,40,1,882.7000000029802,597884.8999999985,7102,WL,A,6.0
3,9.246999979019165,learn,50753.000020980835,Thu Mar 27 2025 10:11:56 GMT-0500 (Central Daylight Time),598867.200000003,A,flower,O,r,94,1,982.3000000044703,597884.8999999985,7102,WL,A,6.0
3,10.062999963760376,learn,49937.000036239624,Thu Mar 27 2025 10:11:56 GMT-0500 (Central Daylight Time),599683.8000000045,A,flowe,O,backspace,803,1,1798.9000000059605,597884.8999999985,7102,WL,A,6.0
3,10.380000114440918,learn,49619.99988555908,Thu Mar 27 2025 10:11:56 GMT-0500 (Central Daylight Time),600000.6000000015,A,floweenter,O,enter,297,1,2115.7000000029802,597884.8999999985,7102,WL,A,6.0
3,12.562999963760376,learn,47437.000036239624,Thu Mar 27 2025 10:11:56 GMT-0500 (Central Daylight Time),602183.200000003,A,m,O,m,2173,1,2182.3000000044703,600000.8999999985,7102,WL,A,7.0
3,12.713000059127808,learn,47286.99994087219,Thu Mar 27 2025 10:11:56 GMT-0500 (Central Daylight Time),602333.200000003,A,me,O,e,142,1,2332.3000000044703,600000.8999999985,7102,WL,A,7.0
3,12.911999940872192,learn,47088.00005912781,Thu Mar 27 2025 10:11:56 GMT-0500 (Central Daylight Time),602533.0,A,mea,O,a,192,1,2532.10000000149,600000.8999999985,7102,WL,A,7.0
3,13.161999940872192,learn,46838.00005912781,Thu Mar 27 2025 10:11:56 GMT-0500 (Central Daylight Time),602782.8999999985,A,mead,O,d,241,1,2782.0,600000.8999999985,7102,WL,A,7.0
3,13.279000043869019,learn,46720.99995613098,Thu Mar 27 2025 10:11:56 GMT-0500 (Central Daylight Time),602899.3999999985,A,meado,O,o,111,1,2898.5,600000.8999999985,7102,WL,A,7.0
3,13.446000099182129,learn,46553.99990081787,Thu Mar 27 2025 10:11:56 GMT-0500 (Central Daylight Time),603066.1000000015,A,meadow,O,w,146,1,3065.2000000029802,600000.8999999985,7102,WL,A,7.0
3,13.746000051498413,learn,46253.99994850159,Thu Mar 27 2025 10:11:56 GMT-0500 (Central Daylight Time),603366.0,A,meadowenter,O,enter,291,1,3365.10000000149,600000.8999999985,7102,WL,A,7.0
3,14.42900013923645,learn,45570.99986076355,Thu Mar 27 2025 10:11:56 GMT-0500 (Central Daylight Time),604049.3000000045,A,g,O,g,663,1,682.9000000059605,603366.3999999985,7102,WL,A,8.0
3,14.495000123977661,learn,45504.99987602234,Thu Mar 27 2025 10:11:56 GMT-0500 (Central Daylight Time),604115.8999999985,A,go,O,o,53,1,749.5,603366.3999999985,7102,WL,A,8.0
3,14.712000131607056,learn,45287.999868392944,Thu Mar 27 2025 10:11:56 GMT-0500 (Central Daylight Time),604332.3999999985,A,gol,O,l,210,1,966.0,603366.3999999985,7102,WL,A,8.0
3,14.828999996185303,learn,45171.0000038147,Thu Mar 27 2025 10:11:56 GMT-0500 (Central Daylight Time),604449.0,A,gold,O,d,105,1,1082.6000000014901,603366.3999999985,7102,WL,A,8.0
3,15.361999988555908,learn,44638.00001144409,Thu Mar 27 2025 10:11:56 GMT-0500 (Central Daylight Time),604982.3000000045,A,goldenter,O,enter,516,1,1615.9000000059605,603366.3999999985,7102,WL,A,8.0
3,16.41100001335144,learn,43588.99998664856,Thu Mar 27 2025 10:11:56 GMT-0500 (Central Daylight Time),606031.8000000045,A,r,O,r,1031,1,1049.1000000014901,604982.700000003,7102,WL,A,9.0
3,16.545000076293945,learn,43454.999923706055,Thu Mar 27 2025 10:11:56 GMT-0500 (Central Daylight Time),606165.3000000045,A,ru,O,u,117,1,1182.6000000014901,604982.700000003,7102,WL,A,9.0
3,16.74500012397766,learn,43254.99987602234,Thu Mar 27 2025 10:11:56 GMT-0500 (Central Daylight Time),606365.200000003,A,rug,O,g,184,1,1382.5,604982.700000003,7102,WL,A,9.0
3,16.92799997329712,learn,43072.00002670288,Thu Mar 27 2025 10:11:56 GMT-0500 (Central Daylight Time),606548.5,A,rugenter,O,enter,176,1,1565.7999999970198,604982.700000003,7102,WL,A,9.0
3,17.57800006866455,learn,42421.99993133545,Thu Mar 27 2025 10:11:56 GMT-0500 (Central Daylight Time),607198.3000000045,A,f,O,f,633,1,649.5,606548.8000000045,7102,WL,A,10.0
3,17.67799997329712,learn,42322.00002670288,Thu Mar 27 2025 10:11:56 GMT-0500 (Central Daylight Time),607298.3000000045,A,fi,O,i,79,1,749.5,606548.8000000045,7102,WL,A,10.0
3,17.74399995803833,learn,42256.00004196167,Thu Mar 27 2025 10:11:56 GMT-0500 (Central Daylight Time),607364.700000003,A,fin,O,n,52,1,815.8999999985099,606548.8000000045,7102,WL,A,10.0
3,18.07800006866455,learn,41921.99993133545,Thu Mar 27 2025 10:11:56 GMT-0500 (Central Daylight Time),607698.1000000015,A,fing,O,g,314,1,1149.2999999970198,606548.8000000045,7102,WL,A,10.0
3,18.294000148773193,learn,41705.99985122681,Thu Mar 27 2025 10:11:56 GMT-0500 (Central Daylight Time),607914.8999999985,A,finge,O,e,212,1,1366.0999999940395,606548.8000000045,7102,WL,A,10.0
3,18.377000093460083,learn,41622.99990653992,Thu Mar 27 2025 10:11:56 GMT-0500 (Central Daylight Time),607997.8000000045,A,finger,O,r,74,1,1449.0,606548.8000000045,7102,WL,A,10.0
3,18.5770001411438,learn,41422.9998588562,Thu Mar 27 2025 10:11:56 GMT-0500 (Central Daylight Time),608197.8999999985,A,fingerenter,O,enter,184,1,1649.0999999940395,606548.8000000045,7102,WL,A,10.0
3,19.361000061035156,learn,40638.999938964844,Thu Mar 27 2025 10:11:56 GMT-0500 (Central Daylight Time),608981.0,A,h,O,h,776,1,782.7999999970198,608198.200000003,7102,WL,A,11.0
3,19.47699999809265,learn,40523.00000190735,Thu Mar 27 2025 10:11:56 GMT-0500 (Central Daylight Time),609097.700000003,A,ha,O,a,96,1,899.5,608198.200000003,7102,WL,A,11.0
3,19.5770001411438,learn,40422.9998588562,Thu Mar 27 2025 10:11:56 GMT-0500 (Central Daylight Time),609197.6000000015,A,har,O,r,92,1,999.3999999985099,608198.200000003,7102,WL,A,11.0
3,19.91000008583069,learn,40089.99991416931,Thu Mar 27 2025 10:11:56 GMT-0500 (Central Daylight Time),609530.8000000045,A,harp,O,p,313,1,1332.6000000014901,608198.200000003,7102,WL,A,11.0
3,20.776999950408936,learn,39223.000049591064,Thu Mar 27 2025 10:11:56 GMT-0500 (Central Daylight Time),610397.200000003,A,harpenter,O,enter,858,1,2199.0,608198.200000003,7102,WL,A,11.0
3,21.278000116348267,learn,38721.99988365173,Thu Mar 27 2025 10:11:56 GMT-0500 (Central Daylight Time),610898.3000000045,A,a,O,a,489,1,500.70000000298023,610397.6000000015,7102,WL,A,12.0
3,21.30999994277954,learn,38690.00005722046,Thu Mar 27 2025 10:11:56 GMT-0500 (Central Daylight Time),610930.3999999985,A,ap,O,p,20,1,532.7999999970198,610397.6000000015,7102,WL,A,12.0
3,21.55999994277954,learn,38440.00005722046,Thu Mar 27 2025 10:11:56 GMT-0500 (Central Daylight Time),611180.3000000045,A,app,O,p,244,1,782.7000000029802,610397.6000000015,7102,WL,A,12.0
3,21.825999975204468,learn,38174.00002479553,Thu Mar 27 2025 10:11:56 GMT-0500 (Central Daylight Time),611446.8999999985,A,appl,O,l,250,1,1049.2999999970198,610397.6000000015,7102,WL,A,12.0
3,21.926000118255615,learn,38073.999881744385,Thu Mar 27 2025 10:11:56 GMT-0500 (Central Daylight Time),611546.8000000045,A,apple,O,e,94,1,1149.2000000029802,610397.6000000015,7102,WL,A,12.0
3,22.193000078201294,learn,37806.999921798706,Thu Mar 27 2025 10:11:56 GMT-0500 (Central Daylight Time),611813.3999999985,A,appleenter,O,enter,259,1,1415.7999999970198,610397.6000000015,7102,WL,A,12.0
3,25.04200005531311,learn,34957.99994468689,Thu Mar 27 2025 10:11:56 GMT-0500 (Central Daylight Time),614662.700000003,A,c,O,c,2832,1,2848.89999999851,611813.8000000045,7102,WL,A,13.0
3,25.125,learn,34875.0,Thu Mar 27 2025 10:11:56 GMT-0500 (Central Daylight Time),614745.5,A,ch,O,h,70,1,2931.6999999955297,611813.8000000045,7102,WL,A,13.0
3,25.29200005531311,learn,34707.99994468689,Thu Mar 27 2025 10:11:56 GMT-0500 (Central Daylight Time),614912.3000000045,A,chi,O,i,156,1,3098.5,611813.8000000045,7102,WL,A,13.0
3,25.492000102996826,learn,34507.999897003174,Thu Mar 27 2025 10:11:56 GMT-0500 (Central Daylight Time),615112.200000003,A,chim,O,m,189,1,3298.39999999851,611813.8000000045,7102,WL,A,13.0
3,25.924999952316284,learn,34075.000047683716,Thu Mar 27 2025 10:11:56 GMT-0500 (Central Daylight Time),615545.3999999985,A,chimn,O,n,413,1,3731.5999999940395,611813.8000000045,7102,WL,A,13.0
3,26.225000143051147,learn,33774.99985694885,Thu Mar 27 2025 10:11:56 GMT-0500 (Central Daylight Time),615845.1000000015,A,chimne,O,e,284,1,4031.2999999970198,611813.8000000045,7102,WL,A,13.0
3,26.407999992370605,learn,33592.000007629395,Thu Mar 27 2025 10:11:56 GMT-0500 (Central Daylight Time),616028.3999999985,A,chimney,O,y,167,1,4214.5999999940395,611813.8000000045,7102,WL,A,13.0
3,26.70799994468689,learn,33292.00005531311,Thu Mar 27 2025 10:11:56 GMT-0500 (Central Daylight Time),616328.3999999985,A,chimneyenter,O,enter,281,1,4514.5999999940395,611813.8000000045,7102,WL,A,13.0
3,31.557000160217285,learn,28442.999839782715,Thu Mar 27 2025 10:11:56 GMT-0500 (Central Daylight Time),621177.200000003,A,f,O,f,4837,1,4848.60000000149,616328.6000000015,7102,WL,A,14.0
3,31.657000064849854,learn,28342.999935150146,Thu Mar 27 2025 10:11:56 GMT-0500 (Central Daylight Time),621277.1000000015,A,fu,O,u,85,1,4948.5,616328.6000000015,7102,WL,A,14.0
3,31.94000005722046,learn,28059.99994277954,Thu Mar 27 2025 10:11:56 GMT-0500 (Central Daylight Time),621560.5,A,fur,O,r,264,1,5231.89999999851,616328.6000000015,7102,WL,A,14.0
3,32.15700006484985,learn,27842.999935150146,Thu Mar 27 2025 10:11:56 GMT-0500 (Central Daylight Time),621777.0,A,furenter,O,enter,205,1,5448.39999999851,616328.6000000015,7102,WL,A,14.0
3,38.15499997138977,learn,21845.00002861023,Thu Mar 27 2025 10:11:56 GMT-0500 (Central Daylight Time),627775.200000003,A,enter,O,enter,5981,1,5998.0,621777.200000003,7102,WL,A,15.0
4,0.7159998416900635,learn,59284.00015830994,Thu Mar 27 2025 10:11:56 GMT-0500 (Central Daylight Time),695520.8000000045,A,b,O,b,707,1,716.5,694804.3000000045,7102,WL,A,1.0
4,0.8829998970031738,learn,59117.000102996826,Thu Mar 27 2025 10:11:56 GMT-0500 (Central Daylight Time),695687.3000000045,A,bu,O,u,157,1,883.0,694804.3000000045,7102,WL,A,1.0
4,1.1159999370574951,learn,58884.000062942505,Thu Mar 27 2025 10:11:56 GMT-0500 (Central Daylight Time),695920.5,A,but,O,t,222,1,1116.1999999955297,694804.3000000045,7102,WL,A,1.0
4,1.2990000247955322,learn,58700.99997520447,Thu Mar 27 2025 10:11:56 GMT-0500 (Central Daylight Time),696103.6000000015,A,butt,O,t,173,1,1299.2999999970198,694804.3000000045,7102,WL,A,1.0
4,1.432999849319458,learn,58567.00015068054,Thu Mar 27 2025 10:11:56 GMT-0500 (Central Daylight Time),696237.1000000015,A,butto,O,o,118,1,1432.7999999970198,694804.3000000045,7102,WL,A,1.0
4,1.5329999923706055,learn,58467.000007629395,Thu Mar 27 2025 10:11:56 GMT-0500 (Central Daylight Time),696337.1000000015,A,button,O,n,88,1,1532.7999999970198,694804.3000000045,7102,WL,A,1.0
4,1.8320000171661377,learn,58167.99998283386,Thu Mar 27 2025 10:11:56 GMT-0500 (Central Daylight Time),696636.8999999985,A,buttonenter,O,enter,293,1,1832.5999999940395,694804.3000000045,7102,WL,A,1.0
4,2.381999969482422,learn,57618.00003051758,Thu Mar 27 2025 10:11:56 GMT-0500 (Central Daylight Time),697186.6000000015,A,s,O,s,536,1,549.3999999985099,696637.200000003,7102,WL,A,2.0
4,2.615999937057495,learn,57384.000062942505,Thu Mar 27 2025 10:11:56 GMT-0500 (Central Daylight Time),697420.0,A,sa,O,a,227,1,782.7999999970198,696637.200000003,7102,WL,A,2.0
4,2.7149999141693115,learn,57285.00008583069,Thu Mar 27 2025 10:11:56 GMT-0500 (Central Daylight Time),697520.0,A,sal,O,l,81,1,882.7999999970198,696637.200000003,7102,WL,A,2.0
4,2.9149999618530273,learn,57085.00003814697,Thu Mar 27 2025 10:11:56 GMT-0500 (Central Daylight Time),697719.8000000045,A,salt,O,t,182,1,1082.6000000014901,696637.200000003,7102,WL,A,2.0
4,3.4149999618530273,learn,56585.00003814697,Thu Mar 27 2025 10:11:56 GMT-0500 (Central Daylight Time),698219.700000003,A,saltenter,O,enter,487,1,1582.5,696637.200000003,7102,WL,A,2.0
4,3.7820000648498535,learn,56217.99993515015,Thu Mar 27 2025 10:11:56 GMT-0500 (Central Daylight Time),698586.3000000045,A,k,O,k,345,1,366.30000000447035,698220.0,7102,WL,A,3.0
4,3.9149999618530273,learn,56085.00003814697,Thu Mar 27 2025 10:11:56 GMT-0500 (Central Daylight Time),698719.1000000015,A,ke,O,e,123,1,499.1000000014901,698220.0,7102,WL,A,3.0
4,4.082000017166138,learn,55917.99998283386,Thu Mar 27 2025 10:11:56 GMT-0500 (Central Daylight Time),698886.200000003,A,key,O,y,158,1,666.2000000029802,698220.0,7102,WL,A,3.0
4,5.065000057220459,learn,54934.99994277954,Thu Mar 27 2025 10:11:56 GMT-0500 (Central Daylight Time),699869.200000003,A,keyenter,O,enter,968,1,1649.2000000029802,698220.0,7102,WL,A,3.0
4,5.430999994277954,learn,54569.000005722046,Thu Mar 27 2025 10:11:56 GMT-0500 (Central Daylight Time),700235.8000000045,A,r,O,r,352,1,366.1000000014901,699869.700000003,7102,WL,A,4.0
4,5.63100004196167,learn,54368.99995803833,Thu Mar 27 2025 10:11:56 GMT-0500 (Central Daylight Time),700435.3999999985,A,ra,O,a,193,1,565.6999999955297,699869.700000003,7102,WL,A,4.0
4,5.863999843597412,learn,54136.00015640259,Thu Mar 27 2025 10:11:56 GMT-0500 (Central Daylight Time),700669.0,A,rat,O,t,226,1,799.2999999970198,699869.700000003,7102,WL,A,4.0
4,6.063999891281128,learn,53936.00010871887,Thu Mar 27 2025 10:11:56 GMT-0500 (Central Daylight Time),700868.8000000045,A,ratt,O,t,185,1,999.1000000014901,699869.700000003,7102,WL,A,4.0
4,6.21399998664856,learn,53786.00001335144,Thu Mar 27 2025 10:11:56 GMT-0500 (Central Daylight Time),701018.8000000045,A,rattl,O,l,145,1,1149.1000000014901,699869.700000003,7102,WL,A,4.0
4,6.3480000495910645,learn,53651.999950408936,Thu Mar 27 2025 10:11:56 GMT-0500 (Central Daylight Time),701152.1000000015,A,rattle,O,e,123,1,1282.3999999985099,699869.700000003,7102,WL,A,4.0
4,6.664000034332275,learn,53335.999965667725,Thu Mar 27 2025 10:11:56 GMT-0500 (Central Daylight Time),701468.8000000045,A,rattleenter,O,enter,310,1,1599.1000000014901,699869.700000003,7102,WL,A,4.0
4,7.080999851226807,learn,52919.00014877319,Thu Mar 27 2025 10:11:56 GMT-0500 (Central Daylight Time),701885.3000000045,A,g,O,g,401,1,416.1000000014901,701469.200000003,7102,WL,A,5.0
4,7.230999946594238,learn,52769.00005340576,Thu Mar 27 2025 10:11:56 GMT-0500 (Central Daylight Time),702035.1000000015,A,go,O,o,137,1,565.8999999985099,701469.200000003,7102,WL,A,5.0
4,7.513999938964844,learn,52486.000061035156,Thu Mar 27 2025 10:11:56 GMT-0500 (Central Daylight Time),702318.3999999985,A,gol,O,l,275,1,849.1999999955297,701469.200000003,7102,WL,A,5.0
4,7.746999979019165,learn,52253.000020980835,Thu Mar 27 2025 10:11:56 GMT-0500 (Central Daylight Time),702551.700000003,A,gold,O,d,224,1,1082.5,701469.200000003,7102,WL,A,5.0
4,8.398000001907349,learn,51601.99999809265,Thu Mar 27 2025 10:11:56 GMT-0500 (Central Daylight Time),703202.700000003,A,goldenter,O,enter,630,1,1733.5,701469.200000003,7102,WL,A,5.0
4,9.230000019073486,learn,50769.999980926514,Thu Mar 27 2025 10:11:56 GMT-0500 (Central Daylight Time),704034.8000000045,A,b,O,b,819,1,831.9000000059605,703202.8999999985,7102,WL,A,6.0
4,9.329999923706055,learn,50670.000076293945,Thu Mar 27 2025 10:11:56 GMT-0500 (Central Daylight Time),704134.3999999985,A,bo,O,o,82,1,931.5,703202.8999999985,7102,WL,A,6.0
4,9.496999979019165,learn,50503.000020980835,Thu Mar 27 2025 10:11:56 GMT-0500 (Central Daylight Time),704301.1000000015,A,boo,O,o,159,1,1098.2000000029802,703202.8999999985,7102,WL,A,6.0
4,9.680000066757202,learn,50319.9999332428,Thu Mar 27 2025 10:11:56 GMT-0500 (Central Daylight Time),704484.5,A,book,O,k,176,1,1281.6000000014901,703202.8999999985,7102,WL,A,6.0
4,10.463000059127808,learn,49536.99994087219,Thu Mar 27 2025 10:11:56 GMT-0500 (Central Daylight Time),705267.5,A,boo,O,backspace,770,1,2064.60000000149,703202.8999999985,7102,WL,A,6.0
4,10.746000051498413,learn,49253.99994850159,Thu Mar 27 2025 10:11:56 GMT-0500 (Central Daylight Time),705550.700000003,A,booenter,O,enter,273,1,2347.8000000044703,703202.8999999985,7102,WL,A,6.0
4,11.812999963760376,learn,48187.000036239624,Thu Mar 27 2025 10:11:56 GMT-0500 (Central Daylight Time),706617.0,A,f,O,f,1047,1,1065.7999999970198,705551.200000003,7102,WL,A,7.0
4,11.861999988555908,learn,48138.00001144409,Thu Mar 27 2025 10:11:56 GMT-0500 (Central Daylight Time),706667.0,A,fl,O,l,29,1,1115.7999999970198,705551.200000003,7102,WL,A,7.0
4,12.062999963760376,learn,47937.000036239624,Thu Mar 27 2025 10:11:56 GMT-0500 (Central Daylight Time),706867.0,A,flo,O,o,187,1,1315.7999999970198,705551.200000003,7102,WL,A,7.0
4,12.11299991607666,learn,47887.00008392334,Thu Mar 27 2025 10:11:56 GMT-0500 (Central Daylight Time),706917.0,A,flow,O,w,42,1,1365.7999999970198,705551.200000003,7102,WL,A,7.0
4,12.19599986076355,learn,47804.00013923645,Thu Mar 27 2025 10:11:56 GMT-0500 (Central Daylight Time),707000.3000000045,A,flowe,O,e,72,1,1449.1000000014901,705551.200000003,7102,WL,A,7.0
4,12.279000043869019,learn,47720.99995613098,Thu Mar 27 2025 10:11:56 GMT-0500 (Central Daylight Time),707083.3999999985,A,flower,O,r,77,1,1532.1999999955297,705551.200000003,7102,WL,A,7.0
4,12.546000003814697,learn,47453.9999961853,Thu Mar 27 2025 10:11:56 GMT-0500 (Central Daylight Time),707350.200000003,A,flowerenter,O,enter,251,1,1799.0,705551.200000003,7102,WL,A,7.0
4,13.09500002861023,learn,46904.99997138977,Thu Mar 27 2025 10:11:56 GMT-0500 (Central Daylight Time),707899.8999999985,A,c,O,c,543,1,549.3999999985099,707350.5,7102,WL,A,8.0
4,13.161999940872192,learn,46838.00005912781,Thu Mar 27 2025 10:11:56 GMT-0500 (Central Daylight Time),707966.700000003,A,ch,O,h,58,1,616.2000000029802,707350.5,7102,WL,A,8.0
4,13.428999900817871,learn,46571.00009918213,Thu Mar 27 2025 10:11:56 GMT-0500 (Central Daylight Time),708233.3999999985,A,chi,O,i,255,1,882.8999999985099,707350.5,7102,WL,A,8.0
4,13.690999984741211,learn,46309.00001525879,Thu Mar 27 2025 10:11:56 GMT-0500 (Central Daylight Time),708495.1000000015,A,chim,O,m,257,1,1144.6000000014901,707350.5,7102,WL,A,8.0
4,14.477999925613403,learn,45522.0000743866,Thu Mar 27 2025 10:11:56 GMT-0500 (Central Daylight Time),709282.8999999985,A,chimn,O,n,783,1,1932.3999999985099,707350.5,7102,WL,A,8.0
4,14.661999940872192,learn,45338.00005912781,Thu Mar 27 2025 10:11:56 GMT-0500 (Central Daylight Time),709466.3999999985,A,chimne,O,e,163,1,2115.89999999851,707350.5,7102,WL,A,8.0
4,14.795000076293945,learn,45204.999923706055,Thu Mar 27 2025 10:11:56 GMT-0500 (Central Daylight Time),709599.6000000015,A,chimney,O,y,116,1,2249.10000000149,707350.5,7102,WL,A,8.0
4,15.062000036239624,learn,44937.999963760376,Thu Mar 27 2025 10:11:56 GMT-0500 (Central Daylight Time),709866.200000003,A,chimneyenter,O,enter,246,1,2515.7000000029802,707350.5,7102,WL,A,8.0
4,15.477999925613403,learn,44522.0000743866,Thu Mar 27 2025 10:11:56 GMT-0500 (Central Daylight Time),710282.8999999985,A,s,O,s,396,1,416.29999999701977,709866.6000000015,7102,WL,A,9.0
4,15.744999885559082,learn,44255.00011444092,Thu Mar 27 2025 10:11:56 GMT-0500 (Central Daylight Time),710549.3000000045,A,sa,O,a,250,1,682.7000000029802,709866.6000000015,7102,WL,A,9.0
4,15.810999870300293,learn,44189.00012969971,Thu Mar 27 2025 10:11:56 GMT-0500 (Central Daylight Time),710615.8000000045,A,sal,O,l,57,1,749.2000000029802,709866.6000000015,7102,WL,A,9.0
4,15.994999885559082,learn,44005.00011444092,Thu Mar 27 2025 10:11:56 GMT-0500 (Central Daylight Time),710799.1000000015,A,salt,O,t,166,1,932.5,709866.6000000015,7102,WL,A,9.0
4,16.861000061035156,learn,43138.999938964844,Thu Mar 27 2025 10:11:56 GMT-0500 (Central Daylight Time),711665.5,A,saltf,O,f,854,1,1798.8999999985099,709866.6000000015,7102,WL,A,9.0
4,16.977999925613403,learn,43022.0000743866,Thu Mar 27 2025 10:11:56 GMT-0500 (Central Daylight Time),711782.1000000015,A,saltfi,O,i,109,1,1915.5,709866.6000000015,7102,WL,A,9.0
4,17.07800006866455,learn,42921.99993133545,Thu Mar 27 2025 10:11:56 GMT-0500 (Central Daylight Time),711882.1000000015,A,saltfin,O,n,79,1,2015.5,709866.6000000015,7102,WL,A,9.0
4,17.51099991798401,learn,42489.00008201599,Thu Mar 27 2025 10:11:56 GMT-0500 (Central Daylight Time),712315.1000000015,A,saltfi,O,backspace,427,1,2448.5,709866.6000000015,7102,WL,A,9.0
4,17.91100001335144,learn,42088.99998664856,Thu Mar 27 2025 10:11:56 GMT-0500 (Central Daylight Time),712715.200000003,A,saltf,O,backspace,395,1,2848.60000000149,709866.6000000015,7102,WL,A,9.0
4,18.793999910354614,learn,41206.000089645386,Thu Mar 27 2025 10:11:56 GMT-0500 (Central Daylight Time),713598.200000003,A,salt,O,backspace,867,1,3731.60000000149,709866.6000000015,7102,WL,A,9.0
4,19.460000038146973,learn,40539.99996185303,Thu Mar 27 2025 10:11:56 GMT-0500 (Central Daylight Time),714264.5,A,saltenter,O,enter,655,1,4397.89999999851,709866.6000000015,7102,WL,A,9.0
4,20.060999870300293,learn,39939.00012969971,Thu Mar 27 2025 10:11:56 GMT-0500 (Central Daylight Time),714865.1000000015,A,f,O,f,582,1,600.2999999970198,714264.8000000045,7102,WL,A,10.0
4,20.15999984741211,learn,39840.00015258789,Thu Mar 27 2025 10:11:56 GMT-0500 (Central Daylight Time),714964.700000003,A,fi,O,i,85,1,699.8999999985099,714264.8000000045,7102,WL,A,10.0
4,20.22699999809265,learn,39773.00000190735,Thu Mar 27 2025 10:11:56 GMT-0500 (Central Daylight Time),715031.1000000015,A,fin,O,n,56,1,766.2999999970198,714264.8000000045,7102,WL,A,10.0
4,20.4760000705719,learn,39523.9999294281,Thu Mar 27 2025 10:11:56 GMT-0500 (Central Daylight Time),715280.700000003,A,fing,O,g,230,1,1015.8999999985099,714264.8000000045,7102,WL,A,10.0
4,20.693000078201294,learn,39306.999921798706,Thu Mar 27 2025 10:11:56 GMT-0500 (Central Daylight Time),715497.6000000015,A,finge,O,e,205,1,1232.7999999970198,714264.8000000045,7102,WL,A,10.0
4,20.759999990463257,learn,39240.00000953674,Thu Mar 27 2025 10:11:56 GMT-0500 (Central Daylight Time),715564.3000000045,A,finger,O,r,52,1,1299.5,714264.8000000045,7102,WL,A,10.0
4,21.493000030517578,learn,38506.99996948242,Thu Mar 27 2025 10:11:56 GMT-0500 (Central Daylight Time),716297.5,A,fingerenter,O,enter,722,1,2032.6999999955297,714264.8000000045,7102,WL,A,10.0
4,22.325999975204468,learn,37674.00002479553,Thu Mar 27 2025 10:11:56 GMT-0500 (Central Daylight Time),717130.6000000015,A,r,O,r,821,1,832.7000000029802,716297.8999999985,7102,WL,A,11.0
4,22.425999879837036,learn,37574.000120162964,Thu Mar 27 2025 10:11:56 GMT-0500 (Central Daylight Time),717230.3999999985,A,ru,O,u,83,1,932.5,716297.8999999985,7102,WL,A,11.0
4,22.759000062942505,learn,37240.999937057495,Thu Mar 27 2025 10:11:56 GMT-0500 (Central Daylight Time),717563.8000000045,A,rug,O,g,320,1,1265.9000000059605,716297.8999999985,7102,WL,A,11.0
4,23.191999912261963,learn,36808.00008773804,Thu Mar 27 2025 10:11:56 GMT-0500 (Central Daylight Time),717996.8000000045,A,rugenter,O,enter,426,1,1698.9000000059605,716297.8999999985,7102,WL,A,11.0
4,24.70899987220764,learn,35291.00012779236,Thu Mar 27 2025 10:11:56 GMT-0500 (Central Daylight Time),719513.1000000015,A,a,O,a,1497,1,1516.0,717997.1000000015,7102,WL,A,12.0
4,24.807999849319458,learn,35192.00015068054,Thu Mar 27 2025 10:11:56 GMT-0500 (Central Daylight Time),719612.8999999985,A,ap,O,p,85,1,1615.7999999970198,717997.1000000015,7102,WL,A,12.0
4,25.009000062942505,learn,34990.999937057495,Thu Mar 27 2025 10:11:56 GMT-0500 (Central Daylight Time),719813.0,A,app,O,p,185,1,1815.8999999985099,717997.1000000015,7102,WL,A,12.0
4,25.20799994468689,learn,34792.00005531311,Thu Mar 27 2025 10:11:56 GMT-0500 (Central Daylight Time),720012.8000000045,A,appl,O,l,192,1,2015.7000000029802,717997.1000000015,7102,WL,A,12.0
4,25.307999849319458,learn,34692.00015068054,Thu Mar 27 2025 10:11:56 GMT-0500 (Central Daylight Time),720112.8999999985,A,apple,O,e,90,1,2115.7999999970198,717997.1000000015,7102,WL,A,12.0
4,25.70799994468689,learn,34292.00005531311,Thu Mar 27 2025 10:11:56 GMT-0500 (Central Daylight Time),720512.8000000045,A,appleenter,O,enter,381,1,2515.7000000029802,717997.1000000015,7102,WL,A,12.0
4,28.44099998474121,learn,31559.00001525879,Thu Mar 27 2025 10:11:56 GMT-0500 (Central Daylight Time),723245.5,A,l,O,l,2725,1,2732.39999999851,720513.1000000015,7102,WL,A,13.0
4,28.641000032424927,learn,31358.999967575073,Thu Mar 27 2025 10:11:56 GMT-0500 (Central Daylight Time),723445.200000003,A,lo,O,o,184,1,2932.10000000149,720513.1000000015,7102,WL,A,13.0
4,28.757999897003174,learn,31242.000102996826,Thu Mar 27 2025 10:11:56 GMT-0500 (Central Daylight Time),723562.0,A,log,O,g,96,1,3048.89999999851,720513.1000000015,7102,WL,A,13.0
4,29.056999921798706,learn,30943.000078201294,Thu Mar 27 2025 10:11:56 GMT-0500 (Central Daylight Time),723861.6000000015,A,logenter,O,enter,292,1,3348.5,720513.1000000015,7102,WL,A,13.0
4,32.44000005722046,learn,27559.99994277954,Thu Mar 27 2025 10:11:56 GMT-0500 (Central Daylight Time),727244.1000000015,A,enter,O,enter,3369,1,3382.2000000029802,723861.8999999985,7102,WL,A,14.0
4,33.02300000190735,learn,26976.99999809265,Thu Mar 27 2025 10:11:56 GMT-0500 (Central Daylight Time),727827.200000003,A,enter,O,enter,569,1,582.8999999985099,727244.3000000045,7102,WL,A,15.0
5,1.0169999599456787,learn,60000.0,Thu Mar 27 2025 10:11:56 GMT-0500 (Central Daylight Time),795089.700000003,A,c,O,c,997,1,1016.5,794073.200000003,7102,WL,A,1.0
5,1.0500001907348633,learn,60000.0,Thu Mar 27 2025 10:11:56 GMT-0500 (Central Daylight Time),795122.8000000045,A,ch,O,h,19,1,1049.6000000014901,794073.200000003,7102,WL,A,1.0
5,1.315999984741211,learn,60000.0,Thu Mar 27 2025 10:11:56 GMT-0500 (Central Daylight Time),795389.3999999985,A,chi,O,i,260,1,1316.1999999955297,794073.200000003,7102,WL,A,1.0
5,1.5329999923706055,learn,60000.0,Thu Mar 27 2025 10:11:56 GMT-0500 (Central Daylight Time),795605.8000000045,A,chim,O,m,209,1,1532.6000000014901,794073.200000003,7102,WL,A,1.0
5,2.2160000801086426,learn,60000.0,Thu Mar 27 2025 10:11:56 GMT-0500 (Central Daylight Time),796289.0,A,chimn,O,n,665,1,2215.7999999970198,794073.200000003,7102,WL,A,1.0
5,2.4160001277923584,learn,60000.0,Thu Mar 27 2025 10:11:56 GMT-0500 (Central Daylight Time),796488.700000003,A,chimne,O,e,188,1,2415.5,794073.200000003,7102,WL,A,1.0
5,2.5329999923706055,learn,60000.0,Thu Mar 27 2025 10:11:56 GMT-0500 (Central Daylight Time),796605.5,A,chimney,O,y,108,1,2532.2999999970198,794073.200000003,7102,WL,A,1.0
5,2.866000175476074,learn,60000.0,Thu Mar 27 2025 10:11:56 GMT-0500 (Central Daylight Time),796938.8000000045,A,chimneyenter,O,enter,313,1,2865.60000000149,794073.200000003,7102,WL,A,1.0
5,3.2160000801086426,learn,60000.0,Thu Mar 27 2025 10:11:56 GMT-0500 (Central Daylight Time),797288.700000003,A,l,O,l,331,1,349.5,796939.200000003,7102,WL,A,2.0
5,3.432000160217285,learn,60000.0,Thu Mar 27 2025 10:11:56 GMT-0500 (Central Daylight Time),797505.200000003,A,lo,O,o,198,1,566.0,796939.200000003,7102,WL,A,2.0
5,3.5320000648498535,learn,60000.0,Thu Mar 27 2025 10:11:56 GMT-0500 (Central Daylight Time),797605.3000000045,A,log,O,g,93,1,666.1000000014901,796939.200000003,7102,WL,A,2.0
5,3.7990000247955322,learn,60000.0,Thu Mar 27 2025 10:11:56 GMT-0500 (Central Daylight Time),797872.1000000015,A,logenter,O,enter,249,1,932.8999999985099,796939.200000003,7102,WL,A,2.0
5,4.315000057220459,learn,60000.0,Thu Mar 27 2025 10:11:56 GMT-0500 (Central Daylight Time),798388.3999999985,A,k,O,k,509,1,516.0,797872.3999999985,7102,WL,A,3.0
5,4.432000160217285,learn,60000.0,Thu Mar 27 2025 10:11:56 GMT-0500 (Central Daylight Time),798504.8999999985,A,ke,O,e,105,1,632.5,797872.3999999985,7102,WL,A,3.0
5,4.598999977111816,learn,60000.0,Thu Mar 27 2025 10:11:56 GMT-0500 (Central Daylight Time),798671.6000000015,A,key,O,y,157,1,799.2000000029802,797872.3999999985,7102,WL,A,3.0
5,4.881999969482422,learn,60000.0,Thu Mar 27 2025 10:11:56 GMT-0500 (Central Daylight Time),798954.8999999985,A,keyenter,O,enter,263,1,1082.5,797872.3999999985,7102,WL,A,3.0
5,5.183000087738037,learn,60000.0,Thu Mar 27 2025 10:11:56 GMT-0500 (Central Daylight Time),799256.0,A,r,O,r,291,1,300.69999999552965,798955.3000000045,7102,WL,A,4.0
5,5.381999969482422,learn,60000.0,Thu Mar 27 2025 10:11:56 GMT-0500 (Central Daylight Time),799454.8000000045,A,ra,O,a,190,1,499.5,798955.3000000045,7102,WL,A,4.0
5,5.515000104904175,learn,60000.0,Thu Mar 27 2025 10:11:56 GMT-0500 (Central Daylight Time),799588.0,A,rat,O,t,120,1,632.6999999955297,798955.3000000045,7102,WL,A,4.0
5,5.7820000648498535,learn,60000.0,Thu Mar 27 2025 10:11:56 GMT-0500 (Central Daylight Time),799854.8000000045,A,ratt,O,t,257,1,899.5,798955.3000000045,7102,WL,A,4.0
5,5.965000152587891,learn,60000.0,Thu Mar 27 2025 10:11:56 GMT-0500 (Central Daylight Time),800037.8000000045,A,rattl,O,l,168,1,1082.5,798955.3000000045,7102,WL,A,4.0
5,6.0980000495910645,learn,60000.0,Thu Mar 27 2025 10:11:56 GMT-0500 (Central Daylight Time),800171.0,A,rattle,O,e,119,1,1215.6999999955297,798955.3000000045,7102,WL,A,4.0
5,6.29800009727478,learn,60000.0,Thu Mar 27 2025 10:11:56 GMT-0500 (Central Daylight Time),800371.3000000045,A,rattleenter,O,enter,187,1,1416.0,798955.3000000045,7102,WL,A,4.0
5,6.748000144958496,learn,60000.0,Thu Mar 27 2025 10:11:56 GMT-0500 (Central Daylight Time),800820.8999999985,A,g,O,g,443,1,449.29999999701977,800371.6000000015,7102,WL,A,5.0
5,6.8480000495910645,learn,60000.0,Thu Mar 27 2025 10:11:56 GMT-0500 (Central Daylight Time),800920.8000000045,A,go,O,o,89,1,549.2000000029802,800371.6000000015,7102,WL,A,5.0
5,7.0980000495910645,learn,60000.0,Thu Mar 27 2025 10:11:56 GMT-0500 (Central Daylight Time),801170.8999999985,A,gol,O,l,229,1,799.2999999970198,800371.6000000015,7102,WL,A,5.0
5,7.231000185012817,learn,60000.0,Thu Mar 27 2025 10:11:56 GMT-0500 (Central Daylight Time),801304.200000003,A,gold,O,d,114,1,932.6000000014901,800371.6000000015,7102,WL,A,5.0
5,7.54800009727478,learn,60000.0,Thu Mar 27 2025 10:11:56 GMT-0500 (Central Daylight Time),801620.6000000015,A,goldenter,O,enter,309,1,1249.0,800371.6000000015,7102,WL,A,5.0
5,7.981000185012817,learn,60000.0,Thu Mar 27 2025 10:11:56 GMT-0500 (Central Daylight Time),802053.8000000045,A,b,O,b,426,1,432.80000000447035,801621.0,7102,WL,A,6.0
5,8.081000089645386,learn,60000.0,Thu Mar 27 2025 10:11:56 GMT-0500 (Central Daylight Time),802153.700000003,A,bo,O,o,80,1,532.7000000029802,801621.0,7102,WL,A,6.0
5,8.248000144958496,learn,60000.0,Thu Mar 27 2025 10:11:56 GMT-0500 (Central Daylight Time),802320.5,A,boo,O,o,156,1,699.5,801621.0,7102,WL,A,6.0
5,8.545000076293945,learn,60000.0,Thu Mar 27 2025 10:11:56 GMT-0500 (Central Daylight Time),802618.1000000015,A,book,O,k,293,1,997.1000000014901,801621.0,7102,WL,A,6.0
5,8.730000019073486,learn,60000.0,Thu Mar 27 2025 10:11:56 GMT-0500 (Central Daylight Time),802803.3999999985,A,bookenter,O,enter,171,1,1182.3999999985099,801621.0,7102,WL,A,6.0
5,11.496999979019165,learn,60000.0,Thu Mar 27 2025 10:11:56 GMT-0500 (Central Daylight Time),805569.5,A,m,O,m,2755,1,2765.89999999851,802803.6000000015,7102,WL,A,7.0
5,11.663000106811523,learn,60000.0,Thu Mar 27 2025 10:11:56 GMT-0500 (Central Daylight Time),805736.200000003,A,me,O,e,156,1,2932.60000000149,802803.6000000015,7102,WL,A,7.0
5,11.880000114440918,learn,60000.0,Thu Mar 27 2025 10:11:56 GMT-0500 (Central Daylight Time),805953.0,A,mea,O,a,198,1,3149.39999999851,802803.6000000015,7102,WL,A,7.0
5,12.11300015449524,learn,60000.0,Thu Mar 27 2025 10:11:56 GMT-0500 (Central Daylight Time),806185.8999999985,A,mead,O,d,221,1,3382.2999999970198,802803.6000000015,7102,WL,A,7.0
5,12.230000019073486,learn,60000.0,Thu Mar 27 2025 10:11:56 GMT-0500 (Central Daylight Time),806302.6000000015,A,meado,O,o,107,1,3499.0,802803.6000000015,7102,WL,A,7.0
5,12.730000019073486,learn,60000.0,Thu Mar 27 2025 10:11:56 GMT-0500 (Central Daylight Time),806802.5,A,meadow,O,w,487,1,3998.89999999851,802803.6000000015,7102,WL,A,7.0
5,12.963000059127808,learn,60000.0,Thu Mar 27 2025 10:11:56 GMT-0500 (Central Daylight Time),807035.6000000015,A,meadowenter,O,enter,219,1,4232.0,802803.6000000015,7102,WL,A,7.0
5,13.729000091552734,learn,60000.0,Thu Mar 27 2025 10:11:56 GMT-0500 (Central Daylight Time),807801.8999999985,A,t,O,t,746,1,766.0,807035.8999999985,7102,WL,A,8.0
5,13.946000099182129,learn,60000.0,Thu Mar 27 2025 10:11:56 GMT-0500 (Central Daylight Time),808018.700000003,A,tr,O,r,196,1,982.8000000044703,807035.8999999985,7102,WL,A,8.0
5,14.111999988555908,learn,60000.0,Thu Mar 27 2025 10:11:56 GMT-0500 (Central Daylight Time),808185.3000000045,A,tra,O,a,156,1,1149.4000000059605,807035.8999999985,7102,WL,A,8.0
5,14.212000131607056,learn,60000.0,Thu Mar 27 2025 10:11:56 GMT-0500 (Central Daylight Time),808285.3999999985,A,trai,O,i,85,1,1249.5,807035.8999999985,7102,WL,A,8.0
5,14.279000043869019,learn,60000.0,Thu Mar 27 2025 10:11:56 GMT-0500 (Central Daylight Time),808352.1000000015,A,train,O,n,49,1,1316.2000000029802,807035.8999999985,7102,WL,A,8.0
5,14.644999980926514,learn,60000.0,Thu Mar 27 2025 10:11:56 GMT-0500 (Central Daylight Time),808718.5,A,trainenter,O,enter,358,1,1682.6000000014901,807035.8999999985,7102,WL,A,8.0
5,23.942000150680542,learn,60000.0,Thu Mar 27 2025 10:11:56 GMT-0500 (Central Daylight Time),818015.700000003,A,a,O,a,9280,1,9296.80000000447,808718.8999999985,7102,WL,A,9.0
5,24.026000022888184,learn,60000.0,Thu Mar 27 2025 10:11:56 GMT-0500 (Central Daylight Time),818098.8000000045,A,ap,O,p,69,1,9379.90000000596,808718.8999999985,7102,WL,A,9.0
5,24.2260000705719,learn,60000.0,Thu Mar 27 2025 10:11:56 GMT-0500 (Central Daylight Time),818299.3000000045,A,app,O,p,188,1,9580.40000000596,808718.8999999985,7102,WL,A,9.0
5,24.4760000705719,learn,60000.0,Thu Mar 27 2025 10:11:56 GMT-0500 (Central Daylight Time),818548.8000000045,A,appl,O,l,243,1,9829.90000000596,808718.8999999985,7102,WL,A,9.0
5,24.62600016593933,learn,60000.0,Thu Mar 27 2025 10:11:56 GMT-0500 (Central Daylight Time),818698.8000000045,A,apple,O,e,130,1,9979.90000000596,808718.8999999985,7102,WL,A,9.0
5,24.992000102996826,learn,60000.0,Thu Mar 27 2025 10:11:56 GMT-0500 (Central Daylight Time),819065.1000000015,A,appleenter,O,enter,354,1,10346.20000000298,808718.8999999985,7102,WL,A,9.0
5,26.925000190734863,learn,60000.0,Thu Mar 27 2025 10:11:56 GMT-0500 (Central Daylight Time),820997.8999999985,A,g,O,g,1917,1,1932.5999999940395,819065.3000000045,7102,WL,A,10.0
5,26.991000175476074,learn,60000.0,Thu Mar 27 2025 10:11:56 GMT-0500 (Central Daylight Time),821064.3000000045,A,go,O,o,48,1,1999.0,819065.3000000045,7102,WL,A,10.0
5,27.242000102996826,learn,60000.0,Thu Mar 27 2025 10:11:56 GMT-0500 (Central Daylight Time),821314.8000000045,A,gol,O,l,245,1,2249.5,819065.3000000045,7102,WL,A,10.0
5,27.407999992370605,learn,60000.0,Thu Mar 27 2025 10:11:56 GMT-0500 (Central Daylight Time),821481.200000003,A,gold,O,d,155,1,2415.89999999851,819065.3000000045,7102,WL,A,10.0
5,27.675000190734863,learn,60000.0,Thu Mar 27 2025 10:11:56 GMT-0500 (Central Daylight Time),821747.8999999985,A,goldenter,O,enter,253,1,2682.5999999940395,819065.3000000045,7102,WL,A,10.0
5,30.44099998474121,learn,60000.0,Thu Mar 27 2025 10:11:56 GMT-0500 (Central Daylight Time),824513.700000003,A,f,O,f,2755,1,2765.39999999851,821748.3000000045,7102,WL,A,11.0
5,30.52400016784668,learn,60000.0,Thu Mar 27 2025 10:11:56 GMT-0500 (Central Daylight Time),824596.8000000045,A,fl,O,l,77,1,2848.5,821748.3000000045,7102,WL,A,11.0
5,30.756999969482422,learn,60000.0,Thu Mar 27 2025 10:11:56 GMT-0500 (Central Daylight Time),824830.1000000015,A,flo,O,o,218,1,3081.7999999970198,821748.3000000045,7102,WL,A,11.0
5,30.84000015258789,learn,60000.0,Thu Mar 27 2025 10:11:56 GMT-0500 (Central Daylight Time),824913.5,A,flow,O,w,71,1,3165.1999999955297,821748.3000000045,7102,WL,A,11.0
5,30.907000064849854,learn,60000.0,Thu Mar 27 2025 10:11:56 GMT-0500 (Central Daylight Time),824979.8999999985,A,flowe,O,e,61,1,3231.5999999940395,821748.3000000045,7102,WL,A,11.0
5,30.990000009536743,learn,60000.0,Thu Mar 27 2025 10:11:56 GMT-0500 (Central Daylight Time),825063.3999999985,A,flower,O,r,73,1,3315.0999999940395,821748.3000000045,7102,WL,A,11.0
5,31.27400016784668,learn,60000.0,Thu Mar 27 2025 10:11:56 GMT-0500 (Central Daylight Time),825347.200000003,A,flowerenter,O,enter,277,1,3598.89999999851,821748.3000000045,7102,WL,A,11.0
5,33.956000089645386,learn,60000.0,Thu Mar 27 2025 10:11:56 GMT-0500 (Central Daylight Time),828029.1000000015,A,m,O,m,2667,1,2681.60000000149,825347.5,7102,WL,A,12.0
5,34.121999979019165,learn,60000.0,Thu Mar 27 2025 10:11:56 GMT-0500 (Central Daylight Time),828195.700000003,A,me,O,e,152,1,2848.2000000029802,825347.5,7102,WL,A,12.0
5,34.473000049591064,learn,60000.0,Thu Mar 27 2025 10:11:56 GMT-0500 (Central Daylight Time),828545.700000003,A,mea,O,a,331,1,3198.2000000029802,825347.5,7102,WL,A,12.0
5,34.805999994277954,learn,60000.0,Thu Mar 27 2025 10:11:56 GMT-0500 (Central Daylight Time),828879.0,A,mead,O,d,324,1,3531.5,825347.5,7102,WL,A,12.0
5,35.00600004196167,learn,60000.0,Thu Mar 27 2025 10:11:56 GMT-0500 (Central Daylight Time),829079.5,A,meado,O,o,191,1,3732.0,825347.5,7102,WL,A,12.0
5,35.17200016975403,learn,60000.0,Thu Mar 27 2025 10:11:56 GMT-0500 (Central Daylight Time),829245.5,A,meadow,O,w,158,1,3898.0,825347.5,7102,WL,A,12.0
5,35.50500011444092,learn,60000.0,Thu Mar 27 2025 10:11:56 GMT-0500 (Central Daylight Time),829578.6000000015,A,meadowenter,O,enter,320,1,4231.10000000149,825347.5,7102,WL,A,12.0
5,38.50500011444092,learn,60000.0,Thu Mar 27 2025 10:11:56 GMT-0500 (Central Daylight Time),832577.700000003,A,enter,O,enter,2978,1,2998.7000000029802,829579.0,7102,WL,A,13.0
5,38.687999963760376,learn,60000.0,Thu Mar 27 2025 10:11:56 GMT-0500 (Central Daylight Time),832760.8999999985,A,enter,O,enter,165,1,182.79999999701977,832578.1000000015,7102,WL,A,14.0
5,39.12100005149841,learn,60000.0,Thu Mar 27 2025 10:11:56 GMT-0500 (Central Daylight Time),833194.1000000015,A,enter,O,enter,422,1,432.8999999985099,832761.200000003,7102,WL,A,15.0
6,0.9000000953674316,distr,59099.99990463257,Thu Mar 27 2025 10:11:56 GMT-0500 (Central Daylight Time),899956.6000000015,B,s,O,s,885,1,899.7000000029802,899056.8999999985,7102,WL,A,1.0
6,1.1170001029968262,distr,58882.999897003174,Thu Mar 27 2025 10:11:56 GMT-0500 (Central Daylight Time),900173.1000000015,B,se,O,e,209,1,1116.2000000029802,899056.8999999985,7102,WL,A,1.0
6,1.433000087738037,distr,58566.99991226196,Thu Mar 27 2025 10:11:56 GMT-0500 (Central Daylight Time),900489.8000000045,B,see,O,e,305,1,1432.9000000059605,899056.8999999985,7102,WL,A,1.0
6,1.7170000076293945,distr,58282.999992370605,Thu Mar 27 2025 10:11:56 GMT-0500 (Central Daylight Time),900773.0,B,seed,O,d,276,1,1716.1000000014901,899056.8999999985,7102,WL,A,1.0
6,1.933000087738037,distr,58066.99991226196,Thu Mar 27 2025 10:11:56 GMT-0500 (Central Daylight Time),900989.5,B,seedenter,O,enter,200,1,1932.6000000014901,899056.8999999985,7102,WL,A,1.0
6,2.3500001430511475,distr,57649.99985694885,Thu Mar 27 2025 10:11:56 GMT-0500 (Central Daylight Time),901406.200000003,B,s,O,s,400,1,416.30000000447035,900989.8999999985,7102,WL,A,2.0
6,2.5329999923706055,distr,57467.000007629395,Thu Mar 27 2025 10:11:56 GMT-0500 (Central Daylight Time),901589.3999999985,B,sh,O,h,167,1,599.5,900989.8999999985,7102,WL,A,2.0
6,2.9660000801086426,distr,57033.99991989136,Thu Mar 27 2025 10:11:56 GMT-0500 (Central Daylight Time),902022.8999999985,B,she,O,e,417,1,1033.0,900989.8999999985,7102,WL,A,2.0
6,3.383000135421753,distr,56616.99986457825,Thu Mar 27 2025 10:11:56 GMT-0500 (Central Daylight Time),902439.1000000015,B,shee,O,e,400,1,1449.2000000029802,900989.8999999985,7102,WL,A,2.0
6,3.565999984741211,distr,56434.00001525879,Thu Mar 27 2025 10:11:56 GMT-0500 (Central Daylight Time),902622.700000003,B,sheep,O,p,166,1,1632.8000000044703,900989.8999999985,7102,WL,A,2.0
6,4.348999977111816,distr,55651.00002288818,Thu Mar 27 2025 10:11:56 GMT-0500 (Central Daylight Time),903405.5,B,sheepenter,O,enter,767,1,2415.60000000149,900989.8999999985,7102,WL,A,2.0
6,4.7829999923706055,distr,55217.000007629395,Thu Mar 27 2025 10:11:56 GMT-0500 (Central Daylight Time),903839.1000000015,B,m,O,m,417,1,433.29999999701977,903405.8000000045,7102,WL,A,3.0
6,4.949000120162964,distr,55050.999879837036,Thu Mar 27 2025 10:11:56 GMT-0500 (Central Daylight Time),904005.3999999985,B,me,O,e,151,1,599.5999999940395,903405.8000000045,7102,WL,A,3.0
6,5.199000120162964,distr,54800.999879837036,Thu Mar 27 2025 10:11:56 GMT-0500 (Central Daylight Time),904255.200000003,B,mea,O,a,233,1,849.3999999985099,903405.8000000045,7102,WL,A,3.0
6,5.2820000648498535,distr,54717.99993515015,Thu Mar 27 2025 10:11:56 GMT-0500 (Central Daylight Time),904338.8000000045,B,meal,O,l,79,1,933.0,903405.8000000045,7102,WL,A,3.0
6,5.650000095367432,distr,54349.99990463257,Thu Mar 27 2025 10:11:56 GMT-0500 (Central Daylight Time),904706.200000003,B,mealenter,O,enter,346,1,1300.3999999985099,903405.8000000045,7102,WL,A,3.0
6,7.4649999141693115,distr,52535.00008583069,Thu Mar 27 2025 10:11:56 GMT-0500 (Central Daylight Time),906521.200000003,B,c,O,c,1795,1,1814.8000000044703,904706.3999999985,7102,WL,A,4.0
6,7.63100004196167,distr,52368.99995803833,Thu Mar 27 2025 10:11:56 GMT-0500 (Central Daylight Time),906687.8000000045,B,co,O,o,149,1,1981.4000000059605,904706.3999999985,7102,WL,A,4.0
6,8.88100004196167,distr,51118.99995803833,Thu Mar 27 2025 10:11:56 GMT-0500 (Central Daylight Time),907937.5,B,coa,O,a,1239,1,3231.10000000149,904706.3999999985,7102,WL,A,4.0
6,9.098000049591064,distr,50901.999950408936,Thu Mar 27 2025 10:11:56 GMT-0500 (Central Daylight Time),908154.0,B,coat,O,t,205,1,3447.60000000149,904706.3999999985,7102,WL,A,4.0
6,9.314000129699707,distr,50685.99987030029,Thu Mar 27 2025 10:11:56 GMT-0500 (Central Daylight Time),908370.700000003,B,coatenter,O,enter,195,1,3664.3000000044703,904706.3999999985,7102,WL,A,4.0
6,9.71399998664856,distr,50286.00001335144,Thu Mar 27 2025 10:11:56 GMT-0500 (Central Daylight Time),908770.6000000015,B,b,O,b,379,1,399.5,908371.1000000015,7102,WL,A,5.0
6,9.781000137329102,distr,50218.9998626709,Thu Mar 27 2025 10:11:56 GMT-0500 (Central Daylight Time),908837.6000000015,B,bo,O,o,60,1,466.5,908371.1000000015,7102,WL,A,5.0
6,10.114000082015991,distr,49885.99991798401,Thu Mar 27 2025 10:11:56 GMT-0500 (Central Daylight Time),909170.3000000045,B,bot,O,t,312,1,799.2000000029802,908371.1000000015,7102,WL,A,5.0
6,10.29699993133545,distr,49703.00006866455,Thu Mar 27 2025 10:11:56 GMT-0500 (Central Daylight Time),909353.8999999985,B,bott,O,t,172,1,982.7999999970198,908371.1000000015,7102,WL,A,5.0
6,10.46399998664856,distr,49536.00001335144,Thu Mar 27 2025 10:11:56 GMT-0500 (Central Daylight Time),909520.200000003,B,bottl,O,l,148,1,1149.1000000014901,908371.1000000015,7102,WL,A,5.0
6,10.597000122070312,distr,49402.99987792969,Thu Mar 27 2025 10:11:56 GMT-0500 (Central Daylight Time),909653.700000003,B,bottle,O,e,125,1,1282.6000000014901,908371.1000000015,7102,WL,A,5.0
6,11.04699993133545,distr,48953.00006866455,Thu Mar 27 2025 10:11:56 GMT-0500 (Central Daylight Time),910103.3999999985,B,bottleenter,O,enter,441,1,1732.2999999970198,908371.1000000015,7102,WL,A,5.0
6,11.86299991607666,distr,48137.00008392334,Thu Mar 27 2025 10:11:56 GMT-0500 (Central Daylight Time),910919.8000000045,B,b,O,b,807,1,816.1000000014901,910103.700000003,7102,WL,A,6.0
6,11.963000059127808,distr,48036.99994087219,Thu Mar 27 2025 10:11:56 GMT-0500 (Central Daylight Time),911019.8000000045,B,bo,O,o,85,1,916.1000000014901,910103.700000003,7102,WL,A,6.0
6,12.147000074386597,distr,47852.9999256134,Thu Mar 27 2025 10:11:56 GMT-0500 (Central Daylight Time),911203.1000000015,B,boo,O,o,170,1,1099.3999999985099,910103.700000003,7102,WL,A,6.0
6,13.27999997138977,distr,46720.00002861023,Thu Mar 27 2025 10:11:56 GMT-0500 (Central Daylight Time),912336.0,B,bo,O,backspace,1123,1,2232.2999999970198,910103.700000003,7102,WL,A,6.0
6,13.529000043869019,distr,46470.99995613098,Thu Mar 27 2025 10:11:56 GMT-0500 (Central Daylight Time),912585.8999999985,B,b,O,backspace,237,1,2482.1999999955297,910103.700000003,7102,WL,A,6.0
6,13.729000091552734,distr,46270.999908447266,Thu Mar 27 2025 10:11:56 GMT-0500 (Central Daylight Time),912785.8999999985,B,,O,backspace,179,1,2682.1999999955297,910103.700000003,7102,WL,A,6.0
6,13.896000146865845,distr,46103.999853134155,Thu Mar 27 2025 10:11:56 GMT-0500 (Central Daylight Time),912952.6000000015,B,,O,backspace,157,1,2848.89999999851,910103.700000003,7102,WL,A,6.0
6,15.828999996185303,distr,44171.0000038147,Thu Mar 27 2025 10:11:56 GMT-0500 (Central Daylight Time),914885.3999999985,B,enter,O,enter,1926,1,4781.69999999553,910103.700000003,7102,WL,A,6.0
6,16.194999933242798,distr,43805.0000667572,Thu Mar 27 2025 10:11:56 GMT-0500 (Central Daylight Time),915251.8000000045,B,enter,O,enter,353,1,366.20000000298023,914885.6000000015,7102,WL,A,7.0
6,16.51200008392334,distr,43487.99991607666,Thu Mar 27 2025 10:11:56 GMT-0500 (Central Daylight Time),915568.3999999985,B,enter,O,enter,307,1,316.19999999552965,915252.200000003,7102,WL,A,8.0
6,16.911999940872192,distr,43088.00005912781,Thu Mar 27 2025 10:11:56 GMT-0500 (Central Daylight Time),915968.3000000045,B,enter,O,enter,381,1,399.5,915568.8000000045,7102,WL,A,9.0
6,17.227999925613403,distr,42772.0000743866,Thu Mar 27 2025 10:11:56 GMT-0500 (Central Daylight Time),916284.8000000045,B,enter,O,enter,302,1,316.1000000014901,915968.700000003,7102,WL,A,10.0
6,17.57800006866455,distr,42421.99993133545,Thu Mar 27 2025 10:11:56 GMT-0500 (Central Daylight Time),916634.8000000045,B,enter,O,enter,329,1,349.70000000298023,916285.1000000015,7102,WL,A,11.0
6,17.99500012397766,distr,42004.99987602234,Thu Mar 27 2025 10:11:56 GMT-0500 (Central Daylight Time),917051.1000000015,B,enter,O,enter,404,1,416.0,916635.1000000015,7102,WL,A,12.0
6,18.444999933242798,distr,41555.0000667572,Thu Mar 27 2025 10:11:56 GMT-0500 (Central Daylight Time),917501.1000000015,B,enter,O,enter,435,1,449.6000000014901,917051.5,7102,WL,A,13.0
6,18.91100001335144,distr,41088.99998664856,Thu Mar 27 2025 10:11:56 GMT-0500 (Central Daylight Time),917967.700000003,B,enter,O,enter,457,1,466.30000000447035,917501.3999999985,7102,WL,A,14.0
6,19.460999965667725,distr,40539.000034332275,Thu Mar 27 2025 10:11:56 GMT-0500 (Central Daylight Time),918517.5,B,enter,O,enter,542,1,549.5,917968.0,7102,WL,A,15.0
7,12.812000036239624,immed,47187.999963760376,Thu Mar 27 2025 10:11:56 GMT-0500 (Central Daylight Time),932713.0,A,c,O,c,12803,1,12812.39999999851,919900.6000000015,7102,WL,A,1.0
7,12.978999853134155,immed,47021.000146865845,Thu Mar 27 2025 10:11:56 GMT-0500 (Central Daylight Time),932879.6000000015,A,co,O,o,157,1,12979.0,919900.6000000015,7102,WL,A,1.0
7,13.230000019073486,immed,46769.999980926514,Thu Mar 27 2025 10:11:56 GMT-0500 (Central Daylight Time),933130.700000003,A,coa,O,a,230,1,13230.10000000149,919900.6000000015,7102,WL,A,1.0
7,13.494999885559082,immed,46505.00011444092,Thu Mar 27 2025 10:11:56 GMT-0500 (Central Daylight Time),933396.0,A,coat,O,t,260,1,13495.39999999851,919900.6000000015,7102,WL,A,1.0
7,13.794999837875366,immed,46205.000162124634,Thu Mar 27 2025 10:11:56 GMT-0500 (Central Daylight Time),933696.0,A,coatenter,O,enter,288,1,13795.39999999851,919900.6000000015,7102,WL,A,1.0
7,14.277999877929688,immed,45722.00012207031,Thu Mar 27 2025 10:11:56 GMT-0500 (Central Daylight Time),934179.200000003,A,s,O,s,463,1,482.8999999985099,933696.3000000045,7102,WL,A,2.0
7,14.494999885559082,immed,45505.00011444092,Thu Mar 27 2025 10:11:56 GMT-0500 (Central Daylight Time),934396.0,A,sh,O,h,203,1,699.6999999955297,933696.3000000045,7102,WL,A,2.0
7,14.861999988555908,immed,45138.00001144409,Thu Mar 27 2025 10:11:56 GMT-0500 (Central Daylight Time),934762.3999999985,A,she,O,e,354,1,1066.0999999940395,933696.3000000045,7102,WL,A,2.0
7,15.09500002861023,immed,44904.99997138977,Thu Mar 27 2025 10:11:56 GMT-0500 (Central Daylight Time),934996.1000000015,A,shee,O,e,220,1,1299.7999999970198,933696.3000000045,7102,WL,A,2.0
7,15.227999925613403,immed,44772.0000743866,Thu Mar 27 2025 10:11:56 GMT-0500 (Central Daylight Time),935128.8000000045,A,sheep,O,p,114,1,1432.5,933696.3000000045,7102,WL,A,2.0
7,15.810999870300293,immed,44189.00012969971,Thu Mar 27 2025 10:11:56 GMT-0500 (Central Daylight Time),935712.0,A,sheepenter,O,enter,574,1,2015.6999999955297,933696.3000000045,7102,WL,A,2.0
7,16.11299991607666,immed,43887.00008392334,Thu Mar 27 2025 10:11:56 GMT-0500 (Central Daylight Time),936013.200000003,A,s,O,s,287,1,301.0,935712.200000003,7102,WL,A,3.0
7,16.293999910354614,immed,43706.000089645386,Thu Mar 27 2025 10:11:56 GMT-0500 (Central Daylight Time),936195.1000000015,A,se,O,e,177,1,482.8999999985099,935712.200000003,7102,WL,A,3.0
7,16.643999814987183,immed,43356.00018501282,Thu Mar 27 2025 10:11:56 GMT-0500 (Central Daylight Time),936545.1000000015,A,see,O,e,339,1,832.8999999985099,935712.200000003,7102,WL,A,3.0
7,16.944000005722046,immed,43055.999994277954,Thu Mar 27 2025 10:11:56 GMT-0500 (Central Daylight Time),936845.0,A,seed,O,d,293,1,1132.7999999970198,935712.200000003,7102,WL,A,3.0
7,17.543999910354614,immed,42456.000089645386,Thu Mar 27 2025 10:11:56 GMT-0500 (Central Daylight Time),937444.8000000045,A,seedenter,O,enter,593,1,1732.6000000014901,935712.200000003,7102,WL,A,3.0
7,21.075999975204468,immed,38924.00002479553,Thu Mar 27 2025 10:11:56 GMT-0500 (Central Daylight Time),940977.0,A,enter,O,enter,3514,1,3532.10000000149,937444.8999999985,7102,WL,A,4.0
7,21.425999879837036,immed,38574.000120162964,Thu Mar 27 2025 10:11:56 GMT-0500 (Central Daylight Time),941327.1000000015,A,enter,O,enter,341,1,349.79999999701977,940977.3000000045,7102,WL,A,5.0
7,21.758999824523926,immed,38241.000175476074,Thu Mar 27 2025 10:11:56 GMT-0500 (Central Daylight Time),941660.0,A,enter,O,enter,327,1,332.6000000014901,941327.3999999985,7102,WL,A,6.0
7,22.026000022888184,immed,37973.99997711182,Thu Mar 27 2025 10:11:56 GMT-0500 (Central Daylight Time),941926.8999999985,A,enter,O,enter,259,1,266.59999999403954,941660.3000000045,7102,WL,A,7.0
7,22.30999994277954,immed,37690.00005722046,Thu Mar 27 2025 10:11:56 GMT-0500 (Central Daylight Time),942210.200000003,A,enter,O,enter,263,1,282.8999999985099,941927.3000000045,7102,WL,A,8.0
7,22.625999927520752,immed,37374.00007247925,Thu Mar 27 2025 10:11:56 GMT-0500 (Central Daylight Time),942526.5,A,enter,O,enter,300,1,315.8999999985099,942210.6000000015,7102,WL,A,9.0
7,22.908999919891357,immed,37091.00008010864,Thu Mar 27 2025 10:11:56 GMT-0500 (Central Daylight Time),942810.1000000015,A,enter,O,enter,264,1,283.20000000298023,942526.8999999985,7102,WL,A,10.0
7,23.191999912261963,immed,36808.00008773804,Thu Mar 27 2025 10:11:56 GMT-0500 (Central Daylight Time),943093.1000000015,A,enter,O,enter,268,1,282.6000000014901,942810.5,7102,WL,A,11.0
7,23.491999864578247,immed,36508.00013542175,Thu Mar 27 2025 10:11:56 GMT-0500 (Central Daylight Time),943393.0,A,enter,O,enter,282,1,299.6000000014901,943093.3999999985,7102,WL,A,12.0
7,23.954999923706055,immed,36045.000076293945,Thu Mar 27 2025 10:11:56 GMT-0500 (Central Daylight Time),943855.200000003,A,enter,O,enter,457,1,461.80000000447035,943393.3999999985,7102,WL,A,13.0
7,24.257999897003174,immed,35742.000102996826,Thu Mar 27 2025 10:11:56 GMT-0500 (Central Daylight Time),944159.1000000015,A,enter,O,enter,286,1,303.6000000014901,943855.5,7102,WL,A,14.0
7,24.72499990463257,immed,35275.00009536743,Thu Mar 27 2025 10:11:56 GMT-0500 (Central Daylight Time),944625.8000000045,A,enter,O,enter,447,1,466.5,944159.3000000045,7102,WL,A,15.0
