block_c,block_dur,condition,countdown,datetime,endtime,list,multichar_response,project,response,response_time,session_number,start_end,starttime,subject_id,task,task_vers,trial
,,,,Thu Nov 07 2024 14:08:20 GMT-0600 (Central Standard Time),,,,O,space,506,1,,,7027,WL,A,
prac,,0,,Thu Nov 07 2024 14:08:20 GMT-0600 (Central Standard Time),,NA,b,O,b,2575,1,,,7027,WL,A,1.0
prac,,0,,Thu Nov 07 2024 14:08:20 GMT-0600 (Central Standard Time),,NA,bo,O,o,717,1,,,7027,WL,A,1.0
prac,,0,,Thu Nov 07 2024 14:08:20 GMT-0600 (Central Standard Time),,NA,boo,O,o,152,1,,,7027,WL,A,1.0
prac,,0,,Thu Nov 07 2024 14:08:20 GMT-0600 (Central Standard Time),,NA,boos,O,s,240,1,,,7027,WL,A,1.0
prac,,0,,Thu Nov 07 2024 14:08:20 GMT-0600 (Central Standard Time),,NA,boost,O,t,320,1,,,7027,WL,A,1.0
prac,,0,,Thu Nov 07 2024 14:08:20 GMT-0600 (Central Standard Time),,NA,boostenter,O,enter,337,1,,,7027,WL,A,1.0
1,2.383000135421753,learn,57616.99986457825,Thu Nov 07 2024 14:08:20 GMT-0600 (Central Standard Time),146717.0,A,f,O,f,2350,1,2381.9000000953674,144335.09999990463,7027,WL,A,1.0
1,3.2820000648498535,learn,56717.99993515015,Thu Nov 07 2024 14:08:20 GMT-0600 (Central Standard Time),147616.79999995232,A,fk,O,k,860,1,3281.7000000476837,144335.09999990463,7027,WL,A,1.0
1,3.765000104904175,learn,56234.999895095825,Thu Nov 07 2024 14:08:20 GMT-0600 (Central Standard Time),148099.59999990463,A,f,O,backspace,445,1,3764.5,144335.09999990463,7027,WL,A,1.0
1,4.448000192642212,learn,55551.99980735779,Thu Nov 07 2024 14:08:20 GMT-0600 (Central Standard Time),148782.5,A,fl,O,l,654,1,4447.400000095367,144335.09999990463,7027,WL,A,1.0
1,4.682000160217285,learn,55317.999839782715,Thu Nov 07 2024 14:08:20 GMT-0600 (Central Standard Time),149015.89999985695,A,flo,O,o,200,1,4680.799999952316,144335.09999990463,7027,WL,A,1.0
1,4.865000009536743,learn,55134.99999046326,Thu Nov 07 2024 14:08:20 GMT-0600 (Central Standard Time),149199.0,A,flow,O,w,151,1,4863.900000095367,144335.09999990463,7027,WL,A,1.0
1,4.948000192642212,learn,55051.99980735779,Thu Nov 07 2024 14:08:20 GMT-0600 (Central Standard Time),149282.09999990463,A,flowe,O,e,41,1,4947.0,144335.09999990463,7027,WL,A,1.0
1,5.265000104904175,learn,54734.999895095825,Thu Nov 07 2024 14:08:20 GMT-0600 (Central Standard Time),149599.0,A,flower,O,r,286,1,5263.900000095367,144335.09999990463,7027,WL,A,1.0
1,6.330000162124634,learn,53669.999837875366,Thu Nov 07 2024 14:08:20 GMT-0600 (Central Standard Time),150664.29999995232,A,flowerenter,O,enter,1026,1,6329.200000047684,144335.09999990463,7027,WL,A,1.0
1,7.414000034332275,learn,52585.999965667725,Thu Nov 07 2024 14:08:20 GMT-0600 (Central Standard Time),151748.39999985695,A,b,O,b,1076,1,1083.5,150664.89999985695,7027,WL,A,2.0
1,7.664000034332275,learn,52335.999965667725,Thu Nov 07 2024 14:08:20 GMT-0600 (Central Standard Time),151998.0,A,bo,O,o,216,1,1333.1000001430511,150664.89999985695,7027,WL,A,2.0
1,7.831000089645386,learn,52168.999910354614,Thu Nov 07 2024 14:08:20 GMT-0600 (Central Standard Time),152164.89999985695,A,boo,O,o,132,1,1500.0,150664.89999985695,7027,WL,A,2.0
1,8.297000169754028,learn,51702.99983024597,Thu Nov 07 2024 14:08:20 GMT-0600 (Central Standard Time),152631.39999985695,A,book,O,k,427,1,1966.5,150664.89999985695,7027,WL,A,2.0
1,8.59600019454956,learn,51403.99980545044,Thu Nov 07 2024 14:08:20 GMT-0600 (Central Standard Time),152930.19999980927,A,bookenter,O,enter,259,1,2265.2999999523163,150664.89999985695,7027,WL,A,2.0
1,9.463000059127808,learn,50536.99994087219,Thu Nov 07 2024 14:08:20 GMT-0600 (Central Standard Time),153797.29999995232,A,r,O,r,859,1,866.7999999523163,152930.5,7027,WL,A,3.0
1,9.913000106811523,learn,50086.99989318848,Thu Nov 07 2024 14:08:20 GMT-0600 (Central Standard Time),154247.59999990463,A,,O,backspace,412,1,1317.0999999046326,152930.5,7027,WL,A,3.0
1,10.163000106811523,learn,49836.99989318848,Thu Nov 07 2024 14:08:20 GMT-0600 (Central Standard Time),154497.29999995232,A,,O,backspace,221,1,1566.7999999523163,152930.5,7027,WL,A,3.0
1,10.563000202178955,learn,49436.999797821045,Thu Nov 07 2024 14:08:20 GMT-0600 (Central Standard Time),154897.19999980927,A,t,O,t,359,1,1966.6999998092651,152930.5,7027,WL,A,3.0
1,10.86300015449524,learn,49136.99984550476,Thu Nov 07 2024 14:08:20 GMT-0600 (Central Standard Time),155197.09999990463,A,tr,O,r,263,1,2266.5999999046326,152930.5,7027,WL,A,3.0
1,11.013000011444092,learn,48986.99998855591,Thu Nov 07 2024 14:08:20 GMT-0600 (Central Standard Time),155347.0,A,tra,O,a,115,1,2416.5,152930.5,7027,WL,A,3.0
1,11.213000059127808,learn,48786.99994087219,Thu Nov 07 2024 14:08:20 GMT-0600 (Central Standard Time),155547.0,A,trai,O,i,155,1,2616.5,152930.5,7027,WL,A,3.0
1,11.513000011444092,learn,48486.99998855591,Thu Nov 07 2024 14:08:20 GMT-0600 (Central Standard Time),155847.09999990463,A,train,O,n,260,1,2916.5999999046326,152930.5,7027,WL,A,3.0
1,11.895000219345093,learn,48104.99978065491,Thu Nov 07 2024 14:08:20 GMT-0600 (Central Standard Time),156229.09999990463,A,trainenter,O,enter,345,1,3298.5999999046326,152930.5,7027,WL,A,3.0
1,12.729000091552734,learn,47270.999908447266,Thu Nov 07 2024 14:08:20 GMT-0600 (Central Standard Time),157063.19999980927,A,r,O,r,823,1,833.6999998092651,156229.5,7027,WL,A,4.0
1,12.979000091552734,learn,47020.999908447266,Thu Nov 07 2024 14:08:20 GMT-0600 (Central Standard Time),157313.09999990463,A,ru,O,u,210,1,1083.5999999046326,156229.5,7027,WL,A,4.0
1,13.329000234603882,learn,46670.99976539612,Thu Nov 07 2024 14:08:20 GMT-0600 (Central Standard Time),157662.89999985695,A,rug,O,g,317,1,1433.3999998569489,156229.5,7027,WL,A,4.0
1,13.629000186920166,learn,46370.999813079834,Thu Nov 07 2024 14:08:20 GMT-0600 (Central Standard Time),157963.0,A,rugenter,O,enter,263,1,1733.5,156229.5,7027,WL,A,4.0
1,14.627000093460083,learn,45372.99990653992,Thu Nov 07 2024 14:08:20 GMT-0600 (Central Standard Time),158961.69999980927,A,m,O,m,977,1,998.3999998569489,157963.29999995232,7027,WL,A,5.0
1,14.894000053405762,learn,45105.99994659424,Thu Nov 07 2024 14:08:20 GMT-0600 (Central Standard Time),159228.19999980927,A,me,O,e,257,1,1264.8999998569489,157963.29999995232,7027,WL,A,5.0
1,14.99400019645691,learn,45005.99980354309,Thu Nov 07 2024 14:08:20 GMT-0600 (Central Standard Time),159328.09999990463,A,mea,O,a,79,1,1364.7999999523163,157963.29999995232,7027,WL,A,5.0
1,15.194000005722046,learn,44805.999994277954,Thu Nov 07 2024 14:08:20 GMT-0600 (Central Standard Time),159528.19999980927,A,mead,O,d,186,1,1564.8999998569489,157963.29999995232,7027,WL,A,5.0
1,15.311000108718872,learn,44688.99989128113,Thu Nov 07 2024 14:08:20 GMT-0600 (Central Standard Time),159645.5,A,meado,O,o,103,1,1682.2000000476837,157963.29999995232,7027,WL,A,5.0
1,15.544000148773193,learn,44455.99985122681,Thu Nov 07 2024 14:08:20 GMT-0600 (Central Standard Time),159878.0,A,meadow,O,w,195,1,1914.7000000476837,157963.29999995232,7027,WL,A,5.0
1,16.14400005340576,learn,43855.99994659424,Thu Nov 07 2024 14:08:20 GMT-0600 (Central Standard Time),160477.69999980927,A,meadowenter,O,enter,589,1,2514.399999856949,157963.29999995232,7027,WL,A,5.0
1,16.844000101089478,learn,43155.99989891052,Thu Nov 07 2024 14:08:20 GMT-0600 (Central Standard Time),161178.5,A,h,O,h,677,1,700.5,160478.0,7027,WL,A,6.0
1,17.07800006866455,learn,42921.99993133545,Thu Nov 07 2024 14:08:20 GMT-0600 (Central Standard Time),161412.09999990463,A,ha,O,a,209,1,934.0999999046326,160478.0,7027,WL,A,6.0
1,17.261000156402588,learn,42738.99984359741,Thu Nov 07 2024 14:08:20 GMT-0600 (Central Standard Time),161595.0,A,har,O,r,149,1,1117.0,160478.0,7027,WL,A,6.0
1,17.5770001411438,learn,42422.9998588562,Thu Nov 07 2024 14:08:20 GMT-0600 (Central Standard Time),161911.59999990463,A,harp,O,p,287,1,1433.5999999046326,160478.0,7027,WL,A,6.0
1,17.926000118255615,learn,42073.999881744385,Thu Nov 07 2024 14:08:20 GMT-0600 (Central Standard Time),162260.39999985695,A,harpenter,O,enter,322,1,1782.3999998569489,160478.0,7027,WL,A,6.0
1,18.64400005340576,learn,41355.99994659424,Thu Nov 07 2024 14:08:20 GMT-0600 (Central Standard Time),162977.79999995232,A,s,O,s,704,1,717.0,162260.79999995232,7027,WL,A,7.0
1,18.743000030517578,learn,41256.99996948242,Thu Nov 07 2024 14:08:20 GMT-0600 (Central Standard Time),163077.79999995232,A,sa,O,a,73,1,817.0,162260.79999995232,7027,WL,A,7.0
1,19.010000228881836,learn,40989.999771118164,Thu Nov 07 2024 14:08:20 GMT-0600 (Central Standard Time),163344.39999985695,A,sal,O,l,227,1,1083.5999999046326,162260.79999995232,7027,WL,A,7.0
1,19.326000213623047,learn,40673.99978637695,Thu Nov 07 2024 14:08:20 GMT-0600 (Central Standard Time),163660.69999980927,A,salt,O,t,290,1,1399.8999998569489,162260.79999995232,7027,WL,A,7.0
1,19.826000213623047,learn,40173.99978637695,Thu Nov 07 2024 14:08:20 GMT-0600 (Central Standard Time),164159.79999995232,A,saltenter,O,enter,460,1,1899.0,162260.79999995232,7027,WL,A,7.0
1,20.526000022888184,learn,39473.99997711182,Thu Nov 07 2024 14:08:20 GMT-0600 (Central Standard Time),164860.59999990463,A,f,O,f,694,1,700.5,164160.09999990463,7027,WL,A,8.0
1,20.7260000705719,learn,39273.9999294281,Thu Nov 07 2024 14:08:20 GMT-0600 (Central Standard Time),165060.39999985695,A,fi,O,i,174,1,900.2999999523163,164160.09999990463,7027,WL,A,8.0
1,20.960000038146973,learn,39039.99996185303,Thu Nov 07 2024 14:08:20 GMT-0600 (Central Standard Time),165293.89999985695,A,fin,O,n,195,1,1133.7999999523163,164160.09999990463,7027,WL,A,8.0
1,21.193000078201294,learn,38806.999921798706,Thu Nov 07 2024 14:08:20 GMT-0600 (Central Standard Time),165527.0,A,fing,O,g,200,1,1366.9000000953674,164160.09999990463,7027,WL,A,8.0
1,21.409000158309937,learn,38590.99984169006,Thu Nov 07 2024 14:08:20 GMT-0600 (Central Standard Time),165743.69999980927,A,finge,O,e,188,1,1583.5999999046326,164160.09999990463,7027,WL,A,8.0
1,21.509000062942505,learn,38490.999937057495,Thu Nov 07 2024 14:08:20 GMT-0600 (Central Standard Time),165843.59999990463,A,finger,O,r,63,1,1683.5,164160.09999990463,7027,WL,A,8.0
1,21.760000228881836,learn,38239.999771118164,Thu Nov 07 2024 14:08:20 GMT-0600 (Central Standard Time),166093.69999980927,A,fingerenter,O,enter,222,1,1933.5999999046326,164160.09999990463,7027,WL,A,8.0
1,22.12600016593933,learn,37873.99983406067,Thu Nov 07 2024 14:08:20 GMT-0600 (Central Standard Time),166460.09999990463,A,a,O,a,351,1,366.09999990463257,166094.0,7027,WL,A,9.0
1,22.526000022888184,learn,37473.99997711182,Thu Nov 07 2024 14:08:20 GMT-0600 (Central Standard Time),166859.79999995232,A,ap,O,p,366,1,765.7999999523163,166094.0,7027,WL,A,9.0
1,22.659000158309937,learn,37340.99984169006,Thu Nov 07 2024 14:08:20 GMT-0600 (Central Standard Time),166993.19999980927,A,app,O,p,103,1,899.1999998092651,166094.0,7027,WL,A,9.0
1,22.87600016593933,learn,37123.99983406067,Thu Nov 07 2024 14:08:20 GMT-0600 (Central Standard Time),167209.89999985695,A,appl,O,l,187,1,1115.8999998569489,166094.0,7027,WL,A,9.0
1,23.175000190734863,learn,36824.99980926514,Thu Nov 07 2024 14:08:20 GMT-0600 (Central Standard Time),167509.59999990463,A,apple,O,e,266,1,1415.5999999046326,166094.0,7027,WL,A,9.0
1,23.474000215530396,learn,36525.999784469604,Thu Nov 07 2024 14:08:20 GMT-0600 (Central Standard Time),167808.59999990463,A,appleenter,O,enter,267,1,1714.5999999046326,166094.0,7027,WL,A,9.0
1,23.825000047683716,learn,36174.999952316284,Thu Nov 07 2024 14:08:20 GMT-0600 (Central Standard Time),168159.59999990463,A,c,O,c,340,1,350.59999990463257,167809.0,7027,WL,A,10.0
1,24.325000047683716,learn,35674.999952316284,Thu Nov 07 2024 14:08:20 GMT-0600 (Central Standard Time),168659.29999995232,A,ch,O,h,459,1,850.2999999523163,167809.0,7027,WL,A,10.0
1,24.54200005531311,learn,35457.99994468689,Thu Nov 07 2024 14:08:20 GMT-0600 (Central Standard Time),168876.19999980927,A,chi,O,i,189,1,1067.1999998092651,167809.0,7027,WL,A,10.0
1,24.77500009536743,learn,35224.99990463257,Thu Nov 07 2024 14:08:20 GMT-0600 (Central Standard Time),169109.39999985695,A,chim,O,m,198,1,1300.3999998569489,167809.0,7027,WL,A,10.0
1,25.008000135421753,learn,34991.99986457825,Thu Nov 07 2024 14:08:20 GMT-0600 (Central Standard Time),169342.19999980927,A,chimn,O,n,204,1,1533.1999998092651,167809.0,7027,WL,A,10.0
1,25.19100022315979,learn,34808.99977684021,Thu Nov 07 2024 14:08:20 GMT-0600 (Central Standard Time),169525.5,A,chimne,O,e,159,1,1716.5,167809.0,7027,WL,A,10.0
1,25.475000143051147,learn,34524.99985694885,Thu Nov 07 2024 14:08:20 GMT-0600 (Central Standard Time),169808.79999995232,A,chimney,O,y,244,1,1999.7999999523163,167809.0,7027,WL,A,10.0
1,25.740000009536743,learn,34259.99999046326,Thu Nov 07 2024 14:08:20 GMT-0600 (Central Standard Time),170074.59999990463,A,chimneyenter,O,enter,239,1,2265.5999999046326,167809.0,7027,WL,A,10.0
1,26.408000230789185,learn,33591.999769210815,Thu Nov 07 2024 14:08:20 GMT-0600 (Central Standard Time),170742.09999990463,A,b,O,b,658,1,667.2999999523163,170074.79999995232,7027,WL,A,11.0
1,26.558000087738037,learn,33441.99991226196,Thu Nov 07 2024 14:08:20 GMT-0600 (Central Standard Time),170892.09999990463,A,bu,O,u,125,1,817.2999999523163,170074.79999995232,7027,WL,A,11.0
1,26.807000160217285,learn,33192.999839782715,Thu Nov 07 2024 14:08:20 GMT-0600 (Central Standard Time),171140.69999980927,A,but,O,t,213,1,1065.8999998569489,170074.79999995232,7027,WL,A,11.0
1,26.94000005722046,learn,33059.99994277954,Thu Nov 07 2024 14:08:20 GMT-0600 (Central Standard Time),171274.19999980927,A,butt,O,t,126,1,1199.3999998569489,170074.79999995232,7027,WL,A,11.0
1,27.140000104904175,learn,32859.999895095825,Thu Nov 07 2024 14:08:20 GMT-0600 (Central Standard Time),171473.89999985695,A,butto,O,o,185,1,1399.0999999046326,170074.79999995232,7027,WL,A,11.0
1,27.407000064849854,learn,32592.999935150146,Thu Nov 07 2024 14:08:20 GMT-0600 (Central Standard Time),171741.69999980927,A,buttom,O,m,250,1,1666.8999998569489,170074.79999995232,7027,WL,A,11.0
1,27.924000024795532,learn,32075.999975204468,Thu Nov 07 2024 14:08:20 GMT-0600 (Central Standard Time),172258.09999990463,A,butto,O,backspace,483,1,2183.2999999523163,170074.79999995232,7027,WL,A,11.0
1,28.490000009536743,learn,31509.999990463257,Thu Nov 07 2024 14:08:20 GMT-0600 (Central Standard Time),172824.59999990463,A,button,O,n,537,1,2749.7999999523163,170074.79999995232,7027,WL,A,11.0
1,28.75600004196167,learn,31243.99995803833,Thu Nov 07 2024 14:08:20 GMT-0600 (Central Standard Time),173090.29999995232,A,buttonenter,O,enter,229,1,3015.5,170074.79999995232,7027,WL,A,11.0
1,29.290000200271606,learn,30709.999799728394,Thu Nov 07 2024 14:08:20 GMT-0600 (Central Standard Time),173624.59999990463,A,l,O,l,515,1,534.0999999046326,173090.5,7027,WL,A,12.0
1,29.52300000190735,learn,30476.99999809265,Thu Nov 07 2024 14:08:20 GMT-0600 (Central Standard Time),173857.5,A,lo,O,o,194,1,767.0,173090.5,7027,WL,A,12.0
1,29.890000104904175,learn,30109.999895095825,Thu Nov 07 2024 14:08:20 GMT-0600 (Central Standard Time),174224.09999990463,A,log,O,g,330,1,1133.5999999046326,173090.5,7027,WL,A,12.0
1,30.32200002670288,learn,29677.99997329712,Thu Nov 07 2024 14:08:20 GMT-0600 (Central Standard Time),174656.39999985695,A,logenter,O,enter,394,1,1565.8999998569489,173090.5,7027,WL,A,12.0
1,30.94000005722046,learn,29059.99994277954,Thu Nov 07 2024 14:08:20 GMT-0600 (Central Standard Time),175273.89999985695,A,k,O,k,596,1,617.2000000476837,174656.69999980927,7027,WL,A,13.0
1,31.123000144958496,learn,28876.999855041504,Thu Nov 07 2024 14:08:20 GMT-0600 (Central Standard Time),175457.09999990463,A,ke,O,e,153,1,800.4000000953674,174656.69999980927,7027,WL,A,13.0
1,31.439000129699707,learn,28560.999870300293,Thu Nov 07 2024 14:08:20 GMT-0600 (Central Standard Time),175773.59999990463,A,key,O,y,282,1,1116.9000000953674,174656.69999980927,7027,WL,A,13.0
1,32.08800005912781,learn,27911.999940872192,Thu Nov 07 2024 14:08:20 GMT-0600 (Central Standard Time),176422.39999985695,A,keyenter,O,enter,612,1,1765.7000000476837,174656.69999980927,7027,WL,A,13.0
1,34.07200002670288,learn,25927.99997329712,Thu Nov 07 2024 14:08:20 GMT-0600 (Central Standard Time),178406.09999990463,A,g,O,g,1975,1,1983.4000000953674,176422.69999980927,7027,WL,A,14.0
1,34.2720000743866,learn,25727.999925613403,Thu Nov 07 2024 14:08:20 GMT-0600 (Central Standard Time),178606.0,A,go,O,o,173,1,2183.300000190735,176422.69999980927,7027,WL,A,14.0
1,34.5550000667572,learn,25444.999933242798,Thu Nov 07 2024 14:08:20 GMT-0600 (Central Standard Time),178889.09999990463,A,gol,O,l,253,1,2466.4000000953674,176422.69999980927,7027,WL,A,14.0
1,35.48800015449524,learn,24511.99984550476,Thu Nov 07 2024 14:08:20 GMT-0600 (Central Standard Time),179822.29999995232,A,gold,O,d,904,1,3399.600000143051,176422.69999980927,7027,WL,A,14.0
1,35.98800015449524,learn,24011.99984550476,Thu Nov 07 2024 14:08:20 GMT-0600 (Central Standard Time),180321.29999995232,A,goldenter,O,enter,460,1,3898.600000143051,176422.69999980927,7027,WL,A,14.0
1,44.3030002117157,learn,15696.999788284302,Thu Nov 07 2024 14:08:20 GMT-0600 (Central Standard Time),188636.19999980927,A,h,O,h,8293,1,8314.699999809265,180321.5,7027,WL,A,15.0
1,44.68600010871887,learn,15313.999891281128,Thu Nov 07 2024 14:08:20 GMT-0600 (Central Standard Time),189019.09999990463,A,ha,O,a,348,1,8697.599999904633,180321.5,7027,WL,A,15.0
1,45.069000005722046,learn,14930.999994277954,Thu Nov 07 2024 14:08:20 GMT-0600 (Central Standard Time),189402.59999990463,A,h,O,backspace,358,1,9081.099999904633,180321.5,7027,WL,A,15.0
1,45.551000118255615,learn,14448.999881744385,Thu Nov 07 2024 14:08:20 GMT-0600 (Central Standard Time),189884.79999995232,A,,O,backspace,448,1,9563.299999952316,180321.5,7027,WL,A,15.0
1,51.5,learn,8500.0,Thu Nov 07 2024 14:08:20 GMT-0600 (Central Standard Time),195833.69999980927,A,s,O,s,5928,1,15512.199999809265,180321.5,7027,WL,A,15.0
1,51.88300013542175,learn,8116.999864578247,Thu Nov 07 2024 14:08:20 GMT-0600 (Central Standard Time),196216.69999980927,A,,O,backspace,348,1,15895.199999809265,180321.5,7027,WL,A,15.0
1,52.05000019073486,learn,7949.999809265137,Thu Nov 07 2024 14:08:20 GMT-0600 (Central Standard Time),196383.5,A,r,O,r,140,1,16062.0,180321.5,7027,WL,A,15.0
1,52.16600012779236,learn,7833.999872207642,Thu Nov 07 2024 14:08:20 GMT-0600 (Central Standard Time),196499.29999995232,A,ra,O,a,90,1,16177.799999952316,180321.5,7027,WL,A,15.0
1,52.366000175476074,learn,7633.999824523926,Thu Nov 07 2024 14:08:20 GMT-0600 (Central Standard Time),196700.09999990463,A,rat,O,t,173,1,16378.599999904633,180321.5,7027,WL,A,15.0
1,52.51600003242493,learn,7483.999967575073,Thu Nov 07 2024 14:08:20 GMT-0600 (Central Standard Time),196849.89999985695,A,ratt,O,t,120,1,16528.39999985695,180321.5,7027,WL,A,15.0
1,52.88300013542175,learn,7116.999864578247,Thu Nov 07 2024 14:08:20 GMT-0600 (Central Standard Time),197216.5,A,rattl,O,l,338,1,16895.0,180321.5,7027,WL,A,15.0
1,53.23300004005432,learn,6766.999959945679,Thu Nov 07 2024 14:08:20 GMT-0600 (Central Standard Time),197566.39999985695,A,rattle,O,e,314,1,17244.89999985695,180321.5,7027,WL,A,15.0
1,53.46600008010864,learn,6533.999919891357,Thu Nov 07 2024 14:08:20 GMT-0600 (Central Standard Time),197799.89999985695,A,rattleenter,O,enter,204,1,17478.39999985695,180321.5,7027,WL,A,15.0
2,3.115999937057495,learn,56884.000062942505,Thu Nov 07 2024 14:08:20 GMT-0600 (Central Standard Time),270809.09999990463,A,f,O,f,3079,1,3115.4000000953674,267693.69999980927,7027,WL,A,1.0
2,3.2660000324249268,learn,56733.99996757507,Thu Nov 07 2024 14:08:20 GMT-0600 (Central Standard Time),270958.7999999523,A,fl,O,l,119,1,3265.100000143051,267693.69999980927,7027,WL,A,1.0
2,3.499000072479248,learn,56500.99992752075,Thu Nov 07 2024 14:08:20 GMT-0600 (Central Standard Time),271192.19999980927,A,flo,O,o,208,1,3498.5,267693.69999980927,7027,WL,A,1.0
2,3.7829999923706055,learn,56217.000007629395,Thu Nov 07 2024 14:08:20 GMT-0600 (Central Standard Time),271475.5,A,floe,O,e,252,1,3781.800000190735,267693.69999980927,7027,WL,A,1.0
2,4.315999984741211,learn,55684.00001525879,Thu Nov 07 2024 14:08:20 GMT-0600 (Central Standard Time),272008.59999990463,A,floer,O,r,496,1,4314.900000095367,267693.69999980927,7027,WL,A,1.0
2,4.749000072479248,learn,55250.99992752075,Thu Nov 07 2024 14:08:20 GMT-0600 (Central Standard Time),272441.69999980927,A,floe,O,backspace,403,1,4748.0,267693.69999980927,7027,WL,A,1.0
2,4.898999929428101,learn,55101.0000705719,Thu Nov 07 2024 14:08:20 GMT-0600 (Central Standard Time),272591.89999985695,A,flo,O,backspace,113,1,4898.200000047684,267693.69999980927,7027,WL,A,1.0
2,5.198999881744385,learn,54801.000118255615,Thu Nov 07 2024 14:08:20 GMT-0600 (Central Standard Time),272891.7999999523,A,fl,O,backspace,268,1,5198.100000143051,267693.69999980927,7027,WL,A,1.0
2,5.799000024795532,learn,54200.99997520447,Thu Nov 07 2024 14:08:20 GMT-0600 (Central Standard Time),273491.7999999523,A,flw,O,w,559,1,5798.100000143051,267693.69999980927,7027,WL,A,1.0
2,5.914999961853027,learn,54085.00003814697,Thu Nov 07 2024 14:08:20 GMT-0600 (Central Standard Time),273608.09999990463,A,flwe,O,e,87,1,5914.400000095367,267693.69999980927,7027,WL,A,1.0
2,6.414999961853027,learn,53585.00003814697,Thu Nov 07 2024 14:08:20 GMT-0600 (Central Standard Time),274108.2999999523,A,flwer,O,r,475,1,6414.600000143051,267693.69999980927,7027,WL,A,1.0
2,6.764999866485596,learn,53235.000133514404,Thu Nov 07 2024 14:08:20 GMT-0600 (Central Standard Time),274457.7999999523,A,flwe,O,backspace,315,1,6764.100000143051,267693.69999980927,7027,WL,A,1.0
2,6.947999954223633,learn,53052.00004577637,Thu Nov 07 2024 14:08:20 GMT-0600 (Central Standard Time),274641.19999980927,A,flw,O,backspace,143,1,6947.5,267693.69999980927,7027,WL,A,1.0
2,7.0980000495910645,learn,52901.999950408936,Thu Nov 07 2024 14:08:20 GMT-0600 (Central Standard Time),274791.09999990463,A,fl,O,backspace,114,1,7097.400000095367,267693.69999980927,7027,WL,A,1.0
2,7.697999954223633,learn,52302.00004577637,Thu Nov 07 2024 14:08:20 GMT-0600 (Central Standard Time),275390.69999980927,A,flo,O,o,564,1,7697.0,267693.69999980927,7027,WL,A,1.0
2,8.014999866485596,learn,51985.000133514404,Thu Nov 07 2024 14:08:20 GMT-0600 (Central Standard Time),275707.5,A,flow,O,w,276,1,8013.800000190735,267693.69999980927,7027,WL,A,1.0
2,8.114000082015991,learn,51885.99991798401,Thu Nov 07 2024 14:08:20 GMT-0600 (Central Standard Time),275806.69999980927,A,flowe,O,e,70,1,8113.0,267693.69999980927,7027,WL,A,1.0
2,8.563999891281128,learn,51436.00010871887,Thu Nov 07 2024 14:08:20 GMT-0600 (Central Standard Time),276257.19999980927,A,flower,O,r,425,1,8563.5,267693.69999980927,7027,WL,A,1.0
2,9.013999938964844,learn,50986.000061035156,Thu Nov 07 2024 14:08:20 GMT-0600 (Central Standard Time),276707.39999985695,A,flowerenter,O,enter,409,1,9013.700000047684,267693.69999980927,7027,WL,A,1.0
2,9.746999979019165,learn,50253.000020980835,Thu Nov 07 2024 14:08:20 GMT-0600 (Central Standard Time),277440.19999980927,A,b,O,b,722,1,732.5,276707.69999980927,7027,WL,A,2.0
2,9.96399998664856,learn,50036.00001335144,Thu Nov 07 2024 14:08:20 GMT-0600 (Central Standard Time),277656.89999985695,A,bo,O,o,185,1,949.2000000476837,276707.69999980927,7027,WL,A,2.0
2,10.114000082015991,learn,49885.99991798401,Thu Nov 07 2024 14:08:20 GMT-0600 (Central Standard Time),277806.7999999523,A,boo,O,o,115,1,1099.1000001430511,276707.69999980927,7027,WL,A,2.0
2,10.414000034332275,learn,49585.999965667725,Thu Nov 07 2024 14:08:20 GMT-0600 (Central Standard Time),278106.5,A,book,O,k,260,1,1398.8000001907349,276707.69999980927,7027,WL,A,2.0
2,10.729000091552734,learn,49270.999908447266,Thu Nov 07 2024 14:08:20 GMT-0600 (Central Standard Time),278422.2999999523,A,bookenter,O,enter,280,1,1714.6000001430511,276707.69999980927,7027,WL,A,2.0
2,11.19700002670288,learn,48802.99997329712,Thu Nov 07 2024 14:08:20 GMT-0600 (Central Standard Time),278889.69999980927,A,t,O,t,447,1,467.09999990463257,278422.59999990463,7027,WL,A,3.0
2,11.430000066757202,learn,48569.9999332428,Thu Nov 07 2024 14:08:20 GMT-0600 (Central Standard Time),279123.0,A,tr,O,r,194,1,700.4000000953674,278422.59999990463,7027,WL,A,3.0
2,11.596999883651733,learn,48403.00011634827,Thu Nov 07 2024 14:08:20 GMT-0600 (Central Standard Time),279289.7999999523,A,tra,O,a,128,1,867.2000000476837,278422.59999990463,7027,WL,A,3.0
2,11.77999997138977,learn,48220.00002861023,Thu Nov 07 2024 14:08:20 GMT-0600 (Central Standard Time),279472.89999985695,A,trai,O,i,145,1,1050.2999999523163,278422.59999990463,7027,WL,A,3.0
2,12.04699993133545,learn,47953.00006866455,Thu Nov 07 2024 14:08:20 GMT-0600 (Central Standard Time),279739.89999985695,A,train,O,n,243,1,1317.2999999523163,278422.59999990463,7027,WL,A,3.0
2,12.661999940872192,learn,47338.00005912781,Thu Nov 07 2024 14:08:20 GMT-0600 (Central Standard Time),280354.7999999523,A,trainenter,O,enter,591,1,1932.2000000476837,278422.59999990463,7027,WL,A,3.0
2,13.178999900817871,learn,46821.00009918213,Thu Nov 07 2024 14:08:20 GMT-0600 (Central Standard Time),280872.39999985695,A,r,O,r,506,1,517.2999999523163,280355.09999990463,7027,WL,A,4.0
2,13.463000059127808,learn,46536.99994087219,Thu Nov 07 2024 14:08:20 GMT-0600 (Central Standard Time),281155.5,A,ru,O,u,242,1,800.4000000953674,280355.09999990463,7027,WL,A,4.0
2,14.01200008392334,learn,45987.99991607666,Thu Nov 07 2024 14:08:20 GMT-0600 (Central Standard Time),281705.39999985695,A,rug,O,g,522,1,1350.2999999523163,280355.09999990463,7027,WL,A,4.0
2,14.628000020980835,learn,45371.999979019165,Thu Nov 07 2024 14:08:20 GMT-0600 (Central Standard Time),282321.09999990463,A,rugenter,O,enter,576,1,1966.0,280355.09999990463,7027,WL,A,4.0
2,15.045000076293945,learn,44954.999923706055,Thu Nov 07 2024 14:08:20 GMT-0600 (Central Standard Time),282738.2999999523,A,m,O,m,404,1,417.0,282321.2999999523,7027,WL,A,5.0
2,15.229000091552734,learn,44770.999908447266,Thu Nov 07 2024 14:08:20 GMT-0600 (Central Standard Time),282921.7999999523,A,me,O,e,145,1,600.5,282321.2999999523,7027,WL,A,5.0
2,15.328999996185303,learn,44671.0000038147,Thu Nov 07 2024 14:08:20 GMT-0600 (Central Standard Time),283021.89999985695,A,mea,O,a,66,1,700.5999999046326,282321.2999999523,7027,WL,A,5.0
2,15.51200008392334,learn,44487.99991607666,Thu Nov 07 2024 14:08:20 GMT-0600 (Central Standard Time),283204.7999999523,A,mead,O,d,148,1,883.5,282321.2999999523,7027,WL,A,5.0
2,15.644999980926514,learn,44355.000019073486,Thu Nov 07 2024 14:08:20 GMT-0600 (Central Standard Time),283338.2999999523,A,meado,O,o,92,1,1017.0,282321.2999999523,7027,WL,A,5.0
2,15.812000036239624,learn,44187.999963760376,Thu Nov 07 2024 14:08:20 GMT-0600 (Central Standard Time),283504.69999980927,A,meadow,O,w,137,1,1183.3999998569489,282321.2999999523,7027,WL,A,5.0
2,16.16100001335144,learn,43838.99998664856,Thu Nov 07 2024 14:08:20 GMT-0600 (Central Standard Time),283853.7999999523,A,meadowenter,O,enter,311,1,1532.5,282321.2999999523,7027,WL,A,5.0
2,16.710999965667725,learn,43289.000034332275,Thu Nov 07 2024 14:08:20 GMT-0600 (Central Standard Time),284404.19999980927,A,h,O,h,543,1,550.0,283854.19999980927,7027,WL,A,6.0
2,16.894999980926514,learn,43105.000019073486,Thu Nov 07 2024 14:08:20 GMT-0600 (Central Standard Time),284587.7999999523,A,ha,O,a,151,1,733.6000001430511,283854.19999980927,7027,WL,A,6.0
2,17.07800006866455,learn,42921.99993133545,Thu Nov 07 2024 14:08:20 GMT-0600 (Central Standard Time),284771.09999990463,A,har,O,r,151,1,916.9000000953674,283854.19999980927,7027,WL,A,6.0
2,17.394999980926514,learn,42605.000019073486,Thu Nov 07 2024 14:08:20 GMT-0600 (Central Standard Time),285087.69999980927,A,harp,O,p,279,1,1233.5,283854.19999980927,7027,WL,A,6.0
2,17.710999965667725,learn,42289.000034332275,Thu Nov 07 2024 14:08:20 GMT-0600 (Central Standard Time),285404.19999980927,A,harpenter,O,enter,291,1,1550.0,283854.19999980927,7027,WL,A,6.0
2,18.378000020980835,learn,41621.999979019165,Thu Nov 07 2024 14:08:20 GMT-0600 (Central Standard Time),286070.69999980927,A,s,O,s,657,1,666.1999998092651,285404.5,7027,WL,A,7.0
2,18.49399995803833,learn,41506.00004196167,Thu Nov 07 2024 14:08:20 GMT-0600 (Central Standard Time),286187.2999999523,A,sa,O,a,84,1,782.7999999523163,285404.5,7027,WL,A,7.0
2,18.66100001335144,learn,41338.99998664856,Thu Nov 07 2024 14:08:20 GMT-0600 (Central Standard Time),286354.0,A,sal,O,l,128,1,949.5,285404.5,7027,WL,A,7.0
2,18.97699999809265,learn,41023.00000190735,Thu Nov 07 2024 14:08:20 GMT-0600 (Central Standard Time),286670.5,A,salt,O,t,289,1,1266.0,285404.5,7027,WL,A,7.0
2,19.30999994277954,learn,40690.00005722046,Thu Nov 07 2024 14:08:20 GMT-0600 (Central Standard Time),287002.69999980927,A,saltenter,O,enter,300,1,1598.1999998092651,285404.5,7027,WL,A,7.0
2,19.91100001335144,learn,40088.99998664856,Thu Nov 07 2024 14:08:20 GMT-0600 (Central Standard Time),287603.59999990463,A,f,O,f,586,1,600.5,287003.09999990463,7027,WL,A,8.0
2,20.094000101089478,learn,39905.99989891052,Thu Nov 07 2024 14:08:20 GMT-0600 (Central Standard Time),287786.7999999523,A,fi,O,i,145,1,783.7000000476837,287003.09999990463,7027,WL,A,8.0
2,20.310999870300293,learn,39689.00012969971,Thu Nov 07 2024 14:08:20 GMT-0600 (Central Standard Time),288003.5,A,fin,O,n,179,1,1000.4000000953674,287003.09999990463,7027,WL,A,8.0
2,20.444000005722046,learn,39555.999994277954,Thu Nov 07 2024 14:08:20 GMT-0600 (Central Standard Time),288136.69999980927,A,fing,O,g,97,1,1133.5999999046326,287003.09999990463,7027,WL,A,8.0
2,20.64400005340576,learn,39355.99994659424,Thu Nov 07 2024 14:08:20 GMT-0600 (Central Standard Time),288336.59999990463,A,finge,O,e,171,1,1333.5,287003.09999990463,7027,WL,A,8.0
2,20.710000038146973,learn,39289.99996185303,Thu Nov 07 2024 14:08:20 GMT-0600 (Central Standard Time),288403.0,A,finger,O,r,42,1,1399.9000000953674,287003.09999990463,7027,WL,A,8.0
2,21.026000022888184,learn,38973.99997711182,Thu Nov 07 2024 14:08:20 GMT-0600 (Central Standard Time),288718.89999985695,A,fingerenter,O,enter,288,1,1715.7999999523163,287003.09999990463,7027,WL,A,8.0
2,21.32699990272522,learn,38673.00009727478,Thu Nov 07 2024 14:08:20 GMT-0600 (Central Standard Time),289019.59999990463,A,a,O,a,278,1,300.40000009536743,288719.19999980927,7027,WL,A,9.0
2,21.64299988746643,learn,38357.00011253357,Thu Nov 07 2024 14:08:20 GMT-0600 (Central Standard Time),289336.39999985695,A,ap,O,p,285,1,617.2000000476837,288719.19999980927,7027,WL,A,9.0
2,21.743000030517578,learn,38256.99996948242,Thu Nov 07 2024 14:08:20 GMT-0600 (Central Standard Time),289436.19999980927,A,app,O,p,74,1,717.0,288719.19999980927,7027,WL,A,9.0
2,21.960000038146973,learn,38039.99996185303,Thu Nov 07 2024 14:08:20 GMT-0600 (Central Standard Time),289653.0,A,appl,O,l,186,1,933.8000001907349,288719.19999980927,7027,WL,A,9.0
2,22.276000022888184,learn,37723.99997711182,Thu Nov 07 2024 14:08:20 GMT-0600 (Central Standard Time),289969.2999999523,A,apple,O,e,285,1,1250.1000001430511,288719.19999980927,7027,WL,A,9.0
2,22.52500009536743,learn,37474.99990463257,Thu Nov 07 2024 14:08:20 GMT-0600 (Central Standard Time),290218.39999985695,A,appleenter,O,enter,207,1,1499.2000000476837,288719.19999980927,7027,WL,A,9.0
2,22.859999895095825,learn,37140.000104904175,Thu Nov 07 2024 14:08:20 GMT-0600 (Central Standard Time),290552.59999990463,A,c,O,c,322,1,333.90000009536743,290218.69999980927,7027,WL,A,10.0
2,23.243000030517578,learn,36756.99996948242,Thu Nov 07 2024 14:08:20 GMT-0600 (Central Standard Time),290935.7999999523,A,ch,O,h,344,1,717.1000001430511,290218.69999980927,7027,WL,A,10.0
2,23.4760000705719,learn,36523.9999294281,Thu Nov 07 2024 14:08:20 GMT-0600 (Central Standard Time),291169.09999990463,A,chi,O,i,198,1,950.4000000953674,290218.69999980927,7027,WL,A,10.0
2,23.70899987220764,learn,36291.00012779236,Thu Nov 07 2024 14:08:20 GMT-0600 (Central Standard Time),291402.39999985695,A,chim,O,m,202,1,1183.7000000476837,290218.69999980927,7027,WL,A,10.0
2,23.943000078201294,learn,36056.999921798706,Thu Nov 07 2024 14:08:20 GMT-0600 (Central Standard Time),291635.59999990463,A,chimn,O,n,201,1,1416.9000000953674,290218.69999980927,7027,WL,A,10.0
2,24.29099988937378,learn,35709.00011062622,Thu Nov 07 2024 14:08:20 GMT-0600 (Central Standard Time),291984.19999980927,A,chimne,O,e,318,1,1765.5,290218.69999980927,7027,WL,A,10.0
2,24.55900001525879,learn,35440.99998474121,Thu Nov 07 2024 14:08:20 GMT-0600 (Central Standard Time),292252.0,A,chimney,O,y,260,1,2033.3000001907349,290218.69999980927,7027,WL,A,10.0
2,24.79099988937378,learn,35209.00011062622,Thu Nov 07 2024 14:08:20 GMT-0600 (Central Standard Time),292484.2999999523,A,chimneyenter,O,enter,206,1,2265.600000143051,290218.69999980927,7027,WL,A,10.0
2,25.308000087738037,learn,34691.99991226196,Thu Nov 07 2024 14:08:20 GMT-0600 (Central Standard Time),293001.2999999523,A,b,O,b,497,1,516.7999999523163,292484.5,7027,WL,A,11.0
2,25.47499990463257,learn,34525.00009536743,Thu Nov 07 2024 14:08:20 GMT-0600 (Central Standard Time),293168.39999985695,A,bu,O,u,147,1,683.8999998569489,292484.5,7027,WL,A,11.0
2,25.759000062942505,learn,34240.999937057495,Thu Nov 07 2024 14:08:20 GMT-0600 (Central Standard Time),293451.89999985695,A,but,O,t,259,1,967.3999998569489,292484.5,7027,WL,A,11.0
2,25.908999919891357,learn,34091.00008010864,Thu Nov 07 2024 14:08:20 GMT-0600 (Central Standard Time),293601.5,A,butt,O,t,120,1,1117.0,292484.5,7027,WL,A,11.0
2,26.05900001525879,learn,33940.99998474121,Thu Nov 07 2024 14:08:20 GMT-0600 (Central Standard Time),293751.5,A,butto,O,o,121,1,1267.0,292484.5,7027,WL,A,11.0
2,27.02500009536743,learn,32974.99990463257,Thu Nov 07 2024 14:08:20 GMT-0600 (Central Standard Time),294717.89999985695,A,button,O,n,940,1,2233.399999856949,292484.5,7027,WL,A,11.0
2,27.29099988937378,learn,32709.00011062622,Thu Nov 07 2024 14:08:20 GMT-0600 (Central Standard Time),294983.59999990463,A,buttonenter,O,enter,231,1,2499.0999999046326,292484.5,7027,WL,A,11.0
2,27.641000032424927,learn,32358.999967575073,Thu Nov 07 2024 14:08:20 GMT-0600 (Central Standard Time),295334.39999985695,A,l,O,l,334,1,350.59999990463257,294983.7999999523,7027,WL,A,12.0
2,27.891000032424927,learn,32108.999967575073,Thu Nov 07 2024 14:08:20 GMT-0600 (Central Standard Time),295584.2999999523,A,lo,O,o,213,1,600.5,294983.7999999523,7027,WL,A,12.0
2,28.10800004005432,learn,31891.99995994568,Thu Nov 07 2024 14:08:20 GMT-0600 (Central Standard Time),295800.7999999523,A,log,O,g,181,1,817.0,294983.7999999523,7027,WL,A,12.0
2,28.44000005722046,learn,31559.99994277954,Thu Nov 07 2024 14:08:20 GMT-0600 (Central Standard Time),296133.09999990463,A,logenter,O,enter,298,1,1149.2999999523163,294983.7999999523,7027,WL,A,12.0
2,28.874000072479248,learn,31125.999927520752,Thu Nov 07 2024 14:08:20 GMT-0600 (Central Standard Time),296567.19999980927,A,k,O,k,424,1,433.89999985694885,296133.2999999523,7027,WL,A,13.0
2,29.69099998474121,learn,30309.00001525879,Thu Nov 07 2024 14:08:20 GMT-0600 (Central Standard Time),297383.69999980927,A,ke,O,e,788,1,1250.3999998569489,296133.2999999523,7027,WL,A,13.0
2,30.374000072479248,learn,29625.999927520752,Thu Nov 07 2024 14:08:20 GMT-0600 (Central Standard Time),298066.69999980927,A,key,O,y,644,1,1933.3999998569489,296133.2999999523,7027,WL,A,13.0
2,31.039000034332275,learn,28960.999965667725,Thu Nov 07 2024 14:08:20 GMT-0600 (Central Standard Time),298732.2999999523,A,keyenter,O,enter,638,1,2599.0,296133.2999999523,7027,WL,A,13.0
2,31.572999954223633,learn,28427.000045776367,Thu Nov 07 2024 14:08:20 GMT-0600 (Central Standard Time),299266.39999985695,A,r,O,r,521,1,533.8999998569489,298732.5,7027,WL,A,14.0
2,31.67300009727478,learn,28326.99990272522,Thu Nov 07 2024 14:08:20 GMT-0600 (Central Standard Time),299366.2999999523,A,ra,O,a,65,1,633.7999999523163,298732.5,7027,WL,A,14.0
2,31.94000005722046,learn,28059.99994277954,Thu Nov 07 2024 14:08:20 GMT-0600 (Central Standard Time),299632.7999999523,A,rat,O,t,229,1,900.2999999523163,298732.5,7027,WL,A,14.0
2,32.08999991416931,learn,27910.00008583069,Thu Nov 07 2024 14:08:20 GMT-0600 (Central Standard Time),299783.0,A,ratt,O,t,122,1,1050.5,298732.5,7027,WL,A,14.0
2,32.27300000190735,learn,27726.99999809265,Thu Nov 07 2024 14:08:20 GMT-0600 (Central Standard Time),299966.0,A,rattl,O,l,157,1,1233.5,298732.5,7027,WL,A,14.0
2,32.45700001716614,learn,27542.999982833862,Thu Nov 07 2024 14:08:20 GMT-0600 (Central Standard Time),300149.39999985695,A,rattle,O,e,149,1,1416.8999998569489,298732.5,7027,WL,A,14.0
2,32.98900008201599,learn,27010.99991798401,Thu Nov 07 2024 14:08:20 GMT-0600 (Central Standard Time),300681.59999990463,A,rattleenter,O,enter,492,1,1949.0999999046326,298732.5,7027,WL,A,14.0
2,33.74000000953674,learn,26259.999990463257,Thu Nov 07 2024 14:08:20 GMT-0600 (Central Standard Time),301432.2999999523,A,g,O,g,740,1,750.4000000953674,300681.89999985695,7027,WL,A,15.0
2,33.87299990653992,learn,26127.000093460083,Thu Nov 07 2024 14:08:20 GMT-0600 (Central Standard Time),301565.59999990463,A,go,O,o,99,1,883.7000000476837,300681.89999985695,7027,WL,A,15.0
2,34.07299995422363,learn,25927.000045776367,Thu Nov 07 2024 14:08:20 GMT-0600 (Central Standard Time),301765.5,A,gol,O,l,164,1,1083.6000001430511,300681.89999985695,7027,WL,A,15.0
2,34.35599994659424,learn,25644.00005340576,Thu Nov 07 2024 14:08:20 GMT-0600 (Central Standard Time),302048.7999999523,A,gold,O,d,254,1,1366.9000000953674,300681.89999985695,7027,WL,A,15.0
2,34.7720000743866,learn,25227.999925613403,Thu Nov 07 2024 14:08:20 GMT-0600 (Central Standard Time),302464.2999999523,A,goldenter,O,enter,387,1,1782.4000000953674,300681.89999985695,7027,WL,A,15.0
3,1.1660001277923584,learn,58833.99987220764,Thu Nov 07 2024 14:08:20 GMT-0600 (Central Standard Time),373158.7999999523,A,b,O,b,1138,1,1165.6000001430511,371993.19999980927,7027,WL,A,1.0
3,1.5990002155303955,learn,58400.999784469604,Thu Nov 07 2024 14:08:20 GMT-0600 (Central Standard Time),373591.69999980927,A,bo,O,o,403,1,1598.5,371993.19999980927,7027,WL,A,1.0
3,1.81600022315979,learn,58183.99977684021,Thu Nov 07 2024 14:08:20 GMT-0600 (Central Standard Time),373808.5,A,boo,O,o,188,1,1815.3000001907349,371993.19999980927,7027,WL,A,1.0
3,2.0990002155303955,learn,57900.999784469604,Thu Nov 07 2024 14:08:20 GMT-0600 (Central Standard Time),374091.89999985695,A,book,O,k,242,1,2098.7000000476837,371993.19999980927,7027,WL,A,1.0
3,2.4650001525878906,learn,57534.99984741211,Thu Nov 07 2024 14:08:20 GMT-0600 (Central Standard Time),374457.2999999523,A,bookenter,O,enter,327,1,2464.100000143051,371993.19999980927,7027,WL,A,1.0
3,3.315000057220459,learn,56684.99994277954,Thu Nov 07 2024 14:08:20 GMT-0600 (Central Standard Time),375307.89999985695,A,f,O,f,828,1,850.2999999523163,374457.59999990463,7027,WL,A,2.0
3,3.4650001525878906,learn,56534.99984741211,Thu Nov 07 2024 14:08:20 GMT-0600 (Central Standard Time),375457.7999999523,A,fl,O,l,120,1,1000.2000000476837,374457.59999990463,7027,WL,A,2.0
3,3.698000192642212,learn,56301.99980735779,Thu Nov 07 2024 14:08:20 GMT-0600 (Central Standard Time),375691.19999980927,A,flo,O,o,201,1,1233.5999999046326,374457.59999990463,7027,WL,A,2.0
3,3.948000192642212,learn,56051.99980735779,Thu Nov 07 2024 14:08:20 GMT-0600 (Central Standard Time),375940.7999999523,A,flow,O,w,227,1,1483.2000000476837,374457.59999990463,7027,WL,A,2.0
3,4.015000104904175,learn,55984.999895095825,Thu Nov 07 2024 14:08:20 GMT-0600 (Central Standard Time),376007.5,A,flowe,O,e,37,1,1549.9000000953674,374457.59999990463,7027,WL,A,2.0
3,4.315000057220459,learn,55684.99994277954,Thu Nov 07 2024 14:08:20 GMT-0600 (Central Standard Time),376307.59999990463,A,flower,O,r,275,1,1850.0,374457.59999990463,7027,WL,A,2.0
3,4.547000169754028,learn,55452.99983024597,Thu Nov 07 2024 14:08:20 GMT-0600 (Central Standard Time),376540.0,A,flowerenter,O,enter,207,1,2082.4000000953674,374457.59999990463,7027,WL,A,2.0
3,5.297000169754028,learn,54702.99983024597,Thu Nov 07 2024 14:08:20 GMT-0600 (Central Standard Time),377289.59999990463,A,t,O,t,728,1,749.2999999523163,376540.2999999523,7027,WL,A,3.0
3,5.581000089645386,learn,54418.999910354614,Thu Nov 07 2024 14:08:20 GMT-0600 (Central Standard Time),377573.89999985695,A,tr,O,r,275,1,1033.5999999046326,376540.2999999523,7027,WL,A,3.0
3,5.731000185012817,learn,54268.99981498718,Thu Nov 07 2024 14:08:20 GMT-0600 (Central Standard Time),377723.7999999523,A,tra,O,a,117,1,1183.5,376540.2999999523,7027,WL,A,3.0
3,6.79800009727478,learn,53201.99990272522,Thu Nov 07 2024 14:08:20 GMT-0600 (Central Standard Time),378790.39999985695,A,trai,O,i,1032,1,2250.0999999046326,376540.2999999523,7027,WL,A,3.0
3,7.064000129699707,learn,52935.99987030029,Thu Nov 07 2024 14:08:20 GMT-0600 (Central Standard Time),379056.39999985695,A,train,O,n,228,1,2516.0999999046326,376540.2999999523,7027,WL,A,3.0
3,7.463000059127808,learn,52536.99994087219,Thu Nov 07 2024 14:08:20 GMT-0600 (Central Standard Time),379455.69999980927,A,trainenter,O,enter,366,1,2915.399999856949,376540.2999999523,7027,WL,A,3.0
3,8.247000217437744,learn,51752.999782562256,Thu Nov 07 2024 14:08:20 GMT-0600 (Central Standard Time),380240.0,A,r,O,r,774,1,784.0,379456.0,7027,WL,A,4.0
3,8.480000019073486,learn,51519.999980926514,Thu Nov 07 2024 14:08:20 GMT-0600 (Central Standard Time),380472.89999985695,A,ru,O,u,202,1,1016.8999998569489,379456.0,7027,WL,A,4.0
3,8.763000011444092,learn,51236.99998855591,Thu Nov 07 2024 14:08:20 GMT-0600 (Central Standard Time),380755.59999990463,A,rug,O,g,249,1,1299.5999999046326,379456.0,7027,WL,A,4.0
3,9.014000177383423,learn,50985.99982261658,Thu Nov 07 2024 14:08:20 GMT-0600 (Central Standard Time),381006.39999985695,A,rugenter,O,enter,225,1,1550.3999998569489,379456.0,7027,WL,A,4.0
3,9.980000019073486,learn,50019.999980926514,Thu Nov 07 2024 14:08:20 GMT-0600 (Central Standard Time),381972.39999985695,A,m,O,m,959,1,965.7999999523163,381006.59999990463,7027,WL,A,5.0
3,10.496000051498413,learn,49503.99994850159,Thu Nov 07 2024 14:08:20 GMT-0600 (Central Standard Time),382489.0,A,me,O,e,478,1,1482.4000000953674,381006.59999990463,7027,WL,A,5.0
3,10.578999996185303,learn,49421.0000038147,Thu Nov 07 2024 14:08:20 GMT-0600 (Central Standard Time),382571.5,A,mea,O,a,57,1,1564.9000000953674,381006.59999990463,7027,WL,A,5.0
3,10.813000202178955,learn,49186.999797821045,Thu Nov 07 2024 14:08:20 GMT-0600 (Central Standard Time),382805.39999985695,A,mead,O,d,217,1,1798.7999999523163,381006.59999990463,7027,WL,A,5.0
3,10.996000051498413,learn,49003.99994850159,Thu Nov 07 2024 14:08:20 GMT-0600 (Central Standard Time),382988.69999980927,A,meado,O,o,158,1,1982.0999999046326,381006.59999990463,7027,WL,A,5.0
3,11.17900013923645,learn,48820.99986076355,Thu Nov 07 2024 14:08:20 GMT-0600 (Central Standard Time),383172.2999999523,A,meadow,O,w,140,1,2165.7000000476837,381006.59999990463,7027,WL,A,5.0
3,11.445000171661377,learn,48554.99982833862,Thu Nov 07 2024 14:08:20 GMT-0600 (Central Standard Time),383437.69999980927,A,meadowenter,O,enter,230,1,2431.0999999046326,381006.59999990463,7027,WL,A,5.0
3,12.063000202178955,learn,47936.999797821045,Thu Nov 07 2024 14:08:20 GMT-0600 (Central Standard Time),384055.2999999523,A,h,O,h,599,1,617.2999999523163,383438.0,7027,WL,A,6.0
3,12.212000131607056,learn,47787.999868392944,Thu Nov 07 2024 14:08:20 GMT-0600 (Central Standard Time),384204.59999990463,A,ha,O,a,123,1,766.5999999046326,383438.0,7027,WL,A,6.0
3,12.412000179290771,learn,47587.99982070923,Thu Nov 07 2024 14:08:20 GMT-0600 (Central Standard Time),384404.69999980927,A,har,O,r,175,1,966.6999998092651,383438.0,7027,WL,A,6.0
3,12.695000171661377,learn,47304.99982833862,Thu Nov 07 2024 14:08:20 GMT-0600 (Central Standard Time),384688.19999980927,A,harp,O,p,253,1,1250.1999998092651,383438.0,7027,WL,A,6.0
3,12.928000211715698,learn,47071.9997882843,Thu Nov 07 2024 14:08:20 GMT-0600 (Central Standard Time),384920.59999990463,A,harpenter,O,enter,204,1,1482.5999999046326,383438.0,7027,WL,A,6.0
3,13.728000164031982,learn,46271.99983596802,Thu Nov 07 2024 14:08:20 GMT-0600 (Central Standard Time),385721.19999980927,A,s,O,s,780,1,800.3999998569489,384920.7999999523,7027,WL,A,7.0
3,13.811000108718872,learn,46188.99989128113,Thu Nov 07 2024 14:08:20 GMT-0600 (Central Standard Time),385804.0,A,sa,O,a,50,1,883.2000000476837,384920.7999999523,7027,WL,A,7.0
3,14.028000116348267,learn,45971.99988365173,Thu Nov 07 2024 14:08:20 GMT-0600 (Central Standard Time),386021.09999990463,A,sal,O,l,193,1,1100.2999999523163,384920.7999999523,7027,WL,A,7.0
3,14.84500002861023,learn,45154.99997138977,Thu Nov 07 2024 14:08:20 GMT-0600 (Central Standard Time),386837.69999980927,A,salt,O,t,782,1,1916.8999998569489,384920.7999999523,7027,WL,A,7.0
3,15.81000018119812,learn,44189.99981880188,Thu Nov 07 2024 14:08:20 GMT-0600 (Central Standard Time),387802.89999985695,A,saltenter,O,enter,932,1,2882.0999999046326,384920.7999999523,7027,WL,A,7.0
3,16.194000005722046,learn,43805.999994277954,Thu Nov 07 2024 14:08:20 GMT-0600 (Central Standard Time),388187.19999980927,A,a,O,a,362,1,384.09999990463257,387803.09999990463,7027,WL,A,8.0
3,16.544000148773193,learn,43455.99985122681,Thu Nov 07 2024 14:08:20 GMT-0600 (Central Standard Time),388536.69999980927,A,ap,O,p,319,1,733.5999999046326,387803.09999990463,7027,WL,A,8.0
3,16.778000116348267,learn,43221.99988365173,Thu Nov 07 2024 14:08:20 GMT-0600 (Central Standard Time),388770.7999999523,A,app,O,p,195,1,967.7000000476837,387803.09999990463,7027,WL,A,8.0
3,17.027000188827515,learn,42972.999811172485,Thu Nov 07 2024 14:08:20 GMT-0600 (Central Standard Time),389020.19999980927,A,appl,O,l,220,1,1217.0999999046326,387803.09999990463,7027,WL,A,8.0
3,17.3270001411438,learn,42672.9998588562,Thu Nov 07 2024 14:08:20 GMT-0600 (Central Standard Time),389320.09999990463,A,apple,O,e,263,1,1517.0,387803.09999990463,7027,WL,A,8.0
3,17.759999990463257,learn,42240.00000953674,Thu Nov 07 2024 14:08:20 GMT-0600 (Central Standard Time),389752.19999980927,A,appleenter,O,enter,403,1,1949.0999999046326,387803.09999990463,7027,WL,A,8.0
3,18.259999990463257,learn,41740.00000953674,Thu Nov 07 2024 14:08:20 GMT-0600 (Central Standard Time),390252.7999999523,A,f,O,f,493,1,500.2999999523163,389752.5,7027,WL,A,9.0
3,18.56000018119812,learn,41439.99981880188,Thu Nov 07 2024 14:08:20 GMT-0600 (Central Standard Time),390552.7999999523,A,fi,O,i,263,1,800.2999999523163,389752.5,7027,WL,A,9.0
3,18.8270001411438,learn,41172.9998588562,Thu Nov 07 2024 14:08:20 GMT-0600 (Central Standard Time),390819.59999990463,A,fin,O,n,228,1,1067.0999999046326,389752.5,7027,WL,A,9.0
3,19.64300012588501,learn,40356.99987411499,Thu Nov 07 2024 14:08:20 GMT-0600 (Central Standard Time),391636.19999980927,A,fing,O,g,790,1,1883.6999998092651,389752.5,7027,WL,A,9.0
3,20.093000173568726,learn,39906.999826431274,Thu Nov 07 2024 14:08:20 GMT-0600 (Central Standard Time),392085.7999999523,A,finge,O,e,423,1,2333.2999999523163,389752.5,7027,WL,A,9.0
3,20.193000078201294,learn,39806.999921798706,Thu Nov 07 2024 14:08:20 GMT-0600 (Central Standard Time),392185.7999999523,A,finger,O,r,70,1,2433.2999999523163,389752.5,7027,WL,A,9.0
3,20.54200005531311,learn,39457.99994468689,Thu Nov 07 2024 14:08:20 GMT-0600 (Central Standard Time),392534.69999980927,A,fingerenter,O,enter,312,1,2782.199999809265,389752.5,7027,WL,A,9.0
3,21.259000062942505,learn,38740.999937057495,Thu Nov 07 2024 14:08:20 GMT-0600 (Central Standard Time),393252.19999980927,A,c,O,c,702,1,717.2999999523163,392534.89999985695,7027,WL,A,10.0
3,21.593000173568726,learn,38406.999826431274,Thu Nov 07 2024 14:08:20 GMT-0600 (Central Standard Time),393585.39999985695,A,ch,O,h,302,1,1050.5,392534.89999985695,7027,WL,A,10.0
3,21.843000173568726,learn,38156.999826431274,Thu Nov 07 2024 14:08:20 GMT-0600 (Central Standard Time),393835.59999990463,A,chi,O,i,210,1,1300.7000000476837,392534.89999985695,7027,WL,A,10.0
3,22.092000007629395,learn,37907.999992370605,Thu Nov 07 2024 14:08:20 GMT-0600 (Central Standard Time),394085.0,A,chim,O,m,224,1,1550.1000001430511,392534.89999985695,7027,WL,A,10.0
3,22.326000213623047,learn,37673.99978637695,Thu Nov 07 2024 14:08:20 GMT-0600 (Central Standard Time),394318.2999999523,A,chimn,O,n,199,1,1783.4000000953674,392534.89999985695,7027,WL,A,10.0
3,22.492000102996826,learn,37507.999897003174,Thu Nov 07 2024 14:08:20 GMT-0600 (Central Standard Time),394484.69999980927,A,chimne,O,e,141,1,1949.7999999523163,392534.89999985695,7027,WL,A,10.0
3,22.992000102996826,learn,37007.999897003174,Thu Nov 07 2024 14:08:20 GMT-0600 (Central Standard Time),394984.89999985695,A,chimney,O,y,463,1,2450.0,392534.89999985695,7027,WL,A,10.0
3,23.491000175476074,learn,36508.999824523926,Thu Nov 07 2024 14:08:20 GMT-0600 (Central Standard Time),395483.69999980927,A,chimneyenter,O,enter,472,1,2948.7999999523163,392534.89999985695,7027,WL,A,10.0
3,23.992000102996826,learn,36007.999897003174,Thu Nov 07 2024 14:08:20 GMT-0600 (Central Standard Time),395984.39999985695,A,l,O,l,482,1,500.39999985694885,395484.0,7027,WL,A,11.0
3,24.20800018310547,learn,35791.99981689453,Thu Nov 07 2024 14:08:20 GMT-0600 (Central Standard Time),396201.09999990463,A,lo,O,o,178,1,717.0999999046326,395484.0,7027,WL,A,11.0
3,24.492000102996826,learn,35507.999897003174,Thu Nov 07 2024 14:08:20 GMT-0600 (Central Standard Time),396484.2999999523,A,log,O,g,250,1,1000.2999999523163,395484.0,7027,WL,A,11.0
3,24.991000175476074,learn,35008.999824523926,Thu Nov 07 2024 14:08:20 GMT-0600 (Central Standard Time),396983.2999999523,A,logenter,O,enter,462,1,1499.2999999523163,395484.0,7027,WL,A,11.0
3,25.54100012779236,learn,34458.99987220764,Thu Nov 07 2024 14:08:20 GMT-0600 (Central Standard Time),397533.7999999523,A,k,O,k,542,1,550.2000000476837,396983.59999990463,7027,WL,A,12.0
3,25.891000032424927,learn,34108.99996757507,Thu Nov 07 2024 14:08:20 GMT-0600 (Central Standard Time),397883.89999985695,A,ke,O,e,316,1,900.2999999523163,396983.59999990463,7027,WL,A,12.0
3,26.69100022315979,learn,33308.99977684021,Thu Nov 07 2024 14:08:20 GMT-0600 (Central Standard Time),398683.5,A,key,O,y,768,1,1699.9000000953674,396983.59999990463,7027,WL,A,12.0
3,27.240000009536743,learn,32759.999990463257,Thu Nov 07 2024 14:08:20 GMT-0600 (Central Standard Time),399232.39999985695,A,keyenter,O,enter,511,1,2248.7999999523163,396983.59999990463,7027,WL,A,12.0
3,27.52400016784668,learn,32475.99983215332,Thu Nov 07 2024 14:08:20 GMT-0600 (Central Standard Time),399516.69999980927,A,r,O,r,269,1,284.0,399232.69999980927,7027,WL,A,13.0
3,27.657000064849854,learn,32342.999935150146,Thu Nov 07 2024 14:08:20 GMT-0600 (Central Standard Time),399649.39999985695,A,ra,O,a,101,1,416.7000000476837,399232.69999980927,7027,WL,A,13.0
3,27.924000024795532,learn,32075.999975204468,Thu Nov 07 2024 14:08:20 GMT-0600 (Central Standard Time),399916.5,A,rat,O,t,244,1,683.8000001907349,399232.69999980927,7027,WL,A,13.0
3,28.074000120162964,learn,31925.999879837036,Thu Nov 07 2024 14:08:20 GMT-0600 (Central Standard Time),400066.59999990463,A,ratt,O,t,117,1,833.9000000953674,399232.69999980927,7027,WL,A,13.0
3,28.19000005722046,learn,31809.99994277954,Thu Nov 07 2024 14:08:20 GMT-0600 (Central Standard Time),400183.09999990463,A,rattl,O,l,81,1,950.4000000953674,399232.69999980927,7027,WL,A,13.0
3,28.392000198364258,learn,31607.999801635742,Thu Nov 07 2024 14:08:20 GMT-0600 (Central Standard Time),400384.69999980927,A,rattle,O,e,161,1,1152.0,399232.69999980927,7027,WL,A,13.0
3,28.6560001373291,learn,31343.9998626709,Thu Nov 07 2024 14:08:20 GMT-0600 (Central Standard Time),400648.69999980927,A,rattleenter,O,enter,238,1,1416.0,399232.69999980927,7027,WL,A,13.0
3,29.240000009536743,learn,30759.999990463257,Thu Nov 07 2024 14:08:20 GMT-0600 (Central Standard Time),401232.89999985695,A,g,O,g,573,1,583.8999998569489,400649.0,7027,WL,A,14.0
3,29.42300009727478,learn,30576.99990272522,Thu Nov 07 2024 14:08:20 GMT-0600 (Central Standard Time),401416.0,A,go,O,o,146,1,767.0,400649.0,7027,WL,A,14.0
3,29.640000104904175,learn,30359.999895095825,Thu Nov 07 2024 14:08:20 GMT-0600 (Central Standard Time),401632.69999980927,A,gol,O,l,187,1,983.6999998092651,400649.0,7027,WL,A,14.0
3,29.890000104904175,learn,30109.999895095825,Thu Nov 07 2024 14:08:20 GMT-0600 (Central Standard Time),401882.5,A,gold,O,d,218,1,1233.5,400649.0,7027,WL,A,14.0
3,30.122000217437744,learn,29877.999782562256,Thu Nov 07 2024 14:08:20 GMT-0600 (Central Standard Time),402114.89999985695,A,goldenter,O,enter,204,1,1465.8999998569489,400649.0,7027,WL,A,14.0
3,46.551000118255615,learn,13448.999881744385,Thu Nov 07 2024 14:08:20 GMT-0600 (Central Standard Time),418543.89999985695,A,r,O,r,16411,1,16428.700000047684,402115.19999980927,7027,WL,A,15.0
3,46.76800012588501,learn,13231.99987411499,Thu Nov 07 2024 14:08:20 GMT-0600 (Central Standard Time),418760.39999985695,A,ru,O,u,186,1,16645.200000047684,402115.19999980927,7027,WL,A,15.0
3,47.00100016593933,learn,12998.999834060669,Thu Nov 07 2024 14:08:20 GMT-0600 (Central Standard Time),418993.59999990463,A,rug,O,g,195,1,16878.400000095367,402115.19999980927,7027,WL,A,15.0
3,47.43300008773804,learn,12566.999912261963,Thu Nov 07 2024 14:08:20 GMT-0600 (Central Standard Time),419425.89999985695,A,rugenter,O,enter,401,1,17310.700000047684,402115.19999980927,7027,WL,A,15.0
4,1.1339998245239258,learn,58866.000175476074,Thu Nov 07 2024 14:08:20 GMT-0600 (Central Standard Time),491570.19999980927,A,b,O,b,1096,1,1132.5999999046326,490437.59999990463,7027,WL,A,1.0
4,1.5329999923706055,learn,58467.000007629395,Thu Nov 07 2024 14:08:20 GMT-0600 (Central Standard Time),491969.59999990463,A,bo,O,o,368,1,1532.0,490437.59999990463,7027,WL,A,1.0
4,1.7660000324249268,learn,58233.99996757507,Thu Nov 07 2024 14:08:20 GMT-0600 (Central Standard Time),492202.89999985695,A,boo,O,o,203,1,1765.2999999523163,490437.59999990463,7027,WL,A,1.0
4,2.4489998817443848,learn,57551.000118255615,Thu Nov 07 2024 14:08:20 GMT-0600 (Central Standard Time),492885.89999985695,A,book,O,k,649,1,2448.2999999523163,490437.59999990463,7027,WL,A,1.0
4,2.797999858856201,learn,57202.0001411438,Thu Nov 07 2024 14:08:20 GMT-0600 (Central Standard Time),493234.89999985695,A,bookenter,O,enter,316,1,2797.2999999523163,490437.59999990463,7027,WL,A,1.0
4,3.748999834060669,learn,56251.00016593933,Thu Nov 07 2024 14:08:20 GMT-0600 (Central Standard Time),494185.59999990463,A,f,O,f,930,1,950.4000000953674,493235.19999980927,7027,WL,A,2.0
4,3.8989999294281006,learn,56101.0000705719,Thu Nov 07 2024 14:08:20 GMT-0600 (Central Standard Time),494335.5,A,fl,O,l,122,1,1100.3000001907349,493235.19999980927,7027,WL,A,2.0
4,4.148999929428101,learn,55851.0000705719,Thu Nov 07 2024 14:08:20 GMT-0600 (Central Standard Time),494585.39999985695,A,flo,O,o,212,1,1350.2000000476837,493235.19999980927,7027,WL,A,2.0
4,4.414999961853027,learn,55585.00003814697,Thu Nov 07 2024 14:08:20 GMT-0600 (Central Standard Time),494852.09999990463,A,flow,O,w,233,1,1616.9000000953674,493235.19999980927,7027,WL,A,2.0
4,4.4649999141693115,learn,55535.00008583069,Thu Nov 07 2024 14:08:20 GMT-0600 (Central Standard Time),494901.59999990463,A,flowe,O,e,17,1,1666.4000000953674,493235.19999980927,7027,WL,A,2.0
4,4.931999921798706,learn,55068.000078201294,Thu Nov 07 2024 14:08:20 GMT-0600 (Central Standard Time),495368.5,A,flower,O,r,439,1,2133.300000190735,493235.19999980927,7027,WL,A,2.0
4,5.297999858856201,learn,54702.0001411438,Thu Nov 07 2024 14:08:20 GMT-0600 (Central Standard Time),495734.09999990463,A,flowerenter,O,enter,338,1,2498.9000000953674,493235.19999980927,7027,WL,A,2.0
4,5.81499981880188,learn,54185.00018119812,Thu Nov 07 2024 14:08:20 GMT-0600 (Central Standard Time),496251.59999990463,A,t,O,t,495,1,517.2000000476837,495734.39999985695,7027,WL,A,3.0
4,6.164999961853027,learn,53835.00003814697,Thu Nov 07 2024 14:08:20 GMT-0600 (Central Standard Time),496601.5,A,tr,O,r,318,1,867.1000001430511,495734.39999985695,7027,WL,A,3.0
4,6.38100004196167,learn,53618.99995803833,Thu Nov 07 2024 14:08:20 GMT-0600 (Central Standard Time),496818.09999990463,A,tra,O,a,186,1,1083.7000000476837,495734.39999985695,7027,WL,A,3.0
4,6.582000017166138,learn,53417.99998283386,Thu Nov 07 2024 14:08:20 GMT-0600 (Central Standard Time),497018.09999990463,A,trai,O,i,163,1,1283.7000000476837,495734.39999985695,7027,WL,A,3.0
4,6.830999851226807,learn,53169.00014877319,Thu Nov 07 2024 14:08:20 GMT-0600 (Central Standard Time),497268.0,A,train,O,n,224,1,1533.6000001430511,495734.39999985695,7027,WL,A,3.0
4,7.263999938964844,learn,52736.000061035156,Thu Nov 07 2024 14:08:20 GMT-0600 (Central Standard Time),497700.0,A,trainenter,O,enter,406,1,1965.6000001430511,495734.39999985695,7027,WL,A,3.0
4,7.7809998989105225,learn,52219.00010108948,Thu Nov 07 2024 14:08:20 GMT-0600 (Central Standard Time),498217.39999985695,A,r,O,r,497,1,517.0999999046326,497700.2999999523,7027,WL,A,4.0
4,8.030999898910522,learn,51969.00010108948,Thu Nov 07 2024 14:08:20 GMT-0600 (Central Standard Time),498467.59999990463,A,ru,O,u,209,1,767.2999999523163,497700.2999999523,7027,WL,A,4.0
4,8.246000051498413,learn,51753.99994850159,Thu Nov 07 2024 14:08:20 GMT-0600 (Central Standard Time),498683.0,A,rug,O,g,191,1,982.7000000476837,497700.2999999523,7027,WL,A,4.0
4,8.562999963760376,learn,51437.000036239624,Thu Nov 07 2024 14:08:20 GMT-0600 (Central Standard Time),498999.7999999523,A,rugenter,O,enter,305,1,1299.5,497700.2999999523,7027,WL,A,4.0
4,9.212999820709229,learn,50787.00017929077,Thu Nov 07 2024 14:08:20 GMT-0600 (Central Standard Time),499649.39999985695,A,m,O,m,637,1,649.3999998569489,499000.0,7027,WL,A,5.0
4,9.629999876022339,learn,50370.00012397766,Thu Nov 07 2024 14:08:20 GMT-0600 (Central Standard Time),500066.2999999523,A,me,O,e,403,1,1066.2999999523163,499000.0,7027,WL,A,5.0
4,9.829999923706055,learn,50170.000076293945,Thu Nov 07 2024 14:08:20 GMT-0600 (Central Standard Time),500266.7999999523,A,mea,O,a,180,1,1266.7999999523163,499000.0,7027,WL,A,5.0
4,10.062999963760376,learn,49937.000036239624,Thu Nov 07 2024 14:08:20 GMT-0600 (Central Standard Time),500499.09999990463,A,mead,O,d,209,1,1499.0999999046326,499000.0,7027,WL,A,5.0
4,10.246000051498413,learn,49753.99994850159,Thu Nov 07 2024 14:08:20 GMT-0600 (Central Standard Time),500682.7999999523,A,meado,O,o,159,1,1682.7999999523163,499000.0,7027,WL,A,5.0
4,10.562999963760376,learn,49437.000036239624,Thu Nov 07 2024 14:08:20 GMT-0600 (Central Standard Time),501000.0,A,meadow,O,w,301,1,2000.0,499000.0,7027,WL,A,5.0
4,10.845999956130981,learn,49154.00004386902,Thu Nov 07 2024 14:08:20 GMT-0600 (Central Standard Time),501282.19999980927,A,meadowenter,O,enter,252,1,2282.199999809265,499000.0,7027,WL,A,5.0
4,11.36299991607666,learn,48637.00008392334,Thu Nov 07 2024 14:08:20 GMT-0600 (Central Standard Time),501799.7999999523,A,h,O,h,507,1,517.2999999523163,501282.5,7027,WL,A,6.0
4,11.513000011444092,learn,48486.99998855591,Thu Nov 07 2024 14:08:20 GMT-0600 (Central Standard Time),501949.59999990463,A,ha,O,a,123,1,667.0999999046326,501282.5,7027,WL,A,6.0
4,11.879999876022339,learn,48120.00012397766,Thu Nov 07 2024 14:08:20 GMT-0600 (Central Standard Time),502316.2999999523,A,har,O,r,334,1,1033.7999999523163,501282.5,7027,WL,A,6.0
4,12.129999876022339,learn,47870.00012397766,Thu Nov 07 2024 14:08:20 GMT-0600 (Central Standard Time),502566.09999990463,A,harp,O,p,214,1,1283.5999999046326,501282.5,7027,WL,A,6.0
4,12.361999988555908,learn,47638.00001144409,Thu Nov 07 2024 14:08:20 GMT-0600 (Central Standard Time),502798.39999985695,A,harpenter,O,enter,204,1,1515.8999998569489,501282.5,7027,WL,A,6.0
4,12.94599986076355,learn,47054.00013923645,Thu Nov 07 2024 14:08:20 GMT-0600 (Central Standard Time),503382.5,A,s,O,s,575,1,583.7000000476837,502798.7999999523,7027,WL,A,7.0
4,13.029000043869019,learn,46970.99995613098,Thu Nov 07 2024 14:08:20 GMT-0600 (Central Standard Time),503465.39999985695,A,sa,O,a,44,1,666.5999999046326,502798.7999999523,7027,WL,A,7.0
4,13.228999853134155,learn,46771.000146865845,Thu Nov 07 2024 14:08:20 GMT-0600 (Central Standard Time),503665.7999999523,A,sal,O,l,178,1,867.0,502798.7999999523,7027,WL,A,7.0
4,13.529000043869019,learn,46470.99995613098,Thu Nov 07 2024 14:08:20 GMT-0600 (Central Standard Time),503965.69999980927,A,salt,O,t,265,1,1166.8999998569489,502798.7999999523,7027,WL,A,7.0
4,13.760999917984009,learn,46239.00008201599,Thu Nov 07 2024 14:08:20 GMT-0600 (Central Standard Time),504198.0,A,saltenter,O,enter,197,1,1399.2000000476837,502798.7999999523,7027,WL,A,7.0
4,14.494999885559082,learn,45505.00011444092,Thu Nov 07 2024 14:08:20 GMT-0600 (Central Standard Time),504931.89999985695,A,f,O,f,719,1,733.5999999046326,504198.2999999523,7027,WL,A,8.0
4,14.711999893188477,learn,45288.00010681152,Thu Nov 07 2024 14:08:20 GMT-0600 (Central Standard Time),505148.59999990463,A,fi,O,i,186,1,950.2999999523163,504198.2999999523,7027,WL,A,8.0
4,14.961999893188477,learn,45038.00010681152,Thu Nov 07 2024 14:08:20 GMT-0600 (Central Standard Time),505398.59999990463,A,fin,O,n,215,1,1200.2999999523163,504198.2999999523,7027,WL,A,8.0
4,15.194999933242798,learn,44805.0000667572,Thu Nov 07 2024 14:08:20 GMT-0600 (Central Standard Time),505631.89999985695,A,fing,O,g,204,1,1433.5999999046326,504198.2999999523,7027,WL,A,8.0
4,15.494999885559082,learn,44505.00011444092,Thu Nov 07 2024 14:08:20 GMT-0600 (Central Standard Time),505931.69999980927,A,finge,O,e,268,1,1733.3999998569489,504198.2999999523,7027,WL,A,8.0
4,15.543999910354614,learn,44456.000089645386,Thu Nov 07 2024 14:08:20 GMT-0600 (Central Standard Time),505980.89999985695,A,finger,O,r,21,1,1782.5999999046326,504198.2999999523,7027,WL,A,8.0
4,15.927000045776367,learn,44072.99995422363,Thu Nov 07 2024 14:08:20 GMT-0600 (Central Standard Time),506364.0,A,fingerenter,O,enter,360,1,2165.7000000476837,504198.2999999523,7027,WL,A,8.0
4,16.294999837875366,learn,43705.000162124634,Thu Nov 07 2024 14:08:20 GMT-0600 (Central Standard Time),506731.2999999523,A,a,O,a,345,1,367.10000014305115,506364.19999980927,7027,WL,A,9.0
4,16.67799997329712,learn,43322.00002670288,Thu Nov 07 2024 14:08:20 GMT-0600 (Central Standard Time),507114.5,A,ap,O,p,348,1,750.3000001907349,506364.19999980927,7027,WL,A,9.0
4,16.810999870300293,learn,43189.00012969971,Thu Nov 07 2024 14:08:20 GMT-0600 (Central Standard Time),507247.7999999523,A,app,O,p,104,1,883.6000001430511,506364.19999980927,7027,WL,A,9.0
4,17.044999837875366,learn,42955.000162124634,Thu Nov 07 2024 14:08:20 GMT-0600 (Central Standard Time),507481.2999999523,A,appl,O,l,195,1,1117.1000001430511,506364.19999980927,7027,WL,A,9.0
4,17.32799983024597,learn,42672.00016975403,Thu Nov 07 2024 14:08:20 GMT-0600 (Central Standard Time),507764.39999985695,A,apple,O,e,254,1,1400.2000000476837,506364.19999980927,7027,WL,A,9.0
4,17.609999895095825,learn,42390.000104904175,Thu Nov 07 2024 14:08:20 GMT-0600 (Central Standard Time),508046.69999980927,A,appleenter,O,enter,243,1,1682.5,506364.19999980927,7027,WL,A,9.0
4,18.24399995803833,learn,41756.00004196167,Thu Nov 07 2024 14:08:20 GMT-0600 (Central Standard Time),508680.69999980927,A,c,O,c,615,1,633.6999998092651,508047.0,7027,WL,A,10.0
4,18.57699990272522,learn,41423.00009727478,Thu Nov 07 2024 14:08:20 GMT-0600 (Central Standard Time),509013.7999999523,A,ch,O,h,301,1,966.7999999523163,508047.0,7027,WL,A,10.0
4,18.860999822616577,learn,41139.00017738342,Thu Nov 07 2024 14:08:20 GMT-0600 (Central Standard Time),509297.2999999523,A,chi,O,i,257,1,1250.2999999523163,508047.0,7027,WL,A,10.0
4,19.126999855041504,learn,40873.000144958496,Thu Nov 07 2024 14:08:20 GMT-0600 (Central Standard Time),509563.89999985695,A,chim,O,m,234,1,1516.8999998569489,508047.0,7027,WL,A,10.0
4,19.359999895095825,learn,40640.000104904175,Thu Nov 07 2024 14:08:20 GMT-0600 (Central Standard Time),509796.7999999523,A,chimn,O,n,207,1,1749.7999999523163,508047.0,7027,WL,A,10.0
4,19.5939998626709,learn,40406.0001373291,Thu Nov 07 2024 14:08:20 GMT-0600 (Central Standard Time),510030.2999999523,A,chimne,O,e,198,1,1983.2999999523163,508047.0,7027,WL,A,10.0
4,19.90999984741211,learn,40090.00015258789,Thu Nov 07 2024 14:08:20 GMT-0600 (Central Standard Time),510347.0,A,chimney,O,y,277,1,2300.0,508047.0,7027,WL,A,10.0
4,20.20899987220764,learn,39791.00012779236,Thu Nov 07 2024 14:08:20 GMT-0600 (Central Standard Time),510645.89999985695,A,chimneyenter,O,enter,264,1,2598.899999856949,508047.0,7027,WL,A,10.0
4,20.993000030517578,learn,39006.99996948242,Thu Nov 07 2024 14:08:20 GMT-0600 (Central Standard Time),511429.89999985695,A,b,O,b,775,1,783.7999999523163,510646.09999990463,7027,WL,A,11.0
4,21.15999984741211,learn,38840.00015258789,Thu Nov 07 2024 14:08:20 GMT-0600 (Central Standard Time),511596.39999985695,A,bu,O,u,141,1,950.2999999523163,510646.09999990463,7027,WL,A,11.0
4,21.47699999809265,learn,38523.00000190735,Thu Nov 07 2024 14:08:20 GMT-0600 (Central Standard Time),511913.09999990463,A,but,O,t,287,1,1267.0,510646.09999990463,7027,WL,A,11.0
4,21.65999984741211,learn,38340.00015258789,Thu Nov 07 2024 14:08:20 GMT-0600 (Central Standard Time),512096.39999985695,A,butt,O,t,144,1,1450.2999999523163,510646.09999990463,7027,WL,A,11.0
4,21.776000022888184,learn,38223.99997711182,Thu Nov 07 2024 14:08:20 GMT-0600 (Central Standard Time),512212.89999985695,A,butto,O,o,92,1,1566.7999999523163,510646.09999990463,7027,WL,A,11.0
4,22.042999982833862,learn,37957.00001716614,Thu Nov 07 2024 14:08:20 GMT-0600 (Central Standard Time),512479.59999990463,A,button,O,n,239,1,1833.5,510646.09999990463,7027,WL,A,11.0
4,22.358999967575073,learn,37641.00003242493,Thu Nov 07 2024 14:08:20 GMT-0600 (Central Standard Time),512795.09999990463,A,buttonenter,O,enter,281,1,2149.0,510646.09999990463,7027,WL,A,11.0
4,22.875999927520752,learn,37124.00007247925,Thu Nov 07 2024 14:08:20 GMT-0600 (Central Standard Time),513312.59999990463,A,l,O,l,506,1,517.2999999523163,512795.2999999523,7027,WL,A,12.0
4,23.108999967575073,learn,36891.00003242493,Thu Nov 07 2024 14:08:20 GMT-0600 (Central Standard Time),513546.0,A,lo,O,o,195,1,750.7000000476837,512795.2999999523,7027,WL,A,12.0
4,23.491999864578247,learn,36508.00013542175,Thu Nov 07 2024 14:08:20 GMT-0600 (Central Standard Time),513928.89999985695,A,log,O,g,354,1,1133.5999999046326,512795.2999999523,7027,WL,A,12.0
4,23.94099998474121,learn,36059.00001525879,Thu Nov 07 2024 14:08:20 GMT-0600 (Central Standard Time),514378.0,A,logenter,O,enter,410,1,1582.7000000476837,512795.2999999523,7027,WL,A,12.0
4,24.608999967575073,learn,35391.00003242493,Thu Nov 07 2024 14:08:20 GMT-0600 (Central Standard Time),515045.19999980927,A,k,O,k,659,1,667.0,514378.19999980927,7027,WL,A,13.0
4,24.991999864578247,learn,35008.00013542175,Thu Nov 07 2024 14:08:20 GMT-0600 (Central Standard Time),515428.59999990463,A,ke,O,e,350,1,1050.4000000953674,514378.19999980927,7027,WL,A,13.0
4,26.024999856948853,learn,33975.00014305115,Thu Nov 07 2024 14:08:20 GMT-0600 (Central Standard Time),516461.5,A,key,O,y,1008,1,2083.300000190735,514378.19999980927,7027,WL,A,13.0
4,26.889999866485596,learn,33110.000133514404,Thu Nov 07 2024 14:08:20 GMT-0600 (Central Standard Time),517326.89999985695,A,keyenter,O,enter,829,1,2948.7000000476837,514378.19999980927,7027,WL,A,13.0
4,28.174000024795532,learn,31825.999975204468,Thu Nov 07 2024 14:08:20 GMT-0600 (Central Standard Time),518610.69999980927,A,r,O,r,1270,1,1283.3999998569489,517327.2999999523,7027,WL,A,14.0
4,28.323999881744385,learn,31676.000118255615,Thu Nov 07 2024 14:08:20 GMT-0600 (Central Standard Time),518760.69999980927,A,ra,O,a,112,1,1433.3999998569489,517327.2999999523,7027,WL,A,14.0
4,28.557999849319458,learn,31442.000150680542,Thu Nov 07 2024 14:08:20 GMT-0600 (Central Standard Time),518994.09999990463,A,rat,O,t,201,1,1666.7999999523163,517327.2999999523,7027,WL,A,14.0
4,28.707000017166138,learn,31292.999982833862,Thu Nov 07 2024 14:08:20 GMT-0600 (Central Standard Time),519143.89999985695,A,ratt,O,t,113,1,1816.5999999046326,517327.2999999523,7027,WL,A,14.0
4,28.822999954223633,learn,31177.000045776367,Thu Nov 07 2024 14:08:20 GMT-0600 (Central Standard Time),519260.09999990463,A,rattl,O,l,93,1,1932.7999999523163,517327.2999999523,7027,WL,A,14.0
4,28.990999937057495,learn,31009.000062942505,Thu Nov 07 2024 14:08:20 GMT-0600 (Central Standard Time),519427.19999980927,A,rattle,O,e,145,1,2099.899999856949,517327.2999999523,7027,WL,A,14.0
4,29.405999898910522,learn,30594.000101089478,Thu Nov 07 2024 14:08:20 GMT-0600 (Central Standard Time),519842.89999985695,A,rattleenter,O,enter,383,1,2515.5999999046326,517327.2999999523,7027,WL,A,14.0
4,30.256999969482422,learn,29743.000030517578,Thu Nov 07 2024 14:08:20 GMT-0600 (Central Standard Time),520693.5,A,g,O,g,836,1,850.5,519843.0,7027,WL,A,15.0
4,30.389999866485596,learn,29610.000133514404,Thu Nov 07 2024 14:08:20 GMT-0600 (Central Standard Time),520826.69999980927,A,go,O,o,103,1,983.6999998092651,519843.0,7027,WL,A,15.0
4,30.58999991416931,learn,29410.00008583069,Thu Nov 07 2024 14:08:20 GMT-0600 (Central Standard Time),521026.7999999523,A,gol,O,l,161,1,1183.7999999523163,519843.0,7027,WL,A,15.0
4,30.83999991416931,learn,29160.00008583069,Thu Nov 07 2024 14:08:20 GMT-0600 (Central Standard Time),521276.2999999523,A,gold,O,d,227,1,1433.2999999523163,519843.0,7027,WL,A,15.0
4,31.10599994659424,learn,28894.00005340576,Thu Nov 07 2024 14:08:20 GMT-0600 (Central Standard Time),521542.2999999523,A,goldenter,O,enter,237,1,1699.2999999523163,519843.0,7027,WL,A,15.0
5,1.1500000953674316,learn,60000.0,Thu Nov 07 2024 14:08:20 GMT-0600 (Central Standard Time),590537.6999998093,A,b,O,b,1122,1,1149.5999999046326,589388.0999999046,7027,WL,A,1.0
5,1.6159999370574951,learn,60000.0,Thu Nov 07 2024 14:08:20 GMT-0600 (Central Standard Time),591004.2999999523,A,bo,O,o,425,1,1616.2000000476837,589388.0999999046,7027,WL,A,1.0
5,1.7990000247955322,learn,60000.0,Thu Nov 07 2024 14:08:20 GMT-0600 (Central Standard Time),591187.0,A,boo,O,o,155,1,1798.9000000953674,589388.0999999046,7027,WL,A,1.0
5,2.0490000247955322,learn,60000.0,Thu Nov 07 2024 14:08:20 GMT-0600 (Central Standard Time),591436.5,A,book,O,k,222,1,2048.4000000953674,589388.0999999046,7027,WL,A,1.0
5,2.4809999465942383,learn,60000.0,Thu Nov 07 2024 14:08:20 GMT-0600 (Central Standard Time),591869.1999998093,A,bookenter,O,enter,398,1,2481.0999999046326,589388.0999999046,7027,WL,A,1.0
5,3.365000009536743,learn,60000.0,Thu Nov 07 2024 14:08:20 GMT-0600 (Central Standard Time),592753.1999998093,A,f,O,f,864,1,883.7999999523163,591869.399999857,7027,WL,A,2.0
5,3.515000104904175,learn,60000.0,Thu Nov 07 2024 14:08:20 GMT-0600 (Central Standard Time),592903.0999999046,A,fl,O,l,115,1,1033.7000000476837,591869.399999857,7027,WL,A,2.0
5,3.748000144958496,learn,60000.0,Thu Nov 07 2024 14:08:20 GMT-0600 (Central Standard Time),593136.399999857,A,flo,O,o,204,1,1267.0,591869.399999857,7027,WL,A,2.0
5,3.998000144958496,learn,60000.0,Thu Nov 07 2024 14:08:20 GMT-0600 (Central Standard Time),593386.2999999523,A,flow,O,w,216,1,1516.9000000953674,591869.399999857,7027,WL,A,2.0
5,4.082000017166138,learn,60000.0,Thu Nov 07 2024 14:08:20 GMT-0600 (Central Standard Time),593469.5,A,flowe,O,e,50,1,1600.1000001430511,591869.399999857,7027,WL,A,2.0
5,4.46399998664856,learn,60000.0,Thu Nov 07 2024 14:08:20 GMT-0600 (Central Standard Time),593851.5999999046,A,flower,O,r,356,1,1982.2000000476837,591869.399999857,7027,WL,A,2.0
5,4.7799999713897705,learn,60000.0,Thu Nov 07 2024 14:08:20 GMT-0600 (Central Standard Time),594168.399999857,A,flowerenter,O,enter,297,1,2299.0,591869.399999857,7027,WL,A,2.0
5,5.331000089645386,learn,60000.0,Thu Nov 07 2024 14:08:20 GMT-0600 (Central Standard Time),594719.1999998093,A,t,O,t,541,1,550.5999999046326,594168.5999999046,7027,WL,A,3.0
5,5.680000066757202,learn,60000.0,Thu Nov 07 2024 14:08:20 GMT-0600 (Central Standard Time),595067.7999999523,A,tr,O,r,324,1,899.2000000476837,594168.5999999046,7027,WL,A,3.0
5,5.829999923706055,learn,60000.0,Thu Nov 07 2024 14:08:20 GMT-0600 (Central Standard Time),595218.0,A,tra,O,a,128,1,1049.4000000953674,594168.5999999046,7027,WL,A,3.0
5,6.079999923706055,learn,60000.0,Thu Nov 07 2024 14:08:20 GMT-0600 (Central Standard Time),595467.899999857,A,trai,O,i,234,1,1299.2999999523163,594168.5999999046,7027,WL,A,3.0
5,6.3459999561309814,learn,60000.0,Thu Nov 07 2024 14:08:20 GMT-0600 (Central Standard Time),595734.2999999523,A,train,O,n,247,1,1565.7000000476837,594168.5999999046,7027,WL,A,3.0
5,6.730000019073486,learn,60000.0,Thu Nov 07 2024 14:08:20 GMT-0600 (Central Standard Time),596117.5999999046,A,trainenter,O,enter,366,1,1949.0,594168.5999999046,7027,WL,A,3.0
5,7.446000099182129,learn,60000.0,Thu Nov 07 2024 14:08:20 GMT-0600 (Central Standard Time),596834.2999999523,A,r,O,r,695,1,716.5,596117.7999999523,7027,WL,A,4.0
5,7.664000034332275,learn,60000.0,Thu Nov 07 2024 14:08:20 GMT-0600 (Central Standard Time),597052.1999998093,A,ru,O,u,210,1,934.3999998569489,596117.7999999523,7027,WL,A,4.0
5,7.947000026702881,learn,60000.0,Thu Nov 07 2024 14:08:20 GMT-0600 (Central Standard Time),597334.6999998093,A,rug,O,g,254,1,1216.8999998569489,596117.7999999523,7027,WL,A,4.0
5,8.279000043869019,learn,60000.0,Thu Nov 07 2024 14:08:20 GMT-0600 (Central Standard Time),597667.1999998093,A,rugenter,O,enter,311,1,1549.3999998569489,596117.7999999523,7027,WL,A,4.0
5,9.079999923706055,learn,60000.0,Thu Nov 07 2024 14:08:20 GMT-0600 (Central Standard Time),598468.0,A,m,O,m,777,1,800.6000001430511,597667.399999857,7027,WL,A,5.0
5,9.680000066757202,learn,60000.0,Thu Nov 07 2024 14:08:20 GMT-0600 (Central Standard Time),599067.899999857,A,me,O,e,559,1,1400.5,597667.399999857,7027,WL,A,5.0
5,10.312999963760376,learn,60000.0,Thu Nov 07 2024 14:08:20 GMT-0600 (Central Standard Time),599701.0,A,mea,O,a,609,1,2033.6000001430511,597667.399999857,7027,WL,A,5.0
5,10.61299991607666,learn,60000.0,Thu Nov 07 2024 14:08:20 GMT-0600 (Central Standard Time),600000.7999999523,A,mead,O,d,264,1,2333.4000000953674,597667.399999857,7027,WL,A,5.0
5,10.77999997138977,learn,60000.0,Thu Nov 07 2024 14:08:20 GMT-0600 (Central Standard Time),600167.399999857,A,meado,O,o,141,1,2500.0,597667.399999857,7027,WL,A,5.0
5,11.17900013923645,learn,60000.0,Thu Nov 07 2024 14:08:20 GMT-0600 (Central Standard Time),600566.1999998093,A,meadow,O,w,363,1,2898.7999999523163,597667.399999857,7027,WL,A,5.0
5,11.92900013923645,learn,60000.0,Thu Nov 07 2024 14:08:20 GMT-0600 (Central Standard Time),601316.0999999046,A,meadowenter,O,enter,741,1,3648.7000000476837,597667.399999857,7027,WL,A,5.0
5,12.82800006866455,learn,60000.0,Thu Nov 07 2024 14:08:20 GMT-0600 (Central Standard Time),602215.5999999046,A,h,O,h,880,1,899.2999999523163,601316.2999999523,7027,WL,A,6.0
5,13.144999980926514,learn,60000.0,Thu Nov 07 2024 14:08:20 GMT-0600 (Central Standard Time),602532.0999999046,A,ha,O,a,300,1,1215.7999999523163,601316.2999999523,7027,WL,A,6.0
5,13.361999988555908,learn,60000.0,Thu Nov 07 2024 14:08:20 GMT-0600 (Central Standard Time),602748.899999857,A,har,O,r,200,1,1432.5999999046326,601316.2999999523,7027,WL,A,6.0
5,13.694999933242798,learn,60000.0,Thu Nov 07 2024 14:08:20 GMT-0600 (Central Standard Time),603082.0999999046,A,harp,O,p,311,1,1765.7999999523163,601316.2999999523,7027,WL,A,6.0
5,13.977999925613403,learn,60000.0,Thu Nov 07 2024 14:08:20 GMT-0600 (Central Standard Time),603365.399999857,A,harpenter,O,enter,274,1,2049.0999999046326,601316.2999999523,7027,WL,A,6.0
5,14.67900013923645,learn,60000.0,Thu Nov 07 2024 14:08:20 GMT-0600 (Central Standard Time),604065.899999857,A,s,O,s,680,1,700.2000000476837,603365.6999998093,7027,WL,A,7.0
5,14.76200008392334,learn,60000.0,Thu Nov 07 2024 14:08:20 GMT-0600 (Central Standard Time),604148.899999857,A,sa,O,a,56,1,783.2000000476837,603365.6999998093,7027,WL,A,7.0
5,14.92900013923645,learn,60000.0,Thu Nov 07 2024 14:08:20 GMT-0600 (Central Standard Time),604316.1999998093,A,sal,O,l,151,1,950.5,603365.6999998093,7027,WL,A,7.0
5,15.32800006866455,learn,60000.0,Thu Nov 07 2024 14:08:20 GMT-0600 (Central Standard Time),604715.6999998093,A,salt,O,t,368,1,1350.0,603365.6999998093,7027,WL,A,7.0
5,15.99399995803833,learn,60000.0,Thu Nov 07 2024 14:08:20 GMT-0600 (Central Standard Time),605381.399999857,A,saltenter,O,enter,630,1,2015.7000000476837,603365.6999998093,7027,WL,A,7.0
5,17.144999980926514,learn,60000.0,Thu Nov 07 2024 14:08:20 GMT-0600 (Central Standard Time),606531.899999857,A,f,O,f,1136,1,1150.2999999523163,605381.5999999046,7027,WL,A,8.0
5,17.278000116348267,learn,60000.0,Thu Nov 07 2024 14:08:20 GMT-0600 (Central Standard Time),606664.899999857,A,fi,O,i,93,1,1283.2999999523163,605381.5999999046,7027,WL,A,8.0
5,17.477999925613403,learn,60000.0,Thu Nov 07 2024 14:08:20 GMT-0600 (Central Standard Time),606865.0999999046,A,fin,O,n,177,1,1483.5,605381.5999999046,7027,WL,A,8.0
5,17.66100001335144,learn,60000.0,Thu Nov 07 2024 14:08:20 GMT-0600 (Central Standard Time),607048.399999857,A,fing,O,g,146,1,1666.7999999523163,605381.5999999046,7027,WL,A,8.0
5,17.89400005340576,learn,60000.0,Thu Nov 07 2024 14:08:20 GMT-0600 (Central Standard Time),607281.7999999523,A,finge,O,e,203,1,1900.2000000476837,605381.5999999046,7027,WL,A,8.0
5,17.960000038146973,learn,60000.0,Thu Nov 07 2024 14:08:20 GMT-0600 (Central Standard Time),607347.5,A,finger,O,r,41,1,1965.9000000953674,605381.5999999046,7027,WL,A,8.0
5,18.259999990463257,learn,60000.0,Thu Nov 07 2024 14:08:20 GMT-0600 (Central Standard Time),607647.2999999523,A,fingerenter,O,enter,273,1,2265.7000000476837,605381.5999999046,7027,WL,A,8.0
5,18.611000061035156,learn,60000.0,Thu Nov 07 2024 14:08:20 GMT-0600 (Central Standard Time),607998.399999857,A,a,O,a,342,1,350.7999999523163,607647.5999999046,7027,WL,A,9.0
5,18.97699999809265,learn,60000.0,Thu Nov 07 2024 14:08:20 GMT-0600 (Central Standard Time),608364.5999999046,A,ap,O,p,334,1,717.0,607647.5999999046,7027,WL,A,9.0
5,19.127000093460083,learn,60000.0,Thu Nov 07 2024 14:08:20 GMT-0600 (Central Standard Time),608514.5,A,app,O,p,110,1,866.9000000953674,607647.5999999046,7027,WL,A,9.0
5,19.460999965667725,learn,60000.0,Thu Nov 07 2024 14:08:20 GMT-0600 (Central Standard Time),608847.899999857,A,appl,O,l,305,1,1200.2999999523163,607647.5999999046,7027,WL,A,9.0
5,19.877000093460083,learn,60000.0,Thu Nov 07 2024 14:08:20 GMT-0600 (Central Standard Time),609264.1999998093,A,apple,O,e,379,1,1616.5999999046326,607647.5999999046,7027,WL,A,9.0
5,20.259000062942505,learn,60000.0,Thu Nov 07 2024 14:08:20 GMT-0600 (Central Standard Time),609646.5999999046,A,appleenter,O,enter,353,1,1999.0,607647.5999999046,7027,WL,A,9.0
5,21.16000008583069,learn,60000.0,Thu Nov 07 2024 14:08:20 GMT-0600 (Central Standard Time),610547.2999999523,A,c,O,c,888,1,900.4000000953674,609646.899999857,7027,WL,A,10.0
5,21.377000093460083,learn,60000.0,Thu Nov 07 2024 14:08:20 GMT-0600 (Central Standard Time),610763.7999999523,A,ch,O,h,177,1,1116.9000000953674,609646.899999857,7027,WL,A,10.0
5,21.693000078201294,learn,60000.0,Thu Nov 07 2024 14:08:20 GMT-0600 (Central Standard Time),611080.399999857,A,chi,O,i,285,1,1433.5,609646.899999857,7027,WL,A,10.0
5,22.075999975204468,learn,60000.0,Thu Nov 07 2024 14:08:20 GMT-0600 (Central Standard Time),611463.7999999523,A,chim,O,m,348,1,1816.9000000953674,609646.899999857,7027,WL,A,10.0
5,22.292999982833862,learn,60000.0,Thu Nov 07 2024 14:08:20 GMT-0600 (Central Standard Time),611680.2999999523,A,chimn,O,n,180,1,2033.4000000953674,609646.899999857,7027,WL,A,10.0
5,22.592999935150146,learn,60000.0,Thu Nov 07 2024 14:08:20 GMT-0600 (Central Standard Time),611980.399999857,A,chimne,O,e,274,1,2333.5,609646.899999857,7027,WL,A,10.0
5,23.20900011062622,learn,60000.0,Thu Nov 07 2024 14:08:20 GMT-0600 (Central Standard Time),612596.6999998093,A,chimney,O,y,584,1,2949.7999999523163,609646.899999857,7027,WL,A,10.0
5,23.575000047683716,learn,60000.0,Thu Nov 07 2024 14:08:20 GMT-0600 (Central Standard Time),612962.1999998093,A,chimneyenter,O,enter,333,1,3315.2999999523163,609646.899999857,7027,WL,A,10.0
5,24.29200005531311,learn,60000.0,Thu Nov 07 2024 14:08:20 GMT-0600 (Central Standard Time),613679.6999998093,A,b,O,b,708,1,717.1999998092651,612962.5,7027,WL,A,11.0
5,24.658999919891357,learn,60000.0,Thu Nov 07 2024 14:08:20 GMT-0600 (Central Standard Time),614046.0,A,bu,O,u,340,1,1083.5,612962.5,7027,WL,A,11.0
5,24.975000143051147,learn,60000.0,Thu Nov 07 2024 14:08:20 GMT-0600 (Central Standard Time),614362.6999998093,A,but,O,t,291,1,1400.1999998092651,612962.5,7027,WL,A,11.0
5,25.158999919891357,learn,60000.0,Thu Nov 07 2024 14:08:20 GMT-0600 (Central Standard Time),614545.899999857,A,butt,O,t,153,1,1583.3999998569489,612962.5,7027,WL,A,11.0
5,25.408999919891357,learn,60000.0,Thu Nov 07 2024 14:08:20 GMT-0600 (Central Standard Time),614795.7999999523,A,butto,O,o,209,1,1833.2999999523163,612962.5,7027,WL,A,11.0
5,25.79200005531311,learn,60000.0,Thu Nov 07 2024 14:08:20 GMT-0600 (Central Standard Time),615179.0999999046,A,button,O,n,357,1,2216.5999999046326,612962.5,7027,WL,A,11.0
5,26.52500009536743,learn,60000.0,Thu Nov 07 2024 14:08:20 GMT-0600 (Central Standard Time),615912.399999857,A,buttonenter,O,enter,697,1,2949.899999856949,612962.5,7027,WL,A,11.0
5,26.907999992370605,learn,60000.0,Thu Nov 07 2024 14:08:20 GMT-0600 (Central Standard Time),616295.5,A,l,O,l,365,1,382.80000019073486,615912.6999998093,7027,WL,A,12.0
5,27.141000032424927,learn,60000.0,Thu Nov 07 2024 14:08:20 GMT-0600 (Central Standard Time),616528.7999999523,A,lo,O,o,195,1,616.1000001430511,615912.6999998093,7027,WL,A,12.0
5,27.374000072479248,learn,60000.0,Thu Nov 07 2024 14:08:20 GMT-0600 (Central Standard Time),616761.7999999523,A,log,O,g,203,1,849.1000001430511,615912.6999998093,7027,WL,A,12.0
5,28.10700011253357,learn,60000.0,Thu Nov 07 2024 14:08:20 GMT-0600 (Central Standard Time),617494.0,A,logenter,O,enter,698,1,1581.3000001907349,615912.6999998093,7027,WL,A,12.0
5,28.79100012779236,learn,60000.0,Thu Nov 07 2024 14:08:20 GMT-0600 (Central Standard Time),618178.0999999046,A,k,O,k,663,1,683.7999999523163,617494.2999999523,7027,WL,A,13.0
5,29.157000064849854,learn,60000.0,Thu Nov 07 2024 14:08:20 GMT-0600 (Central Standard Time),618544.6999998093,A,ke,O,e,338,1,1050.3999998569489,617494.2999999523,7027,WL,A,13.0
5,29.556999921798706,learn,60000.0,Thu Nov 07 2024 14:08:20 GMT-0600 (Central Standard Time),618944.5,A,key,O,y,367,1,1450.2000000476837,617494.2999999523,7027,WL,A,13.0
5,29.956000089645386,learn,60000.0,Thu Nov 07 2024 14:08:20 GMT-0600 (Central Standard Time),619343.399999857,A,keyenter,O,enter,361,1,1849.0999999046326,617494.2999999523,7027,WL,A,13.0
5,30.657000064849854,learn,60000.0,Thu Nov 07 2024 14:08:20 GMT-0600 (Central Standard Time),620044.0999999046,A,r,O,r,694,1,700.5,619343.5999999046,7027,WL,A,14.0
5,30.75600004196167,learn,60000.0,Thu Nov 07 2024 14:08:20 GMT-0600 (Central Standard Time),620143.399999857,A,ra,O,a,75,1,799.7999999523163,619343.5999999046,7027,WL,A,14.0
5,31.02300000190735,learn,60000.0,Thu Nov 07 2024 14:08:20 GMT-0600 (Central Standard Time),620410.5,A,rat,O,t,241,1,1066.9000000953674,619343.5999999046,7027,WL,A,14.0
5,31.223000049591064,learn,60000.0,Thu Nov 07 2024 14:08:20 GMT-0600 (Central Standard Time),620610.6999998093,A,ratt,O,t,162,1,1267.0999999046326,619343.5999999046,7027,WL,A,14.0
5,31.373000144958496,learn,60000.0,Thu Nov 07 2024 14:08:20 GMT-0600 (Central Standard Time),620760.6999998093,A,rattl,O,l,114,1,1417.0999999046326,619343.5999999046,7027,WL,A,14.0
5,31.623000144958496,learn,60000.0,Thu Nov 07 2024 14:08:20 GMT-0600 (Central Standard Time),621010.5999999046,A,rattle,O,e,220,1,1667.0,619343.5999999046,7027,WL,A,14.0
5,31.9060001373291,learn,60000.0,Thu Nov 07 2024 14:08:20 GMT-0600 (Central Standard Time),621292.7999999523,A,rattleenter,O,enter,255,1,1949.2000000476837,619343.5999999046,7027,WL,A,14.0
5,32.69000005722046,learn,60000.0,Thu Nov 07 2024 14:08:20 GMT-0600 (Central Standard Time),622076.899999857,A,g,O,g,769,1,783.8999998569489,621293.0,7027,WL,A,15.0
5,32.83999991416931,learn,60000.0,Thu Nov 07 2024 14:08:20 GMT-0600 (Central Standard Time),622226.899999857,A,go,O,o,111,1,933.8999998569489,621293.0,7027,WL,A,15.0
5,33.10599994659424,learn,60000.0,Thu Nov 07 2024 14:08:20 GMT-0600 (Central Standard Time),622493.5,A,gol,O,l,232,1,1200.5,621293.0,7027,WL,A,15.0
5,33.305999994277954,learn,60000.0,Thu Nov 07 2024 14:08:20 GMT-0600 (Central Standard Time),622693.399999857,A,gold,O,d,166,1,1400.3999998569489,621293.0,7027,WL,A,15.0
5,33.67199993133545,learn,60000.0,Thu Nov 07 2024 14:08:20 GMT-0600 (Central Standard Time),623058.7999999523,A,goldenter,O,enter,326,1,1765.7999999523163,621293.0,7027,WL,A,15.0
6,1.2999999523162842,distr,58700.000047683716,Thu Nov 07 2024 14:08:20 GMT-0600 (Central Standard Time),707932.6999998093,B,b,O,b,1260,1,1299.7999999523163,706632.899999857,7027,WL,A,1.0
6,1.5160000324249268,distr,58483.99996757507,Thu Nov 07 2024 14:08:20 GMT-0600 (Central Standard Time),708148.7999999523,B,bo,O,o,182,1,1515.9000000953674,706632.899999857,7027,WL,A,1.0
6,2.0320000648498535,distr,57967.99993515015,Thu Nov 07 2024 14:08:20 GMT-0600 (Central Standard Time),708664.899999857,B,bow,O,w,480,1,2032.0,706632.899999857,7027,WL,A,1.0
6,2.499000072479248,distr,57500.99992752075,Thu Nov 07 2024 14:08:20 GMT-0600 (Central Standard Time),709131.7999999523,B,bowl,O,l,426,1,2498.9000000953674,706632.899999857,7027,WL,A,1.0
6,2.997999906539917,distr,57002.00009346008,Thu Nov 07 2024 14:08:20 GMT-0600 (Central Standard Time),709630.399999857,B,bowlenter,O,enter,470,1,2997.5,706632.899999857,7027,WL,A,1.0
6,3.947999954223633,distr,56052.00004577637,Thu Nov 07 2024 14:08:20 GMT-0600 (Central Standard Time),710581.0999999046,B,d,O,d,934,1,950.4000000953674,709630.6999998093,7027,WL,A,2.0
6,4.23199987411499,distr,55768.00012588501,Thu Nov 07 2024 14:08:20 GMT-0600 (Central Standard Time),710864.399999857,B,da,O,a,247,1,1233.7000000476837,709630.6999998093,7027,WL,A,2.0
6,4.5320000648498535,distr,55467.99993515015,Thu Nov 07 2024 14:08:20 GMT-0600 (Central Standard Time),711164.2999999523,B,daw,O,w,275,1,1533.6000001430511,709630.6999998093,7027,WL,A,2.0
6,5.230999946594238,distr,54769.00005340576,Thu Nov 07 2024 14:08:20 GMT-0600 (Central Standard Time),711863.7999999523,B,dawn,O,n,663,1,2233.100000143051,709630.6999998093,7027,WL,A,2.0
6,5.897000074386597,distr,54102.9999256134,Thu Nov 07 2024 14:08:20 GMT-0600 (Central Standard Time),712529.5999999046,B,dawnenter,O,enter,627,1,2898.9000000953674,709630.6999998093,7027,WL,A,2.0
6,6.7809998989105225,distr,53219.00010108948,Thu Nov 07 2024 14:08:20 GMT-0600 (Central Standard Time),713413.2999999523,B,j,O,j,876,1,883.6000001430511,712529.6999998093,7027,WL,A,3.0
6,7.0309998989105225,distr,52969.00010108948,Thu Nov 07 2024 14:08:20 GMT-0600 (Central Standard Time),713663.399999857,B,ju,O,u,222,1,1133.7000000476837,712529.6999998093,7027,WL,A,3.0
6,7.21399998664856,distr,52786.00001335144,Thu Nov 07 2024 14:08:20 GMT-0600 (Central Standard Time),713846.5999999046,B,jud,O,d,154,1,1316.9000000953674,712529.6999998093,7027,WL,A,3.0
6,7.546999931335449,distr,52453.00006866455,Thu Nov 07 2024 14:08:20 GMT-0600 (Central Standard Time),714179.5999999046,B,judg,O,g,301,1,1649.9000000953674,712529.6999998093,7027,WL,A,3.0
6,7.930000066757202,distr,52069.9999332428,Thu Nov 07 2024 14:08:20 GMT-0600 (Central Standard Time),714563.0,B,judge,O,e,361,1,2033.3000001907349,712529.6999998093,7027,WL,A,3.0
6,8.345999956130981,distr,51654.00004386902,Thu Nov 07 2024 14:08:20 GMT-0600 (Central Standard Time),714978.5999999046,B,judgeenter,O,enter,387,1,2448.9000000953674,712529.6999998093,7027,WL,A,3.0
6,8.829999923706055,distr,51170.000076293945,Thu Nov 07 2024 14:08:20 GMT-0600 (Central Standard Time),715462.2999999523,B,g,O,g,475,1,483.40000009536743,714978.899999857,7027,WL,A,4.0
6,9.129999876022339,distr,50870.00012397766,Thu Nov 07 2024 14:08:20 GMT-0600 (Central Standard Time),715762.6999998093,B,gr,O,r,273,1,783.7999999523163,714978.899999857,7027,WL,A,4.0
6,9.263000011444092,distr,50736.99998855591,Thu Nov 07 2024 14:08:20 GMT-0600 (Central Standard Time),715895.899999857,B,gra,O,a,109,1,917.0,714978.899999857,7027,WL,A,4.0
6,9.480000019073486,distr,50519.999980926514,Thu Nov 07 2024 14:08:20 GMT-0600 (Central Standard Time),716112.5999999046,B,gran,O,n,180,1,1133.7000000476837,714978.899999857,7027,WL,A,4.0
6,9.746000051498413,distr,50253.99994850159,Thu Nov 07 2024 14:08:20 GMT-0600 (Central Standard Time),716379.0999999046,B,grant,O,t,227,1,1400.2000000476837,714978.899999857,7027,WL,A,4.0
6,10.161999940872192,distr,49838.00005912781,Thu Nov 07 2024 14:08:20 GMT-0600 (Central Standard Time),716794.6999998093,B,grantenter,O,enter,383,1,1815.7999999523163,714978.899999857,7027,WL,A,4.0
6,10.895999908447266,distr,49104.000091552734,Thu Nov 07 2024 14:08:20 GMT-0600 (Central Standard Time),717528.899999857,B,i,O,i,714,1,734.0,716794.899999857,7027,WL,A,5.0
6,11.128999948501587,distr,48871.00005149841,Thu Nov 07 2024 14:08:20 GMT-0600 (Central Standard Time),717762.0999999046,B,in,O,n,197,1,967.2000000476837,716794.899999857,7027,WL,A,5.0
6,11.395999908447266,distr,48604.000091552734,Thu Nov 07 2024 14:08:20 GMT-0600 (Central Standard Time),718028.2999999523,B,ins,O,s,242,1,1233.4000000953674,716794.899999857,7027,WL,A,5.0
6,11.678999900817871,distr,48321.00009918213,Thu Nov 07 2024 14:08:20 GMT-0600 (Central Standard Time),718311.899999857,B,inse,O,e,248,1,1517.0,716794.899999857,7027,WL,A,5.0
6,11.94599986076355,distr,48054.00013923645,Thu Nov 07 2024 14:08:20 GMT-0600 (Central Standard Time),718578.1999998093,B,insec,O,c,226,1,1783.2999999523163,716794.899999857,7027,WL,A,5.0
6,12.296000003814697,distr,47703.9999961853,Thu Nov 07 2024 14:08:20 GMT-0600 (Central Standard Time),718928.399999857,B,insect,O,t,315,1,2133.5,716794.899999857,7027,WL,A,5.0
6,12.59500002861023,distr,47404.99997138977,Thu Nov 07 2024 14:08:20 GMT-0600 (Central Standard Time),719227.1999998093,B,insectenter,O,enter,273,1,2432.2999999523163,716794.899999857,7027,WL,A,5.0
6,13.229000091552734,distr,46770.999908447266,Thu Nov 07 2024 14:08:20 GMT-0600 (Central Standard Time),719861.5999999046,B,p,O,p,618,1,634.0999999046326,719227.5,7027,WL,A,6.0
6,13.479000091552734,distr,46520.999908447266,Thu Nov 07 2024 14:08:20 GMT-0600 (Central Standard Time),720111.2999999523,B,pl,O,l,213,1,883.7999999523163,719227.5,7027,WL,A,6.0
6,14.378000020980835,distr,45621.999979019165,Thu Nov 07 2024 14:08:20 GMT-0600 (Central Standard Time),721010.6999998093,B,pla,O,a,867,1,1783.1999998092651,719227.5,7027,WL,A,6.0
6,14.59500002861023,distr,45404.99997138977,Thu Nov 07 2024 14:08:20 GMT-0600 (Central Standard Time),721227.5999999046,B,plan,O,n,180,1,2000.0999999046326,719227.5,7027,WL,A,6.0
6,15.378000020980835,distr,44621.999979019165,Thu Nov 07 2024 14:08:20 GMT-0600 (Central Standard Time),722010.5999999046,B,plane,O,e,744,1,2783.0999999046326,719227.5,7027,WL,A,6.0
6,15.910000085830688,distr,44089.99991416931,Thu Nov 07 2024 14:08:20 GMT-0600 (Central Standard Time),722542.7999999523,B,planeenter,O,enter,504,1,3315.2999999523163,719227.5,7027,WL,A,6.0
6,16.628000020980835,distr,43371.999979019165,Thu Nov 07 2024 14:08:20 GMT-0600 (Central Standard Time),723260.2999999523,B,p,O,p,703,1,717.2000000476837,722543.0999999046,7027,WL,A,7.0
6,17.01099991798401,distr,42989.00008201599,Thu Nov 07 2024 14:08:20 GMT-0600 (Central Standard Time),723643.5999999046,B,po,O,o,353,1,1100.5,722543.0999999046,7027,WL,A,7.0
6,17.210000038146973,distr,42789.99996185303,Thu Nov 07 2024 14:08:20 GMT-0600 (Central Standard Time),723842.7999999523,B,poo,O,o,167,1,1299.7000000476837,722543.0999999046,7027,WL,A,7.0
6,18.07699990272522,distr,41923.00009727478,Thu Nov 07 2024 14:08:20 GMT-0600 (Central Standard Time),724709.6999998093,B,pool,O,l,851,1,2166.5999999046326,722543.0999999046,7027,WL,A,7.0
6,18.675999879837036,distr,41324.000120162964,Thu Nov 07 2024 14:08:20 GMT-0600 (Central Standard Time),725308.5999999046,B,poolenter,O,enter,563,1,2765.5,722543.0999999046,7027,WL,A,7.0
6,19.377000093460083,distr,40622.99990653992,Thu Nov 07 2024 14:08:20 GMT-0600 (Central Standard Time),726009.399999857,B,s,O,s,689,1,700.5999999046326,725308.7999999523,7027,WL,A,8.0
6,19.80999994277954,distr,40190.00005722046,Thu Nov 07 2024 14:08:20 GMT-0600 (Central Standard Time),726442.5,B,se,O,e,402,1,1133.7000000476837,725308.7999999523,7027,WL,A,8.0
6,19.993000030517578,distr,40006.99996948242,Thu Nov 07 2024 14:08:20 GMT-0600 (Central Standard Time),726625.6999998093,B,see,O,e,156,1,1316.8999998569489,725308.7999999523,7027,WL,A,8.0
6,20.693000078201294,distr,39306.999921798706,Thu Nov 07 2024 14:08:20 GMT-0600 (Central Standard Time),727325.399999857,B,seed,O,d,675,1,2016.5999999046326,725308.7999999523,7027,WL,A,8.0
6,21.39199995994568,distr,38608.00004005432,Thu Nov 07 2024 14:08:20 GMT-0600 (Central Standard Time),728024.2999999523,B,seedenter,O,enter,668,1,2715.5,725308.7999999523,7027,WL,A,8.0
6,22.125,distr,37875.0,Thu Nov 07 2024 14:08:20 GMT-0600 (Central Standard Time),728757.7999999523,B,s,O,s,716,1,733.2000000476837,728024.5999999046,7027,WL,A,9.0
6,22.30900001525879,distr,37690.99998474121,Thu Nov 07 2024 14:08:20 GMT-0600 (Central Standard Time),728941.5,B,sh,O,h,169,1,916.9000000953674,728024.5999999046,7027,WL,A,9.0
6,22.80900001525879,distr,37190.99998474121,Thu Nov 07 2024 14:08:20 GMT-0600 (Central Standard Time),729441.5,B,she,O,e,469,1,1416.9000000953674,728024.5999999046,7027,WL,A,9.0
6,23.007999897003174,distr,36992.000102996826,Thu Nov 07 2024 14:08:20 GMT-0600 (Central Standard Time),729640.899999857,B,shee,O,e,163,1,1616.2999999523163,728024.5999999046,7027,WL,A,9.0
6,23.241999864578247,distr,36758.00013542175,Thu Nov 07 2024 14:08:20 GMT-0600 (Central Standard Time),729874.7999999523,B,sheep,O,p,212,1,1850.2000000476837,728024.5999999046,7027,WL,A,9.0
6,23.907999992370605,distr,36092.000007629395,Thu Nov 07 2024 14:08:20 GMT-0600 (Central Standard Time),730540.0999999046,B,sheepenter,O,enter,640,1,2515.5,728024.5999999046,7027,WL,A,9.0
6,24.39199995994568,distr,35608.00004005432,Thu Nov 07 2024 14:08:20 GMT-0600 (Central Standard Time),731024.2999999523,B,m,O,m,474,1,483.90000009536743,730540.399999857,7027,WL,A,10.0
6,24.691999912261963,distr,35308.00008773804,Thu Nov 07 2024 14:08:20 GMT-0600 (Central Standard Time),731324.5999999046,B,me,O,e,277,1,784.2000000476837,730540.399999857,7027,WL,A,10.0
6,24.79200005531311,distr,35207.99994468689,Thu Nov 07 2024 14:08:20 GMT-0600 (Central Standard Time),731424.1999998093,B,mea,O,a,71,1,883.7999999523163,730540.399999857,7027,WL,A,10.0
6,25.575000047683716,distr,34424.999952316284,Thu Nov 07 2024 14:08:20 GMT-0600 (Central Standard Time),732207.399999857,B,meal,O,l,756,1,1667.0,730540.399999857,7027,WL,A,10.0
6,26.52300000190735,distr,33476.99999809265,Thu Nov 07 2024 14:08:20 GMT-0600 (Central Standard Time),733155.899999857,B,mealenter,O,enter,916,1,2615.5,730540.399999857,7027,WL,A,10.0
6,27.073999881744385,distr,32926.000118255615,Thu Nov 07 2024 14:08:20 GMT-0600 (Central Standard Time),733706.899999857,B,b,O,b,537,1,550.7000000476837,733156.1999998093,7027,WL,A,11.0
6,27.35699987411499,distr,32643.00012588501,Thu Nov 07 2024 14:08:20 GMT-0600 (Central Standard Time),733990.0999999046,B,bo,O,o,249,1,833.9000000953674,733156.1999998093,7027,WL,A,11.0
6,27.624000072479248,distr,32375.999927520752,Thu Nov 07 2024 14:08:20 GMT-0600 (Central Standard Time),734256.5999999046,B,bot,O,t,230,1,1100.4000000953674,733156.1999998093,7027,WL,A,11.0
6,27.79099988937378,distr,32209.00011062622,Thu Nov 07 2024 14:08:20 GMT-0600 (Central Standard Time),734423.399999857,B,bott,O,t,138,1,1267.2000000476837,733156.1999998093,7027,WL,A,11.0
6,28.006999969482422,distr,31993.000030517578,Thu Nov 07 2024 14:08:20 GMT-0600 (Central Standard Time),734639.899999857,B,bottl,O,l,193,1,1483.7000000476837,733156.1999998093,7027,WL,A,11.0
6,28.223999977111816,distr,31776.000022888184,Thu Nov 07 2024 14:08:20 GMT-0600 (Central Standard Time),734856.2999999523,B,bottle,O,e,181,1,1700.1000001430511,733156.1999998093,7027,WL,A,11.0
6,28.438999891281128,distr,31561.000108718872,Thu Nov 07 2024 14:08:20 GMT-0600 (Central Standard Time),735072.0,B,bottleenter,O,enter,186,1,1915.8000001907349,733156.1999998093,7027,WL,A,11.0
6,29.223000049591064,distr,30776.999950408936,Thu Nov 07 2024 14:08:20 GMT-0600 (Central Standard Time),735855.399999857,B,p,O,p,765,1,783.2000000476837,735072.1999998093,7027,WL,A,12.0
6,29.44000005722046,distr,30559.99994277954,Thu Nov 07 2024 14:08:20 GMT-0600 (Central Standard Time),736072.399999857,B,pe,O,e,199,1,1000.2000000476837,735072.1999998093,7027,WL,A,12.0
6,29.539999961853027,distr,30460.000038146973,Thu Nov 07 2024 14:08:20 GMT-0600 (Central Standard Time),736172.5999999046,B,pea,O,a,70,1,1100.4000000953674,735072.1999998093,7027,WL,A,12.0
6,29.822999954223633,distr,30177.000045776367,Thu Nov 07 2024 14:08:20 GMT-0600 (Central Standard Time),736455.7999999523,B,peac,O,c,255,1,1383.6000001430511,735072.1999998093,7027,WL,A,12.0
6,30.00600004196167,distr,29993.99995803833,Thu Nov 07 2024 14:08:20 GMT-0600 (Central Standard Time),736639.0999999046,B,peach,O,h,149,1,1566.9000000953674,735072.1999998093,7027,WL,A,12.0
6,30.555000066757202,distr,29444.999933242798,Thu Nov 07 2024 14:08:20 GMT-0600 (Central Standard Time),737188.0,B,peachenter,O,enter,525,1,2115.800000190735,735072.1999998093,7027,WL,A,12.0
6,31.438999891281128,distr,28561.000108718872,Thu Nov 07 2024 14:08:20 GMT-0600 (Central Standard Time),738071.899999857,B,c,O,c,866,1,883.5999999046326,737188.2999999523,7027,WL,A,13.0
6,31.592999935150146,distr,28407.000064849854,Thu Nov 07 2024 14:08:20 GMT-0600 (Central Standard Time),738225.5,B,ch,O,h,129,1,1037.2000000476837,737188.2999999523,7027,WL,A,13.0
6,31.75600004196167,distr,28243.99995803833,Thu Nov 07 2024 14:08:20 GMT-0600 (Central Standard Time),738388.2999999523,B,cha,O,a,139,1,1200.0,737188.2999999523,7027,WL,A,13.0
6,32.305999994277954,distr,27694.000005722046,Thu Nov 07 2024 14:08:20 GMT-0600 (Central Standard Time),738938.399999857,B,chai,O,i,519,1,1750.0999999046326,737188.2999999523,7027,WL,A,13.0
6,32.67199993133545,distr,27328.00006866455,Thu Nov 07 2024 14:08:20 GMT-0600 (Central Standard Time),739304.899999857,B,chair,O,r,329,1,2116.5999999046326,737188.2999999523,7027,WL,A,13.0
6,34.604000091552734,distr,25395.999908447266,Thu Nov 07 2024 14:08:20 GMT-0600 (Central Standard Time),741236.6999998093,B,chairenter,O,enter,1898,1,4048.399999856949,737188.2999999523,7027,WL,A,13.0
6,59.11400008201599,distr,885.9999179840088,Thu Nov 07 2024 14:08:20 GMT-0600 (Central Standard Time),765746.2999999523,B,p,O,p,24498,1,24509.400000095367,741236.899999857,7027,WL,A,14.0
6,59.496999979019165,distr,503.00002098083496,Thu Nov 07 2024 14:08:20 GMT-0600 (Central Standard Time),766129.5999999046,B,po,O,o,343,1,24892.700000047684,741236.899999857,7027,WL,A,14.0
6,59.662999868392944,distr,337.00013160705566,Thu Nov 07 2024 14:08:20 GMT-0600 (Central Standard Time),766296.1999998093,B,poo,O,o,139,1,25059.299999952316,741236.899999857,7027,WL,A,14.0
6,59.96300005912781,distr,36.99994087219238,Thu Nov 07 2024 14:08:20 GMT-0600 (Central Standard Time),766596.0,B,pool,O,l,259,1,25359.10000014305,741236.899999857,7027,WL,A,14.0
6,60.02900004386902,distr,-29.000043869018555,Thu Nov 07 2024 14:08:20 GMT-0600 (Central Standard Time),766662.0,B,poolNone,O,None,46,1,25425.10000014305,741236.899999857,7027,WL,A,14.0
7,9.265000104904175,immed,50734.999895095825,Thu Nov 07 2024 14:08:20 GMT-0600 (Central Standard Time),781458.0,A,b,O,b,9229,1,9263.200000047684,772194.7999999523,7027,WL,A,1.0
7,10.015000104904175,immed,49984.999895095825,Thu Nov 07 2024 14:08:20 GMT-0600 (Central Standard Time),782207.399999857,A,bp,O,p,721,1,10012.599999904633,772194.7999999523,7027,WL,A,1.0
7,10.565000057220459,immed,49434.99994277954,Thu Nov 07 2024 14:08:20 GMT-0600 (Central Standard Time),782757.399999857,A,b,O,backspace,515,1,10562.599999904633,772194.7999999523,7027,WL,A,1.0
7,10.898000001907349,immed,49101.99999809265,Thu Nov 07 2024 14:08:20 GMT-0600 (Central Standard Time),783090.5999999046,A,bo,O,o,295,1,10895.799999952316,772194.7999999523,7027,WL,A,1.0
7,11.081000089645386,immed,48918.999910354614,Thu Nov 07 2024 14:08:20 GMT-0600 (Central Standard Time),783274.0,A,boo,O,o,146,1,11079.200000047684,772194.7999999523,7027,WL,A,1.0
