acc_sum,block,block_c,change,condition,correct,correct_response,datetime,endtime,face,project,response,response_time,row_sel,session_number,start_end,starttime,subject_id,task,task_vers,trial
0,prac,1,,1-Back,,,Wed Apr 02 2025 17:49:58 GMT-0500 (Central Daylight Time),,050_m_f_n_a.png,O,space,15014,1,1,,,7116,NNB,A,0
1,prac,1,0.0,1-Back,1,m,Wed Apr 02 2025 17:49:58 GMT-0500 (Central Daylight Time),152050.40000000596,063_y_f_n_a.png,O,m,1228,2,1,2059.0,149991.40000000596,7116,NNB,A,1
2,prac,1,1.0,1-Back,1,z,Wed Apr 02 2025 17:49:58 GMT-0500 (Central Daylight Time),154616.19999998808,063_y_f_n_a.png,O,z,1746,3,1,2527.199999988079,152089.0,7116,NNB,A,2
3,prac,1,0.0,1-Back,1,m,Wed Apr 02 2025 17:49:58 GMT-0500 (Central Daylight Time),156582.69999998808,053_o_m_n_a.png,O,m,1110,4,1,1936.5,154646.19999998808,7116,NNB,A,3
4,prac,1,0.0,1-Back,1,m,Wed Apr 02 2025 17:49:58 GMT-0500 (Central Daylight Time),158580.59999999404,058_m_m_n_a.png,O,m,1115,5,1,1960.199999988079,156620.40000000596,7116,NNB,A,4
4,prac,1,1.0,1-Back,0,z,Wed Apr 02 2025 17:49:58 GMT-0500 (Central Daylight Time),161363.79999998212,058_m_m_n_a.png,O,None,2005,6,1,2772.0,158591.79999998212,7116,NNB,A,5
4,prac,1,0.0,1-Back,0,m,Wed Apr 02 2025 17:49:58 GMT-0500 (Central Daylight Time),163379.79999998212,047_o_f_n_a.png,O,z,1122,7,1,1985.7999999821186,161394.0,7116,NNB,A,6
5,prac,1,0.0,1-Back,1,m,Wed Apr 02 2025 17:49:58 GMT-0500 (Central Daylight Time),165729.09999999404,045_m_m_n_a.png,O,m,1477,8,1,2322.199999988079,163406.90000000596,7116,NNB,A,7
6,prac,1,0.0,1-Back,1,m,Wed Apr 02 2025 17:49:58 GMT-0500 (Central Daylight Time),167528.59999999404,050_m_f_n_a.png,O,m,912,9,1,1761.199999988079,165767.40000000596,7116,NNB,A,8
7,prac,1,1.0,1-Back,1,z,Wed Apr 02 2025 17:49:58 GMT-0500 (Central Daylight Time),169594.5,050_m_f_n_a.png,O,z,1243,10,1,2027.800000011921,167566.69999998808,7116,NNB,A,9
8,prac,1,0.0,1-Back,1,m,Wed Apr 02 2025 17:49:58 GMT-0500 (Central Daylight Time),171427.40000000596,053_o_m_n_a.png,O,m,967,11,1,1793.7000000178814,169633.69999998808,7116,NNB,A,10
9,prac,1,0.0,1-Back,1,m,Wed Apr 02 2025 17:49:58 GMT-0500 (Central Daylight Time),173426.69999998808,010_y_f_n_a.png,O,m,1090,12,1,1959.7999999821186,171466.90000000596,7116,NNB,A,11
0,test,1,0.0,1-Back,,,Wed Apr 02 2025 17:49:58 GMT-0500 (Central Daylight Time),173426.69999998808,063_y_f_n_a.png,O,space,16015,1,1,1959.7999999821186,171466.90000000596,7116,NNB,A,0
1,test,1,0.0,1-Back,1,m,Wed Apr 02 2025 17:49:58 GMT-0500 (Central Daylight Time),200517.79999998212,043_m_f_n_a.png,O,m,839,2,1,1867.5,198650.29999998212,7116,NNB,A,1
2,test,1,0.0,1-Back,1,m,Wed Apr 02 2025 17:49:58 GMT-0500 (Central Daylight Time),202533.69999998808,010_y_f_n_a.png,O,m,979,3,1,1989.4000000059605,200544.29999998212,7116,NNB,A,2
3,test,1,1.0,1-Back,1,z,Wed Apr 02 2025 17:49:58 GMT-0500 (Central Daylight Time),204366.40000000596,010_y_f_n_a.png,O,z,796,4,1,1807.9000000059605,202558.5,7116,NNB,A,3
4,test,1,0.0,1-Back,1,m,Wed Apr 02 2025 17:49:58 GMT-0500 (Central Daylight Time),206182.40000000596,043_m_f_n_a.png,O,m,763,5,1,1784.7000000178814,204397.69999998808,7116,NNB,A,4
5,test,1,0.0,1-Back,1,m,Wed Apr 02 2025 17:49:58 GMT-0500 (Central Daylight Time),208097.79999998212,053_o_m_n_a.png,O,m,873,6,1,1887.0999999940395,206210.69999998808,7116,NNB,A,5
6,test,1,1.0,1-Back,1,z,Wed Apr 02 2025 17:49:58 GMT-0500 (Central Daylight Time),210964.19999998808,053_o_m_n_a.png,O,z,1832,7,1,2856.9000000059605,208107.29999998212,7116,NNB,A,6
7,test,1,0.0,1-Back,1,m,Wed Apr 02 2025 17:49:58 GMT-0500 (Central Daylight Time),212880.19999998808,058_m_m_n_a.png,O,m,860,8,1,1884.699999988079,210995.5,7116,NNB,A,7
8,test,1,0.0,1-Back,1,m,Wed Apr 02 2025 17:49:58 GMT-0500 (Central Daylight Time),214862.90000000596,047_o_f_n_a.png,O,m,937,9,1,1958.300000011921,212904.59999999404,7116,NNB,A,8
9,test,1,0.0,1-Back,1,m,Wed Apr 02 2025 17:49:58 GMT-0500 (Central Daylight Time),216762.29999998212,058_m_m_n_a.png,O,m,858,10,1,1868.199999988079,214894.09999999404,7116,NNB,A,9
10,test,1,0.0,1-Back,1,m,Wed Apr 02 2025 17:49:58 GMT-0500 (Central Daylight Time),218744.09999999404,041_y_m_n_a.png,O,m,934,11,1,1951.800000011921,216792.29999998212,7116,NNB,A,10
11,test,1,1.0,1-Back,1,z,Wed Apr 02 2025 17:49:58 GMT-0500 (Central Daylight Time),220527.69999998808,041_y_m_n_a.png,O,z,745,12,1,1763.2999999821186,218764.40000000596,7116,NNB,A,11
12,test,1,0.0,1-Back,1,m,Wed Apr 02 2025 17:49:58 GMT-0500 (Central Daylight Time),222410.40000000596,044_o_f_n_a.png,O,m,842,13,1,1857.7000000178814,220552.69999998808,7116,NNB,A,12
13,test,1,1.0,1-Back,1,z,Wed Apr 02 2025 17:49:58 GMT-0500 (Central Daylight Time),224843.19999998808,044_o_f_n_a.png,O,z,1383,14,1,2404.0999999940395,222439.09999999404,7116,NNB,A,13
14,test,1,0.0,1-Back,1,m,Wed Apr 02 2025 17:49:58 GMT-0500 (Central Daylight Time),226709.0,008_y_m_n_a.png,O,m,831,15,1,1838.4000000059605,224870.59999999404,7116,NNB,A,14
15,test,1,0.0,1-Back,1,m,Wed Apr 02 2025 17:49:58 GMT-0500 (Central Daylight Time),228591.79999998212,050_m_f_n_a.png,O,m,837,16,1,1858.5,226733.29999998212,7116,NNB,A,15
16,test,1,0.0,1-Back,1,m,Wed Apr 02 2025 17:49:58 GMT-0500 (Central Daylight Time),230424.40000000596,046_o_m_n_a.png,O,m,793,17,1,1804.0,228620.40000000596,7116,NNB,A,16
17,test,1,0.0,1-Back,1,m,Wed Apr 02 2025 17:49:58 GMT-0500 (Central Daylight Time),232207.09999999404,050_m_f_n_a.png,O,m,737,18,1,1754.0,230453.09999999404,7116,NNB,A,17
0,test,2,0.0,1-Back,,,Wed Apr 02 2025 17:49:58 GMT-0500 (Central Daylight Time),232207.09999999404,058_m_m_n_a.png,O,space,4674,1,1,1754.0,230453.09999999404,7116,NNB,A,0
1,test,2,0.0,1-Back,1,m,Wed Apr 02 2025 17:49:58 GMT-0500 (Central Daylight Time),240871.19999998808,043_m_f_n_a.png,O,m,820,2,1,1848.9000000059605,239022.29999998212,7116,NNB,A,1
1,test,2,1.0,1-Back,0,z,Wed Apr 02 2025 17:49:58 GMT-0500 (Central Daylight Time),243070.29999998212,043_m_f_n_a.png,O,m,1163,3,1,2174.7999999821186,240895.5,7116,NNB,A,2
2,test,2,0.0,1-Back,1,m,Wed Apr 02 2025 17:49:58 GMT-0500 (Central Daylight Time),244869.40000000596,058_m_m_n_a.png,O,m,748,4,1,1768.0,243101.40000000596,7116,NNB,A,3
3,test,2,0.0,1-Back,1,m,Wed Apr 02 2025 17:49:58 GMT-0500 (Central Daylight Time),246919.09999999404,041_y_m_n_a.png,O,m,987,5,1,2013.9000000059605,244905.19999998808,7116,NNB,A,4
4,test,2,0.0,1-Back,1,m,Wed Apr 02 2025 17:49:58 GMT-0500 (Central Daylight Time),248817.90000000596,063_y_f_n_a.png,O,m,857,6,1,1868.6000000238419,246949.29999998212,7116,NNB,A,5
5,test,2,1.0,1-Back,1,z,Wed Apr 02 2025 17:49:58 GMT-0500 (Central Daylight Time),250568.09999999404,063_y_f_n_a.png,O,z,711,7,1,1729.300000011921,248838.79999998212,7116,NNB,A,6
6,test,2,0.0,1-Back,1,m,Wed Apr 02 2025 17:49:58 GMT-0500 (Central Daylight Time),252467.29999998212,041_y_m_n_a.png,O,m,833,8,1,1866.5999999940395,250600.69999998808,7116,NNB,A,7
7,test,2,0.0,1-Back,1,m,Wed Apr 02 2025 17:49:58 GMT-0500 (Central Daylight Time),254516.59999999404,044_o_f_n_a.png,O,m,1006,9,1,2018.9000000059605,252497.69999998808,7116,NNB,A,8
8,test,2,0.0,1-Back,1,m,Wed Apr 02 2025 17:49:58 GMT-0500 (Central Daylight Time),256466.09999999404,045_m_m_n_a.png,O,m,909,10,1,1922.5999999940395,254543.5,7116,NNB,A,9
8,test,2,1.0,1-Back,0,z,Wed Apr 02 2025 17:49:58 GMT-0500 (Central Daylight Time),258865.09999999404,045_m_m_n_a.png,O,m,1359,11,1,2372.199999988079,256492.90000000596,7116,NNB,A,10
9,test,2,0.0,1-Back,1,m,Wed Apr 02 2025 17:49:58 GMT-0500 (Central Daylight Time),261114.40000000596,044_o_f_n_a.png,O,m,1210,12,1,2222.600000023842,258891.79999998212,7116,NNB,A,11
10,test,2,0.0,1-Back,1,m,Wed Apr 02 2025 17:49:58 GMT-0500 (Central Daylight Time),263229.5,047_o_f_n_a.png,O,m,1077,13,1,2087.5999999940395,261141.90000000596,7116,NNB,A,12
11,test,2,0.0,1-Back,1,m,Wed Apr 02 2025 17:49:58 GMT-0500 (Central Daylight Time),265229.40000000596,053_o_m_n_a.png,O,m,980,14,1,1991.2000000178814,263238.1999999881,7116,NNB,A,13
12,test,2,0.0,1-Back,1,m,Wed Apr 02 2025 17:49:58 GMT-0500 (Central Daylight Time),267129.0,046_o_m_n_a.png,O,m,859,15,1,1875.9000000059605,265253.09999999404,7116,NNB,A,14
13,test,2,1.0,1-Back,1,z,Wed Apr 02 2025 17:49:58 GMT-0500 (Central Daylight Time),268978.1999999881,046_o_m_n_a.png,O,z,808,16,1,1817.9000000059605,267160.2999999821,7116,NNB,A,15
14,test,2,0.0,1-Back,1,m,Wed Apr 02 2025 17:49:58 GMT-0500 (Central Daylight Time),271013.40000000596,008_y_m_n_a.png,O,m,1000,17,1,2009.4000000059605,269004.0,7116,NNB,A,16
15,test,2,1.0,1-Back,1,z,Wed Apr 02 2025 17:49:58 GMT-0500 (Central Daylight Time),273277.09999999404,008_y_m_n_a.png,O,z,1222,18,1,2236.4000000059605,271040.6999999881,7116,NNB,A,17
0,test,3,1.0,1-Back,,,Wed Apr 02 2025 17:49:58 GMT-0500 (Central Daylight Time),273277.09999999404,010_y_f_n_a.png,O,space,3388,1,1,2236.4000000059605,271040.6999999881,7116,NNB,A,0
1,test,3,0.0,1-Back,1,m,Wed Apr 02 2025 17:49:58 GMT-0500 (Central Daylight Time),281524.5,046_o_m_n_a.png,O,m,1690,2,1,2710.2000000178814,278814.2999999821,7116,NNB,A,1
1,test,3,1.0,1-Back,0,z,Wed Apr 02 2025 17:49:58 GMT-0500 (Central Daylight Time),284290.09999999404,046_o_m_n_a.png,O,m,1708,3,1,2733.5,281556.59999999404,7116,NNB,A,2
2,test,3,0.0,1-Back,1,m,Wed Apr 02 2025 17:49:58 GMT-0500 (Central Daylight Time),286222.90000000596,050_m_f_n_a.png,O,m,879,4,1,1897.2000000178814,284325.6999999881,7116,NNB,A,3
3,test,3,1.0,1-Back,1,z,Wed Apr 02 2025 17:49:58 GMT-0500 (Central Daylight Time),288122.2999999821,050_m_f_n_a.png,O,z,859,5,1,1871.3999999761581,286250.90000000596,7116,NNB,A,4
4,test,3,0.0,1-Back,1,m,Wed Apr 02 2025 17:49:58 GMT-0500 (Central Daylight Time),290088.1999999881,044_o_f_n_a.png,O,m,927,6,1,1942.5,288145.6999999881,7116,NNB,A,5
5,test,3,0.0,1-Back,1,m,Wed Apr 02 2025 17:49:58 GMT-0500 (Central Daylight Time),292054.40000000596,041_y_m_n_a.png,O,m,929,7,1,1935.300000011921,290119.09999999404,7116,NNB,A,6
6,test,3,0.0,1-Back,1,m,Wed Apr 02 2025 17:49:58 GMT-0500 (Central Daylight Time),294053.59999999404,044_o_f_n_a.png,O,m,955,8,1,1978.0999999940395,292075.5,7116,NNB,A,7
7,test,3,0.0,1-Back,1,m,Wed Apr 02 2025 17:49:58 GMT-0500 (Central Daylight Time),296018.7999999821,008_y_m_n_a.png,O,m,925,9,1,1936.3999999761581,294082.40000000596,7116,NNB,A,8
8,test,3,1.0,1-Back,1,z,Wed Apr 02 2025 17:49:58 GMT-0500 (Central Daylight Time),297902.2999999821,008_y_m_n_a.png,O,z,855,10,1,1873.699999988079,296028.59999999404,7116,NNB,A,9
9,test,3,0.0,1-Back,1,m,Wed Apr 02 2025 17:49:58 GMT-0500 (Central Daylight Time),299851.6999999881,043_m_f_n_a.png,O,m,900,11,1,1924.5999999940395,297927.09999999404,7116,NNB,A,10
10,test,3,0.0,1-Back,1,m,Wed Apr 02 2025 17:49:58 GMT-0500 (Central Daylight Time),301817.6999999881,063_y_f_n_a.png,O,m,926,12,1,1943.0999999940395,299874.59999999404,7116,NNB,A,11
10,test,3,1.0,1-Back,0,z,Wed Apr 02 2025 17:49:58 GMT-0500 (Central Daylight Time),304217.1999999881,063_y_f_n_a.png,O,m,1351,13,1,2368.5,301848.6999999881,7116,NNB,A,12
11,test,3,0.0,1-Back,1,m,Wed Apr 02 2025 17:49:58 GMT-0500 (Central Daylight Time),306349.59999999404,043_m_f_n_a.png,O,m,1088,14,1,2101.5,304248.09999999404,7116,NNB,A,13
12,test,3,0.0,1-Back,1,m,Wed Apr 02 2025 17:49:58 GMT-0500 (Central Daylight Time),308348.90000000596,058_m_m_n_a.png,O,m,956,15,1,1969.2000000178814,306379.6999999881,7116,NNB,A,14
12,test,3,1.0,1-Back,0,z,Wed Apr 02 2025 17:49:58 GMT-0500 (Central Daylight Time),311398.0,058_m_m_n_a.png,O,None,2014,16,1,3018.0999999940395,308379.90000000596,7116,NNB,A,15
13,test,3,0.0,1-Back,1,m,Wed Apr 02 2025 17:49:58 GMT-0500 (Central Daylight Time),314130.40000000596,047_o_f_n_a.png,O,m,1683,17,1,2707.2000000178814,311423.1999999881,7116,NNB,A,16
13,test,3,1.0,1-Back,0,z,Wed Apr 02 2025 17:49:58 GMT-0500 (Central Daylight Time),317179.1999999881,047_o_f_n_a.png,O,None,2014,18,1,3025.199999988079,314154.0,7116,NNB,A,17
0,test,4,1.0,1-Back,,,Wed Apr 02 2025 17:49:58 GMT-0500 (Central Daylight Time),317179.1999999881,050_m_f_n_a.png,O,space,10518,1,1,3025.199999988079,314154.0,7116,NNB,A,0
1,test,4,0.0,1-Back,1,m,Wed Apr 02 2025 17:49:58 GMT-0500 (Central Daylight Time),331925.59999999404,046_o_m_n_a.png,O,m,1097,2,1,2111.4000000059605,329814.1999999881,7116,NNB,A,1
2,test,4,0.0,1-Back,1,m,Wed Apr 02 2025 17:49:58 GMT-0500 (Central Daylight Time),333657.09999999404,050_m_f_n_a.png,O,m,676,3,1,1700.4000000059605,331956.6999999881,7116,NNB,A,2
3,test,4,0.0,1-Back,1,m,Wed Apr 02 2025 17:49:58 GMT-0500 (Central Daylight Time),335373.59999999404,044_o_f_n_a.png,O,m,672,4,1,1690.0,333683.59999999404,7116,NNB,A,3
3,test,4,1.0,1-Back,0,z,Wed Apr 02 2025 17:49:58 GMT-0500 (Central Daylight Time),337889.09999999404,044_o_f_n_a.png,O,m,1476,5,1,2484.699999988079,335404.40000000596,7116,NNB,A,4
4,test,4,0.0,1-Back,1,m,Wed Apr 02 2025 17:49:58 GMT-0500 (Central Daylight Time),339821.7999999821,063_y_f_n_a.png,O,m,896,6,1,1908.0,337913.7999999821,7116,NNB,A,5
5,test,4,0.0,1-Back,1,m,Wed Apr 02 2025 17:49:58 GMT-0500 (Central Daylight Time),341704.59999999404,041_y_m_n_a.png,O,m,827,7,1,1850.699999988079,339853.90000000596,7116,NNB,A,6
6,test,4,1.0,1-Back,1,z,Wed Apr 02 2025 17:49:58 GMT-0500 (Central Daylight Time),343537.1999999881,041_y_m_n_a.png,O,z,785,8,1,1809.199999988079,341728.0,7116,NNB,A,7
7,test,4,0.0,1-Back,1,m,Wed Apr 02 2025 17:49:58 GMT-0500 (Central Daylight Time),345453.09999999404,063_y_f_n_a.png,O,m,879,9,1,1884.9000000059605,343568.1999999881,7116,NNB,A,8
8,test,4,0.0,1-Back,1,m,Wed Apr 02 2025 17:49:58 GMT-0500 (Central Daylight Time),347319.5,045_m_m_n_a.png,O,m,820,10,1,1845.300000011921,345474.1999999881,7116,NNB,A,9
9,test,4,1.0,1-Back,1,z,Wed Apr 02 2025 17:49:58 GMT-0500 (Central Daylight Time),349269.59999999404,045_m_m_n_a.png,O,z,897,11,1,1917.5999999940395,347352.0,7116,NNB,A,10
10,test,4,0.0,1-Back,1,m,Wed Apr 02 2025 17:49:58 GMT-0500 (Central Daylight Time),351351.6999999881,047_o_f_n_a.png,O,m,1020,12,1,2048.4000000059605,349303.2999999821,7116,NNB,A,11
11,test,4,0.0,1-Back,1,m,Wed Apr 02 2025 17:49:58 GMT-0500 (Central Daylight Time),353217.40000000596,053_o_m_n_a.png,O,m,826,13,1,1835.6000000238419,351381.7999999821,7116,NNB,A,12
12,test,4,0.0,1-Back,1,m,Wed Apr 02 2025 17:49:58 GMT-0500 (Central Daylight Time),355317.1999999881,047_o_f_n_a.png,O,m,1063,14,1,2073.0,353244.1999999881,7116,NNB,A,13
13,test,4,0.0,1-Back,1,m,Wed Apr 02 2025 17:49:58 GMT-0500 (Central Daylight Time),357249.1999999881,010_y_f_n_a.png,O,m,893,15,1,1906.0999999940395,355343.09999999404,7116,NNB,A,14
13,test,4,1.0,1-Back,0,z,Wed Apr 02 2025 17:49:58 GMT-0500 (Central Daylight Time),360298.6999999881,010_y_f_n_a.png,O,None,2015,16,1,3027.0,357271.6999999881,7116,NNB,A,15
14,test,4,0.0,1-Back,1,m,Wed Apr 02 2025 17:49:58 GMT-0500 (Central Daylight Time),362231.2999999821,043_m_f_n_a.png,O,m,887,17,1,1907.7999999821186,360323.5,7116,NNB,A,16
15,test,4,1.0,1-Back,1,z,Wed Apr 02 2025 17:49:58 GMT-0500 (Central Daylight Time),364597.0,043_m_f_n_a.png,O,z,1314,18,1,2331.9000000059605,362265.09999999404,7116,NNB,A,17
0,test,5,1.0,1-Back,,,Wed Apr 02 2025 17:49:58 GMT-0500 (Central Daylight Time),364597.0,053_o_m_n_a.png,O,space,1797,1,1,2331.9000000059605,362265.09999999404,7116,NNB,A,0
1,test,5,1.0,1-Back,1,z,Wed Apr 02 2025 17:49:58 GMT-0500 (Central Daylight Time),371161.6999999881,053_o_m_n_a.png,O,z,1601,2,1,2635.0,368526.6999999881,7116,NNB,A,1
2,test,5,0.0,1-Back,1,m,Wed Apr 02 2025 17:49:58 GMT-0500 (Central Daylight Time),373177.7999999821,063_y_f_n_a.png,O,m,950,3,1,1982.8999999761581,371194.90000000596,7116,NNB,A,2
3,test,5,0.0,1-Back,1,m,Wed Apr 02 2025 17:49:58 GMT-0500 (Central Daylight Time),375110.1999999881,041_y_m_n_a.png,O,m,888,4,1,1901.0999999940395,373209.09999999404,7116,NNB,A,3
4,test,5,0.0,1-Back,1,m,Wed Apr 02 2025 17:49:58 GMT-0500 (Central Daylight Time),377076.2999999821,063_y_f_n_a.png,O,m,923,5,1,1936.199999988079,375140.09999999404,7116,NNB,A,4
5,test,5,0.0,1-Back,1,m,Wed Apr 02 2025 17:49:58 GMT-0500 (Central Daylight Time),379059.2999999821,058_m_m_n_a.png,O,m,934,6,1,1957.699999988079,377101.59999999404,7116,NNB,A,5
6,test,5,1.0,1-Back,1,z,Wed Apr 02 2025 17:49:58 GMT-0500 (Central Daylight Time),380741.40000000596,058_m_m_n_a.png,O,z,630,7,1,1642.6000000238419,379098.7999999821,7116,NNB,A,6
7,test,5,0.0,1-Back,1,m,Wed Apr 02 2025 17:49:58 GMT-0500 (Central Daylight Time),383274.6999999881,010_y_f_n_a.png,O,m,1467,8,1,2500.4000000059605,380774.2999999821,7116,NNB,A,7
8,test,5,0.0,1-Back,1,m,Wed Apr 02 2025 17:49:58 GMT-0500 (Central Daylight Time),385290.40000000596,008_y_m_n_a.png,O,m,966,9,1,1988.300000011921,383302.09999999404,7116,NNB,A,8
9,test,5,0.0,1-Back,1,m,Wed Apr 02 2025 17:49:58 GMT-0500 (Central Daylight Time),387222.90000000596,010_y_f_n_a.png,O,m,895,10,1,1909.2000000178814,385313.6999999881,7116,NNB,A,9
10,test,5,0.0,1-Back,1,m,Wed Apr 02 2025 17:49:58 GMT-0500 (Central Daylight Time),389171.7999999821,047_o_f_n_a.png,O,m,897,11,1,1918.2999999821186,387253.5,7116,NNB,A,10
10,test,5,1.0,1-Back,0,z,Wed Apr 02 2025 17:49:58 GMT-0500 (Central Daylight Time),392221.5,047_o_f_n_a.png,O,None,2014,12,1,3032.0,389189.5,7116,NNB,A,11
11,test,5,0.0,1-Back,1,m,Wed Apr 02 2025 17:49:58 GMT-0500 (Central Daylight Time),394154.2999999821,046_o_m_n_a.png,O,m,884,13,1,1909.699999988079,392244.59999999404,7116,NNB,A,12
12,test,5,0.0,1-Back,1,m,Wed Apr 02 2025 17:49:58 GMT-0500 (Central Daylight Time),395936.5,050_m_f_n_a.png,O,m,727,14,1,1749.2000000178814,394187.2999999821,7116,NNB,A,13
12,test,5,1.0,1-Back,0,z,Wed Apr 02 2025 17:49:58 GMT-0500 (Central Daylight Time),398702.59999999404,050_m_f_n_a.png,O,m,1721,15,1,2740.300000011921,395962.2999999821,7116,NNB,A,14
13,test,5,0.0,1-Back,1,m,Wed Apr 02 2025 17:49:58 GMT-0500 (Central Daylight Time),400702.0,046_o_m_n_a.png,O,m,956,16,1,1975.0,398727.0,7116,NNB,A,15
14,test,5,0.0,1-Back,1,m,Wed Apr 02 2025 17:49:58 GMT-0500 (Central Daylight Time),402634.7999999821,043_m_f_n_a.png,O,m,884,17,1,1904.5,400730.2999999821,7116,NNB,A,16
15,test,5,0.0,1-Back,1,m,Wed Apr 02 2025 17:49:58 GMT-0500 (Central Daylight Time),404484.90000000596,045_m_m_n_a.png,O,m,798,18,1,1817.0,402667.90000000596,7116,NNB,A,17
0,prac,1,0.0,2-Back,,,Wed Apr 02 2025 17:49:58 GMT-0500 (Central Daylight Time),404484.90000000596,008_y_m_n_a.png,O,space,14281,1,1,1817.0,402667.90000000596,7116,NNB,A,0
0,prac,1,0.0,2-Back,,,Wed Apr 02 2025 17:49:58 GMT-0500 (Central Daylight Time),404484.90000000596,043_m_f_n_a.png,O,space,14281,2,1,1817.0,402667.90000000596,7116,NNB,A,0
0,prac,1,1.0,2-Back,0,m,Wed Apr 02 2025 17:49:58 GMT-0500 (Central Daylight Time),541289.1999999881,046_o_m_n_a.png,O,None,2011,3,1,2828.0,538461.1999999881,7116,NNB,A,1
0,prac,1,0.0,2-Back,0,m,Wed Apr 02 2025 17:49:58 GMT-0500 (Central Daylight Time),544206.1999999881,047_o_f_n_a.png,O,None,2016,4,1,2890.0,541316.1999999881,7116,NNB,A,2
0,prac,1,0.0,2-Back,0,z,Wed Apr 02 2025 17:49:58 GMT-0500 (Central Daylight Time),545870.1999999881,046_o_m_n_a.png,O,m,843,5,1,1621.699999988079,544248.5,7116,NNB,A,3
0,prac,1,1.0,2-Back,0,z,Wed Apr 02 2025 17:49:58 GMT-0500 (Central Daylight Time),547653.7999999821,047_o_f_n_a.png,O,m,988,6,1,1764.3999999761581,545889.400000006,7116,NNB,A,4
0,prac,1,0.0,2-Back,0,m,Wed Apr 02 2025 17:49:58 GMT-0500 (Central Daylight Time),550502.0,045_m_m_n_a.png,O,None,2005,7,1,2821.5999999940395,547680.400000006,7116,NNB,A,5
1,prac,1,0.0,2-Back,1,m,Wed Apr 02 2025 17:49:58 GMT-0500 (Central Daylight Time),552335.5,053_o_m_n_a.png,O,m,1012,8,1,1822.5,550513.0,7116,NNB,A,6
2,prac,1,0.0,2-Back,1,m,Wed Apr 02 2025 17:49:58 GMT-0500 (Central Daylight Time),554701.2999999821,010_y_f_n_a.png,O,m,1444,9,1,2321.5,552379.7999999821,7116,NNB,A,7
2,prac,1,1.0,2-Back,0,z,Wed Apr 02 2025 17:49:58 GMT-0500 (Central Daylight Time),556934.400000006,053_o_m_n_a.png,O,m,1427,10,1,2206.800000011921,554727.599999994,7116,NNB,A,8
2,prac,1,0.0,2-Back,0,m,Wed Apr 02 2025 17:49:58 GMT-0500 (Central Daylight Time),559798.7999999821,063_y_f_n_a.png,O,None,2001,11,1,2827.5999999940395,556971.1999999881,7116,NNB,A,9
2,prac,1,0.0,2-Back,0,m,Wed Apr 02 2025 17:49:58 GMT-0500 (Central Daylight Time),561465.099999994,045_m_m_n_a.png,O,z,846,12,1,1655.800000011921,559809.2999999821,7116,NNB,A,10
0,prac,2,0.0,2-Back,,,Wed Apr 02 2025 17:49:58 GMT-0500 (Central Daylight Time),561465.099999994,008_y_m_n_a.png,O,a,35436,1,1,1655.800000011921,559809.2999999821,7116,NNB,A,0
0,prac,2,0.0,2-Back,,,Wed Apr 02 2025 17:49:58 GMT-0500 (Central Daylight Time),561465.099999994,043_m_f_n_a.png,O,a,35436,2,1,1655.800000011921,559809.2999999821,7116,NNB,A,0
0,prac,2,1.0,2-Back,0,m,Wed Apr 02 2025 17:49:58 GMT-0500 (Central Daylight Time),604900.7999999821,046_o_m_n_a.png,O,None,2003,3,1,2804.899999976158,602095.900000006,7116,NNB,A,1
1,prac,2,0.0,2-Back,1,m,Wed Apr 02 2025 17:49:58 GMT-0500 (Central Daylight Time),607617.5,047_o_f_n_a.png,O,m,1845,4,1,2706.2000000178814,604911.2999999821,7116,NNB,A,2
2,prac,2,0.0,2-Back,1,z,Wed Apr 02 2025 17:49:58 GMT-0500 (Central Daylight Time),609966.7999999821,046_o_m_n_a.png,O,z,1548,5,1,2320.7999999821186,607646.0,7116,NNB,A,3
2,prac,2,1.0,2-Back,0,z,Wed Apr 02 2025 17:49:58 GMT-0500 (Central Daylight Time),612265.7999999821,047_o_f_n_a.png,O,m,1491,6,1,2259.399999976158,610006.400000006,7116,NNB,A,4
3,prac,2,0.0,2-Back,1,m,Wed Apr 02 2025 17:49:58 GMT-0500 (Central Daylight Time),614582.400000006,045_m_m_n_a.png,O,m,1470,7,1,2286.4000000059605,612296.0,7116,NNB,A,5
4,prac,2,0.0,2-Back,1,m,Wed Apr 02 2025 17:49:58 GMT-0500 (Central Daylight Time),616847.900000006,053_o_m_n_a.png,O,m,1413,8,1,2236.4000000059605,614611.5,7116,NNB,A,6
5,prac,2,0.0,2-Back,1,m,Wed Apr 02 2025 17:49:58 GMT-0500 (Central Daylight Time),618963.599999994,010_y_f_n_a.png,O,m,1219,9,1,2081.4000000059605,616882.1999999881,7116,NNB,A,7
5,prac,2,1.0,2-Back,0,z,Wed Apr 02 2025 17:49:58 GMT-0500 (Central Daylight Time),620896.6999999881,053_o_m_n_a.png,O,m,1118,10,1,1892.9000000059605,619003.7999999821,7116,NNB,A,8
6,prac,2,0.0,2-Back,1,m,Wed Apr 02 2025 17:49:58 GMT-0500 (Central Daylight Time),623029.099999994,063_y_f_n_a.png,O,m,1258,11,1,2097.800000011921,620931.2999999821,7116,NNB,A,9
6,prac,2,0.0,2-Back,0,m,Wed Apr 02 2025 17:49:58 GMT-0500 (Central Daylight Time),624778.599999994,045_m_m_n_a.png,O,z,948,12,1,1715.699999988079,623062.900000006,7116,NNB,A,10
0,test,1,0.0,2-Back,,,Wed Apr 02 2025 17:49:58 GMT-0500 (Central Daylight Time),624778.599999994,041_y_m_n_a.png,O,space,15425,1,1,1715.699999988079,623062.900000006,7116,NNB,A,0
0,test,1,0.0,2-Back,,,Wed Apr 02 2025 17:49:58 GMT-0500 (Central Daylight Time),624778.599999994,041_y_m_n_a.png,O,space,15425,2,1,1715.699999988079,623062.900000006,7116,NNB,A,0
1,test,1,0.0,2-Back,1,m,Wed Apr 02 2025 17:49:58 GMT-0500 (Central Daylight Time),677244.5,047_o_f_n_a.png,O,m,790,3,1,1811.7000000178814,675432.7999999821,7116,NNB,A,1
2,test,1,0.0,2-Back,1,m,Wed Apr 02 2025 17:49:58 GMT-0500 (Central Daylight Time),679627.2999999821,058_m_m_n_a.png,O,m,1333,4,1,2355.5999999940395,677271.6999999881,7116,NNB,A,2
3,test,1,1.0,2-Back,1,z,Wed Apr 02 2025 17:49:58 GMT-0500 (Central Daylight Time),682309.6999999881,047_o_f_n_a.png,O,z,1622,5,1,2648.4000000059605,679661.2999999821,7116,NNB,A,3
4,test,1,0.0,2-Back,1,m,Wed Apr 02 2025 17:49:58 GMT-0500 (Central Daylight Time),684492.1999999881,063_y_f_n_a.png,O,m,1123,6,1,2151.0,682341.1999999881,7116,NNB,A,4
4,test,1,0.0,2-Back,0,m,Wed Apr 02 2025 17:49:58 GMT-0500 (Central Daylight Time),686924.900000006,058_m_m_n_a.png,O,z,1366,7,1,2398.300000011921,684526.599999994,7116,NNB,A,5
5,test,1,1.0,2-Back,1,z,Wed Apr 02 2025 17:49:58 GMT-0500 (Central Daylight Time),689456.400000006,063_y_f_n_a.png,O,z,1475,8,1,2497.300000011921,686959.099999994,7116,NNB,A,6
6,test,1,0.0,2-Back,1,m,Wed Apr 02 2025 17:49:58 GMT-0500 (Central Daylight Time),691706.5,008_y_m_n_a.png,O,m,1225,9,1,2241.0,689465.5,7116,NNB,A,7
7,test,1,0.0,2-Back,1,m,Wed Apr 02 2025 17:49:58 GMT-0500 (Central Daylight Time),694272.400000006,044_o_f_n_a.png,O,m,1528,10,1,2538.5,691733.900000006,7116,NNB,A,8
8,test,1,1.0,2-Back,1,z,Wed Apr 02 2025 17:49:58 GMT-0500 (Central Daylight Time),696671.2999999821,008_y_m_n_a.png,O,z,1338,11,1,2366.5,694304.7999999821,7116,NNB,A,9
9,test,1,0.0,2-Back,1,m,Wed Apr 02 2025 17:49:58 GMT-0500 (Central Daylight Time),698920.7999999821,043_m_f_n_a.png,O,m,1186,12,1,2215.399999976158,696705.400000006,7116,NNB,A,10
10,test,1,0.0,2-Back,1,m,Wed Apr 02 2025 17:49:58 GMT-0500 (Central Daylight Time),701369.900000006,043_m_f_n_a.png,O,m,1394,13,1,2413.600000023842,698956.2999999821,7116,NNB,A,11
11,test,1,0.0,2-Back,1,m,Wed Apr 02 2025 17:49:58 GMT-0500 (Central Daylight Time),703652.599999994,046_o_m_n_a.png,O,m,1233,14,1,2255.4000000059605,701397.1999999881,7116,NNB,A,12
11,test,1,0.0,2-Back,0,m,Wed Apr 02 2025 17:49:58 GMT-0500 (Central Daylight Time),706185.0,044_o_f_n_a.png,O,z,1485,15,1,2509.2000000178814,703675.7999999821,7116,NNB,A,13
11,test,1,1.0,2-Back,0,z,Wed Apr 02 2025 17:49:58 GMT-0500 (Central Daylight Time),708350.6999999881,046_o_m_n_a.png,O,m,1112,16,1,2131.7999999821186,706218.900000006,7116,NNB,A,14
12,test,1,0.0,2-Back,1,m,Wed Apr 02 2025 17:49:58 GMT-0500 (Central Daylight Time),710400.400000006,050_m_f_n_a.png,O,m,1003,17,1,2019.7000000178814,708380.6999999881,7116,NNB,A,15
12,test,1,0.0,2-Back,0,m,Wed Apr 02 2025 17:49:58 GMT-0500 (Central Daylight Time),713449.2999999821,045_m_m_n_a.png,O,None,2015,18,1,3021.699999988079,710427.599999994,7116,NNB,A,16
0,test,2,0.0,2-Back,,,Wed Apr 02 2025 17:49:58 GMT-0500 (Central Daylight Time),713449.2999999821,045_m_m_n_a.png,O,space,6152,1,1,3021.699999988079,710427.599999994,7116,NNB,A,0
0,test,2,0.0,2-Back,,,Wed Apr 02 2025 17:49:58 GMT-0500 (Central Daylight Time),713449.2999999821,010_y_f_n_a.png,O,space,6152,2,1,3021.699999988079,710427.599999994,7116,NNB,A,0
1,test,2,1.0,2-Back,1,z,Wed Apr 02 2025 17:49:58 GMT-0500 (Central Daylight Time),727361.2999999821,045_m_m_n_a.png,O,z,1526,3,1,2539.2999999821186,724822.0,7116,NNB,A,1
1,test,2,0.0,2-Back,0,m,Wed Apr 02 2025 17:49:58 GMT-0500 (Central Daylight Time),730427.0,050_m_f_n_a.png,O,None,2014,4,1,3032.2000000178814,727394.7999999821,7116,NNB,A,2
1,test,2,0.0,2-Back,0,m,Wed Apr 02 2025 17:49:58 GMT-0500 (Central Daylight Time),732809.400000006,010_y_f_n_a.png,O,z,1326,5,1,2349.5,730459.900000006,7116,NNB,A,3
2,test,2,0.0,2-Back,1,m,Wed Apr 02 2025 17:49:58 GMT-0500 (Central Daylight Time),735008.7999999821,046_o_m_n_a.png,O,m,1152,6,1,2171.0999999940395,732837.6999999881,7116,NNB,A,4
2,test,2,0.0,2-Back,0,m,Wed Apr 02 2025 17:49:58 GMT-0500 (Central Daylight Time),737307.5,063_y_f_n_a.png,O,z,1249,7,1,2264.7000000178814,735042.7999999821,7116,NNB,A,5
3,test,2,1.0,2-Back,1,z,Wed Apr 02 2025 17:49:58 GMT-0500 (Central Daylight Time),739590.6999999881,046_o_m_n_a.png,O,z,1254,8,1,2268.0999999940395,737322.599999994,7116,NNB,A,6
4,test,2,0.0,2-Back,1,m,Wed Apr 02 2025 17:49:58 GMT-0500 (Central Daylight Time),741573.400000006,008_y_m_n_a.png,O,m,939,9,1,1955.9000000059605,739617.5,7116,NNB,A,7
5,test,2,0.0,2-Back,1,m,Wed Apr 02 2025 17:49:58 GMT-0500 (Central Daylight Time),743922.7999999821,008_y_m_n_a.png,O,m,1300,10,1,2324.0999999940395,741598.6999999881,7116,NNB,A,8
6,test,2,0.0,2-Back,1,m,Wed Apr 02 2025 17:49:58 GMT-0500 (Central Daylight Time),746555.0,043_m_f_n_a.png,O,m,1566,11,1,2596.800000011921,743958.1999999881,7116,NNB,A,9
7,test,2,0.0,2-Back,1,m,Wed Apr 02 2025 17:49:58 GMT-0500 (Central Daylight Time),749204.1999999881,010_y_f_n_a.png,O,m,1590,12,1,2615.5,746588.6999999881,7116,NNB,A,10
7,test,2,1.0,2-Back,0,z,Wed Apr 02 2025 17:49:58 GMT-0500 (Central Daylight Time),751803.5,043_m_f_n_a.png,O,m,1533,13,1,2564.7000000178814,749238.7999999821,7116,NNB,A,11
8,test,2,0.0,2-Back,1,m,Wed Apr 02 2025 17:49:58 GMT-0500 (Central Daylight Time),754152.400000006,053_o_m_n_a.png,O,m,1285,14,1,2314.800000011921,751837.599999994,7116,NNB,A,12
9,test,2,0.0,2-Back,1,m,Wed Apr 02 2025 17:49:58 GMT-0500 (Central Daylight Time),756885.400000006,053_o_m_n_a.png,O,m,1680,15,1,2696.5,754188.900000006,7116,NNB,A,13
10,test,2,0.0,2-Back,1,m,Wed Apr 02 2025 17:49:58 GMT-0500 (Central Daylight Time),759501.0,044_o_f_n_a.png,O,m,1564,16,1,2582.0,756919.0,7116,NNB,A,14
11,test,2,0.0,2-Back,1,m,Wed Apr 02 2025 17:49:58 GMT-0500 (Central Daylight Time),761600.099999994,058_m_m_n_a.png,O,m,1053,17,1,2068.9000000059605,759531.1999999881,7116,NNB,A,15
11,test,2,1.0,2-Back,0,z,Wed Apr 02 2025 17:49:58 GMT-0500 (Central Daylight Time),764049.5,044_o_f_n_a.png,O,m,1401,18,1,2419.300000011921,761630.1999999881,7116,NNB,A,16
0,test,3,1.0,2-Back,,,Wed Apr 02 2025 17:49:58 GMT-0500 (Central Daylight Time),764049.5,041_y_m_n_a.png,O,space,4336,1,1,2419.300000011921,761630.1999999881,7116,NNB,A,0
0,test,3,1.0,2-Back,,,Wed Apr 02 2025 17:49:58 GMT-0500 (Central Daylight Time),764049.5,041_y_m_n_a.png,O,space,4336,2,1,2419.300000011921,761630.1999999881,7116,NNB,A,0
1,test,3,0.0,2-Back,1,m,Wed Apr 02 2025 17:49:58 GMT-0500 (Central Daylight Time),776044.900000006,044_o_f_n_a.png,O,m,1454,3,1,2470.5,773574.400000006,7116,NNB,A,1
2,test,3,0.0,2-Back,1,m,Wed Apr 02 2025 17:49:58 GMT-0500 (Central Daylight Time),778211.099999994,045_m_m_n_a.png,O,m,1116,4,1,2147.5,776063.599999994,7116,NNB,A,2
3,test,3,1.0,2-Back,1,z,Wed Apr 02 2025 17:49:58 GMT-0500 (Central Daylight Time),780194.0,044_o_f_n_a.png,O,z,929,5,1,1946.7000000178814,778247.2999999821,7116,NNB,A,3
4,test,3,0.0,2-Back,1,m,Wed Apr 02 2025 17:49:58 GMT-0500 (Central Daylight Time),782610.2999999821,008_y_m_n_a.png,O,m,1377,6,1,2394.199999988079,780216.099999994,7116,NNB,A,4
4,test,3,0.0,2-Back,0,m,Wed Apr 02 2025 17:49:58 GMT-0500 (Central Daylight Time),785192.5,045_m_m_n_a.png,O,z,1546,7,1,2553.5999999940395,782638.900000006,7116,NNB,A,5
4,test,3,1.0,2-Back,0,z,Wed Apr 02 2025 17:49:58 GMT-0500 (Central Daylight Time),787675.0,008_y_m_n_a.png,O,m,1433,8,1,2454.4000000059605,785220.599999994,7116,NNB,A,6
5,test,3,0.0,2-Back,1,m,Wed Apr 02 2025 17:49:58 GMT-0500 (Central Daylight Time),789973.2999999821,010_y_f_n_a.png,O,m,1254,9,1,2270.399999976158,787702.900000006,7116,NNB,A,7
6,test,3,0.0,2-Back,1,m,Wed Apr 02 2025 17:49:58 GMT-0500 (Central Daylight Time),792073.5,058_m_m_n_a.png,O,m,1068,10,1,2090.5999999940395,789982.900000006,7116,NNB,A,8
6,test,3,1.0,2-Back,0,z,Wed Apr 02 2025 17:49:58 GMT-0500 (Central Daylight Time),794556.1999999881,010_y_f_n_a.png,O,m,1424,11,1,2448.5,792107.6999999881,7116,NNB,A,9
7,test,3,1.0,2-Back,1,z,Wed Apr 02 2025 17:49:58 GMT-0500 (Central Daylight Time),797288.400000006,058_m_m_n_a.png,O,z,1677,12,1,2694.7000000178814,794593.6999999881,7116,NNB,A,10
8,test,3,0.0,2-Back,1,m,Wed Apr 02 2025 17:49:58 GMT-0500 (Central Daylight Time),799638.099999994,044_o_f_n_a.png,O,m,1289,13,1,2314.9000000059605,797323.1999999881,7116,NNB,A,11
9,test,3,0.0,2-Back,1,m,Wed Apr 02 2025 17:49:58 GMT-0500 (Central Daylight Time),801753.5,050_m_f_n_a.png,O,m,1059,14,1,2080.800000011921,799672.6999999881,7116,NNB,A,12
10,test,3,0.0,2-Back,1,m,Wed Apr 02 2025 17:49:58 GMT-0500 (Central Daylight Time),803919.400000006,046_o_m_n_a.png,O,m,1128,15,1,2142.9000000059605,801776.5,7116,NNB,A,13
11,test,3,1.0,2-Back,1,z,Wed Apr 02 2025 17:49:58 GMT-0500 (Central Daylight Time),805852.400000006,050_m_f_n_a.png,O,z,865,16,1,1898.300000011921,803954.099999994,7116,NNB,A,14
12,test,3,0.0,2-Back,1,m,Wed Apr 02 2025 17:49:58 GMT-0500 (Central Daylight Time),808017.400000006,047_o_f_n_a.png,O,m,1116,17,1,2135.800000011921,805881.599999994,7116,NNB,A,15
13,test,3,0.0,2-Back,1,m,Wed Apr 02 2025 17:49:58 GMT-0500 (Central Daylight Time),810367.5,047_o_f_n_a.png,O,m,1330,18,1,2341.2000000178814,808026.2999999821,7116,NNB,A,16
0,test,4,0.0,2-Back,,,Wed Apr 02 2025 17:49:58 GMT-0500 (Central Daylight Time),810367.5,053_o_m_n_a.png,O,space,5538,1,1,2341.2000000178814,808026.2999999821,7116,NNB,A,0
0,test,4,0.0,2-Back,,,Wed Apr 02 2025 17:49:58 GMT-0500 (Central Daylight Time),810367.5,063_y_f_n_a.png,O,space,5538,2,1,2341.2000000178814,808026.2999999821,7116,NNB,A,0
1,test,4,1.0,2-Back,1,z,Wed Apr 02 2025 17:49:58 GMT-0500 (Central Daylight Time),823679.900000006,053_o_m_n_a.png,O,z,1512,3,1,2531.600000023842,821148.2999999821,7116,NNB,A,1
2,test,4,1.0,2-Back,1,z,Wed Apr 02 2025 17:49:58 GMT-0500 (Central Daylight Time),826295.5,063_y_f_n_a.png,O,z,1578,4,1,2591.0,823704.5,7116,NNB,A,2
3,test,4,0.0,2-Back,1,m,Wed Apr 02 2025 17:49:58 GMT-0500 (Central Daylight Time),829278.0,044_o_f_n_a.png,O,m,1921,5,1,2949.0,826329.0,7116,NNB,A,3
3,test,4,0.0,2-Back,0,m,Wed Apr 02 2025 17:49:58 GMT-0500 (Central Daylight Time),831661.0,044_o_f_n_a.png,O,z,1316,6,1,2350.2000000178814,829310.7999999821,7116,NNB,A,4
4,test,4,0.0,2-Back,1,m,Wed Apr 02 2025 17:49:58 GMT-0500 (Central Daylight Time),833843.400000006,043_m_f_n_a.png,O,m,1133,7,1,2158.800000011921,831684.599999994,7116,NNB,A,5
5,test,4,0.0,2-Back,1,m,Wed Apr 02 2025 17:49:58 GMT-0500 (Central Daylight Time),836025.7999999821,008_y_m_n_a.png,O,m,1136,8,1,2153.199999988079,833872.599999994,7116,NNB,A,6
6,test,4,1.0,2-Back,1,z,Wed Apr 02 2025 17:49:58 GMT-0500 (Central Daylight Time),838291.599999994,043_m_f_n_a.png,O,z,1207,9,1,2232.5999999940395,836059.0,7116,NNB,A,7
7,test,4,0.0,2-Back,1,m,Wed Apr 02 2025 17:49:58 GMT-0500 (Central Daylight Time),840557.599999994,058_m_m_n_a.png,O,m,1222,10,1,2239.0,838318.599999994,7116,NNB,A,8
8,test,4,0.0,2-Back,1,m,Wed Apr 02 2025 17:49:58 GMT-0500 (Central Daylight Time),843173.2999999821,008_y_m_n_a.png,O,m,1563,11,1,2584.0,840589.2999999821,7116,NNB,A,9
9,test,4,0.0,2-Back,1,m,Wed Apr 02 2025 17:49:58 GMT-0500 (Central Daylight Time),845572.599999994,047_o_f_n_a.png,O,m,1357,12,1,2371.0999999940395,843201.5,7116,NNB,A,10
10,test,4,0.0,2-Back,1,m,Wed Apr 02 2025 17:49:58 GMT-0500 (Central Daylight Time),847804.400000006,041_y_m_n_a.png,O,m,1196,13,1,2202.7000000178814,845601.6999999881,7116,NNB,A,11
11,test,4,1.0,2-Back,1,z,Wed Apr 02 2025 17:49:58 GMT-0500 (Central Daylight Time),849588.099999994,047_o_f_n_a.png,O,z,757,14,1,1773.5999999940395,847814.5,7116,NNB,A,12
11,test,4,1.0,2-Back,0,z,Wed Apr 02 2025 17:49:58 GMT-0500 (Central Daylight Time),851803.900000006,041_y_m_n_a.png,O,m,1174,15,1,2184.100000023842,849619.7999999821,7116,NNB,A,13
12,test,4,0.0,2-Back,1,m,Wed Apr 02 2025 17:49:58 GMT-0500 (Central Daylight Time),854803.099999994,045_m_m_n_a.png,O,m,1933,16,1,2964.300000011921,851838.7999999821,7116,NNB,A,14
13,test,4,0.0,2-Back,1,m,Wed Apr 02 2025 17:49:58 GMT-0500 (Central Daylight Time),857685.6999999881,050_m_f_n_a.png,O,m,1831,17,1,2848.5,854837.1999999881,7116,NNB,A,15
13,test,4,1.0,2-Back,0,z,Wed Apr 02 2025 17:49:58 GMT-0500 (Central Daylight Time),860751.099999994,045_m_m_n_a.png,O,None,2015,18,1,3031.4000000059605,857719.6999999881,7116,NNB,A,16
0,test,5,1.0,2-Back,,,Wed Apr 02 2025 17:49:58 GMT-0500 (Central Daylight Time),860751.099999994,041_y_m_n_a.png,O,space,3050,1,1,3031.4000000059605,857719.6999999881,7116,NNB,A,0
0,test,5,1.0,2-Back,,,Wed Apr 02 2025 17:49:58 GMT-0500 (Central Daylight Time),860751.099999994,050_m_f_n_a.png,O,space,3050,2,1,3031.4000000059605,857719.6999999881,7116,NNB,A,0
1,test,5,1.0,2-Back,1,z,Wed Apr 02 2025 17:49:58 GMT-0500 (Central Daylight Time),870998.0,041_y_m_n_a.png,O,z,980,3,1,1999.9000000059605,868998.099999994,7116,NNB,A,1
2,test,5,1.0,2-Back,1,z,Wed Apr 02 2025 17:49:58 GMT-0500 (Central Daylight Time),873181.1999999881,050_m_f_n_a.png,O,z,1131,4,1,2147.699999988079,871033.5,7116,NNB,A,2
3,test,5,0.0,2-Back,1,m,Wed Apr 02 2025 17:49:58 GMT-0500 (Central Daylight Time),875712.7999999821,047_o_f_n_a.png,O,m,1485,5,1,2506.399999976158,873206.400000006,7116,NNB,A,3
3,test,5,0.0,2-Back,0,m,Wed Apr 02 2025 17:49:58 GMT-0500 (Central Daylight Time),878328.5,041_y_m_n_a.png,O,z,1552,6,1,2580.4000000059605,875748.099999994,7116,NNB,A,4
4,test,5,0.0,2-Back,1,m,Wed Apr 02 2025 17:49:58 GMT-0500 (Central Daylight Time),880277.400000006,010_y_f_n_a.png,O,m,896,7,1,1916.1000000238419,878361.2999999821,7116,NNB,A,5
4,test,5,0.0,2-Back,0,m,Wed Apr 02 2025 17:49:58 GMT-0500 (Central Daylight Time),883327.099999994,047_o_f_n_a.png,O,None,2011,8,1,3017.5,880309.599999994,7116,NNB,A,6
5,test,5,1.0,2-Back,1,z,Wed Apr 02 2025 17:49:58 GMT-0500 (Central Daylight Time),885509.5,010_y_f_n_a.png,O,z,1122,9,1,2147.7000000178814,883361.7999999821,7116,NNB,A,7
6,test,5,0.0,2-Back,1,m,Wed Apr 02 2025 17:49:58 GMT-0500 (Central Daylight Time),887592.1999999881,046_o_m_n_a.png,O,m,1044,10,1,2057.9000000059605,885534.2999999821,7116,NNB,A,8
7,test,5,0.0,2-Back,1,m,Wed Apr 02 2025 17:49:58 GMT-0500 (Central Daylight Time),889858.099999994,043_m_f_n_a.png,O,m,1209,11,1,2231.5999999940395,887626.5,7116,NNB,A,9
8,test,5,0.0,2-Back,1,m,Wed Apr 02 2025 17:49:58 GMT-0500 (Central Daylight Time),891924.1999999881,058_m_m_n_a.png,O,m,1023,12,1,2038.5,889885.6999999881,7116,NNB,A,10
9,test,5,0.0,2-Back,1,m,Wed Apr 02 2025 17:49:58 GMT-0500 (Central Daylight Time),894172.5,046_o_m_n_a.png,O,m,1214,13,1,2219.9000000059605,891952.599999994,7116,NNB,A,11
9,test,5,1.0,2-Back,0,z,Wed Apr 02 2025 17:49:58 GMT-0500 (Central Daylight Time),896638.5,058_m_m_n_a.png,O,m,1437,14,1,2452.7000000178814,894185.7999999821,7116,NNB,A,12
10,test,5,0.0,2-Back,1,m,Wed Apr 02 2025 17:49:58 GMT-0500 (Central Daylight Time),899654.7999999821,063_y_f_n_a.png,O,m,1995,15,1,3006.399999976158,896648.400000006,7116,NNB,A,13
11,test,5,0.0,2-Back,1,m,Wed Apr 02 2025 17:49:58 GMT-0500 (Central Daylight Time),901655.099999994,053_o_m_n_a.png,O,m,949,16,1,1966.5,899688.599999994,7116,NNB,A,14
12,test,5,0.0,2-Back,1,m,Wed Apr 02 2025 17:49:58 GMT-0500 (Central Daylight Time),904636.6999999881,043_m_f_n_a.png,O,m,1916,17,1,2947.2999999821186,901689.400000006,7116,NNB,A,15
12,test,5,1.0,2-Back,0,z,Wed Apr 02 2025 17:49:58 GMT-0500 (Central Daylight Time),907452.2999999821,053_o_m_n_a.png,O,m,1756,18,1,2782.899999976158,904669.400000006,7116,NNB,A,16
