acc_sum,block_c,block_dur,condition,correct,correct_response,countdown,datetime,endtime,project,response,response_time,response_time_test1_response,response_time_test2_response,row_sel,same,session_number,start_end,starttime,stim1,stim2,subject_id,task,task_vers,time_test1,time_test2,trial
1,1,0.0,prac,1,z,30000.0,Fri Feb 28 2025 14:32:29 GMT-0600 (Central Standard Time),59837.30000001192,O,z,2243,,,4,yes,1,3775.100000023842,56062.19999998808,RSM,RSM,7042,LC,B,,,1
2,1,0.0,prac,1,z,30000.0,Fri Feb 28 2025 14:32:29 GMT-0600 (Central Standard Time),63035.0,O,z,1659,,,2,yes,1,3189.0,59846.0,NBGFSM,NBGFSM,7042,LC,B,,,2
3,1,0.0,prac,1,m,30000.0,Fri Feb 28 2025 14:32:29 GMT-0600 (Central Standard Time),65484.80000001192,O,m,918,,,1,no,1,2441.399999976158,63043.40000003576,RNV,FNV,7042,LC,B,,,3
4,1,0.0,prac,1,m,30000.0,Fri Feb 28 2025 14:32:29 GMT-0600 (Central Standard Time),68699.90000003576,O,m,1676,,,3,no,1,3206.7000000476837,65493.19999998808,QHZXPC,QHZWPC,7042,LC,B,,,4
5,1,0.0,prac,1,m,30000.0,Fri Feb 28 2025 14:32:29 GMT-0600 (Central Standard Time),72416.5,O,m,2181,,,5,no,1,3710.300000011921,68706.19999998808,LNDPRSKQB,LNDPRSJQB,7042,LC,B,,,5
6,1,0.0,prac,1,z,30000.0,Fri Feb 28 2025 14:32:29 GMT-0600 (Central Standard Time),76199.69999998808,O,z,2260,,,6,yes,1,3777.0,72422.69999998808,CSDBFPHXZ,CSDBFPHXZ,7042,LC,B,,,6
1,1,1.3650000095367432,test,1,m,28634.999990463257,Fri Feb 28 2025 14:32:29 GMT-0600 (Central Standard Time),97224.5,O,m,1354,1354,,1,no,1,1361.5999999642372,95862.90000003576,HCF,RCF,7042,LC,B,89437,,1
2,1,2.9489998817443848,test,1,m,27051.000118255615,Fri Feb 28 2025 14:32:29 GMT-0600 (Central Standard Time),98808.90000003576,O,m,1563,1563,,2,no,1,1579.800000011921,97229.10000002384,QTPRJX,QTPNJX,7042,LC,B,90803,,2
3,1,4.249000072479248,test,1,m,25750.999927520752,Fri Feb 28 2025 14:32:29 GMT-0600 (Central Standard Time),100108.40000003576,O,m,1294,1294,,3,no,1,1295.1000000238419,98813.30000001192,MZDYGVGKQ,MZDYGLBKQ,7042,LC,B,92387,,3
4,1,6.38100004196167,test,1,m,23618.99995803833,Fri Feb 28 2025 14:32:29 GMT-0600 (Central Standard Time),102240.19999998808,O,m,2112,2112,,4,no,1,2127.0,100113.19999998808,FQTNMK,JQTNMK,7042,LC,B,93687,,4
5,1,7.480000019073486,test,1,z,22519.999980926514,Fri Feb 28 2025 14:32:29 GMT-0600 (Central Standard Time),103339.69999998808,O,z,1094,1094,,5,yes,1,1095.199999988079,102244.5,CLJ,CLJ,7042,LC,B,95818,,5
6,1,11.545000076293945,test,1,m,18454.999923706055,Fri Feb 28 2025 14:32:29 GMT-0600 (Central Standard Time),107404.90000003576,O,m,4060,4060,,6,no,1,4061.2000000476837,103343.69999998808,JGDMNSVPW,JGZMNSVPW,7042,LC,B,96918,,6
7,1,14.744999885559082,test,1,z,15255.000114440918,Fri Feb 28 2025 14:32:29 GMT-0600 (Central Standard Time),110605.19999998808,O,z,3195,3195,,7,yes,1,3195.7999999523163,107409.40000003576,FPTVHKCBJ,FPTVHKCBJ,7042,LC,B,100983,,7
8,1,15.996000051498413,test,1,m,14003.999948501587,Fri Feb 28 2025 14:32:29 GMT-0600 (Central Standard Time),111855.30000001192,O,m,1239,1239,,8,no,1,1245.3999999761581,110609.90000003576,XRPZBS,ZRPBDH,7042,LC,B,104184,,8
9,1,17.075999975204468,test,1,m,12924.000024795532,Fri Feb 28 2025 14:32:29 GMT-0600 (Central Standard Time),112936.0,O,m,1070,1070,,9,no,1,1076.5,111859.5,ZSQ,ZSP,7042,LC,B,105433,,9
10,1,18.97699999809265,test,1,z,11023.000001907349,Fri Feb 28 2025 14:32:29 GMT-0600 (Central Standard Time),114837.0,O,z,1895,1895,,10,yes,1,1896.8999999761581,112940.10000002384,MPZRXL,MPZRXL,7042,LC,B,106514,,10
11,1,20.006999969482422,test,1,m,9993.000030517578,Fri Feb 28 2025 14:32:29 GMT-0600 (Central Standard Time),115866.90000003576,O,m,1014,1014,,11,no,1,1024.300000011921,114842.60000002384,KJH,KRH,7042,LC,B,108417,,11
12,1,22.874000072479248,test,1,z,7125.999927520752,Fri Feb 28 2025 14:32:29 GMT-0600 (Central Standard Time),118733.69999998808,O,z,2846,2846,,12,yes,1,2859.099999964237,115874.60000002384,SMNHVTFCB,SMNHVTFCB,7042,LC,B,109449,,12
13,1,24.5239999294281,test,1,z,5476.000070571899,Fri Feb 28 2025 14:32:29 GMT-0600 (Central Standard Time),120384.19999998808,O,z,1630,1630,,13,yes,1,1644.8999999761581,118739.30000001192,KJWTQF,KJWTQF,7042,LC,B,112313,,13
14,1,27.424000024795532,test,1,z,2575.999975204468,Fri Feb 28 2025 14:32:29 GMT-0600 (Central Standard Time),123284.30000001192,O,z,2895,2895,,14,yes,1,2896.600000023842,120387.69999998808,CHDKQGLMB,CHDKQGLMB,7042,LC,B,113962,,14
15,1,28.32200002670288,test,1,z,1677.9999732971191,Fri Feb 28 2025 14:32:29 GMT-0600 (Central Standard Time),124182.10000002384,O,z,883,883,,15,yes,1,894.1000000238419,123288.0,GHQ,GHQ,7042,LC,B,116861,,15
16,1,29.92199993133545,test,1,z,78.00006866455078,Fri Feb 28 2025 14:32:29 GMT-0600 (Central Standard Time),125782.40000003576,O,z,1593,1593,,16,yes,1,1598.1000000238419,124184.30000001192,GFVMRH,GFVMRH,7042,LC,B,117758,,16
16,1,30.00600004196167,test,0,z,-6.000041961669922,Fri Feb 28 2025 14:32:29 GMT-0600 (Central Standard Time),125866.5,O,None,79,79,,17,yes,1,80.5,125786.0,RSM,RSM,7042,LC,B,119360,,17
1,2,2.9660000801086426,test,1,z,27033.999919891357,Fri Feb 28 2025 14:32:29 GMT-0600 (Central Standard Time),132714.5,O,z,2952,,2952.0,1,yes,1,6928.5,125786.0,PRDBZTYFN,PRDBZTYFN,7042,LC,B,,123327.0,1
1,2,4.996999979019165,test,0,m,25003.000020980835,Fri Feb 28 2025 14:32:29 GMT-0600 (Central Standard Time),134746.5,O,z,2026,,2026.0,2,no,1,8960.5,125786.0,NCWJDZ,NCMJDZ,7042,LC,B,,126292.0,2
2,2,6.114000082015991,test,1,m,23885.99991798401,Fri Feb 28 2025 14:32:29 GMT-0600 (Central Standard Time),135862.5,O,m,1098,,1098.0,3,no,1,10076.5,125786.0,KHW,KBW,7042,LC,B,,128324.0,3
3,2,9.397000074386597,test,1,m,20602.999925613403,Fri Feb 28 2025 14:32:29 GMT-0600 (Central Standard Time),139146.10000002384,O,m,3263,,3263.0,4,no,1,13360.100000023842,125786.0,ZRBGMF,ZRBCMF,7042,LC,B,,129440.0,4
4,2,10.59500002861023,test,1,m,19404.99997138977,Fri Feb 28 2025 14:32:29 GMT-0600 (Central Standard Time),140344.40000003576,O,m,1187,,1187.0,5,no,1,14558.400000035763,125786.0,BTH,BYH,7042,LC,B,,132724.0,5
5,2,13.279000043869019,test,1,z,16720.99995613098,Fri Feb 28 2025 14:32:29 GMT-0600 (Central Standard Time),143027.69999998808,O,z,2662,,2662.0,6,yes,1,17241.69999998808,125786.0,XWKQRYCNZ,XWKQRYCNZ,7042,LC,B,,133922.0,6
6,2,15.360000133514404,test,1,z,14639.999866485596,Fri Feb 28 2025 14:32:29 GMT-0600 (Central Standard Time),145108.80000001192,O,z,2063,,2063.0,7,yes,1,19322.80000001192,125786.0,HNPDLK,HNPDLK,7042,LC,B,,136607.0,7
7,2,17.22699999809265,test,1,m,12773.000001907349,Fri Feb 28 2025 14:32:29 GMT-0600 (Central Standard Time),146975.69999998808,O,m,1858,,1858.0,8,no,1,21189.69999998808,125786.0,WMQTRSGLZ,WMQTRZGLZ,7042,LC,B,,138685.0,8
8,2,18.858999967575073,test,1,z,11141.000032424927,Fri Feb 28 2025 14:32:29 GMT-0600 (Central Standard Time),148608.5,O,z,1614,,1614.0,9,yes,1,22822.5,125786.0,JPN,JPN,7042,LC,B,,140552.0,9
8,2,21.20900011062622,test,0,m,8790.99988937378,Fri Feb 28 2025 14:32:29 GMT-0600 (Central Standard Time),150957.69999998808,O,z,2341,,2341.0,10,no,1,25171.69999998808,125786.0,QLXSVT,QLNSVT,7042,LC,B,,142187.0,10
8,2,24.225000143051147,test,0,z,5774.9998569488525,Fri Feb 28 2025 14:32:29 GMT-0600 (Central Standard Time),153974.0,O,m,3008,,3008.0,11,yes,1,28188.0,125786.0,YXHKZVFPB,YXHKZVFPD,7042,LC,B,,144535.0,11
9,2,25.509000062942505,test,1,z,4490.999937057495,Fri Feb 28 2025 14:32:29 GMT-0600 (Central Standard Time),155258.10000002384,O,z,1263,,1263.0,12,yes,1,29472.100000023842,125786.0,RJZ,RJZ,7042,LC,B,,147551.0,12
10,2,27.508000135421753,test,1,z,2491.999864578247,Fri Feb 28 2025 14:32:29 GMT-0600 (Central Standard Time),157256.90000003576,O,z,1987,,1987.0,13,yes,1,31470.900000035763,125786.0,CLNPZD,CLNPZD,7042,LC,B,,148836.0,13
10,2,29.824000120162964,test,0,m,175.99987983703613,Fri Feb 28 2025 14:32:29 GMT-0600 (Central Standard Time),159573.19999998808,O,z,2312,,2312.0,14,no,1,33787.19999998808,125786.0,DCBPFHXYJ,DCBPFHLYJ,7042,LC,B,,150834.0,14
10,2,30.00600004196167,test,0,m,-6.000041961669922,Fri Feb 28 2025 14:32:29 GMT-0600 (Central Standard Time),159754.69999998808,O,None,178,,178.0,15,no,1,33968.69999998808,125786.0,MWR,ZWR,7042,LC,B,,153150.0,15
