acc_sum,block_c,block_dur,condition,correct,correct_response,countdown,datetime,endtime,project,response,response_time,response_time_test1_response,response_time_test2_response,row_sel,same,session_number,start_end,starttime,stim1,stim2,subject_id,task,task_vers,time_test1,time_test2,trial
1,1,0.0,prac,1,z,30000.0,Fri Mar 28 2025 17:11:13 GMT-0500 (Central Daylight Time),46789.29999999702,I,z,1262,,,5,yes,1,2795.39999999851,43993.89999999851,practrial5.png,practrial5.png,8034,PC,A,,,1
2,1,0.0,prac,1,z,30000.0,Fri Mar 28 2025 17:11:13 GMT-0500 (Central Daylight Time),49838.5,I,z,1518,,,3,yes,1,3044.0,46794.5,practrial3.png,practrial3.png,8034,PC,A,,,2
2,1,0.0,prac,0,m,30000.0,Fri Mar 28 2025 17:11:13 GMT-0500 (Central Daylight Time),55053.39999999851,I,z,3678,,,6,no,1,5211.30000000447,49842.09999999404,practrial6.png,practrial6b.png,8034,PC,A,,,3
3,1,0.0,prac,1,z,30000.0,Fri Mar 28 2025 17:11:13 GMT-0500 (Central Daylight Time),58669.09999999404,I,z,2088,,,1,yes,1,3611.6999999955297,55057.39999999851,practrial1.png,practrial1.png,8034,PC,A,,,4
4,1,0.0,prac,1,m,30000.0,Fri Mar 28 2025 17:11:13 GMT-0500 (Central Daylight Time),61517.89999999851,I,m,1328,,,2,no,1,2845.10000000149,58672.79999999702,practrial2.png,practrial2b.png,8034,PC,A,,,5
5,1,0.0,prac,1,m,30000.0,Fri Mar 28 2025 17:11:13 GMT-0500 (Central Daylight Time),64334.59999999404,I,m,1279,,,4,no,1,2812.5999999940395,61522.0,practrial4.png,practrial4b.png,8034,PC,A,,,6
1,1,1.1990001201629639,test,1,z,28800.999879837036,Fri Mar 28 2025 17:11:13 GMT-0500 (Central Daylight Time),81011.79999999702,I,z,1194,1194,,1,yes,1,1197.0,79814.79999999702,test1trial1.png,test1trial1.png,8034,PC,A,74389,,1
2,1,2.4160001277923584,test,1,m,27583.99987220764,Fri Mar 28 2025 17:11:13 GMT-0500 (Central Daylight Time),82228.39999999851,I,m,1201,1201,,2,no,1,1213.3000000044703,81015.09999999404,test1trial2.png,test1trial2b.png,8034,PC,A,75589,,2
2,1,3.7320001125335693,test,0,z,26267.99988746643,Fri Mar 28 2025 17:11:13 GMT-0500 (Central Daylight Time),83544.59999999404,I,m,1305,1305,,3,yes,1,1313.2999999970198,82231.29999999702,test1trial3.png,test1trial3.png,8034,PC,A,76805,,3
3,1,4.865000009536743,test,1,m,25134.999990463257,Fri Mar 28 2025 17:11:13 GMT-0500 (Central Daylight Time),84677.29999999702,I,m,1117,1117,,4,no,1,1129.7000000029802,83547.59999999404,test1trial4.png,test1trial4b.png,8034,PC,A,78122,,4
4,1,6.6650002002716064,test,1,z,23334.999799728394,Fri Mar 28 2025 17:11:13 GMT-0500 (Central Daylight Time),86477.0,I,z,1785,1785,,5,yes,1,1796.9000000059605,84680.09999999404,test1trial5.png,test1trial5.png,8034,PC,A,79254,,5
5,1,7.680999994277954,test,1,m,22319.000005722046,Fri Mar 28 2025 17:11:13 GMT-0500 (Central Daylight Time),87493.19999999553,I,m,1009,1009,,6,no,1,1013.1999999955297,86480.0,test1trial6.png,test1trial6b.png,8034,PC,A,81054,,6
6,1,8.664000034332275,test,1,z,21335.999965667725,Fri Mar 28 2025 17:11:13 GMT-0500 (Central Daylight Time),88476.39999999851,I,z,977,977,,7,yes,1,980.3999999985099,87496.0,test1trial7.png,test1trial7.png,8034,PC,A,82070,,7
7,1,10.163000106811523,test,1,m,19836.999893188477,Fri Mar 28 2025 17:11:13 GMT-0500 (Central Daylight Time),89975.69999999553,I,m,1490,1490,,8,no,1,1496.3999999985099,88479.29999999702,test1trial8.png,test1trial8b.png,8034,PC,A,83053,,8
8,1,11.580000162124634,test,1,z,18419.999837875366,Fri Mar 28 2025 17:11:13 GMT-0500 (Central Daylight Time),91391.89999999851,I,z,1399,1399,,9,yes,1,1413.3999999985099,89978.5,test1trial9.png,test1trial9.png,8034,PC,A,84552,,9
9,1,12.663000106811523,test,1,m,17336.999893188477,Fri Mar 28 2025 17:11:13 GMT-0500 (Central Daylight Time),92475.0,I,m,1070,1070,,10,no,1,1080.2000000029802,91394.79999999702,test1trial10.png,test1trial10b.png,8034,PC,A,85969,,10
10,1,13.696000099182129,test,1,z,16303.999900817871,Fri Mar 28 2025 17:11:13 GMT-0500 (Central Daylight Time),93507.79999999702,I,z,1026,1026,,11,yes,1,1029.7999999970198,92478.0,test1trial11.png,test1trial11.png,8034,PC,A,87052,,11
11,1,15.26200008392334,test,1,m,14737.99991607666,Fri Mar 28 2025 17:11:13 GMT-0500 (Central Daylight Time),95074.09999999404,I,m,1562,1562,,12,no,1,1563.2999999970198,93510.79999999702,test1trial12.png,test1trial12b.png,8034,PC,A,88085,,12
12,1,16.42900013923645,test,1,m,13570.99986076355,Fri Mar 28 2025 17:11:13 GMT-0500 (Central Daylight Time),96241.59999999404,I,m,1147,1147,,13,no,1,1164.7999999970198,95076.79999999702,test1trial13.png,test1trial13b.png,8034,PC,A,89651,,13
13,1,17.92799997329712,test,1,m,12072.00002670288,Fri Mar 28 2025 17:11:13 GMT-0500 (Central Daylight Time),97739.89999999851,I,m,1491,1491,,14,no,1,1495.1000000014901,96244.79999999702,test1trial14.png,test1trial14b.png,8034,PC,A,90819,,14
14,1,19.177000045776367,test,1,z,10822.999954223633,Fri Mar 28 2025 17:11:13 GMT-0500 (Central Daylight Time),98989.59999999404,I,z,1242,1242,,15,yes,1,1246.8999999985099,97742.69999999553,test1trial15.png,test1trial15.png,8034,PC,A,92316,,15
15,1,21.16000008583069,test,1,m,8839.999914169312,Fri Mar 28 2025 17:11:13 GMT-0500 (Central Daylight Time),100972.5,I,m,1976,1976,,16,no,1,1979.6000000014901,98992.89999999851,test1trial16.png,test1trial16b.png,8034,PC,A,93567,,16
16,1,22.493000030517578,test,1,z,7506.999969482422,Fri Mar 28 2025 17:11:13 GMT-0500 (Central Daylight Time),102305.39999999851,I,z,1313,1313,,17,yes,1,1330.1000000014901,100975.29999999702,test1trial17.png,test1trial17.png,8034,PC,A,95549,,17
17,1,23.742000102996826,test,1,m,6257.999897003174,Fri Mar 28 2025 17:11:13 GMT-0500 (Central Daylight Time),103554.79999999702,I,m,1244,1244,,18,no,1,1246.3999999985099,102308.39999999851,test1trial18.png,test1trial18b.png,8034,PC,A,96882,,18
18,1,25.20800018310547,test,1,m,4791.999816894531,Fri Mar 28 2025 17:11:13 GMT-0500 (Central Daylight Time),105021.29999999702,I,m,1450,1450,,19,no,1,1462.5,103558.79999999702,test1trial19.png,test1trial19b.png,8034,PC,A,98133,,19
19,1,26.324000120162964,test,1,z,3675.999879837036,Fri Mar 28 2025 17:11:13 GMT-0500 (Central Daylight Time),106137.5,I,z,1097,1097,,20,yes,1,1113.4000000059605,105024.09999999404,test1trial20.png,test1trial20.png,8034,PC,A,99598,,20
19,1,27.506999969482422,test,0,z,2493.000030517578,Fri Mar 28 2025 17:11:13 GMT-0500 (Central Daylight Time),107320.39999999851,I,m,1173,1173,,21,yes,1,1180.1000000014901,106140.29999999702,test1trial21.png,test1trial21.png,8034,PC,A,100714,,21
20,1,29.240000009536743,test,1,z,759.9999904632568,Fri Mar 28 2025 17:11:13 GMT-0500 (Central Daylight Time),109053.19999999553,I,z,1725,1725,,22,yes,1,1729.8999999985099,107323.29999999702,test1trial22.png,test1trial22.png,8034,PC,A,101897,,22
20,1,30.006999969482422,test,0,z,-6.999969482421875,Fri Mar 28 2025 17:11:13 GMT-0500 (Central Daylight Time),109819.79999999702,I,None,762,762,,23,yes,1,762.7999999970198,109057.0,test1trial23.png,test1trial23.png,8034,PC,A,103631,,23
1,2,1.133000135421753,test,1,m,28866.999864578247,Fri Mar 28 2025 17:11:13 GMT-0500 (Central Daylight Time),120383.0,I,m,1116,,1116.0,1,no,1,11326.0,109057.0,test2trial1.png,test2trial1b.png,8034,PC,A,,113826.0,1
1,2,2.4660000801086426,test,0,m,27533.999919891357,Fri Mar 28 2025 17:11:13 GMT-0500 (Central Daylight Time),121716.09999999404,I,z,1326,,1326.0,2,no,1,12659.09999999404,109057.0,test2trial2.png,test2trial2b.png,8034,PC,A,,114960.0,2
2,2,3.881999969482422,test,1,z,26118.000030517578,Fri Mar 28 2025 17:11:13 GMT-0500 (Central Daylight Time),123132.0,I,z,1402,,1402.0,3,yes,1,14075.0,109057.0,test2trial3.png,test2trial3.png,8034,PC,A,,116292.0,3
3,2,5.015000104904175,test,1,z,24984.999895095825,Fri Mar 28 2025 17:11:13 GMT-0500 (Central Daylight Time),124265.09999999404,I,z,1114,,1114.0,4,yes,1,15208.09999999404,109057.0,test2trial4.png,test2trial4.png,8034,PC,A,,117708.0,4
4,2,6.531000137329102,test,1,z,23468.9998626709,Fri Mar 28 2025 17:11:13 GMT-0500 (Central Daylight Time),125781.19999999553,I,z,1509,,1509.0,5,yes,1,16724.19999999553,109057.0,test2trial5.png,test2trial5.png,8034,PC,A,,118842.0,5
5,2,7.832000017166138,test,1,z,22167.999982833862,Fri Mar 28 2025 17:11:13 GMT-0500 (Central Daylight Time),127082.09999999404,I,z,1280,,1280.0,6,yes,1,18025.09999999404,109057.0,test2trial6.png,test2trial6.png,8034,PC,A,,120358.0,6
6,2,9.213000059127808,test,1,m,20786.999940872192,Fri Mar 28 2025 17:11:13 GMT-0500 (Central Daylight Time),128463.5,I,m,1371,,1371.0,7,no,1,19406.5,109057.0,test2trial7.png,test2trial7b.png,8034,PC,A,,121659.0,7
7,2,10.480000019073486,test,1,m,19519.999980926514,Fri Mar 28 2025 17:11:13 GMT-0500 (Central Daylight Time),129730.0,I,m,1247,,1247.0,8,no,1,20673.0,109057.0,test2trial8.png,test2trial8b.png,8034,PC,A,,123040.0,8
7,2,11.595999956130981,test,0,z,18404.00004386902,Fri Mar 28 2025 17:11:13 GMT-0500 (Central Daylight Time),130846.39999999851,I,m,1100,,1100.0,9,yes,1,21789.39999999851,109057.0,test2trial9.png,test2trial9.png,8034,PC,A,,124306.0,9
8,2,12.628999948501587,test,1,z,17371.000051498413,Fri Mar 28 2025 17:11:13 GMT-0500 (Central Daylight Time),131879.19999999553,I,z,1023,,1023.0,10,yes,1,22822.19999999553,109057.0,test2trial10.png,test2trial10.png,8034,PC,A,,125423.0,10
9,2,13.661999940872192,test,1,m,16338.000059127808,Fri Mar 28 2025 17:11:13 GMT-0500 (Central Daylight Time),132912.59999999404,I,m,1014,,1014.0,11,no,1,23855.59999999404,109057.0,test2trial11.png,test2trial11b.png,8034,PC,A,,126456.0,11
10,2,15.17799997329712,test,1,m,14822.00002670288,Fri Mar 28 2025 17:11:13 GMT-0500 (Central Daylight Time),134428.59999999404,I,m,1502,,1502.0,12,no,1,25371.59999999404,109057.0,test2trial12.png,test2trial12b.png,8034,PC,A,,127489.0,12
11,2,16.84500002861023,test,1,z,13154.99997138977,Fri Mar 28 2025 17:11:13 GMT-0500 (Central Daylight Time),136094.8999999985,I,z,1658,,1658.0,13,yes,1,27037.89999999851,109057.0,test2trial13.png,test2trial13.png,8034,PC,A,,129005.0,13
12,2,18.311000108718872,test,1,m,11688.999891281128,Fri Mar 28 2025 17:11:13 GMT-0500 (Central Daylight Time),137560.8999999985,I,m,1456,,1456.0,14,no,1,28503.89999999851,109057.0,test2trial14.png,test2trial14b.png,8034,PC,A,,130671.0,14
13,2,19.210000038146973,test,1,m,10789.999961853027,Fri Mar 28 2025 17:11:13 GMT-0500 (Central Daylight Time),138460.5,I,m,893,,893.0,15,no,1,29403.5,109057.0,test2trial15.png,test2trial15b.png,8034,PC,A,,132137.0,15
13,2,20.110000133514404,test,0,m,9889.999866485596,Fri Mar 28 2025 17:11:13 GMT-0500 (Central Daylight Time),139360.19999999553,I,z,889,,889.0,16,no,1,30303.19999999553,109057.0,test2trial16.png,test2trial16b.png,8034,PC,A,,133037.0,16
14,2,21.110000133514404,test,1,z,8889.999866485596,Fri Mar 28 2025 17:11:13 GMT-0500 (Central Daylight Time),140360.09999999404,I,z,991,,991.0,17,yes,1,31303.09999999404,109057.0,test2trial17.png,test2trial17.png,8034,PC,A,,133936.0,17
15,2,22.16000008583069,test,1,z,7839.9999141693115,Fri Mar 28 2025 17:11:13 GMT-0500 (Central Daylight Time),141409.5,I,z,1046,,1046.0,18,yes,1,32352.5,109057.0,test2trial18.png,test2trial18.png,8034,PC,A,,134936.0,18
16,2,23.526000022888184,test,1,z,6473.999977111816,Fri Mar 28 2025 17:11:13 GMT-0500 (Central Daylight Time),142775.8999999985,I,z,1349,,1349.0,19,yes,1,33718.89999999851,109057.0,test2trial19.png,test2trial19.png,8034,PC,A,,135986.0,19
17,2,24.659000158309937,test,1,z,5340.9998416900635,Fri Mar 28 2025 17:11:13 GMT-0500 (Central Daylight Time),143909.19999999553,I,z,1119,,1119.0,20,yes,1,34852.19999999553,109057.0,test2trial20.png,test2trial20.png,8034,PC,A,,137352.0,20
18,2,26.125,test,1,z,3875.0,Fri Mar 28 2025 17:11:13 GMT-0500 (Central Daylight Time),145375.19999999553,I,z,1448,,1448.0,21,yes,1,36318.19999999553,109057.0,test2trial21.png,test2trial21.png,8034,PC,A,,138486.0,21
19,2,27.60800004005432,test,1,m,2391.9999599456787,Fri Mar 28 2025 17:11:13 GMT-0500 (Central Daylight Time),146857.79999999702,I,m,1462,,1462.0,22,no,1,37800.79999999702,109057.0,test2trial22.png,test2trial22b.png,8034,PC,A,,139953.0,22
20,2,29.324000120162964,test,1,m,675.9998798370361,Fri Mar 28 2025 17:11:13 GMT-0500 (Central Daylight Time),148574.09999999404,I,m,1699,,1699.0,23,no,1,39517.09999999404,109057.0,test2trial23.png,test2trial23b.png,8034,PC,A,,141435.0,23
20,2,30.006999969482422,test,0,m,-6.999969482421875,Fri Mar 28 2025 17:11:13 GMT-0500 (Central Daylight Time),149257.3999999985,I,None,680,,680.0,24,no,1,40200.39999999851,109057.0,test2trial24.png,test2trial24b.png,8034,PC,A,,143150.0,24
