acc_sum,block,block_c,condition,correct,correct_response,datetime,endtime,flanker,jitter,project,response,response_test_buffer_response,response_test_target_response,response_time,response_time_test_buffer_response,response_time_test_target_response,row_sel,session_number,start_end,starttime,subject_id,target,task,task_vers,time_test_buffer,time_test_buffer_response,time_test_constants,time_test_flanker,time_test_jitter,time_test_logger,time_test_target,time_test_target_response,time_test_variables,trial
0,prac,1,inc,0,z,Fri Feb 21 2025 16:01:16 GMT-0600 (Central Standard Time),125985.80000000075,film,900,O,None,,,1799,,,14,1,4960.60000000149,121025.19999999925,7062,hate,AF,A,,,,,,,,,,1
1,prac,1,inc,1,z,Fri Feb 21 2025 16:01:16 GMT-0600 (Central Standard Time),129068.19999999925,rock,900,O,z,,,871,,,10,1,3077.199999999255,125991.0,7062,kind,AF,A,,,,,,,,,,2
2,prac,1,con,1,m,Fri Feb 21 2025 16:01:16 GMT-0600 (Central Standard Time),132000.5,bell,1000,O,m,,,626,,,3,1,2927.699999999255,129072.80000000075,7062,bell,AF,A,,,,,,,,,,3
3,prac,1,inc,1,m,Fri Feb 21 2025 16:01:16 GMT-0600 (Central Standard Time),134799.6000000015,elated,900,O,m,,,583,,,6,1,2794.5,132005.1000000015,7062,napkin,AF,A,,,,,,,,,,4
4,prac,1,inc,1,m,Fri Feb 21 2025 16:01:16 GMT-0600 (Central Standard Time),137715.6000000015,brutal,1100,O,m,,,504,,,8,1,2911.199999999255,134804.40000000224,7062,window,AF,A,,,,,,,,,,5
5,prac,1,con,1,m,Fri Feb 21 2025 16:01:16 GMT-0600 (Central Standard Time),140731.19999999925,remote,1000,O,m,,,705,,,7,1,3009.699999999255,137721.5,7062,remote,AF,A,,,,,,,,,,6
6,prac,1,con,1,z,Fri Feb 21 2025 16:01:16 GMT-0600 (Central Standard Time),143413.6000000015,elated,800,O,z,,,578,,,9,1,2677.900000002235,140735.69999999925,7062,elated,AF,A,,,,,,,,,,7
7,prac,1,inc,1,m,Fri Feb 21 2025 16:01:16 GMT-0600 (Central Standard Time),146429.30000000075,hate,1100,O,m,,,610,,,4,1,3011.39999999851,143417.90000000224,7062,film,AF,A,,,,,,,,,,8
8,prac,1,con,1,z,Fri Feb 21 2025 16:01:16 GMT-0600 (Central Standard Time),149395.30000000075,rage,1000,O,z,,,661,,,15,1,2961.5,146433.80000000075,7062,rage,AF,A,,,,,,,,,,9
9,prac,1,con,1,z,Fri Feb 21 2025 16:01:16 GMT-0600 (Central Standard Time),152310.69999999925,love,1000,O,z,,,601,,,11,1,2911.099999997765,149399.6000000015,7062,love,AF,A,,,,,,,,,,10
10,prac,1,con,1,z,Fri Feb 21 2025 16:01:16 GMT-0600 (Central Standard Time),156109.90000000224,brutal,800,O,z,,,1695,,,13,1,3794.5,152315.40000000224,7062,brutal,AF,A,,,,,,,,,,11
11,prac,1,inc,1,z,Fri Feb 21 2025 16:01:16 GMT-0600 (Central Standard Time),159258.69999999925,window,1100,O,z,,,746,,,16,1,3144.699999999255,156114.0,7062,temper,AF,A,,,,,,,,,,12
12,prac,1,con,1,m,Fri Feb 21 2025 16:01:16 GMT-0600 (Central Standard Time),162074.40000000224,jacket,800,O,m,,,705,,,5,1,2811.60000000149,159262.80000000075,7062,jacket,AF,A,,,,,,,,,,13
12,prac,1,inc,0,z,Fri Feb 21 2025 16:01:16 GMT-0600 (Central Standard Time),165673.0,napkin,1100,O,m,,,1182,,,12,1,3594.0,162079.0,7062,friend,AF,A,,,,,,,,,,14
13,prac,1,inc,1,m,Fri Feb 21 2025 16:01:16 GMT-0600 (Central Standard Time),168838.90000000224,kind,900,O,m,,,959,,,2,1,3161.60000000149,165677.30000000075,7062,rock,AF,A,,,,,,,,,,15
14,prac,1,con,1,m,Fri Feb 21 2025 16:01:16 GMT-0600 (Central Standard Time),172183.19999999925,step,800,O,m,,,1238,,,1,1,3340.0,168843.19999999925,7062,step,AF,A,,,,,,,,,,16
1,test,1,inc,1,z,Fri Feb 21 2025 16:01:16 GMT-0600 (Central Standard Time),188332.90000000224,film,1100,O,z,z,None,698,498.0,200.0,56,1,2329.400000002235,186003.5,7062,rage,AF,A,185749,185749,183920,185033,183920,186249,185549,185549,186249,1
2,test,1,con,1,z,Fri Feb 21 2025 16:01:16 GMT-0600 (Central Standard Time),190682.19999999925,friend,800,O,z,z,None,1009,809.0,200.0,25,1,2344.699999999255,188337.5,7062,friend,AF,A,187782,187782,186253,187066,186254,188598,187582,187582,188598,2
3,test,1,con,1,z,Fri Feb 21 2025 16:01:16 GMT-0600 (Central Standard Time),192648.19999999925,love,900,O,z,z,None,519,319.0,200.0,18,1,1961.5999999977648,190686.6000000015,7062,love,AF,A,190231,190231,188603,189515,188603,190564,190031,190031,190564,3
4,test,1,con,1,m,Fri Feb 21 2025 16:01:16 GMT-0600 (Central Standard Time),194764.30000000075,film,1100,O,m,m,None,473,273.0,200.0,92,1,2111.699999999255,192652.6000000015,7062,film,AF,A,192397,192397,190569,191681,190569,192680,192197,192197,192680,4
5,test,1,inc,1,m,Fri Feb 21 2025 16:01:16 GMT-0600 (Central Standard Time),196880.30000000075,kind,900,O,m,m,None,619,419.0,200.0,78,1,2111.800000000745,194768.5,7062,rock,AF,A,194363,194363,192685,193657,192685,194796,194163,194163,194796,5
6,test,1,con,1,m,Fri Feb 21 2025 16:01:16 GMT-0600 (Central Standard Time),198846.19999999925,step,800,O,m,m,None,620,421.0,199.0,65,1,1961.2999999970198,196884.90000000224,7062,step,AF,A,196329,196329,194801,195613,194801,196762,196130,196130,196762,6
7,test,1,con,1,z,Fri Feb 21 2025 16:01:16 GMT-0600 (Central Standard Time),200912.19999999925,rage,800,O,z,z,None,718,519.0,199.0,49,1,2062.099999997765,198850.1000000015,7062,rage,AF,A,198295,198295,196766,197579,196767,198828,198096,198096,198828,7
8,test,1,con,1,m,Fri Feb 21 2025 16:01:16 GMT-0600 (Central Standard Time),203211.19999999925,remote,1100,O,m,m,None,664,465.0,199.0,116,1,2295.0,200916.19999999925,7062,remote,AF,A,200661,200661,198832,199945,198833,201127,200462,200462,201127,8
9,test,1,inc,1,m,Fri Feb 21 2025 16:01:16 GMT-0600 (Central Standard Time),205560.80000000075,brutal,900,O,m,m,None,900,700.0,200.0,118,1,2345.800000000745,203215.0,7062,remote,AF,A,202762,202762,201131,202044,201132,203477,202561,202561,203477,9
10,test,1,inc,1,m,Fri Feb 21 2025 16:01:16 GMT-0600 (Central Standard Time),207710.19999999925,temper,1000,O,m,m,None,605,405.0,200.0,103,1,2145.0,205565.19999999925,7062,jacket,AF,A,205210,205210,203481,204494,203481,205626,205010,205010,205626,10
11,test,1,inc,1,m,Fri Feb 21 2025 16:01:16 GMT-0600 (Central Standard Time),209742.5,rage,800,O,m,m,None,694,494.0,200.0,69,1,2028.0,207714.5,7062,step,AF,A,207159,207160,205631,206443,205631,207659,206959,206959,207659,11
12,test,1,inc,1,z,Fri Feb 21 2025 16:01:16 GMT-0600 (Central Standard Time),211825.30000000075,step,800,O,z,z,None,742,542.0,200.0,13,1,2078.60000000149,209746.69999999925,7062,kind,AF,A,209192,209192,207663,208475,207663,209741,208992,208992,209741,12
13,test,1,con,1,z,Fri Feb 21 2025 16:01:16 GMT-0600 (Central Standard Time),213891.40000000224,temper,800,O,z,z,None,723,523.0,200.0,57,1,2061.800000000745,211829.6000000015,7062,temper,AF,A,211275,211275,209746,210558,209746,211808,211075,211075,211807,13
14,test,1,inc,1,z,Fri Feb 21 2025 16:01:16 GMT-0600 (Central Standard Time),216107.5,remote,1000,O,z,z,None,680,481.0,199.0,39,1,2210.89999999851,213896.6000000015,7062,brutal,AF,A,213541,213541,211813,212824,211813,214024,213341,213341,214024,14
15,test,1,con,1,z,Fri Feb 21 2025 16:01:16 GMT-0600 (Central Standard Time),218290.5,temper,1000,O,z,z,None,632,433.0,199.0,59,1,2179.099999997765,216111.40000000224,7062,temper,AF,A,215757,215757,214027,215040,214028,216207,215557,215557,216206,15
16,test,1,inc,1,z,Fri Feb 21 2025 16:01:16 GMT-0600 (Central Standard Time),220605.80000000075,film,1100,O,z,z,None,679,479.0,200.0,48,1,2311.199999999255,218294.6000000015,7062,hate,AF,A,218039,218039,216211,217323,216211,218522,217839,217839,218522,16
17,test,1,con,1,z,Fri Feb 21 2025 16:01:16 GMT-0600 (Central Standard Time),222738.80000000075,elated,900,O,z,z,None,698,499.0,199.0,2,1,2128.300000000745,220610.5,7062,elated,AF,A,220155,220155,218527,219439,218527,220655,219956,219956,220655,17
18,test,1,inc,1,z,Fri Feb 21 2025 16:01:16 GMT-0600 (Central Standard Time),224938.0,bell,1000,O,z,z,None,649,450.0,199.0,55,1,2195.300000000745,222742.69999999925,7062,rage,AF,A,222388,222388,220659,221672,220659,222854,222188,222188,222854,18
19,test,1,inc,1,z,Fri Feb 21 2025 16:01:16 GMT-0600 (Central Standard Time),226953.90000000224,rock,900,O,z,z,None,575,375.0,200.0,54,1,2012.1000000014901,224941.80000000075,7062,rage,AF,A,224487,224487,222858,223771,222858,224870,224287,224287,224870,19
20,test,1,con,1,m,Fri Feb 21 2025 16:01:16 GMT-0600 (Central Standard Time),229186.90000000224,remote,1000,O,m,m,None,684,484.0,200.0,115,1,2229.2000000029802,226957.69999999925,7062,remote,AF,A,226603,226603,224874,225887,224874,227103,226403,226403,227103,20
21,test,1,con,1,z,Fri Feb 21 2025 16:01:16 GMT-0600 (Central Standard Time),231669.30000000075,hate,800,O,z,z,None,1138,938.0,200.0,41,1,2478.0,229191.30000000075,7062,hate,AF,A,228636,228636,227107,227920,227108,229585,228436,228436,229585,21
22,test,1,con,1,z,Fri Feb 21 2025 16:01:16 GMT-0600 (Central Standard Time),233868.69999999925,kind,800,O,z,z,None,854,655.0,199.0,9,1,2194.199999999255,231674.5,7062,kind,AF,A,231119,231119,229591,230403,229591,231785,230919,230919,231785,22
23,test,1,con,1,z,Fri Feb 21 2025 16:01:16 GMT-0600 (Central Standard Time),236834.5,friend,1100,O,z,z,None,1323,1124.0,199.0,28,1,2961.800000000745,233872.69999999925,7062,friend,AF,A,233618,233618,231789,232901,231789,234751,233418,233418,234750,23
24,test,1,con,1,m,Fri Feb 21 2025 16:01:16 GMT-0600 (Central Standard Time),238884.80000000075,film,800,O,m,m,None,705,506.0,199.0,89,1,2046.3999999985099,236838.40000000224,7062,film,AF,A,236283,236284,234754,235568,234755,236801,236084,236084,236801,24
25,test,1,con,1,m,Fri Feb 21 2025 16:01:16 GMT-0600 (Central Standard Time),240916.30000000075,bell,800,O,m,m,None,689,490.0,199.0,81,1,2027.1000000014901,238889.19999999925,7062,bell,AF,A,238333,238333,236805,237616,236806,238832,238133,238133,238832,25
26,test,1,con,1,z,Fri Feb 21 2025 16:01:16 GMT-0600 (Central Standard Time),243198.80000000075,friend,1000,O,z,z,None,743,514.0,229.0,27,1,2278.60000000149,240920.19999999925,7062,friend,AF,A,240596,240596,238836,239849,238837,241115,240366,240366,241115,26
27,test,1,con,1,z,Fri Feb 21 2025 16:01:16 GMT-0600 (Central Standard Time),245298.40000000224,brutal,1000,O,z,z,None,566,366.0,200.0,35,1,2095.900000002235,243202.5,7062,brutal,AF,A,242848,242848,241119,242132,241119,243214,242648,242648,243214,27
28,test,1,inc,1,z,Fri Feb 21 2025 16:01:16 GMT-0600 (Central Standard Time),247464.30000000075,napkin,900,O,z,z,None,726,527.0,199.0,62,1,2161.89999999851,245302.40000000224,7062,temper,AF,A,244848,244848,243218,244131,243219,245380,244648,244648,245380,28
29,test,1,con,1,z,Fri Feb 21 2025 16:01:16 GMT-0600 (Central Standard Time),249613.5,friend,900,O,z,z,None,711,512.0,199.0,26,1,2145.199999999255,247468.30000000075,7062,friend,AF,A,247014,247014,245384,246297,245385,247530,246814,246814,247530,29
30,test,1,inc,1,m,Fri Feb 21 2025 16:01:16 GMT-0600 (Central Standard Time),251779.5,kind,900,O,m,m,None,731,532.0,199.0,94,1,2162.0,249617.5,7062,film,AF,A,249163,249163,247534,248447,247534,249696,248963,248963,249695,30
31,test,1,inc,1,z,Fri Feb 21 2025 16:01:16 GMT-0600 (Central Standard Time),253779.1000000015,step,800,O,z,z,None,657,457.0,200.0,53,1,1996.0,251783.1000000015,7062,rage,AF,A,251229,251229,249699,250512,249699,251695,251029,251029,251695,31
32,test,1,inc,1,m,Fri Feb 21 2025 16:01:16 GMT-0600 (Central Standard Time),255978.19999999925,brutal,900,O,m,m,None,758,558.0,200.0,126,1,2194.599999997765,253783.6000000015,7062,window,AF,A,253328,253328,251700,252612,251700,253894,253128,253128,253894,32
33,test,1,inc,1,z,Fri Feb 21 2025 16:01:16 GMT-0600 (Central Standard Time),258294.5,bell,1000,O,z,z,None,769,570.0,199.0,23,1,2311.800000000745,255982.69999999925,7062,love,AF,A,255628,255628,253899,254911,253899,256211,255428,255428,256210,33
34,test,1,inc,1,m,Fri Feb 21 2025 16:01:16 GMT-0600 (Central Standard Time),260543.5,friend,1100,O,m,m,None,611,412.0,199.0,104,1,2245.300000000745,258298.19999999925,7062,jacket,AF,A,258043,258043,256214,257327,256214,258460,257844,257844,258460,34
35,test,1,inc,1,m,Fri Feb 21 2025 16:01:16 GMT-0600 (Central Standard Time),262842.80000000075,hate,1100,O,m,m,None,657,458.0,199.0,96,1,2295.39999999851,260547.40000000224,7062,film,AF,A,260293,260293,258463,259577,258464,260759,260093,260093,260759,35
36,test,1,inc,1,m,Fri Feb 21 2025 16:01:16 GMT-0600 (Central Standard Time),265025.5,love,1000,O,m,m,None,642,442.0,200.0,87,1,2178.89999999851,262846.6000000015,7062,bell,AF,A,262492,262492,260763,261775,260763,262942,262292,262292,262942,36
37,test,1,con,1,z,Fri Feb 21 2025 16:01:16 GMT-0600 (Central Standard Time),267474.80000000075,brutal,1100,O,z,z,None,732,533.0,199.0,36,1,2445.39999999851,265029.40000000224,7062,brutal,AF,A,264858,264858,262945,264155,262946,265391,264658,264658,265391,37
38,test,1,con,1,z,Fri Feb 21 2025 16:01:16 GMT-0600 (Central Standard Time),269724.30000000075,love,1000,O,z,z,None,705,506.0,199.0,19,1,2246.10000000149,267478.19999999925,7062,love,AF,A,267124,267124,265394,266407,265395,267640,266924,266924,267640,38
39,test,1,con,1,m,Fri Feb 21 2025 16:01:16 GMT-0600 (Central Standard Time),271823.40000000224,step,1000,O,m,m,None,561,361.0,200.0,67,1,2095.300000000745,269728.1000000015,7062,step,AF,A,269373,269373,267644,268657,267644,269739,269173,269173,269739,39
40,test,1,inc,1,m,Fri Feb 21 2025 16:01:16 GMT-0600 (Central Standard Time),274256.0,friend,1100,O,m,m,None,793,594.0,199.0,120,1,2428.599999997765,271827.40000000224,7062,remote,AF,A,271573,271573,269743,270856,269744,272172,271373,271373,272172,40
41,test,1,inc,1,z,Fri Feb 21 2025 16:01:16 GMT-0600 (Central Standard Time),276954.90000000224,bell,1000,O,z,z,None,1165,965.0,200.0,15,1,2695.2000000029802,274259.69999999925,7062,kind,AF,A,273905,273905,272176,273189,272176,274871,273705,273705,274871,41
42,test,1,inc,1,z,Fri Feb 21 2025 16:01:16 GMT-0600 (Central Standard Time),279787.69999999925,step,800,O,z,z,None,1490,1290.0,200.0,21,1,2829.099999997765,276958.6000000015,7062,love,AF,A,276404,276404,274875,275688,274875,277704,276204,276204,277704,42
43,test,1,con,1,z,Fri Feb 21 2025 16:01:16 GMT-0600 (Central Standard Time),282053.6000000015,love,1100,O,z,z,None,620,421.0,199.0,20,1,2262.199999999255,279791.40000000224,7062,love,AF,A,279537,279537,277707,278820,277708,279970,279337,279337,279970,43
44,test,1,con,1,z,Fri Feb 21 2025 16:01:16 GMT-0600 (Central Standard Time),284086.30000000075,elated,800,O,z,z,None,695,496.0,199.0,1,1,2028.8999999985099,282057.40000000224,7062,elated,AF,A,281503,281503,279973,280787,279974,282002,281303,281303,282002,44
45,test,1,inc,1,m,Fri Feb 21 2025 16:01:16 GMT-0600 (Central Standard Time),286585.5,temper,1000,O,m,m,None,959,759.0,200.0,119,1,2495.0,284090.5,7062,remote,AF,A,283736,283736,282007,283019,282007,284502,283535,283535,284502,45
46,test,1,inc,1,m,Fri Feb 21 2025 16:01:16 GMT-0600 (Central Standard Time),288884.69999999925,kind,900,O,m,m,None,854,655.0,199.0,86,1,2295.0,286589.69999999925,7062,bell,AF,A,286135,286135,284506,285418,284506,286801,285935,285935,286801,46
47,test,1,inc,1,m,Fri Feb 21 2025 16:01:16 GMT-0600 (Central Standard Time),291300.6000000015,love,1000,O,m,m,None,823,623.0,200.0,79,1,2412.0,288888.6000000015,7062,rock,AF,A,288584,288584,286805,287879,286805,289217,288384,288384,289217,47
48,test,1,inc,1,m,Fri Feb 21 2025 16:01:16 GMT-0600 (Central Standard Time),294316.6000000015,friend,1100,O,m,m,None,1372,1173.0,199.0,128,1,3012.300000000745,291304.30000000075,7062,window,AF,A,291050,291050,289220,290333,289221,292233,290850,290850,292233,48
49,test,1,con,1,m,Fri Feb 21 2025 16:01:16 GMT-0600 (Central Standard Time),296632.40000000224,bell,1000,O,m,m,None,768,569.0,199.0,83,1,2311.900000002235,294320.5,7062,bell,AF,A,293965,293965,292237,293249,292237,294549,293766,293766,294548,49
50,test,1,inc,1,z,Fri Feb 21 2025 16:01:16 GMT-0600 (Central Standard Time),298765.0,jacket,800,O,z,z,None,788,589.0,199.0,61,1,2128.699999999255,296636.30000000075,7062,temper,AF,A,296082,296082,294552,295365,294553,296681,295882,295882,296681,50
51,test,1,con,1,z,Fri Feb 21 2025 16:01:16 GMT-0600 (Central Standard Time),301530.80000000075,kind,1000,O,z,z,None,1217,1017.0,200.0,11,1,2762.0,298768.80000000075,7062,kind,AF,A,298414,298414,296685,297698,296685,299447,298214,298214,299447,51
52,test,1,inc,1,z,Fri Feb 21 2025 16:01:16 GMT-0600 (Central Standard Time),303580.19999999925,jacket,800,O,z,z,None,707,507.0,200.0,37,1,2045.5999999977648,301534.6000000015,7062,brutal,AF,A,300980,300980,299451,300264,299451,301496,300780,300780,301496,52
53,test,1,con,1,m,Fri Feb 21 2025 16:01:16 GMT-0600 (Central Standard Time),305696.19999999925,bell,900,O,m,m,None,677,477.0,200.0,82,1,2112.2999999970198,303583.90000000224,7062,bell,AF,A,303129,303129,301500,302413,301500,303612,302929,302929,303612,53
54,test,1,inc,1,m,Fri Feb 21 2025 16:01:16 GMT-0600 (Central Standard Time),307728.69999999925,elated,800,O,m,m,None,686,486.0,200.0,125,1,2028.5,305700.19999999925,7062,window,AF,A,305145,305145,303616,304429,303617,305645,304945,304945,305645,54
55,test,1,inc,1,m,Fri Feb 21 2025 16:01:16 GMT-0600 (Central Standard Time),309928.30000000075,temper,1000,O,m,m,None,653,453.0,200.0,127,1,2195.800000000745,307732.5,7062,window,AF,A,307378,307378,305649,306662,305649,307844,307178,307178,307844,55
56,test,1,inc,1,z,Fri Feb 21 2025 16:01:16 GMT-0600 (Central Standard Time),312060.90000000224,rock,900,O,z,z,None,696,497.0,199.0,46,1,2128.800000000745,309932.1000000015,7062,hate,AF,A,309477,309477,307848,308761,307848,309977,309278,309278,309977,56
57,test,1,con,1,z,Fri Feb 21 2025 16:01:16 GMT-0600 (Central Standard Time),314510.30000000075,temper,1100,O,z,z,None,805,605.0,200.0,60,1,2445.39999999851,312064.90000000224,7062,temper,AF,A,311810,311810,309981,311093,309981,312426,311610,311610,312426,57
58,test,1,inc,1,z,Fri Feb 21 2025 16:01:16 GMT-0600 (Central Standard Time),317042.69999999925,remote,1000,O,z,z,None,984,784.0,200.0,7,1,2528.39999999851,314514.30000000075,7062,elated,AF,A,314159,314159,312430,313444,312431,314959,313959,313959,314959,58
59,test,1,con,1,z,Fri Feb 21 2025 16:01:16 GMT-0600 (Central Standard Time),319491.69999999925,kind,1100,O,z,z,None,814,615.0,199.0,12,1,2445.2999999970198,317046.40000000224,7062,kind,AF,A,316792,316792,314962,316075,314963,317408,316592,316592,317408,59
60,test,1,con,1,m,Fri Feb 21 2025 16:01:16 GMT-0600 (Central Standard Time),321541.30000000075,napkin,800,O,m,m,None,705,505.0,200.0,105,1,2045.800000000745,319495.5,7062,napkin,AF,A,318941,318941,317412,318225,317412,319457,318741,318741,319457,60
61,test,1,inc,1,z,Fri Feb 21 2025 16:01:16 GMT-0600 (Central Standard Time),323906.90000000224,window,1100,O,z,z,None,733,533.0,200.0,8,1,2361.800000000745,321545.1000000015,7062,elated,AF,A,321290,321290,319461,320574,319462,321823,321090,321090,321823,61
62,test,1,inc,1,m,Fri Feb 21 2025 16:01:16 GMT-0600 (Central Standard Time),325906.5,elated,800,O,m,m,None,659,459.0,200.0,101,1,1995.8999999985099,323910.6000000015,7062,jacket,AF,A,323356,323356,321827,322640,321827,323823,323156,323156,323823,62
63,test,1,inc,1,m,Fri Feb 21 2025 16:01:16 GMT-0600 (Central Standard Time),328239.1000000015,friend,1100,O,m,m,None,686,487.0,199.0,112,1,2328.800000000745,325910.30000000075,7062,napkin,AF,A,325656,325656,323826,324939,323827,326155,325456,325456,326155,63
64,test,1,con,1,m,Fri Feb 21 2025 16:01:16 GMT-0600 (Central Standard Time),330271.69999999925,window,800,O,m,m,None,694,494.0,200.0,121,1,2028.7999999970198,328242.90000000224,7062,window,AF,A,327688,327688,326159,326972,326159,328188,327488,327488,328188,64
65,test,1,inc,1,m,Fri Feb 21 2025 16:01:16 GMT-0600 (Central Standard Time),332571.0,hate,1100,O,m,m,None,665,465.0,200.0,88,1,2295.300000000745,330275.69999999925,7062,bell,AF,A,330021,330021,328192,329304,328192,330487,329821,329821,330487,65
66,test,1,con,1,m,Fri Feb 21 2025 16:01:16 GMT-0600 (Central Standard Time),334687.19999999925,remote,900,O,m,m,None,678,478.0,200.0,114,1,2112.699999999255,332574.5,7062,remote,AF,A,332120,332120,330491,331404,330491,332603,331920,331920,332603,66
67,test,1,inc,1,m,Fri Feb 21 2025 16:01:16 GMT-0600 (Central Standard Time),336703.30000000075,rage,800,O,m,m,None,678,478.0,200.0,93,1,2012.1000000014901,334691.19999999925,7062,film,AF,A,334136,334136,332607,333421,332607,334619,333936,333936,334619,67
68,test,1,con,1,z,Fri Feb 21 2025 16:01:16 GMT-0600 (Central Standard Time),338752.5,love,800,O,z,z,None,702,502.0,200.0,17,1,2045.3999999985099,336707.1000000015,7062,love,AF,A,336152,336152,334623,335436,334624,336669,335952,335952,336669,68
69,test,1,inc,1,m,Fri Feb 21 2025 16:01:16 GMT-0600 (Central Standard Time),340801.80000000075,rage,800,O,m,m,None,708,509.0,199.0,85,1,2045.300000000745,338756.5,7062,bell,AF,A,338202,338202,336673,337485,336673,338718,338002,338002,338718,69
70,test,1,con,1,m,Fri Feb 21 2025 16:01:16 GMT-0600 (Central Standard Time),343253.19999999925,window,900,O,m,m,None,1015,815.0,200.0,122,1,2447.5,340805.69999999925,7062,window,AF,A,340351,340351,338722,339635,338722,341169,340151,340151,341169,70
71,test,1,con,1,m,Fri Feb 21 2025 16:01:16 GMT-0600 (Central Standard Time),345550.40000000224,rock,1000,O,m,m,None,762,562.0,200.0,75,1,2293.400000002235,343257.0,7062,rock,AF,A,342900,342900,341173,342184,341173,343466,342700,342700,343466,71
72,test,1,con,1,m,Fri Feb 21 2025 16:01:16 GMT-0600 (Central Standard Time),347849.80000000075,napkin,1000,O,m,m,None,750,551.0,199.0,107,1,2295.39999999851,345554.40000000224,7062,napkin,AF,A,345200,345200,343470,344483,343471,345766,345000,345000,345766,72
73,test,1,inc,1,m,Fri Feb 21 2025 16:01:16 GMT-0600 (Central Standard Time),350032.40000000224,elated,800,O,m,m,None,835,635.0,200.0,109,1,2179.0,347853.40000000224,7062,napkin,AF,A,347299,347299,345769,346582,345770,347949,347099,347099,347948,73
74,test,1,inc,1,m,Fri Feb 21 2025 16:01:16 GMT-0600 (Central Standard Time),352414.80000000075,hate,1100,O,m,m,None,737,538.0,199.0,80,1,2378.10000000149,350036.69999999925,7062,rock,AF,A,349781,349781,347953,349065,347953,350331,349582,349582,350331,74
75,test,1,inc,1,m,Fri Feb 21 2025 16:01:16 GMT-0600 (Central Standard Time),354597.6000000015,brutal,900,O,m,m,None,738,538.0,200.0,110,1,2178.800000000745,352418.80000000075,7062,napkin,AF,A,351964,351964,350335,351248,350335,352514,351764,351764,352514,75
76,test,1,con,1,m,Fri Feb 21 2025 16:01:16 GMT-0600 (Central Standard Time),356896.80000000075,film,1000,O,m,m,None,750,551.0,199.0,91,1,2295.5,354601.30000000075,7062,film,AF,A,354247,354247,352517,353530,352518,354813,354047,354047,354813,76
77,test,1,inc,1,z,Fri Feb 21 2025 16:01:16 GMT-0600 (Central Standard Time),358946.19999999925,jacket,800,O,z,z,None,700,500.0,200.0,29,1,2045.5999999977648,356900.6000000015,7062,friend,AF,A,356346,356346,354817,355630,354817,356862,356146,356146,356862,77
78,test,1,inc,1,m,Fri Feb 21 2025 16:01:16 GMT-0600 (Central Standard Time),361362.40000000224,elated,800,O,m,m,None,1066,853.0,213.0,117,1,2412.300000000745,358950.1000000015,7062,remote,AF,A,358409,358409,356866,357679,356866,359278,358196,358196,359278,78
79,test,1,inc,1,m,Fri Feb 21 2025 16:01:16 GMT-0600 (Central Standard Time),363878.0,hate,1100,O,m,m,None,871,672.0,199.0,72,1,2511.800000000745,361366.19999999925,7062,step,AF,A,361111,361111,359282,360395,359283,361794,360912,360912,361794,79
80,test,1,inc,1,z,Fri Feb 21 2025 16:01:16 GMT-0600 (Central Standard Time),366210.69999999925,remote,1000,O,z,z,None,799,599.0,200.0,63,1,2329.0,363881.69999999925,7062,temper,AF,A,363527,363527,361798,362811,361798,364127,363327,363327,364127,80
81,test,1,con,1,m,Fri Feb 21 2025 16:01:16 GMT-0600 (Central Standard Time),368376.6000000015,step,900,O,m,m,None,718,518.0,200.0,66,1,2162.400000002235,366214.19999999925,7062,step,AF,A,365760,365760,364130,365043,364131,366293,365560,365560,366293,81
82,test,1,con,1,m,Fri Feb 21 2025 16:01:16 GMT-0600 (Central Standard Time),370575.90000000224,jacket,900,O,m,m,None,752,553.0,199.0,98,1,2195.60000000149,368380.30000000075,7062,jacket,AF,A,367926,367926,366296,367209,366297,368492,367726,367726,368492,82
83,test,1,con,1,m,Fri Feb 21 2025 16:01:16 GMT-0600 (Central Standard Time),372875.1000000015,remote,800,O,m,m,None,966,766.0,200.0,113,1,2295.5,370579.6000000015,7062,remote,AF,A,370025,370025,368496,369309,368496,370791,369825,369825,370791,83
84,test,1,inc,1,z,Fri Feb 21 2025 16:01:16 GMT-0600 (Central Standard Time),375290.90000000224,window,1100,O,z,z,None,782,583.0,199.0,40,1,2412.0,372878.90000000224,7062,brutal,AF,A,372624,372624,370795,371908,370795,373207,372425,372425,373207,84
85,test,1,con,1,z,Fri Feb 21 2025 16:01:16 GMT-0600 (Central Standard Time),377440.40000000224,kind,900,O,z,z,None,702,501.0,201.0,10,1,2145.400000002235,375295.0,7062,kind,AF,A,374841,374841,373211,374124,373211,375356,374640,374640,375356,85
86,test,1,con,1,z,Fri Feb 21 2025 16:01:16 GMT-0600 (Central Standard Time),379539.6000000015,hate,900,O,z,z,None,663,464.0,199.0,42,1,2095.300000000745,377444.30000000075,7062,hate,AF,A,376990,376990,375360,376273,375361,377456,376790,376790,377455,86
87,test,1,con,1,z,Fri Feb 21 2025 16:01:16 GMT-0600 (Central Standard Time),381639.19999999925,hate,1000,O,z,z,None,553,353.0,200.0,43,1,2096.0,379543.19999999925,7062,hate,AF,A,379189,379189,377459,378473,377459,379555,378989,378989,379555,87
88,test,1,con,1,m,Fri Feb 21 2025 16:01:16 GMT-0600 (Central Standard Time),384182.0,window,1100,O,m,m,None,763,563.0,200.0,124,1,2539.099999997765,381642.90000000224,7062,window,AF,A,381388,381388,379559,380672,379559,382098,381188,381188,382098,88
89,test,1,con,1,z,Fri Feb 21 2025 16:01:16 GMT-0600 (Central Standard Time),386104.40000000224,rage,900,O,z,z,None,485,286.0,199.0,50,1,1918.7000000029802,384185.69999999925,7062,rage,AF,A,383721,383721,382102,383004,382102,384020,383521,383521,384020,89
90,test,1,inc,1,m,Fri Feb 21 2025 16:01:16 GMT-0600 (Central Standard Time),388270.5,brutal,900,O,m,m,None,720,521.0,199.0,102,1,2162.39999999851,386108.1000000015,7062,jacket,AF,A,385654,385654,384024,384937,384024,386187,385454,385454,386187,90
91,test,1,con,1,m,Fri Feb 21 2025 16:01:16 GMT-0600 (Central Standard Time),390586.40000000224,napkin,1100,O,m,m,None,673,474.0,199.0,108,1,2312.300000000745,388274.1000000015,7062,napkin,AF,A,388019,388020,386190,387303,386191,388502,387820,387820,388502,91
92,test,1,inc,1,z,Fri Feb 21 2025 16:01:16 GMT-0600 (Central Standard Time),393002.1000000015,film,1100,O,z,z,None,766,567.0,199.0,16,1,2411.800000000745,390590.30000000075,7062,kind,AF,A,390335,390335,388506,389619,388507,390918,390136,390136,390918,92
93,test,1,inc,1,z,Fri Feb 21 2025 16:01:16 GMT-0600 (Central Standard Time),395301.5,napkin,900,O,z,z,None,854,655.0,199.0,38,1,2295.699999999255,393005.80000000075,7062,brutal,AF,A,392551,392551,390922,391835,390922,393218,392352,392352,393217,93
94,test,1,con,1,m,Fri Feb 21 2025 16:01:16 GMT-0600 (Central Standard Time),397284.19999999925,rock,800,O,m,m,None,647,448.0,199.0,73,1,1978.8999999985099,395305.30000000075,7062,rock,AF,A,394751,394751,393221,394034,393222,395200,394551,394551,395200,94
95,test,1,con,1,m,Fri Feb 21 2025 16:01:16 GMT-0600 (Central Standard Time),399283.40000000224,jacket,800,O,m,m,None,656,457.0,199.0,97,1,1995.300000000745,397288.1000000015,7062,jacket,AF,A,396733,396733,395204,396017,395205,397199,396534,396534,397199,95
96,test,1,con,1,z,Fri Feb 21 2025 16:01:16 GMT-0600 (Central Standard Time),401499.40000000224,rage,1100,O,z,z,None,580,381.0,199.0,52,1,2212.10000000149,399287.30000000075,7062,rage,AF,A,399033,399033,397203,398316,397204,399415,398833,398833,399415,96
97,test,1,con,1,m,Fri Feb 21 2025 16:01:16 GMT-0600 (Central Standard Time),403432.30000000075,film,900,O,m,m,None,484,285.0,199.0,90,1,1929.0,401503.30000000075,7062,film,AF,A,401049,401049,399419,400332,399420,401348,400849,400849,401348,97
98,test,1,con,1,z,Fri Feb 21 2025 16:01:16 GMT-0600 (Central Standard Time),405864.69999999925,hate,1100,O,z,z,None,793,593.0,200.0,44,1,2428.599999997765,403436.1000000015,7062,hate,AF,A,403181,403181,401352,402465,401352,403781,402981,402981,403781,98
99,test,1,con,1,z,Fri Feb 21 2025 16:01:16 GMT-0600 (Central Standard Time),408130.6000000015,elated,1000,O,z,z,None,716,517.0,199.0,3,1,2261.699999999255,405868.90000000224,7062,elated,AF,A,405514,405514,403785,404798,403785,406047,405315,405315,406047,99
100,test,1,inc,1,m,Fri Feb 21 2025 16:01:16 GMT-0600 (Central Standard Time),410096.80000000075,rage,800,O,m,m,None,619,419.0,200.0,77,1,1962.199999999255,408134.6000000015,7062,rock,AF,A,407580,407580,406051,406864,406051,408013,407380,407380,408013,100
101,test,1,inc,1,z,Fri Feb 21 2025 16:01:16 GMT-0600 (Central Standard Time),412212.90000000224,napkin,900,O,z,z,None,673,473.0,200.0,6,1,2112.5,410100.40000000224,7062,elated,AF,A,409646,409646,408016,408930,408017,410129,409446,409446,410129,101
102,test,1,con,1,m,Fri Feb 21 2025 16:01:16 GMT-0600 (Central Standard Time),414596.6000000015,rock,1100,O,m,m,None,749,549.0,200.0,76,1,2380.0,412216.6000000015,7062,rock,AF,A,411962,411962,410133,411246,410133,412513,411762,411762,412513,102
103,test,1,inc,1,z,Fri Feb 21 2025 16:01:16 GMT-0600 (Central Standard Time),416844.80000000075,remote,1000,O,z,z,None,705,506.0,199.0,31,1,2244.300000000745,414600.5,7062,friend,AF,A,414245,414245,412517,413528,412517,414761,414045,414045,414761,103
104,test,1,inc,1,z,Fri Feb 21 2025 16:01:16 GMT-0600 (Central Standard Time),419210.90000000224,window,1100,O,z,z,None,733,533.0,200.0,64,1,2362.300000000745,416848.6000000015,7062,temper,AF,A,416594,416594,414765,415877,414765,417127,416394,416394,417127,104
105,test,1,con,1,z,Fri Feb 21 2025 16:01:16 GMT-0600 (Central Standard Time),421426.6000000015,elated,1100,O,z,z,None,574,375.0,199.0,4,1,2212.10000000149,419214.5,7062,elated,AF,A,418960,418960,417131,418243,417131,419343,418760,418760,419343,105
106,test,1,inc,1,z,Fri Feb 21 2025 16:01:16 GMT-0600 (Central Standard Time),423775.80000000075,napkin,900,O,z,z,None,901,702.0,199.0,30,1,2345.199999999255,421430.6000000015,7062,friend,AF,A,420976,420976,419347,420259,419347,421692,420776,420776,421692,106
107,test,1,inc,1,z,Fri Feb 21 2025 16:01:16 GMT-0600 (Central Standard Time),426275.1000000015,bell,1000,O,z,z,None,958,758.0,200.0,47,1,2495.5,423779.6000000015,7062,hate,AF,A,423425,423425,421696,422709,421696,424191,423225,423225,424191,107
108,test,1,inc,1,z,Fri Feb 21 2025 16:01:16 GMT-0600 (Central Standard Time),428674.5,film,1100,O,z,z,None,759,559.0,200.0,24,1,2395.199999999255,426279.30000000075,7062,love,AF,A,426024,426024,424195,425308,424196,426591,425824,425824,426590,108
109,test,1,inc,1,z,Fri Feb 21 2025 16:01:16 GMT-0600 (Central Standard Time),430973.5,step,800,O,z,z,None,954,754.0,200.0,45,1,2295.300000000745,428678.19999999925,7062,hate,AF,A,428124,428124,426594,427407,426595,428890,427924,427924,428890,109
110,test,1,con,1,z,Fri Feb 21 2025 16:01:16 GMT-0600 (Central Standard Time),433056.5,brutal,800,O,z,z,None,743,543.0,200.0,33,1,2078.800000000745,430977.69999999925,7062,brutal,AF,A,430423,430423,428894,429707,428894,430973,430223,430223,430973,110
111,test,1,inc,1,m,Fri Feb 21 2025 16:01:16 GMT-0600 (Central Standard Time),435239.0,love,1000,O,m,m,None,644,445.0,199.0,71,1,2178.599999997765,433060.40000000224,7062,step,AF,A,432705,432705,430976,431989,430977,433155,432506,432506,433155,111
112,test,1,con,1,m,Fri Feb 21 2025 16:01:16 GMT-0600 (Central Standard Time),437505.1000000015,jacket,1100,O,m,m,None,626,426.0,200.0,100,1,2262.60000000149,435242.5,7062,jacket,AF,A,434988,434988,433159,434272,433159,435421,434788,434788,435421,112
113,test,1,inc,1,z,Fri Feb 21 2025 16:01:16 GMT-0600 (Central Standard Time),439521.0,jacket,800,O,z,z,None,676,476.0,200.0,5,1,2012.0999999977648,437508.90000000224,7062,elated,AF,A,436954,436954,435425,436238,435425,437437,436754,436754,437437,113
114,test,1,con,1,z,Fri Feb 21 2025 16:01:16 GMT-0600 (Central Standard Time),441620.5,rage,1000,O,z,z,None,556,356.0,200.0,51,1,2095.699999999255,439524.80000000075,7062,rage,AF,A,439170,439170,437441,438453,437441,439537,438970,438970,439536,114
115,test,1,con,1,m,Fri Feb 21 2025 16:01:16 GMT-0600 (Central Standard Time),443871.5,step,1100,O,m,m,None,605,406.0,199.0,68,1,2247.199999999255,441624.30000000075,7062,step,AF,A,441369,441369,439540,440653,439541,441788,441170,441170,441788,115
116,test,1,inc,1,z,Fri Feb 21 2025 16:01:16 GMT-0600 (Central Standard Time),446185.6000000015,window,1100,O,z,z,None,667,467.0,200.0,32,1,2310.5,443875.1000000015,7062,friend,AF,A,443619,443619,441791,442902,441791,444102,443419,443419,444102,116
117,test,1,inc,1,z,Fri Feb 21 2025 16:01:16 GMT-0600 (Central Standard Time),448334.90000000224,rock,900,O,z,z,None,703,504.0,199.0,14,1,2145.7000000029802,446189.19999999925,7062,kind,AF,A,445735,445735,444105,445018,444105,446251,445535,445535,446251,117
118,test,1,con,1,m,Fri Feb 21 2025 16:01:16 GMT-0600 (Central Standard Time),450500.80000000075,rock,900,O,m,m,None,722,522.0,200.0,74,1,2162.10000000149,448338.69999999925,7062,rock,AF,A,447884,447884,446255,447168,446255,448417,447684,447684,448417,118
119,test,1,inc,1,m,Fri Feb 21 2025 16:01:16 GMT-0600 (Central Standard Time),452833.6000000015,temper,1000,O,m,m,None,785,585.0,200.0,111,1,2329.0,450504.6000000015,7062,napkin,AF,A,450150,450150,448421,449434,448421,450750,449950,449950,450750,119
120,test,1,con,1,m,Fri Feb 21 2025 16:01:16 GMT-0600 (Central Standard Time),455032.69999999925,window,1000,O,m,m,None,659,459.0,200.0,123,1,2195.39999999851,452837.30000000075,7062,window,AF,A,452483,452483,450753,451766,450754,452949,452283,452283,452949,120
121,test,1,inc,1,z,Fri Feb 21 2025 16:01:16 GMT-0600 (Central Standard Time),457098.90000000224,rock,900,O,z,z,None,633,433.0,200.0,22,1,2062.5,455036.40000000224,7062,love,AF,A,454582,454582,452952,453866,452953,455015,454382,454382,455015,121
122,test,1,con,1,m,Fri Feb 21 2025 16:01:16 GMT-0600 (Central Standard Time),459248.30000000075,napkin,900,O,m,m,None,703,503.0,200.0,106,1,2145.89999999851,457102.40000000224,7062,napkin,AF,A,456648,456648,455018,455932,455019,457164,456448,456448,457164,122
123,test,1,con,1,z,Fri Feb 21 2025 16:01:16 GMT-0600 (Central Standard Time),461497.5,brutal,900,O,z,z,None,810,610.0,200.0,34,1,2245.599999997765,459251.90000000224,7062,brutal,AF,A,458797,458797,457168,458081,457168,459414,458597,458597,459414,123
124,test,1,con,1,m,Fri Feb 21 2025 16:01:16 GMT-0600 (Central Standard Time),463863.5,jacket,1000,O,m,m,None,827,628.0,199.0,99,1,2362.39999999851,461501.1000000015,7062,jacket,AF,A,461147,461147,459417,460430,459417,461780,460947,460947,461779,124
125,test,1,inc,1,m,Fri Feb 21 2025 16:01:16 GMT-0600 (Central Standard Time),465996.1000000015,love,1000,O,m,m,None,598,399.0,199.0,95,1,2128.699999999255,463867.40000000224,7062,film,AF,A,463512,463512,461783,462796,461784,463912,463313,463313,463912,125
126,test,1,con,1,z,Fri Feb 21 2025 16:01:16 GMT-0600 (Central Standard Time),468178.69999999925,temper,900,O,z,z,None,734,534.0,200.0,58,1,2178.89999999851,465999.80000000075,7062,temper,AF,A,465545,465545,463916,464829,463916,466095,465345,465345,466095,126
127,test,1,con,1,m,Fri Feb 21 2025 16:01:16 GMT-0600 (Central Standard Time),470411.30000000075,bell,1100,O,m,m,None,599,399.0,200.0,84,1,2228.699999999255,468182.6000000015,7062,bell,AF,A,467928,467928,466099,467212,466099,468327,467728,467728,468327,127
128,test,1,inc,1,m,Fri Feb 21 2025 16:01:16 GMT-0600 (Central Standard Time),472543.90000000224,kind,900,O,m,m,None,686,486.0,200.0,70,1,2129.2000000029802,470414.69999999925,7062,step,AF,A,469960,469960,468331,469244,468331,470460,469760,469760,470460,128
