acc_sum,block,block_c,change,condition,correct,correct_response,datetime,endtime,face,project,response,response_time,row_sel,session_number,start_end,starttime,subject_id,task,task_vers,trial
0,prac,1,,1-Back,,,Thu Jan 09 2025 13:04:17 GMT-0600 (Central Standard Time),,093_m_f_n_a.png,I,space,18457,1,2,,,8008,NNB,C,0
1,prac,1,0.0,1-Back,1,m,Thu Jan 09 2025 13:04:17 GMT-0600 (Central Standard Time),152455.19999999553,098_y_f_n_a.png,I,m,1445,2,2,2310.0,150145.19999999553,8008,NNB,C,1
1,prac,1,1.0,1-Back,0,z,Thu Jan 09 2025 13:04:17 GMT-0600 (Central Standard Time),155237.6000000015,098_y_f_n_a.png,I,None,2010,3,2,2778.60000000149,152459.0,8008,NNB,C,2
1,prac,1,0.0,1-Back,0,m,Thu Jan 09 2025 13:04:17 GMT-0600 (Central Standard Time),158120.0,059_o_m_n_a.png,I,None,2011,4,2,2877.2000000029802,155242.79999999702,8008,NNB,C,3
2,prac,1,0.0,1-Back,1,m,Thu Jan 09 2025 13:04:17 GMT-0600 (Central Standard Time),159986.29999999702,092_m_m_n_a.png,I,m,991,5,2,1862.8999999985099,158123.3999999985,8008,NNB,C,4
3,prac,1,1.0,1-Back,1,z,Thu Jan 09 2025 13:04:17 GMT-0600 (Central Standard Time),161602.5,092_m_m_n_a.png,I,z,835,6,2,1612.7000000029802,159989.79999999702,8008,NNB,C,5
4,prac,1,0.0,1-Back,1,m,Thu Jan 09 2025 13:04:17 GMT-0600 (Central Standard Time),163485.19999999553,130_o_f_n_a.png,I,m,991,7,2,1878.8999999985099,161606.29999999702,8008,NNB,C,6
5,prac,1,0.0,1-Back,1,m,Thu Jan 09 2025 13:04:17 GMT-0600 (Central Standard Time),165417.79999999702,082_m_m_n_a.png,I,m,1054,8,2,1927.6999999955297,163490.1000000015,8008,NNB,C,7
6,prac,1,0.0,1-Back,1,m,Thu Jan 09 2025 13:04:17 GMT-0600 (Central Standard Time),167000.5,093_m_f_n_a.png,I,m,795,9,2,1579.0,165421.5,8008,NNB,C,8
7,prac,1,1.0,1-Back,1,z,Thu Jan 09 2025 13:04:17 GMT-0600 (Central Standard Time),168583.6000000015,093_m_f_n_a.png,I,z,804,10,2,1579.3000000044703,167004.29999999702,8008,NNB,C,9
8,prac,1,0.0,1-Back,1,m,Thu Jan 09 2025 13:04:17 GMT-0600 (Central Standard Time),170349.3999999985,059_o_m_n_a.png,I,m,990,11,2,1762.0,168587.3999999985,8008,NNB,C,10
9,prac,1,0.0,1-Back,1,m,Thu Jan 09 2025 13:04:17 GMT-0600 (Central Standard Time),172115.69999999553,028_y_f_n_a.png,I,m,898,12,2,1762.5,170353.19999999553,8008,NNB,C,11
0,test,1,0.0,1-Back,,,Thu Jan 09 2025 13:04:17 GMT-0600 (Central Standard Time),172115.69999999553,098_y_f_n_a.png,I,space,10300,1,2,1762.5,170353.19999999553,8008,NNB,C,0
1,test,1,0.0,1-Back,1,m,Thu Jan 09 2025 13:04:17 GMT-0600 (Central Standard Time),198657.19999999553,006_m_f_n_a.png,I,m,1191,2,2,2213.0,196444.19999999553,8008,NNB,C,1
2,test,1,0.0,1-Back,1,m,Thu Jan 09 2025 13:04:17 GMT-0600 (Central Standard Time),200856.3999999985,028_y_f_n_a.png,I,m,1175,3,2,2196.5,198659.8999999985,8008,NNB,C,2
3,test,1,1.0,1-Back,1,z,Thu Jan 09 2025 13:04:17 GMT-0600 (Central Standard Time),202672.5,028_y_f_n_a.png,I,z,792,4,2,1813.5,200859.0,8008,NNB,C,3
4,test,1,0.0,1-Back,1,m,Thu Jan 09 2025 13:04:17 GMT-0600 (Central Standard Time),204438.6000000015,006_m_f_n_a.png,I,m,743,5,2,1763.7000000029802,202674.8999999985,8008,NNB,C,4
5,test,1,0.0,1-Back,1,m,Thu Jan 09 2025 13:04:17 GMT-0600 (Central Standard Time),206388.0,059_o_m_n_a.png,I,m,929,6,2,1945.8999999985099,204442.1000000015,8008,NNB,C,5
6,test,1,1.0,1-Back,1,z,Thu Jan 09 2025 13:04:17 GMT-0600 (Central Standard Time),208237.29999999702,059_o_m_n_a.png,I,z,828,7,2,1846.6999999955297,206390.6000000015,8008,NNB,C,6
7,test,1,0.0,1-Back,1,m,Thu Jan 09 2025 13:04:17 GMT-0600 (Central Standard Time),209953.69999999553,092_m_m_n_a.png,I,m,683,8,2,1713.7999999970198,208239.8999999985,8008,NNB,C,7
8,test,1,0.0,1-Back,1,m,Thu Jan 09 2025 13:04:17 GMT-0600 (Central Standard Time),211769.69999999553,130_o_f_n_a.png,I,m,782,9,2,1813.1999999955297,209956.5,8008,NNB,C,8
9,test,1,0.0,1-Back,1,m,Thu Jan 09 2025 13:04:17 GMT-0600 (Central Standard Time),213785.69999999553,092_m_m_n_a.png,I,m,991,10,2,2013.5,211772.19999999553,8008,NNB,C,9
10,test,1,0.0,1-Back,1,m,Thu Jan 09 2025 13:04:17 GMT-0600 (Central Standard Time),215768.19999999553,057_y_m_n_a.png,I,m,950,11,2,1980.0,213788.19999999553,8008,NNB,C,10
11,test,1,1.0,1-Back,1,z,Thu Jan 09 2025 13:04:17 GMT-0600 (Central Standard Time),217484.5,057_y_m_n_a.png,I,z,696,12,2,1713.8000000044703,215770.69999999553,8008,NNB,C,11
12,test,1,0.0,1-Back,1,m,Thu Jan 09 2025 13:04:17 GMT-0600 (Central Standard Time),219317.0,030_o_f_n_a.png,I,m,811,13,2,1828.8000000044703,217488.19999999553,8008,NNB,C,12
13,test,1,1.0,1-Back,1,z,Thu Jan 09 2025 13:04:17 GMT-0600 (Central Standard Time),221117.0,030_o_f_n_a.png,I,z,779,14,2,1797.3999999985099,219319.6000000015,8008,NNB,C,13
14,test,1,0.0,1-Back,1,m,Thu Jan 09 2025 13:04:17 GMT-0600 (Central Standard Time),222885.1000000015,031_y_m_n_a.png,I,m,733,15,2,1765.8000000044703,221119.29999999702,8008,NNB,C,14
15,test,1,0.0,1-Back,1,m,Thu Jan 09 2025 13:04:17 GMT-0600 (Central Standard Time),224682.5,093_m_f_n_a.png,I,m,774,16,2,1792.6000000014901,222889.8999999985,8008,NNB,C,15
16,test,1,0.0,1-Back,1,m,Thu Jan 09 2025 13:04:17 GMT-0600 (Central Standard Time),226415.3999999985,146_o_m_n_a.png,I,m,709,17,2,1730.5,224684.8999999985,8008,NNB,C,16
17,test,1,0.0,1-Back,1,m,Thu Jan 09 2025 13:04:17 GMT-0600 (Central Standard Time),228114.69999999553,093_m_f_n_a.png,I,m,680,18,2,1697.0,226417.69999999553,8008,NNB,C,17
0,test,2,0.0,1-Back,,,Thu Jan 09 2025 13:04:17 GMT-0600 (Central Standard Time),228114.69999999553,092_m_m_n_a.png,I,space,2782,1,2,1697.0,226417.69999999553,8008,NNB,C,0
1,test,2,0.0,1-Back,1,m,Thu Jan 09 2025 13:04:17 GMT-0600 (Central Standard Time),234679.5,006_m_f_n_a.png,I,m,727,2,2,1745.8000000044703,232933.69999999553,8008,NNB,C,1
2,test,2,1.0,1-Back,1,z,Thu Jan 09 2025 13:04:17 GMT-0600 (Central Standard Time),236495.3999999985,006_m_f_n_a.png,I,z,793,3,2,1813.2999999970198,234682.1000000015,8008,NNB,C,2
3,test,2,0.0,1-Back,1,m,Thu Jan 09 2025 13:04:17 GMT-0600 (Central Standard Time),238145.0,092_m_m_n_a.png,I,m,616,4,2,1647.2000000029802,236497.79999999702,8008,NNB,C,3
4,test,2,0.0,1-Back,1,m,Thu Jan 09 2025 13:04:17 GMT-0600 (Central Standard Time),239927.6000000015,057_y_m_n_a.png,I,m,751,5,2,1780.0,238147.6000000015,8008,NNB,C,4
5,test,2,0.0,1-Back,1,m,Thu Jan 09 2025 13:04:17 GMT-0600 (Central Standard Time),241660.69999999553,098_y_f_n_a.png,I,m,713,6,2,1730.6999999955297,239930.0,8008,NNB,C,5
6,test,2,1.0,1-Back,1,z,Thu Jan 09 2025 13:04:17 GMT-0600 (Central Standard Time),243226.69999999553,098_y_f_n_a.png,I,z,540,7,2,1563.6999999955297,241663.0,8008,NNB,C,6
7,test,2,0.0,1-Back,1,m,Thu Jan 09 2025 13:04:17 GMT-0600 (Central Standard Time),244909.3999999985,057_y_m_n_a.png,I,m,660,8,2,1680.0,243229.3999999985,8008,NNB,C,7
8,test,2,0.0,1-Back,1,m,Thu Jan 09 2025 13:04:17 GMT-0600 (Central Standard Time),246542.5,030_o_f_n_a.png,I,m,602,9,2,1630.7000000029802,244911.79999999702,8008,NNB,C,8
9,test,2,0.0,1-Back,1,m,Thu Jan 09 2025 13:04:17 GMT-0600 (Central Standard Time),248225.29999999702,082_m_m_n_a.png,I,m,658,10,2,1680.1999999955297,246545.1000000015,8008,NNB,C,9
10,test,2,1.0,1-Back,1,z,Thu Jan 09 2025 13:04:17 GMT-0600 (Central Standard Time),249824.79999999702,082_m_m_n_a.png,I,z,575,11,2,1597.1000000014901,248227.69999999553,8008,NNB,C,10
11,test,2,0.0,1-Back,1,m,Thu Jan 09 2025 13:04:17 GMT-0600 (Central Standard Time),251457.69999999553,030_o_f_n_a.png,I,m,599,12,2,1630.5,249827.19999999553,8008,NNB,C,11
12,test,2,0.0,1-Back,1,m,Thu Jan 09 2025 13:04:17 GMT-0600 (Central Standard Time),253090.29999999702,130_o_f_n_a.png,I,m,606,13,2,1630.3999999985099,251459.8999999985,8008,NNB,C,12
13,test,2,0.0,1-Back,1,m,Thu Jan 09 2025 13:04:17 GMT-0600 (Central Standard Time),254756.5,059_o_m_n_a.png,I,m,646,14,2,1664.0,253092.5,8008,NNB,C,13
14,test,2,0.0,1-Back,1,m,Thu Jan 09 2025 13:04:17 GMT-0600 (Central Standard Time),256539.19999999553,146_o_m_n_a.png,I,m,756,15,2,1780.1999999955297,254759.0,8008,NNB,C,14
15,test,2,1.0,1-Back,1,z,Thu Jan 09 2025 13:04:17 GMT-0600 (Central Standard Time),258222.0,146_o_m_n_a.png,I,z,652,16,2,1680.2000000029802,256541.79999999702,8008,NNB,C,15
16,test,2,0.0,1-Back,1,m,Thu Jan 09 2025 13:04:17 GMT-0600 (Central Standard Time),259921.5,031_y_m_n_a.png,I,m,666,17,2,1697.0,258224.5,8008,NNB,C,16
17,test,2,1.0,1-Back,1,z,Thu Jan 09 2025 13:04:17 GMT-0600 (Central Standard Time),261737.5,031_y_m_n_a.png,I,z,791,18,2,1813.7000000029802,259923.79999999702,8008,NNB,C,17
0,test,3,1.0,1-Back,,,Thu Jan 09 2025 13:04:17 GMT-0600 (Central Standard Time),261737.5,028_y_f_n_a.png,I,space,1696,1,2,1813.7000000029802,259923.79999999702,8008,NNB,C,0
1,test,3,0.0,1-Back,1,m,Thu Jan 09 2025 13:04:17 GMT-0600 (Central Standard Time),267319.19999999553,146_o_m_n_a.png,I,m,761,1,2,1780.2999999970198,265538.8999999985,8008,NNB,C,1
2,test,3,1.0,1-Back,1,z,Thu Jan 09 2025 13:04:17 GMT-0600 (Central Standard Time),268968.5,146_o_m_n_a.png,I,z,625,1,2,1646.8999999985099,267321.6000000015,8008,NNB,C,2
3,test,3,0.0,1-Back,1,m,Thu Jan 09 2025 13:04:17 GMT-0600 (Central Standard Time),270618.1000000015,093_m_f_n_a.png,I,m,615,1,2,1647.1000000014901,268971.0,8008,NNB,C,3
4,test,3,1.0,1-Back,1,z,Thu Jan 09 2025 13:04:17 GMT-0600 (Central Standard Time),272251.0,093_m_f_n_a.png,I,z,606,1,2,1630.2000000029802,270620.799999997,8008,NNB,C,4
5,test,3,0.0,1-Back,1,m,Thu Jan 09 2025 13:04:17 GMT-0600 (Central Standard Time),274017.19999999553,030_o_f_n_a.png,I,m,734,1,2,1763.8999999985099,272253.299999997,8008,NNB,C,5
6,test,3,0.0,1-Back,1,m,Thu Jan 09 2025 13:04:17 GMT-0600 (Central Standard Time),275883.1000000015,057_y_m_n_a.png,I,m,838,1,2,1863.0,274020.1000000015,8008,NNB,C,6
7,test,3,0.0,1-Back,1,m,Thu Jan 09 2025 13:04:17 GMT-0600 (Central Standard Time),277599.3999999985,030_o_f_n_a.png,I,m,693,1,2,1714.1000000014901,275885.299999997,8008,NNB,C,7
8,test,3,0.0,1-Back,1,m,Thu Jan 09 2025 13:04:17 GMT-0600 (Central Standard Time),279282.19999999553,031_y_m_n_a.png,I,m,649,1,2,1680.3999999985099,277601.799999997,8008,NNB,C,8
9,test,3,1.0,1-Back,1,z,Thu Jan 09 2025 13:04:17 GMT-0600 (Central Standard Time),280881.5,031_y_m_n_a.png,I,z,574,1,2,1597.0,279284.5,8008,NNB,C,9
10,test,3,0.0,1-Back,1,m,Thu Jan 09 2025 13:04:17 GMT-0600 (Central Standard Time),282531.1000000015,006_m_f_n_a.png,I,m,623,1,2,1647.3000000044703,280883.799999997,8008,NNB,C,10
11,test,3,0.0,1-Back,1,m,Thu Jan 09 2025 13:04:17 GMT-0600 (Central Standard Time),284247.19999999553,098_y_f_n_a.png,I,m,694,1,2,1713.3999999985099,282533.799999997,8008,NNB,C,11
12,test,3,1.0,1-Back,1,z,Thu Jan 09 2025 13:04:17 GMT-0600 (Central Standard Time),285980.0,098_y_f_n_a.png,I,z,705,1,2,1730.3999999985099,284249.6000000015,8008,NNB,C,12
13,test,3,0.0,1-Back,1,m,Thu Jan 09 2025 13:04:17 GMT-0600 (Central Standard Time),287614.1000000015,006_m_f_n_a.png,I,m,604,1,2,1631.4000000059605,285982.69999999553,8008,NNB,C,13
14,test,3,0.0,1-Back,1,m,Thu Jan 09 2025 13:04:17 GMT-0600 (Central Standard Time),289395.19999999553,092_m_m_n_a.png,I,m,763,1,2,1778.1999999955297,287617.0,8008,NNB,C,14
15,test,3,1.0,1-Back,1,z,Thu Jan 09 2025 13:04:17 GMT-0600 (Central Standard Time),291045.299999997,092_m_m_n_a.png,I,z,629,1,2,1648.0,289397.299999997,8008,NNB,C,15
16,test,3,0.0,1-Back,1,m,Thu Jan 09 2025 13:04:17 GMT-0600 (Central Standard Time),292861.19999999553,130_o_f_n_a.png,I,m,796,1,2,1813.5999999940395,291047.6000000015,8008,NNB,C,16
17,test,3,1.0,1-Back,1,z,Thu Jan 09 2025 13:04:17 GMT-0600 (Central Standard Time),294543.799999997,130_o_f_n_a.png,I,z,660,1,2,1680.2999999970198,292863.5,8008,NNB,C,17
0,test,4,1.0,1-Back,,,Thu Jan 09 2025 13:04:17 GMT-0600 (Central Standard Time),294543.799999997,093_m_f_n_a.png,I,space,1466,1,2,1680.2999999970198,292863.5,8008,NNB,C,0
1,test,4,0.0,1-Back,1,m,Thu Jan 09 2025 13:04:17 GMT-0600 (Central Standard Time),299925.5,146_o_m_n_a.png,I,m,778,2,2,1796.8999999985099,298128.6000000015,8008,NNB,C,1
2,test,4,0.0,1-Back,1,m,Thu Jan 09 2025 13:04:17 GMT-0600 (Central Standard Time),301542.1000000015,093_m_f_n_a.png,I,m,586,3,2,1614.3000000044703,299927.799999997,8008,NNB,C,2
3,test,4,0.0,1-Back,1,m,Thu Jan 09 2025 13:04:17 GMT-0600 (Central Standard Time),303207.6000000015,030_o_f_n_a.png,I,m,634,4,2,1663.1000000014901,301544.5,8008,NNB,C,3
4,test,4,1.0,1-Back,1,z,Thu Jan 09 2025 13:04:17 GMT-0600 (Central Standard Time),304807.3999999985,030_o_f_n_a.png,I,z,575,5,2,1597.2000000029802,303210.19999999553,8008,NNB,C,4
5,test,4,0.0,1-Back,1,m,Thu Jan 09 2025 13:04:17 GMT-0600 (Central Standard Time),306473.6000000015,098_y_f_n_a.png,I,m,633,6,2,1663.9000000059605,304809.69999999553,8008,NNB,C,5
6,test,4,0.0,1-Back,1,m,Thu Jan 09 2025 13:04:17 GMT-0600 (Central Standard Time),308256.299999997,057_y_m_n_a.png,I,m,759,7,2,1780.3999999985099,306475.8999999985,8008,NNB,C,6
7,test,4,1.0,1-Back,1,z,Thu Jan 09 2025 13:04:17 GMT-0600 (Central Standard Time),309989.1000000015,057_y_m_n_a.png,I,z,713,8,2,1730.3000000044703,308258.799999997,8008,NNB,C,7
8,test,4,0.0,1-Back,1,m,Thu Jan 09 2025 13:04:17 GMT-0600 (Central Standard Time),311855.299999997,098_y_f_n_a.png,I,m,844,9,2,1863.7999999970198,309991.5,8008,NNB,C,8
9,test,4,0.0,1-Back,1,m,Thu Jan 09 2025 13:04:17 GMT-0600 (Central Standard Time),313754.69999999553,082_m_m_n_a.png,I,m,872,10,2,1897.0,311857.69999999553,8008,NNB,C,9
10,test,4,1.0,1-Back,1,z,Thu Jan 09 2025 13:04:17 GMT-0600 (Central Standard Time),315420.69999999553,082_m_m_n_a.png,I,z,637,11,2,1663.2999999970198,313757.3999999985,8008,NNB,C,10
11,test,4,0.0,1-Back,1,m,Thu Jan 09 2025 13:04:17 GMT-0600 (Central Standard Time),317120.19999999553,130_o_f_n_a.png,I,m,675,12,2,1697.0,315423.19999999553,8008,NNB,C,11
12,test,4,0.0,1-Back,1,m,Thu Jan 09 2025 13:04:17 GMT-0600 (Central Standard Time),319036.3999999985,059_o_m_n_a.png,I,m,889,13,2,1913.2999999970198,317123.1000000015,8008,NNB,C,12
13,test,4,0.0,1-Back,1,m,Thu Jan 09 2025 13:04:17 GMT-0600 (Central Standard Time),320952.299999997,130_o_f_n_a.png,I,m,893,14,2,1913.2999999970198,319039.0,8008,NNB,C,13
14,test,4,0.0,1-Back,1,m,Thu Jan 09 2025 13:04:17 GMT-0600 (Central Standard Time),322685.19999999553,028_y_f_n_a.png,I,m,704,15,2,1730.5999999940395,320954.6000000015,8008,NNB,C,14
15,test,4,1.0,1-Back,1,z,Thu Jan 09 2025 13:04:17 GMT-0600 (Central Standard Time),324284.6000000015,028_y_f_n_a.png,I,z,572,16,2,1597.1000000014901,322687.5,8008,NNB,C,15
16,test,4,0.0,1-Back,1,m,Thu Jan 09 2025 13:04:17 GMT-0600 (Central Standard Time),325917.6000000015,006_m_f_n_a.png,I,m,603,17,2,1630.6000000014901,324287.0,8008,NNB,C,16
17,test,4,1.0,1-Back,1,z,Thu Jan 09 2025 13:04:17 GMT-0600 (Central Standard Time),327550.3999999985,006_m_f_n_a.png,I,z,611,18,2,1630.5,325919.8999999985,8008,NNB,C,17
0,test,5,1.0,1-Back,,,Thu Jan 09 2025 13:04:17 GMT-0600 (Central Standard Time),327550.3999999985,059_o_m_n_a.png,I,space,1338,1,2,1630.5,325919.8999999985,8008,NNB,C,0
1,test,5,1.0,1-Back,1,z,Thu Jan 09 2025 13:04:17 GMT-0600 (Central Standard Time),332731.69999999553,059_o_m_n_a.png,I,z,788,2,2,1813.3999999985099,330918.299999997,8008,NNB,C,1
2,test,5,0.0,1-Back,1,m,Thu Jan 09 2025 13:04:17 GMT-0600 (Central Standard Time),334364.3999999985,098_y_f_n_a.png,I,m,604,3,2,1630.5,332733.8999999985,8008,NNB,C,2
3,test,5,0.0,1-Back,1,m,Thu Jan 09 2025 13:04:17 GMT-0600 (Central Standard Time),336197.69999999553,057_y_m_n_a.png,I,m,812,4,2,1831.0,334366.69999999553,8008,NNB,C,3
4,test,5,0.0,1-Back,1,m,Thu Jan 09 2025 13:04:17 GMT-0600 (Central Standard Time),338346.6000000015,098_y_f_n_a.png,I,m,1123,5,2,2146.3000000044703,336200.299999997,8008,NNB,C,4
5,test,5,0.0,1-Back,1,m,Thu Jan 09 2025 13:04:17 GMT-0600 (Central Standard Time),340146.3999999985,092_m_m_n_a.png,I,m,774,6,2,1797.3999999985099,338349.0,8008,NNB,C,5
6,test,5,1.0,1-Back,1,z,Thu Jan 09 2025 13:04:17 GMT-0600 (Central Standard Time),341679.1000000015,092_m_m_n_a.png,I,z,502,7,2,1530.4000000059605,340148.69999999553,8008,NNB,C,6
7,test,5,0.0,1-Back,1,m,Thu Jan 09 2025 13:04:17 GMT-0600 (Central Standard Time),343345.3999999985,028_y_f_n_a.png,I,m,633,8,2,1664.0,341681.3999999985,8008,NNB,C,7
8,test,5,0.0,1-Back,1,m,Thu Jan 09 2025 13:04:17 GMT-0600 (Central Standard Time),345128.19999999553,031_y_m_n_a.png,I,m,751,9,2,1780.5,343347.69999999553,8008,NNB,C,8
9,test,5,0.0,1-Back,1,m,Thu Jan 09 2025 13:04:17 GMT-0600 (Central Standard Time),346894.299999997,028_y_f_n_a.png,I,m,745,10,2,1763.6000000014901,345130.69999999553,8008,NNB,C,9
10,test,5,0.0,1-Back,1,m,Thu Jan 09 2025 13:04:17 GMT-0600 (Central Standard Time),348610.3999999985,130_o_f_n_a.png,I,m,691,11,2,1713.7999999970198,346896.6000000015,8008,NNB,C,10
11,test,5,1.0,1-Back,1,z,Thu Jan 09 2025 13:04:17 GMT-0600 (Central Standard Time),350159.8999999985,130_o_f_n_a.png,I,z,527,12,2,1547.2000000029802,348612.69999999553,8008,NNB,C,11
12,test,5,0.0,1-Back,1,m,Thu Jan 09 2025 13:04:17 GMT-0600 (Central Standard Time),352109.3999999985,146_o_m_n_a.png,I,m,920,13,2,1947.1000000014901,350162.299999997,8008,NNB,C,12
13,test,5,0.0,1-Back,1,m,Thu Jan 09 2025 13:04:17 GMT-0600 (Central Standard Time),353875.19999999553,093_m_f_n_a.png,I,m,748,14,2,1763.5999999940395,352111.6000000015,8008,NNB,C,13
14,test,5,1.0,1-Back,1,z,Thu Jan 09 2025 13:04:17 GMT-0600 (Central Standard Time),355408.299999997,093_m_f_n_a.png,I,z,509,15,2,1530.6999999955297,353877.6000000015,8008,NNB,C,14
15,test,5,0.0,1-Back,1,m,Thu Jan 09 2025 13:04:17 GMT-0600 (Central Standard Time),357041.0,146_o_m_n_a.png,I,m,600,16,2,1630.5,355410.5,8008,NNB,C,15
16,test,5,0.0,1-Back,1,m,Thu Jan 09 2025 13:04:17 GMT-0600 (Central Standard Time),358640.5,006_m_f_n_a.png,I,m,567,17,2,1597.0,357043.5,8008,NNB,C,16
17,test,5,0.0,1-Back,1,m,Thu Jan 09 2025 13:04:17 GMT-0600 (Central Standard Time),360256.8999999985,082_m_m_n_a.png,I,m,592,18,2,1614.1000000014901,358642.799999997,8008,NNB,C,17
0,prac,1,0.0,2-Back,,,Thu Jan 09 2025 13:04:17 GMT-0600 (Central Standard Time),360256.8999999985,031_y_m_n_a.png,I,space,8521,1,2,1614.1000000014901,358642.799999997,8008,NNB,C,0
0,prac,1,0.0,2-Back,,,Thu Jan 09 2025 13:04:17 GMT-0600 (Central Standard Time),360256.8999999985,006_m_f_n_a.png,I,space,8521,2,2,1614.1000000014901,358642.799999997,8008,NNB,C,0
1,prac,1,1.0,2-Back,1,m,Thu Jan 09 2025 13:04:17 GMT-0600 (Central Standard Time),469156.1000000015,146_o_m_n_a.png,I,m,1105,3,2,1979.5,467176.6000000015,8008,NNB,C,1
2,prac,1,0.0,2-Back,1,m,Thu Jan 09 2025 13:04:17 GMT-0600 (Central Standard Time),471288.69999999553,130_o_f_n_a.png,I,m,1228,4,2,2127.5,469161.19999999553,8008,NNB,C,2
2,prac,1,0.0,2-Back,0,z,Thu Jan 09 2025 13:04:17 GMT-0600 (Central Standard Time),473154.69999999553,146_o_m_n_a.png,I,m,1093,5,2,1862.5,471292.19999999553,8008,NNB,C,3
3,prac,1,1.0,2-Back,1,z,Thu Jan 09 2025 13:04:17 GMT-0600 (Central Standard Time),475137.5,130_o_f_n_a.png,I,z,1211,6,2,1979.3000000044703,473158.19999999553,8008,NNB,C,4
4,prac,1,0.0,2-Back,1,m,Thu Jan 09 2025 13:04:17 GMT-0600 (Central Standard Time),476820.3999999985,082_m_m_n_a.png,I,m,900,7,2,1679.6000000014901,475140.799999997,8008,NNB,C,5
5,prac,1,0.0,2-Back,1,m,Thu Jan 09 2025 13:04:17 GMT-0600 (Central Standard Time),478753.0,059_o_m_n_a.png,I,m,1057,8,2,1929.3000000044703,476823.69999999553,8008,NNB,C,6
6,prac,1,0.0,2-Back,1,m,Thu Jan 09 2025 13:04:17 GMT-0600 (Central Standard Time),480868.8999999985,028_y_f_n_a.png,I,m,1248,9,2,2112.39999999851,478756.5,8008,NNB,C,7
7,prac,1,1.0,2-Back,1,z,Thu Jan 09 2025 13:04:17 GMT-0600 (Central Standard Time),482518.6000000015,059_o_m_n_a.png,I,z,864,10,2,1644.3000000044703,480874.299999997,8008,NNB,C,8
8,prac,1,0.0,2-Back,1,m,Thu Jan 09 2025 13:04:17 GMT-0600 (Central Standard Time),484284.6000000015,098_y_f_n_a.png,I,m,902,11,2,1762.6000000014901,482522.0,8008,NNB,C,9
8,prac,1,0.0,2-Back,0,m,Thu Jan 09 2025 13:04:17 GMT-0600 (Central Standard Time),486050.6000000015,082_m_m_n_a.png,I,z,993,12,2,1762.4000000059605,484288.19999999553,8008,NNB,C,10
0,test,1,0.0,2-Back,,,Thu Jan 09 2025 13:04:17 GMT-0600 (Central Standard Time),486050.6000000015,057_y_m_n_a.png,I,space,12899,1,2,1762.4000000059605,484288.19999999553,8008,NNB,C,0
0,test,1,0.0,2-Back,,,Thu Jan 09 2025 13:04:17 GMT-0600 (Central Standard Time),486050.6000000015,057_y_m_n_a.png,I,space,12899,2,2,1762.4000000059605,484288.19999999553,8008,NNB,C,0
1,test,1,0.0,2-Back,1,m,Thu Jan 09 2025 13:04:17 GMT-0600 (Central Standard Time),528749.299999997,130_o_f_n_a.png,I,m,810,3,2,1825.6999999955297,526923.6000000015,8008,NNB,C,1
2,test,1,0.0,2-Back,1,m,Thu Jan 09 2025 13:04:17 GMT-0600 (Central Standard Time),530603.299999997,092_m_m_n_a.png,I,m,840,4,2,1851.3999999985099,528751.8999999985,8008,NNB,C,2
3,test,1,1.0,2-Back,1,z,Thu Jan 09 2025 13:04:17 GMT-0600 (Central Standard Time),532352.8999999985,130_o_f_n_a.png,I,z,717,5,2,1747.1000000014901,530605.799999997,8008,NNB,C,3
4,test,1,0.0,2-Back,1,m,Thu Jan 09 2025 13:04:17 GMT-0600 (Central Standard Time),534152.299999997,098_y_f_n_a.png,I,m,767,6,2,1797.1000000014901,532355.1999999955,8008,NNB,C,4
5,test,1,0.0,2-Back,1,m,Thu Jan 09 2025 13:04:17 GMT-0600 (Central Standard Time),536018.5,092_m_m_n_a.png,I,m,832,7,2,1863.8000000044703,534154.6999999955,8008,NNB,C,5
6,test,1,1.0,2-Back,1,z,Thu Jan 09 2025 13:04:17 GMT-0600 (Central Standard Time),537701.1000000015,098_y_f_n_a.png,I,z,662,8,2,1680.3000000044703,536020.799999997,8008,NNB,C,6
7,test,1,0.0,2-Back,1,m,Thu Jan 09 2025 13:04:17 GMT-0600 (Central Standard Time),539517.1999999955,031_y_m_n_a.png,I,m,788,9,2,1813.6999999955297,537703.5,8008,NNB,C,7
8,test,1,0.0,2-Back,1,m,Thu Jan 09 2025 13:04:17 GMT-0600 (Central Standard Time),541516.5,030_o_f_n_a.png,I,m,971,10,2,1995.8999999985099,539520.6000000015,8008,NNB,C,8
8,test,1,1.0,2-Back,0,z,Thu Jan 09 2025 13:04:17 GMT-0600 (Central Standard Time),543565.8999999985,031_y_m_n_a.png,I,m,1027,11,2,2047.1000000014901,541518.799999997,8008,NNB,C,9
9,test,1,0.0,2-Back,1,m,Thu Jan 09 2025 13:04:17 GMT-0600 (Central Standard Time),545682.0,006_m_f_n_a.png,I,m,1090,12,2,2113.7000000029802,543568.299999997,8008,NNB,C,10
9,test,1,0.0,2-Back,0,m,Thu Jan 09 2025 13:04:17 GMT-0600 (Central Standard Time),548131.1999999955,006_m_f_n_a.png,I,z,1423,13,2,2446.89999999851,545684.299999997,8008,NNB,C,11
10,test,1,0.0,2-Back,1,m,Thu Jan 09 2025 13:04:17 GMT-0600 (Central Standard Time),550147.299999997,146_o_m_n_a.png,I,m,989,14,2,2013.6000000014901,548133.6999999955,8008,NNB,C,12
11,test,1,0.0,2-Back,1,m,Thu Jan 09 2025 13:04:17 GMT-0600 (Central Standard Time),552274.1999999955,030_o_f_n_a.png,I,m,1109,15,2,2124.5,550149.6999999955,8008,NNB,C,13
12,test,1,1.0,2-Back,1,z,Thu Jan 09 2025 13:04:17 GMT-0600 (Central Standard Time),553996.1000000015,146_o_m_n_a.png,I,z,714,16,2,1718.1000000014901,552278.0,8008,NNB,C,14
13,test,1,0.0,2-Back,1,m,Thu Jan 09 2025 13:04:17 GMT-0600 (Central Standard Time),555912.0,093_m_f_n_a.png,I,m,893,17,2,1913.5,553998.5,8008,NNB,C,15
14,test,1,0.0,2-Back,1,m,Thu Jan 09 2025 13:04:17 GMT-0600 (Central Standard Time),558078.299999997,082_m_m_n_a.png,I,m,1144,18,2,2163.6999999955297,555914.6000000015,8008,NNB,C,16
0,test,2,0.0,2-Back,,,Thu Jan 09 2025 13:04:17 GMT-0600 (Central Standard Time),558078.299999997,082_m_m_n_a.png,I,space,4235,1,2,2163.6999999955297,555914.6000000015,8008,NNB,C,0
0,test,2,0.0,2-Back,,,Thu Jan 09 2025 13:04:17 GMT-0600 (Central Standard Time),558078.299999997,028_y_f_n_a.png,I,space,4235,2,2,2163.6999999955297,555914.6000000015,8008,NNB,C,0
1,test,2,1.0,2-Back,1,z,Thu Jan 09 2025 13:04:17 GMT-0600 (Central Standard Time),569957.6000000015,082_m_m_n_a.png,I,z,1470,3,2,2496.5,567461.1000000015,8008,NNB,C,1
2,test,2,0.0,2-Back,1,m,Thu Jan 09 2025 13:04:17 GMT-0600 (Central Standard Time),572007.0,093_m_f_n_a.png,I,m,1018,4,2,2047.2000000029802,569959.799999997,8008,NNB,C,2
2,test,2,0.0,2-Back,0,m,Thu Jan 09 2025 13:04:17 GMT-0600 (Central Standard Time),574406.3999999985,028_y_f_n_a.png,I,z,1370,5,2,2396.89999999851,572009.5,8008,NNB,C,3
3,test,2,0.0,2-Back,1,m,Thu Jan 09 2025 13:04:17 GMT-0600 (Central Standard Time),576323.1000000015,146_o_m_n_a.png,I,m,899,6,2,1914.4000000059605,574408.6999999955,8008,NNB,C,4
3,test,2,0.0,2-Back,0,m,Thu Jan 09 2025 13:04:17 GMT-0600 (Central Standard Time),579354.6999999955,098_y_f_n_a.png,I,None,2014,7,2,3029.0,576325.6999999955,8008,NNB,C,5
4,test,2,1.0,2-Back,1,z,Thu Jan 09 2025 13:04:17 GMT-0600 (Central Standard Time),581420.799999997,146_o_m_n_a.png,I,z,1039,8,2,2063.89999999851,579356.8999999985,8008,NNB,C,6
5,test,2,0.0,2-Back,1,m,Thu Jan 09 2025 13:04:17 GMT-0600 (Central Standard Time),583903.3999999985,031_y_m_n_a.png,I,m,1460,9,2,2480.39999999851,581423.0,8008,NNB,C,7
6,test,2,0.0,2-Back,1,m,Thu Jan 09 2025 13:04:17 GMT-0600 (Central Standard Time),586169.299999997,031_y_m_n_a.png,I,m,1233,10,2,2263.60000000149,583905.6999999955,8008,NNB,C,8
7,test,2,0.0,2-Back,1,m,Thu Jan 09 2025 13:04:17 GMT-0600 (Central Standard Time),588518.6000000015,006_m_f_n_a.png,I,m,1319,11,2,2346.9000000059605,586171.6999999955,8008,NNB,C,9
8,test,2,0.0,2-Back,1,m,Thu Jan 09 2025 13:04:17 GMT-0600 (Central Standard Time),590318.0,028_y_f_n_a.png,I,m,777,12,2,1796.6000000014901,588521.3999999985,8008,NNB,C,10
9,test,2,1.0,2-Back,1,z,Thu Jan 09 2025 13:04:17 GMT-0600 (Central Standard Time),591967.3999999985,006_m_f_n_a.png,I,z,627,13,2,1647.0,590320.3999999985,8008,NNB,C,11
10,test,2,0.0,2-Back,1,m,Thu Jan 09 2025 13:04:17 GMT-0600 (Central Standard Time),593900.299999997,059_o_m_n_a.png,I,m,906,14,2,1930.3999999985099,591969.8999999985,8008,NNB,C,12
11,test,2,0.0,2-Back,1,m,Thu Jan 09 2025 13:04:17 GMT-0600 (Central Standard Time),596066.1999999955,059_o_m_n_a.png,I,m,1132,15,2,2163.39999999851,593902.799999997,8008,NNB,C,13
12,test,2,0.0,2-Back,1,m,Thu Jan 09 2025 13:04:17 GMT-0600 (Central Standard Time),598415.3999999985,030_o_f_n_a.png,I,m,1319,16,2,2346.89999999851,596068.5,8008,NNB,C,14
13,test,2,0.0,2-Back,1,m,Thu Jan 09 2025 13:04:17 GMT-0600 (Central Standard Time),600315.299999997,092_m_m_n_a.png,I,m,864,17,2,1897.6000000014901,598417.6999999955,8008,NNB,C,15
14,test,2,1.0,2-Back,1,z,Thu Jan 09 2025 13:04:17 GMT-0600 (Central Standard Time),602130.8999999985,030_o_f_n_a.png,I,z,798,18,2,1813.2000000029802,600317.6999999955,8008,NNB,C,16
0,test,3,1.0,2-Back,,,Thu Jan 09 2025 13:04:17 GMT-0600 (Central Standard Time),602130.8999999985,057_y_m_n_a.png,I,space,3390,1,2,1813.2000000029802,600317.6999999955,8008,NNB,C,0
0,test,3,1.0,2-Back,,,Thu Jan 09 2025 13:04:17 GMT-0600 (Central Standard Time),602130.8999999985,057_y_m_n_a.png,I,space,3390,2,2,1813.2000000029802,600317.6999999955,8008,NNB,C,0
1,test,3,0.0,2-Back,1,m,Thu Jan 09 2025 13:04:17 GMT-0600 (Central Standard Time),613494.1000000015,030_o_f_n_a.png,I,m,1786,3,2,2813.8000000044703,610680.299999997,8008,NNB,C,1
2,test,3,0.0,2-Back,1,m,Thu Jan 09 2025 13:04:17 GMT-0600 (Central Standard Time),615393.3999999985,082_m_m_n_a.png,I,m,866,4,2,1896.7999999970198,613496.6000000015,8008,NNB,C,2
3,test,3,1.0,2-Back,1,z,Thu Jan 09 2025 13:04:17 GMT-0600 (Central Standard Time),617109.3999999985,030_o_f_n_a.png,I,z,687,5,2,1713.6000000014901,615395.799999997,8008,NNB,C,3
4,test,3,0.0,2-Back,1,m,Thu Jan 09 2025 13:04:17 GMT-0600 (Central Standard Time),618975.6000000015,031_y_m_n_a.png,I,m,842,6,2,1863.9000000059605,617111.6999999955,8008,NNB,C,4
4,test,3,0.0,2-Back,0,m,Thu Jan 09 2025 13:04:17 GMT-0600 (Central Standard Time),620991.6000000015,082_m_m_n_a.png,I,z,985,7,2,2013.6000000014901,618978.0,8008,NNB,C,5
5,test,3,1.0,2-Back,1,z,Thu Jan 09 2025 13:04:17 GMT-0600 (Central Standard Time),623308.799999997,031_y_m_n_a.png,I,z,1297,8,2,2314.89999999851,620993.8999999985,8008,NNB,C,6
6,test,3,0.0,2-Back,1,m,Thu Jan 09 2025 13:04:17 GMT-0600 (Central Standard Time),625307.0,028_y_f_n_a.png,I,m,972,9,2,1995.6000000014901,623311.3999999985,8008,NNB,C,7
7,test,3,0.0,2-Back,1,m,Thu Jan 09 2025 13:04:17 GMT-0600 (Central Standard Time),627239.6000000015,092_m_m_n_a.png,I,m,909,10,2,1930.2000000029802,625309.3999999985,8008,NNB,C,8
8,test,3,1.0,2-Back,1,z,Thu Jan 09 2025 13:04:17 GMT-0600 (Central Standard Time),628839.5,028_y_f_n_a.png,I,z,569,11,2,1597.3999999985099,627242.1000000015,8008,NNB,C,9
9,test,3,1.0,2-Back,1,z,Thu Jan 09 2025 13:04:17 GMT-0600 (Central Standard Time),630688.6000000015,092_m_m_n_a.png,I,z,825,12,2,1846.8000000044703,628841.799999997,8008,NNB,C,10
10,test,3,0.0,2-Back,1,m,Thu Jan 09 2025 13:04:17 GMT-0600 (Central Standard Time),632704.6000000015,030_o_f_n_a.png,I,m,984,13,2,2013.6000000014901,630691.0,8008,NNB,C,11
11,test,3,0.0,2-Back,1,m,Thu Jan 09 2025 13:04:17 GMT-0600 (Central Standard Time),634620.6999999955,093_m_f_n_a.png,I,m,888,14,2,1913.6999999955297,632707.0,8008,NNB,C,12
12,test,3,0.0,2-Back,1,m,Thu Jan 09 2025 13:04:17 GMT-0600 (Central Standard Time),636403.1999999955,146_o_m_n_a.png,I,m,763,15,2,1780.1999999955297,634623.0,8008,NNB,C,13
13,test,3,1.0,2-Back,1,z,Thu Jan 09 2025 13:04:17 GMT-0600 (Central Standard Time),638302.799999997,093_m_f_n_a.png,I,z,870,16,2,1897.3999999985099,636405.3999999985,8008,NNB,C,14
14,test,3,0.0,2-Back,1,m,Thu Jan 09 2025 13:04:17 GMT-0600 (Central Standard Time),640419.0,130_o_f_n_a.png,I,m,1098,17,2,2113.89999999851,638305.1000000015,8008,NNB,C,15
15,test,3,0.0,2-Back,1,m,Thu Jan 09 2025 13:04:17 GMT-0600 (Central Standard Time),642651.5,130_o_f_n_a.png,I,m,1205,18,2,2229.89999999851,640421.6000000015,8008,NNB,C,16
0,test,4,0.0,2-Back,,,Thu Jan 09 2025 13:04:17 GMT-0600 (Central Standard Time),642651.5,059_o_m_n_a.png,I,space,2021,1,2,2229.89999999851,640421.6000000015,8008,NNB,C,0
0,test,4,0.0,2-Back,,,Thu Jan 09 2025 13:04:17 GMT-0600 (Central Standard Time),642651.5,098_y_f_n_a.png,I,space,2021,2,2,2229.89999999851,640421.6000000015,8008,NNB,C,0
1,test,4,1.0,2-Back,1,z,Thu Jan 09 2025 13:04:17 GMT-0600 (Central Standard Time),651632.1000000015,059_o_m_n_a.png,I,z,710,3,2,1730.3000000044703,649901.799999997,8008,NNB,C,1
2,test,4,1.0,2-Back,1,z,Thu Jan 09 2025 13:04:17 GMT-0600 (Central Standard Time),653481.5,098_y_f_n_a.png,I,z,816,4,2,1846.8999999985099,651634.6000000015,8008,NNB,C,2
3,test,4,0.0,2-Back,1,m,Thu Jan 09 2025 13:04:17 GMT-0600 (Central Standard Time),655430.8999999985,030_o_f_n_a.png,I,m,927,5,2,1947.0,653483.8999999985,8008,NNB,C,3
4,test,4,0.0,2-Back,1,m,Thu Jan 09 2025 13:04:17 GMT-0600 (Central Standard Time),657497.0,030_o_f_n_a.png,I,m,1033,6,2,2063.8000000044703,655433.1999999955,8008,NNB,C,4
4,test,4,0.0,2-Back,0,m,Thu Jan 09 2025 13:04:17 GMT-0600 (Central Standard Time),659963.0,006_m_f_n_a.png,I,z,1432,7,2,2463.39999999851,657499.6000000015,8008,NNB,C,5
5,test,4,0.0,2-Back,1,m,Thu Jan 09 2025 13:04:17 GMT-0600 (Central Standard Time),661912.299999997,031_y_m_n_a.png,I,m,926,8,2,1946.2999999970198,659966.0,8008,NNB,C,6
6,test,4,1.0,2-Back,1,z,Thu Jan 09 2025 13:04:17 GMT-0600 (Central Standard Time),663478.3999999985,006_m_f_n_a.png,I,z,537,9,2,1563.7999999970198,661914.6000000015,8008,NNB,C,7
7,test,4,0.0,2-Back,1,m,Thu Jan 09 2025 13:04:17 GMT-0600 (Central Standard Time),665344.799999997,092_m_m_n_a.png,I,m,834,10,2,1863.8999999985099,663480.8999999985,8008,NNB,C,8
7,test,4,0.0,2-Back,0,m,Thu Jan 09 2025 13:04:17 GMT-0600 (Central Standard Time),667394.1000000015,031_y_m_n_a.png,I,z,1023,11,2,2047.2000000029802,665346.8999999985,8008,NNB,C,9
8,test,4,0.0,2-Back,1,m,Thu Jan 09 2025 13:04:17 GMT-0600 (Central Standard Time),669276.6000000015,130_o_f_n_a.png,I,m,861,12,2,1880.4000000059605,667396.1999999955,8008,NNB,C,10
9,test,4,0.0,2-Back,1,m,Thu Jan 09 2025 13:04:17 GMT-0600 (Central Standard Time),671209.6000000015,057_y_m_n_a.png,I,m,900,13,2,1930.7000000029802,669278.8999999985,8008,NNB,C,11
10,test,4,1.0,2-Back,1,z,Thu Jan 09 2025 13:04:17 GMT-0600 (Central Standard Time),672825.5,130_o_f_n_a.png,I,z,592,14,2,1613.5,671212.0,8008,NNB,C,12
10,test,4,1.0,2-Back,0,z,Thu Jan 09 2025 13:04:17 GMT-0600 (Central Standard Time),674825.1000000015,057_y_m_n_a.png,I,m,976,15,2,1997.2000000029802,672827.8999999985,8008,NNB,C,13
11,test,4,0.0,2-Back,1,m,Thu Jan 09 2025 13:04:17 GMT-0600 (Central Standard Time),676957.5,082_m_m_n_a.png,I,m,1105,16,2,2130.2000000029802,674827.299999997,8008,NNB,C,14
12,test,4,0.0,2-Back,1,m,Thu Jan 09 2025 13:04:17 GMT-0600 (Central Standard Time),678740.299999997,093_m_f_n_a.png,I,m,763,17,2,1780.3999999985099,676959.8999999985,8008,NNB,C,15
13,test,4,1.0,2-Back,1,z,Thu Jan 09 2025 13:04:17 GMT-0600 (Central Standard Time),680340.1000000015,082_m_m_n_a.png,I,z,573,18,2,1597.3000000044703,678742.799999997,8008,NNB,C,16
0,test,5,1.0,2-Back,,,Thu Jan 09 2025 13:04:17 GMT-0600 (Central Standard Time),680340.1000000015,057_y_m_n_a.png,I,space,2462,1,2,1597.3000000044703,678742.799999997,8008,NNB,C,0
0,test,5,1.0,2-Back,,,Thu Jan 09 2025 13:04:17 GMT-0600 (Central Standard Time),680340.1000000015,093_m_f_n_a.png,I,space,2462,2,2,1597.3000000044703,678742.799999997,8008,NNB,C,0
1,test,5,1.0,2-Back,1,z,Thu Jan 09 2025 13:04:17 GMT-0600 (Central Standard Time),689537.1000000015,057_y_m_n_a.png,I,z,651,3,2,1680.8000000044703,687856.299999997,8008,NNB,C,1
2,test,5,1.0,2-Back,1,z,Thu Jan 09 2025 13:04:17 GMT-0600 (Central Standard Time),691353.0,093_m_f_n_a.png,I,z,791,4,2,1813.7000000029802,689539.299999997,8008,NNB,C,2
3,test,5,0.0,2-Back,1,m,Thu Jan 09 2025 13:04:17 GMT-0600 (Central Standard Time),693185.799999997,130_o_f_n_a.png,I,m,799,5,2,1830.2999999970198,691355.5,8008,NNB,C,3
4,test,5,0.0,2-Back,1,m,Thu Jan 09 2025 13:04:17 GMT-0600 (Central Standard Time),695385.1000000015,057_y_m_n_a.png,I,m,1167,6,2,2197.10000000149,693188.0,8008,NNB,C,4
5,test,5,0.0,2-Back,1,m,Thu Jan 09 2025 13:04:17 GMT-0600 (Central Standard Time),697584.3999999985,028_y_f_n_a.png,I,m,1167,7,2,2197.0,695387.3999999985,8008,NNB,C,5
6,test,5,0.0,2-Back,1,m,Thu Jan 09 2025 13:04:17 GMT-0600 (Central Standard Time),699533.5,130_o_f_n_a.png,I,m,921,8,2,1946.8999999985099,697586.6000000015,8008,NNB,C,6
6,test,5,1.0,2-Back,0,z,Thu Jan 09 2025 13:04:17 GMT-0600 (Central Standard Time),701850.1000000015,028_y_f_n_a.png,I,m,1283,9,2,2314.3000000044703,699535.799999997,8008,NNB,C,7
7,test,5,0.0,2-Back,1,m,Thu Jan 09 2025 13:04:17 GMT-0600 (Central Standard Time),703932.5,146_o_m_n_a.png,I,m,1055,10,2,2080.2000000029802,701852.299999997,8008,NNB,C,8
8,test,5,0.0,2-Back,1,m,Thu Jan 09 2025 13:04:17 GMT-0600 (Central Standard Time),705748.3999999985,006_m_f_n_a.png,I,m,789,11,2,1813.7999999970198,703934.6000000015,8008,NNB,C,9
9,test,5,0.0,2-Back,1,m,Thu Jan 09 2025 13:04:17 GMT-0600 (Central Standard Time),707982.299999997,092_m_m_n_a.png,I,m,1212,12,2,2231.5,705750.799999997,8008,NNB,C,10
10,test,5,0.0,2-Back,1,m,Thu Jan 09 2025 13:04:17 GMT-0600 (Central Standard Time),710230.1999999955,146_o_m_n_a.png,I,m,1227,13,2,2245.39999999851,707984.799999997,8008,NNB,C,11
10,test,5,1.0,2-Back,0,z,Thu Jan 09 2025 13:04:17 GMT-0600 (Central Standard Time),712446.3999999985,092_m_m_n_a.png,I,m,1186,14,2,2214.0,710232.3999999985,8008,NNB,C,12
11,test,5,0.0,2-Back,1,m,Thu Jan 09 2025 13:04:17 GMT-0600 (Central Standard Time),714412.299999997,098_y_f_n_a.png,I,m,946,15,2,1963.6999999955297,712448.6000000015,8008,NNB,C,13
12,test,5,0.0,2-Back,1,m,Thu Jan 09 2025 13:04:17 GMT-0600 (Central Standard Time),716195.3999999985,059_o_m_n_a.png,I,m,757,16,2,1781.1000000014901,714414.299999997,8008,NNB,C,14
13,test,5,0.0,2-Back,1,m,Thu Jan 09 2025 13:04:17 GMT-0600 (Central Standard Time),718111.3999999985,006_m_f_n_a.png,I,m,886,17,2,1913.7000000029802,716197.6999999955,8008,NNB,C,15
13,test,5,1.0,2-Back,0,z,Thu Jan 09 2025 13:04:17 GMT-0600 (Central Standard Time),720043.799999997,059_o_m_n_a.png,I,m,914,18,2,1930.1000000014901,718113.6999999955,8008,NNB,C,16
