acc_sum,block,block_c,change,condition,correct,correct_response,datetime,endtime,face,project,response,response_time,row_sel,session_number,start_end,starttime,subject_id,task,task_vers,trial
0,prac,1,,1-Back,,,Wed Apr 23 2025 14:51:26 GMT-0500 (Central Daylight Time),,097_m_f_n_a.png,I,space,14451,1,3,,,8008,NNB,B,0
1,prac,1,0.0,1-Back,1,m,Wed Apr 23 2025 14:51:26 GMT-0500 (Central Daylight Time),130102.1000000001,152_y_f_n_a.png,I,m,1163,2,3,2030.8000000002794,128071.29999999981,8008,NNB,B,1
2,prac,1,1.0,1-Back,1,z,Wed Apr 23 2025 14:51:26 GMT-0500 (Central Daylight Time),132102.2999999998,152_y_f_n_a.png,I,z,1201,3,3,1982.6000000000931,130119.69999999972,8008,NNB,B,2
3,prac,1,0.0,1-Back,1,m,Wed Apr 23 2025 14:51:26 GMT-0500 (Central Daylight Time),133867.8999999999,176_o_m_n_a.png,I,m,874,4,3,1747.2999999998137,132120.6000000001,8008,NNB,B,3
4,prac,1,0.0,1-Back,1,m,Wed Apr 23 2025 14:51:26 GMT-0500 (Central Daylight Time),135999.5,126_m_m_n_a.png,I,m,1257,5,3,2113.899999999907,133885.6000000001,8008,NNB,B,4
5,prac,1,1.0,1-Back,1,z,Wed Apr 23 2025 14:51:26 GMT-0500 (Central Daylight Time),137483.5,126_m_m_n_a.png,I,z,687,6,3,1465.1000000000931,136018.3999999999,8008,NNB,B,5
6,prac,1,0.0,1-Back,1,m,Wed Apr 23 2025 14:51:26 GMT-0500 (Central Daylight Time),139249.69999999972,086_o_f_n_a.png,I,m,883,7,3,1748.5,137501.19999999972,8008,NNB,B,6
7,prac,1,0.0,1-Back,1,m,Wed Apr 23 2025 14:51:26 GMT-0500 (Central Daylight Time),140999.2999999998,178_m_m_n_a.png,I,m,874,8,3,1731.6999999997206,139267.6000000001,8008,NNB,B,7
8,prac,1,0.0,1-Back,1,m,Wed Apr 23 2025 14:51:26 GMT-0500 (Central Daylight Time),142633.7999999998,097_m_f_n_a.png,I,m,857,9,3,1617.5,141016.2999999998,8008,NNB,B,8
9,prac,1,1.0,1-Back,1,z,Wed Apr 23 2025 14:51:26 GMT-0500 (Central Daylight Time),143931.19999999972,097_m_f_n_a.png,I,z,503,10,3,1280.6999999997206,142650.5,8008,NNB,B,9
10,prac,1,0.0,1-Back,1,m,Wed Apr 23 2025 14:51:26 GMT-0500 (Central Daylight Time),145747.69999999972,176_o_m_n_a.png,I,m,1049,11,3,1801.5999999996275,143946.1000000001,8008,NNB,B,10
11,prac,1,0.0,1-Back,1,m,Wed Apr 23 2025 14:51:26 GMT-0500 (Central Daylight Time),147610.7999999998,173_y_f_n_a.png,I,m,997,12,3,1846.7999999998137,145764.0,8008,NNB,B,11
0,test,1,0.0,1-Back,,,Wed Apr 23 2025 14:51:26 GMT-0500 (Central Daylight Time),147610.7999999998,152_y_f_n_a.png,I,space,8466,1,3,1846.7999999998137,145764.0,8008,NNB,B,0
1,test,1,0.0,1-Back,1,m,Wed Apr 23 2025 14:51:26 GMT-0500 (Central Daylight Time),169805.69999999972,029_m_f_n_a.png,I,m,821,2,3,1849.2999999998137,167956.3999999999,8008,NNB,B,1
2,test,1,0.0,1-Back,1,m,Wed Apr 23 2025 14:51:26 GMT-0500 (Central Daylight Time),171854.69999999972,173_y_f_n_a.png,I,m,1002,3,3,2031.6999999997206,169823.0,8008,NNB,B,2
3,test,1,1.0,1-Back,1,z,Wed Apr 23 2025 14:51:26 GMT-0500 (Central Daylight Time),173705.0,173_y_f_n_a.png,I,z,825,4,3,1837.0,171868.0,8008,NNB,B,3
4,test,1,0.0,1-Back,1,m,Wed Apr 23 2025 14:51:26 GMT-0500 (Central Daylight Time),175487.2999999998,029_m_f_n_a.png,I,m,759,5,3,1766.7999999998137,173720.5,8008,NNB,B,4
5,test,1,0.0,1-Back,1,m,Wed Apr 23 2025 14:51:26 GMT-0500 (Central Daylight Time),177424.0,176_o_m_n_a.png,I,m,886,6,3,1920.2000000001863,175503.7999999998,8008,NNB,B,5
6,test,1,1.0,1-Back,1,z,Wed Apr 23 2025 14:51:26 GMT-0500 (Central Daylight Time),179237.19999999972,176_o_m_n_a.png,I,z,782,7,3,1801.0,177436.19999999972,8008,NNB,B,6
7,test,1,0.0,1-Back,1,m,Wed Apr 23 2025 14:51:26 GMT-0500 (Central Daylight Time),181052.5,126_m_m_n_a.png,I,m,782,8,3,1800.2000000001863,179252.2999999998,8008,NNB,B,7
8,test,1,0.0,1-Back,1,m,Wed Apr 23 2025 14:51:26 GMT-0500 (Central Daylight Time),182970.6000000001,086_o_f_n_a.png,I,m,867,9,3,1901.2000000001863,181069.3999999999,8008,NNB,B,8
9,test,1,0.0,1-Back,1,m,Wed Apr 23 2025 14:51:26 GMT-0500 (Central Daylight Time),184800.69999999972,126_m_m_n_a.png,I,m,782,10,3,1814.6999999997206,182986.0,8008,NNB,B,9
10,test,1,0.0,1-Back,1,m,Wed Apr 23 2025 14:51:26 GMT-0500 (Central Daylight Time),186716.1000000001,153_y_m_n_a.png,I,m,886,11,3,1898.7000000001863,184817.3999999999,8008,NNB,B,10
11,test,1,1.0,1-Back,1,z,Wed Apr 23 2025 14:51:26 GMT-0500 (Central Daylight Time),188351.0,153_y_m_n_a.png,I,z,586,12,3,1617.2000000001863,186733.7999999998,8008,NNB,B,11
12,test,1,0.0,1-Back,1,m,Wed Apr 23 2025 14:51:26 GMT-0500 (Central Daylight Time),190168.5,110_o_f_n_a.png,I,m,770,13,3,1803.2000000001863,188365.2999999998,8008,NNB,B,12
13,test,1,1.0,1-Back,1,z,Wed Apr 23 2025 14:51:26 GMT-0500 (Central Daylight Time),192149.0,110_o_f_n_a.png,I,z,947,14,3,1965.8000000002794,190183.19999999972,8008,NNB,B,13
14,test,1,0.0,1-Back,1,m,Wed Apr 23 2025 14:51:26 GMT-0500 (Central Daylight Time),194014.5,013_y_m_n_a.png,I,m,844,15,3,1849.8000000002794,192164.69999999972,8008,NNB,B,14
15,test,1,0.0,1-Back,1,m,Wed Apr 23 2025 14:51:26 GMT-0500 (Central Daylight Time),195814.19999999972,097_m_f_n_a.png,I,m,753,16,3,1783.5,194030.69999999972,8008,NNB,B,15
16,test,1,0.0,1-Back,1,m,Wed Apr 23 2025 14:51:26 GMT-0500 (Central Daylight Time),197646.5,065_o_m_n_a.png,I,m,800,17,3,1817.0,195829.5,8008,NNB,B,16
17,test,1,0.0,1-Back,1,m,Wed Apr 23 2025 14:51:26 GMT-0500 (Central Daylight Time),199579.69999999972,097_m_f_n_a.png,I,m,899,18,3,1916.0999999996275,197663.6000000001,8008,NNB,B,17
0,test,2,0.0,1-Back,,,Wed Apr 23 2025 14:51:26 GMT-0500 (Central Daylight Time),199579.69999999972,126_m_m_n_a.png,I,space,1893,1,3,1916.0999999996275,197663.6000000001,8008,NNB,B,0
1,test,2,0.0,1-Back,1,m,Wed Apr 23 2025 14:51:26 GMT-0500 (Central Daylight Time),205328.2999999998,029_m_f_n_a.png,I,m,799,2,3,1817.5,203510.7999999998,8008,NNB,B,1
2,test,2,1.0,1-Back,1,z,Wed Apr 23 2025 14:51:26 GMT-0500 (Central Daylight Time),206979.3999999999,029_m_f_n_a.png,I,z,600,3,3,1634.5,205344.8999999999,8008,NNB,B,2
3,test,2,0.0,1-Back,1,m,Wed Apr 23 2025 14:51:26 GMT-0500 (Central Daylight Time),208675.3999999999,126_m_m_n_a.png,I,m,654,4,3,1680.8999999999069,206994.5,8008,NNB,B,3
4,test,2,0.0,1-Back,1,m,Wed Apr 23 2025 14:51:26 GMT-0500 (Central Daylight Time),210342.8999999999,153_y_m_n_a.png,I,m,637,5,3,1656.3999999999069,208686.5,8008,NNB,B,4
5,test,2,0.0,1-Back,1,m,Wed Apr 23 2025 14:51:26 GMT-0500 (Central Daylight Time),212108.2999999998,152_y_f_n_a.png,I,m,745,6,3,1748.1999999997206,210360.1000000001,8008,NNB,B,5
6,test,2,1.0,1-Back,1,z,Wed Apr 23 2025 14:51:26 GMT-0500 (Central Daylight Time),213891.19999999972,152_y_f_n_a.png,I,z,756,7,3,1766.3999999999069,212124.7999999998,8008,NNB,B,6
7,test,2,0.0,1-Back,1,m,Wed Apr 23 2025 14:51:26 GMT-0500 (Central Daylight Time),215673.8999999999,153_y_m_n_a.png,I,m,750,8,3,1766.6000000000931,213907.2999999998,8008,NNB,B,7
8,test,2,0.0,1-Back,1,m,Wed Apr 23 2025 14:51:26 GMT-0500 (Central Daylight Time),217439.5,110_o_f_n_a.png,I,m,732,9,3,1748.7000000001863,215690.7999999998,8008,NNB,B,8
9,test,2,0.0,1-Back,1,m,Wed Apr 23 2025 14:51:26 GMT-0500 (Central Daylight Time),219190.1000000001,178_m_m_n_a.png,I,m,720,10,3,1738.3000000002794,217451.7999999998,8008,NNB,B,9
10,test,2,1.0,1-Back,1,z,Wed Apr 23 2025 14:51:26 GMT-0500 (Central Daylight Time),220822.8999999999,178_m_m_n_a.png,I,z,585,11,3,1615.6000000000931,219207.2999999998,8008,NNB,B,10
11,test,2,0.0,1-Back,1,m,Wed Apr 23 2025 14:51:26 GMT-0500 (Central Daylight Time),222571.7999999998,110_o_f_n_a.png,I,m,722,12,3,1733.6999999997206,220838.1000000001,8008,NNB,B,11
12,test,2,0.0,1-Back,1,m,Wed Apr 23 2025 14:51:26 GMT-0500 (Central Daylight Time),224221.6000000001,086_o_f_n_a.png,I,m,602,13,3,1633.3000000002794,222588.2999999998,8008,NNB,B,12
13,test,2,0.0,1-Back,1,m,Wed Apr 23 2025 14:51:26 GMT-0500 (Central Daylight Time),225971.5,176_o_m_n_a.png,I,m,700,14,3,1733.8999999999069,224237.6000000001,8008,NNB,B,13
14,test,2,0.0,1-Back,1,m,Wed Apr 23 2025 14:51:26 GMT-0500 (Central Daylight Time),227770.7999999998,065_o_m_n_a.png,I,m,749,15,3,1782.2999999998137,225988.5,8008,NNB,B,14
15,test,2,1.0,1-Back,1,z,Wed Apr 23 2025 14:51:26 GMT-0500 (Central Daylight Time),229469.2999999998,065_o_m_n_a.png,I,z,653,16,3,1681.6000000000931,227787.69999999972,8008,NNB,B,15
16,test,2,0.0,1-Back,1,m,Wed Apr 23 2025 14:51:26 GMT-0500 (Central Daylight Time),231102.1000000001,013_y_m_n_a.png,I,m,585,17,3,1615.5,229486.6000000001,8008,NNB,B,16
17,test,2,1.0,1-Back,1,z,Wed Apr 23 2025 14:51:26 GMT-0500 (Central Daylight Time),232936.0,013_y_m_n_a.png,I,z,800,18,3,1817.3999999999069,231118.6000000001,8008,NNB,B,17
0,test,3,1.0,1-Back,,,Wed Apr 23 2025 14:51:26 GMT-0500 (Central Daylight Time),232936.0,173_y_f_n_a.png,I,space,1333,1,3,1817.3999999999069,231118.6000000001,8008,NNB,B,0
1,test,3,0.0,1-Back,1,m,Wed Apr 23 2025 14:51:26 GMT-0500 (Central Daylight Time),238217.5,065_o_m_n_a.png,I,m,798,1,3,1817.3000000002794,236400.19999999972,8008,NNB,B,1
2,test,3,1.0,1-Back,1,z,Wed Apr 23 2025 14:51:26 GMT-0500 (Central Daylight Time),239983.0,065_o_m_n_a.png,I,z,734,1,3,1751.8000000002794,238231.19999999972,8008,NNB,B,2
3,test,3,0.0,1-Back,1,m,Wed Apr 23 2025 14:51:26 GMT-0500 (Central Daylight Time),241702.0,097_m_f_n_a.png,I,m,683,1,3,1703.7000000001863,239998.2999999998,8008,NNB,B,3
4,test,3,1.0,1-Back,1,z,Wed Apr 23 2025 14:51:26 GMT-0500 (Central Daylight Time),243365.1000000001,097_m_f_n_a.png,I,z,632,1,3,1647.6000000000931,241717.5,8008,NNB,B,4
5,test,3,0.0,1-Back,1,m,Wed Apr 23 2025 14:51:26 GMT-0500 (Central Daylight Time),245330.69999999972,110_o_f_n_a.png,I,m,921,1,3,1949.0999999996275,243381.6000000001,8008,NNB,B,5
6,test,3,0.0,1-Back,1,m,Wed Apr 23 2025 14:51:26 GMT-0500 (Central Daylight Time),247165.1000000001,153_y_m_n_a.png,I,m,790,1,3,1818.4000000003725,245346.69999999972,8008,NNB,B,6
7,test,3,0.0,1-Back,1,m,Wed Apr 23 2025 14:51:26 GMT-0500 (Central Daylight Time),248878.8999999999,110_o_f_n_a.png,I,m,680,1,3,1697.7999999998137,247181.1000000001,8008,NNB,B,7
8,test,3,0.0,1-Back,1,m,Wed Apr 23 2025 14:51:26 GMT-0500 (Central Daylight Time),250611.1000000001,013_y_m_n_a.png,I,m,712,1,3,1718.6000000000931,248892.5,8008,NNB,B,8
9,test,3,1.0,1-Back,1,z,Wed Apr 23 2025 14:51:26 GMT-0500 (Central Daylight Time),252111.7999999998,013_y_m_n_a.png,I,z,466,1,3,1490.8999999999069,250620.8999999999,8008,NNB,B,9
10,test,3,0.0,1-Back,1,m,Wed Apr 23 2025 14:51:26 GMT-0500 (Central Daylight Time),253897.0,029_m_f_n_a.png,I,m,751,1,3,1769.0,252128.0,8008,NNB,B,10
11,test,3,0.0,1-Back,1,m,Wed Apr 23 2025 14:51:26 GMT-0500 (Central Daylight Time),255727.7999999998,152_y_f_n_a.png,I,m,792,1,3,1814.1999999997206,253913.6000000001,8008,NNB,B,11
12,test,3,1.0,1-Back,1,z,Wed Apr 23 2025 14:51:26 GMT-0500 (Central Daylight Time),257527.7999999998,152_y_f_n_a.png,I,z,775,1,3,1784.3999999999069,255743.3999999999,8008,NNB,B,12
13,test,3,0.0,1-Back,1,m,Wed Apr 23 2025 14:51:26 GMT-0500 (Central Daylight Time),259160.6000000001,029_m_f_n_a.png,I,m,601,1,3,1619.2000000001863,257541.3999999999,8008,NNB,B,13
14,test,3,0.0,1-Back,1,m,Wed Apr 23 2025 14:51:26 GMT-0500 (Central Daylight Time),261010.6000000001,126_m_m_n_a.png,I,m,816,1,3,1835.9000000003725,259174.69999999972,8008,NNB,B,14
15,test,3,1.0,1-Back,1,z,Wed Apr 23 2025 14:51:26 GMT-0500 (Central Daylight Time),262759.7999999998,126_m_m_n_a.png,I,z,703,1,3,1732.5,261027.2999999998,8008,NNB,B,15
16,test,3,0.0,1-Back,1,m,Wed Apr 23 2025 14:51:26 GMT-0500 (Central Daylight Time),264675.1999999997,086_o_f_n_a.png,I,m,887,1,3,1901.1999999997206,262774.0,8008,NNB,B,16
17,test,3,1.0,1-Back,1,z,Wed Apr 23 2025 14:51:26 GMT-0500 (Central Daylight Time),266358.6000000001,086_o_f_n_a.png,I,z,660,1,3,1667.6000000000931,264691.0,8008,NNB,B,17
0,test,4,1.0,1-Back,,,Wed Apr 23 2025 14:51:26 GMT-0500 (Central Daylight Time),266358.6000000001,097_m_f_n_a.png,I,space,1449,1,3,1667.6000000000931,264691.0,8008,NNB,B,0
1,test,4,0.0,1-Back,1,m,Wed Apr 23 2025 14:51:26 GMT-0500 (Central Daylight Time),271641.7999999998,065_o_m_n_a.png,I,m,674,2,3,1700.5,269941.2999999998,8008,NNB,B,1
2,test,4,0.0,1-Back,1,m,Wed Apr 23 2025 14:51:26 GMT-0500 (Central Daylight Time),273339.5,097_m_f_n_a.png,I,m,655,3,3,1681.3000000002794,271658.1999999997,8008,NNB,B,2
3,test,4,0.0,1-Back,1,m,Wed Apr 23 2025 14:51:26 GMT-0500 (Central Daylight Time),275139.1000000001,110_o_f_n_a.png,I,m,751,4,3,1782.9000000003725,273356.1999999997,8008,NNB,B,3
4,test,4,1.0,1-Back,1,z,Wed Apr 23 2025 14:51:26 GMT-0500 (Central Daylight Time),276738.1000000001,110_o_f_n_a.png,I,z,557,5,3,1581.8000000002794,275156.2999999998,8008,NNB,B,4
5,test,4,0.0,1-Back,1,m,Wed Apr 23 2025 14:51:26 GMT-0500 (Central Daylight Time),278387.6000000001,152_y_f_n_a.png,I,m,603,6,3,1633.3000000002794,276754.2999999998,8008,NNB,B,5
6,test,4,0.0,1-Back,1,m,Wed Apr 23 2025 14:51:26 GMT-0500 (Central Daylight Time),280120.6000000001,153_y_m_n_a.png,I,m,708,7,3,1716.8000000002794,278403.7999999998,8008,NNB,B,6
7,test,4,1.0,1-Back,1,z,Wed Apr 23 2025 14:51:26 GMT-0500 (Central Daylight Time),281703.6000000001,153_y_m_n_a.png,I,z,559,8,3,1566.5,280137.1000000001,8008,NNB,B,7
8,test,4,0.0,1-Back,1,m,Wed Apr 23 2025 14:51:26 GMT-0500 (Central Daylight Time),283219.6999999997,152_y_f_n_a.png,I,m,488,9,3,1500.0,281719.6999999997,8008,NNB,B,8
9,test,4,0.0,1-Back,1,m,Wed Apr 23 2025 14:51:26 GMT-0500 (Central Daylight Time),284868.0,178_m_m_n_a.png,I,m,604,10,3,1631.6000000000931,283236.3999999999,8008,NNB,B,9
10,test,4,1.0,1-Back,1,z,Wed Apr 23 2025 14:51:26 GMT-0500 (Central Daylight Time),286436.1000000001,178_m_m_n_a.png,I,z,523,11,3,1551.0,284885.1000000001,8008,NNB,B,10
11,test,4,0.0,1-Back,1,m,Wed Apr 23 2025 14:51:26 GMT-0500 (Central Daylight Time),287935.0,086_o_f_n_a.png,I,m,460,12,3,1483.7000000001863,286451.2999999998,8008,NNB,B,11
12,test,4,0.0,1-Back,1,m,Wed Apr 23 2025 14:51:26 GMT-0500 (Central Daylight Time),289652.0,176_o_m_n_a.png,I,m,672,13,3,1699.8000000002794,287952.1999999997,8008,NNB,B,12
13,test,4,0.0,1-Back,1,m,Wed Apr 23 2025 14:51:26 GMT-0500 (Central Daylight Time),291400.7999999998,086_o_f_n_a.png,I,m,710,14,3,1732.5,289668.2999999998,8008,NNB,B,13
14,test,4,0.0,1-Back,1,m,Wed Apr 23 2025 14:51:26 GMT-0500 (Central Daylight Time),293149.6000000001,173_y_f_n_a.png,I,m,711,15,3,1731.4000000003725,291418.1999999997,8008,NNB,B,14
15,test,4,1.0,1-Back,1,z,Wed Apr 23 2025 14:51:26 GMT-0500 (Central Daylight Time),294699.3999999999,173_y_f_n_a.png,I,z,515,16,3,1534.1000000000931,293165.2999999998,8008,NNB,B,15
16,test,4,0.0,1-Back,1,m,Wed Apr 23 2025 14:51:26 GMT-0500 (Central Daylight Time),296332.2999999998,029_m_f_n_a.png,I,m,599,17,3,1617.6000000000931,294714.6999999997,8008,NNB,B,16
17,test,4,1.0,1-Back,1,z,Wed Apr 23 2025 14:51:26 GMT-0500 (Central Daylight Time),298064.5,029_m_f_n_a.png,I,z,683,18,3,1715.5,296349.0,8008,NNB,B,17
0,test,5,1.0,1-Back,,,Wed Apr 23 2025 14:51:26 GMT-0500 (Central Daylight Time),298064.5,176_o_m_n_a.png,I,space,1256,1,3,1715.5,296349.0,8008,NNB,B,0
1,test,5,1.0,1-Back,1,z,Wed Apr 23 2025 14:51:26 GMT-0500 (Central Daylight Time),303179.7999999998,176_o_m_n_a.png,I,z,813,2,3,1816.5,301363.2999999998,8008,NNB,B,1
2,test,5,0.0,1-Back,1,m,Wed Apr 23 2025 14:51:26 GMT-0500 (Central Daylight Time),304696.0,152_y_f_n_a.png,I,m,492,3,3,1503.0,303193.0,8008,NNB,B,2
3,test,5,0.0,1-Back,1,m,Wed Apr 23 2025 14:51:26 GMT-0500 (Central Daylight Time),306362.7999999998,153_y_m_n_a.png,I,m,639,4,3,1652.5,304710.2999999998,8008,NNB,B,3
4,test,5,0.0,1-Back,1,m,Wed Apr 23 2025 14:51:26 GMT-0500 (Central Daylight Time),308111.8999999999,152_y_f_n_a.png,I,m,716,5,3,1733.7000000001863,306378.1999999997,8008,NNB,B,4
5,test,5,0.0,1-Back,1,m,Wed Apr 23 2025 14:51:26 GMT-0500 (Central Daylight Time),309828.0,126_m_m_n_a.png,I,m,689,6,3,1701.0,308127.0,8008,NNB,B,5
6,test,5,1.0,1-Back,1,z,Wed Apr 23 2025 14:51:26 GMT-0500 (Central Daylight Time),311427.1000000001,126_m_m_n_a.png,I,z,552,7,3,1582.6000000000931,309844.5,8008,NNB,B,6
7,test,5,0.0,1-Back,1,m,Wed Apr 23 2025 14:51:26 GMT-0500 (Central Daylight Time),313076.8999999999,173_y_f_n_a.png,I,m,621,8,3,1633.7999999998137,311443.1000000001,8008,NNB,B,7
7,test,5,0.0,1-Back,0,m,Wed Apr 23 2025 14:51:26 GMT-0500 (Central Daylight Time),314876.2999999998,013_y_m_n_a.png,I,z,768,9,3,1786.8999999999069,313089.3999999999,8008,NNB,B,8
8,test,5,0.0,1-Back,1,m,Wed Apr 23 2025 14:51:26 GMT-0500 (Central Daylight Time),316958.2999999998,173_y_f_n_a.png,I,m,1059,10,3,2066.600000000093,314891.6999999997,8008,NNB,B,9
9,test,5,0.0,1-Back,1,m,Wed Apr 23 2025 14:51:26 GMT-0500 (Central Daylight Time),318894.6000000001,086_o_f_n_a.png,I,m,906,11,3,1921.7000000001863,316972.8999999999,8008,NNB,B,10
10,test,5,1.0,1-Back,1,z,Wed Apr 23 2025 14:51:26 GMT-0500 (Central Daylight Time),320706.8999999999,086_o_f_n_a.png,I,z,772,12,3,1795.2000000001863,318911.6999999997,8008,NNB,B,11
11,test,5,0.0,1-Back,1,m,Wed Apr 23 2025 14:51:26 GMT-0500 (Central Daylight Time),322589.6999999997,065_o_m_n_a.png,I,m,860,13,3,1869.1999999997206,320720.5,8008,NNB,B,12
12,test,5,0.0,1-Back,1,m,Wed Apr 23 2025 14:51:26 GMT-0500 (Central Daylight Time),324290.3999999999,097_m_f_n_a.png,I,m,658,14,3,1682.3999999999069,322608.0,8008,NNB,B,13
13,test,5,1.0,1-Back,1,z,Wed Apr 23 2025 14:51:26 GMT-0500 (Central Daylight Time),325873.0,097_m_f_n_a.png,I,z,551,15,3,1567.5,324305.5,8008,NNB,B,14
14,test,5,0.0,1-Back,1,m,Wed Apr 23 2025 14:51:26 GMT-0500 (Central Daylight Time),327638.7999999998,065_o_m_n_a.png,I,m,726,16,3,1749.1000000000931,325889.6999999997,8008,NNB,B,15
15,test,5,0.0,1-Back,1,m,Wed Apr 23 2025 14:51:26 GMT-0500 (Central Daylight Time),329337.1000000001,029_m_f_n_a.png,I,m,673,17,3,1685.4000000003725,327651.6999999997,8008,NNB,B,16
16,test,5,0.0,1-Back,1,m,Wed Apr 23 2025 14:51:26 GMT-0500 (Central Daylight Time),331005.1999999997,178_m_m_n_a.png,I,m,637,18,3,1656.5,329348.6999999997,8008,NNB,B,17
0,prac,1,0.0,2-Back,,,Wed Apr 23 2025 14:51:26 GMT-0500 (Central Daylight Time),331005.1999999997,013_y_m_n_a.png,I,space,5643,1,3,1656.5,329348.6999999997,8008,NNB,B,0
0,prac,1,0.0,2-Back,,,Wed Apr 23 2025 14:51:26 GMT-0500 (Central Daylight Time),331005.1999999997,029_m_f_n_a.png,I,space,5643,2,3,1656.5,329348.6999999997,8008,NNB,B,0
1,prac,1,1.0,2-Back,1,m,Wed Apr 23 2025 14:51:26 GMT-0500 (Central Daylight Time),443536.5,065_o_m_n_a.png,I,m,1799,3,3,2668.5,440868.0,8008,NNB,B,1
2,prac,1,0.0,2-Back,1,m,Wed Apr 23 2025 14:51:26 GMT-0500 (Central Daylight Time),445652.0,086_o_f_n_a.png,I,m,1216,4,3,2098.399999999907,443553.6000000001,8008,NNB,B,2
2,prac,1,0.0,2-Back,0,z,Wed Apr 23 2025 14:51:26 GMT-0500 (Central Daylight Time),447818.3999999999,065_o_m_n_a.png,I,m,1366,5,3,2148.600000000093,445669.7999999998,8008,NNB,B,3
3,prac,1,1.0,2-Back,1,z,Wed Apr 23 2025 14:51:26 GMT-0500 (Central Daylight Time),449583.2999999998,086_o_f_n_a.png,I,z,974,6,3,1747.1000000000931,447836.1999999997,8008,NNB,B,4
4,prac,1,0.0,2-Back,1,m,Wed Apr 23 2025 14:51:26 GMT-0500 (Central Daylight Time),451582.8999999999,178_m_m_n_a.png,I,m,1125,7,3,1983.1000000000931,449599.7999999998,8008,NNB,B,5
5,prac,1,0.0,2-Back,1,m,Wed Apr 23 2025 14:51:26 GMT-0500 (Central Daylight Time),453448.6999999997,176_o_m_n_a.png,I,m,982,8,3,1847.7999999998137,451600.8999999999,8008,NNB,B,6
6,prac,1,0.0,2-Back,1,m,Wed Apr 23 2025 14:51:26 GMT-0500 (Central Daylight Time),455516.1999999997,173_y_f_n_a.png,I,m,1214,9,3,2050.899999999907,453465.2999999998,8008,NNB,B,7
7,prac,1,1.0,2-Back,1,z,Wed Apr 23 2025 14:51:26 GMT-0500 (Central Daylight Time),457446.5,176_o_m_n_a.png,I,z,1141,10,3,1913.5,455533.0,8008,NNB,B,8
8,prac,1,0.0,2-Back,1,m,Wed Apr 23 2025 14:51:26 GMT-0500 (Central Daylight Time),459280.6000000001,152_y_f_n_a.png,I,m,948,11,3,1816.7000000001863,457463.8999999999,8008,NNB,B,9
9,prac,1,0.0,2-Back,1,m,Wed Apr 23 2025 14:51:26 GMT-0500 (Central Daylight Time),461262.5,178_m_m_n_a.png,I,m,1192,12,3,1964.8999999999069,459297.6000000001,8008,NNB,B,10
0,test,1,0.0,2-Back,,,Wed Apr 23 2025 14:51:26 GMT-0500 (Central Daylight Time),461262.5,153_y_m_n_a.png,I,space,2459,1,3,1964.8999999999069,459297.6000000001,8008,NNB,B,0
0,test,1,0.0,2-Back,,,Wed Apr 23 2025 14:51:26 GMT-0500 (Central Daylight Time),461262.5,153_y_m_n_a.png,I,space,2459,2,3,1964.8999999999069,459297.6000000001,8008,NNB,B,0
1,test,1,0.0,2-Back,1,m,Wed Apr 23 2025 14:51:26 GMT-0500 (Central Daylight Time),477372.2999999998,086_o_f_n_a.png,I,m,824,3,3,1847.6000000000931,475524.6999999997,8008,NNB,B,1
2,test,1,0.0,2-Back,1,m,Wed Apr 23 2025 14:51:26 GMT-0500 (Central Daylight Time),479357.1999999997,126_m_m_n_a.png,I,m,956,4,3,1974.5,477382.6999999997,8008,NNB,B,2
3,test,1,1.0,2-Back,1,z,Wed Apr 23 2025 14:51:26 GMT-0500 (Central Daylight Time),481340.3999999999,086_o_f_n_a.png,I,z,939,5,3,1965.2999999998137,479375.1000000001,8008,NNB,B,3
4,test,1,0.0,2-Back,1,m,Wed Apr 23 2025 14:51:26 GMT-0500 (Central Daylight Time),483237.6000000001,152_y_f_n_a.png,I,m,867,6,3,1882.9000000003725,481354.6999999997,8008,NNB,B,4
5,test,1,0.0,2-Back,1,m,Wed Apr 23 2025 14:51:26 GMT-0500 (Central Daylight Time),485470.5,126_m_m_n_a.png,I,m,1193,7,3,2212.100000000093,483258.3999999999,8008,NNB,B,5
6,test,1,1.0,2-Back,1,z,Wed Apr 23 2025 14:51:26 GMT-0500 (Central Daylight Time),487403.8999999999,152_y_f_n_a.png,I,z,904,8,3,1916.7999999998137,485487.1000000001,8008,NNB,B,6
7,test,1,0.0,2-Back,1,m,Wed Apr 23 2025 14:51:26 GMT-0500 (Central Daylight Time),489288.5,013_y_m_n_a.png,I,m,860,9,3,1870.3000000002794,487418.1999999997,8008,NNB,B,7
8,test,1,0.0,2-Back,1,m,Wed Apr 23 2025 14:51:26 GMT-0500 (Central Daylight Time),491252.2999999998,110_o_f_n_a.png,I,m,931,10,3,1946.1999999997206,489306.1000000001,8008,NNB,B,8
9,test,1,1.0,2-Back,1,z,Wed Apr 23 2025 14:51:26 GMT-0500 (Central Daylight Time),493154.0,013_y_m_n_a.png,I,z,854,11,3,1884.1000000000931,491269.8999999999,8008,NNB,B,9
10,test,1,0.0,2-Back,1,m,Wed Apr 23 2025 14:51:26 GMT-0500 (Central Daylight Time),495068.1999999997,029_m_f_n_a.png,I,m,881,12,3,1898.0999999996275,493170.1000000001,8008,NNB,B,10
10,test,1,0.0,2-Back,0,m,Wed Apr 23 2025 14:51:26 GMT-0500 (Central Daylight Time),497568.1999999997,029_m_f_n_a.png,I,z,1459,13,3,2482.2999999998137,495085.8999999999,8008,NNB,B,11
11,test,1,0.0,2-Back,1,m,Wed Apr 23 2025 14:51:26 GMT-0500 (Central Daylight Time),499666.5,065_o_m_n_a.png,I,m,1056,14,3,2083.600000000093,497582.8999999999,8008,NNB,B,12
12,test,1,0.0,2-Back,1,m,Wed Apr 23 2025 14:51:26 GMT-0500 (Central Daylight Time),502115.7999999998,110_o_f_n_a.png,I,m,1420,15,3,2432.899999999907,499682.8999999999,8008,NNB,B,13
13,test,1,1.0,2-Back,1,z,Wed Apr 23 2025 14:51:26 GMT-0500 (Central Daylight Time),504032.7999999998,065_o_m_n_a.png,I,z,890,16,3,1900.7999999998137,502132.0,8008,NNB,B,14
14,test,1,0.0,2-Back,1,m,Wed Apr 23 2025 14:51:26 GMT-0500 (Central Daylight Time),505917.1999999997,097_m_f_n_a.png,I,m,851,17,3,1869.0999999996275,504048.1000000001,8008,NNB,B,15
15,test,1,0.0,2-Back,1,m,Wed Apr 23 2025 14:51:26 GMT-0500 (Central Daylight Time),507982.1999999997,178_m_m_n_a.png,I,m,1020,18,3,2048.399999999907,505933.7999999998,8008,NNB,B,16
0,test,2,0.0,2-Back,,,Wed Apr 23 2025 14:51:26 GMT-0500 (Central Daylight Time),507982.1999999997,178_m_m_n_a.png,I,space,1987,1,3,2048.399999999907,505933.7999999998,8008,NNB,B,0
0,test,2,0.0,2-Back,,,Wed Apr 23 2025 14:51:26 GMT-0500 (Central Daylight Time),507982.1999999997,173_y_f_n_a.png,I,space,1987,2,3,2048.399999999907,505933.7999999998,8008,NNB,B,0
1,test,2,1.0,2-Back,1,z,Wed Apr 23 2025 14:51:26 GMT-0500 (Central Daylight Time),517161.6000000001,178_m_m_n_a.png,I,z,1016,3,3,2035.1000000000931,515126.5,8008,NNB,B,1
2,test,2,0.0,2-Back,1,m,Wed Apr 23 2025 14:51:26 GMT-0500 (Central Daylight Time),519043.7999999998,097_m_f_n_a.png,I,m,837,4,3,1865.6000000000931,517178.1999999997,8008,NNB,B,2
3,test,2,0.0,2-Back,1,m,Wed Apr 23 2025 14:51:26 GMT-0500 (Central Daylight Time),521075.7999999998,173_y_f_n_a.png,I,m,1004,5,3,2015.6999999997206,519060.1000000001,8008,NNB,B,3
4,test,2,0.0,2-Back,1,m,Wed Apr 23 2025 14:51:26 GMT-0500 (Central Daylight Time),522926.0,065_o_m_n_a.png,I,m,819,6,3,1836.8000000002794,521089.1999999997,8008,NNB,B,4
5,test,2,0.0,2-Back,1,m,Wed Apr 23 2025 14:51:26 GMT-0500 (Central Daylight Time),524742.6000000001,152_y_f_n_a.png,I,m,785,7,3,1802.4000000003725,522940.1999999997,8008,NNB,B,5
5,test,2,1.0,2-Back,0,z,Wed Apr 23 2025 14:51:26 GMT-0500 (Central Daylight Time),526758.2999999998,065_o_m_n_a.png,I,m,970,8,3,1999.5,524758.7999999998,8008,NNB,B,6
6,test,2,0.0,2-Back,1,m,Wed Apr 23 2025 14:51:26 GMT-0500 (Central Daylight Time),528541.1999999997,013_y_m_n_a.png,I,m,753,9,3,1768.7999999998137,526772.3999999999,8008,NNB,B,7
7,test,2,0.0,2-Back,1,m,Wed Apr 23 2025 14:51:26 GMT-0500 (Central Daylight Time),530394.0,013_y_m_n_a.png,I,m,809,10,3,1835.3999999999069,528558.6000000001,8008,NNB,B,8
8,test,2,0.0,2-Back,1,m,Wed Apr 23 2025 14:51:26 GMT-0500 (Central Daylight Time),532289.0,029_m_f_n_a.png,I,m,873,11,3,1883.8000000002794,530405.1999999997,8008,NNB,B,9
8,test,2,0.0,2-Back,0,m,Wed Apr 23 2025 14:51:26 GMT-0500 (Central Daylight Time),534206.6999999997,173_y_f_n_a.png,I,z,871,12,3,1900.5,532306.1999999997,8008,NNB,B,10
8,test,2,1.0,2-Back,0,z,Wed Apr 23 2025 14:51:26 GMT-0500 (Central Daylight Time),536122.1000000001,029_m_f_n_a.png,I,m,889,13,3,1900.7000000001863,534221.3999999999,8008,NNB,B,11
9,test,2,0.0,2-Back,1,m,Wed Apr 23 2025 14:51:26 GMT-0500 (Central Daylight Time),537954.0,176_o_m_n_a.png,I,m,805,14,3,1819.3000000002794,536134.6999999997,8008,NNB,B,12
10,test,2,0.0,2-Back,1,m,Wed Apr 23 2025 14:51:26 GMT-0500 (Central Daylight Time),539803.7999999998,176_o_m_n_a.png,I,m,831,15,3,1835.0,537968.7999999998,8008,NNB,B,13
11,test,2,0.0,2-Back,1,m,Wed Apr 23 2025 14:51:26 GMT-0500 (Central Daylight Time),541952.6999999997,110_o_f_n_a.png,I,m,1117,16,3,2133.5999999996275,539819.1000000001,8008,NNB,B,14
12,test,2,0.0,2-Back,1,m,Wed Apr 23 2025 14:51:26 GMT-0500 (Central Daylight Time),543936.8999999999,126_m_m_n_a.png,I,m,964,17,3,1968.7000000001863,541968.1999999997,8008,NNB,B,15
13,test,2,1.0,2-Back,1,z,Wed Apr 23 2025 14:51:26 GMT-0500 (Central Daylight Time),546152.6999999997,110_o_f_n_a.png,I,z,1182,18,3,2201.0,543951.6999999997,8008,NNB,B,16
0,test,3,1.0,2-Back,,,Wed Apr 23 2025 14:51:26 GMT-0500 (Central Daylight Time),546152.6999999997,153_y_m_n_a.png,I,space,1584,1,3,2201.0,543951.6999999997,8008,NNB,B,0
0,test,3,1.0,2-Back,,,Wed Apr 23 2025 14:51:26 GMT-0500 (Central Daylight Time),546152.6999999997,153_y_m_n_a.png,I,space,1584,2,3,2201.0,543951.6999999997,8008,NNB,B,0
1,test,3,0.0,2-Back,1,m,Wed Apr 23 2025 14:51:26 GMT-0500 (Central Daylight Time),554749.5,110_o_f_n_a.png,I,m,832,3,3,1850.2000000001863,552899.2999999998,8008,NNB,B,1
2,test,3,0.0,2-Back,1,m,Wed Apr 23 2025 14:51:26 GMT-0500 (Central Daylight Time),556849.1000000001,178_m_m_n_a.png,I,m,1051,4,3,2084.8000000002794,554764.2999999998,8008,NNB,B,2
3,test,3,1.0,2-Back,1,z,Wed Apr 23 2025 14:51:26 GMT-0500 (Central Daylight Time),558814.3999999999,110_o_f_n_a.png,I,z,927,5,3,1947.8999999999069,556866.5,8008,NNB,B,3
4,test,3,0.0,2-Back,1,m,Wed Apr 23 2025 14:51:26 GMT-0500 (Central Daylight Time),560748.8999999999,013_y_m_n_a.png,I,m,915,6,3,1921.2999999998137,558827.6000000001,8008,NNB,B,4
5,test,3,0.0,2-Back,1,m,Wed Apr 23 2025 14:51:26 GMT-0500 (Central Daylight Time),562830.7999999998,178_m_m_n_a.png,I,m,1035,7,3,2065.899999999907,560764.8999999999,8008,NNB,B,5
6,test,3,1.0,2-Back,1,z,Wed Apr 23 2025 14:51:26 GMT-0500 (Central Daylight Time),564930.0,013_y_m_n_a.png,I,z,1051,8,3,2083.100000000093,562846.8999999999,8008,NNB,B,6
6,test,3,0.0,2-Back,0,m,Wed Apr 23 2025 14:51:26 GMT-0500 (Central Daylight Time),567329.2999999998,173_y_f_n_a.png,I,z,1350,9,3,2384.0,564945.2999999998,8008,NNB,B,7
7,test,3,0.0,2-Back,1,m,Wed Apr 23 2025 14:51:26 GMT-0500 (Central Daylight Time),569378.6000000001,126_m_m_n_a.png,I,m,1016,10,3,2033.6000000000931,567345.0,8008,NNB,B,8
8,test,3,1.0,2-Back,1,z,Wed Apr 23 2025 14:51:26 GMT-0500 (Central Daylight Time),571244.3999999999,173_y_f_n_a.png,I,z,849,11,3,1851.6000000000931,569392.7999999998,8008,NNB,B,9
8,test,3,1.0,2-Back,0,z,Wed Apr 23 2025 14:51:26 GMT-0500 (Central Daylight Time),573193.7999999998,126_m_m_n_a.png,I,m,908,12,3,1933.1999999997206,571260.6000000001,8008,NNB,B,10
9,test,3,0.0,2-Back,1,m,Wed Apr 23 2025 14:51:26 GMT-0500 (Central Daylight Time),575176.1999999997,110_o_f_n_a.png,I,m,957,13,3,1968.1999999997206,573208.0,8008,NNB,B,11
10,test,3,0.0,2-Back,1,m,Wed Apr 23 2025 14:51:26 GMT-0500 (Central Daylight Time),577075.8999999999,097_m_f_n_a.png,I,m,865,14,3,1884.5,575191.3999999999,8008,NNB,B,12
11,test,3,0.0,2-Back,1,m,Wed Apr 23 2025 14:51:26 GMT-0500 (Central Daylight Time),579291.7999999998,065_o_m_n_a.png,I,m,1167,15,3,2199.2999999998137,577092.5,8008,NNB,B,13
12,test,3,1.0,2-Back,1,z,Wed Apr 23 2025 14:51:26 GMT-0500 (Central Daylight Time),581157.8999999999,097_m_f_n_a.png,I,z,819,16,3,1849.7000000001863,579308.1999999997,8008,NNB,B,14
13,test,3,0.0,2-Back,1,m,Wed Apr 23 2025 14:51:26 GMT-0500 (Central Daylight Time),583058.1000000001,086_o_f_n_a.png,I,m,873,17,3,1883.4000000003725,581174.6999999997,8008,NNB,B,15
14,test,3,0.0,2-Back,1,m,Wed Apr 23 2025 14:51:26 GMT-0500 (Central Daylight Time),585339.8999999999,086_o_f_n_a.png,I,m,1233,18,3,2264.899999999907,583075.0,8008,NNB,B,16
0,test,4,0.0,2-Back,,,Wed Apr 23 2025 14:51:26 GMT-0500 (Central Daylight Time),585339.8999999999,176_o_m_n_a.png,I,space,2125,1,3,2264.899999999907,583075.0,8008,NNB,B,0
0,test,4,0.0,2-Back,,,Wed Apr 23 2025 14:51:26 GMT-0500 (Central Daylight Time),585339.8999999999,152_y_f_n_a.png,I,space,2125,2,3,2264.899999999907,583075.0,8008,NNB,B,0
1,test,4,1.0,2-Back,1,z,Wed Apr 23 2025 14:51:26 GMT-0500 (Central Daylight Time),595587.6000000001,176_o_m_n_a.png,I,z,1851,3,3,2871.0,592716.6000000001,8008,NNB,B,1
2,test,4,1.0,2-Back,1,z,Wed Apr 23 2025 14:51:26 GMT-0500 (Central Daylight Time),597903.1000000001,152_y_f_n_a.png,I,z,1285,4,3,2300.4000000003725,595602.6999999997,8008,NNB,B,2
3,test,4,0.0,2-Back,1,m,Wed Apr 23 2025 14:51:26 GMT-0500 (Central Daylight Time),599968.3999999999,110_o_f_n_a.png,I,m,1015,5,3,2049.899999999907,597918.5,8008,NNB,B,3
4,test,4,0.0,2-Back,1,m,Wed Apr 23 2025 14:51:26 GMT-0500 (Central Daylight Time),602168.1999999997,110_o_f_n_a.png,I,m,1167,6,3,2184.7999999998137,599983.3999999999,8008,NNB,B,4
5,test,4,0.0,2-Back,1,m,Wed Apr 23 2025 14:51:26 GMT-0500 (Central Daylight Time),604132.7999999998,029_m_f_n_a.png,I,m,948,7,3,1950.5,602182.2999999998,8008,NNB,B,5
6,test,4,0.0,2-Back,1,m,Wed Apr 23 2025 14:51:26 GMT-0500 (Central Daylight Time),605999.7999999998,013_y_m_n_a.png,I,m,832,8,3,1851.1999999997206,604148.6000000001,8008,NNB,B,6
7,test,4,1.0,2-Back,1,z,Wed Apr 23 2025 14:51:26 GMT-0500 (Central Daylight Time),608098.8999999999,029_m_f_n_a.png,I,z,1072,9,3,2084.399999999907,606014.5,8008,NNB,B,7
8,test,4,0.0,2-Back,1,m,Wed Apr 23 2025 14:51:26 GMT-0500 (Central Daylight Time),610131.1000000001,126_m_m_n_a.png,I,m,989,10,3,2016.2000000001863,608114.8999999999,8008,NNB,B,8
8,test,4,0.0,2-Back,0,m,Wed Apr 23 2025 14:51:26 GMT-0500 (Central Daylight Time),612282.6000000001,013_y_m_n_a.png,I,z,1107,11,3,2134.100000000093,610148.5,8008,NNB,B,9
9,test,4,0.0,2-Back,1,m,Wed Apr 23 2025 14:51:26 GMT-0500 (Central Daylight Time),614248.1000000001,086_o_f_n_a.png,I,m,925,12,3,1951.0,612297.1000000001,8008,NNB,B,10
10,test,4,0.0,2-Back,1,m,Wed Apr 23 2025 14:51:26 GMT-0500 (Central Daylight Time),616380.1999999997,153_y_m_n_a.png,I,m,1104,13,3,2115.899999999907,614264.2999999998,8008,NNB,B,11
11,test,4,1.0,2-Back,1,z,Wed Apr 23 2025 14:51:26 GMT-0500 (Central Daylight Time),618145.8999999999,086_o_f_n_a.png,I,z,724,14,3,1750.8999999999069,616395.0,8008,NNB,B,12
11,test,4,1.0,2-Back,0,z,Wed Apr 23 2025 14:51:26 GMT-0500 (Central Daylight Time),620111.1999999997,153_y_m_n_a.png,I,m,932,15,3,1949.3999999999069,618161.7999999998,8008,NNB,B,13
12,test,4,0.0,2-Back,1,m,Wed Apr 23 2025 14:51:26 GMT-0500 (Central Daylight Time),622010.8999999999,178_m_m_n_a.png,I,m,872,16,3,1884.7000000001863,620126.1999999997,8008,NNB,B,14
13,test,4,0.0,2-Back,1,m,Wed Apr 23 2025 14:51:26 GMT-0500 (Central Daylight Time),623844.2999999998,097_m_f_n_a.png,I,m,815,17,3,1817.5,622026.7999999998,8008,NNB,B,15
14,test,4,1.0,2-Back,1,z,Wed Apr 23 2025 14:51:26 GMT-0500 (Central Daylight Time),625776.6000000001,178_m_m_n_a.png,I,z,886,18,3,1914.9000000003725,623861.6999999997,8008,NNB,B,16
0,test,5,1.0,2-Back,,,Wed Apr 23 2025 14:51:26 GMT-0500 (Central Daylight Time),625776.6000000001,153_y_m_n_a.png,I,space,1437,1,3,1914.9000000003725,623861.6999999997,8008,NNB,B,0
0,test,5,1.0,2-Back,,,Wed Apr 23 2025 14:51:26 GMT-0500 (Central Daylight Time),625776.6000000001,097_m_f_n_a.png,I,space,1437,2,3,1914.9000000003725,623861.6999999997,8008,NNB,B,0
1,test,5,1.0,2-Back,1,z,Wed Apr 23 2025 14:51:26 GMT-0500 (Central Daylight Time),634708.6000000001,153_y_m_n_a.png,I,z,1388,3,3,2416.3000000002794,632292.2999999998,8008,NNB,B,1
2,test,5,1.0,2-Back,1,z,Wed Apr 23 2025 14:51:26 GMT-0500 (Central Daylight Time),636572.8999999999,097_m_f_n_a.png,I,z,831,4,3,1850.0,634722.8999999999,8008,NNB,B,2
3,test,5,0.0,2-Back,1,m,Wed Apr 23 2025 14:51:26 GMT-0500 (Central Daylight Time),638455.8999999999,086_o_f_n_a.png,I,m,844,5,3,1865.8999999999069,636590.0,8008,NNB,B,3
4,test,5,0.0,2-Back,1,m,Wed Apr 23 2025 14:51:26 GMT-0500 (Central Daylight Time),640371.6000000001,153_y_m_n_a.png,I,m,888,6,3,1901.1000000000931,638470.5,8008,NNB,B,4
5,test,5,0.0,2-Back,1,m,Wed Apr 23 2025 14:51:26 GMT-0500 (Central Daylight Time),642404.7999999998,173_y_f_n_a.png,I,m,1003,7,3,2017.8999999999069,640386.8999999999,8008,NNB,B,5
6,test,5,0.0,2-Back,1,m,Wed Apr 23 2025 14:51:26 GMT-0500 (Central Daylight Time),645187.1999999997,086_o_f_n_a.png,I,m,1734,8,3,2766.399999999907,642420.7999999998,8008,NNB,B,6
6,test,5,1.0,2-Back,0,z,Wed Apr 23 2025 14:51:26 GMT-0500 (Central Daylight Time),648205.3999999999,173_y_f_n_a.png,I,None,2001,9,3,3003.600000000093,645201.7999999998,8008,NNB,B,7
6,test,5,0.0,2-Back,0,m,Wed Apr 23 2025 14:51:26 GMT-0500 (Central Daylight Time),650319.1999999997,065_o_m_n_a.png,I,z,1068,10,3,2098.5999999996275,648220.6000000001,8008,NNB,B,8
7,test,5,0.0,2-Back,1,m,Wed Apr 23 2025 14:51:26 GMT-0500 (Central Daylight Time),652802.5,029_m_f_n_a.png,I,m,1455,11,3,2468.0,650334.5,8008,NNB,B,9
7,test,5,0.0,2-Back,0,m,Wed Apr 23 2025 14:51:26 GMT-0500 (Central Daylight Time),654935.1999999997,126_m_m_n_a.png,I,z,1094,12,3,2116.5,652818.6999999997,8008,NNB,B,10
8,test,5,0.0,2-Back,1,m,Wed Apr 23 2025 14:51:26 GMT-0500 (Central Daylight Time),656851.1000000001,065_o_m_n_a.png,I,m,868,13,3,1899.2000000001863,654951.8999999999,8008,NNB,B,11
9,test,5,1.0,2-Back,1,z,Wed Apr 23 2025 14:51:26 GMT-0500 (Central Daylight Time),658967.2999999998,126_m_m_n_a.png,I,z,1076,14,3,2099.1999999997206,656868.1000000001,8008,NNB,B,12
10,test,5,0.0,2-Back,1,m,Wed Apr 23 2025 14:51:26 GMT-0500 (Central Daylight Time),660765.8999999999,152_y_f_n_a.png,I,m,753,15,3,1782.8999999999069,658983.0,8008,NNB,B,13
10,test,5,0.0,2-Back,0,m,Wed Apr 23 2025 14:51:26 GMT-0500 (Central Daylight Time),662666.0,176_o_m_n_a.png,I,z,849,16,3,1882.6000000000931,660783.3999999999,8008,NNB,B,14
11,test,5,0.0,2-Back,1,m,Wed Apr 23 2025 14:51:26 GMT-0500 (Central Daylight Time),664548.8999999999,029_m_f_n_a.png,I,m,849,17,3,1865.6000000000931,662683.2999999998,8008,NNB,B,15
12,test,5,1.0,2-Back,1,z,Wed Apr 23 2025 14:51:26 GMT-0500 (Central Daylight Time),666514.2999999998,176_o_m_n_a.png,I,z,918,18,3,1949.3999999999069,664564.8999999999,8008,NNB,B,16
