acc_sum,block_c,block_dur,condition,correct,correct_response,countdown,datetime,endtime,project,response,response_time,response_time_test1_response,response_time_test2_response,row_sel,same,session_number,start_end,starttime,stim1,stim2,subject_id,task,task_vers,time_test1,time_test2,trial
1,1,0.0,prac,1,m,30000.0,Fri Mar 28 2025 11:55:31 GMT-0500 (Central Daylight Time),57302.79999999702,O,m,1661,,,1,no,,3193.6000000089407,54109.19999998808,RNV,FNV,7096,LC,A,,,1
2,1,0.0,prac,1,m,30000.0,Fri Mar 28 2025 11:55:31 GMT-0500 (Central Daylight Time),61035.89999999106,O,m,2197,,,3,no,,3727.8999999910593,57308.0,QHZXPC,QHZWPC,7096,LC,A,,,2
3,1,0.0,prac,1,z,30000.0,Fri Mar 28 2025 11:55:31 GMT-0500 (Central Daylight Time),64267.89999999106,O,z,1704,,,4,yes,,3225.2000000029802,61042.69999998808,RSM,RSM,7096,LC,A,,,3
4,1,0.0,prac,1,z,30000.0,Fri Mar 28 2025 11:55:31 GMT-0500 (Central Daylight Time),68365.69999998808,O,z,2573,,,2,yes,,4090.0999999940395,64275.59999999404,NBGFSM,NBGFSM,7096,LC,A,,,4
5,1,0.0,prac,1,z,30000.0,Fri Mar 28 2025 11:55:31 GMT-0500 (Central Daylight Time),72796.59999999404,O,z,2900,,,6,yes,,4422.0999999940395,68374.5,CSDBFPHXZ,CSDBFPHXZ,7096,LC,A,,,5
6,1,0.0,prac,1,m,30000.0,Fri Mar 28 2025 11:55:31 GMT-0500 (Central Daylight Time),77412.59999999404,O,m,3071,,,5,no,,4603.9000000059605,72808.69999998808,LNDPRSKQB,LNDPRSJQB,7096,LC,A,,,6
1,1,1.5999999046325684,test,1,m,28400.00009536743,Fri Mar 28 2025 11:55:31 GMT-0500 (Central Daylight Time),82795.39999999106,O,m,1575,1575,,1,no,,1591.7999999970198,81203.59999999404,HCF,RCF,7096,LC,A,79384,,1
1,1,3.7330000400543213,test,0,m,26266.99995994568,Fri Mar 28 2025 11:55:31 GMT-0500 (Central Daylight Time),84928.69999998808,O,z,2110,2110,,2,no,,2125.3999999910593,82803.29999999702,QTPRJX,QTPNJX,7096,LC,A,80984,,2
2,1,6.180999994277954,test,1,m,23819.000005722046,Fri Mar 28 2025 11:55:31 GMT-0500 (Central Daylight Time),87376.29999999702,O,m,2432,2432,,3,no,,2439.7999999970198,84936.5,MZDYGVGKQ,MZDYGLBKQ,7096,LC,A,83118,,3
3,1,7.912999868392944,test,1,m,22087.000131607056,Fri Mar 28 2025 11:55:31 GMT-0500 (Central Daylight Time),89108.59999999404,O,m,1725,1725,,4,no,,1727.7000000029802,87380.89999999106,FQTNMK,JQTNMK,7096,LC,A,85562,,4
4,1,9.34500002861023,test,1,z,20654.99997138977,Fri Mar 28 2025 11:55:31 GMT-0500 (Central Daylight Time),90539.79999999702,O,z,1413,1413,,5,yes,,1425.1000000089407,89114.69999998808,CLJ,CLJ,7096,LC,A,87296,,5
4,1,12.678999900817871,test,0,m,17321.00009918213,Fri Mar 28 2025 11:55:31 GMT-0500 (Central Daylight Time),93873.89999999106,O,z,3323,3323,,6,no,,3331.5999999940395,90542.29999999702,JGDMNSVPW,JGZMNSVPW,7096,LC,A,88723,,6
5,1,16.19599986076355,test,1,z,13804.00013923645,Fri Mar 28 2025 11:55:31 GMT-0500 (Central Daylight Time),97390.69999998808,O,z,3495,3495,,7,yes,,3512.7999999970198,93877.89999999106,FPTVHKCBJ,FPTVHKCBJ,7096,LC,A,92059,,7
6,1,17.944000005722046,test,1,m,12055.999994277954,Fri Mar 28 2025 11:55:31 GMT-0500 (Central Daylight Time),99139.19999998808,O,m,1733,1733,,8,no,,1743.5999999940395,97395.59999999404,XRPZBS,ZRPBDH,7096,LC,A,95577,,8
7,1,19.49399995803833,test,1,m,10506.00004196167,Fri Mar 28 2025 11:55:31 GMT-0500 (Central Daylight Time),100689.09999999404,O,m,1530,1530,,9,no,,1544.5999999940395,99144.5,ZSQ,ZSP,7096,LC,A,97325,,9
8,1,23.29099988937378,test,1,z,6709.000110626221,Fri Mar 28 2025 11:55:31 GMT-0500 (Central Daylight Time),104486.19999998808,O,z,3782,3782,,10,yes,,3794.5999999940395,100691.59999999404,MPZRXL,MPZRXL,7096,LC,A,98872,,10
9,1,24.524999856948853,test,1,m,5475.0001430511475,Fri Mar 28 2025 11:55:31 GMT-0500 (Central Daylight Time),105720.0,O,m,1224,1224,,11,no,,1229.7000000029802,104490.29999999702,KJH,KRH,7096,LC,A,102671,,11
10,1,29.804999828338623,test,1,z,195.00017166137695,Fri Mar 28 2025 11:55:31 GMT-0500 (Central Daylight Time),110999.69999998808,O,z,5268,5268,,12,yes,,5275.29999999702,105724.39999999106,SMNHVTFCB,SMNHVTFCB,7096,LC,A,103905,,12
10,1,30.00499987602234,test,0,z,-4.999876022338867,Fri Mar 28 2025 11:55:31 GMT-0500 (Central Daylight Time),111200.29999999702,O,None,197,197,,13,yes,,198.20000000298023,111002.09999999404,KJWTQF,KJWTQF,7096,LC,A,109183,,13
1,2,3.69599986076355,test,1,z,26304.00013923645,Fri Mar 28 2025 11:55:31 GMT-0500 (Central Daylight Time),116647.89999999106,O,z,3679,,3679.0,1,yes,,5645.79999999702,111002.09999999404,PRDBZTYFN,PRDBZTYFN,7096,LC,A,,111136.0,1
2,2,6.446999788284302,test,1,m,23553.0002117157,Fri Mar 28 2025 11:55:31 GMT-0500 (Central Daylight Time),119399.0,O,m,2732,,2732.0,2,no,,8396.90000000596,111002.09999999404,NCWJDZ,NCMJDZ,7096,LC,A,,114835.0,2
2,2,7.645999908447266,test,0,m,22354.000091552734,Fri Mar 28 2025 11:55:31 GMT-0500 (Central Daylight Time),120598.39999999106,O,z,1188,,1188.0,3,no,,9596.29999999702,111002.09999999404,KHW,KBW,7096,LC,A,,117586.0,3
2,2,10.645999908447266,test,0,m,19354.000091552734,Fri Mar 28 2025 11:55:31 GMT-0500 (Central Daylight Time),123598.0,O,z,2992,,2992.0,4,no,,12595.90000000596,111002.09999999404,ZRBGMF,ZRBCMF,7096,LC,A,,118782.0,4
3,2,12.095999956130981,test,1,m,17904.00004386902,Fri Mar 28 2025 11:55:31 GMT-0500 (Central Daylight Time),125048.0,O,m,1441,,1441.0,5,no,,14045.90000000596,111002.09999999404,BTH,BYH,7096,LC,A,,121782.0,5
3,2,14.628999948501587,test,0,z,15371.000051498413,Fri Mar 28 2025 11:55:31 GMT-0500 (Central Daylight Time),127581.29999999702,O,m,2529,,2529.0,6,yes,,16579.20000000298,111002.09999999404,XWKQRYCNZ,XWKQRYCNZ,7096,LC,A,,123232.0,6
4,2,16.3439998626709,test,1,z,13656.000137329102,Fri Mar 28 2025 11:55:31 GMT-0500 (Central Daylight Time),129296.19999998808,O,z,1705,,1705.0,7,yes,,18294.09999999404,111002.09999999404,HNPDLK,HNPDLK,7096,LC,A,,125766.0,7
5,2,19.741999864578247,test,1,m,10258.000135421753,Fri Mar 28 2025 11:55:31 GMT-0500 (Central Daylight Time),132694.29999999702,O,m,3390,,3390.0,8,no,,21692.20000000298,111002.09999999404,WMQTRSGLZ,WMQTRZGLZ,7096,LC,A,,127480.0,8
6,2,21.0239999294281,test,1,z,8976.0000705719,Fri Mar 28 2025 11:55:31 GMT-0500 (Central Daylight Time),133976.39999999106,O,z,1262,,1262.0,9,yes,,22974.29999999702,111002.09999999404,JPN,JPN,7096,LC,A,,130879.0,9
7,2,22.89199995994568,test,1,m,7108.000040054321,Fri Mar 28 2025 11:55:31 GMT-0500 (Central Daylight Time),135843.69999998808,O,m,1856,,1856.0,10,no,,24841.59999999404,111002.09999999404,QLXSVT,QLNSVT,7096,LC,A,,132159.0,10
8,2,26.72599983215332,test,1,z,3274.0001678466797,Fri Mar 28 2025 11:55:31 GMT-0500 (Central Daylight Time),139677.59999999404,O,z,3828,,3828.0,11,yes,,28675.5,111002.09999999404,YXHKZVFPB,YXHKZVFPD,7096,LC,A,,134029.0,11
9,2,28.757999897003174,test,1,z,1242.0001029968262,Fri Mar 28 2025 11:55:31 GMT-0500 (Central Daylight Time),141710.29999999702,O,z,2028,,2028.0,12,yes,,30708.20000000298,111002.09999999404,RJZ,RJZ,7096,LC,A,,137862.0,12
9,2,30.00599980354309,test,0,z,-5.99980354309082,Fri Mar 28 2025 11:55:31 GMT-0500 (Central Daylight Time),142957.79999999702,O,None,1244,,1244.0,13,yes,,31955.70000000298,111002.09999999404,CLNPZD,CLNPZD,7096,LC,A,,139894.0,13
