block_c,block_dur,condition,countdown,datetime,endtime,list,multichar_response,project,response,response_time,session_number,start_end,starttime,subject_id,task,task_vers,trial
,,,,Mon Apr 28 2025 16:05:28 GMT-0500 (Central Daylight Time),,,,O,space,657,1,,,7133,WL,A,
prac,,0,,Mon Apr 28 2025 16:05:28 GMT-0500 (Central Daylight Time),,NA,b,O,b,4403,1,,,7133,WL,A,1.0
prac,,0,,Mon Apr 28 2025 16:05:28 GMT-0500 (Central Daylight Time),,NA,bo,O,o,340,1,,,7133,WL,A,1.0
prac,,0,,Mon Apr 28 2025 16:05:28 GMT-0500 (Central Daylight Time),,NA,boo,O,o,143,1,,,7133,WL,A,1.0
prac,,0,,Mon Apr 28 2025 16:05:28 GMT-0500 (Central Daylight Time),,NA,boos,O,s,110,1,,,7133,WL,A,1.0
prac,,0,,Mon Apr 28 2025 16:05:28 GMT-0500 (Central Daylight Time),,NA,boost,O,t,113,1,,,7133,WL,A,1.0
prac,,0,,Mon Apr 28 2025 16:05:28 GMT-0500 (Central Daylight Time),,NA,boostenter,O,enter,406,1,,,7133,WL,A,1.0
1,1.1659998893737793,learn,58834.00011062622,Mon Apr 28 2025 16:05:28 GMT-0500 (Central Daylight Time),124877.80000001192,A,b,O,b,1147,1,1166.0999999940395,123711.70000001788,7133,WL,A,1.0
1,1.6159999370574951,learn,58384.000062942505,Mon Apr 28 2025 16:05:28 GMT-0500 (Central Daylight Time),125327.90000000596,A,bo,O,o,419,1,1616.199999988079,123711.70000001788,7133,WL,A,1.0
1,1.8489999771118164,learn,58151.00002288818,Mon Apr 28 2025 16:05:28 GMT-0500 (Central Daylight Time),125560.70000001788,A,boo,O,o,196,1,1849.0,123711.70000001788,7133,WL,A,1.0
1,2.0999999046325684,learn,57900.00009536743,Mon Apr 28 2025 16:05:28 GMT-0500 (Central Daylight Time),125811.10000002384,A,book,O,k,205,1,2099.4000000059605,123711.70000001788,7133,WL,A,1.0
1,2.298999786376953,learn,57701.00021362305,Mon Apr 28 2025 16:05:28 GMT-0500 (Central Daylight Time),126009.90000000596,A,bookenter,O,enter,167,1,2298.199999988079,123711.70000001788,7133,WL,A,1.0
1,2.6489999294281006,learn,57351.0000705719,Mon Apr 28 2025 16:05:28 GMT-0500 (Central Daylight Time),126360.40000000596,A,f,O,f,338,1,350.09999999403954,126010.30000001192,7133,WL,A,2.0
1,2.7829999923706055,learn,57217.000007629395,Mon Apr 28 2025 16:05:28 GMT-0500 (Central Daylight Time),126493.90000000596,A,fl,O,l,102,1,483.59999999403954,126010.30000001192,7133,WL,A,2.0
1,2.9649999141693115,learn,57035.00008583069,Mon Apr 28 2025 16:05:28 GMT-0500 (Central Daylight Time),126676.60000002384,A,flo,O,o,153,1,666.3000000119209,126010.30000001192,7133,WL,A,2.0
1,3.0819997787475586,learn,56918.00022125244,Mon Apr 28 2025 16:05:28 GMT-0500 (Central Daylight Time),126793.90000000596,A,flow,O,w,78,1,783.5999999940395,126010.30000001192,7133,WL,A,2.0
1,3.1499998569488525,learn,56850.00014305115,Mon Apr 28 2025 16:05:28 GMT-0500 (Central Daylight Time),126861.30000001192,A,flowe,O,e,6,1,851.0,126010.30000001192,7133,WL,A,2.0
1,3.197999954223633,learn,56802.00004577637,Mon Apr 28 2025 16:05:28 GMT-0500 (Central Daylight Time),126909.30000001192,A,flower,O,r,27,1,899.0,126010.30000001192,7133,WL,A,2.0
1,3.4649999141693115,learn,56535.00008583069,Mon Apr 28 2025 16:05:28 GMT-0500 (Central Daylight Time),127175.90000000596,A,flowerenter,O,enter,244,1,1165.5999999940395,126010.30000001192,7133,WL,A,2.0
1,3.748999834060669,learn,56251.00016593933,Mon Apr 28 2025 16:05:28 GMT-0500 (Central Daylight Time),127460.20000001788,A,t,O,t,261,1,283.90000000596046,127176.30000001192,7133,WL,A,3.0
1,3.8989999294281006,learn,56101.0000705719,Mon Apr 28 2025 16:05:28 GMT-0500 (Central Daylight Time),127610.30000001192,A,tr,O,r,120,1,434.0,127176.30000001192,7133,WL,A,3.0
1,3.998999834060669,learn,56001.00016593933,Mon Apr 28 2025 16:05:28 GMT-0500 (Central Daylight Time),127710.20000001788,A,tra,O,a,65,1,533.9000000059605,127176.30000001192,7133,WL,A,3.0
1,4.114999771118164,learn,55885.000228881836,Mon Apr 28 2025 16:05:28 GMT-0500 (Central Daylight Time),127826.30000001192,A,trai,O,i,80,1,650.0,127176.30000001192,7133,WL,A,3.0
1,4.2149999141693115,learn,55785.00008583069,Mon Apr 28 2025 16:05:28 GMT-0500 (Central Daylight Time),127926.70000001788,A,train,O,n,74,1,750.4000000059605,127176.30000001192,7133,WL,A,3.0
1,4.413999795913696,learn,55586.000204086304,Mon Apr 28 2025 16:05:28 GMT-0500 (Central Daylight Time),128125.80000001192,A,trainenter,O,enter,173,1,949.5,127176.30000001192,7133,WL,A,3.0
1,4.663999795913696,learn,55336.000204086304,Mon Apr 28 2025 16:05:28 GMT-0500 (Central Daylight Time),128375.70000001788,A,m,O,m,229,1,249.59999999403954,128126.10000002384,7133,WL,A,4.0
1,4.747999906539917,learn,55252.00009346008,Mon Apr 28 2025 16:05:28 GMT-0500 (Central Daylight Time),128458.90000000596,A,me,O,e,76,1,332.7999999821186,128126.10000002384,7133,WL,A,4.0
1,4.946999788284302,learn,55053.0002117157,Mon Apr 28 2025 16:05:28 GMT-0500 (Central Daylight Time),128658.70000001788,A,med,O,d,175,1,532.5999999940395,128126.10000002384,7133,WL,A,4.0
1,5.864999771118164,learn,54135.000228881836,Mon Apr 28 2025 16:05:28 GMT-0500 (Central Daylight Time),129576.40000000596,A,me,O,backspace,899,1,1450.2999999821186,128126.10000002384,7133,WL,A,4.0
1,5.932999849319458,learn,54067.00015068054,Mon Apr 28 2025 16:05:28 GMT-0500 (Central Daylight Time),129644.30000001192,A,mea,O,a,24,1,1518.199999988079,128126.10000002384,7133,WL,A,4.0
1,6.414999961853027,learn,53585.00003814697,Mon Apr 28 2025 16:05:28 GMT-0500 (Central Daylight Time),130126.30000001192,A,mead,O,d,453,1,2000.199999988079,128126.10000002384,7133,WL,A,4.0
1,6.547999858856201,learn,53452.0001411438,Mon Apr 28 2025 16:05:28 GMT-0500 (Central Daylight Time),130259.30000001192,A,meado,O,o,92,1,2133.199999988079,128126.10000002384,7133,WL,A,4.0
1,6.663999795913696,learn,53336.000204086304,Mon Apr 28 2025 16:05:28 GMT-0500 (Central Daylight Time),130375.90000000596,A,meadow,O,w,82,1,2249.7999999821186,128126.10000002384,7133,WL,A,4.0
1,6.996999979019165,learn,53003.000020980835,Mon Apr 28 2025 16:05:28 GMT-0500 (Central Daylight Time),130708.30000001192,A,meadowenter,O,enter,303,1,2582.199999988079,128126.10000002384,7133,WL,A,4.0
1,7.513999938964844,learn,52486.000061035156,Mon Apr 28 2025 16:05:28 GMT-0500 (Central Daylight Time),131225.60000002384,A,c,O,c,497,1,517.0,130708.60000002384,7133,WL,A,5.0
1,7.596999883651733,learn,52403.00011634827,Mon Apr 28 2025 16:05:28 GMT-0500 (Central Daylight Time),131308.0,A,ch,O,h,53,1,599.3999999761581,130708.60000002384,7133,WL,A,5.0
1,7.730999946594238,learn,52269.00005340576,Mon Apr 28 2025 16:05:28 GMT-0500 (Central Daylight Time),131442.0,A,chi,O,i,108,1,733.3999999761581,130708.60000002384,7133,WL,A,5.0
1,7.946999788284302,learn,52053.0002117157,Mon Apr 28 2025 16:05:28 GMT-0500 (Central Daylight Time),131658.70000001788,A,chim,O,m,173,1,950.0999999940395,130708.60000002384,7133,WL,A,5.0
1,8.163999795913696,learn,51836.000204086304,Mon Apr 28 2025 16:05:28 GMT-0500 (Central Daylight Time),131875.5,A,chimn,O,n,186,1,1166.8999999761581,130708.60000002384,7133,WL,A,5.0
1,8.262999773025513,learn,51737.00022697449,Mon Apr 28 2025 16:05:28 GMT-0500 (Central Daylight Time),131974.90000000596,A,chimne,O,e,60,1,1266.2999999821186,130708.60000002384,7133,WL,A,5.0
1,8.479999780654907,learn,51520.00021934509,Mon Apr 28 2025 16:05:28 GMT-0500 (Central Daylight Time),132191.60000002384,A,chimney,O,y,183,1,1483.0,130708.60000002384,7133,WL,A,5.0
1,8.879999876022339,learn,51120.00012397766,Mon Apr 28 2025 16:05:28 GMT-0500 (Central Daylight Time),132591.0,A,chimneyenter,O,enter,377,1,1882.3999999761581,130708.60000002384,7133,WL,A,5.0
1,11.829999923706055,learn,48170.000076293945,Mon Apr 28 2025 16:05:28 GMT-0500 (Central Daylight Time),135541.20000001788,A,r,O,r,2942,1,2949.9000000059605,132591.30000001192,7133,WL,A,6.0
1,12.012999773025513,learn,47987.00022697449,Mon Apr 28 2025 16:05:28 GMT-0500 (Central Daylight Time),135724.70000001788,A,ru,O,u,153,1,3133.4000000059605,132591.30000001192,7133,WL,A,6.0
1,12.145999908447266,learn,47854.000091552734,Mon Apr 28 2025 16:05:28 GMT-0500 (Central Daylight Time),135857.40000000596,A,rug,O,g,99,1,3266.0999999940395,132591.30000001192,7133,WL,A,6.0
1,12.494999885559082,learn,47505.00011444092,Mon Apr 28 2025 16:05:28 GMT-0500 (Central Daylight Time),136206.30000001192,A,rugenter,O,enter,320,1,3615.0,132591.30000001192,7133,WL,A,6.0
1,17.26099991798401,learn,42739.00008201599,Mon Apr 28 2025 16:05:28 GMT-0500 (Central Daylight Time),140972.90000000596,A,b,O,b,4758,1,4766.199999988079,136206.70000001788,7133,WL,A,7.0
1,17.710999965667725,learn,42289.000034332275,Mon Apr 28 2025 16:05:28 GMT-0500 (Central Daylight Time),141422.20000001788,A,,O,backspace,420,1,5215.5,136206.70000001788,7133,WL,A,7.0
1,22.242999792099,learn,37757.000207901,Mon Apr 28 2025 16:05:28 GMT-0500 (Central Daylight Time),145954.30000001192,A,f,O,f,4500,1,9747.59999999404,136206.70000001788,7133,WL,A,7.0
1,22.358999967575073,learn,37641.00003242493,Mon Apr 28 2025 16:05:28 GMT-0500 (Central Daylight Time),146070.40000000596,A,fl,O,l,86,1,9863.699999988079,136206.70000001788,7133,WL,A,7.0
1,22.55899977684021,learn,37441.00022315979,Mon Apr 28 2025 16:05:28 GMT-0500 (Central Daylight Time),146270.90000000596,A,flo,O,o,183,1,10064.199999988079,136206.70000001788,7133,WL,A,7.0
1,22.608999967575073,learn,37391.00003242493,Mon Apr 28 2025 16:05:28 GMT-0500 (Central Daylight Time),146320.30000001192,A,flow,O,w,21,1,10113.59999999404,136206.70000001788,7133,WL,A,7.0
1,22.657999992370605,learn,37342.000007629395,Mon Apr 28 2025 16:05:28 GMT-0500 (Central Daylight Time),146369.80000001192,A,flowe,O,e,25,1,10163.09999999404,136206.70000001788,7133,WL,A,7.0
1,22.741999864578247,learn,37258.00013542175,Mon Apr 28 2025 16:05:28 GMT-0500 (Central Daylight Time),146453.5,A,flower,O,r,67,1,10246.799999982119,136206.70000001788,7133,WL,A,7.0
1,23.074999809265137,learn,36925.00019073486,Mon Apr 28 2025 16:05:28 GMT-0500 (Central Daylight Time),146786.30000001192,A,flowerenter,O,enter,313,1,10579.59999999404,136206.70000001788,7133,WL,A,7.0
1,28.423999786376953,learn,31576.000213623047,Mon Apr 28 2025 16:05:28 GMT-0500 (Central Daylight Time),152135.60000002384,A,f,O,f,5330,1,5349.0,146786.60000002384,7133,WL,A,8.0
1,28.52300000190735,learn,31476.99999809265,Mon Apr 28 2025 16:05:28 GMT-0500 (Central Daylight Time),152234.80000001192,A,fa,O,a,59,1,5448.199999988079,146786.60000002384,7133,WL,A,8.0
1,28.70799994468689,learn,31292.00005531311,Mon Apr 28 2025 16:05:28 GMT-0500 (Central Daylight Time),152419.10000002384,A,fal,O,l,157,1,5632.5,146786.60000002384,7133,WL,A,8.0
1,28.87399983406067,learn,31126.00016593933,Mon Apr 28 2025 16:05:28 GMT-0500 (Central Daylight Time),152585.30000001192,A,fall,O,l,138,1,5798.699999988079,146786.60000002384,7133,WL,A,8.0
1,29.055999994277954,learn,30944.000005722046,Mon Apr 28 2025 16:05:28 GMT-0500 (Central Daylight Time),152767.70000001788,A,fallenter,O,enter,152,1,5981.0999999940395,146786.60000002384,7133,WL,A,8.0
1,33.22199988365173,learn,26778.000116348267,Mon Apr 28 2025 16:05:28 GMT-0500 (Central Daylight Time),156933.5,A,b,O,b,4158,1,4165.5,152768.0,7133,WL,A,9.0
1,33.32099986076355,learn,26679.00013923645,Mon Apr 28 2025 16:05:28 GMT-0500 (Central Daylight Time),157032.80000001192,A,br,O,r,56,1,4264.800000011921,152768.0,7133,WL,A,9.0
1,33.42199993133545,learn,26578.00006866455,Mon Apr 28 2025 16:05:28 GMT-0500 (Central Daylight Time),157133.5,A,bra,O,a,91,1,4365.5,152768.0,7133,WL,A,9.0
1,33.538999795913696,learn,26461.000204086304,Mon Apr 28 2025 16:05:28 GMT-0500 (Central Daylight Time),157250.30000001192,A,brai,O,i,85,1,4482.300000011921,152768.0,7133,WL,A,9.0
1,33.67199993133545,learn,26328.00006866455,Mon Apr 28 2025 16:05:28 GMT-0500 (Central Daylight Time),157383.30000001192,A,brain,O,n,98,1,4615.300000011921,152768.0,7133,WL,A,9.0
1,34.187999963760376,learn,25812.000036239624,Mon Apr 28 2025 16:05:28 GMT-0500 (Central Daylight Time),157899.40000000596,A,brainenter,O,enter,494,1,5131.4000000059605,152768.0,7133,WL,A,9.0
1,36.05399990081787,learn,23946.00009918213,Mon Apr 28 2025 16:05:28 GMT-0500 (Central Daylight Time),159765.40000000596,A,enter,O,enter,1858,1,1865.7999999821186,157899.60000002384,7133,WL,A,10.0
1,36.23699998855591,learn,23763.00001144409,Mon Apr 28 2025 16:05:28 GMT-0500 (Central Daylight Time),159948.70000001788,A,enter,O,enter,176,1,183.0,159765.70000001788,7133,WL,A,11.0
1,36.42099976539612,learn,23579.000234603882,Mon Apr 28 2025 16:05:28 GMT-0500 (Central Daylight Time),160131.90000000596,A,enter,O,enter,176,1,182.7999999821186,159949.10000002384,7133,WL,A,12.0
1,36.603999853134155,learn,23396.000146865845,Mon Apr 28 2025 16:05:28 GMT-0500 (Central Daylight Time),160315.0,A,enter,O,enter,176,1,182.7999999821186,160132.20000001788,7133,WL,A,13.0
1,36.78699994087219,learn,23213.000059127808,Mon Apr 28 2025 16:05:28 GMT-0500 (Central Daylight Time),160498.5,A,enter,O,enter,161,1,183.19999998807907,160315.30000001192,7133,WL,A,14.0
1,36.936999797821045,learn,23063.000202178955,Mon Apr 28 2025 16:05:28 GMT-0500 (Central Daylight Time),160648.5,A,enter,O,enter,130,1,149.69999998807907,160498.80000001192,7133,WL,A,15.0
2,1.6160001754760742,learn,58383.999824523926,Mon Apr 28 2025 16:05:28 GMT-0500 (Central Daylight Time),230593.40000000596,A,b,O,b,1580,1,1615.5999999940395,228977.80000001192,7133,WL,A,1.0
2,1.8489999771118164,learn,58151.00002288818,Mon Apr 28 2025 16:05:28 GMT-0500 (Central Daylight Time),230826.40000000596,A,bo,O,o,200,1,1848.5999999940395,228977.80000001192,7133,WL,A,1.0
2,2.0329999923706055,learn,57967.000007629395,Mon Apr 28 2025 16:05:28 GMT-0500 (Central Daylight Time),231009.80000001192,A,boo,O,o,144,1,2032.0,228977.80000001192,7133,WL,A,1.0
2,2.199000120162964,learn,57800.999879837036,Mon Apr 28 2025 16:05:28 GMT-0500 (Central Daylight Time),231176.60000002384,A,book,O,k,129,1,2198.800000011921,228977.80000001192,7133,WL,A,1.0
2,2.4160001277923584,learn,57583.99987220764,Mon Apr 28 2025 16:05:28 GMT-0500 (Central Daylight Time),231393.10000002384,A,bookf,O,f,178,1,2415.300000011921,228977.80000001192,7133,WL,A,1.0
2,2.5320000648498535,learn,57467.99993515015,Mon Apr 28 2025 16:05:28 GMT-0500 (Central Daylight Time),231509.10000002384,A,bookfl,O,l,88,1,2531.300000011921,228977.80000001192,7133,WL,A,1.0
2,2.700000047683716,learn,57299.999952316284,Mon Apr 28 2025 16:05:28 GMT-0500 (Central Daylight Time),231676.70000001788,A,bookflo,O,o,150,1,2698.9000000059605,228977.80000001192,7133,WL,A,1.0
2,2.748000144958496,learn,57251.999855041504,Mon Apr 28 2025 16:05:28 GMT-0500 (Central Daylight Time),231725.40000000596,A,bookflow,O,w,14,1,2747.5999999940395,228977.80000001192,7133,WL,A,1.0
2,2.815000057220459,learn,57184.99994277954,Mon Apr 28 2025 16:05:28 GMT-0500 (Central Daylight Time),231791.60000002384,A,bookflowe,O,e,42,1,2813.800000011921,228977.80000001192,7133,WL,A,1.0
2,2.88100004196167,learn,57118.99995803833,Mon Apr 28 2025 16:05:28 GMT-0500 (Central Daylight Time),231858.30000001192,A,bookflower,O,r,51,1,2880.5,228977.80000001192,7133,WL,A,1.0
2,3.2310001850128174,learn,56768.99981498718,Mon Apr 28 2025 16:05:28 GMT-0500 (Central Daylight Time),232208.40000000596,A,bookflowe,O,backspace,327,1,3230.5999999940395,228977.80000001192,7133,WL,A,1.0
2,3.4150002002716064,learn,56584.99979972839,Mon Apr 28 2025 16:05:28 GMT-0500 (Central Daylight Time),232392.40000000596,A,bookflow,O,backspace,173,1,3414.5999999940395,228977.80000001192,7133,WL,A,1.0
2,3.5980000495910645,learn,56401.999950408936,Mon Apr 28 2025 16:05:28 GMT-0500 (Central Daylight Time),232574.80000001192,A,bookflo,O,backspace,152,1,3597.0,228977.80000001192,7133,WL,A,1.0
2,3.7810001373291016,learn,56218.9998626709,Mon Apr 28 2025 16:05:28 GMT-0500 (Central Daylight Time),232758.20000001788,A,bookfl,O,backspace,174,1,3780.4000000059605,228977.80000001192,7133,WL,A,1.0
2,3.9660000801086426,learn,56033.99991989136,Mon Apr 28 2025 16:05:28 GMT-0500 (Central Daylight Time),232942.5,A,bookf,O,backspace,163,1,3964.699999988079,228977.80000001192,7133,WL,A,1.0
2,4.132000207901001,learn,55867.999792099,Mon Apr 28 2025 16:05:28 GMT-0500 (Central Daylight Time),233108.70000001788,A,book,O,backspace,144,1,4130.9000000059605,228977.80000001192,7133,WL,A,1.0
2,4.71399998664856,learn,55286.00001335144,Mon Apr 28 2025 16:05:28 GMT-0500 (Central Daylight Time),233691.10000002384,A,bookenter,O,enter,539,1,4713.300000011921,228977.80000001192,7133,WL,A,1.0
2,5.265000104904175,learn,54734.999895095825,Mon Apr 28 2025 16:05:28 GMT-0500 (Central Daylight Time),234242.10000002384,A,f,O,f,539,1,550.7000000178814,233691.40000000596,7133,WL,A,2.0
2,5.382000207901001,learn,54617.999792099,Mon Apr 28 2025 16:05:28 GMT-0500 (Central Daylight Time),234358.70000001788,A,fl,O,l,80,1,667.3000000119209,233691.40000000596,7133,WL,A,2.0
2,5.565000057220459,learn,54434.99994277954,Mon Apr 28 2025 16:05:28 GMT-0500 (Central Daylight Time),234542.0,A,flo,O,o,148,1,850.5999999940395,233691.40000000596,7133,WL,A,2.0
2,5.648000001907349,learn,54351.99999809265,Mon Apr 28 2025 16:05:28 GMT-0500 (Central Daylight Time),234624.40000000596,A,floe,O,e,52,1,933.0,233691.40000000596,7133,WL,A,2.0
2,5.731000185012817,learn,54268.99981498718,Mon Apr 28 2025 16:05:28 GMT-0500 (Central Daylight Time),234708.0,A,floer,O,r,59,1,1016.5999999940395,233691.40000000596,7133,WL,A,2.0
2,6.332000017166138,learn,53667.99998283386,Mon Apr 28 2025 16:05:28 GMT-0500 (Central Daylight Time),235308.40000000596,A,floe,O,backspace,575,1,1617.0,233691.40000000596,7133,WL,A,2.0
2,6.515000104904175,learn,53484.999895095825,Mon Apr 28 2025 16:05:28 GMT-0500 (Central Daylight Time),235491.70000001788,A,flo,O,backspace,151,1,1800.300000011921,233691.40000000596,7133,WL,A,2.0
2,6.932000160217285,learn,53067.999839782715,Mon Apr 28 2025 16:05:28 GMT-0500 (Central Daylight Time),235908.40000000596,A,fl,O,backspace,394,1,2217.0,233691.40000000596,7133,WL,A,2.0
2,7.498000144958496,learn,52501.999855041504,Mon Apr 28 2025 16:05:28 GMT-0500 (Central Daylight Time),236474.40000000596,A,flo,O,o,537,1,2783.0,233691.40000000596,7133,WL,A,2.0
2,7.698000192642212,learn,52301.99980735779,Mon Apr 28 2025 16:05:28 GMT-0500 (Central Daylight Time),236674.5,A,flow,O,w,161,1,2983.0999999940395,233691.40000000596,7133,WL,A,2.0
2,7.726000070571899,learn,52273.9999294281,Mon Apr 28 2025 16:05:28 GMT-0500 (Central Daylight Time),236703.30000001192,A,flowe,O,e,2,1,3011.9000000059605,233691.40000000596,7133,WL,A,2.0
2,7.7799999713897705,learn,52220.00002861023,Mon Apr 28 2025 16:05:28 GMT-0500 (Central Daylight Time),236756.60000002384,A,flower,O,r,28,1,3065.2000000178814,233691.40000000596,7133,WL,A,2.0
2,8.27999997138977,learn,51720.00002861023,Mon Apr 28 2025 16:05:28 GMT-0500 (Central Daylight Time),237256.70000001788,A,flowerenter,O,enter,488,1,3565.300000011921,233691.40000000596,7133,WL,A,2.0
2,8.748000144958496,learn,51251.999855041504,Mon Apr 28 2025 16:05:28 GMT-0500 (Central Daylight Time),237724.90000000596,A,t,O,t,460,1,467.90000000596046,237257.0,7133,WL,A,3.0
2,8.930999994277954,learn,51069.000005722046,Mon Apr 28 2025 16:05:28 GMT-0500 (Central Daylight Time),237907.60000002384,A,tr,O,r,148,1,650.6000000238419,237257.0,7133,WL,A,3.0
2,8.996999979019165,learn,51003.000020980835,Mon Apr 28 2025 16:05:28 GMT-0500 (Central Daylight Time),237973.5,A,tra,O,a,38,1,716.5,237257.0,7133,WL,A,3.0
2,9.080000162124634,learn,50919.999837875366,Mon Apr 28 2025 16:05:28 GMT-0500 (Central Daylight Time),238056.80000001192,A,trai,O,i,64,1,799.8000000119209,237257.0,7133,WL,A,3.0
2,9.180000066757202,learn,50819.9999332428,Mon Apr 28 2025 16:05:28 GMT-0500 (Central Daylight Time),238156.90000000596,A,train,O,n,85,1,899.9000000059605,237257.0,7133,WL,A,3.0
2,9.446000099182129,learn,50553.99990081787,Mon Apr 28 2025 16:05:28 GMT-0500 (Central Daylight Time),238423.0,A,trainenter,O,enter,231,1,1166.0,237257.0,7133,WL,A,3.0
2,9.797000169754028,learn,50202.99983024597,Mon Apr 28 2025 16:05:28 GMT-0500 (Central Daylight Time),238773.40000000596,A,m,O,m,343,1,350.09999999403954,238423.30000001192,7133,WL,A,4.0
2,9.896000146865845,learn,50103.999853134155,Mon Apr 28 2025 16:05:28 GMT-0500 (Central Daylight Time),238873.20000001788,A,me,O,e,68,1,449.90000000596046,238423.30000001192,7133,WL,A,4.0
2,10.047000169754028,learn,49952.99983024597,Mon Apr 28 2025 16:05:28 GMT-0500 (Central Daylight Time),239023.90000000596,A,mea,O,a,122,1,600.5999999940395,238423.30000001192,7133,WL,A,4.0
2,10.263000011444092,learn,49736.99998855591,Mon Apr 28 2025 16:05:28 GMT-0500 (Central Daylight Time),239239.60000002384,A,mead,O,d,187,1,816.3000000119209,238423.30000001192,7133,WL,A,4.0
2,10.496999979019165,learn,49503.000020980835,Mon Apr 28 2025 16:05:28 GMT-0500 (Central Daylight Time),239473.40000000596,A,meado,O,o,204,1,1050.0999999940395,238423.30000001192,7133,WL,A,4.0
2,10.69700002670288,learn,49302.99997329712,Mon Apr 28 2025 16:05:28 GMT-0500 (Central Daylight Time),239673.40000000596,A,meadow,O,w,166,1,1250.0999999940395,238423.30000001192,7133,WL,A,4.0
2,11.861999988555908,learn,48138.00001144409,Mon Apr 28 2025 16:05:28 GMT-0500 (Central Daylight Time),240838.80000001192,A,meadowenter,O,enter,1142,1,2415.5,238423.30000001192,7133,WL,A,4.0
2,12.163000106811523,learn,47836.99989318848,Mon Apr 28 2025 16:05:28 GMT-0500 (Central Daylight Time),241139.40000000596,A,s,O,s,286,1,300.19999998807907,240839.20000001788,7133,WL,A,5.0
2,12.313000202178955,learn,47686.999797821045,Mon Apr 28 2025 16:05:28 GMT-0500 (Central Daylight Time),241289.70000001788,A,sa,O,a,119,1,450.5,240839.20000001788,7133,WL,A,5.0
2,12.480000019073486,learn,47519.999980926514,Mon Apr 28 2025 16:05:28 GMT-0500 (Central Daylight Time),241456.40000000596,A,sal,O,l,136,1,617.1999999880791,240839.20000001788,7133,WL,A,5.0
2,12.796000003814697,learn,47203.9999961853,Mon Apr 28 2025 16:05:28 GMT-0500 (Central Daylight Time),241773.30000001192,A,salt,O,t,291,1,934.0999999940395,240839.20000001788,7133,WL,A,5.0
2,13.212000131607056,learn,46787.999868392944,Mon Apr 28 2025 16:05:28 GMT-0500 (Central Daylight Time),242188.40000000596,A,saltenter,O,enter,380,1,1349.199999988079,240839.20000001788,7133,WL,A,5.0
2,13.513000011444092,learn,46486.99998855591,Mon Apr 28 2025 16:05:28 GMT-0500 (Central Daylight Time),242489.30000001192,A,c,O,c,290,1,300.59999999403954,242188.70000001788,7133,WL,A,6.0
2,13.629000186920166,learn,46370.999813079834,Mon Apr 28 2025 16:05:28 GMT-0500 (Central Daylight Time),242605.40000000596,A,ch,O,h,81,1,416.69999998807907,242188.70000001788,7133,WL,A,6.0
2,13.779000043869019,learn,46220.99995613098,Mon Apr 28 2025 16:05:28 GMT-0500 (Central Daylight Time),242755.80000001192,A,chi,O,i,118,1,567.0999999940395,242188.70000001788,7133,WL,A,6.0
2,13.996000051498413,learn,46003.99994850159,Mon Apr 28 2025 16:05:28 GMT-0500 (Central Daylight Time),242972.40000000596,A,chim,O,m,187,1,783.6999999880791,242188.70000001788,7133,WL,A,6.0
2,14.245000123977661,learn,45754.99987602234,Mon Apr 28 2025 16:05:28 GMT-0500 (Central Daylight Time),243222.10000002384,A,chime,O,e,222,1,1033.4000000059605,242188.70000001788,7133,WL,A,6.0
2,14.379000186920166,learn,45620.999813079834,Mon Apr 28 2025 16:05:28 GMT-0500 (Central Daylight Time),243355.70000001788,A,chimen,O,n,92,1,1167.0,242188.70000001788,7133,WL,A,6.0
2,14.594000101089478,learn,45405.99989891052,Mon Apr 28 2025 16:05:28 GMT-0500 (Central Daylight Time),243571.10000002384,A,chimeny,O,y,188,1,1382.4000000059605,242188.70000001788,7133,WL,A,6.0
2,15.011000156402588,learn,44988.99984359741,Mon Apr 28 2025 16:05:28 GMT-0500 (Central Daylight Time),243987.80000001192,A,chimenyenter,O,enter,408,1,1799.0999999940395,242188.70000001788,7133,WL,A,6.0
2,15.228000164031982,learn,44771.99983596802,Mon Apr 28 2025 16:05:28 GMT-0500 (Central Daylight Time),244204.80000001192,A,a,O,a,209,1,216.80000001192093,243988.0,7133,WL,A,7.0
2,15.394999980926514,learn,44605.000019073486,Mon Apr 28 2025 16:05:28 GMT-0500 (Central Daylight Time),244372.10000002384,A,ap,O,p,145,1,384.10000002384186,243988.0,7133,WL,A,7.0
2,15.545000076293945,learn,44454.999923706055,Mon Apr 28 2025 16:05:28 GMT-0500 (Central Daylight Time),244522.0,A,app,O,p,122,1,534.0,243988.0,7133,WL,A,7.0
2,15.712000131607056,learn,44287.999868392944,Mon Apr 28 2025 16:05:28 GMT-0500 (Central Daylight Time),244688.40000000596,A,appl,O,l,140,1,700.4000000059605,243988.0,7133,WL,A,7.0
2,15.794000148773193,learn,44205.99985122681,Mon Apr 28 2025 16:05:28 GMT-0500 (Central Daylight Time),244771.20000001788,A,apple,O,e,63,1,783.2000000178814,243988.0,7133,WL,A,7.0
2,16.061000108718872,learn,43938.99989128113,Mon Apr 28 2025 16:05:28 GMT-0500 (Central Daylight Time),245037.5,A,appleenter,O,enter,253,1,1049.5,243988.0,7133,WL,A,7.0
2,19.343000173568726,learn,40656.999826431274,Mon Apr 28 2025 16:05:28 GMT-0500 (Central Daylight Time),248319.80000001192,A,g,O,g,3264,1,3282.0999999940395,245037.70000001788,7133,WL,A,8.0
2,19.460000038146973,learn,40539.99996185303,Mon Apr 28 2025 16:05:28 GMT-0500 (Central Daylight Time),248436.40000000596,A,go,O,o,99,1,3398.699999988079,245037.70000001788,7133,WL,A,8.0
2,19.62600016593933,learn,40373.99983406067,Mon Apr 28 2025 16:05:28 GMT-0500 (Central Daylight Time),248602.80000001192,A,gol,O,l,159,1,3565.0999999940395,245037.70000001788,7133,WL,A,8.0
2,19.7260000705719,learn,40273.9999294281,Mon Apr 28 2025 16:05:28 GMT-0500 (Central Daylight Time),248702.80000001192,A,gold,O,d,79,1,3665.0999999940395,245037.70000001788,7133,WL,A,8.0
2,19.9760000705719,learn,40023.9999294281,Mon Apr 28 2025 16:05:28 GMT-0500 (Central Daylight Time),248952.90000000596,A,goldenter,O,enter,229,1,3915.199999988079,245037.70000001788,7133,WL,A,8.0
2,21.31000018119812,learn,38689.99981880188,Mon Apr 28 2025 16:05:28 GMT-0500 (Central Daylight Time),250286.70000001788,A,r,O,r,1316,1,1333.5,248953.20000001788,7133,WL,A,9.0
2,21.427000045776367,learn,38572.99995422363,Mon Apr 28 2025 16:05:28 GMT-0500 (Central Daylight Time),250403.60000002384,A,ra,O,a,74,1,1450.4000000059605,248953.20000001788,7133,WL,A,9.0
2,21.66100001335144,learn,38338.99998664856,Mon Apr 28 2025 16:05:28 GMT-0500 (Central Daylight Time),250637.30000001192,A,rat,O,t,211,1,1684.0999999940395,248953.20000001788,7133,WL,A,9.0
2,21.81000018119812,learn,38189.99981880188,Mon Apr 28 2025 16:05:28 GMT-0500 (Central Daylight Time),250786.60000002384,A,ratt,O,t,111,1,1833.4000000059605,248953.20000001788,7133,WL,A,9.0
2,21.926000118255615,learn,38073.999881744385,Mon Apr 28 2025 16:05:28 GMT-0500 (Central Daylight Time),250902.70000001788,A,rattl,O,l,80,1,1949.5,248953.20000001788,7133,WL,A,9.0
2,22.027000188827515,learn,37972.999811172485,Mon Apr 28 2025 16:05:28 GMT-0500 (Central Daylight Time),251003.40000000596,A,rattle,O,e,79,1,2050.199999988079,248953.20000001788,7133,WL,A,9.0
2,22.325000047683716,learn,37674.999952316284,Mon Apr 28 2025 16:05:28 GMT-0500 (Central Daylight Time),251302.10000002384,A,rattleenter,O,enter,273,1,2348.9000000059605,248953.20000001788,7133,WL,A,9.0
2,29.007000207901,learn,30992.999792099,Mon Apr 28 2025 16:05:28 GMT-0500 (Central Daylight Time),257984.30000001192,A,m,O,m,6672,1,6681.9000000059605,251302.40000000596,7133,WL,A,10.0
2,29.10700011253357,learn,30892.99988746643,Mon Apr 28 2025 16:05:28 GMT-0500 (Central Daylight Time),258083.5,A,ma,O,a,58,1,6781.0999999940395,251302.40000000596,7133,WL,A,10.0
2,29.990000009536743,learn,30009.999990463257,Mon Apr 28 2025 16:05:28 GMT-0500 (Central Daylight Time),258967.20000001788,A,m,O,backspace,866,1,7664.800000011921,251302.40000000596,7133,WL,A,10.0
2,30.073000192642212,learn,29926.999807357788,Mon Apr 28 2025 16:05:28 GMT-0500 (Central Daylight Time),259049.60000002384,A,me,O,e,43,1,7747.200000017881,251302.40000000596,7133,WL,A,10.0
2,30.123000144958496,learn,29876.999855041504,Mon Apr 28 2025 16:05:28 GMT-0500 (Central Daylight Time),259099.5,A,mea,O,a,36,1,7797.0999999940395,251302.40000000596,7133,WL,A,10.0
2,30.35700011253357,learn,29642.99988746643,Mon Apr 28 2025 16:05:28 GMT-0500 (Central Daylight Time),259333.80000001192,A,mead,O,d,218,1,8031.4000000059605,251302.40000000596,7133,WL,A,10.0
2,30.491000175476074,learn,29508.999824523926,Mon Apr 28 2025 16:05:28 GMT-0500 (Central Daylight Time),259467.40000000596,A,meado,O,o,100,1,8165.0,251302.40000000596,7133,WL,A,10.0
2,30.723000049591064,learn,29276.999950408936,Mon Apr 28 2025 16:05:28 GMT-0500 (Central Daylight Time),259699.70000001788,A,meadow,O,w,191,1,8397.300000011921,251302.40000000596,7133,WL,A,10.0
2,30.9060001373291,learn,29093.9998626709,Mon Apr 28 2025 16:05:28 GMT-0500 (Central Daylight Time),259882.60000002384,A,meadowenter,O,enter,161,1,8580.200000017881,251302.40000000596,7133,WL,A,10.0
2,44.01900005340576,learn,15980.999946594238,Mon Apr 28 2025 16:05:28 GMT-0500 (Central Daylight Time),272995.90000000596,A,enter,O,enter,13091,1,13113.09999999404,259882.80000001192,7133,WL,A,11.0
2,44.236000061035156,learn,15763.999938964844,Mon Apr 28 2025 16:05:28 GMT-0500 (Central Daylight Time),273212.60000002384,A,enter,O,enter,208,1,216.40000000596046,272996.2000000179,7133,WL,A,12.0
2,44.568000078201294,learn,15431.999921798706,Mon Apr 28 2025 16:05:28 GMT-0500 (Central Daylight Time),273544.8000000119,A,enter,O,enter,320,1,331.90000000596046,273212.90000000596,7133,WL,A,13.0
2,44.76800012588501,learn,15231.99987411499,Mon Apr 28 2025 16:05:28 GMT-0500 (Central Daylight Time),273744.8000000119,A,enter,O,enter,180,1,199.69999998807907,273545.10000002384,7133,WL,A,14.0
2,44.91900014877319,learn,15080.999851226807,Mon Apr 28 2025 16:05:28 GMT-0500 (Central Daylight Time),273895.8000000119,A,enter,O,enter,140,1,150.59999999403954,273745.2000000179,7133,WL,A,15.0
3,0.6670000553131104,learn,59332.99994468689,Mon Apr 28 2025 16:05:28 GMT-0500 (Central Daylight Time),345289.10000002384,A,b,O,b,630,1,666.4000000059605,344622.7000000179,7133,WL,A,1.0
3,0.9500000476837158,learn,59049.999952316284,Mon Apr 28 2025 16:05:28 GMT-0500 (Central Daylight Time),345572.3000000119,A,bo,O,o,243,1,949.5999999940395,344622.7000000179,7133,WL,A,1.0
3,1.0829999446868896,learn,58917.00005531311,Mon Apr 28 2025 16:05:28 GMT-0500 (Central Daylight Time),345705.5,A,boo,O,o,94,1,1082.7999999821186,344622.7000000179,7133,WL,A,1.0
3,1.2660000324249268,learn,58733.99996757507,Mon Apr 28 2025 16:05:28 GMT-0500 (Central Daylight Time),345888.8000000119,A,book,O,k,154,1,1266.0999999940395,344622.7000000179,7133,WL,A,1.0
3,1.4649999141693115,learn,58535.00008583069,Mon Apr 28 2025 16:05:28 GMT-0500 (Central Daylight Time),346087.7000000179,A,bookenter,O,enter,163,1,1465.0,344622.7000000179,7133,WL,A,1.0
3,1.7000000476837158,learn,58299.999952316284,Mon Apr 28 2025 16:05:28 GMT-0500 (Central Daylight Time),346322.0,A,f,O,f,222,1,234.0,346088.0,7133,WL,A,2.0
3,1.7990000247955322,learn,58200.99997520447,Mon Apr 28 2025 16:05:28 GMT-0500 (Central Daylight Time),346421.5,A,fl,O,l,63,1,333.5,346088.0,7133,WL,A,2.0
3,1.9659998416900635,learn,58034.00015830994,Mon Apr 28 2025 16:05:28 GMT-0500 (Central Daylight Time),346588.3000000119,A,flo,O,o,125,1,500.30000001192093,346088.0,7133,WL,A,2.0
3,2.0490000247955322,learn,57950.99997520447,Mon Apr 28 2025 16:05:28 GMT-0500 (Central Daylight Time),346671.2000000179,A,flow,O,w,54,1,583.2000000178814,346088.0,7133,WL,A,2.0
3,2.0869998931884766,learn,57913.00010681152,Mon Apr 28 2025 16:05:28 GMT-0500 (Central Daylight Time),346709.8000000119,A,flowe,O,e,6,1,621.8000000119209,346088.0,7133,WL,A,2.0
3,2.1480000019073486,learn,57851.99999809265,Mon Apr 28 2025 16:05:28 GMT-0500 (Central Daylight Time),346770.7000000179,A,flower,O,r,31,1,682.7000000178814,346088.0,7133,WL,A,2.0
3,2.6649999618530273,learn,57335.00003814697,Mon Apr 28 2025 16:05:28 GMT-0500 (Central Daylight Time),347287.3000000119,A,flowerenter,O,enter,505,1,1199.300000011921,346088.0,7133,WL,A,2.0
3,2.9670000076293945,learn,57032.999992370605,Mon Apr 28 2025 16:05:28 GMT-0500 (Central Daylight Time),347589.10000002384,A,r,O,r,294,1,301.5,347287.60000002384,7133,WL,A,3.0
3,3.0989999771118164,learn,56901.00002288818,Mon Apr 28 2025 16:05:28 GMT-0500 (Central Daylight Time),347721.3000000119,A,ru,O,u,101,1,433.69999998807907,347287.60000002384,7133,WL,A,3.0
3,3.2319998741149902,learn,56768.00012588501,Mon Apr 28 2025 16:05:28 GMT-0500 (Central Daylight Time),347854.3000000119,A,rug,O,g,98,1,566.6999999880791,347287.60000002384,7133,WL,A,3.0
3,3.5309998989105225,learn,56469.00010108948,Mon Apr 28 2025 16:05:28 GMT-0500 (Central Daylight Time),348153.7000000179,A,rugenter,O,enter,267,1,866.0999999940395,347287.60000002384,7133,WL,A,3.0
3,3.8489999771118164,learn,56151.00002288818,Mon Apr 28 2025 16:05:28 GMT-0500 (Central Daylight Time),348471.2000000179,A,m,O,m,308,1,317.2000000178814,348154.0,7133,WL,A,4.0
3,3.8980000019073486,learn,56101.99999809265,Mon Apr 28 2025 16:05:28 GMT-0500 (Central Daylight Time),348520.40000000596,A,me,O,e,22,1,366.40000000596046,348154.0,7133,WL,A,4.0
3,3.9819998741149902,learn,56018.00012588501,Mon Apr 28 2025 16:05:28 GMT-0500 (Central Daylight Time),348604.3000000119,A,mea,O,a,60,1,450.30000001192093,348154.0,7133,WL,A,4.0
3,4.23199987411499,learn,55768.00012588501,Mon Apr 28 2025 16:05:28 GMT-0500 (Central Daylight Time),348854.3000000119,A,mead,O,d,223,1,700.3000000119209,348154.0,7133,WL,A,4.0
3,4.497999906539917,learn,55502.00009346008,Mon Apr 28 2025 16:05:28 GMT-0500 (Central Daylight Time),349120.8000000119,A,meado,O,o,228,1,966.8000000119209,348154.0,7133,WL,A,4.0
3,4.631999969482422,learn,55368.00003051758,Mon Apr 28 2025 16:05:28 GMT-0500 (Central Daylight Time),349254.40000000596,A,meadow,O,w,97,1,1100.4000000059605,348154.0,7133,WL,A,4.0
3,5.046999931335449,learn,54953.00006866455,Mon Apr 28 2025 16:05:28 GMT-0500 (Central Daylight Time),349669.8000000119,A,meadowenter,O,enter,393,1,1515.800000011921,348154.0,7133,WL,A,4.0
3,5.514999866485596,learn,54485.000133514404,Mon Apr 28 2025 16:05:28 GMT-0500 (Central Daylight Time),350137.40000000596,A,t,O,t,448,1,467.2999999821186,349670.10000002384,7133,WL,A,5.0
3,5.797999858856201,learn,54202.0001411438,Mon Apr 28 2025 16:05:28 GMT-0500 (Central Daylight Time),350420.7000000179,A,tr,O,r,248,1,750.5999999940395,349670.10000002384,7133,WL,A,5.0
3,5.898000001907349,learn,54101.99999809265,Mon Apr 28 2025 16:05:28 GMT-0500 (Central Daylight Time),350520.7000000179,A,tra,O,a,63,1,850.5999999940395,349670.10000002384,7133,WL,A,5.0
3,6.013999938964844,learn,53986.000061035156,Mon Apr 28 2025 16:05:28 GMT-0500 (Central Daylight Time),350636.40000000596,A,trai,O,i,80,1,966.2999999821186,349670.10000002384,7133,WL,A,5.0
3,6.13100004196167,learn,53868.99995803833,Mon Apr 28 2025 16:05:28 GMT-0500 (Central Daylight Time),350753.3000000119,A,train,O,n,90,1,1083.199999988079,349670.10000002384,7133,WL,A,5.0
3,6.396999835968018,learn,53603.00016403198,Mon Apr 28 2025 16:05:28 GMT-0500 (Central Daylight Time),351019.3000000119,A,trainenter,O,enter,244,1,1349.199999988079,349670.10000002384,7133,WL,A,5.0
3,6.513999938964844,learn,53486.000061035156,Mon Apr 28 2025 16:05:28 GMT-0500 (Central Daylight Time),351136.7000000179,A,a,O,a,107,1,117.09999999403954,351019.60000002384,7133,WL,A,6.0
3,6.8480000495910645,learn,53151.999950408936,Mon Apr 28 2025 16:05:28 GMT-0500 (Central Daylight Time),351469.90000000596,A,ap,O,p,307,1,450.2999999821186,351019.60000002384,7133,WL,A,6.0
3,7.063999891281128,learn,52936.00010871887,Mon Apr 28 2025 16:05:28 GMT-0500 (Central Daylight Time),351686.90000000596,A,apl,O,l,192,1,667.2999999821186,351019.60000002384,7133,WL,A,6.0
3,7.38100004196167,learn,52618.99995803833,Mon Apr 28 2025 16:05:28 GMT-0500 (Central Daylight Time),352003.60000002384,A,ap,O,backspace,276,1,984.0,351019.60000002384,7133,WL,A,6.0
3,7.980999946594238,learn,52019.00005340576,Mon Apr 28 2025 16:05:28 GMT-0500 (Central Daylight Time),352603.10000002384,A,app,O,p,568,1,1583.5,351019.60000002384,7133,WL,A,6.0
3,8.214999914169312,learn,51785.00008583069,Mon Apr 28 2025 16:05:28 GMT-0500 (Central Daylight Time),352836.8000000119,A,appl,O,l,207,1,1817.199999988079,351019.60000002384,7133,WL,A,6.0
3,8.348000049591064,learn,51651.999950408936,Mon Apr 28 2025 16:05:28 GMT-0500 (Central Daylight Time),352969.8000000119,A,apple,O,e,102,1,1950.199999988079,351019.60000002384,7133,WL,A,6.0
3,8.730000019073486,learn,51269.999980926514,Mon Apr 28 2025 16:05:28 GMT-0500 (Central Daylight Time),353352.0,A,appleenter,O,enter,346,1,2332.399999976158,351019.60000002384,7133,WL,A,6.0
3,9.113999843597412,learn,50886.00015640259,Mon Apr 28 2025 16:05:28 GMT-0500 (Central Daylight Time),353736.2000000179,A,m,O,m,374,1,383.90000000596046,353352.3000000119,7133,WL,A,7.0
3,9.680999994277954,learn,50319.000005722046,Mon Apr 28 2025 16:05:28 GMT-0500 (Central Daylight Time),354302.7000000179,A,me,O,e,531,1,950.4000000059605,353352.3000000119,7133,WL,A,7.0
3,9.733000040054321,learn,50266.99995994568,Mon Apr 28 2025 16:05:28 GMT-0500 (Central Daylight Time),354354.7000000179,A,mea,O,a,20,1,1002.4000000059605,353352.3000000119,7133,WL,A,7.0
3,10.04699993133545,learn,49953.00006866455,Mon Apr 28 2025 16:05:28 GMT-0500 (Central Daylight Time),354669.40000000596,A,mead,O,d,299,1,1317.0999999940395,353352.3000000119,7133,WL,A,7.0
3,10.179999828338623,learn,49820.00017166138,Mon Apr 28 2025 16:05:28 GMT-0500 (Central Daylight Time),354801.90000000596,A,meado,O,o,100,1,1449.5999999940395,353352.3000000119,7133,WL,A,7.0
3,10.313999891281128,learn,49686.00010871887,Mon Apr 28 2025 16:05:28 GMT-0500 (Central Daylight Time),354935.8000000119,A,meadow,O,w,116,1,1583.5,353352.3000000119,7133,WL,A,7.0
3,10.61299991607666,learn,49387.00008392334,Mon Apr 28 2025 16:05:28 GMT-0500 (Central Daylight Time),355234.7000000179,A,meadowenter,O,enter,258,1,1882.4000000059605,353352.3000000119,7133,WL,A,7.0
3,11.02999997138977,learn,48970.00002861023,Mon Apr 28 2025 16:05:28 GMT-0500 (Central Daylight Time),355652.2000000179,A,c,O,c,403,1,417.2000000178814,355235.0,7133,WL,A,8.0
3,11.146999835968018,learn,48853.00016403198,Mon Apr 28 2025 16:05:28 GMT-0500 (Central Daylight Time),355768.8000000119,A,ch,O,h,86,1,533.8000000119209,355235.0,7133,WL,A,8.0
3,11.263000011444092,learn,48736.99998855591,Mon Apr 28 2025 16:05:28 GMT-0500 (Central Daylight Time),355885.10000002384,A,chi,O,i,88,1,650.1000000238419,355235.0,7133,WL,A,8.0
3,11.480000019073486,learn,48519.999980926514,Mon Apr 28 2025 16:05:28 GMT-0500 (Central Daylight Time),356102.10000002384,A,chim,O,m,187,1,867.1000000238419,355235.0,7133,WL,A,8.0
3,11.713000059127808,learn,48286.99994087219,Mon Apr 28 2025 16:05:28 GMT-0500 (Central Daylight Time),356335.40000000596,A,chime,O,e,204,1,1100.4000000059605,355235.0,7133,WL,A,8.0
3,11.812999963760376,learn,48187.000036239624,Mon Apr 28 2025 16:05:28 GMT-0500 (Central Daylight Time),356434.60000002384,A,chimen,O,n,58,1,1199.6000000238419,355235.0,7133,WL,A,8.0
3,12.02999997138977,learn,47970.00002861023,Mon Apr 28 2025 16:05:28 GMT-0500 (Central Daylight Time),356652.10000002384,A,chimeny,O,y,188,1,1417.1000000238419,355235.0,7133,WL,A,8.0
3,12.312000036239624,learn,47687.999963760376,Mon Apr 28 2025 16:05:28 GMT-0500 (Central Daylight Time),356934.10000002384,A,chimenyenter,O,enter,252,1,1699.1000000238419,355235.0,7133,WL,A,8.0
3,14.611999988555908,learn,45388.00001144409,Mon Apr 28 2025 16:05:28 GMT-0500 (Central Daylight Time),359234.40000000596,A,s,O,s,2280,1,2300.0,356934.40000000596,7133,WL,A,9.0
3,14.69599986076355,learn,45304.00013923645,Mon Apr 28 2025 16:05:28 GMT-0500 (Central Daylight Time),359317.7000000179,A,sa,O,a,49,1,2383.300000011921,356934.40000000596,7133,WL,A,9.0
3,14.810999870300293,learn,45189.00012969971,Mon Apr 28 2025 16:05:28 GMT-0500 (Central Daylight Time),359433.5,A,sal,O,l,95,1,2499.0999999940395,356934.40000000596,7133,WL,A,9.0
3,15.128999948501587,learn,44871.00005149841,Mon Apr 28 2025 16:05:28 GMT-0500 (Central Daylight Time),359750.60000002384,A,salt,O,t,306,1,2816.2000000178814,356934.40000000596,7133,WL,A,9.0
3,15.42799997329712,learn,44572.00002670288,Mon Apr 28 2025 16:05:28 GMT-0500 (Central Daylight Time),360049.7000000179,A,saltenter,O,enter,263,1,3115.300000011921,356934.40000000596,7133,WL,A,9.0
3,15.961999893188477,learn,44038.00010681152,Mon Apr 28 2025 16:05:28 GMT-0500 (Central Daylight Time),360583.90000000596,A,f,O,f,516,1,533.9000000059605,360050.0,7133,WL,A,10.0
3,16.079999923706055,learn,43920.000076293945,Mon Apr 28 2025 16:05:28 GMT-0500 (Central Daylight Time),360701.7000000179,A,fi,O,i,75,1,651.7000000178814,360050.0,7133,WL,A,10.0
3,16.211999893188477,learn,43788.00010681152,Mon Apr 28 2025 16:05:28 GMT-0500 (Central Daylight Time),360833.90000000596,A,fin,O,n,101,1,783.9000000059605,360050.0,7133,WL,A,10.0
3,16.277999877929688,learn,43722.00012207031,Mon Apr 28 2025 16:05:28 GMT-0500 (Central Daylight Time),360900.40000000596,A,fing,O,g,41,1,850.4000000059605,360050.0,7133,WL,A,10.0
3,16.444999933242798,learn,43555.0000667572,Mon Apr 28 2025 16:05:28 GMT-0500 (Central Daylight Time),361066.8000000119,A,finge,O,e,137,1,1016.8000000119209,360050.0,7133,WL,A,10.0
3,16.49399995803833,learn,43506.00004196167,Mon Apr 28 2025 16:05:28 GMT-0500 (Central Daylight Time),361116.2000000179,A,finger,O,r,17,1,1066.2000000178814,360050.0,7133,WL,A,10.0
3,16.776999950408936,learn,43223.000049591064,Mon Apr 28 2025 16:05:28 GMT-0500 (Central Daylight Time),361399.40000000596,A,fingerenter,O,enter,260,1,1349.4000000059605,360050.0,7133,WL,A,10.0
3,17.17799997329712,learn,42822.00002670288,Mon Apr 28 2025 16:05:28 GMT-0500 (Central Daylight Time),361800.5,A,a,O,a,382,1,400.69999998807907,361399.8000000119,7133,WL,A,11.0
3,17.42799997329712,learn,42572.00002670288,Mon Apr 28 2025 16:05:28 GMT-0500 (Central Daylight Time),362050.40000000596,A,ap,O,p,206,1,650.5999999940395,361399.8000000119,7133,WL,A,11.0
3,17.560999870300293,learn,42439.00012969971,Mon Apr 28 2025 16:05:28 GMT-0500 (Central Daylight Time),362183.2000000179,A,app,O,p,104,1,783.4000000059605,361399.8000000119,7133,WL,A,11.0
3,17.759999990463257,learn,42240.00000953674,Mon Apr 28 2025 16:05:28 GMT-0500 (Central Daylight Time),362382.3000000119,A,appl,O,l,168,1,982.5,361399.8000000119,7133,WL,A,11.0
3,17.82699990272522,learn,42173.00009727478,Mon Apr 28 2025 16:05:28 GMT-0500 (Central Daylight Time),362448.7000000179,A,apple,O,e,50,1,1048.9000000059605,361399.8000000119,7133,WL,A,11.0
3,18.026999950408936,learn,41973.000049591064,Mon Apr 28 2025 16:05:28 GMT-0500 (Central Daylight Time),362648.90000000596,A,appleenter,O,enter,188,1,1249.0999999940395,361399.8000000119,7133,WL,A,11.0
3,19.575999975204468,learn,40424.00002479553,Mon Apr 28 2025 16:05:28 GMT-0500 (Central Daylight Time),364198.3000000119,A,g,O,g,1540,1,1549.0999999940395,362649.2000000179,7133,WL,A,12.0
3,19.692999839782715,learn,40307.000160217285,Mon Apr 28 2025 16:05:28 GMT-0500 (Central Daylight Time),364314.90000000596,A,go,O,o,94,1,1665.699999988079,362649.2000000179,7133,WL,A,12.0
3,19.876999855041504,learn,40123.000144958496,Mon Apr 28 2025 16:05:28 GMT-0500 (Central Daylight Time),364499.3000000119,A,gol,O,l,162,1,1850.0999999940395,362649.2000000179,7133,WL,A,12.0
3,19.960000038146973,learn,40039.99996185303,Mon Apr 28 2025 16:05:28 GMT-0500 (Central Daylight Time),364581.8000000119,A,gold,O,d,47,1,1932.5999999940395,362649.2000000179,7133,WL,A,12.0
3,20.192999839782715,learn,39807.000160217285,Mon Apr 28 2025 16:05:28 GMT-0500 (Central Daylight Time),364814.90000000596,A,goldenter,O,enter,220,1,2165.699999988079,362649.2000000179,7133,WL,A,12.0
3,25.524999856948853,learn,34475.00014305115,Mon Apr 28 2025 16:05:28 GMT-0500 (Central Daylight Time),370147.40000000596,A,r,O,r,5319,1,5332.299999982119,364815.10000002384,7133,WL,A,13.0
3,25.657999992370605,learn,34342.000007629395,Mon Apr 28 2025 16:05:28 GMT-0500 (Central Daylight Time),370280.40000000596,A,ra,O,a,94,1,5465.299999982119,364815.10000002384,7133,WL,A,13.0
3,25.95799994468689,learn,34042.00005531311,Mon Apr 28 2025 16:05:28 GMT-0500 (Central Daylight Time),370579.8000000119,A,rat,O,t,273,1,5764.699999988079,364815.10000002384,7133,WL,A,13.0
3,26.090999841690063,learn,33909.00015830994,Mon Apr 28 2025 16:05:28 GMT-0500 (Central Daylight Time),370713.3000000119,A,ratt,O,t,112,1,5898.199999988079,364815.10000002384,7133,WL,A,13.0
3,26.19099998474121,learn,33809.00001525879,Mon Apr 28 2025 16:05:28 GMT-0500 (Central Daylight Time),370812.7000000179,A,rattl,O,l,83,1,5997.5999999940395,364815.10000002384,7133,WL,A,13.0
3,26.306999921798706,learn,33693.000078201294,Mon Apr 28 2025 16:05:28 GMT-0500 (Central Daylight Time),370929.5,A,rattle,O,e,96,1,6114.399999976158,364815.10000002384,7133,WL,A,13.0
3,26.473999977111816,learn,33526.00002288818,Mon Apr 28 2025 16:05:28 GMT-0500 (Central Daylight Time),371096.0,A,rattleenter,O,enter,146,1,6280.899999976158,364815.10000002384,7133,WL,A,13.0
3,30.090999841690063,learn,29909.000158309937,Mon Apr 28 2025 16:05:28 GMT-0500 (Central Daylight Time),374712.8000000119,A,g,O,g,3597,1,3616.5,371096.3000000119,7133,WL,A,14.0
3,30.223000049591064,learn,29776.999950408936,Mon Apr 28 2025 16:05:28 GMT-0500 (Central Daylight Time),374845.0,A,go,O,o,105,1,3748.699999988079,371096.3000000119,7133,WL,A,14.0
3,30.388999938964844,learn,29611.000061035156,Mon Apr 28 2025 16:05:28 GMT-0500 (Central Daylight Time),375011.60000002384,A,god,O,d,156,1,3915.300000011921,371096.3000000119,7133,WL,A,14.0
3,30.473000049591064,learn,29526.999950408936,Mon Apr 28 2025 16:05:28 GMT-0500 (Central Daylight Time),375094.7000000179,A,godl,O,l,61,1,3998.4000000059605,371096.3000000119,7133,WL,A,14.0
3,31.073999881744385,learn,28926.000118255615,Mon Apr 28 2025 16:05:28 GMT-0500 (Central Daylight Time),375695.8000000119,A,god,O,backspace,582,1,4599.5,371096.3000000119,7133,WL,A,14.0
3,31.207000017166138,learn,28792.999982833862,Mon Apr 28 2025 16:05:28 GMT-0500 (Central Daylight Time),375828.7000000179,A,go,O,backspace,95,1,4732.4000000059605,371096.3000000119,7133,WL,A,14.0
3,31.455999851226807,learn,28544.000148773193,Mon Apr 28 2025 16:05:28 GMT-0500 (Central Daylight Time),376078.5,A,gol,O,l,226,1,4982.199999988079,371096.3000000119,7133,WL,A,14.0
3,31.555999994277954,learn,28444.000005722046,Mon Apr 28 2025 16:05:28 GMT-0500 (Central Daylight Time),376177.90000000596,A,gold,O,d,59,1,5081.5999999940395,371096.3000000119,7133,WL,A,14.0
3,31.688999891281128,learn,28311.000108718872,Mon Apr 28 2025 16:05:28 GMT-0500 (Central Daylight Time),376311.0,A,goldenter,O,enter,118,1,5214.699999988079,371096.3000000119,7133,WL,A,14.0
3,34.48899984359741,learn,25511.000156402588,Mon Apr 28 2025 16:05:28 GMT-0500 (Central Daylight Time),379111.3000000119,A,r,O,r,2783,1,2800.0,376311.3000000119,7133,WL,A,15.0
3,34.60599994659424,learn,25394.00005340576,Mon Apr 28 2025 16:05:28 GMT-0500 (Central Daylight Time),379227.7000000179,A,ru,O,u,84,1,2916.4000000059605,376311.3000000119,7133,WL,A,15.0
3,34.73899984359741,learn,25261.000156402588,Mon Apr 28 2025 16:05:28 GMT-0500 (Central Daylight Time),379360.90000000596,A,rug,O,g,96,1,3049.5999999940395,376311.3000000119,7133,WL,A,15.0
3,34.9210000038147,learn,25078.999996185303,Mon Apr 28 2025 16:05:28 GMT-0500 (Central Daylight Time),379543.40000000596,A,rugenter,O,enter,154,1,3232.0999999940395,376311.3000000119,7133,WL,A,15.0
4,0.5669999122619629,learn,59433.00008773804,Mon Apr 28 2025 16:05:28 GMT-0500 (Central Daylight Time),444923.10000002384,A,l,O,l,528,1,566.2000000178814,444356.90000000596,7133,WL,A,1.0
4,0.7339999675750732,learn,59266.00003242493,Mon Apr 28 2025 16:05:28 GMT-0500 (Central Daylight Time),445089.7000000179,A,lo,O,o,132,1,732.8000000119209,444356.90000000596,7133,WL,A,1.0
4,0.8840000629425049,learn,59115.999937057495,Mon Apr 28 2025 16:05:28 GMT-0500 (Central Daylight Time),445239.60000002384,A,log,O,g,113,1,882.7000000178814,444356.90000000596,7133,WL,A,1.0
4,1.249000072479248,learn,58750.99992752075,Mon Apr 28 2025 16:05:28 GMT-0500 (Central Daylight Time),445605.10000002384,A,logenter,O,enter,337,1,1248.2000000178814,444356.90000000596,7133,WL,A,1.0
4,1.5339999198913574,learn,58466.00008010864,Mon Apr 28 2025 16:05:28 GMT-0500 (Central Daylight Time),445889.40000000596,A,k,O,k,265,1,284.0,445605.40000000596,7133,WL,A,2.0
4,1.683000087738037,learn,58316.99991226196,Mon Apr 28 2025 16:05:28 GMT-0500 (Central Daylight Time),446038.5,A,ke,O,e,112,1,433.09999999403954,445605.40000000596,7133,WL,A,2.0
4,1.8499999046325684,learn,58150.00009536743,Mon Apr 28 2025 16:05:28 GMT-0500 (Central Daylight Time),446205.8000000119,A,key,O,y,144,1,600.4000000059605,445605.40000000596,7133,WL,A,2.0
4,2.3329999446868896,learn,57667.00005531311,Mon Apr 28 2025 16:05:28 GMT-0500 (Central Daylight Time),446689.0,A,keyg,O,g,446,1,1083.5999999940395,445605.40000000596,7133,WL,A,2.0
4,2.4159998893737793,learn,57584.00011062622,Mon Apr 28 2025 16:05:28 GMT-0500 (Central Daylight Time),446772.10000002384,A,keygo,O,o,43,1,1166.7000000178814,445605.40000000596,7133,WL,A,2.0
4,2.882999897003174,learn,57117.000102996826,Mon Apr 28 2025 16:05:28 GMT-0500 (Central Daylight Time),447238.7000000179,A,keyg,O,backspace,431,1,1633.300000011921,445605.40000000596,7133,WL,A,2.0
4,3.0329999923706055,learn,56967.000007629395,Mon Apr 28 2025 16:05:28 GMT-0500 (Central Daylight Time),447389.0,A,key,O,backspace,124,1,1783.5999999940395,445605.40000000596,7133,WL,A,2.0
4,3.2649998664855957,learn,56735.000133514404,Mon Apr 28 2025 16:05:28 GMT-0500 (Central Daylight Time),447621.0,A,keyenter,O,enter,198,1,2015.5999999940395,445605.40000000596,7133,WL,A,2.0
4,3.5160000324249268,learn,56483.99996757507,Mon Apr 28 2025 16:05:28 GMT-0500 (Central Daylight Time),447872.0,A,g,O,g,233,1,250.69999998807907,447621.3000000119,7133,WL,A,3.0
4,3.5820000171661377,learn,56417.99998283386,Mon Apr 28 2025 16:05:28 GMT-0500 (Central Daylight Time),447938.10000002384,A,go,O,o,27,1,316.80000001192093,447621.3000000119,7133,WL,A,3.0
4,3.7990000247955322,learn,56200.99997520447,Mon Apr 28 2025 16:05:28 GMT-0500 (Central Daylight Time),448155.2000000179,A,gol,O,l,201,1,533.9000000059605,447621.3000000119,7133,WL,A,3.0
4,4.065999984741211,learn,55934.00001525879,Mon Apr 28 2025 16:05:28 GMT-0500 (Central Daylight Time),448421.40000000596,A,gold,O,d,241,1,800.0999999940395,447621.3000000119,7133,WL,A,3.0
4,4.431999921798706,learn,55568.000078201294,Mon Apr 28 2025 16:05:28 GMT-0500 (Central Daylight Time),448787.3000000119,A,goldenter,O,enter,340,1,1166.0,447621.3000000119,7133,WL,A,3.0
4,5.2820000648498535,learn,54717.99993515015,Mon Apr 28 2025 16:05:28 GMT-0500 (Central Daylight Time),449637.8000000119,A,a,O,a,842,1,850.3000000119209,448787.5,7133,WL,A,4.0
4,5.448999881744385,learn,54551.000118255615,Mon Apr 28 2025 16:05:28 GMT-0500 (Central Daylight Time),449804.7000000179,A,ap,O,p,132,1,1017.2000000178814,448787.5,7133,WL,A,4.0
4,5.598999977111816,learn,54401.00002288818,Mon Apr 28 2025 16:05:28 GMT-0500 (Central Daylight Time),449954.60000002384,A,app,O,p,118,1,1167.1000000238419,448787.5,7133,WL,A,4.0
4,5.7820000648498535,learn,54217.99993515015,Mon Apr 28 2025 16:05:28 GMT-0500 (Central Daylight Time),450138.10000002384,A,appl,O,l,144,1,1350.6000000238419,448787.5,7133,WL,A,4.0
4,5.8480000495910645,learn,54151.999950408936,Mon Apr 28 2025 16:05:28 GMT-0500 (Central Daylight Time),450203.60000002384,A,apple,O,e,33,1,1416.1000000238419,448787.5,7133,WL,A,4.0
4,6.063999891281128,learn,53936.00010871887,Mon Apr 28 2025 16:05:28 GMT-0500 (Central Daylight Time),450420.2000000179,A,appleenter,O,enter,199,1,1632.7000000178814,448787.5,7133,WL,A,4.0
4,6.48199987411499,learn,53518.00012588501,Mon Apr 28 2025 16:05:28 GMT-0500 (Central Daylight Time),450837.8000000119,A,r,O,r,410,1,417.40000000596046,450420.40000000596,7133,WL,A,5.0
4,6.5980000495910645,learn,53401.999950408936,Mon Apr 28 2025 16:05:28 GMT-0500 (Central Daylight Time),450953.7000000179,A,ra,O,a,81,1,533.3000000119209,450420.40000000596,7133,WL,A,5.0
4,6.815000057220459,learn,53184.99994277954,Mon Apr 28 2025 16:05:28 GMT-0500 (Central Daylight Time),451170.8000000119,A,rat,O,t,196,1,750.4000000059605,450420.40000000596,7133,WL,A,5.0
4,6.9649999141693115,learn,53035.00008583069,Mon Apr 28 2025 16:05:28 GMT-0500 (Central Daylight Time),451321.0,A,ratt,O,t,112,1,900.5999999940395,450420.40000000596,7133,WL,A,5.0
4,7.063999891281128,learn,52936.00010871887,Mon Apr 28 2025 16:05:28 GMT-0500 (Central Daylight Time),451420.3000000119,A,rattl,O,l,66,1,999.9000000059605,450420.40000000596,7133,WL,A,5.0
4,7.164000034332275,learn,52835.999965667725,Mon Apr 28 2025 16:05:28 GMT-0500 (Central Daylight Time),451520.10000002384,A,rattle,O,e,81,1,1099.7000000178814,450420.40000000596,7133,WL,A,5.0
4,7.46399998664856,learn,52536.00001335144,Mon Apr 28 2025 16:05:28 GMT-0500 (Central Daylight Time),451819.7000000179,A,rattleenter,O,enter,271,1,1399.300000011921,450420.40000000596,7133,WL,A,5.0
4,7.764999866485596,learn,52235.000133514404,Mon Apr 28 2025 16:05:28 GMT-0500 (Central Daylight Time),452120.5,A,b,O,b,290,1,300.5,451820.0,7133,WL,A,6.0
4,7.997999906539917,learn,52002.00009346008,Mon Apr 28 2025 16:05:28 GMT-0500 (Central Daylight Time),452353.8000000119,A,bo,O,o,196,1,533.8000000119209,451820.0,7133,WL,A,6.0
4,8.13100004196167,learn,51868.99995803833,Mon Apr 28 2025 16:05:28 GMT-0500 (Central Daylight Time),452487.3000000119,A,boo,O,o,97,1,667.3000000119209,451820.0,7133,WL,A,6.0
4,8.297999858856201,learn,51702.0001411438,Mon Apr 28 2025 16:05:28 GMT-0500 (Central Daylight Time),452653.8000000119,A,book,O,k,133,1,833.8000000119209,451820.0,7133,WL,A,6.0
4,8.52999997138977,learn,51470.00002861023,Mon Apr 28 2025 16:05:28 GMT-0500 (Central Daylight Time),452886.0,A,bookenter,O,enter,205,1,1066.0,451820.0,7133,WL,A,6.0
4,9.098000049591064,learn,50901.999950408936,Mon Apr 28 2025 16:05:28 GMT-0500 (Central Daylight Time),453453.40000000596,A,f,O,f,552,1,567.1999999880791,452886.2000000179,7133,WL,A,7.0
4,9.264999866485596,learn,50735.000133514404,Mon Apr 28 2025 16:05:28 GMT-0500 (Central Daylight Time),453620.3000000119,A,fl,O,l,125,1,734.0999999940395,452886.2000000179,7133,WL,A,7.0
4,9.447999954223633,learn,50552.00004577637,Mon Apr 28 2025 16:05:28 GMT-0500 (Central Daylight Time),453803.5,A,flo,O,o,145,1,917.2999999821186,452886.2000000179,7133,WL,A,7.0
4,9.513000011444092,learn,50486.99998855591,Mon Apr 28 2025 16:05:28 GMT-0500 (Central Daylight Time),453869.3000000119,A,flow,O,w,39,1,983.0999999940395,452886.2000000179,7133,WL,A,7.0
4,9.54699993133545,learn,50453.00006866455,Mon Apr 28 2025 16:05:28 GMT-0500 (Central Daylight Time),453902.3000000119,A,flowe,O,e,10,1,1016.0999999940395,452886.2000000179,7133,WL,A,7.0
4,9.61299991607666,learn,50387.00008392334,Mon Apr 28 2025 16:05:28 GMT-0500 (Central Daylight Time),453969.0,A,flower,O,r,53,1,1082.7999999821186,452886.2000000179,7133,WL,A,7.0
4,9.912999868392944,learn,50087.000131607056,Mon Apr 28 2025 16:05:28 GMT-0500 (Central Daylight Time),454268.90000000596,A,flowerenter,O,enter,283,1,1382.699999988079,452886.2000000179,7133,WL,A,7.0
4,10.27999997138977,learn,49720.00002861023,Mon Apr 28 2025 16:05:28 GMT-0500 (Central Daylight Time),454636.3000000119,A,a,O,a,353,1,367.09999999403954,454269.2000000179,7133,WL,A,8.0
4,10.69700002670288,learn,49302.99997329712,Mon Apr 28 2025 16:05:28 GMT-0500 (Central Daylight Time),455053.2000000179,A,ap,O,p,391,1,784.0,454269.2000000179,7133,WL,A,8.0
4,10.864000082015991,learn,49135.99991798401,Mon Apr 28 2025 16:05:28 GMT-0500 (Central Daylight Time),455219.60000002384,A,app,O,p,133,1,950.4000000059605,454269.2000000179,7133,WL,A,8.0
4,11.04699993133545,learn,48953.00006866455,Mon Apr 28 2025 16:05:28 GMT-0500 (Central Daylight Time),455402.8000000119,A,appl,O,l,151,1,1133.5999999940395,454269.2000000179,7133,WL,A,8.0
4,11.11299991607666,learn,48887.00008392334,Mon Apr 28 2025 16:05:28 GMT-0500 (Central Daylight Time),455468.90000000596,A,apple,O,e,30,1,1199.699999988079,454269.2000000179,7133,WL,A,8.0
4,11.529000043869019,learn,48470.99995613098,Mon Apr 28 2025 16:05:28 GMT-0500 (Central Daylight Time),455885.0,A,appleenter,O,enter,400,1,1615.7999999821186,454269.2000000179,7133,WL,A,8.0
4,12.079999923706055,learn,47920.000076293945,Mon Apr 28 2025 16:05:28 GMT-0500 (Central Daylight Time),456435.8000000119,A,r,O,r,537,1,550.5,455885.3000000119,7133,WL,A,9.0
4,12.19599986076355,learn,47804.00013923645,Mon Apr 28 2025 16:05:28 GMT-0500 (Central Daylight Time),456552.2000000179,A,ru,O,u,78,1,666.9000000059605,455885.3000000119,7133,WL,A,9.0
4,12.329999923706055,learn,47670.000076293945,Mon Apr 28 2025 16:05:28 GMT-0500 (Central Daylight Time),456685.8000000119,A,rug,O,g,106,1,800.5,455885.3000000119,7133,WL,A,9.0
4,12.628999948501587,learn,47371.00005149841,Mon Apr 28 2025 16:05:28 GMT-0500 (Central Daylight Time),456984.7000000179,A,rugenter,O,enter,260,1,1099.4000000059605,455885.3000000119,7133,WL,A,9.0
4,15.296000003814697,learn,44703.9999961853,Mon Apr 28 2025 16:05:28 GMT-0500 (Central Daylight Time),459651.60000002384,A,m,O,m,2654,1,2666.7000000178814,456984.90000000596,7133,WL,A,10.0
4,15.394999980926514,learn,44605.000019073486,Mon Apr 28 2025 16:05:28 GMT-0500 (Central Daylight Time),459750.8000000119,A,me,O,e,73,1,2765.9000000059605,456984.90000000596,7133,WL,A,10.0
4,15.460999965667725,learn,44539.000034332275,Mon Apr 28 2025 16:05:28 GMT-0500 (Central Daylight Time),459817.0,A,mea,O,a,46,1,2832.0999999940395,456984.90000000596,7133,WL,A,10.0
4,15.928999900817871,learn,44071.00009918213,Mon Apr 28 2025 16:05:28 GMT-0500 (Central Daylight Time),460285.3000000119,A,meao,O,o,449,1,3300.4000000059605,456984.90000000596,7133,WL,A,10.0
4,16.57800006866455,learn,43421.99993133545,Mon Apr 28 2025 16:05:28 GMT-0500 (Central Daylight Time),460934.10000002384,A,mea,O,backspace,628,1,3949.2000000178814,456984.90000000596,7133,WL,A,10.0
4,16.628000020980835,learn,43371.999979019165,Mon Apr 28 2025 16:05:28 GMT-0500 (Central Daylight Time),460983.5,A,mead,O,d,11,1,3998.5999999940395,456984.90000000596,7133,WL,A,10.0
4,16.82800006866455,learn,43171.99993133545,Mon Apr 28 2025 16:05:28 GMT-0500 (Central Daylight Time),461184.0,A,meado,O,o,178,1,4199.0999999940395,456984.90000000596,7133,WL,A,10.0
4,16.92899990081787,learn,43071.00009918213,Mon Apr 28 2025 16:05:28 GMT-0500 (Central Daylight Time),461284.7000000179,A,meadow,O,w,75,1,4299.800000011921,456984.90000000596,7133,WL,A,10.0
4,17.677000045776367,learn,42322.99995422363,Mon Apr 28 2025 16:05:28 GMT-0500 (Central Daylight Time),462033.0,A,meadowenter,O,enter,717,1,5048.0999999940395,456984.90000000596,7133,WL,A,10.0
4,20.91000008583069,learn,39089.99991416931,Mon Apr 28 2025 16:05:28 GMT-0500 (Central Daylight Time),465266.0,A,f,O,f,3222,1,3232.699999988079,462033.3000000119,7133,WL,A,11.0
4,21.009999990463257,learn,38990.00000953674,Mon Apr 28 2025 16:05:28 GMT-0500 (Central Daylight Time),465365.60000002384,A,fi,O,i,68,1,3332.300000011921,462033.3000000119,7133,WL,A,11.0
4,21.16000008583069,learn,38839.99991416931,Mon Apr 28 2025 16:05:28 GMT-0500 (Central Daylight Time),465515.3000000119,A,fin,O,n,127,1,3482.0,462033.3000000119,7133,WL,A,11.0
4,21.217999935150146,learn,38782.00006484985,Mon Apr 28 2025 16:05:28 GMT-0500 (Central Daylight Time),465574.10000002384,A,fing,O,g,37,1,3540.800000011921,462033.3000000119,7133,WL,A,11.0
4,21.39299988746643,learn,38607.00011253357,Mon Apr 28 2025 16:05:28 GMT-0500 (Central Daylight Time),465748.60000002384,A,finge,O,e,158,1,3715.300000011921,462033.3000000119,7133,WL,A,11.0
4,21.427000045776367,learn,38572.99995422363,Mon Apr 28 2025 16:05:28 GMT-0500 (Central Daylight Time),465782.3000000119,A,finger,O,r,21,1,3749.0,462033.3000000119,7133,WL,A,11.0
4,21.64400005340576,learn,38355.99994659424,Mon Apr 28 2025 16:05:28 GMT-0500 (Central Daylight Time),465999.5,A,fingerenter,O,enter,204,1,3966.199999988079,462033.3000000119,7133,WL,A,11.0
4,23.259999990463257,learn,36740.00000953674,Mon Apr 28 2025 16:05:28 GMT-0500 (Central Daylight Time),467615.40000000596,A,l,O,l,1607,1,1615.5999999940395,465999.8000000119,7133,WL,A,12.0
4,23.493000030517578,learn,36506.99996948242,Mon Apr 28 2025 16:05:28 GMT-0500 (Central Daylight Time),467848.8000000119,A,lo,O,o,194,1,1849.0,465999.8000000119,7133,WL,A,12.0
4,23.5239999294281,learn,36476.0000705719,Mon Apr 28 2025 16:05:28 GMT-0500 (Central Daylight Time),467879.90000000596,A,log,O,g,3,1,1880.0999999940395,465999.8000000119,7133,WL,A,12.0
4,24.108999967575073,learn,35891.00003242493,Mon Apr 28 2025 16:05:28 GMT-0500 (Central Daylight Time),468464.40000000596,A,logenter,O,enter,550,1,2464.5999999940395,465999.8000000119,7133,WL,A,12.0
4,24.325999975204468,learn,35674.00002479553,Mon Apr 28 2025 16:05:28 GMT-0500 (Central Daylight Time),468681.90000000596,A,r,O,r,197,1,217.19999998807907,468464.7000000179,7133,WL,A,13.0
4,24.408999919891357,learn,35591.00008010864,Mon Apr 28 2025 16:05:28 GMT-0500 (Central Daylight Time),468764.3000000119,A,ru,O,u,55,1,299.59999999403954,468464.7000000179,7133,WL,A,13.0
4,24.55999994277954,learn,35440.00005722046,Mon Apr 28 2025 16:05:28 GMT-0500 (Central Daylight Time),468915.40000000596,A,rug,O,g,121,1,450.69999998807907,468464.7000000179,7133,WL,A,13.0
4,24.72499990463257,learn,35275.00009536743,Mon Apr 28 2025 16:05:28 GMT-0500 (Central Daylight Time),469080.8000000119,A,rugenter,O,enter,126,1,616.0999999940395,468464.7000000179,7133,WL,A,13.0
4,28.274999856948853,learn,31725.000143051147,Mon Apr 28 2025 16:05:28 GMT-0500 (Central Daylight Time),472630.7000000179,A,g,O,g,3533,1,3549.5999999940395,469081.10000002384,7133,WL,A,14.0
4,28.374000072479248,learn,31625.999927520752,Mon Apr 28 2025 16:05:28 GMT-0500 (Central Daylight Time),472729.90000000596,A,go,O,o,66,1,3648.7999999821186,469081.10000002384,7133,WL,A,14.0
4,28.575000047683716,learn,31424.999952316284,Mon Apr 28 2025 16:05:28 GMT-0500 (Central Daylight Time),472930.0,A,gol,O,l,173,1,3848.899999976158,469081.10000002384,7133,WL,A,14.0
4,28.625,learn,31375.0,Mon Apr 28 2025 16:05:28 GMT-0500 (Central Daylight Time),472980.40000000596,A,gold,O,d,17,1,3899.2999999821186,469081.10000002384,7133,WL,A,14.0
4,28.841000080108643,learn,31158.999919891357,Mon Apr 28 2025 16:05:28 GMT-0500 (Central Daylight Time),473196.0,A,goldenter,O,enter,194,1,4114.899999976158,469081.10000002384,7133,WL,A,14.0
4,35.37299990653992,learn,24627.000093460083,Mon Apr 28 2025 16:05:28 GMT-0500 (Central Daylight Time),479728.2000000179,A,s,O,s,6523,1,6531.9000000059605,473196.3000000119,7133,WL,A,15.0
4,35.48799991607666,learn,24512.00008392334,Mon Apr 28 2025 16:05:28 GMT-0500 (Central Daylight Time),479843.8000000119,A,sa,O,a,75,1,6647.5,473196.3000000119,7133,WL,A,15.0
4,35.621999979019165,learn,24378.000020980835,Mon Apr 28 2025 16:05:28 GMT-0500 (Central Daylight Time),479977.7000000179,A,sal,O,l,109,1,6781.4000000059605,473196.3000000119,7133,WL,A,15.0
4,36.07200002670288,learn,23927.99997329712,Mon Apr 28 2025 16:05:28 GMT-0500 (Central Daylight Time),480428.0,A,salt,O,t,419,1,7231.699999988079,473196.3000000119,7133,WL,A,15.0
4,36.287999868392944,learn,23712.000131607056,Mon Apr 28 2025 16:05:28 GMT-0500 (Central Daylight Time),480643.60000002384,A,saltenter,O,enter,183,1,7447.300000011921,473196.3000000119,7133,WL,A,15.0
5,0.8489999771118164,learn,60000.0,Mon Apr 28 2025 16:05:28 GMT-0500 (Central Daylight Time),545205.7000000179,A,b,O,b,815,1,848.2000000178814,544357.5,7133,WL,A,1.0
5,1.0979998111724854,learn,60000.0,Mon Apr 28 2025 16:05:28 GMT-0500 (Central Daylight Time),545455.5,A,bu,O,u,230,1,1098.0,544357.5,7133,WL,A,1.0
5,1.315999984741211,learn,60000.0,Mon Apr 28 2025 16:05:28 GMT-0500 (Central Daylight Time),545673.3000000119,A,but,O,t,198,1,1315.800000011921,544357.5,7133,WL,A,1.0
5,1.4659998416900635,learn,60000.0,Mon Apr 28 2025 16:05:28 GMT-0500 (Central Daylight Time),545823.3000000119,A,butt,O,t,114,1,1465.800000011921,544357.5,7133,WL,A,1.0
5,1.5819997787475586,learn,60000.0,Mon Apr 28 2025 16:05:28 GMT-0500 (Central Daylight Time),545939.2000000179,A,butto,O,o,75,1,1581.7000000178814,544357.5,7133,WL,A,1.0
5,1.6989998817443848,learn,60000.0,Mon Apr 28 2025 16:05:28 GMT-0500 (Central Daylight Time),546056.1000000238,A,button,O,n,99,1,1698.6000000238419,544357.5,7133,WL,A,1.0
5,1.998999834060669,learn,60000.0,Mon Apr 28 2025 16:05:28 GMT-0500 (Central Daylight Time),546356.1000000238,A,buttonr,O,r,277,1,1998.6000000238419,544357.5,7133,WL,A,1.0
5,2.0989999771118164,learn,60000.0,Mon Apr 28 2025 16:05:28 GMT-0500 (Central Daylight Time),546455.8000000119,A,buttonra,O,a,70,1,2098.300000011921,544357.5,7133,WL,A,1.0
5,2.3489999771118164,learn,60000.0,Mon Apr 28 2025 16:05:28 GMT-0500 (Central Daylight Time),546706.3000000119,A,buttonrat,O,t,230,1,2348.800000011921,544357.5,7133,WL,A,1.0
5,2.5159997940063477,learn,60000.0,Mon Apr 28 2025 16:05:28 GMT-0500 (Central Daylight Time),546872.8000000119,A,buttonratt,O,t,129,1,2515.300000011921,544357.5,7133,WL,A,1.0
5,2.631999969482422,learn,60000.0,Mon Apr 28 2025 16:05:28 GMT-0500 (Central Daylight Time),546989.5,A,buttonrattl,O,l,88,1,2632.0,544357.5,7133,WL,A,1.0
5,2.7649998664855957,learn,60000.0,Mon Apr 28 2025 16:05:28 GMT-0500 (Central Daylight Time),547122.400000006,A,buttonrattle,O,e,102,1,2764.9000000059605,544357.5,7133,WL,A,1.0
5,3.5319998264312744,learn,60000.0,Mon Apr 28 2025 16:05:28 GMT-0500 (Central Daylight Time),547889.0,A,buttonrattl,O,backspace,745,1,3531.5,544357.5,7133,WL,A,1.0
5,4.446999788284302,learn,60000.0,Mon Apr 28 2025 16:05:28 GMT-0500 (Central Daylight Time),548804.400000006,A,buttonratt,O,backspace,889,1,4446.9000000059605,544357.5,7133,WL,A,1.0
5,4.663999795913696,learn,60000.0,Mon Apr 28 2025 16:05:28 GMT-0500 (Central Daylight Time),549021.1000000238,A,buttonrat,O,backspace,200,1,4663.600000023842,544357.5,7133,WL,A,1.0
5,4.830999851226807,learn,60000.0,Mon Apr 28 2025 16:05:28 GMT-0500 (Central Daylight Time),549187.7000000179,A,buttonra,O,backspace,151,1,4830.200000017881,544357.5,7133,WL,A,1.0
5,4.996999979019165,learn,60000.0,Mon Apr 28 2025 16:05:28 GMT-0500 (Central Daylight Time),549354.3000000119,A,buttonr,O,backspace,153,1,4996.800000011921,544357.5,7133,WL,A,1.0
5,5.163999795913696,learn,60000.0,Mon Apr 28 2025 16:05:28 GMT-0500 (Central Daylight Time),549521.0,A,button,O,backspace,154,1,5163.5,544357.5,7133,WL,A,1.0
5,5.663999795913696,learn,60000.0,Mon Apr 28 2025 16:05:28 GMT-0500 (Central Daylight Time),550021.1000000238,A,buttonenter,O,enter,491,1,5663.600000023842,544357.5,7133,WL,A,1.0
5,6.013999938964844,learn,60000.0,Mon Apr 28 2025 16:05:28 GMT-0500 (Central Daylight Time),550370.7000000179,A,r,O,r,335,1,349.30000001192093,550021.400000006,7133,WL,A,2.0
5,6.079999923706055,learn,60000.0,Mon Apr 28 2025 16:05:28 GMT-0500 (Central Daylight Time),550437.3000000119,A,ra,O,a,57,1,415.90000000596046,550021.400000006,7133,WL,A,2.0
5,6.313999891281128,learn,60000.0,Mon Apr 28 2025 16:05:28 GMT-0500 (Central Daylight Time),550670.900000006,A,rat,O,t,214,1,649.5,550021.400000006,7133,WL,A,2.0
5,6.4629998207092285,learn,60000.0,Mon Apr 28 2025 16:05:28 GMT-0500 (Central Daylight Time),550820.5,A,ratt,O,t,133,1,799.0999999940395,550021.400000006,7133,WL,A,2.0
5,6.546999931335449,learn,60000.0,Mon Apr 28 2025 16:05:28 GMT-0500 (Central Daylight Time),550903.7000000179,A,rattl,O,l,71,1,882.3000000119209,550021.400000006,7133,WL,A,2.0
5,6.662999868392944,learn,60000.0,Mon Apr 28 2025 16:05:28 GMT-0500 (Central Daylight Time),551020.400000006,A,rattle,O,e,109,1,999.0,550021.400000006,7133,WL,A,2.0
5,6.895999908447266,learn,60000.0,Mon Apr 28 2025 16:05:28 GMT-0500 (Central Daylight Time),551253.6000000238,A,rattleenter,O,enter,216,1,1232.2000000178814,550021.400000006,7133,WL,A,2.0
5,7.19599986076355,learn,60000.0,Mon Apr 28 2025 16:05:28 GMT-0500 (Central Daylight Time),551553.5,A,k,O,k,288,1,299.69999998807907,551253.8000000119,7133,WL,A,3.0
5,7.295999765396118,learn,60000.0,Mon Apr 28 2025 16:05:28 GMT-0500 (Central Daylight Time),551653.5,A,ke,O,e,83,1,399.69999998807907,551253.8000000119,7133,WL,A,3.0
5,7.5299999713897705,learn,60000.0,Mon Apr 28 2025 16:05:28 GMT-0500 (Central Daylight Time),551886.8000000119,A,key,O,y,215,1,633.0,551253.8000000119,7133,WL,A,3.0
5,8.262999773025513,learn,60000.0,Mon Apr 28 2025 16:05:28 GMT-0500 (Central Daylight Time),552619.8000000119,A,keyenter,O,enter,726,1,1366.0,551253.8000000119,7133,WL,A,3.0
5,8.629999876022339,learn,60000.0,Mon Apr 28 2025 16:05:28 GMT-0500 (Central Daylight Time),552987.6000000238,A,g,O,g,354,1,367.5,552620.1000000238,7133,WL,A,4.0
5,8.69599986076355,learn,60000.0,Mon Apr 28 2025 16:05:28 GMT-0500 (Central Daylight Time),553053.6000000238,A,go,O,o,38,1,433.5,552620.1000000238,7133,WL,A,4.0
5,8.895999908447266,learn,60000.0,Mon Apr 28 2025 16:05:28 GMT-0500 (Central Daylight Time),553253.6000000238,A,gol,O,l,188,1,633.5,552620.1000000238,7133,WL,A,4.0
5,9.013999938964844,learn,60000.0,Mon Apr 28 2025 16:05:28 GMT-0500 (Central Daylight Time),553370.8000000119,A,gold,O,d,84,1,750.6999999880791,552620.1000000238,7133,WL,A,4.0
5,9.26199984550476,learn,60000.0,Mon Apr 28 2025 16:05:28 GMT-0500 (Central Daylight Time),553619.5,A,goldenter,O,enter,210,1,999.3999999761581,552620.1000000238,7133,WL,A,4.0
5,9.86299991607666,learn,60000.0,Mon Apr 28 2025 16:05:28 GMT-0500 (Central Daylight Time),554220.3000000119,A,l,O,l,578,1,600.5,553619.8000000119,7133,WL,A,5.0
5,10.02999997138977,learn,60000.0,Mon Apr 28 2025 16:05:28 GMT-0500 (Central Daylight Time),554387.3000000119,A,lo,O,o,134,1,767.5,553619.8000000119,7133,WL,A,5.0
5,10.11299991607666,learn,60000.0,Mon Apr 28 2025 16:05:28 GMT-0500 (Central Daylight Time),554469.900000006,A,log,O,g,48,1,850.0999999940395,553619.8000000119,7133,WL,A,5.0
5,10.378999948501587,learn,60000.0,Mon Apr 28 2025 16:05:28 GMT-0500 (Central Daylight Time),554735.8000000119,A,logenter,O,enter,239,1,1116.0,553619.8000000119,7133,WL,A,5.0
5,10.61299991607666,learn,60000.0,Mon Apr 28 2025 16:05:28 GMT-0500 (Central Daylight Time),554970.2000000179,A,r,O,r,222,1,234.2000000178814,554736.0,7133,WL,A,6.0
5,10.711999893188477,learn,60000.0,Mon Apr 28 2025 16:05:28 GMT-0500 (Central Daylight Time),555069.3000000119,A,ru,O,u,64,1,333.30000001192093,554736.0,7133,WL,A,6.0
5,10.846999883651733,learn,60000.0,Mon Apr 28 2025 16:05:28 GMT-0500 (Central Daylight Time),555204.6000000238,A,rug,O,g,106,1,468.60000002384186,554736.0,7133,WL,A,6.0
5,11.044999837875366,learn,60000.0,Mon Apr 28 2025 16:05:28 GMT-0500 (Central Daylight Time),555402.400000006,A,rugenter,O,enter,157,1,666.4000000059605,554736.0,7133,WL,A,6.0
5,11.762999773025513,learn,60000.0,Mon Apr 28 2025 16:05:28 GMT-0500 (Central Daylight Time),556120.3000000119,A,t,O,t,708,1,717.6999999880791,555402.6000000238,7133,WL,A,7.0
5,11.94599986076355,learn,60000.0,Mon Apr 28 2025 16:05:28 GMT-0500 (Central Daylight Time),556303.2000000179,A,tr,O,r,154,1,900.5999999940395,555402.6000000238,7133,WL,A,7.0
5,12.027999877929688,learn,60000.0,Mon Apr 28 2025 16:05:28 GMT-0500 (Central Daylight Time),556385.400000006,A,tra,O,a,48,1,982.7999999821186,555402.6000000238,7133,WL,A,7.0
5,12.178999900817871,learn,60000.0,Mon Apr 28 2025 16:05:28 GMT-0500 (Central Daylight Time),556535.8000000119,A,trai,O,i,119,1,1133.199999988079,555402.6000000238,7133,WL,A,7.0
5,12.244999885559082,learn,60000.0,Mon Apr 28 2025 16:05:28 GMT-0500 (Central Daylight Time),556602.0,A,train,O,n,45,1,1199.3999999761581,555402.6000000238,7133,WL,A,7.0
5,12.678999900817871,learn,60000.0,Mon Apr 28 2025 16:05:28 GMT-0500 (Central Daylight Time),557036.400000006,A,trainenter,O,enter,409,1,1633.7999999821186,555402.6000000238,7133,WL,A,7.0
5,12.895999908447266,learn,60000.0,Mon Apr 28 2025 16:05:28 GMT-0500 (Central Daylight Time),557252.8000000119,A,b,O,b,202,1,216.09999999403954,557036.7000000179,7133,WL,A,8.0
5,13.095999956130981,learn,60000.0,Mon Apr 28 2025 16:05:28 GMT-0500 (Central Daylight Time),557453.7000000179,A,bo,O,o,175,1,417.0,557036.7000000179,7133,WL,A,8.0
5,13.245999813079834,learn,60000.0,Mon Apr 28 2025 16:05:28 GMT-0500 (Central Daylight Time),557602.8000000119,A,boo,O,o,115,1,566.0999999940395,557036.7000000179,7133,WL,A,8.0
5,13.411999940872192,learn,60000.0,Mon Apr 28 2025 16:05:28 GMT-0500 (Central Daylight Time),557768.8000000119,A,book,O,k,132,1,732.0999999940395,557036.7000000179,7133,WL,A,8.0
5,13.560999870300293,learn,60000.0,Mon Apr 28 2025 16:05:28 GMT-0500 (Central Daylight Time),557918.2000000179,A,bookenter,O,enter,113,1,881.5,557036.7000000179,7133,WL,A,8.0
5,13.811999797821045,learn,60000.0,Mon Apr 28 2025 16:05:28 GMT-0500 (Central Daylight Time),558169.2000000179,A,h,O,h,231,1,250.7000000178814,557918.5,7133,WL,A,9.0
5,13.911999940872192,learn,60000.0,Mon Apr 28 2025 16:05:28 GMT-0500 (Central Daylight Time),558269.0,A,ha,O,a,75,1,350.5,557918.5,7133,WL,A,9.0
5,13.967999935150146,learn,60000.0,Mon Apr 28 2025 16:05:28 GMT-0500 (Central Daylight Time),558325.5,A,har,O,r,29,1,407.0,557918.5,7133,WL,A,9.0
5,14.161999940872192,learn,60000.0,Mon Apr 28 2025 16:05:28 GMT-0500 (Central Daylight Time),558519.0,A,harp,O,p,168,1,600.5,557918.5,7133,WL,A,9.0
5,14.460999965667725,learn,60000.0,Mon Apr 28 2025 16:05:28 GMT-0500 (Central Daylight Time),558818.0,A,harpenter,O,enter,268,1,899.5,557918.5,7133,WL,A,9.0
5,16.543999910354614,learn,60000.0,Mon Apr 28 2025 16:05:28 GMT-0500 (Central Daylight Time),560901.7000000179,A,f,O,f,2068,1,2083.5,558818.2000000179,7133,WL,A,10.0
5,16.693999767303467,learn,60000.0,Mon Apr 28 2025 16:05:28 GMT-0500 (Central Daylight Time),561051.7000000179,A,fl,O,l,111,1,2233.5,558818.2000000179,7133,WL,A,10.0
5,16.860999822616577,learn,60000.0,Mon Apr 28 2025 16:05:28 GMT-0500 (Central Daylight Time),561217.8000000119,A,flo,O,o,139,1,2399.5999999940395,558818.2000000179,7133,WL,A,10.0
5,16.926999807357788,learn,60000.0,Mon Apr 28 2025 16:05:28 GMT-0500 (Central Daylight Time),561283.8000000119,A,flow,O,w,43,1,2465.5999999940395,558818.2000000179,7133,WL,A,10.0
5,16.942999839782715,learn,60000.0,Mon Apr 28 2025 16:05:28 GMT-0500 (Central Daylight Time),561300.3000000119,A,flowe,O,e,1,1,2482.0999999940395,558818.2000000179,7133,WL,A,10.0
5,17.025999784469604,learn,60000.0,Mon Apr 28 2025 16:05:28 GMT-0500 (Central Daylight Time),561383.6000000238,A,flower,O,r,59,1,2565.4000000059605,558818.2000000179,7133,WL,A,10.0
5,17.325999975204468,learn,60000.0,Mon Apr 28 2025 16:05:28 GMT-0500 (Central Daylight Time),561683.5,A,flowerenter,O,enter,277,1,2865.2999999821186,558818.2000000179,7133,WL,A,10.0
5,17.643999814987183,learn,60000.0,Mon Apr 28 2025 16:05:28 GMT-0500 (Central Daylight Time),562001.5,A,m,O,m,298,1,317.69999998807907,561683.8000000119,7133,WL,A,11.0
5,17.76099991798401,learn,60000.0,Mon Apr 28 2025 16:05:28 GMT-0500 (Central Daylight Time),562117.900000006,A,me,O,e,79,1,434.09999999403954,561683.8000000119,7133,WL,A,11.0
5,17.859999895095825,learn,60000.0,Mon Apr 28 2025 16:05:28 GMT-0500 (Central Daylight Time),562217.0,A,mea,O,a,65,1,533.1999999880791,561683.8000000119,7133,WL,A,11.0
5,18.127999782562256,learn,60000.0,Mon Apr 28 2025 16:05:28 GMT-0500 (Central Daylight Time),562485.0,A,mead,O,d,253,1,801.1999999880791,561683.8000000119,7133,WL,A,11.0
5,18.276999950408936,learn,60000.0,Mon Apr 28 2025 16:05:28 GMT-0500 (Central Daylight Time),562634.400000006,A,meado,O,o,110,1,950.5999999940395,561683.8000000119,7133,WL,A,11.0
5,18.459999799728394,learn,60000.0,Mon Apr 28 2025 16:05:28 GMT-0500 (Central Daylight Time),562817.6000000238,A,meadow,O,w,145,1,1133.800000011921,561683.8000000119,7133,WL,A,11.0
5,18.70899987220764,learn,60000.0,Mon Apr 28 2025 16:05:28 GMT-0500 (Central Daylight Time),563066.5,A,meadowenter,O,enter,209,1,1382.699999988079,561683.8000000119,7133,WL,A,11.0
5,19.542999982833862,learn,60000.0,Mon Apr 28 2025 16:05:28 GMT-0500 (Central Daylight Time),563900.5,A,t,O,t,820,1,833.7999999821186,563066.7000000179,7133,WL,A,12.0
5,19.742999792099,learn,60000.0,Mon Apr 28 2025 16:05:28 GMT-0500 (Central Daylight Time),564100.6000000238,A,tr,O,r,161,1,1033.9000000059605,563066.7000000179,7133,WL,A,12.0
5,19.80899977684021,learn,60000.0,Mon Apr 28 2025 16:05:28 GMT-0500 (Central Daylight Time),564166.400000006,A,tra,O,a,38,1,1099.699999988079,563066.7000000179,7133,WL,A,12.0
5,19.875999927520752,learn,60000.0,Mon Apr 28 2025 16:05:28 GMT-0500 (Central Daylight Time),564232.7000000179,A,trai,O,i,41,1,1166.0,563066.7000000179,7133,WL,A,12.0
5,19.97599983215332,learn,60000.0,Mon Apr 28 2025 16:05:28 GMT-0500 (Central Daylight Time),564333.3000000119,A,train,O,n,92,1,1266.5999999940395,563066.7000000179,7133,WL,A,12.0
5,20.22599983215332,learn,60000.0,Mon Apr 28 2025 16:05:28 GMT-0500 (Central Daylight Time),564582.7000000179,A,trainenter,O,enter,221,1,1516.0,563066.7000000179,7133,WL,A,12.0
5,22.658999919891357,learn,60000.0,Mon Apr 28 2025 16:05:28 GMT-0500 (Central Daylight Time),567016.1000000238,A,b,O,b,2423,1,2433.100000023842,564583.0,7133,WL,A,13.0
5,22.89199995994568,learn,60000.0,Mon Apr 28 2025 16:05:28 GMT-0500 (Central Daylight Time),567249.6000000238,A,bo,O,o,203,1,2666.600000023842,564583.0,7133,WL,A,13.0
5,23.05899977684021,learn,60000.0,Mon Apr 28 2025 16:05:28 GMT-0500 (Central Daylight Time),567416.1000000238,A,boo,O,o,139,1,2833.100000023842,564583.0,7133,WL,A,13.0
5,23.125,learn,60000.0,Mon Apr 28 2025 16:05:28 GMT-0500 (Central Daylight Time),567482.2000000179,A,book,O,k,34,1,2899.2000000178814,564583.0,7133,WL,A,13.0
5,23.424999952316284,learn,60000.0,Mon Apr 28 2025 16:05:28 GMT-0500 (Central Daylight Time),567781.7000000179,A,bookenter,O,enter,276,1,3198.7000000178814,564583.0,7133,WL,A,13.0
5,23.607999801635742,learn,60000.0,Mon Apr 28 2025 16:05:28 GMT-0500 (Central Daylight Time),567964.900000006,A,f,O,f,167,1,183.0,567781.900000006,7133,WL,A,14.0
5,23.70799994468689,learn,60000.0,Mon Apr 28 2025 16:05:28 GMT-0500 (Central Daylight Time),568064.900000006,A,fl,O,l,79,1,283.0,567781.900000006,7133,WL,A,14.0
5,23.890999794006348,learn,60000.0,Mon Apr 28 2025 16:05:28 GMT-0500 (Central Daylight Time),568248.2000000179,A,flo,O,o,163,1,466.30000001192093,567781.900000006,7133,WL,A,14.0
5,23.94099998474121,learn,60000.0,Mon Apr 28 2025 16:05:28 GMT-0500 (Central Daylight Time),568298.1000000238,A,flow,O,w,36,1,516.2000000178814,567781.900000006,7133,WL,A,14.0
5,23.990999937057495,learn,60000.0,Mon Apr 28 2025 16:05:28 GMT-0500 (Central Daylight Time),568348.0,A,flowe,O,e,34,1,566.0999999940395,567781.900000006,7133,WL,A,14.0
5,24.073999881744385,learn,60000.0,Mon Apr 28 2025 16:05:28 GMT-0500 (Central Daylight Time),568431.400000006,A,flower,O,r,72,1,649.5,567781.900000006,7133,WL,A,14.0
5,24.37399983406067,learn,60000.0,Mon Apr 28 2025 16:05:28 GMT-0500 (Central Daylight Time),568731.1000000238,A,flowerenter,O,enter,292,1,949.2000000178814,567781.900000006,7133,WL,A,14.0
5,25.60699987411499,learn,60000.0,Mon Apr 28 2025 16:05:28 GMT-0500 (Central Daylight Time),569964.3000000119,A,c,O,c,1217,1,1232.9000000059605,568731.400000006,7133,WL,A,15.0
5,25.723999977111816,learn,60000.0,Mon Apr 28 2025 16:05:28 GMT-0500 (Central Daylight Time),570080.8000000119,A,ch,O,h,103,1,1349.4000000059605,568731.400000006,7133,WL,A,15.0
5,25.823999881744385,learn,60000.0,Mon Apr 28 2025 16:05:28 GMT-0500 (Central Daylight Time),570180.8000000119,A,chi,O,i,83,1,1449.4000000059605,568731.400000006,7133,WL,A,15.0
5,26.02299976348877,learn,60000.0,Mon Apr 28 2025 16:05:28 GMT-0500 (Central Daylight Time),570380.7000000179,A,chim,O,m,191,1,1649.300000011921,568731.400000006,7133,WL,A,15.0
5,26.20699977874756,learn,60000.0,Mon Apr 28 2025 16:05:28 GMT-0500 (Central Daylight Time),570563.900000006,A,chime,O,e,175,1,1832.5,568731.400000006,7133,WL,A,15.0
5,26.29099988937378,learn,60000.0,Mon Apr 28 2025 16:05:28 GMT-0500 (Central Daylight Time),570647.900000006,A,chimen,O,n,73,1,1916.5,568731.400000006,7133,WL,A,15.0
5,26.473999977111816,learn,60000.0,Mon Apr 28 2025 16:05:28 GMT-0500 (Central Daylight Time),570831.6000000238,A,chimeny,O,y,164,1,2100.2000000178814,568731.400000006,7133,WL,A,15.0
5,26.77299976348877,learn,60000.0,Mon Apr 28 2025 16:05:28 GMT-0500 (Central Daylight Time),571130.6000000238,A,chimenyenter,O,enter,270,1,2399.2000000178814,568731.400000006,7133,WL,A,15.0
6,1.683000087738037,distr,58316.99991226196,Mon Apr 28 2025 16:05:28 GMT-0500 (Central Daylight Time),650538.900000006,B,b,O,b,1644,1,1682.2999999821186,648856.6000000238,7133,WL,A,1.0
6,1.8500001430511475,distr,58149.99985694885,Mon Apr 28 2025 16:05:28 GMT-0500 (Central Daylight Time),650705.7000000179,B,bo,O,o,130,1,1849.0999999940395,648856.6000000238,7133,WL,A,1.0
6,1.9320001602172852,distr,58067.999839782715,Mon Apr 28 2025 16:05:28 GMT-0500 (Central Daylight Time),650787.8000000119,B,bow,O,w,47,1,1931.199999988079,648856.6000000238,7133,WL,A,1.0
6,2.0490000247955322,distr,57950.99997520447,Mon Apr 28 2025 16:05:28 GMT-0500 (Central Daylight Time),650904.7000000179,B,bowe,O,e,94,1,2048.0999999940395,648856.6000000238,7133,WL,A,1.0
6,2.499000072479248,distr,57500.99992752075,Mon Apr 28 2025 16:05:28 GMT-0500 (Central Daylight Time),651355.1000000238,B,bow,O,backspace,430,1,2498.5,648856.6000000238,7133,WL,A,1.0
6,2.7160000801086426,distr,57283.99991989136,Mon Apr 28 2025 16:05:28 GMT-0500 (Central Daylight Time),651571.8000000119,B,bowl,O,l,181,1,2715.199999988079,648856.6000000238,7133,WL,A,1.0
6,2.932000160217285,distr,57067.999839782715,Mon Apr 28 2025 16:05:28 GMT-0500 (Central Daylight Time),651787.400000006,B,bowlenter,O,enter,175,1,2930.7999999821186,648856.6000000238,7133,WL,A,1.0
6,3.3500001430511475,distr,56649.99985694885,Mon Apr 28 2025 16:05:28 GMT-0500 (Central Daylight Time),652205.7000000179,B,d,O,d,412,1,418.09999999403954,651787.6000000238,7133,WL,A,2.0
6,3.505000114440918,distr,56494.99988555908,Mon Apr 28 2025 16:05:28 GMT-0500 (Central Daylight Time),652361.2000000179,B,da,O,a,130,1,573.5999999940395,651787.6000000238,7133,WL,A,2.0
6,3.7320001125335693,distr,56267.99988746643,Mon Apr 28 2025 16:05:28 GMT-0500 (Central Daylight Time),652588.2000000179,B,daw,O,w,200,1,800.5999999940395,651787.6000000238,7133,WL,A,2.0
6,3.8989999294281006,distr,56101.0000705719,Mon Apr 28 2025 16:05:28 GMT-0500 (Central Daylight Time),652755.0,B,dawn,O,n,127,1,967.3999999761581,651787.6000000238,7133,WL,A,2.0
6,4.164999961853027,distr,55835.00003814697,Mon Apr 28 2025 16:05:28 GMT-0500 (Central Daylight Time),653020.400000006,B,dawnenter,O,enter,238,1,1232.7999999821186,651787.6000000238,7133,WL,A,2.0
6,4.682000160217285,distr,55317.999839782715,Mon Apr 28 2025 16:05:28 GMT-0500 (Central Daylight Time),653537.8000000119,B,p,O,p,497,1,517.1999999880791,653020.6000000238,7133,WL,A,3.0
6,4.848999977111816,distr,55151.00002288818,Mon Apr 28 2025 16:05:28 GMT-0500 (Central Daylight Time),653704.5,B,po,O,o,139,1,683.8999999761581,653020.6000000238,7133,WL,A,3.0
6,5.015000104904175,distr,54984.999895095825,Mon Apr 28 2025 16:05:28 GMT-0500 (Central Daylight Time),653870.6000000238,B,poo,O,o,130,1,850.0,653020.6000000238,7133,WL,A,3.0
6,5.215000152587891,distr,54784.99984741211,Mon Apr 28 2025 16:05:28 GMT-0500 (Central Daylight Time),654071.0,B,pool,O,l,183,1,1050.3999999761581,653020.6000000238,7133,WL,A,3.0
6,5.38100004196167,distr,54618.99995803833,Mon Apr 28 2025 16:05:28 GMT-0500 (Central Daylight Time),654236.6000000238,B,poolenter,O,enter,138,1,1216.0,653020.6000000238,7133,WL,A,3.0
6,6.098999977111816,distr,53901.00002288818,Mon Apr 28 2025 16:05:28 GMT-0500 (Central Daylight Time),654954.2000000179,B,p,O,p,698,1,717.4000000059605,654236.8000000119,7133,WL,A,4.0
6,6.180999994277954,distr,53819.000005722046,Mon Apr 28 2025 16:05:28 GMT-0500 (Central Daylight Time),655036.400000006,B,pe,O,e,56,1,799.5999999940395,654236.8000000119,7133,WL,A,4.0
6,6.281000137329102,distr,53718.9998626709,Mon Apr 28 2025 16:05:28 GMT-0500 (Central Daylight Time),655136.5,B,pea,O,a,75,1,899.6999999880791,654236.8000000119,7133,WL,A,4.0
6,6.549000024795532,distr,53450.99997520447,Mon Apr 28 2025 16:05:28 GMT-0500 (Central Daylight Time),655404.1000000238,B,peac,O,c,245,1,1167.300000011921,654236.8000000119,7133,WL,A,4.0
6,6.63100004196167,distr,53368.99995803833,Mon Apr 28 2025 16:05:28 GMT-0500 (Central Daylight Time),655486.8000000119,B,peach,O,h,50,1,1250.0,654236.8000000119,7133,WL,A,4.0
6,6.88100004196167,distr,53118.99995803833,Mon Apr 28 2025 16:05:28 GMT-0500 (Central Daylight Time),655736.3000000119,B,peachenter,O,enter,212,1,1499.5,654236.8000000119,7133,WL,A,4.0
6,7.897000074386597,distr,52102.9999256134,Mon Apr 28 2025 16:05:28 GMT-0500 (Central Daylight Time),656752.3000000119,B,b,O,b,997,1,1015.8000000119209,655736.5,7133,WL,A,5.0
6,8.04699993133545,distr,51953.00006866455,Mon Apr 28 2025 16:05:28 GMT-0500 (Central Daylight Time),656902.400000006,B,bo,O,o,140,1,1165.9000000059605,655736.5,7133,WL,A,5.0
6,8.164000034332275,distr,51835.999965667725,Mon Apr 28 2025 16:05:28 GMT-0500 (Central Daylight Time),657019.2000000179,B,bot,O,t,102,1,1282.7000000178814,655736.5,7133,WL,A,5.0
6,8.314000129699707,distr,51685.99987030029,Mon Apr 28 2025 16:05:28 GMT-0500 (Central Daylight Time),657169.8000000119,B,bott,O,t,138,1,1433.300000011921,655736.5,7133,WL,A,5.0
6,8.413000106811523,distr,51586.99989318848,Mon Apr 28 2025 16:05:28 GMT-0500 (Central Daylight Time),657268.900000006,B,bottl,O,l,75,1,1532.4000000059605,655736.5,7133,WL,A,5.0
6,8.52999997138977,distr,51470.00002861023,Mon Apr 28 2025 16:05:28 GMT-0500 (Central Daylight Time),657385.5,B,bottle,O,e,104,1,1649.0,655736.5,7133,WL,A,5.0
6,8.730000019073486,distr,51269.999980926514,Mon Apr 28 2025 16:05:28 GMT-0500 (Central Daylight Time),657585.5,B,bottleenter,O,enter,179,1,1849.0,655736.5,7133,WL,A,5.0
6,9.513000011444092,distr,50486.99998855591,Mon Apr 28 2025 16:05:28 GMT-0500 (Central Daylight Time),658368.5,B,d,O,d,771,1,782.7999999821186,657585.7000000179,7133,WL,A,6.0
6,9.647000074386597,distr,50352.9999256134,Mon Apr 28 2025 16:05:28 GMT-0500 (Central Daylight Time),658502.7000000179,B,da,O,a,125,1,917.0,657585.7000000179,7133,WL,A,6.0
6,9.86300015449524,distr,50136.99984550476,Mon Apr 28 2025 16:05:28 GMT-0500 (Central Daylight Time),658718.5,B,daw,O,w,192,1,1132.7999999821186,657585.7000000179,7133,WL,A,6.0
6,10.013000011444092,distr,49986.99998855591,Mon Apr 28 2025 16:05:28 GMT-0500 (Central Daylight Time),658868.400000006,B,dawn,O,n,134,1,1282.699999988079,657585.7000000179,7133,WL,A,6.0
6,10.595999956130981,distr,49404.00004386902,Mon Apr 28 2025 16:05:28 GMT-0500 (Central Daylight Time),659451.6000000238,B,dawnenter,O,enter,560,1,1865.9000000059605,657585.7000000179,7133,WL,A,6.0
6,15.26200008392334,distr,44737.99991607666,Mon Apr 28 2025 16:05:28 GMT-0500 (Central Daylight Time),664117.7000000179,B,j,O,j,4651,1,4665.800000011921,659451.900000006,7133,WL,A,7.0
6,15.462000131607056,distr,44537.999868392944,Mon Apr 28 2025 16:05:28 GMT-0500 (Central Daylight Time),664317.6000000238,B,ju,O,u,174,1,4865.700000017881,659451.900000006,7133,WL,A,7.0
6,15.628999948501587,distr,44371.00005149841,Mon Apr 28 2025 16:05:28 GMT-0500 (Central Daylight Time),664484.1000000238,B,jud,O,d,134,1,5032.200000017881,659451.900000006,7133,WL,A,7.0
6,15.82800006866455,distr,44171.99993133545,Mon Apr 28 2025 16:05:28 GMT-0500 (Central Daylight Time),664683.7000000179,B,judg,O,g,160,1,5231.800000011921,659451.900000006,7133,WL,A,7.0
6,15.979000091552734,distr,44020.999908447266,Mon Apr 28 2025 16:05:28 GMT-0500 (Central Daylight Time),664834.2000000179,B,judge,O,e,118,1,5382.300000011921,659451.900000006,7133,WL,A,7.0
6,16.594000101089478,distr,43405.99989891052,Mon Apr 28 2025 16:05:28 GMT-0500 (Central Daylight Time),665449.6000000238,B,judgeenter,O,enter,583,1,5997.700000017881,659451.900000006,7133,WL,A,7.0
6,19.592999935150146,distr,40407.00006484985,Mon Apr 28 2025 16:05:28 GMT-0500 (Central Daylight Time),668448.5,B,enter,O,enter,2986,1,2998.5,665450.0,7133,WL,A,8.0
6,19.759999990463257,distr,40240.00000953674,Mon Apr 28 2025 16:05:28 GMT-0500 (Central Daylight Time),668615.1000000238,B,enter,O,enter,155,1,166.2000000178814,668448.900000006,7133,WL,A,9.0
6,19.926000118255615,distr,40073.999881744385,Mon Apr 28 2025 16:05:28 GMT-0500 (Central Daylight Time),668781.7000000179,B,enter,O,enter,157,1,166.30000001192093,668615.400000006,7133,WL,A,10.0
6,20.075999975204468,distr,39924.00002479553,Mon Apr 28 2025 16:05:28 GMT-0500 (Central Daylight Time),668931.8000000119,B,enter,O,enter,143,1,149.80000001192093,668782.0,7133,WL,A,11.0
6,20.2260000705719,distr,39773.9999294281,Mon Apr 28 2025 16:05:28 GMT-0500 (Central Daylight Time),669081.5,B,enter,O,enter,137,1,149.2999999821186,668932.2000000179,7133,WL,A,12.0
6,20.426000118255615,distr,39573.999881744385,Mon Apr 28 2025 16:05:28 GMT-0500 (Central Daylight Time),669281.6000000238,B,enter,O,enter,179,1,199.80000001192093,669081.8000000119,7133,WL,A,13.0
6,20.592999935150146,distr,39407.00006484985,Mon Apr 28 2025 16:05:28 GMT-0500 (Central Daylight Time),669448.1000000238,B,enter,O,enter,147,1,166.10000002384186,669282.0,7133,WL,A,14.0
6,20.7260000705719,distr,39273.9999294281,Mon Apr 28 2025 16:05:28 GMT-0500 (Central Daylight Time),669581.5,B,enter,O,enter,117,1,133.09999999403954,669448.400000006,7133,WL,A,15.0
7,7.598999977111816,immed,52401.00002288818,Mon Apr 28 2025 16:05:28 GMT-0500 (Central Daylight Time),678646.5,A,b,O,b,7584,1,7598.699999988079,671047.8000000119,7133,WL,A,1.0
7,7.81499981880188,immed,52185.00018119812,Mon Apr 28 2025 16:05:28 GMT-0500 (Central Daylight Time),678862.900000006,A,bo,O,o,182,1,7815.0999999940395,671047.8000000119,7133,WL,A,1.0
7,7.9659998416900635,immed,52034.00015830994,Mon Apr 28 2025 16:05:28 GMT-0500 (Central Daylight Time),679013.3000000119,A,boo,O,o,127,1,7965.5,671047.8000000119,7133,WL,A,1.0
7,8.1489999294281,immed,51851.0000705719,Mon Apr 28 2025 16:05:28 GMT-0500 (Central Daylight Time),679196.2000000179,A,book,O,k,146,1,8148.4000000059605,671047.8000000119,7133,WL,A,1.0
7,8.680999994277954,immed,51319.000005722046,Mon Apr 28 2025 16:05:28 GMT-0500 (Central Daylight Time),679728.3000000119,A,bookenter,O,enter,501,1,8680.5,671047.8000000119,7133,WL,A,1.0
7,9.115000009536743,immed,50884.99999046326,Mon Apr 28 2025 16:05:28 GMT-0500 (Central Daylight Time),680162.3000000119,A,t,O,t,423,1,433.69999998807907,679728.6000000238,7133,WL,A,2.0
7,9.297999858856201,immed,50702.0001411438,Mon Apr 28 2025 16:05:28 GMT-0500 (Central Daylight Time),680346.0,A,tr,O,r,144,1,617.3999999761581,679728.6000000238,7133,WL,A,2.0
7,9.365000009536743,immed,50634.99999046326,Mon Apr 28 2025 16:05:28 GMT-0500 (Central Daylight Time),680413.0,A,tra,O,a,42,1,684.3999999761581,679728.6000000238,7133,WL,A,2.0
7,9.46399998664856,immed,50536.00001335144,Mon Apr 28 2025 16:05:28 GMT-0500 (Central Daylight Time),680511.400000006,A,trai,O,i,78,1,782.7999999821186,679728.6000000238,7133,WL,A,2.0
7,9.563999891281128,immed,50436.00010871887,Mon Apr 28 2025 16:05:28 GMT-0500 (Central Daylight Time),680611.2000000179,A,train,O,n,91,1,882.5999999940395,679728.6000000238,7133,WL,A,2.0
7,9.79699993133545,immed,50203.00006866455,Mon Apr 28 2025 16:05:28 GMT-0500 (Central Daylight Time),680844.6000000238,A,trainenter,O,enter,225,1,1116.0,679728.6000000238,7133,WL,A,2.0
7,10.080999851226807,immed,49919.00014877319,Mon Apr 28 2025 16:05:28 GMT-0500 (Central Daylight Time),681129.3000000119,A,b,O,b,273,1,284.5,680844.8000000119,7133,WL,A,3.0
7,10.246999979019165,immed,49753.000020980835,Mon Apr 28 2025 16:05:28 GMT-0500 (Central Daylight Time),681294.8000000119,A,bo,O,o,137,1,450.0,680844.8000000119,7133,WL,A,3.0
7,10.398000001907349,immed,49601.99999809265,Mon Apr 28 2025 16:05:28 GMT-0500 (Central Daylight Time),681445.7000000179,A,bot,O,t,119,1,600.9000000059605,680844.8000000119,7133,WL,A,3.0
7,10.547999858856201,immed,49452.0001411438,Mon Apr 28 2025 16:05:28 GMT-0500 (Central Daylight Time),681595.5,A,bott,O,t,109,1,750.6999999880791,680844.8000000119,7133,WL,A,3.0
7,10.629999876022339,immed,49370.00012397766,Mon Apr 28 2025 16:05:28 GMT-0500 (Central Daylight Time),681678.0,A,bottl,O,l,46,1,833.1999999880791,680844.8000000119,7133,WL,A,3.0
7,10.712999820709229,immed,49287.00017929077,Mon Apr 28 2025 16:05:28 GMT-0500 (Central Daylight Time),681760.8000000119,A,bottle,O,e,67,1,916.0,680844.8000000119,7133,WL,A,3.0
7,10.929999828338623,immed,49070.00017166138,Mon Apr 28 2025 16:05:28 GMT-0500 (Central Daylight Time),681977.7000000179,A,bottleenter,O,enter,195,1,1132.9000000059605,680844.8000000119,7133,WL,A,3.0
7,16.978999853134155,immed,43021.000146865845,Mon Apr 28 2025 16:05:28 GMT-0500 (Central Daylight Time),688026.8000000119,A,h,O,h,6028,1,6048.9000000059605,681977.900000006,7133,WL,A,4.0
7,17.061999797821045,immed,42938.000202178955,Mon Apr 28 2025 16:05:28 GMT-0500 (Central Daylight Time),688109.7000000179,A,ha,O,a,47,1,6131.800000011921,681977.900000006,7133,WL,A,4.0
7,17.144999980926514,immed,42855.000019073486,Mon Apr 28 2025 16:05:28 GMT-0500 (Central Daylight Time),688192.900000006,A,har,O,r,59,1,6215.0,681977.900000006,7133,WL,A,4.0
7,17.296000003814697,immed,42703.9999961853,Mon Apr 28 2025 16:05:28 GMT-0500 (Central Daylight Time),688343.2000000179,A,harp,O,p,122,1,6365.300000011921,681977.900000006,7133,WL,A,4.0
7,17.527999877929688,immed,42472.00012207031,Mon Apr 28 2025 16:05:28 GMT-0500 (Central Daylight Time),688575.5,A,harpenter,O,enter,205,1,6597.5999999940395,681977.900000006,7133,WL,A,4.0
7,18.02899980545044,immed,41971.00019454956,Mon Apr 28 2025 16:05:28 GMT-0500 (Central Daylight Time),689076.3000000119,A,s,O,s,487,1,500.59999999403954,688575.7000000179,7133,WL,A,5.0
7,18.127999782562256,immed,41872.000217437744,Mon Apr 28 2025 16:05:28 GMT-0500 (Central Daylight Time),689175.900000006,A,sa,O,a,79,1,600.1999999880791,688575.7000000179,7133,WL,A,5.0
7,18.26199984550476,immed,41738.00015449524,Mon Apr 28 2025 16:05:28 GMT-0500 (Central Daylight Time),689309.7000000179,A,sal,O,l,108,1,734.0,688575.7000000179,7133,WL,A,5.0
7,18.828999996185303,immed,41171.0000038147,Mon Apr 28 2025 16:05:28 GMT-0500 (Central Daylight Time),689876.3000000119,A,salt,O,t,534,1,1300.5999999940395,688575.7000000179,7133,WL,A,5.0
7,19.01099991798401,immed,40989.00008201599,Mon Apr 28 2025 16:05:28 GMT-0500 (Central Daylight Time),690058.3000000119,A,saltenter,O,enter,142,1,1482.5999999940395,688575.7000000179,7133,WL,A,5.0
7,20.710999965667725,immed,39289.000034332275,Mon Apr 28 2025 16:05:28 GMT-0500 (Central Daylight Time),691758.8000000119,A,m,O,m,1685,1,1700.199999988079,690058.6000000238,7133,WL,A,6.0
7,20.8439998626709,immed,39156.0001373291,Mon Apr 28 2025 16:05:28 GMT-0500 (Central Daylight Time),691892.0,A,me,O,e,95,1,1833.3999999761581,690058.6000000238,7133,WL,A,6.0
7,20.942999839782715,immed,39057.000160217285,Mon Apr 28 2025 16:05:28 GMT-0500 (Central Daylight Time),691991.0,A,mea,O,a,63,1,1932.3999999761581,690058.6000000238,7133,WL,A,6.0
7,21.194000005722046,immed,38805.999994277954,Mon Apr 28 2025 16:05:28 GMT-0500 (Central Daylight Time),692241.8000000119,A,mead,O,d,224,1,2183.199999988079,690058.6000000238,7133,WL,A,6.0
7,21.32699990272522,immed,38673.00009727478,Mon Apr 28 2025 16:05:28 GMT-0500 (Central Daylight Time),692374.900000006,A,meado,O,o,103,1,2316.2999999821186,690058.6000000238,7133,WL,A,6.0
7,21.477999925613403,immed,38522.0000743866,Mon Apr 28 2025 16:05:28 GMT-0500 (Central Daylight Time),692525.8000000119,A,meadow,O,w,126,1,2467.199999988079,690058.6000000238,7133,WL,A,6.0
7,21.692999839782715,immed,38307.000160217285,Mon Apr 28 2025 16:05:28 GMT-0500 (Central Daylight Time),692740.7000000179,A,meadowenter,O,enter,187,1,2682.0999999940395,690058.6000000238,7133,WL,A,6.0
7,21.893999814987183,immed,38106.00018501282,Mon Apr 28 2025 16:05:28 GMT-0500 (Central Daylight Time),692941.7000000179,A,f,O,f,185,1,200.80000001192093,692740.900000006,7133,WL,A,7.0
7,22.01099991798401,immed,37989.00008201599,Mon Apr 28 2025 16:05:28 GMT-0500 (Central Daylight Time),693058.3000000119,A,fl,O,l,85,1,317.40000000596046,692740.900000006,7133,WL,A,7.0
7,22.176999807357788,immed,37823.00019264221,Mon Apr 28 2025 16:05:28 GMT-0500 (Central Daylight Time),693224.8000000119,A,flo,O,o,137,1,483.90000000596046,692740.900000006,7133,WL,A,7.0
7,22.242999792099,immed,37757.000207901,Mon Apr 28 2025 16:05:28 GMT-0500 (Central Daylight Time),693290.7000000179,A,flow,O,w,36,1,549.8000000119209,692740.900000006,7133,WL,A,7.0
7,22.3439998626709,immed,37656.0001373291,Mon Apr 28 2025 16:05:28 GMT-0500 (Central Daylight Time),693391.1000000238,A,flowe,O,e,79,1,650.2000000178814,692740.900000006,7133,WL,A,7.0
7,22.377999782562256,immed,37622.000217437744,Mon Apr 28 2025 16:05:28 GMT-0500 (Central Daylight Time),693425.900000006,A,flower,O,r,13,1,685.0,692740.900000006,7133,WL,A,7.0
7,22.692999839782715,immed,37307.000160217285,Mon Apr 28 2025 16:05:28 GMT-0500 (Central Daylight Time),693740.400000006,A,flowerenter,O,enter,292,1,999.5,692740.900000006,7133,WL,A,7.0
7,26.125,immed,33875.0,Mon Apr 28 2025 16:05:28 GMT-0500 (Central Daylight Time),697172.6000000238,A,g,O,g,3417,1,3432.0,693740.6000000238,7133,WL,A,8.0
7,26.241999864578247,immed,33758.00013542175,Mon Apr 28 2025 16:05:28 GMT-0500 (Central Daylight Time),697289.6000000238,A,go,O,o,97,1,3549.0,693740.6000000238,7133,WL,A,8.0
7,26.408999919891357,immed,33591.00008010864,Mon Apr 28 2025 16:05:28 GMT-0500 (Central Daylight Time),697456.8000000119,A,gol,O,l,149,1,3716.199999988079,693740.6000000238,7133,WL,A,8.0
7,26.507999897003174,immed,33492.000102996826,Mon Apr 28 2025 16:05:28 GMT-0500 (Central Daylight Time),697555.7000000179,A,gold,O,d,67,1,3815.0999999940395,693740.6000000238,7133,WL,A,8.0
7,26.657999992370605,immed,33342.000007629395,Mon Apr 28 2025 16:05:28 GMT-0500 (Central Daylight Time),697705.8000000119,A,goldenter,O,enter,129,1,3965.199999988079,693740.6000000238,7133,WL,A,8.0
7,28.47499990463257,immed,31525.00009536743,Mon Apr 28 2025 16:05:28 GMT-0500 (Central Daylight Time),699523.0,A,h,O,h,1796,1,1817.0,697706.0,7133,WL,A,9.0
7,28.543999910354614,immed,31456.000089645386,Mon Apr 28 2025 16:05:28 GMT-0500 (Central Daylight Time),699591.5,A,ha,O,a,24,1,1885.5,697706.0,7133,WL,A,9.0
7,28.64199995994568,immed,31358.00004005432,Mon Apr 28 2025 16:05:28 GMT-0500 (Central Daylight Time),699689.5,A,har,O,r,82,1,1983.5,697706.0,7133,WL,A,9.0
7,28.824999809265137,immed,31175.000190734863,Mon Apr 28 2025 16:05:28 GMT-0500 (Central Daylight Time),699872.7000000179,A,harp,O,p,153,1,2166.7000000178814,697706.0,7133,WL,A,9.0
7,29.073999881744385,immed,30926.000118255615,Mon Apr 28 2025 16:05:28 GMT-0500 (Central Daylight Time),700121.6000000238,A,harpenter,O,enter,219,1,2415.600000023842,697706.0,7133,WL,A,9.0
7,34.49000000953674,immed,25509.999990463257,Mon Apr 28 2025 16:05:28 GMT-0500 (Central Daylight Time),705537.7000000179,A,t,O,t,5396,1,5415.800000011921,700121.900000006,7133,WL,A,10.0
7,34.68899989128113,immed,25311.000108718872,Mon Apr 28 2025 16:05:28 GMT-0500 (Central Daylight Time),705736.7000000179,A,tr,O,r,169,1,5614.800000011921,700121.900000006,7133,WL,A,10.0
7,34.75599980354309,immed,25244.00019645691,Mon Apr 28 2025 16:05:28 GMT-0500 (Central Daylight Time),705803.2000000179,A,tra,O,a,43,1,5681.300000011921,700121.900000006,7133,WL,A,10.0
7,34.889999866485596,immed,25110.000133514404,Mon Apr 28 2025 16:05:28 GMT-0500 (Central Daylight Time),705937.5,A,trai,O,i,112,1,5815.5999999940395,700121.900000006,7133,WL,A,10.0
7,34.97199988365173,immed,25028.000116348267,Mon Apr 28 2025 16:05:28 GMT-0500 (Central Daylight Time),706019.6000000238,A,train,O,n,57,1,5897.700000017881,700121.900000006,7133,WL,A,10.0
7,35.3219997882843,immed,24678.0002117157,Mon Apr 28 2025 16:05:28 GMT-0500 (Central Daylight Time),706369.6000000238,A,trainenter,O,enter,328,1,6247.700000017881,700121.900000006,7133,WL,A,10.0
7,37.98899984359741,immed,22011.000156402588,Mon Apr 28 2025 16:05:28 GMT-0500 (Central Daylight Time),709036.6000000238,A,g,O,g,2644,1,2666.800000011921,706369.8000000119,7133,WL,A,11.0
7,38.08799982070923,immed,21912.00017929077,Mon Apr 28 2025 16:05:28 GMT-0500 (Central Daylight Time),709135.900000006,A,go,O,o,70,1,2766.0999999940395,706369.8000000119,7133,WL,A,11.0
