Number,acc_sum,block,block_c,block_cond,con_img,correct,correct_response,datetime,endtime,jitter,project,response,response_time,row_sel,session_number,start_end,starttime,subject_id,task,task_vers,trial
2,1,prac,1,A,circle.png,1,z,Tue Feb 18 2025 13:33:34 GMT-0500 (Eastern Standard Time),113886.5,2000,I,z,1095,2,1,3883.800000011921,110002.69999998808,9009,NTS,B,1
3,2,prac,1,A,circle.png,1,z,Tue Feb 18 2025 13:33:34 GMT-0500 (Eastern Standard Time),116669.40000003576,1200,I,z,797,3,1,2770.2000000476837,113899.19999998808,9009,NTS,B,2
6,3,prac,1,A,circle.png,1,m,Tue Feb 18 2025 13:33:34 GMT-0500 (Eastern Standard Time),119903.0,1900,I,m,543,5,1,3221.099999964237,116681.90000003576,9009,NTS,B,3
1,4,prac,1,A,circle.png,1,z,Tue Feb 18 2025 13:33:34 GMT-0500 (Eastern Standard Time),122285.90000003576,1000,I,z,595,1,1,2371.2000000476837,119914.69999998808,9009,NTS,B,4
7,5,prac,1,A,circle.png,1,m,Tue Feb 18 2025 13:33:34 GMT-0500 (Eastern Standard Time),125469.5,1700,I,m,695,6,1,3175.099999964237,122294.40000003576,9009,NTS,B,5
9,6,prac,1,A,circle.png,1,m,Tue Feb 18 2025 13:33:34 GMT-0500 (Eastern Standard Time),128502.30000001192,1500,I,m,737,8,1,3021.199999988079,125481.10000002384,9009,NTS,B,6
4,7,prac,1,A,circle.png,1,z,Tue Feb 18 2025 13:33:34 GMT-0500 (Eastern Standard Time),131536.30000001192,1400,I,z,844,4,1,3025.600000023842,128510.69999998808,9009,NTS,B,7
7,8,prac,1,A,circle.png,1,m,Tue Feb 18 2025 13:33:34 GMT-0500 (Eastern Standard Time),134619.5,1700,I,m,582,6,1,3071.199999988079,131548.30000001192,9009,NTS,B,8
3,9,prac,1,A,circle.png,1,z,Tue Feb 18 2025 13:33:34 GMT-0500 (Eastern Standard Time),137236.30000001192,1200,I,z,622,3,1,2605.0,134631.30000001192,9009,NTS,B,9
4,10,prac,1,A,circle.png,1,z,Tue Feb 18 2025 13:33:34 GMT-0500 (Eastern Standard Time),140169.5,1400,I,z,716,4,1,2912.5,137257.0,9009,NTS,B,10
8,11,prac,1,A,circle.png,1,m,Tue Feb 18 2025 13:33:34 GMT-0500 (Eastern Standard Time),143202.90000003576,1600,I,m,640,7,1,3021.7000000476837,140181.19999998808,9009,NTS,B,11
9,12,prac,1,A,circle.png,1,m,Tue Feb 18 2025 13:33:34 GMT-0500 (Eastern Standard Time),146069.5,1500,I,m,571,8,1,2854.099999964237,143215.40000003576,9009,NTS,B,12
3,1,prac,1,B,triangle.png,1,z,Tue Feb 18 2025 13:33:34 GMT-0500 (Eastern Standard Time),185736.19999998808,1600,I,z,786,3,1,3173.5,182562.69999998808,9009,NTS,B,1
1,2,prac,1,B,triangle.png,1,z,Tue Feb 18 2025 13:33:34 GMT-0500 (Eastern Standard Time),189086.19999998808,1900,I,z,663,1,1,3339.399999976158,185746.80000001192,9009,NTS,B,2
7,2,prac,1,B,triangle.png,0,z,Tue Feb 18 2025 13:33:34 GMT-0500 (Eastern Standard Time),192969.19999998808,2000,I,m,1085,6,1,3870.2999999523163,189098.90000003576,9009,NTS,B,3
8,2,prac,1,B,triangle.png,0,m,Tue Feb 18 2025 13:33:34 GMT-0500 (Eastern Standard Time),196469.19999998808,1200,I,None,1515,7,1,3489.7999999523163,192979.40000003576,9009,NTS,B,4
9,2,prac,1,B,triangle.png,0,z,Tue Feb 18 2025 13:33:34 GMT-0500 (Eastern Standard Time),200169.30000001192,1400,I,None,1515,8,1,3688.699999988079,196480.60000002384,9009,NTS,B,5
6,3,prac,1,B,triangle.png,1,m,Tue Feb 18 2025 13:33:34 GMT-0500 (Eastern Standard Time),202869.30000001192,1000,I,m,906,5,1,2688.100000023842,200181.19999998808,9009,NTS,B,6
2,4,prac,1,B,triangle.png,1,m,Tue Feb 18 2025 13:33:34 GMT-0500 (Eastern Standard Time),206602.69999998808,1700,I,m,1234,2,1,3724.099999964237,202878.60000002384,9009,NTS,B,7
8,5,prac,1,B,triangle.png,1,m,Tue Feb 18 2025 13:33:34 GMT-0500 (Eastern Standard Time),209452.80000001192,1200,I,m,864,7,1,2838.199999988079,206614.60000002384,9009,NTS,B,8
3,6,prac,1,B,triangle.png,1,z,Tue Feb 18 2025 13:33:34 GMT-0500 (Eastern Standard Time),212419.30000001192,1600,I,z,573,3,1,2954.899999976158,209464.40000003576,9009,NTS,B,9
1,7,prac,1,B,triangle.png,1,z,Tue Feb 18 2025 13:33:34 GMT-0500 (Eastern Standard Time),215669.30000001192,1900,I,z,555,1,1,3239.300000011921,212430.0,9009,NTS,B,10
4,8,prac,1,B,triangle.png,1,m,Tue Feb 18 2025 13:33:34 GMT-0500 (Eastern Standard Time),218802.60000002384,1500,I,m,842,4,1,3123.0,215679.60000002384,9009,NTS,B,11
4,9,prac,1,B,triangle.png,1,m,Tue Feb 18 2025 13:33:34 GMT-0500 (Eastern Standard Time),221736.0,1500,I,m,635,4,1,2921.800000011921,218814.19999998808,9009,NTS,B,12
8,1,test,1,A,circle.png,1,m,Tue Feb 18 2025 13:33:34 GMT-0500 (Eastern Standard Time),256069.80000001192,1600,I,m,656,7,1,2274.399999976158,253795.40000003576,9009,NTS,B,1
1,2,test,1,A,circle.png,1,z,Tue Feb 18 2025 13:33:34 GMT-0500 (Eastern Standard Time),257586.0,1000,I,z,493,1,1,1510.5999999642372,256075.40000003576,9009,NTS,B,2
6,3,test,1,A,circle.png,1,m,Tue Feb 18 2025 13:33:34 GMT-0500 (Eastern Standard Time),260452.80000001192,1900,I,m,938,5,1,2857.5,257595.30000001192,9009,NTS,B,3
8,4,test,1,A,circle.png,1,m,Tue Feb 18 2025 13:33:34 GMT-0500 (Eastern Standard Time),262685.5,1600,I,m,614,7,1,2223.800000011921,260461.69999998808,9009,NTS,B,4
4,5,test,1,A,circle.png,1,z,Tue Feb 18 2025 13:33:34 GMT-0500 (Eastern Standard Time),264719.3000000119,1400,I,z,612,4,1,2023.800000011921,262695.5,9009,NTS,B,5
3,6,test,1,A,circle.png,1,z,Tue Feb 18 2025 13:33:34 GMT-0500 (Eastern Standard Time),266769.1999999881,1200,I,z,828,3,1,2041.0999999642372,264728.10000002384,9009,NTS,B,6
1,7,test,1,A,circle.png,1,z,Tue Feb 18 2025 13:33:34 GMT-0500 (Eastern Standard Time),268485.60000002384,1000,I,z,688,1,1,1707.9000000357628,266777.6999999881,9009,NTS,B,7
1,8,test,1,A,circle.png,1,z,Tue Feb 18 2025 13:33:34 GMT-0500 (Eastern Standard Time),270435.90000003576,1000,I,z,924,1,1,1944.4000000357628,268491.5,9009,NTS,B,8
7,9,test,1,A,circle.png,1,m,Tue Feb 18 2025 13:33:34 GMT-0500 (Eastern Standard Time),272719.1999999881,1700,I,m,562,6,1,2274.2999999523163,270444.90000003576,9009,NTS,B,9
2,10,test,1,A,circle.png,1,z,Tue Feb 18 2025 13:33:34 GMT-0500 (Eastern Standard Time),275369.3000000119,2000,I,z,619,2,1,2641.699999988079,272727.60000002384,9009,NTS,B,10
3,11,test,1,A,circle.png,1,z,Tue Feb 18 2025 13:33:34 GMT-0500 (Eastern Standard Time),277419.3000000119,1200,I,z,817,3,1,2040.3999999761581,275378.90000003576,9009,NTS,B,11
2,12,test,1,A,circle.png,1,z,Tue Feb 18 2025 13:33:34 GMT-0500 (Eastern Standard Time),280035.6999999881,2000,I,z,591,2,1,2607.599999964237,277428.10000002384,9009,NTS,B,12
9,13,test,1,A,circle.png,1,m,Tue Feb 18 2025 13:33:34 GMT-0500 (Eastern Standard Time),282202.5,1500,I,m,635,8,1,2157.899999976158,280044.60000002384,9009,NTS,B,13
6,14,test,1,A,circle.png,1,m,Tue Feb 18 2025 13:33:34 GMT-0500 (Eastern Standard Time),285069.1999999881,1900,I,m,932,5,1,2858.199999988079,282211.0,9009,NTS,B,14
6,15,test,1,A,circle.png,1,m,Tue Feb 18 2025 13:33:34 GMT-0500 (Eastern Standard Time),287485.60000002384,1900,I,m,497,5,1,2406.5,285079.10000002384,9009,NTS,B,15
1,16,test,1,A,circle.png,1,z,Tue Feb 18 2025 13:33:34 GMT-0500 (Eastern Standard Time),289135.5,1000,I,z,627,1,1,1641.5999999642372,287493.90000003576,9009,NTS,B,16
3,17,test,1,A,circle.png,1,z,Tue Feb 18 2025 13:33:34 GMT-0500 (Eastern Standard Time),290919.10000002384,1200,I,z,555,3,1,1778.9000000357628,289140.1999999881,9009,NTS,B,17
4,18,test,1,A,circle.png,1,z,Tue Feb 18 2025 13:33:34 GMT-0500 (Eastern Standard Time),293352.40000003576,1400,I,z,1002,4,1,2423.900000035763,290928.5,9009,NTS,B,18
2,19,test,1,A,circle.png,1,z,Tue Feb 18 2025 13:33:34 GMT-0500 (Eastern Standard Time),296002.40000003576,2000,I,z,627,2,1,2641.2000000476837,293361.1999999881,9009,NTS,B,19
4,20,test,1,A,circle.png,1,z,Tue Feb 18 2025 13:33:34 GMT-0500 (Eastern Standard Time),298202.60000002384,1400,I,z,769,4,1,2192.300000011921,296010.3000000119,9009,NTS,B,20
7,21,test,1,A,circle.png,1,m,Tue Feb 18 2025 13:33:34 GMT-0500 (Eastern Standard Time),300602.5,1700,I,m,668,6,1,2390.300000011921,298212.1999999881,9009,NTS,B,21
6,22,test,1,A,circle.png,1,m,Tue Feb 18 2025 13:33:34 GMT-0500 (Eastern Standard Time),303385.8000000119,1900,I,m,854,5,1,2774.300000011921,300611.5,9009,NTS,B,22
9,23,test,1,A,circle.png,1,m,Tue Feb 18 2025 13:33:34 GMT-0500 (Eastern Standard Time),305486.8000000119,1500,I,m,580,8,1,2094.5,303392.3000000119,9009,NTS,B,23
9,24,test,1,A,circle.png,1,m,Tue Feb 18 2025 13:33:34 GMT-0500 (Eastern Standard Time),307519.1999999881,1500,I,m,513,8,1,2023.8999999761581,305495.3000000119,9009,NTS,B,24
3,1,test,1,B,triangle.png,1,z,Tue Feb 18 2025 13:33:34 GMT-0500 (Eastern Standard Time),331369.1999999881,1600,I,z,603,3,1,2225.599999964237,329143.60000002384,9009,NTS,B,1
1,2,test,1,B,triangle.png,1,z,Tue Feb 18 2025 13:33:34 GMT-0500 (Eastern Standard Time),333919.10000002384,1900,I,z,630,1,1,2541.300000011921,331377.8000000119,9009,NTS,B,2
3,3,test,1,B,triangle.png,1,z,Tue Feb 18 2025 13:33:34 GMT-0500 (Eastern Standard Time),336086.0,1600,I,z,540,3,1,2158.300000011921,333927.6999999881,9009,NTS,B,3
6,4,test,1,B,triangle.png,1,m,Tue Feb 18 2025 13:33:34 GMT-0500 (Eastern Standard Time),337819.0,1000,I,m,701,5,1,1724.199999988079,336094.8000000119,9009,NTS,B,4
8,5,test,1,B,triangle.png,1,m,Tue Feb 18 2025 13:33:34 GMT-0500 (Eastern Standard Time),340236.0,1700,I,m,684,15,1,2406.300000011921,337829.6999999881,9009,NTS,B,5
4,6,test,1,B,triangle.png,1,m,Tue Feb 18 2025 13:33:34 GMT-0500 (Eastern Standard Time),342485.6999999881,1500,I,m,723,4,1,2239.2999999523163,340246.40000003576,9009,NTS,B,6
9,7,test,1,B,triangle.png,1,z,Tue Feb 18 2025 13:33:34 GMT-0500 (Eastern Standard Time),345085.60000002384,1900,I,z,681,16,1,2590.699999988079,342494.90000003576,9009,NTS,B,7
3,8,test,1,B,triangle.png,1,z,Tue Feb 18 2025 13:33:34 GMT-0500 (Eastern Standard Time),347735.0,2000,I,z,622,11,1,2640.300000011921,345094.6999999881,9009,NTS,B,8
4,9,test,1,B,triangle.png,1,m,Tue Feb 18 2025 13:33:34 GMT-0500 (Eastern Standard Time),349885.40000003576,1500,I,m,631,4,1,2144.800000011921,347740.60000002384,9009,NTS,B,9
8,10,test,1,B,triangle.png,1,m,Tue Feb 18 2025 13:33:34 GMT-0500 (Eastern Standard Time),351869.40000003576,1200,I,m,765,7,1,1976.4000000357628,349893.0,9009,NTS,B,10
8,11,test,1,B,triangle.png,1,m,Tue Feb 18 2025 13:33:34 GMT-0500 (Eastern Standard Time),354352.60000002384,1700,I,m,762,15,1,2474.5,351878.10000002384,9009,NTS,B,11
2,12,test,1,B,triangle.png,1,m,Tue Feb 18 2025 13:33:34 GMT-0500 (Eastern Standard Time),356352.3000000119,1200,I,m,778,10,1,1988.800000011921,354363.5,9009,NTS,B,12
4,13,test,1,B,triangle.png,1,m,Tue Feb 18 2025 13:33:34 GMT-0500 (Eastern Standard Time),358052.40000003576,1000,I,m,675,12,1,1691.300000011921,356361.10000002384,9009,NTS,B,13
6,14,test,1,B,triangle.png,1,m,Tue Feb 18 2025 13:33:34 GMT-0500 (Eastern Standard Time),360152.6999999881,1500,I,m,572,13,1,2090.2999999523163,358062.40000003576,9009,NTS,B,14
1,15,test,1,B,triangle.png,1,z,Tue Feb 18 2025 13:33:34 GMT-0500 (Eastern Standard Time),362352.40000003576,1400,I,z,779,9,1,2191.0,360161.40000003576,9009,NTS,B,15
7,16,test,1,B,triangle.png,1,z,Tue Feb 18 2025 13:33:34 GMT-0500 (Eastern Standard Time),365502.3000000119,2000,I,z,1130,6,1,3141.199999988079,362361.10000002384,9009,NTS,B,16
8,17,test,1,B,triangle.png,1,m,Tue Feb 18 2025 13:33:34 GMT-0500 (Eastern Standard Time),367469.10000002384,1200,I,m,749,7,1,1956.199999988079,365512.90000003576,9009,NTS,B,17
7,18,test,1,B,triangle.png,1,z,Tue Feb 18 2025 13:33:34 GMT-0500 (Eastern Standard Time),370252.10000002384,2000,I,z,749,6,1,2774.699999988079,367477.40000003576,9009,NTS,B,18
7,19,test,1,B,triangle.png,1,z,Tue Feb 18 2025 13:33:34 GMT-0500 (Eastern Standard Time),372519.1999999881,1600,I,z,639,14,1,2261.599999964237,370257.60000002384,9009,NTS,B,19
6,20,test,1,B,triangle.png,1,m,Tue Feb 18 2025 13:33:34 GMT-0500 (Eastern Standard Time),374769.10000002384,1500,I,m,728,13,1,2239.699999988079,372529.40000003576,9009,NTS,B,20
7,21,test,1,B,triangle.png,1,z,Tue Feb 18 2025 13:33:34 GMT-0500 (Eastern Standard Time),377219.10000002384,1600,I,z,826,14,1,2441.0,374778.10000002384,9009,NTS,B,21
9,22,test,1,B,triangle.png,1,z,Tue Feb 18 2025 13:33:34 GMT-0500 (Eastern Standard Time),379885.3000000119,1400,I,z,1249,8,1,2657.300000011921,377228.0,9009,NTS,B,22
1,23,test,1,B,triangle.png,1,z,Tue Feb 18 2025 13:33:34 GMT-0500 (Eastern Standard Time),381952.10000002384,1400,I,z,646,9,1,2059.300000011921,379892.8000000119,9009,NTS,B,23
2,24,test,1,B,triangle.png,1,m,Tue Feb 18 2025 13:33:34 GMT-0500 (Eastern Standard Time),384302.3000000119,1700,I,m,631,2,1,2343.5,381958.8000000119,9009,NTS,B,24
2,1,prac,1,C,triangle.png,1,m,Tue Feb 18 2025 13:33:34 GMT-0500 (Eastern Standard Time),453385.6999999881,1600,I,m,1435,2,1,3822.7999999523163,449562.90000003576,9009,NTS,B,1
6,1,prac,1,C,circle.png,0,m,Tue Feb 18 2025 13:33:34 GMT-0500 (Eastern Standard Time),457685.60000002384,2000,I,None,1515,5,1,4286.300000011921,453399.3000000119,9009,NTS,B,2
8,1,prac,1,C,triangle.png,0,m,Tue Feb 18 2025 13:33:34 GMT-0500 (Eastern Standard Time),461385.90000003576,1400,I,None,1517,7,1,3690.0,457695.90000003576,9009,NTS,B,3
3,2,prac,1,C,triangle.png,1,z,Tue Feb 18 2025 13:33:34 GMT-0500 (Eastern Standard Time),464569.1999999881,1500,I,z,885,3,1,3172.0,461397.1999999881,9009,NTS,B,4
4,3,prac,1,C,circle.png,1,z,Tue Feb 18 2025 13:33:34 GMT-0500 (Eastern Standard Time),467685.60000002384,1000,I,z,1321,4,1,3105.699999988079,464579.90000003576,9009,NTS,B,5
3,4,prac,1,C,triangle.png,1,z,Tue Feb 18 2025 13:33:34 GMT-0500 (Eastern Standard Time),470786.0,1500,I,z,808,3,1,3089.899999976158,467696.10000002384,9009,NTS,B,6
9,5,prac,1,C,circle.png,1,m,Tue Feb 18 2025 13:33:34 GMT-0500 (Eastern Standard Time),474685.5,1900,I,m,1213,8,1,3888.199999988079,470797.3000000119,9009,NTS,B,7
7,6,prac,1,C,triangle.png,1,z,Tue Feb 18 2025 13:33:34 GMT-0500 (Eastern Standard Time),478019.0,1200,I,z,1324,6,1,3314.800000011921,474704.1999999881,9009,NTS,B,8
7,7,prac,1,C,triangle.png,1,z,Tue Feb 18 2025 13:33:34 GMT-0500 (Eastern Standard Time),480902.40000003576,1200,I,z,888,6,1,2873.2000000476837,478029.1999999881,9009,NTS,B,9
8,8,prac,1,C,triangle.png,1,m,Tue Feb 18 2025 13:33:34 GMT-0500 (Eastern Standard Time),483918.60000002384,1400,I,m,829,7,1,3003.300000011921,480915.3000000119,9009,NTS,B,10
9,9,prac,1,C,circle.png,1,m,Tue Feb 18 2025 13:33:34 GMT-0500 (Eastern Standard Time),487652.3000000119,1900,I,m,1040,8,1,3726.199999988079,483926.10000002384,9009,NTS,B,11
1,10,prac,1,C,circle.png,1,z,Tue Feb 18 2025 13:33:34 GMT-0500 (Eastern Standard Time),490868.90000003576,1700,I,z,722,1,1,3204.300000011921,487664.60000002384,9009,NTS,B,12
9,1,test,1,C,circle.png,1,m,Tue Feb 18 2025 13:33:34 GMT-0500 (Eastern Standard Time),540168.8000000119,1500,I,m,686,8,1,2208.899999976158,537959.9000000358,9009,NTS,B,1
1,1,test,1,C,triangle.png,0,z,Tue Feb 18 2025 13:33:34 GMT-0500 (Eastern Standard Time),543602.1999999881,1900,I,None,1515,9,1,3424.699999988079,540177.5,9009,NTS,B,2
8,2,test,1,C,triangle.png,1,m,Tue Feb 18 2025 13:33:34 GMT-0500 (Eastern Standard Time),546568.8000000119,1600,I,m,1336,7,1,2958.399999976158,543610.4000000358,9009,NTS,B,3
1,3,test,1,C,triangle.png,1,z,Tue Feb 18 2025 13:33:34 GMT-0500 (Eastern Standard Time),549435.6000000238,1900,I,z,934,17,1,2856.5,546579.1000000238,9009,NTS,B,4
3,4,test,1,C,circle.png,1,z,Tue Feb 18 2025 13:33:34 GMT-0500 (Eastern Standard Time),551668.8000000119,1600,I,z,607,11,1,2224.0,549444.8000000119,9009,NTS,B,5
7,5,test,1,C,circle.png,1,m,Tue Feb 18 2025 13:33:34 GMT-0500 (Eastern Standard Time),555052.0,2000,I,m,1350,14,1,3374.099999964237,551677.9000000358,9009,NTS,B,6
1,6,test,1,C,circle.png,1,z,Tue Feb 18 2025 13:33:34 GMT-0500 (Eastern Standard Time),556768.5,1000,I,z,694,1,1,1707.5,555061.0,9009,NTS,B,7
2,6,test,1,C,circle.png,0,z,Tue Feb 18 2025 13:33:34 GMT-0500 (Eastern Standard Time),560002.3000000119,1700,I,None,1515,10,1,3227.300000011921,556775.0,9009,NTS,B,8
9,7,test,1,C,circle.png,1,m,Tue Feb 18 2025 13:33:34 GMT-0500 (Eastern Standard Time),562451.8000000119,1500,I,m,924,24,1,2438.699999988079,560013.1000000238,9009,NTS,B,9
4,8,test,1,C,triangle.png,1,m,Tue Feb 18 2025 13:33:34 GMT-0500 (Eastern Standard Time),565402.1999999881,1500,I,m,1418,12,1,2943.099999964237,562459.1000000238,9009,NTS,B,10
4,9,test,1,C,circle.png,1,z,Tue Feb 18 2025 13:33:34 GMT-0500 (Eastern Standard Time),568202.1999999881,1400,I,z,1368,4,1,2790.699999988079,565411.5,9009,NTS,B,11
4,9,test,1,C,triangle.png,0,m,Tue Feb 18 2025 13:33:34 GMT-0500 (Eastern Standard Time),571235.1000000238,1500,I,None,1516,20,1,3024.0,568211.1000000238,9009,NTS,B,12
2,9,test,1,C,triangle.png,0,m,Tue Feb 18 2025 13:33:34 GMT-0500 (Eastern Standard Time),574085.6000000238,2000,I,z,823,2,1,2845.100000023842,571240.5,9009,NTS,B,13
3,10,test,1,C,circle.png,1,z,Tue Feb 18 2025 13:33:34 GMT-0500 (Eastern Standard Time),577185.4000000358,1600,I,z,1477,19,1,3090.7000000476837,574094.6999999881,9009,NTS,B,14
2,11,test,1,C,circle.png,1,z,Tue Feb 18 2025 13:33:34 GMT-0500 (Eastern Standard Time),579818.8000000119,1700,I,z,899,18,1,2621.899999976158,577196.9000000358,9009,NTS,B,15
8,12,test,1,C,triangle.png,1,m,Tue Feb 18 2025 13:33:34 GMT-0500 (Eastern Standard Time),582485.5,1600,I,m,1040,23,1,2657.399999976158,579828.1000000238,9009,NTS,B,16
7,13,test,1,C,triangle.png,1,z,Tue Feb 18 2025 13:33:34 GMT-0500 (Eastern Standard Time),585602.1999999881,1700,I,z,1393,6,1,3107.7999999523163,582494.4000000358,9009,NTS,B,17
3,14,test,1,C,triangle.png,1,z,Tue Feb 18 2025 13:33:34 GMT-0500 (Eastern Standard Time),587585.3000000119,1200,I,z,760,3,1,1974.1000000238419,585611.1999999881,9009,NTS,B,18
9,14,test,1,C,triangle.png,0,z,Tue Feb 18 2025 13:33:34 GMT-0500 (Eastern Standard Time),589635.1999999881,1400,I,m,625,16,1,2041.699999988079,587593.5,9009,NTS,B,19
6,14,test,1,C,triangle.png,0,m,Tue Feb 18 2025 13:33:34 GMT-0500 (Eastern Standard Time),592168.9000000358,1000,I,None,1516,13,1,2524.800000011921,589644.1000000238,9009,NTS,B,20
8,15,test,1,C,circle.png,1,m,Tue Feb 18 2025 13:33:34 GMT-0500 (Eastern Standard Time),594652.1000000238,1200,I,m,1249,15,1,2474.900000035763,592177.1999999881,9009,NTS,B,21
6,16,test,1,C,circle.png,1,m,Tue Feb 18 2025 13:33:34 GMT-0500 (Eastern Standard Time),597352.0,1900,I,m,771,21,1,2687.199999988079,594664.8000000119,9009,NTS,B,22
7,17,test,1,C,triangle.png,1,z,Tue Feb 18 2025 13:33:34 GMT-0500 (Eastern Standard Time),599869.0,1700,I,z,798,22,1,2507.699999988079,597361.3000000119,9009,NTS,B,23
6,18,test,1,C,circle.png,1,m,Tue Feb 18 2025 13:33:34 GMT-0500 (Eastern Standard Time),602602.1000000238,1900,I,m,802,5,1,2724.800000011921,599877.3000000119,9009,NTS,B,24
9,1,test,2,C,circle.png,1,m,Tue Feb 18 2025 13:33:34 GMT-0500 (Eastern Standard Time),621002.3000000119,1500,I,m,835,8,1,2359.199999988079,618643.1000000238,9009,NTS,B,1
6,2,test,2,C,triangle.png,1,m,Tue Feb 18 2025 13:33:34 GMT-0500 (Eastern Standard Time),623469.5,1000,I,m,1449,21,1,2456.800000011921,621012.6999999881,9009,NTS,B,2
4,3,test,2,C,triangle.png,1,m,Tue Feb 18 2025 13:33:34 GMT-0500 (Eastern Standard Time),626368.8000000119,1500,I,m,1378,12,1,2888.899999976158,623479.9000000358,9009,NTS,B,3
9,3,test,2,C,triangle.png,0,z,Tue Feb 18 2025 13:33:34 GMT-0500 (Eastern Standard Time),629302.1000000238,1400,I,None,1515,24,1,2924.199999988079,626377.9000000358,9009,NTS,B,4
1,4,test,2,C,circle.png,1,z,Tue Feb 18 2025 13:33:34 GMT-0500 (Eastern Standard Time),631052.0,1000,I,z,716,1,1,1741.0,629311.0,9009,NTS,B,5
4,5,test,2,C,circle.png,1,z,Tue Feb 18 2025 13:33:34 GMT-0500 (Eastern Standard Time),633285.3000000119,1400,I,z,806,4,1,2224.199999988079,631061.1000000238,9009,NTS,B,6
7,6,test,2,C,triangle.png,1,z,Tue Feb 18 2025 13:33:34 GMT-0500 (Eastern Standard Time),636035.4000000358,1700,I,z,1025,6,1,2740.5,633294.9000000358,9009,NTS,B,7
7,7,test,2,C,circle.png,1,m,Tue Feb 18 2025 13:33:34 GMT-0500 (Eastern Standard Time),639152.0,2000,I,m,1095,22,1,3102.0,636050.0,9009,NTS,B,8
9,7,test,2,C,triangle.png,0,z,Tue Feb 18 2025 13:33:34 GMT-0500 (Eastern Standard Time),642085.4000000358,1400,I,None,1515,16,1,2924.900000035763,639160.5,9009,NTS,B,9
8,8,test,2,C,triangle.png,1,m,Tue Feb 18 2025 13:33:34 GMT-0500 (Eastern Standard Time),644618.4000000358,1600,I,m,901,7,1,2523.5,642094.9000000358,9009,NTS,B,10
6,9,test,2,C,circle.png,1,m,Tue Feb 18 2025 13:33:34 GMT-0500 (Eastern Standard Time),647468.8000000119,1900,I,m,916,5,1,2844.699999988079,644624.1000000238,9009,NTS,B,11
1,10,test,2,C,triangle.png,1,z,Tue Feb 18 2025 13:33:34 GMT-0500 (Eastern Standard Time),650135.4000000358,1900,I,z,738,17,1,2657.600000023842,647477.8000000119,9009,NTS,B,12
2,11,test,2,C,circle.png,1,z,Tue Feb 18 2025 13:33:34 GMT-0500 (Eastern Standard Time),653069.0,1700,I,z,1217,10,1,2922.899999976158,650146.1000000238,9009,NTS,B,13
8,12,test,2,C,circle.png,1,m,Tue Feb 18 2025 13:33:34 GMT-0500 (Eastern Standard Time),655152.9000000358,1200,I,m,861,23,1,2073.2000000476837,653079.6999999881,9009,NTS,B,14
7,13,test,2,C,circle.png,1,m,Tue Feb 18 2025 13:33:34 GMT-0500 (Eastern Standard Time),658385.4000000358,2000,I,m,1210,14,1,3223.5,655161.9000000358,9009,NTS,B,15
4,13,test,2,C,triangle.png,0,m,Tue Feb 18 2025 13:33:34 GMT-0500 (Eastern Standard Time),661418.6999999881,1500,I,None,1516,20,1,3024.199999988079,658394.5,9009,NTS,B,16
3,14,test,2,C,triangle.png,1,z,Tue Feb 18 2025 13:33:34 GMT-0500 (Eastern Standard Time),663735.0,1200,I,z,1087,3,1,2304.399999976158,661430.6000000238,9009,NTS,B,17
2,15,test,2,C,triangle.png,1,m,Tue Feb 18 2025 13:33:34 GMT-0500 (Eastern Standard Time),666668.6999999881,2000,I,m,899,2,1,2924.7999999523163,663743.9000000358,9009,NTS,B,18
3,16,test,2,C,circle.png,1,z,Tue Feb 18 2025 13:33:34 GMT-0500 (Eastern Standard Time),669552.0,1600,I,z,1261,11,1,2874.300000011921,666677.6999999881,9009,NTS,B,19
3,17,test,2,C,circle.png,1,z,Tue Feb 18 2025 13:33:34 GMT-0500 (Eastern Standard Time),671901.9000000358,1600,I,z,730,19,1,2339.2000000476837,669562.6999999881,9009,NTS,B,20
6,18,test,2,C,triangle.png,1,m,Tue Feb 18 2025 13:33:34 GMT-0500 (Eastern Standard Time),674318.5,1000,I,m,1397,13,1,2406.800000011921,671911.6999999881,9009,NTS,B,21
8,19,test,2,C,circle.png,1,m,Tue Feb 18 2025 13:33:34 GMT-0500 (Eastern Standard Time),676735.1999999881,1200,I,m,1195,15,1,2407.699999988079,674327.5,9009,NTS,B,22
2,20,test,2,C,circle.png,1,z,Tue Feb 18 2025 13:33:34 GMT-0500 (Eastern Standard Time),679718.3000000119,1700,I,z,1254,18,1,2973.800000011921,676744.5,9009,NTS,B,23
1,21,test,2,C,triangle.png,1,z,Tue Feb 18 2025 13:33:34 GMT-0500 (Eastern Standard Time),682851.6999999881,1900,I,z,1207,9,1,3128.199999988079,679723.5,9009,NTS,B,24
2,1,test,3,C,triangle.png,1,m,Tue Feb 18 2025 13:33:34 GMT-0500 (Eastern Standard Time),704968.6000000238,2000,I,m,1019,18,1,3045.800000011921,701922.8000000119,9009,NTS,B,1
4,2,test,3,C,triangle.png,1,m,Tue Feb 18 2025 13:33:34 GMT-0500 (Eastern Standard Time),707468.6999999881,1500,I,m,966,12,1,2491.7999999523163,704976.9000000358,9009,NTS,B,2
4,3,test,3,C,circle.png,1,z,Tue Feb 18 2025 13:33:34 GMT-0500 (Eastern Standard Time),710018.6000000238,1400,I,z,1126,20,1,2540.199999988079,707478.4000000358,9009,NTS,B,3
1,4,test,3,C,triangle.png,1,z,Tue Feb 18 2025 13:33:34 GMT-0500 (Eastern Standard Time),713301.6000000238,1900,I,z,1355,9,1,3273.100000023842,710028.5,9009,NTS,B,4
7,5,test,3,C,triangle.png,1,z,Tue Feb 18 2025 13:33:34 GMT-0500 (Eastern Standard Time),716068.6999999881,1700,I,z,1040,6,1,2761.399999976158,713307.3000000119,9009,NTS,B,5
1,6,test,3,C,circle.png,1,z,Tue Feb 18 2025 13:33:34 GMT-0500 (Eastern Standard Time),717868.6999999881,1000,I,z,782,17,1,1786.5999999642372,716082.1000000238,9009,NTS,B,6
9,7,test,3,C,triangle.png,1,z,Tue Feb 18 2025 13:33:34 GMT-0500 (Eastern Standard Time),720435.1000000238,1400,I,z,1141,16,1,2558.100000023842,717877.0,9009,NTS,B,7
4,8,test,3,C,circle.png,1,z,Tue Feb 18 2025 13:33:34 GMT-0500 (Eastern Standard Time),722851.9000000358,1400,I,z,991,4,1,2408.2000000476837,720443.6999999881,9009,NTS,B,8
8,9,test,3,C,triangle.png,1,m,Tue Feb 18 2025 13:33:34 GMT-0500 (Eastern Standard Time),725684.9000000358,1600,I,m,1206,7,1,2824.2000000476837,722860.6999999881,9009,NTS,B,9
2,10,test,3,C,triangle.png,1,m,Tue Feb 18 2025 13:33:34 GMT-0500 (Eastern Standard Time),728818.1999999881,2000,I,m,1109,2,1,3128.099999964237,725690.1000000238,9009,NTS,B,10
6,10,test,3,C,circle.png,0,m,Tue Feb 18 2025 13:33:34 GMT-0500 (Eastern Standard Time),731752.4000000358,1900,I,z,1004,5,1,2926.600000023842,728825.8000000119,9009,NTS,B,11
6,11,test,3,C,circle.png,1,m,Tue Feb 18 2025 13:33:34 GMT-0500 (Eastern Standard Time),734552.0,1900,I,m,870,21,1,2790.300000011921,731761.6999999881,9009,NTS,B,12
7,12,test,3,C,circle.png,1,m,Tue Feb 18 2025 13:33:34 GMT-0500 (Eastern Standard Time),737469.0,2000,I,m,899,14,1,2905.5,734563.5,9009,NTS,B,13
3,13,test,3,C,triangle.png,1,z,Tue Feb 18 2025 13:33:34 GMT-0500 (Eastern Standard Time),739968.6999999881,1200,I,z,1278,3,1,2490.399999976158,737478.3000000119,9009,NTS,B,14
6,14,test,3,C,triangle.png,1,m,Tue Feb 18 2025 13:33:34 GMT-0500 (Eastern Standard Time),742118.6000000238,1000,I,m,1122,13,1,2140.5,739978.1000000238,9009,NTS,B,15
9,15,test,3,C,circle.png,1,m,Tue Feb 18 2025 13:33:34 GMT-0500 (Eastern Standard Time),744784.9000000358,1500,I,m,1144,24,1,2655.0,742129.9000000358,9009,NTS,B,16
8,16,test,3,C,triangle.png,1,m,Tue Feb 18 2025 13:33:34 GMT-0500 (Eastern Standard Time),747768.6999999881,1600,I,m,1354,23,1,2976.699999988079,744792.0,9009,NTS,B,17
3,17,test,3,C,circle.png,1,z,Tue Feb 18 2025 13:33:34 GMT-0500 (Eastern Standard Time),750218.6000000238,1600,I,z,818,11,1,2439.699999988079,747778.9000000358,9009,NTS,B,18
2,18,test,3,C,circle.png,1,z,Tue Feb 18 2025 13:33:34 GMT-0500 (Eastern Standard Time),753252.1000000238,1700,I,z,1308,10,1,3023.100000023842,750229.0,9009,NTS,B,19
9,19,test,3,C,circle.png,1,m,Tue Feb 18 2025 13:33:34 GMT-0500 (Eastern Standard Time),756184.8000000119,1500,I,m,1401,8,1,2923.899999976158,753260.9000000358,9009,NTS,B,20
8,20,test,3,C,circle.png,1,m,Tue Feb 18 2025 13:33:34 GMT-0500 (Eastern Standard Time),758251.5,1200,I,m,832,15,1,2061.399999976158,756190.1000000238,9009,NTS,B,21
3,21,test,3,C,triangle.png,1,z,Tue Feb 18 2025 13:33:34 GMT-0500 (Eastern Standard Time),760285.8000000119,1200,I,z,814,19,1,2028.1000000238419,758257.6999999881,9009,NTS,B,22
7,21,test,3,C,triangle.png,0,z,Tue Feb 18 2025 13:33:34 GMT-0500 (Eastern Standard Time),763068.6999999881,1700,I,m,1049,22,1,2775.099999964237,760293.6000000238,9009,NTS,B,23
1,22,test,3,C,circle.png,1,z,Tue Feb 18 2025 13:33:34 GMT-0500 (Eastern Standard Time),765001.8000000119,1000,I,z,885,1,1,1917.699999988079,763084.1000000238,9009,NTS,B,24
1,1,test,4,C,circle.png,1,z,Tue Feb 18 2025 13:33:34 GMT-0500 (Eastern Standard Time),780268.6999999881,1000,I,z,1048,17,1,2059.199999988079,778209.5,9009,NTS,B,1
7,2,test,4,C,triangle.png,1,z,Tue Feb 18 2025 13:33:34 GMT-0500 (Eastern Standard Time),783185.1999999881,1700,I,z,1194,22,1,2909.199999988079,780276.0,9009,NTS,B,2
9,3,test,4,C,circle.png,1,m,Tue Feb 18 2025 13:33:34 GMT-0500 (Eastern Standard Time),785602.1999999881,1500,I,m,894,8,1,2408.0,783194.1999999881,9009,NTS,B,3
3,4,test,4,C,circle.png,1,z,Tue Feb 18 2025 13:33:34 GMT-0500 (Eastern Standard Time),787868.5,1600,I,z,649,11,1,2259.5,785609.0,9009,NTS,B,4
6,5,test,4,C,circle.png,1,m,Tue Feb 18 2025 13:33:34 GMT-0500 (Eastern Standard Time),790635.1999999881,1900,I,m,835,5,1,2758.5,787876.6999999881,9009,NTS,B,5
2,6,test,4,C,triangle.png,1,m,Tue Feb 18 2025 13:33:34 GMT-0500 (Eastern Standard Time),793868.6000000238,2000,I,m,1215,2,1,3223.600000023842,790645.0,9009,NTS,B,6
7,7,test,4,C,circle.png,1,m,Tue Feb 18 2025 13:33:34 GMT-0500 (Eastern Standard Time),797068.6000000238,2000,I,m,1166,14,1,3190.900000035763,793877.6999999881,9009,NTS,B,7
4,8,test,4,C,triangle.png,1,m,Tue Feb 18 2025 13:33:34 GMT-0500 (Eastern Standard Time),799818.5,1500,I,m,1218,12,1,2735.300000011921,797083.1999999881,9009,NTS,B,8
3,9,test,4,C,triangle.png,1,z,Tue Feb 18 2025 13:33:34 GMT-0500 (Eastern Standard Time),802085.1999999881,1200,I,z,1040,19,1,2258.0,799827.1999999881,9009,NTS,B,9
2,10,test,4,C,circle.png,1,z,Tue Feb 18 2025 13:33:34 GMT-0500 (Eastern Standard Time),805035.1999999881,1700,I,z,1217,10,1,2939.399999976158,802095.8000000119,9009,NTS,B,10
1,10,test,4,C,triangle.png,0,z,Tue Feb 18 2025 13:33:34 GMT-0500 (Eastern Standard Time),808235.1999999881,1900,I,m,1267,9,1,3191.7999999523163,805043.4000000358,9009,NTS,B,11
6,10,test,4,C,circle.png,0,m,Tue Feb 18 2025 13:33:34 GMT-0500 (Eastern Standard Time),811151.6999999881,1900,I,z,995,21,1,2908.099999964237,808243.6000000238,9009,NTS,B,12
8,11,test,4,C,circle.png,1,m,Tue Feb 18 2025 13:33:34 GMT-0500 (Eastern Standard Time),813801.8000000119,1200,I,m,1418,15,1,2641.0,811160.8000000119,9009,NTS,B,13
3,12,test,4,C,triangle.png,1,z,Tue Feb 18 2025 13:33:34 GMT-0500 (Eastern Standard Time),816168.4000000358,1200,I,z,1136,3,1,2356.600000023842,813811.8000000119,9009,NTS,B,14
7,13,test,4,C,triangle.png,1,z,Tue Feb 18 2025 13:33:34 GMT-0500 (Eastern Standard Time),819285.0,1700,I,z,1390,6,1,3102.599999964237,816182.4000000358,9009,NTS,B,15
2,14,test,4,C,triangle.png,1,m,Tue Feb 18 2025 13:33:34 GMT-0500 (Eastern Standard Time),822201.8000000119,2000,I,m,886,18,1,2904.699999988079,819297.1000000238,9009,NTS,B,16
8,15,test,4,C,triangle.png,1,m,Tue Feb 18 2025 13:33:34 GMT-0500 (Eastern Standard Time),824518.4000000358,1600,I,m,688,23,1,2307.5,822210.9000000358,9009,NTS,B,17
6,16,test,4,C,triangle.png,1,m,Tue Feb 18 2025 13:33:34 GMT-0500 (Eastern Standard Time),826735.0,1000,I,m,1196,13,1,2202.199999988079,824532.8000000119,9009,NTS,B,18
1,17,test,4,C,circle.png,1,z,Tue Feb 18 2025 13:33:34 GMT-0500 (Eastern Standard Time),828635.1000000238,1000,I,z,867,1,1,1891.0,826744.1000000238,9009,NTS,B,19
9,17,test,4,C,triangle.png,0,z,Tue Feb 18 2025 13:33:34 GMT-0500 (Eastern Standard Time),831351.8000000119,1400,I,m,1288,16,1,2708.0,828643.8000000119,9009,NTS,B,20
4,18,test,4,C,circle.png,1,z,Tue Feb 18 2025 13:33:34 GMT-0500 (Eastern Standard Time),834268.4000000358,1400,I,z,1498,20,1,2907.0,831361.4000000358,9009,NTS,B,21
4,19,test,4,C,circle.png,1,z,Tue Feb 18 2025 13:33:34 GMT-0500 (Eastern Standard Time),836968.5,1400,I,z,1270,4,1,2693.099999964237,834275.4000000358,9009,NTS,B,22
8,20,test,4,C,triangle.png,1,m,Tue Feb 18 2025 13:33:34 GMT-0500 (Eastern Standard Time),839934.9000000358,1600,I,m,1345,7,1,2956.7000000476837,836978.1999999881,9009,NTS,B,23
9,21,test,4,C,circle.png,1,m,Tue Feb 18 2025 13:33:34 GMT-0500 (Eastern Standard Time),842651.8000000119,1500,I,m,1184,24,1,2706.699999988079,839945.1000000238,9009,NTS,B,24
