block_c,block_dur,condition,countdown,datetime,endtime,list,multichar_response,project,response,response_time,session_number,start_end,starttime,subject_id,task,task_vers,trial
,,,,Fri Feb 28 2025 16:01:44 GMT-0600 (Central Standard Time),,,,O,space,616,1,,,7072,WL,B,
prac,,0,,Fri Feb 28 2025 16:01:44 GMT-0600 (Central Standard Time),,NA,b,O,b,3983,1,,,7072,WL,B,1.0
prac,,0,,Fri Feb 28 2025 16:01:44 GMT-0600 (Central Standard Time),,NA,bo,O,o,193,1,,,7072,WL,B,1.0
prac,,0,,Fri Feb 28 2025 16:01:44 GMT-0600 (Central Standard Time),,NA,boo,O,o,95,1,,,7072,WL,B,1.0
prac,,0,,Fri Feb 28 2025 16:01:44 GMT-0600 (Central Standard Time),,NA,boos,O,s,19,1,,,7072,WL,B,1.0
prac,,0,,Fri Feb 28 2025 16:01:44 GMT-0600 (Central Standard Time),,NA,boost,O,t,74,1,,,7072,WL,B,1.0
prac,,0,,Fri Feb 28 2025 16:01:44 GMT-0600 (Central Standard Time),,NA,boostenter,O,enter,1516,1,,,7072,WL,B,1.0
1,2.199000120162964,learn,57800.999879837036,Fri Feb 28 2025 16:01:44 GMT-0600 (Central Standard Time),139826.59999999404,A,s,O,s,2169,1,2198.4000000059605,137628.19999998808,7072,WL,B,1.0
1,2.4160001277923584,learn,57583.99987220764,Fri Feb 28 2025 16:01:44 GMT-0600 (Central Standard Time),140043.29999998212,A,st,O,t,170,1,2415.0999999940395,137628.19999998808,7072,WL,B,1.0
1,2.616000175476074,learn,57383.999824523926,Fri Feb 28 2025 16:01:44 GMT-0600 (Central Standard Time),140242.69999998808,A,str,O,r,163,1,2614.5,137628.19999998808,7072,WL,B,1.0
1,2.765000104904175,learn,57234.999895095825,Fri Feb 28 2025 16:01:44 GMT-0600 (Central Standard Time),140392.29999998212,A,stre,O,e,115,1,2764.0999999940395,137628.19999998808,7072,WL,B,1.0
1,2.9160001277923584,learn,57083.99987220764,Fri Feb 28 2025 16:01:44 GMT-0600 (Central Standard Time),140542.5,A,stree,O,e,118,1,2914.300000011921,137628.19999998808,7072,WL,B,1.0
1,3.0320000648498535,learn,56967.99993515015,Fri Feb 28 2025 16:01:44 GMT-0600 (Central Standard Time),140659.09999999404,A,street,O,t,72,1,3030.9000000059605,137628.19999998808,7072,WL,B,1.0
1,5.730000019073486,learn,54269.999980926514,Fri Feb 28 2025 16:01:44 GMT-0600 (Central Standard Time),143357.29999998212,A,streetenter,O,enter,2665,1,5729.0999999940395,137628.19999998808,7072,WL,B,1.0
1,7.364000082015991,learn,52635.99991798401,Fri Feb 28 2025 16:01:44 GMT-0600 (Central Standard Time),144991.29999998212,A,g,O,g,1615,1,1633.5,143357.79999998212,7072,WL,B,2.0
1,7.54800009727478,learn,52451.99990272522,Fri Feb 28 2025 16:01:44 GMT-0600 (Central Standard Time),145174.5,A,gr,O,r,142,1,1816.7000000178814,143357.79999998212,7072,WL,B,2.0
1,7.613000154495239,learn,52386.99984550476,Fri Feb 28 2025 16:01:44 GMT-0600 (Central Standard Time),145240.0,A,gra,O,a,32,1,1882.2000000178814,143357.79999998212,7072,WL,B,2.0
1,7.835000038146973,learn,52164.99996185303,Fri Feb 28 2025 16:01:44 GMT-0600 (Central Standard Time),145461.69999998808,A,gras,O,s,192,1,2103.9000000059605,143357.79999998212,7072,WL,B,2.0
1,8.014000177383423,learn,51985.99982261658,Fri Feb 28 2025 16:01:44 GMT-0600 (Central Standard Time),145641.0,A,grass,O,s,144,1,2283.2000000178814,143357.79999998212,7072,WL,B,2.0
1,8.546000003814697,learn,51453.9999961853,Fri Feb 28 2025 16:01:44 GMT-0600 (Central Standard Time),146173.5,A,grassenter,O,enter,494,1,2815.7000000178814,143357.79999998212,7072,WL,B,2.0
1,8.94700002670288,learn,51052.99997329712,Fri Feb 28 2025 16:01:44 GMT-0600 (Central Standard Time),146574.09999999404,A,a,O,a,384,1,400.2000000178814,146173.89999997616,7072,WL,B,3.0
1,9.03000020980835,learn,50969.99979019165,Fri Feb 28 2025 16:01:44 GMT-0600 (Central Standard Time),146656.79999998212,A,ar,O,r,40,1,482.90000000596046,146173.89999997616,7072,WL,B,3.0
1,9.21399998664856,learn,50786.00001335144,Fri Feb 28 2025 16:01:44 GMT-0600 (Central Standard Time),146840.79999998212,A,arm,O,m,154,1,666.9000000059605,146173.89999997616,7072,WL,B,3.0
1,9.828999996185303,learn,50171.0000038147,Fri Feb 28 2025 16:01:44 GMT-0600 (Central Standard Time),147456.09999999404,A,armenter,O,enter,573,1,1282.2000000178814,146173.89999997616,7072,WL,B,3.0
1,10.349000215530396,learn,49650.999784469604,Fri Feb 28 2025 16:01:44 GMT-0600 (Central Standard Time),147976.39999997616,A,f,O,f,501,1,520.0999999940395,147456.29999998212,7072,WL,B,4.0
1,10.480000019073486,learn,49519.999980926514,Fri Feb 28 2025 16:01:44 GMT-0600 (Central Standard Time),148106.89999997616,A,fi,O,i,95,1,650.5999999940395,147456.29999998212,7072,WL,B,4.0
1,10.578999996185303,learn,49421.0000038147,Fri Feb 28 2025 16:01:44 GMT-0600 (Central Standard Time),148206.5,A,fir,O,r,60,1,750.2000000178814,147456.29999998212,7072,WL,B,4.0
1,10.611999988555908,learn,49388.00001144409,Fri Feb 28 2025 16:01:44 GMT-0600 (Central Standard Time),148239.0,A,fire,O,e,1,1,782.7000000178814,147456.29999998212,7072,WL,B,4.0
1,11.445000171661377,learn,48554.99982833862,Fri Feb 28 2025 16:01:44 GMT-0600 (Central Standard Time),149072.09999999404,A,fireenter,O,enter,805,1,1615.800000011921,147456.29999998212,7072,WL,B,4.0
1,12.646000146865845,learn,47353.999853134155,Fri Feb 28 2025 16:01:44 GMT-0600 (Central Standard Time),150272.69999998808,A,l,O,l,1180,1,1200.0999999940395,149072.59999999404,7072,WL,B,5.0
1,12.712000131607056,learn,47287.999868392944,Fri Feb 28 2025 16:01:44 GMT-0600 (Central Standard Time),150338.59999999404,A,la,O,a,31,1,1266.0,149072.59999999404,7072,WL,B,5.0
1,12.84600019454956,learn,47153.99980545044,Fri Feb 28 2025 16:01:44 GMT-0600 (Central Standard Time),150472.79999998212,A,lak,O,k,117,1,1400.199999988079,149072.59999999404,7072,WL,B,5.0
1,12.945000171661377,learn,47054.99982833862,Fri Feb 28 2025 16:01:44 GMT-0600 (Central Standard Time),150572.19999998808,A,lake,O,e,54,1,1499.5999999940395,149072.59999999404,7072,WL,B,5.0
1,13.728000164031982,learn,46271.99983596802,Fri Feb 28 2025 16:01:44 GMT-0600 (Central Standard Time),151354.69999998808,A,lakeenter,O,enter,758,1,2282.0999999940395,149072.59999999404,7072,WL,B,5.0
1,14.129000186920166,learn,45870.999813079834,Fri Feb 28 2025 16:01:44 GMT-0600 (Central Standard Time),151756.0,A,p,O,p,378,1,400.90000000596046,151355.09999999404,7072,WL,B,6.0
1,14.295000076293945,learn,45704.999923706055,Fri Feb 28 2025 16:01:44 GMT-0600 (Central Standard Time),151922.39999997616,A,pu,O,u,138,1,567.2999999821186,151355.09999999404,7072,WL,B,6.0
1,14.428000211715698,learn,45571.9997882843,Fri Feb 28 2025 16:01:44 GMT-0600 (Central Standard Time),152055.5,A,pup,O,p,93,1,700.4000000059605,151355.09999999404,7072,WL,B,6.0
1,14.678000211715698,learn,45321.9997882843,Fri Feb 28 2025 16:01:44 GMT-0600 (Central Standard Time),152305.69999998808,A,pupi,O,i,217,1,950.5999999940395,151355.09999999404,7072,WL,B,6.0
1,14.995000123977661,learn,45004.99987602234,Fri Feb 28 2025 16:01:44 GMT-0600 (Central Standard Time),152622.09999999404,A,pupil,O,l,278,1,1267.0,151355.09999999404,7072,WL,B,6.0
1,15.495000123977661,learn,44504.99987602234,Fri Feb 28 2025 16:01:44 GMT-0600 (Central Standard Time),153122.0,A,pupilenter,O,enter,468,1,1766.9000000059605,151355.09999999404,7072,WL,B,6.0
1,19.06000018119812,learn,40939.99981880188,Fri Feb 28 2025 16:01:44 GMT-0600 (Central Standard Time),156687.39999997616,A,a,O,a,3555,1,3565.0999999940395,153122.29999998212,7072,WL,B,7.0
1,19.14800000190735,learn,40851.99999809265,Fri Feb 28 2025 16:01:44 GMT-0600 (Central Standard Time),156775.19999998808,A,ar,O,r,50,1,3652.9000000059605,153122.29999998212,7072,WL,B,7.0
1,19.39400005340576,learn,40605.99994659424,Fri Feb 28 2025 16:01:44 GMT-0600 (Central Standard Time),157021.09999999404,A,arm,O,m,229,1,3898.800000011921,153122.29999998212,7072,WL,B,7.0
1,19.826000213623047,learn,40173.99978637695,Fri Feb 28 2025 16:01:44 GMT-0600 (Central Standard Time),157452.79999998212,A,armenter,O,enter,395,1,4330.5,153122.29999998212,7072,WL,B,7.0
1,24.824000120162964,learn,35175.999879837036,Fri Feb 28 2025 16:01:44 GMT-0600 (Central Standard Time),162451.19999998808,A,f,O,f,4984,1,4998.0999999940395,157453.09999999404,7072,WL,B,8.0
1,25.007000207901,learn,34992.999792099,Fri Feb 28 2025 16:01:44 GMT-0600 (Central Standard Time),162634.39999997616,A,fi,O,i,168,1,5181.299999982119,157453.09999999404,7072,WL,B,8.0
1,25.10700011253357,learn,34892.99988746643,Fri Feb 28 2025 16:01:44 GMT-0600 (Central Standard Time),162734.29999998212,A,fir,O,r,89,1,5281.199999988079,157453.09999999404,7072,WL,B,8.0
1,25.157000064849854,learn,34842.99993515015,Fri Feb 28 2025 16:01:44 GMT-0600 (Central Standard Time),162784.19999998808,A,fire,O,e,28,1,5331.0999999940395,157453.09999999404,7072,WL,B,8.0
1,29.4060001373291,learn,30593.9998626709,Fri Feb 28 2025 16:01:44 GMT-0600 (Central Standard Time),167032.89999997616,A,fireenter,O,enter,4235,1,9579.799999982119,157453.09999999404,7072,WL,B,8.0
1,30.073000192642212,learn,29926.999807357788,Fri Feb 28 2025 16:01:44 GMT-0600 (Central Standard Time),167700.39999997616,A,c,O,c,653,1,667.0999999940395,167033.29999998212,7072,WL,B,9.0
1,30.189000129699707,learn,29810.999870300293,Fri Feb 28 2025 16:01:44 GMT-0600 (Central Standard Time),167816.29999998212,A,ca,O,a,74,1,783.0,167033.29999998212,7072,WL,B,9.0
1,30.390000104904175,learn,29609.999895095825,Fri Feb 28 2025 16:01:44 GMT-0600 (Central Standard Time),168017.0,A,cab,O,b,181,1,983.7000000178814,167033.29999998212,7072,WL,B,9.0
1,30.874000072479248,learn,29125.999927520752,Fri Feb 28 2025 16:01:44 GMT-0600 (Central Standard Time),168500.19999998808,A,cabi,O,i,448,1,1466.9000000059605,167033.29999998212,7072,WL,B,9.0
1,30.94000005722046,learn,29059.99994277954,Fri Feb 28 2025 16:01:44 GMT-0600 (Central Standard Time),168566.09999999404,A,cabin,O,n,37,1,1532.800000011921,167033.29999998212,7072,WL,B,9.0
1,31.27300000190735,learn,28726.99999809265,Fri Feb 28 2025 16:01:44 GMT-0600 (Central Standard Time),168899.0,A,cabinenter,O,enter,302,1,1865.7000000178814,167033.29999998212,7072,WL,B,9.0
1,41.1710000038147,learn,18828.999996185303,Fri Feb 28 2025 16:01:44 GMT-0600 (Central Standard Time),178797.19999998808,A,d,O,d,9891,1,9897.90000000596,168899.29999998212,7072,WL,B,10.0
1,41.32000017166138,learn,18679.999828338623,Fri Feb 28 2025 16:01:44 GMT-0600 (Central Standard Time),178946.29999998212,A,do,O,o,116,1,10047.0,168899.29999998212,7072,WL,B,10.0
1,41.45300006866455,learn,18546.99993133545,Fri Feb 28 2025 16:01:44 GMT-0600 (Central Standard Time),179079.59999999404,A,doo,O,o,105,1,10180.300000011921,168899.29999998212,7072,WL,B,10.0
1,41.52000021934509,learn,18479.999780654907,Fri Feb 28 2025 16:01:44 GMT-0600 (Central Standard Time),179145.89999997616,A,door,O,r,35,1,10246.59999999404,168899.29999998212,7072,WL,B,10.0
1,41.68600010871887,learn,18313.999891281128,Fri Feb 28 2025 16:01:44 GMT-0600 (Central Standard Time),179312.09999999404,A,doorenter,O,enter,146,1,10412.800000011921,168899.29999998212,7072,WL,B,10.0
1,50.384000062942505,learn,9615.999937057495,Fri Feb 28 2025 16:01:44 GMT-0600 (Central Standard Time),188010.5,A,d,O,d,8678,1,8698.100000023842,179312.39999997616,7072,WL,B,11.0
1,50.58400011062622,learn,9415.99988937378,Fri Feb 28 2025 16:01:44 GMT-0600 (Central Standard Time),188210.39999997616,A,dr,O,r,159,1,8898.0,179312.39999997616,7072,WL,B,11.0
1,50.634000062942505,learn,9365.999937057495,Fri Feb 28 2025 16:01:44 GMT-0600 (Central Standard Time),188260.0,A,dre,O,e,14,1,8947.600000023842,179312.39999997616,7072,WL,B,11.0
1,50.700000047683716,learn,9299.999952316284,Fri Feb 28 2025 16:01:44 GMT-0600 (Central Standard Time),188326.5,A,drea,O,a,52,1,9014.100000023842,179312.39999997616,7072,WL,B,11.0
1,50.83300018310547,learn,9166.999816894531,Fri Feb 28 2025 16:01:44 GMT-0600 (Central Standard Time),188459.69999998808,A,dream,O,m,96,1,9147.300000011921,179312.39999997616,7072,WL,B,11.0
1,50.98300004005432,learn,9016.999959945679,Fri Feb 28 2025 16:01:44 GMT-0600 (Central Standard Time),188609.09999999404,A,dreamenter,O,enter,124,1,9296.700000017881,179312.39999997616,7072,WL,B,11.0
1,60.015000104904175,learn,-15.000104904174805,Fri Feb 28 2025 16:01:44 GMT-0600 (Central Standard Time),197641.09999999404,A,None,O,None,9024,1,9031.700000017881,188609.39999997616,7072,WL,B,12.0
2,1.9670000076293945,learn,58032.999992370605,Fri Feb 28 2025 16:01:44 GMT-0600 (Central Standard Time),266268.1999999881,A,w,O,w,1925,1,1965.5999999940395,264302.59999999404,7072,WL,B,1.0
2,2.1500000953674316,learn,57849.99990463257,Fri Feb 28 2025 16:01:44 GMT-0600 (Central Standard Time),266451.6999999881,A,wi,O,i,140,1,2149.0999999940395,264302.59999999404,7072,WL,B,1.0
2,2.2660000324249268,learn,57733.99996757507,Fri Feb 28 2025 16:01:44 GMT-0600 (Central Standard Time),266567.2999999821,A,wif,O,f,77,1,2264.699999988079,264302.59999999404,7072,WL,B,1.0
2,2.2990000247955322,learn,57700.99997520447,Fri Feb 28 2025 16:01:44 GMT-0600 (Central Standard Time),266600.39999997616,A,wife,O,e,6,1,2297.7999999821186,264302.59999999404,7072,WL,B,1.0
2,2.9649999141693115,learn,57035.00008583069,Fri Feb 28 2025 16:01:44 GMT-0600 (Central Standard Time),267266.89999997616,A,wifeenter,O,enter,642,1,2964.2999999821186,264302.59999999404,7072,WL,B,1.0
2,3.565999984741211,learn,56434.00001525879,Fri Feb 28 2025 16:01:44 GMT-0600 (Central Standard Time),267867.5,A,c,O,c,579,1,600.4000000059605,267267.09999999404,7072,WL,B,2.0
2,3.632999897003174,learn,56367.000102996826,Fri Feb 28 2025 16:01:44 GMT-0600 (Central Standard Time),267934.1999999881,A,cl,O,l,38,1,667.0999999940395,267267.09999999404,7072,WL,B,2.0
2,3.7829999923706055,learn,56217.000007629395,Fri Feb 28 2025 16:01:44 GMT-0600 (Central Standard Time),268084.1999999881,A,clo,O,o,133,1,817.0999999940395,267267.09999999404,7072,WL,B,2.0
2,4.398999929428101,learn,55601.0000705719,Fri Feb 28 2025 16:01:44 GMT-0600 (Central Standard Time),268700.6999999881,A,cloc,O,c,582,1,1433.5999999940395,267267.09999999404,7072,WL,B,2.0
2,4.514999866485596,learn,55485.000133514404,Fri Feb 28 2025 16:01:44 GMT-0600 (Central Standard Time),268816.89999997616,A,clock,O,k,81,1,1549.7999999821186,267267.09999999404,7072,WL,B,2.0
2,4.997999906539917,learn,55002.00009346008,Fri Feb 28 2025 16:01:44 GMT-0600 (Central Standard Time),269299.39999997616,A,clockenter,O,enter,453,1,2032.2999999821186,267267.09999999404,7072,WL,B,2.0
2,5.216000080108643,learn,54783.99991989136,Fri Feb 28 2025 16:01:44 GMT-0600 (Central Standard Time),269517.09999999404,A,a,O,a,202,1,217.40000000596046,269299.6999999881,7072,WL,B,3.0
2,5.29800009727478,learn,54701.99990272522,Fri Feb 28 2025 16:01:44 GMT-0600 (Central Standard Time),269599.89999997616,A,ar,O,r,53,1,300.19999998807907,269299.6999999881,7072,WL,B,3.0
2,5.431999921798706,learn,54568.000078201294,Fri Feb 28 2025 16:01:44 GMT-0600 (Central Standard Time),269733.09999999404,A,arm,O,m,116,1,433.40000000596046,269299.6999999881,7072,WL,B,3.0
2,6.180999994277954,learn,53819.000005722046,Fri Feb 28 2025 16:01:44 GMT-0600 (Central Standard Time),270482.39999997616,A,armenter,O,enter,717,1,1182.699999988079,269299.6999999881,7072,WL,B,3.0
2,6.5980000495910645,learn,53401.999950408936,Fri Feb 28 2025 16:01:44 GMT-0600 (Central Standard Time),270899.6999999881,A,c,O,c,403,1,417.0,270482.6999999881,7072,WL,B,4.0
2,6.7149999141693115,learn,53285.00008583069,Fri Feb 28 2025 16:01:44 GMT-0600 (Central Standard Time),271016.59999999404,A,ca,O,a,86,1,533.9000000059605,270482.6999999881,7072,WL,B,4.0
2,6.865000009536743,learn,53134.99999046326,Fri Feb 28 2025 16:01:44 GMT-0600 (Central Standard Time),271166.2999999821,A,cab,O,b,122,1,683.5999999940395,270482.6999999881,7072,WL,B,4.0
2,7.04800009727478,learn,52951.99990272522,Fri Feb 28 2025 16:01:44 GMT-0600 (Central Standard Time),271349.39999997616,A,cabi,O,i,149,1,866.6999999880791,270482.6999999881,7072,WL,B,4.0
2,7.114000082015991,learn,52885.99991798401,Fri Feb 28 2025 16:01:44 GMT-0600 (Central Standard Time),271415.7999999821,A,cabin,O,n,30,1,933.0999999940395,270482.6999999881,7072,WL,B,4.0
2,7.563999891281128,learn,52436.00010871887,Fri Feb 28 2025 16:01:44 GMT-0600 (Central Standard Time),271865.39999997616,A,cabinenter,O,enter,421,1,1382.699999988079,270482.6999999881,7072,WL,B,4.0
2,7.914999961853027,learn,52085.00003814697,Fri Feb 28 2025 16:01:44 GMT-0600 (Central Standard Time),272216.1999999881,A,p,O,p,332,1,350.5,271865.6999999881,7072,WL,B,5.0
2,8.030999898910522,learn,51969.00010108948,Fri Feb 28 2025 16:01:44 GMT-0600 (Central Standard Time),272333.0,A,pu,O,u,82,1,467.30000001192093,271865.6999999881,7072,WL,B,5.0
2,8.247999906539917,learn,51752.00009346008,Fri Feb 28 2025 16:01:44 GMT-0600 (Central Standard Time),272549.89999997616,A,pul,O,l,195,1,684.1999999880791,271865.6999999881,7072,WL,B,5.0
2,8.346999883651733,learn,51653.00011634827,Fri Feb 28 2025 16:01:44 GMT-0600 (Central Standard Time),272648.5,A,puli,O,i,67,1,782.8000000119209,271865.6999999881,7072,WL,B,5.0
2,8.780999898910522,learn,51219.00010108948,Fri Feb 28 2025 16:01:44 GMT-0600 (Central Standard Time),273082.6999999881,A,pul,O,backspace,413,1,1217.0,271865.6999999881,7072,WL,B,5.0
2,8.914000034332275,learn,51085.999965667725,Fri Feb 28 2025 16:01:44 GMT-0600 (Central Standard Time),273215.6999999881,A,pu,O,backspace,100,1,1350.0,271865.6999999881,7072,WL,B,5.0
2,9.164000034332275,learn,50835.999965667725,Fri Feb 28 2025 16:01:44 GMT-0600 (Central Standard Time),273465.59999999404,A,pup,O,p,217,1,1599.9000000059605,271865.6999999881,7072,WL,B,5.0
2,9.263999938964844,learn,50736.000061035156,Fri Feb 28 2025 16:01:44 GMT-0600 (Central Standard Time),273565.2999999821,A,pupi,O,i,75,1,1699.5999999940395,271865.6999999881,7072,WL,B,5.0
2,9.63100004196167,learn,50368.99995803833,Fri Feb 28 2025 16:01:44 GMT-0600 (Central Standard Time),273932.2999999821,A,pupil,O,l,327,1,2066.5999999940395,271865.6999999881,7072,WL,B,5.0
2,10.046000003814697,learn,49953.9999961853,Fri Feb 28 2025 16:01:44 GMT-0600 (Central Standard Time),274347.7999999821,A,pupilenter,O,enter,381,1,2482.0999999940395,271865.6999999881,7072,WL,B,5.0
2,10.263999938964844,learn,49736.000061035156,Fri Feb 28 2025 16:01:44 GMT-0600 (Central Standard Time),274565.5,A,l,O,l,211,1,217.40000000596046,274348.09999999404,7072,WL,B,6.0
2,10.379999876022339,learn,49620.00012397766,Fri Feb 28 2025 16:01:44 GMT-0600 (Central Standard Time),274681.59999999404,A,la,O,a,84,1,333.5,274348.09999999404,7072,WL,B,6.0
2,10.496999979019165,learn,49503.000020980835,Fri Feb 28 2025 16:01:44 GMT-0600 (Central Standard Time),274798.59999999404,A,lak,O,k,83,1,450.5,274348.09999999404,7072,WL,B,6.0
2,10.614000082015991,learn,49385.99991798401,Fri Feb 28 2025 16:01:44 GMT-0600 (Central Standard Time),274915.09999999404,A,lake,O,e,77,1,567.0,274348.09999999404,7072,WL,B,6.0
2,11.578999996185303,learn,48421.0000038147,Fri Feb 28 2025 16:01:44 GMT-0600 (Central Standard Time),275880.59999999404,A,lakeenter,O,enter,927,1,1532.5,274348.09999999404,7072,WL,B,6.0
2,11.845999956130981,learn,48154.00004386902,Fri Feb 28 2025 16:01:44 GMT-0600 (Central Standard Time),276147.2999999821,A,c,O,c,251,1,266.40000000596046,275880.89999997616,7072,WL,B,7.0
2,11.980000019073486,learn,48019.999980926514,Fri Feb 28 2025 16:01:44 GMT-0600 (Central Standard Time),276281.09999999404,A,ca,O,a,114,1,400.2000000178814,275880.89999997616,7072,WL,B,7.0
2,12.494999885559082,learn,47505.00011444092,Fri Feb 28 2025 16:01:44 GMT-0600 (Central Standard Time),276797.0,A,cab,O,b,493,1,916.1000000238419,275880.89999997616,7072,WL,B,7.0
2,12.644999980926514,learn,47355.000019073486,Fri Feb 28 2025 16:01:44 GMT-0600 (Central Standard Time),276947.0,A,cabi,O,i,127,1,1066.1000000238419,275880.89999997616,7072,WL,B,7.0
2,12.711999893188477,learn,47288.00010681152,Fri Feb 28 2025 16:01:44 GMT-0600 (Central Standard Time),277013.59999999404,A,cabin,O,n,49,1,1132.7000000178814,275880.89999997616,7072,WL,B,7.0
2,13.178999900817871,learn,46821.00009918213,Fri Feb 28 2025 16:01:44 GMT-0600 (Central Standard Time),277480.39999997616,A,cabinenter,O,enter,446,1,1599.5,275880.89999997616,7072,WL,B,7.0
2,13.946000099182129,learn,46053.99990081787,Fri Feb 28 2025 16:01:44 GMT-0600 (Central Standard Time),278247.7999999821,A,d,O,d,749,1,767.1999999880791,277480.59999999404,7072,WL,B,8.0
2,14.128999948501587,learn,45871.00005149841,Fri Feb 28 2025 16:01:44 GMT-0600 (Central Standard Time),278430.89999997616,A,dr,O,r,147,1,950.2999999821186,277480.59999999404,7072,WL,B,8.0
2,14.158999919891357,learn,45841.00008010864,Fri Feb 28 2025 16:01:44 GMT-0600 (Central Standard Time),278460.5,A,dre,O,e,2,1,979.9000000059605,277480.59999999404,7072,WL,B,8.0
2,14.227999925613403,learn,45772.0000743866,Fri Feb 28 2025 16:01:44 GMT-0600 (Central Standard Time),278529.59999999404,A,drea,O,a,37,1,1049.0,277480.59999999404,7072,WL,B,8.0
2,14.361999988555908,learn,45638.00001144409,Fri Feb 28 2025 16:01:44 GMT-0600 (Central Standard Time),278664.09999999404,A,dream,O,m,116,1,1183.5,277480.59999999404,7072,WL,B,8.0
2,14.628000020980835,learn,45371.999979019165,Fri Feb 28 2025 16:01:44 GMT-0600 (Central Standard Time),278929.6999999881,A,dreamenter,O,enter,234,1,1449.0999999940395,277480.59999999404,7072,WL,B,8.0
2,16.02900004386902,learn,43970.99995613098,Fri Feb 28 2025 16:01:44 GMT-0600 (Central Standard Time),280330.2999999821,A,w,O,w,1388,1,1400.4000000059605,278929.89999997616,7072,WL,B,9.0
2,16.094000101089478,learn,43905.99989891052,Fri Feb 28 2025 16:01:44 GMT-0600 (Central Standard Time),280395.89999997616,A,wi,O,i,39,1,1466.0,278929.89999997616,7072,WL,B,9.0
2,16.16100001335144,learn,43838.99998664856,Fri Feb 28 2025 16:01:44 GMT-0600 (Central Standard Time),280462.6999999881,A,win,O,n,54,1,1532.800000011921,278929.89999997616,7072,WL,B,9.0
2,16.244999885559082,learn,43755.00011444092,Fri Feb 28 2025 16:01:44 GMT-0600 (Central Standard Time),280546.39999997616,A,wind,O,d,59,1,1616.5,278929.89999997616,7072,WL,B,9.0
2,16.32800006866455,learn,43671.99993133545,Fri Feb 28 2025 16:01:44 GMT-0600 (Central Standard Time),280629.6999999881,A,windo,O,o,61,1,1699.800000011921,278929.89999997616,7072,WL,B,9.0
2,16.444999933242798,learn,43555.0000667572,Fri Feb 28 2025 16:01:44 GMT-0600 (Central Standard Time),280746.39999997616,A,window,O,w,78,1,1816.5,278929.89999997616,7072,WL,B,9.0
2,17.24399995803833,learn,42756.00004196167,Fri Feb 28 2025 16:01:44 GMT-0600 (Central Standard Time),281545.39999997616,A,windowenter,O,enter,767,1,2615.5,278929.89999997616,7072,WL,B,9.0
2,17.51099991798401,learn,42489.00008201599,Fri Feb 28 2025 16:01:44 GMT-0600 (Central Standard Time),281813.0,A,w,O,w,252,1,267.30000001192093,281545.6999999881,7072,WL,B,10.0
2,17.628000020980835,learn,42371.999979019165,Fri Feb 28 2025 16:01:44 GMT-0600 (Central Standard Time),281929.59999999404,A,wi,O,i,84,1,383.90000000596046,281545.6999999881,7072,WL,B,10.0
2,17.76099991798401,learn,42239.00008201599,Fri Feb 28 2025 16:01:44 GMT-0600 (Central Standard Time),282062.5,A,wif,O,f,98,1,516.8000000119209,281545.6999999881,7072,WL,B,10.0
2,17.810999870300293,learn,42189.00012969971,Fri Feb 28 2025 16:01:44 GMT-0600 (Central Standard Time),282112.09999999404,A,wife,O,e,21,1,566.4000000059605,281545.6999999881,7072,WL,B,10.0
2,18.210000038146973,learn,41789.99996185303,Fri Feb 28 2025 16:01:44 GMT-0600 (Central Standard Time),282511.7999999821,A,wifeenter,O,enter,375,1,966.0999999940395,281545.6999999881,7072,WL,B,10.0
2,20.710000038146973,learn,39289.99996185303,Fri Feb 28 2025 16:01:44 GMT-0600 (Central Standard Time),285011.89999997616,A,g,O,g,2487,1,2499.7999999821186,282512.09999999404,7072,WL,B,11.0
2,20.91000008583069,learn,39089.99991416931,Fri Feb 28 2025 16:01:44 GMT-0600 (Central Standard Time),285211.39999997616,A,gr,O,r,159,1,2699.2999999821186,282512.09999999404,7072,WL,B,11.0
2,20.9760000705719,learn,39023.9999294281,Fri Feb 28 2025 16:01:44 GMT-0600 (Central Standard Time),285277.5,A,gra,O,a,40,1,2765.4000000059605,282512.09999999404,7072,WL,B,11.0
2,21.16000008583069,learn,38839.99991416931,Fri Feb 28 2025 16:01:44 GMT-0600 (Central Standard Time),285461.39999997616,A,gras,O,s,174,1,2949.2999999821186,282512.09999999404,7072,WL,B,11.0
2,21.325999975204468,learn,38674.00002479553,Fri Feb 28 2025 16:01:44 GMT-0600 (Central Standard Time),285628.0,A,grass,O,s,126,1,3115.9000000059605,282512.09999999404,7072,WL,B,11.0
2,21.825999975204468,learn,38174.00002479553,Fri Feb 28 2025 16:01:44 GMT-0600 (Central Standard Time),286127.2999999821,A,grassenter,O,enter,463,1,3615.199999988079,282512.09999999404,7072,WL,B,11.0
2,22.210000038146973,learn,37789.99996185303,Fri Feb 28 2025 16:01:44 GMT-0600 (Central Standard Time),286511.5,A,s,O,s,367,1,383.90000000596046,286127.59999999404,7072,WL,B,12.0
2,22.344000101089478,learn,37655.99989891052,Fri Feb 28 2025 16:01:44 GMT-0600 (Central Standard Time),286645.1999999881,A,st,O,t,105,1,517.5999999940395,286127.59999999404,7072,WL,B,12.0
2,22.542999982833862,learn,37457.00001716614,Fri Feb 28 2025 16:01:44 GMT-0600 (Central Standard Time),286844.7999999821,A,str,O,r,157,1,717.1999999880791,286127.59999999404,7072,WL,B,12.0
2,22.59599995613098,learn,37404.00004386902,Fri Feb 28 2025 16:01:44 GMT-0600 (Central Standard Time),286897.7999999821,A,stre,O,e,14,1,770.1999999880791,286127.59999999404,7072,WL,B,12.0
2,22.74399995803833,learn,37256.00004196167,Fri Feb 28 2025 16:01:44 GMT-0600 (Central Standard Time),287045.1999999881,A,stree,O,e,131,1,917.5999999940395,286127.59999999404,7072,WL,B,12.0
2,22.91000008583069,learn,37089.99991416931,Fri Feb 28 2025 16:01:44 GMT-0600 (Central Standard Time),287211.2999999821,A,street,O,t,129,1,1083.699999988079,286127.59999999404,7072,WL,B,12.0
2,23.125,learn,36875.0,Fri Feb 28 2025 16:01:44 GMT-0600 (Central Standard Time),287426.89999997616,A,streetenter,O,enter,183,1,1299.2999999821186,286127.59999999404,7072,WL,B,12.0
2,23.325999975204468,learn,36674.00002479553,Fri Feb 28 2025 16:01:44 GMT-0600 (Central Standard Time),287627.5,A,c,O,c,186,1,200.40000000596046,287427.09999999404,7072,WL,B,13.0
2,23.441999912261963,learn,36558.00008773804,Fri Feb 28 2025 16:01:44 GMT-0600 (Central Standard Time),287743.7999999821,A,ci,O,i,80,1,316.69999998807907,287427.09999999404,7072,WL,B,13.0
2,23.52500009536743,learn,36474.99990463257,Fri Feb 28 2025 16:01:44 GMT-0600 (Central Standard Time),287827.0,A,cit,O,t,57,1,399.90000000596046,287427.09999999404,7072,WL,B,13.0
2,23.674999952316284,learn,36325.000047683716,Fri Feb 28 2025 16:01:44 GMT-0600 (Central Standard Time),287976.89999997616,A,city,O,y,125,1,549.7999999821186,287427.09999999404,7072,WL,B,13.0
2,23.91000008583069,learn,36089.99991416931,Fri Feb 28 2025 16:01:44 GMT-0600 (Central Standard Time),288211.0,A,cityenter,O,enter,214,1,783.9000000059605,287427.09999999404,7072,WL,B,13.0
2,26.742000102996826,learn,33257.999897003174,Fri Feb 28 2025 16:01:44 GMT-0600 (Central Standard Time),291043.1999999881,A,d,O,d,2819,1,2832.0,288211.1999999881,7072,WL,B,14.0
2,26.85800004005432,learn,33141.99995994568,Fri Feb 28 2025 16:01:44 GMT-0600 (Central Standard Time),291159.1999999881,A,do,O,o,77,1,2948.0,288211.1999999881,7072,WL,B,14.0
2,27.14199995994568,learn,32858.00004005432,Fri Feb 28 2025 16:01:44 GMT-0600 (Central Standard Time),291443.09999999404,A,dog,O,g,254,1,3231.9000000059605,288211.1999999881,7072,WL,B,14.0
2,27.941999912261963,learn,32058.000087738037,Fri Feb 28 2025 16:01:44 GMT-0600 (Central Standard Time),292242.7999999821,A,do,O,backspace,768,1,4031.5999999940395,288211.1999999881,7072,WL,B,14.0
2,28.108999967575073,learn,31891.000032424927,Fri Feb 28 2025 16:01:44 GMT-0600 (Central Standard Time),292409.59999999404,A,d,O,backspace,127,1,4198.4000000059605,288211.1999999881,7072,WL,B,14.0
2,28.242000102996826,learn,31757.999897003174,Fri Feb 28 2025 16:01:44 GMT-0600 (Central Standard Time),292542.6999999881,A,,O,backspace,105,1,4331.5,288211.1999999881,7072,WL,B,14.0
2,28.39199995994568,learn,31608.00004005432,Fri Feb 28 2025 16:01:44 GMT-0600 (Central Standard Time),292693.09999999404,A,,O,backspace,110,1,4481.9000000059605,288211.1999999881,7072,WL,B,14.0
2,28.52500009536743,learn,31474.99990463257,Fri Feb 28 2025 16:01:44 GMT-0600 (Central Standard Time),292825.6999999881,A,,O,backspace,102,1,4614.5,288211.1999999881,7072,WL,B,14.0
2,33.823999881744385,learn,26176.000118255615,Fri Feb 28 2025 16:01:44 GMT-0600 (Central Standard Time),298124.39999997616,A,g,O,g,5259,1,9913.199999988079,288211.1999999881,7072,WL,B,14.0
2,34.02300000190735,learn,25976.99999809265,Fri Feb 28 2025 16:01:44 GMT-0600 (Central Standard Time),298324.1999999881,A,gr,O,r,167,1,10113.0,288211.1999999881,7072,WL,B,14.0
2,34.24000000953674,learn,25759.999990463257,Fri Feb 28 2025 16:01:44 GMT-0600 (Central Standard Time),298540.89999997616,A,gra,O,a,177,1,10329.699999988079,288211.1999999881,7072,WL,B,14.0
2,34.40700006484985,learn,25592.999935150146,Fri Feb 28 2025 16:01:44 GMT-0600 (Central Standard Time),298707.39999997616,A,gras,O,s,126,1,10496.199999988079,288211.1999999881,7072,WL,B,14.0
2,34.53999996185303,learn,25460.000038146973,Fri Feb 28 2025 16:01:44 GMT-0600 (Central Standard Time),298840.6999999881,A,grass,O,s,104,1,10629.5,288211.1999999881,7072,WL,B,14.0
2,34.871999979019165,learn,25128.000020980835,Fri Feb 28 2025 16:01:44 GMT-0600 (Central Standard Time),299173.0,A,grassenter,O,enter,305,1,10961.800000011921,288211.1999999881,7072,WL,B,14.0
2,39.855000019073486,learn,20144.999980926514,Fri Feb 28 2025 16:01:44 GMT-0600 (Central Standard Time),304155.59999999404,A,s,O,s,4961,1,4982.300000011921,299173.2999999821,7072,WL,B,15.0
2,39.92799997329712,learn,20072.00002670288,Fri Feb 28 2025 16:01:44 GMT-0600 (Central Standard Time),304228.39999997616,A,sk,O,k,46,1,5055.0999999940395,299173.2999999821,7072,WL,B,15.0
2,40.08899998664856,learn,19911.00001335144,Fri Feb 28 2025 16:01:44 GMT-0600 (Central Standard Time),304389.39999997616,A,ski,O,i,150,1,5216.0999999940395,299173.2999999821,7072,WL,B,15.0
2,40.15599989891052,learn,19844.000101089478,Fri Feb 28 2025 16:01:44 GMT-0600 (Central Standard Time),304456.39999997616,A,skin,O,n,36,1,5283.0999999940395,299173.2999999821,7072,WL,B,15.0
2,40.420000076293945,learn,19579.999923706055,Fri Feb 28 2025 16:01:44 GMT-0600 (Central Standard Time),304721.09999999404,A,skinenter,O,enter,236,1,5547.800000011921,299173.2999999821,7072,WL,B,15.0
3,0.8829998970031738,learn,59117.000102996826,Fri Feb 28 2025 16:01:44 GMT-0600 (Central Standard Time),373583.09999999404,A,c,O,c,849,1,882.9000000059605,372700.1999999881,7072,WL,B,1.0
3,0.9819998741149902,learn,59018.00012588501,Fri Feb 28 2025 16:01:44 GMT-0600 (Central Standard Time),373682.2999999821,A,cl,O,l,65,1,982.0999999940395,372700.1999999881,7072,WL,B,1.0
3,1.1159999370574951,learn,58884.000062942505,Fri Feb 28 2025 16:01:44 GMT-0600 (Central Standard Time),373815.7999999821,A,clo,O,o,116,1,1115.5999999940395,372700.1999999881,7072,WL,B,1.0
3,1.2329998016357422,learn,58767.00019836426,Fri Feb 28 2025 16:01:44 GMT-0600 (Central Standard Time),373933.0,A,cloc,O,c,92,1,1232.800000011921,372700.1999999881,7072,WL,B,1.0
3,1.3149998188018799,learn,58685.00018119812,Fri Feb 28 2025 16:01:44 GMT-0600 (Central Standard Time),374015.39999997616,A,clock,O,k,55,1,1315.199999988079,372700.1999999881,7072,WL,B,1.0
3,1.7149999141693115,learn,58285.00008583069,Fri Feb 28 2025 16:01:44 GMT-0600 (Central Standard Time),374414.89999997616,A,clockenter,O,enter,381,1,1714.699999988079,372700.1999999881,7072,WL,B,1.0
3,2.0819997787475586,learn,57918.00022125244,Fri Feb 28 2025 16:01:44 GMT-0600 (Central Standard Time),374782.59999999404,A,p,O,p,351,1,367.40000000596046,374415.1999999881,7072,WL,B,2.0
3,2.180999994277954,learn,57819.000005722046,Fri Feb 28 2025 16:01:44 GMT-0600 (Central Standard Time),374881.59999999404,A,pi,O,i,58,1,466.40000000596046,374415.1999999881,7072,WL,B,2.0
3,2.315999984741211,learn,57684.00001525879,Fri Feb 28 2025 16:01:44 GMT-0600 (Central Standard Time),375015.6999999881,A,pip,O,p,110,1,600.5,374415.1999999881,7072,WL,B,2.0
3,2.748999834060669,learn,57251.00016593933,Fri Feb 28 2025 16:01:44 GMT-0600 (Central Standard Time),375449.0,A,pipe,O,e,395,1,1033.800000011921,374415.1999999881,7072,WL,B,2.0
3,2.9659998416900635,learn,57034.00015830994,Fri Feb 28 2025 16:01:44 GMT-0600 (Central Standard Time),375665.59999999404,A,pipeenter,O,enter,186,1,1250.4000000059605,374415.1999999881,7072,WL,B,2.0
3,3.7819998264312744,learn,56218.000173568726,Fri Feb 28 2025 16:01:44 GMT-0600 (Central Standard Time),376482.09999999404,A,a,O,a,793,1,816.2000000178814,375665.89999997616,7072,WL,B,3.0
3,3.8479998111724854,learn,56152.000188827515,Fri Feb 28 2025 16:01:44 GMT-0600 (Central Standard Time),376547.89999997616,A,ar,O,r,31,1,882.0,375665.89999997616,7072,WL,B,3.0
3,4.014999866485596,learn,55985.000133514404,Fri Feb 28 2025 16:01:44 GMT-0600 (Central Standard Time),376715.2999999821,A,arm,O,m,138,1,1049.4000000059605,375665.89999997616,7072,WL,B,3.0
3,4.2809998989105225,learn,55719.00010108948,Fri Feb 28 2025 16:01:44 GMT-0600 (Central Standard Time),376980.7999999821,A,armenter,O,enter,242,1,1314.9000000059605,375665.89999997616,7072,WL,B,3.0
3,4.514999866485596,learn,55485.000133514404,Fri Feb 28 2025 16:01:44 GMT-0600 (Central Standard Time),377215.09999999404,A,w,O,w,225,1,234.0,376981.09999999404,7072,WL,B,4.0
3,4.631999969482422,learn,55368.00003051758,Fri Feb 28 2025 16:01:44 GMT-0600 (Central Standard Time),377331.7999999821,A,wi,O,i,84,1,350.69999998807907,376981.09999999404,7072,WL,B,4.0
3,4.697999954223633,learn,55302.00004577637,Fri Feb 28 2025 16:01:44 GMT-0600 (Central Standard Time),377397.6999999881,A,win,O,n,38,1,416.59999999403954,376981.09999999404,7072,WL,B,4.0
3,4.847999811172485,learn,55152.000188827515,Fri Feb 28 2025 16:01:44 GMT-0600 (Central Standard Time),377548.0,A,wind,O,d,124,1,566.9000000059605,376981.09999999404,7072,WL,B,4.0
3,4.96399998664856,learn,55036.00001335144,Fri Feb 28 2025 16:01:44 GMT-0600 (Central Standard Time),377664.59999999404,A,windo,O,o,80,1,683.5,376981.09999999404,7072,WL,B,4.0
3,5.06499981880188,learn,54935.00018119812,Fri Feb 28 2025 16:01:44 GMT-0600 (Central Standard Time),377765.39999997616,A,window,O,w,76,1,784.2999999821186,376981.09999999404,7072,WL,B,4.0
3,5.596999883651733,learn,54403.00011634827,Fri Feb 28 2025 16:01:44 GMT-0600 (Central Standard Time),378297.1999999881,A,windowenter,O,enter,504,1,1316.0999999940395,376981.09999999404,7072,WL,B,4.0
3,5.7809998989105225,learn,54219.00010108948,Fri Feb 28 2025 16:01:44 GMT-0600 (Central Standard Time),378481.39999997616,A,s,O,s,174,1,184.0,378297.39999997616,7072,WL,B,5.0
3,5.880999803543091,learn,54119.00019645691,Fri Feb 28 2025 16:01:44 GMT-0600 (Central Standard Time),378581.1999999881,A,st,O,t,74,1,283.80000001192093,378297.39999997616,7072,WL,B,5.0
3,6.081999778747559,learn,53918.00022125244,Fri Feb 28 2025 16:01:44 GMT-0600 (Central Standard Time),378781.89999997616,A,str,O,r,177,1,484.5,378297.39999997616,7072,WL,B,5.0
3,6.113999843597412,learn,53886.00015640259,Fri Feb 28 2025 16:01:44 GMT-0600 (Central Standard Time),378813.7999999821,A,stre,O,e,6,1,516.4000000059605,378297.39999997616,7072,WL,B,5.0
3,6.2809998989105225,learn,53719.00010108948,Fri Feb 28 2025 16:01:44 GMT-0600 (Central Standard Time),378980.7999999821,A,stree,O,e,138,1,683.4000000059605,378297.39999997616,7072,WL,B,5.0
3,6.430999994277954,learn,53569.000005722046,Fri Feb 28 2025 16:01:44 GMT-0600 (Central Standard Time),379131.1999999881,A,street,O,t,119,1,833.8000000119209,378297.39999997616,7072,WL,B,5.0
3,6.7129998207092285,learn,53287.00017929077,Fri Feb 28 2025 16:01:44 GMT-0600 (Central Standard Time),379413.5,A,streetenter,O,enter,247,1,1116.1000000238419,378297.39999997616,7072,WL,B,5.0
3,6.930999994277954,learn,53069.000005722046,Fri Feb 28 2025 16:01:44 GMT-0600 (Central Standard Time),379630.6999999881,A,g,O,g,201,1,217.0,379413.6999999881,7072,WL,B,6.0
3,7.114999771118164,learn,52885.000228881836,Fri Feb 28 2025 16:01:44 GMT-0600 (Central Standard Time),379814.89999997616,A,gr,O,r,165,1,401.19999998807907,379413.6999999881,7072,WL,B,6.0
3,7.2129998207092285,learn,52787.00017929077,Fri Feb 28 2025 16:01:44 GMT-0600 (Central Standard Time),379913.5,A,gra,O,a,59,1,499.80000001192093,379413.6999999881,7072,WL,B,6.0
3,7.413999795913696,learn,52586.000204086304,Fri Feb 28 2025 16:01:44 GMT-0600 (Central Standard Time),380114.0,A,gras,O,s,162,1,700.3000000119209,379413.6999999881,7072,WL,B,6.0
3,7.563999891281128,learn,52436.00010871887,Fri Feb 28 2025 16:01:44 GMT-0600 (Central Standard Time),380263.89999997616,A,grass,O,s,122,1,850.1999999880791,379413.6999999881,7072,WL,B,6.0
3,7.879999876022339,learn,52120.00012397766,Fri Feb 28 2025 16:01:44 GMT-0600 (Central Standard Time),380579.6999999881,A,grassenter,O,enter,273,1,1166.0,379413.6999999881,7072,WL,B,6.0
3,9.396999835968018,learn,50603.00016403198,Fri Feb 28 2025 16:01:44 GMT-0600 (Central Standard Time),382097.1999999881,A,c,O,c,1506,1,1517.199999988079,380580.0,7072,WL,B,7.0
3,9.513999938964844,learn,50486.000061035156,Fri Feb 28 2025 16:01:44 GMT-0600 (Central Standard Time),382213.59999999404,A,ci,O,i,98,1,1633.5999999940395,380580.0,7072,WL,B,7.0
3,9.61299991607666,learn,50387.00008392334,Fri Feb 28 2025 16:01:44 GMT-0600 (Central Standard Time),382312.59999999404,A,cit,O,t,68,1,1732.5999999940395,380580.0,7072,WL,B,7.0
3,9.745999813079834,learn,50254.000186920166,Fri Feb 28 2025 16:01:44 GMT-0600 (Central Standard Time),382446.39999997616,A,city,O,y,117,1,1866.3999999761581,380580.0,7072,WL,B,7.0
3,10.095999956130981,learn,49904.00004386902,Fri Feb 28 2025 16:01:44 GMT-0600 (Central Standard Time),382795.59999999404,A,cityenter,O,enter,321,1,2215.5999999940395,380580.0,7072,WL,B,7.0
3,11.095999956130981,learn,48904.00004386902,Fri Feb 28 2025 16:01:44 GMT-0600 (Central Standard Time),383796.39999997616,A,d,O,d,987,1,1000.5,382795.89999997616,7072,WL,B,8.0
3,11.328999996185303,learn,48671.0000038147,Fri Feb 28 2025 16:01:44 GMT-0600 (Central Standard Time),384029.5,A,dr,O,r,200,1,1233.6000000238419,382795.89999997616,7072,WL,B,8.0
3,11.35699987411499,learn,48643.00012588501,Fri Feb 28 2025 16:01:44 GMT-0600 (Central Standard Time),384056.59999999404,A,dre,O,e,2,1,1260.7000000178814,382795.89999997616,7072,WL,B,8.0
3,11.42799997329712,learn,48572.00002670288,Fri Feb 28 2025 16:01:44 GMT-0600 (Central Standard Time),384128.39999997616,A,drea,O,a,48,1,1332.5,382795.89999997616,7072,WL,B,8.0
3,11.628999948501587,learn,48371.00005149841,Fri Feb 28 2025 16:01:44 GMT-0600 (Central Standard Time),384329.39999997616,A,dream,O,m,189,1,1533.5,382795.89999997616,7072,WL,B,8.0
3,11.994999885559082,learn,48005.00011444092,Fri Feb 28 2025 16:01:44 GMT-0600 (Central Standard Time),384695.09999999404,A,dreamenter,O,enter,337,1,1899.2000000178814,382795.89999997616,7072,WL,B,8.0
3,12.129999876022339,learn,47870.00012397766,Fri Feb 28 2025 16:01:44 GMT-0600 (Central Standard Time),384829.7999999821,A,s,O,s,128,1,134.5,384695.2999999821,7072,WL,B,9.0
3,12.211999893188477,learn,47788.00010681152,Fri Feb 28 2025 16:01:44 GMT-0600 (Central Standard Time),384911.7999999821,A,st,O,t,52,1,216.5,384695.2999999821,7072,WL,B,9.0
3,12.378999948501587,learn,47621.00005149841,Fri Feb 28 2025 16:01:44 GMT-0600 (Central Standard Time),385078.7999999821,A,sta,O,a,142,1,383.5,384695.2999999821,7072,WL,B,9.0
3,12.461999893188477,learn,47538.00010681152,Fri Feb 28 2025 16:01:44 GMT-0600 (Central Standard Time),385161.7999999821,A,star,O,r,52,1,466.5,384695.2999999821,7072,WL,B,9.0
3,13.160999774932861,learn,46839.00022506714,Fri Feb 28 2025 16:01:44 GMT-0600 (Central Standard Time),385861.1999999881,A,starenter,O,enter,676,1,1165.9000000059605,384695.2999999821,7072,WL,B,9.0
3,15.561999797821045,learn,44438.000202178955,Fri Feb 28 2025 16:01:44 GMT-0600 (Central Standard Time),388261.7999999821,A,w,O,w,2394,1,2400.2999999821186,385861.5,7072,WL,B,10.0
3,15.960999965667725,learn,44039.000034332275,Fri Feb 28 2025 16:01:44 GMT-0600 (Central Standard Time),388661.39999997616,A,wi,O,i,367,1,2799.899999976158,385861.5,7072,WL,B,10.0
3,16.060999870300293,learn,43939.00012969971,Fri Feb 28 2025 16:01:44 GMT-0600 (Central Standard Time),388760.7999999821,A,wif,O,f,69,1,2899.2999999821186,385861.5,7072,WL,B,10.0
3,16.126999855041504,learn,43873.000144958496,Fri Feb 28 2025 16:01:44 GMT-0600 (Central Standard Time),388827.0,A,wife,O,e,28,1,2965.5,385861.5,7072,WL,B,10.0
3,16.51099991798401,learn,43489.00008201599,Fri Feb 28 2025 16:01:44 GMT-0600 (Central Standard Time),389211.2999999821,A,wifeenter,O,enter,358,1,3349.7999999821186,385861.5,7072,WL,B,10.0
3,16.643999814987183,learn,43356.00018501282,Fri Feb 28 2025 16:01:44 GMT-0600 (Central Standard Time),389344.5,A,a,O,a,123,1,133.0,389211.5,7072,WL,B,11.0
3,16.72699999809265,learn,43273.00000190735,Fri Feb 28 2025 16:01:44 GMT-0600 (Central Standard Time),389427.0,A,ar,O,r,52,1,215.5,389211.5,7072,WL,B,11.0
3,16.82699990272522,learn,43173.00009727478,Fri Feb 28 2025 16:01:44 GMT-0600 (Central Standard Time),389527.5,A,arm,O,m,82,1,316.0,389211.5,7072,WL,B,11.0
3,17.276999950408936,learn,42723.000049591064,Fri Feb 28 2025 16:01:44 GMT-0600 (Central Standard Time),389976.59999999404,A,armenter,O,enter,426,1,765.0999999940395,389211.5,7072,WL,B,11.0
3,17.776999950408936,learn,42223.000049591064,Fri Feb 28 2025 16:01:44 GMT-0600 (Central Standard Time),390477.5,A,s,O,s,487,1,500.60000002384186,389976.89999997616,7072,WL,B,12.0
3,17.875999927520752,learn,42124.00007247925,Fri Feb 28 2025 16:01:44 GMT-0600 (Central Standard Time),390576.1999999881,A,st,O,t,59,1,599.3000000119209,389976.89999997616,7072,WL,B,12.0
3,18.060999870300293,learn,41939.00012969971,Fri Feb 28 2025 16:01:44 GMT-0600 (Central Standard Time),390760.6999999881,A,sta,O,a,174,1,783.8000000119209,389976.89999997616,7072,WL,B,12.0
3,18.125999927520752,learn,41874.00007247925,Fri Feb 28 2025 16:01:44 GMT-0600 (Central Standard Time),390826.5,A,star,O,r,35,1,849.6000000238419,389976.89999997616,7072,WL,B,12.0
3,18.658999919891357,learn,41341.00008010864,Fri Feb 28 2025 16:01:44 GMT-0600 (Central Standard Time),391359.5,A,starenter,O,enter,502,1,1382.6000000238419,389976.89999997616,7072,WL,B,12.0
3,19.80999994277954,learn,40190.00005722046,Fri Feb 28 2025 16:01:44 GMT-0600 (Central Standard Time),392509.89999997616,A,w,O,w,1135,1,1150.0999999940395,391359.7999999821,7072,WL,B,13.0
3,19.89199995994568,learn,40108.00004005432,Fri Feb 28 2025 16:01:44 GMT-0600 (Central Standard Time),392592.2999999821,A,wi,O,i,42,1,1232.5,391359.7999999821,7072,WL,B,13.0
3,19.942999839782715,learn,40057.000160217285,Fri Feb 28 2025 16:01:44 GMT-0600 (Central Standard Time),392642.59999999404,A,win,O,n,28,1,1282.800000011921,391359.7999999821,7072,WL,B,13.0
3,20.025999784469604,learn,39974.000215530396,Fri Feb 28 2025 16:01:44 GMT-0600 (Central Standard Time),392726.09999999404,A,wind,O,d,73,1,1366.300000011921,391359.7999999821,7072,WL,B,13.0
3,20.108999967575073,learn,39891.00003242493,Fri Feb 28 2025 16:01:44 GMT-0600 (Central Standard Time),392809.2999999821,A,windo,O,o,59,1,1449.5,391359.7999999821,7072,WL,B,13.0
3,20.22599983215332,learn,39774.00016784668,Fri Feb 28 2025 16:01:44 GMT-0600 (Central Standard Time),392926.09999999404,A,window,O,w,97,1,1566.300000011921,391359.7999999821,7072,WL,B,13.0
3,20.875,learn,39125.0,Fri Feb 28 2025 16:01:44 GMT-0600 (Central Standard Time),393575.5,A,windowenter,O,enter,621,1,2215.7000000178814,391359.7999999821,7072,WL,B,13.0
3,21.542999982833862,learn,38457.00001716614,Fri Feb 28 2025 16:01:44 GMT-0600 (Central Standard Time),394242.6999999881,A,s,O,s,647,1,667.0,393575.6999999881,7072,WL,B,14.0
3,21.64199995994568,learn,38358.00004005432,Fri Feb 28 2025 16:01:44 GMT-0600 (Central Standard Time),394342.2999999821,A,sk,O,k,72,1,766.5999999940395,393575.6999999881,7072,WL,B,14.0
3,21.792999982833862,learn,38207.00001716614,Fri Feb 28 2025 16:01:44 GMT-0600 (Central Standard Time),394492.89999997616,A,ski,O,i,127,1,917.1999999880791,393575.6999999881,7072,WL,B,14.0
3,21.824999809265137,learn,38175.00019073486,Fri Feb 28 2025 16:01:44 GMT-0600 (Central Standard Time),394525.5,A,skin,O,n,6,1,949.8000000119209,393575.6999999881,7072,WL,B,14.0
3,22.20799994468689,learn,37792.00005531311,Fri Feb 28 2025 16:01:44 GMT-0600 (Central Standard Time),394908.2999999821,A,skinenter,O,enter,370,1,1332.5999999940395,393575.6999999881,7072,WL,B,14.0
3,23.40999984741211,learn,36590.00015258789,Fri Feb 28 2025 16:01:44 GMT-0600 (Central Standard Time),396109.6999999881,A,a,O,a,1195,1,1201.199999988079,394908.5,7072,WL,B,15.0
3,23.45799994468689,learn,36542.00005531311,Fri Feb 28 2025 16:01:44 GMT-0600 (Central Standard Time),396158.1999999881,A,ar,O,r,20,1,1249.699999988079,394908.5,7072,WL,B,15.0
3,23.592000007629395,learn,36407.999992370605,Fri Feb 28 2025 16:01:44 GMT-0600 (Central Standard Time),396292.09999999404,A,arm,O,m,105,1,1383.5999999940395,394908.5,7072,WL,B,15.0
3,23.757999897003174,learn,36242.000102996826,Fri Feb 28 2025 16:01:44 GMT-0600 (Central Standard Time),396457.89999997616,A,armenter,O,enter,124,1,1549.3999999761581,394908.5,7072,WL,B,15.0
4,1.1989998817443848,learn,58801.000118255615,Fri Feb 28 2025 16:01:44 GMT-0600 (Central Standard Time),463636.7999999821,A,c,O,c,1166,1,1199.0999999940395,462437.6999999881,7072,WL,B,1.0
4,1.3329999446868896,learn,58667.00005531311,Fri Feb 28 2025 16:01:44 GMT-0600 (Central Standard Time),463770.09999999404,A,cl,O,l,103,1,1332.4000000059605,462437.6999999881,7072,WL,B,1.0
4,1.4660000801086426,learn,58533.99991989136,Fri Feb 28 2025 16:01:44 GMT-0600 (Central Standard Time),463903.5,A,clo,O,o,106,1,1465.800000011921,462437.6999999881,7072,WL,B,1.0
4,1.683000087738037,learn,58316.99991226196,Fri Feb 28 2025 16:01:44 GMT-0600 (Central Standard Time),464120.0,A,cloc,O,c,181,1,1682.300000011921,462437.6999999881,7072,WL,B,1.0
4,1.7820000648498535,learn,58217.99993515015,Fri Feb 28 2025 16:01:44 GMT-0600 (Central Standard Time),464219.09999999404,A,clock,O,k,67,1,1781.4000000059605,462437.6999999881,7072,WL,B,1.0
4,2.197999954223633,learn,57802.00004577637,Fri Feb 28 2025 16:01:44 GMT-0600 (Central Standard Time),464635.5,A,clockenter,O,enter,394,1,2197.800000011921,462437.6999999881,7072,WL,B,1.0
4,2.5160000324249268,learn,57483.99996757507,Fri Feb 28 2025 16:01:44 GMT-0600 (Central Standard Time),464953.0,A,p,O,p,299,1,317.30000001192093,464635.6999999881,7072,WL,B,2.0
4,2.631999969482422,learn,57368.00003051758,Fri Feb 28 2025 16:01:44 GMT-0600 (Central Standard Time),465069.6999999881,A,pi,O,i,83,1,434.0,464635.6999999881,7072,WL,B,2.0
4,2.797999858856201,learn,57202.0001411438,Fri Feb 28 2025 16:01:44 GMT-0600 (Central Standard Time),465235.1999999881,A,pip,O,p,131,1,599.5,464635.6999999881,7072,WL,B,2.0
4,3.3989999294281006,learn,56601.0000705719,Fri Feb 28 2025 16:01:44 GMT-0600 (Central Standard Time),465836.09999999404,A,pipe,O,e,577,1,1200.4000000059605,464635.6999999881,7072,WL,B,2.0
4,3.5320000648498535,learn,56467.99993515015,Fri Feb 28 2025 16:01:44 GMT-0600 (Central Standard Time),465969.59999999404,A,pipeenter,O,enter,99,1,1333.9000000059605,464635.6999999881,7072,WL,B,2.0
4,3.681999921798706,learn,56318.000078201294,Fri Feb 28 2025 16:01:44 GMT-0600 (Central Standard Time),466119.1999999881,A,f,O,f,141,1,149.40000000596046,465969.7999999821,7072,WL,B,3.0
4,3.8310000896453857,learn,56168.999910354614,Fri Feb 28 2025 16:01:44 GMT-0600 (Central Standard Time),466268.6999999881,A,fi,O,i,116,1,298.90000000596046,465969.7999999821,7072,WL,B,3.0
4,3.88100004196167,learn,56118.99995803833,Fri Feb 28 2025 16:01:44 GMT-0600 (Central Standard Time),466318.1999999881,A,fir,O,r,32,1,348.40000000596046,465969.7999999821,7072,WL,B,3.0
4,4.197999954223633,learn,55802.00004577637,Fri Feb 28 2025 16:01:44 GMT-0600 (Central Standard Time),466636.0,A,fire,O,e,296,1,666.2000000178814,465969.7999999821,7072,WL,B,3.0
4,4.513999938964844,learn,55486.000061035156,Fri Feb 28 2025 16:01:44 GMT-0600 (Central Standard Time),466951.5,A,fireenter,O,enter,279,1,981.7000000178814,465969.7999999821,7072,WL,B,3.0
4,4.697999954223633,learn,55302.00004577637,Fri Feb 28 2025 16:01:44 GMT-0600 (Central Standard Time),467135.7999999821,A,d,O,d,176,1,184.09999999403954,466951.6999999881,7072,WL,B,4.0
4,4.797999858856201,learn,55202.0001411438,Fri Feb 28 2025 16:01:44 GMT-0600 (Central Standard Time),467235.2999999821,A,do,O,o,67,1,283.59999999403954,466951.6999999881,7072,WL,B,4.0
4,4.931999921798706,learn,55068.000078201294,Fri Feb 28 2025 16:01:44 GMT-0600 (Central Standard Time),467369.39999997616,A,doo,O,o,113,1,417.69999998807907,466951.6999999881,7072,WL,B,4.0
4,4.983000040054321,learn,55016.99995994568,Fri Feb 28 2025 16:01:44 GMT-0600 (Central Standard Time),467420.39999997616,A,door,O,r,25,1,468.69999998807907,466951.6999999881,7072,WL,B,4.0
4,5.563999891281128,learn,54436.00010871887,Fri Feb 28 2025 16:01:44 GMT-0600 (Central Standard Time),468001.09999999404,A,doorenter,O,enter,561,1,1049.4000000059605,466951.6999999881,7072,WL,B,4.0
4,7.914000034332275,learn,52085.999965667725,Fri Feb 28 2025 16:01:44 GMT-0600 (Central Standard Time),470351.09999999404,A,s,O,s,2342,1,2349.800000011921,468001.2999999821,7072,WL,B,5.0
4,8.04699993133545,learn,51953.00006866455,Fri Feb 28 2025 16:01:44 GMT-0600 (Central Standard Time),470484.09999999404,A,st,O,t,103,1,2482.800000011921,468001.2999999821,7072,WL,B,5.0
4,8.230999946594238,learn,51769.00005340576,Fri Feb 28 2025 16:01:44 GMT-0600 (Central Standard Time),470667.89999997616,A,str,O,r,153,1,2666.5999999940395,468001.2999999821,7072,WL,B,5.0
4,8.259999990463257,learn,51740.00000953674,Fri Feb 28 2025 16:01:44 GMT-0600 (Central Standard Time),470697.2999999821,A,stre,O,e,3,1,2696.0,468001.2999999821,7072,WL,B,5.0
4,8.414000034332275,learn,51585.999965667725,Fri Feb 28 2025 16:01:44 GMT-0600 (Central Standard Time),470850.7999999821,A,stree,O,e,124,1,2849.5,468001.2999999821,7072,WL,B,5.0
4,8.530999898910522,learn,51469.00010108948,Fri Feb 28 2025 16:01:44 GMT-0600 (Central Standard Time),470967.6999999881,A,street,O,t,90,1,2966.4000000059605,468001.2999999821,7072,WL,B,5.0
4,8.94700002670288,learn,51052.99997329712,Fri Feb 28 2025 16:01:44 GMT-0600 (Central Standard Time),471383.09999999404,A,streetenter,O,enter,387,1,3381.800000011921,468001.2999999821,7072,WL,B,5.0
4,9.096999883651733,learn,50903.00011634827,Fri Feb 28 2025 16:01:44 GMT-0600 (Central Standard Time),471534.0,A,g,O,g,144,1,150.60000002384186,471383.39999997616,7072,WL,B,6.0
4,9.313999891281128,learn,50686.00010871887,Fri Feb 28 2025 16:01:44 GMT-0600 (Central Standard Time),471751.0,A,gr,O,r,182,1,367.60000002384186,471383.39999997616,7072,WL,B,6.0
4,9.547999858856201,learn,50452.0001411438,Fri Feb 28 2025 16:01:44 GMT-0600 (Central Standard Time),471984.6999999881,A,gra,O,a,204,1,601.3000000119209,471383.39999997616,7072,WL,B,6.0
4,9.746999979019165,learn,50253.000020980835,Fri Feb 28 2025 16:01:44 GMT-0600 (Central Standard Time),472184.09999999404,A,gras,O,s,174,1,800.7000000178814,471383.39999997616,7072,WL,B,6.0
4,9.930000066757202,learn,50069.9999332428,Fri Feb 28 2025 16:01:44 GMT-0600 (Central Standard Time),472367.1999999881,A,grass,O,s,155,1,983.8000000119209,471383.39999997616,7072,WL,B,6.0
4,10.263000011444092,learn,49736.99998855591,Fri Feb 28 2025 16:01:44 GMT-0600 (Central Standard Time),472699.5,A,grassenter,O,enter,299,1,1316.1000000238419,471383.39999997616,7072,WL,B,6.0
4,10.579999923706055,learn,49420.000076293945,Fri Feb 28 2025 16:01:44 GMT-0600 (Central Standard Time),473017.09999999404,A,c,O,c,307,1,317.2000000178814,472699.89999997616,7072,WL,B,7.0
4,10.71399998664856,learn,49286.00001335144,Fri Feb 28 2025 16:01:44 GMT-0600 (Central Standard Time),473150.5,A,ci,O,i,98,1,450.60000002384186,472699.89999997616,7072,WL,B,7.0
4,10.864000082015991,learn,49135.99991798401,Fri Feb 28 2025 16:01:44 GMT-0600 (Central Standard Time),473300.2999999821,A,cit,O,t,108,1,600.4000000059605,472699.89999997616,7072,WL,B,7.0
4,11.04699993133545,learn,48953.00006866455,Fri Feb 28 2025 16:01:44 GMT-0600 (Central Standard Time),473483.6999999881,A,city,O,y,143,1,783.8000000119209,472699.89999997616,7072,WL,B,7.0
4,11.729000091552734,learn,48270.999908447266,Fri Feb 28 2025 16:01:44 GMT-0600 (Central Standard Time),474165.7999999821,A,cityenter,O,enter,650,1,1465.9000000059605,472699.89999997616,7072,WL,B,7.0
4,12.062999963760376,learn,47937.000036239624,Fri Feb 28 2025 16:01:44 GMT-0600 (Central Standard Time),474500.09999999404,A,d,O,d,321,1,334.09999999403954,474166.0,7072,WL,B,8.0
4,12.19599986076355,learn,47804.00013923645,Fri Feb 28 2025 16:01:44 GMT-0600 (Central Standard Time),474633.09999999404,A,do,O,o,96,1,467.09999999403954,474166.0,7072,WL,B,8.0
4,12.296000003814697,learn,47703.9999961853,Fri Feb 28 2025 16:01:44 GMT-0600 (Central Standard Time),474732.59999999404,A,doo,O,o,74,1,566.5999999940395,474166.0,7072,WL,B,8.0
4,12.378999948501587,learn,47621.00005149841,Fri Feb 28 2025 16:01:44 GMT-0600 (Central Standard Time),474815.5,A,door,O,r,62,1,649.5,474166.0,7072,WL,B,8.0
4,12.911999940872192,learn,47088.00005912781,Fri Feb 28 2025 16:01:44 GMT-0600 (Central Standard Time),475348.6999999881,A,doorenter,O,enter,518,1,1182.699999988079,474166.0,7072,WL,B,8.0
4,13.128999948501587,learn,46871.00005149841,Fri Feb 28 2025 16:01:44 GMT-0600 (Central Standard Time),475566.0,A,a,O,a,202,1,217.10000002384186,475348.89999997616,7072,WL,B,9.0
4,13.229000091552734,learn,46770.999908447266,Fri Feb 28 2025 16:01:44 GMT-0600 (Central Standard Time),475665.7999999821,A,ar,O,r,69,1,316.90000000596046,475348.89999997616,7072,WL,B,9.0
4,13.395999908447266,learn,46604.000091552734,Fri Feb 28 2025 16:01:44 GMT-0600 (Central Standard Time),475832.5,A,arm,O,m,129,1,483.60000002384186,475348.89999997616,7072,WL,B,9.0
4,14.17799997329712,learn,45822.00002670288,Fri Feb 28 2025 16:01:44 GMT-0600 (Central Standard Time),476615.0,A,armenter,O,enter,756,1,1266.1000000238419,475348.89999997616,7072,WL,B,9.0
4,14.479000091552734,learn,45520.999908447266,Fri Feb 28 2025 16:01:44 GMT-0600 (Central Standard Time),476915.7999999821,A,w,O,w,279,1,300.59999999403954,476615.1999999881,7072,WL,B,10.0
4,14.628999948501587,learn,45371.00005149841,Fri Feb 28 2025 16:01:44 GMT-0600 (Central Standard Time),477065.6999999881,A,wi,O,i,112,1,450.5,476615.1999999881,7072,WL,B,10.0
4,14.711999893188477,learn,45288.00010681152,Fri Feb 28 2025 16:01:44 GMT-0600 (Central Standard Time),477148.1999999881,A,wif,O,f,42,1,533.0,476615.1999999881,7072,WL,B,10.0
4,14.744999885559082,learn,45255.00011444092,Fri Feb 28 2025 16:01:44 GMT-0600 (Central Standard Time),477182.09999999404,A,wife,O,e,18,1,566.9000000059605,476615.1999999881,7072,WL,B,10.0
4,14.92799997329712,learn,45072.00002670288,Fri Feb 28 2025 16:01:44 GMT-0600 (Central Standard Time),477364.6999999881,A,wifeenter,O,enter,168,1,749.5,476615.1999999881,7072,WL,B,10.0
4,16.027999877929688,learn,43972.00012207031,Fri Feb 28 2025 16:01:44 GMT-0600 (Central Standard Time),478465.1999999881,A,c,O,c,1090,1,1100.199999988079,477365.0,7072,WL,B,11.0
4,16.194999933242798,learn,43805.0000667572,Fri Feb 28 2025 16:01:44 GMT-0600 (Central Standard Time),478632.0,A,ca,O,a,131,1,1267.0,477365.0,7072,WL,B,11.0
4,16.52900004386902,learn,43470.99995613098,Fri Feb 28 2025 16:01:44 GMT-0600 (Central Standard Time),478965.6999999881,A,c,O,backspace,308,1,1600.699999988079,477365.0,7072,WL,B,11.0
4,17.01200008392334,learn,42987.99991607666,Fri Feb 28 2025 16:01:44 GMT-0600 (Central Standard Time),479448.1999999881,A,ca,O,a,447,1,2083.199999988079,477365.0,7072,WL,B,11.0
4,17.361000061035156,learn,42638.999938964844,Fri Feb 28 2025 16:01:44 GMT-0600 (Central Standard Time),479798.09999999404,A,cab,O,b,316,1,2433.0999999940395,477365.0,7072,WL,B,11.0
4,17.444000005722046,learn,42555.999994277954,Fri Feb 28 2025 16:01:44 GMT-0600 (Central Standard Time),479880.89999997616,A,cabi,O,i,53,1,2515.899999976158,477365.0,7072,WL,B,11.0
4,17.527999877929688,learn,42472.00012207031,Fri Feb 28 2025 16:01:44 GMT-0600 (Central Standard Time),479964.89999997616,A,cabin,O,n,61,1,2599.899999976158,477365.0,7072,WL,B,11.0
4,17.89400005340576,learn,42105.99994659424,Fri Feb 28 2025 16:01:44 GMT-0600 (Central Standard Time),480330.39999997616,A,cabinenter,O,enter,337,1,2965.399999976158,477365.0,7072,WL,B,11.0
4,18.16100001335144,learn,41838.99998664856,Fri Feb 28 2025 16:01:44 GMT-0600 (Central Standard Time),480598.0,A,l,O,l,253,1,267.40000000596046,480330.59999999404,7072,WL,B,12.0
4,18.22699999809265,learn,41773.00000190735,Fri Feb 28 2025 16:01:44 GMT-0600 (Central Standard Time),480663.39999997616,A,la,O,a,40,1,332.7999999821186,480330.59999999404,7072,WL,B,12.0
4,18.32699990272522,learn,41673.00009727478,Fri Feb 28 2025 16:01:44 GMT-0600 (Central Standard Time),480764.09999999404,A,lak,O,k,93,1,433.5,480330.59999999404,7072,WL,B,12.0
4,18.460999965667725,learn,41539.000034332275,Fri Feb 28 2025 16:01:44 GMT-0600 (Central Standard Time),480897.89999997616,A,lake,O,e,114,1,567.2999999821186,480330.59999999404,7072,WL,B,12.0
4,18.82699990272522,learn,41173.00009727478,Fri Feb 28 2025 16:01:44 GMT-0600 (Central Standard Time),481263.39999997616,A,lakeenter,O,enter,334,1,932.7999999821186,480330.59999999404,7072,WL,B,12.0
4,19.126999855041504,learn,40873.000144958496,Fri Feb 28 2025 16:01:44 GMT-0600 (Central Standard Time),481564.0,A,p,O,p,288,1,300.30000001192093,481263.6999999881,7072,WL,B,13.0
4,19.22699999809265,learn,40773.00000190735,Fri Feb 28 2025 16:01:44 GMT-0600 (Central Standard Time),481663.7999999821,A,pu,O,u,62,1,400.09999999403954,481263.6999999881,7072,WL,B,13.0
4,19.3439998626709,learn,40656.0001373291,Fri Feb 28 2025 16:01:44 GMT-0600 (Central Standard Time),481781.1999999881,A,pup,O,p,84,1,517.5,481263.6999999881,7072,WL,B,13.0
4,19.57699990272522,learn,40423.00009727478,Fri Feb 28 2025 16:01:44 GMT-0600 (Central Standard Time),482013.89999997616,A,pupi,O,i,207,1,750.1999999880791,481263.6999999881,7072,WL,B,13.0
4,19.76099991798401,learn,40239.00008201599,Fri Feb 28 2025 16:01:44 GMT-0600 (Central Standard Time),482197.39999997616,A,pupil,O,l,143,1,933.6999999880791,481263.6999999881,7072,WL,B,13.0
4,20.16100001335144,learn,39838.99998664856,Fri Feb 28 2025 16:01:44 GMT-0600 (Central Standard Time),482597.39999997616,A,pupilenter,O,enter,374,1,1333.699999988079,481263.6999999881,7072,WL,B,13.0
4,24.658999919891357,learn,35341.00008010864,Fri Feb 28 2025 16:01:44 GMT-0600 (Central Standard Time),487095.7999999821,A,s,O,s,4490,1,4498.0999999940395,482597.6999999881,7072,WL,B,14.0
4,24.71499991416931,learn,35285.00008583069,Fri Feb 28 2025 16:01:44 GMT-0600 (Central Standard Time),487151.89999997616,A,sk,O,k,23,1,4554.199999988079,482597.6999999881,7072,WL,B,14.0
4,24.875999927520752,learn,35124.00007247925,Fri Feb 28 2025 16:01:44 GMT-0600 (Central Standard Time),487312.2999999821,A,ski,O,i,149,1,4714.5999999940395,482597.6999999881,7072,WL,B,14.0
4,24.924999952316284,learn,35075.000047683716,Fri Feb 28 2025 16:01:44 GMT-0600 (Central Standard Time),487362.1999999881,A,skin,O,n,19,1,4764.5,482597.6999999881,7072,WL,B,14.0
4,25.740999937057495,learn,34259.000062942505,Fri Feb 28 2025 16:01:44 GMT-0600 (Central Standard Time),488177.7999999821,A,skinenter,O,enter,797,1,5580.0999999940395,482597.6999999881,7072,WL,B,14.0
4,26.45799994468689,learn,33542.00005531311,Fri Feb 28 2025 16:01:44 GMT-0600 (Central Standard Time),488895.09999999404,A,f,O,f,701,1,717.0999999940395,488178.0,7072,WL,B,15.0
4,26.575000047683716,learn,33424.999952316284,Fri Feb 28 2025 16:01:44 GMT-0600 (Central Standard Time),489011.89999997616,A,fi,O,i,87,1,833.8999999761581,488178.0,7072,WL,B,15.0
4,26.674000024795532,learn,33325.99997520447,Fri Feb 28 2025 16:01:44 GMT-0600 (Central Standard Time),489110.89999997616,A,fir,O,r,65,1,932.8999999761581,488178.0,7072,WL,B,15.0
4,26.723999977111816,learn,33276.00002288818,Fri Feb 28 2025 16:01:44 GMT-0600 (Central Standard Time),489161.0,A,fire,O,e,27,1,983.0,488178.0,7072,WL,B,15.0
4,27.006999969482422,learn,32993.00003051758,Fri Feb 28 2025 16:01:44 GMT-0600 (Central Standard Time),489444.09999999404,A,fireenter,O,enter,267,1,1266.0999999940395,488178.0,7072,WL,B,15.0
5,2.0989999771118164,learn,60000.0,Fri Feb 28 2025 16:01:44 GMT-0600 (Central Standard Time),563454.3999999762,A,s,O,s,2076,1,2099.399999976158,561355.0,7072,WL,B,1.0
5,2.180999994277954,learn,60000.0,Fri Feb 28 2025 16:01:44 GMT-0600 (Central Standard Time),563536.2999999821,A,sk,O,k,45,1,2181.2999999821186,561355.0,7072,WL,B,1.0
5,2.3489999771118164,learn,60000.0,Fri Feb 28 2025 16:01:44 GMT-0600 (Central Standard Time),563704.099999994,A,ski,O,i,142,1,2349.0999999940395,561355.0,7072,WL,B,1.0
5,2.380000114440918,learn,60000.0,Fri Feb 28 2025 16:01:44 GMT-0600 (Central Standard Time),563735.0,A,skin,O,n,2,1,2380.0,561355.0,7072,WL,B,1.0
5,3.315000057220459,learn,60000.0,Fri Feb 28 2025 16:01:44 GMT-0600 (Central Standard Time),564669.5,A,skinenter,O,enter,908,1,3314.5,561355.0,7072,WL,B,1.0
5,4.199000120162964,learn,60000.0,Fri Feb 28 2025 16:01:44 GMT-0600 (Central Standard Time),565553.8999999762,A,c,O,c,865,1,884.0999999940395,564669.7999999821,7072,WL,B,2.0
5,4.248000144958496,learn,60000.0,Fri Feb 28 2025 16:01:44 GMT-0600 (Central Standard Time),565602.6999999881,A,cl,O,l,16,1,932.9000000059605,564669.7999999821,7072,WL,B,2.0
5,4.398000001907349,learn,60000.0,Fri Feb 28 2025 16:01:44 GMT-0600 (Central Standard Time),565753.2999999821,A,clo,O,o,128,1,1083.5,564669.7999999821,7072,WL,B,2.0
5,4.499000072479248,learn,60000.0,Fri Feb 28 2025 16:01:44 GMT-0600 (Central Standard Time),565853.599999994,A,cloc,O,c,66,1,1183.800000011921,564669.7999999821,7072,WL,B,2.0
5,4.562000036239624,learn,60000.0,Fri Feb 28 2025 16:01:44 GMT-0600 (Central Standard Time),565917.2999999821,A,clock,O,k,30,1,1247.5,564669.7999999821,7072,WL,B,2.0
5,4.897000074386597,learn,60000.0,Fri Feb 28 2025 16:01:44 GMT-0600 (Central Standard Time),566252.1999999881,A,clockenter,O,enter,313,1,1582.4000000059605,564669.7999999821,7072,WL,B,2.0
5,5.715000152587891,learn,60000.0,Fri Feb 28 2025 16:01:44 GMT-0600 (Central Standard Time),567069.7999999821,A,s,O,s,811,1,817.2999999821186,566252.5,7072,WL,B,3.0
5,5.865000009536743,learn,60000.0,Fri Feb 28 2025 16:01:44 GMT-0600 (Central Standard Time),567219.5,A,st,O,t,110,1,967.0,566252.5,7072,WL,B,3.0
5,6.065000057220459,learn,60000.0,Fri Feb 28 2025 16:01:44 GMT-0600 (Central Standard Time),567419.599999994,A,str,O,r,169,1,1167.0999999940395,566252.5,7072,WL,B,3.0
5,6.114000082015991,learn,60000.0,Fri Feb 28 2025 16:01:44 GMT-0600 (Central Standard Time),567468.7999999821,A,stre,O,e,25,1,1216.2999999821186,566252.5,7072,WL,B,3.0
5,6.281000137329102,learn,60000.0,Fri Feb 28 2025 16:01:44 GMT-0600 (Central Standard Time),567636.099999994,A,stree,O,e,152,1,1383.5999999940395,566252.5,7072,WL,B,3.0
5,6.447999954223633,learn,60000.0,Fri Feb 28 2025 16:01:44 GMT-0600 (Central Standard Time),567802.7999999821,A,street,O,t,141,1,1550.2999999821186,566252.5,7072,WL,B,3.0
5,6.812999963760376,learn,60000.0,Fri Feb 28 2025 16:01:44 GMT-0600 (Central Standard Time),568168.2999999821,A,streetenter,O,enter,328,1,1915.7999999821186,566252.5,7072,WL,B,3.0
5,6.914000034332275,learn,60000.0,Fri Feb 28 2025 16:01:44 GMT-0600 (Central Standard Time),568268.8999999762,A,g,O,g,86,1,100.39999997615814,568168.5,7072,WL,B,4.0
5,7.0970001220703125,learn,60000.0,Fri Feb 28 2025 16:01:44 GMT-0600 (Central Standard Time),568452.2999999821,A,gr,O,r,159,1,283.7999999821186,568168.5,7072,WL,B,4.0
5,7.163000106811523,learn,60000.0,Fri Feb 28 2025 16:01:44 GMT-0600 (Central Standard Time),568518.3999999762,A,gra,O,a,31,1,349.89999997615814,568168.5,7072,WL,B,4.0
5,7.397000074386597,learn,60000.0,Fri Feb 28 2025 16:01:44 GMT-0600 (Central Standard Time),568752.3999999762,A,gras,O,s,209,1,583.8999999761581,568168.5,7072,WL,B,4.0
5,7.564000129699707,learn,60000.0,Fri Feb 28 2025 16:01:44 GMT-0600 (Central Standard Time),568919.0,A,grass,O,s,132,1,750.5,568168.5,7072,WL,B,4.0
5,7.946000099182129,learn,60000.0,Fri Feb 28 2025 16:01:44 GMT-0600 (Central Standard Time),569301.2999999821,A,grassenter,O,enter,350,1,1132.7999999821186,568168.5,7072,WL,B,4.0
5,8.514000177383423,learn,60000.0,Fri Feb 28 2025 16:01:44 GMT-0600 (Central Standard Time),569868.6999999881,A,d,O,d,553,1,567.1999999880791,569301.5,7072,WL,B,5.0
5,8.664000034332275,learn,60000.0,Fri Feb 28 2025 16:01:44 GMT-0600 (Central Standard Time),570018.7999999821,A,do,O,o,110,1,717.2999999821186,569301.5,7072,WL,B,5.0
5,8.797000169754028,learn,60000.0,Fri Feb 28 2025 16:01:44 GMT-0600 (Central Standard Time),570151.8999999762,A,doo,O,o,96,1,850.3999999761581,569301.5,7072,WL,B,5.0
5,8.821000099182129,learn,60000.0,Fri Feb 28 2025 16:01:44 GMT-0600 (Central Standard Time),570176.3999999762,A,door,O,r,1,1,874.8999999761581,569301.5,7072,WL,B,5.0
5,9.11300015449524,learn,60000.0,Fri Feb 28 2025 16:01:44 GMT-0600 (Central Standard Time),570467.5,A,doorenter,O,enter,258,1,1166.0,569301.5,7072,WL,B,5.0
5,9.297000169754028,learn,60000.0,Fri Feb 28 2025 16:01:44 GMT-0600 (Central Standard Time),570652.0,A,a,O,a,164,1,184.30000001192093,570467.6999999881,7072,WL,B,6.0
5,9.36300015449524,learn,60000.0,Fri Feb 28 2025 16:01:44 GMT-0600 (Central Standard Time),570717.6999999881,A,ar,O,r,37,1,250.0,570467.6999999881,7072,WL,B,6.0
5,9.480000019073486,learn,60000.0,Fri Feb 28 2025 16:01:44 GMT-0600 (Central Standard Time),570835.099999994,A,arm,O,m,94,1,367.40000000596046,570467.6999999881,7072,WL,B,6.0
5,10.029000043869019,learn,60000.0,Fri Feb 28 2025 16:01:44 GMT-0600 (Central Standard Time),571384.0,A,armenter,O,enter,520,1,916.3000000119209,570467.6999999881,7072,WL,B,6.0
5,11.11300015449524,learn,60000.0,Fri Feb 28 2025 16:01:44 GMT-0600 (Central Standard Time),572468.099999994,A,w,O,w,1063,1,1083.9000000059605,571384.1999999881,7072,WL,B,7.0
5,11.263000011444092,learn,60000.0,Fri Feb 28 2025 16:01:44 GMT-0600 (Central Standard Time),572617.8999999762,A,wi,O,i,120,1,1233.699999988079,571384.1999999881,7072,WL,B,7.0
5,11.463000059127808,learn,60000.0,Fri Feb 28 2025 16:01:44 GMT-0600 (Central Standard Time),572817.6999999881,A,wif,O,f,163,1,1433.5,571384.1999999881,7072,WL,B,7.0
5,11.562999963760376,learn,60000.0,Fri Feb 28 2025 16:01:44 GMT-0600 (Central Standard Time),572917.7999999821,A,wife,O,e,68,1,1533.5999999940395,571384.1999999881,7072,WL,B,7.0
5,12.212000131607056,learn,60000.0,Fri Feb 28 2025 16:01:44 GMT-0600 (Central Standard Time),573566.5,A,wifeenter,O,enter,622,1,2182.300000011921,571384.1999999881,7072,WL,B,7.0
5,12.628999948501587,learn,60000.0,Fri Feb 28 2025 16:01:44 GMT-0600 (Central Standard Time),573984.1999999881,A,c,O,c,400,1,417.40000000596046,573566.7999999821,7072,WL,B,8.0
5,12.861999988555908,learn,60000.0,Fri Feb 28 2025 16:01:44 GMT-0600 (Central Standard Time),574217.1999999881,A,ca,O,a,205,1,650.4000000059605,573566.7999999821,7072,WL,B,8.0
5,13.029000043869019,learn,60000.0,Fri Feb 28 2025 16:01:44 GMT-0600 (Central Standard Time),574383.8999999762,A,cab,O,b,138,1,817.0999999940395,573566.7999999821,7072,WL,B,8.0
5,13.212000131607056,learn,60000.0,Fri Feb 28 2025 16:01:44 GMT-0600 (Central Standard Time),574567.099999994,A,cabi,O,i,161,1,1000.3000000119209,573566.7999999821,7072,WL,B,8.0
5,13.295000076293945,learn,60000.0,Fri Feb 28 2025 16:01:44 GMT-0600 (Central Standard Time),574649.7999999821,A,cabin,O,n,52,1,1083.0,573566.7999999821,7072,WL,B,8.0
5,13.628000020980835,learn,60000.0,Fri Feb 28 2025 16:01:44 GMT-0600 (Central Standard Time),574982.7999999821,A,cabinenter,O,enter,309,1,1416.0,573566.7999999821,7072,WL,B,8.0
5,14.128000020980835,learn,60000.0,Fri Feb 28 2025 16:01:44 GMT-0600 (Central Standard Time),575483.3999999762,A,l,O,l,479,1,500.19999998807907,574983.1999999881,7072,WL,B,9.0
5,14.228000164031982,learn,60000.0,Fri Feb 28 2025 16:01:44 GMT-0600 (Central Standard Time),575582.6999999881,A,la,O,a,64,1,599.5,574983.1999999881,7072,WL,B,9.0
5,14.894999980926514,learn,60000.0,Fri Feb 28 2025 16:01:44 GMT-0600 (Central Standard Time),576250.099999994,A,lak,O,k,652,1,1266.9000000059605,574983.1999999881,7072,WL,B,9.0
5,14.99399995803833,learn,60000.0,Fri Feb 28 2025 16:01:44 GMT-0600 (Central Standard Time),576349.1999999881,A,lake,O,e,72,1,1366.0,574983.1999999881,7072,WL,B,9.0
5,15.327000141143799,learn,60000.0,Fri Feb 28 2025 16:01:44 GMT-0600 (Central Standard Time),576682.099999994,A,lakeenter,O,enter,303,1,1698.9000000059605,574983.1999999881,7072,WL,B,9.0
5,16.794000148773193,learn,60000.0,Fri Feb 28 2025 16:01:44 GMT-0600 (Central Standard Time),578149.2999999821,A,s,O,s,1453,1,1466.9000000059605,576682.3999999762,7072,WL,B,10.0
5,17.011000156402588,learn,60000.0,Fri Feb 28 2025 16:01:44 GMT-0600 (Central Standard Time),578365.8999999762,A,sk,O,k,186,1,1683.5,576682.3999999762,7072,WL,B,10.0
5,17.377000093460083,learn,60000.0,Fri Feb 28 2025 16:01:44 GMT-0600 (Central Standard Time),578732.3999999762,A,ski,O,i,335,1,2050.0,576682.3999999762,7072,WL,B,10.0
5,17.49399995803833,learn,60000.0,Fri Feb 28 2025 16:01:44 GMT-0600 (Central Standard Time),578848.5,A,skin,O,n,79,1,2166.100000023842,576682.3999999762,7072,WL,B,10.0
5,18.2260000705719,learn,60000.0,Fri Feb 28 2025 16:01:44 GMT-0600 (Central Standard Time),579581.1999999881,A,skinenter,O,enter,707,1,2898.800000011921,576682.3999999762,7072,WL,B,10.0
5,22.95900011062622,learn,60000.0,Fri Feb 28 2025 16:01:44 GMT-0600 (Central Standard Time),584314.0,A,a,O,a,4713,1,4732.5,579581.5,7072,WL,B,11.0
5,23.058000087738037,learn,60000.0,Fri Feb 28 2025 16:01:44 GMT-0600 (Central Standard Time),584413.2999999821,A,ar,O,r,66,1,4831.799999982119,579581.5,7072,WL,B,11.0
5,23.674999952316284,learn,60000.0,Fri Feb 28 2025 16:01:44 GMT-0600 (Central Standard Time),585030.3999999762,A,arm,O,m,593,1,5448.899999976158,579581.5,7072,WL,B,11.0
5,24.008000135421753,learn,60000.0,Fri Feb 28 2025 16:01:44 GMT-0600 (Central Standard Time),585362.599999994,A,armenter,O,enter,292,1,5781.0999999940395,579581.5,7072,WL,B,11.0
5,24.975000143051147,learn,60000.0,Fri Feb 28 2025 16:01:44 GMT-0600 (Central Standard Time),586330.0,A,s,O,s,948,1,967.2000000178814,585362.7999999821,7072,WL,B,12.0
5,25.10800004005432,learn,60000.0,Fri Feb 28 2025 16:01:44 GMT-0600 (Central Standard Time),586463.3999999762,A,st,O,t,97,1,1100.5999999940395,585362.7999999821,7072,WL,B,12.0
5,25.258000135421753,learn,60000.0,Fri Feb 28 2025 16:01:44 GMT-0600 (Central Standard Time),586613.1999999881,A,sta,O,a,109,1,1250.4000000059605,585362.7999999821,7072,WL,B,12.0
5,25.324000120162964,learn,60000.0,Fri Feb 28 2025 16:01:44 GMT-0600 (Central Standard Time),586679.099999994,A,star,O,r,38,1,1316.300000011921,585362.7999999821,7072,WL,B,12.0
5,25.574000120162964,learn,60000.0,Fri Feb 28 2025 16:01:44 GMT-0600 (Central Standard Time),586928.7999999821,A,starenter,O,enter,228,1,1566.0,585362.7999999821,7072,WL,B,12.0
5,35.32200002670288,learn,60000.0,Fri Feb 28 2025 16:01:44 GMT-0600 (Central Standard Time),596676.6999999881,A,d,O,d,9727,1,9747.699999988079,586929.0,7072,WL,B,13.0
5,35.455000162124634,learn,60000.0,Fri Feb 28 2025 16:01:44 GMT-0600 (Central Standard Time),596809.2999999821,A,do,O,o,102,1,9880.299999982119,586929.0,7072,WL,B,13.0
5,35.605000019073486,learn,60000.0,Fri Feb 28 2025 16:01:44 GMT-0600 (Central Standard Time),596959.3999999762,A,doo,O,o,125,1,10030.399999976158,586929.0,7072,WL,B,13.0
5,35.705000162124634,learn,60000.0,Fri Feb 28 2025 16:01:44 GMT-0600 (Central Standard Time),597058.6999999881,A,door,O,r,59,1,10129.699999988079,586929.0,7072,WL,B,13.0
5,36.32100009918213,learn,60000.0,Fri Feb 28 2025 16:01:44 GMT-0600 (Central Standard Time),597675.2999999821,A,doorenter,O,enter,590,1,10746.299999982119,586929.0,7072,WL,B,13.0
5,39.854000091552734,learn,60000.0,Fri Feb 28 2025 16:01:44 GMT-0600 (Central Standard Time),601208.3999999762,A,p,O,p,3516,1,3532.899999976158,597675.5,7072,WL,B,14.0
5,39.97000002861023,learn,60000.0,Fri Feb 28 2025 16:01:44 GMT-0600 (Central Standard Time),601324.2999999821,A,pu,O,u,75,1,3648.7999999821186,597675.5,7072,WL,B,14.0
5,40.23699998855591,learn,60000.0,Fri Feb 28 2025 16:01:44 GMT-0600 (Central Standard Time),601591.3999999762,A,pui,O,i,232,1,3915.899999976158,597675.5,7072,WL,B,14.0
5,40.437000036239624,learn,60000.0,Fri Feb 28 2025 16:01:44 GMT-0600 (Central Standard Time),601791.2999999821,A,puil,O,l,172,1,4115.799999982119,597675.5,7072,WL,B,14.0
5,40.98699998855591,learn,60000.0,Fri Feb 28 2025 16:01:44 GMT-0600 (Central Standard Time),602341.2999999821,A,pui,O,backspace,514,1,4665.799999982119,597675.5,7072,WL,B,14.0
5,41.104000091552734,learn,60000.0,Fri Feb 28 2025 16:01:44 GMT-0600 (Central Standard Time),602458.0,A,pu,O,backspace,78,1,4782.5,597675.5,7072,WL,B,14.0
5,41.354000091552734,learn,60000.0,Fri Feb 28 2025 16:01:44 GMT-0600 (Central Standard Time),602708.0,A,pup,O,p,218,1,5032.5,597675.5,7072,WL,B,14.0
5,41.50399994850159,learn,60000.0,Fri Feb 28 2025 16:01:44 GMT-0600 (Central Standard Time),602857.8999999762,A,pupi,O,i,120,1,5182.399999976158,597675.5,7072,WL,B,14.0
5,41.80400013923645,learn,60000.0,Fri Feb 28 2025 16:01:44 GMT-0600 (Central Standard Time),603157.8999999762,A,pupil,O,l,266,1,5482.399999976158,597675.5,7072,WL,B,14.0
5,42.05299997329712,learn,60000.0,Fri Feb 28 2025 16:01:44 GMT-0600 (Central Standard Time),603406.7999999821,A,pupilenter,O,enter,222,1,5731.299999982119,597675.5,7072,WL,B,14.0
5,46.10199999809265,learn,60000.0,Fri Feb 28 2025 16:01:44 GMT-0600 (Central Standard Time),607456.2999999821,A,p,O,p,4032,1,4049.2999999821186,603407.0,7072,WL,B,15.0
5,46.218000173568726,learn,60000.0,Fri Feb 28 2025 16:01:44 GMT-0600 (Central Standard Time),607572.599999994,A,pi,O,i,91,1,4165.5999999940395,603407.0,7072,WL,B,15.0
5,46.36899995803833,learn,60000.0,Fri Feb 28 2025 16:01:44 GMT-0600 (Central Standard Time),607723.0,A,pip,O,p,133,1,4316.0,603407.0,7072,WL,B,15.0
5,46.53500008583069,learn,60000.0,Fri Feb 28 2025 16:01:44 GMT-0600 (Central Standard Time),607889.5,A,pipe,O,e,137,1,4482.5,603407.0,7072,WL,B,15.0
5,46.818000078201294,learn,60000.0,Fri Feb 28 2025 16:01:44 GMT-0600 (Central Standard Time),608171.8999999762,A,pipeenter,O,enter,258,1,4764.899999976158,603407.0,7072,WL,B,15.0
6,1.1670000553131104,distr,58832.99994468689,Fri Feb 28 2025 16:01:44 GMT-0600 (Central Standard Time),687264.099999994,B,c,O,c,1136,1,1166.300000011921,686097.7999999821,7072,WL,B,1.0
6,1.4170000553131104,distr,58582.99994468689,Fri Feb 28 2025 16:01:44 GMT-0600 (Central Standard Time),687513.5,B,ce,O,e,211,1,1415.7000000178814,686097.7999999821,7072,WL,B,1.0
6,1.5499999523162842,distr,58450.000047683716,Fri Feb 28 2025 16:01:44 GMT-0600 (Central Standard Time),687646.8999999762,B,cel,O,l,99,1,1549.0999999940395,686097.7999999821,7072,WL,B,1.0
6,1.7000000476837158,distr,58299.999952316284,Fri Feb 28 2025 16:01:44 GMT-0600 (Central Standard Time),687796.7999999821,B,cell,O,l,110,1,1699.0,686097.7999999821,7072,WL,B,1.0
6,2.065999984741211,distr,57934.00001525879,Fri Feb 28 2025 16:01:44 GMT-0600 (Central Standard Time),688162.3999999762,B,cellenter,O,enter,334,1,2064.5999999940395,686097.7999999821,7072,WL,B,1.0
6,2.5339999198913574,distr,57466.00008010864,Fri Feb 28 2025 16:01:44 GMT-0600 (Central Standard Time),688630.1999999881,B,b,O,b,460,1,467.59999999403954,688162.599999994,7072,WL,B,2.0
6,2.683000087738037,distr,57316.99991226196,Fri Feb 28 2025 16:01:44 GMT-0600 (Central Standard Time),688779.8999999762,B,ba,O,a,118,1,617.2999999821186,688162.599999994,7072,WL,B,2.0
6,2.7669999599456787,distr,57233.00004005432,Fri Feb 28 2025 16:01:44 GMT-0600 (Central Standard Time),688863.099999994,B,bab,O,b,48,1,700.5,688162.599999994,7072,WL,B,2.0
6,2.933000087738037,distr,57066.99991226196,Fri Feb 28 2025 16:01:44 GMT-0600 (Central Standard Time),689029.6999999881,B,baby,O,y,136,1,867.0999999940395,688162.599999994,7072,WL,B,2.0
6,3.5320000648498535,distr,56467.99993515015,Fri Feb 28 2025 16:01:44 GMT-0600 (Central Standard Time),689628.3999999762,B,babyenter,O,enter,573,1,1465.7999999821186,688162.599999994,7072,WL,B,2.0
6,4.115999937057495,distr,55884.000062942505,Fri Feb 28 2025 16:01:44 GMT-0600 (Central Standard Time),690212.6999999881,B,o,O,o,562,1,584.0999999940395,689628.599999994,7072,WL,B,3.0
6,4.199000120162964,distr,55800.999879837036,Fri Feb 28 2025 16:01:44 GMT-0600 (Central Standard Time),690296.0,B,op,O,p,54,1,667.4000000059605,689628.599999994,7072,WL,B,3.0
6,4.716000080108643,distr,55283.99991989136,Fri Feb 28 2025 16:01:44 GMT-0600 (Central Standard Time),690812.5,B,o,O,backspace,478,1,1183.9000000059605,689628.599999994,7072,WL,B,3.0
6,4.832000017166138,distr,55167.99998283386,Fri Feb 28 2025 16:01:44 GMT-0600 (Central Standard Time),690928.3999999762,B,oe,O,e,78,1,1299.7999999821186,689628.599999994,7072,WL,B,3.0
6,5.332000017166138,distr,54667.99998283386,Fri Feb 28 2025 16:01:44 GMT-0600 (Central Standard Time),691428.8999999762,B,o,O,backspace,479,1,1800.2999999821186,689628.599999994,7072,WL,B,3.0
6,5.398000001907349,distr,54601.99999809265,Fri Feb 28 2025 16:01:44 GMT-0600 (Central Standard Time),691494.6999999881,B,oc,O,c,37,1,1866.0999999940395,689628.599999994,7072,WL,B,3.0
6,5.631999969482422,distr,54368.00003051758,Fri Feb 28 2025 16:01:44 GMT-0600 (Central Standard Time),691729.0,B,oca,O,a,214,1,2100.4000000059605,689628.599999994,7072,WL,B,3.0
6,6.015000104904175,distr,53984.999895095825,Fri Feb 28 2025 16:01:44 GMT-0600 (Central Standard Time),692112.0,B,ocae,O,e,347,1,2483.4000000059605,689628.599999994,7072,WL,B,3.0
6,6.2820000648498535,distr,53717.99993515015,Fri Feb 28 2025 16:01:44 GMT-0600 (Central Standard Time),692378.3999999762,B,oca,O,backspace,228,1,2749.7999999821186,689628.599999994,7072,WL,B,3.0
6,6.398000001907349,distr,53601.99999809265,Fri Feb 28 2025 16:01:44 GMT-0600 (Central Standard Time),692494.599999994,B,oc,O,backspace,88,1,2866.0,689628.599999994,7072,WL,B,3.0
6,6.46399998664856,distr,53536.00001335144,Fri Feb 28 2025 16:01:44 GMT-0600 (Central Standard Time),692560.7999999821,B,oce,O,e,47,1,2932.199999988079,689628.599999994,7072,WL,B,3.0
6,6.531000137329102,distr,53468.9998626709,Fri Feb 28 2025 16:01:44 GMT-0600 (Central Standard Time),692627.3999999762,B,ocea,O,a,43,1,2998.7999999821186,689628.599999994,7072,WL,B,3.0
6,6.648000001907349,distr,53351.99999809265,Fri Feb 28 2025 16:01:44 GMT-0600 (Central Standard Time),692744.7999999821,B,ocean,O,n,99,1,3116.199999988079,689628.599999994,7072,WL,B,3.0
6,7.263999938964844,distr,52736.000061035156,Fri Feb 28 2025 16:01:44 GMT-0600 (Central Standard Time),693360.6999999881,B,oceanenter,O,enter,580,1,3732.0999999940395,689628.599999994,7072,WL,B,3.0
6,8.365000009536743,distr,51634.99999046326,Fri Feb 28 2025 16:01:44 GMT-0600 (Central Standard Time),694461.8999999762,B,d,O,d,1094,1,1101.0,693360.8999999762,7072,WL,B,4.0
6,8.565000057220459,distr,51434.99994277954,Fri Feb 28 2025 16:01:44 GMT-0600 (Central Standard Time),694661.099999994,B,dr,O,r,160,1,1300.2000000178814,693360.8999999762,7072,WL,B,4.0
6,8.594000101089478,distr,51405.99989891052,Fri Feb 28 2025 16:01:44 GMT-0600 (Central Standard Time),694690.3999999762,B,dre,O,e,3,1,1329.5,693360.8999999762,7072,WL,B,4.0
6,8.781000137329102,distr,51218.9998626709,Fri Feb 28 2025 16:01:44 GMT-0600 (Central Standard Time),694877.7999999821,B,dres,O,s,165,1,1516.9000000059605,693360.8999999762,7072,WL,B,4.0
6,8.930999994277954,distr,51069.000005722046,Fri Feb 28 2025 16:01:44 GMT-0600 (Central Standard Time),695027.7999999821,B,dress,O,s,111,1,1666.9000000059605,693360.8999999762,7072,WL,B,4.0
6,9.21399998664856,distr,50786.00001335144,Fri Feb 28 2025 16:01:44 GMT-0600 (Central Standard Time),695310.0,B,dressenter,O,enter,247,1,1949.1000000238419,693360.8999999762,7072,WL,B,4.0
6,9.398000001907349,distr,50601.99999809265,Fri Feb 28 2025 16:01:44 GMT-0600 (Central Standard Time),695494.3999999762,B,b,O,b,169,1,184.09999999403954,695310.2999999821,7072,WL,B,5.0
6,9.614000082015991,distr,50385.99991798401,Fri Feb 28 2025 16:01:44 GMT-0600 (Central Standard Time),695710.8999999762,B,ba,O,a,179,1,400.59999999403954,695310.2999999821,7072,WL,B,5.0
6,9.69700002670288,distr,50302.99997329712,Fri Feb 28 2025 16:01:44 GMT-0600 (Central Standard Time),695793.5,B,bar,O,r,44,1,483.2000000178814,695310.2999999821,7072,WL,B,5.0
6,10.845999956130981,distr,49154.00004386902,Fri Feb 28 2025 16:01:44 GMT-0600 (Central Standard Time),696942.8999999762,B,barenter,O,enter,1135,1,1632.5999999940395,695310.2999999821,7072,WL,B,5.0
6,19.47699999809265,distr,40523.00000190735,Fri Feb 28 2025 16:01:44 GMT-0600 (Central Standard Time),705573.3999999762,B,a,O,a,8615,1,8630.299999982119,696943.099999994,7072,WL,B,6.0
6,19.592999935150146,distr,40407.00006484985,Fri Feb 28 2025 16:01:44 GMT-0600 (Central Standard Time),705689.8999999762,B,ar,O,r,104,1,8746.799999982119,696943.099999994,7072,WL,B,6.0
6,19.792999982833862,distr,40207.00001716614,Fri Feb 28 2025 16:01:44 GMT-0600 (Central Standard Time),705890.0,B,arm,O,m,187,1,8946.90000000596,696943.099999994,7072,WL,B,6.0
6,20.044000148773193,distr,39955.99985122681,Fri Feb 28 2025 16:01:44 GMT-0600 (Central Standard Time),706140.7999999821,B,army,O,y,226,1,9197.699999988079,696943.099999994,7072,WL,B,6.0
6,20.7260000705719,distr,39273.9999294281,Fri Feb 28 2025 16:01:44 GMT-0600 (Central Standard Time),706823.0,B,armyenter,O,enter,661,1,9879.90000000596,696943.099999994,7072,WL,B,6.0
6,23.8270001411438,distr,36172.9998588562,Fri Feb 28 2025 16:01:44 GMT-0600 (Central Standard Time),709922.7999999821,B,b,O,b,3088,1,3099.5,706823.2999999821,7072,WL,B,7.0
6,23.943000078201294,distr,36056.999921798706,Fri Feb 28 2025 16:01:44 GMT-0600 (Central Standard Time),710039.0,B,bu,O,u,88,1,3215.7000000178814,706823.2999999821,7072,WL,B,7.0
6,23.993000030517578,distr,36006.99996948242,Fri Feb 28 2025 16:01:44 GMT-0600 (Central Standard Time),710088.5,B,bui,O,i,23,1,3265.2000000178814,706823.2999999821,7072,WL,B,7.0
6,24.16000008583069,distr,35839.99991416931,Fri Feb 28 2025 16:01:44 GMT-0600 (Central Standard Time),710255.599999994,B,buil,O,l,157,1,3432.300000011921,706823.2999999821,7072,WL,B,7.0
6,24.292999982833862,distr,35707.00001716614,Fri Feb 28 2025 16:01:44 GMT-0600 (Central Standard Time),710389.1999999881,B,build,O,d,101,1,3565.9000000059605,706823.2999999821,7072,WL,B,7.0
6,24.443000078201294,distr,35556.999921798706,Fri Feb 28 2025 16:01:44 GMT-0600 (Central Standard Time),710539.099999994,B,buildi,O,i,110,1,3715.800000011921,706823.2999999821,7072,WL,B,7.0
6,24.503999948501587,distr,35496.00005149841,Fri Feb 28 2025 16:01:44 GMT-0600 (Central Standard Time),710600.1999999881,B,buildin,O,n,26,1,3776.9000000059605,706823.2999999821,7072,WL,B,7.0
6,24.592999935150146,distr,35407.00006484985,Fri Feb 28 2025 16:01:44 GMT-0600 (Central Standard Time),710689.1999999881,B,building,O,g,71,1,3865.9000000059605,706823.2999999821,7072,WL,B,7.0
6,25.45900011062622,distr,34540.99988937378,Fri Feb 28 2025 16:01:44 GMT-0600 (Central Standard Time),711554.599999994,B,buildingenter,O,enter,830,1,4731.300000011921,706823.2999999821,7072,WL,B,7.0
6,39.0220000743866,distr,20977.999925613403,Fri Feb 28 2025 16:01:44 GMT-0600 (Central Standard Time),725117.8999999762,B,enter,O,enter,13555,1,13563.0,711554.8999999762,7072,WL,B,8.0
6,60.015000104904175,distr,-15.000104904174805,Fri Feb 28 2025 16:01:44 GMT-0600 (Central Standard Time),746111.099999994,B,None,O,None,20987,1,20992.90000000596,725118.1999999881,7072,WL,B,9.0
7,19.478000164031982,immed,40521.99983596802,Fri Feb 28 2025 16:01:44 GMT-0600 (Central Standard Time),769570.099999994,A,a,O,a,19442,1,19476.5,750093.599999994,7072,WL,B,1.0
7,20.011000156402588,immed,39988.99984359741,Fri Feb 28 2025 16:01:44 GMT-0600 (Central Standard Time),770102.8999999762,A,,O,backspace,505,1,20009.29999998212,750093.599999994,7072,WL,B,1.0
7,20.694000005722046,immed,39305.999994277954,Fri Feb 28 2025 16:01:44 GMT-0600 (Central Standard Time),770786.0,A,s,O,s,655,1,20692.40000000596,750093.599999994,7072,WL,B,1.0
7,20.877000093460083,immed,39122.99990653992,Fri Feb 28 2025 16:01:44 GMT-0600 (Central Standard Time),770968.6999999881,A,st,O,t,155,1,20875.09999999404,750093.599999994,7072,WL,B,1.0
7,21.0770001411438,immed,38922.9998588562,Fri Feb 28 2025 16:01:44 GMT-0600 (Central Standard Time),771169.2999999821,A,str,O,r,178,1,21075.69999998808,750093.599999994,7072,WL,B,1.0
7,21.14300012588501,immed,38856.99987411499,Fri Feb 28 2025 16:01:44 GMT-0600 (Central Standard Time),771235.099999994,A,stre,O,e,34,1,21141.5,750093.599999994,7072,WL,B,1.0
7,21.30999994277954,immed,38690.00005722046,Fri Feb 28 2025 16:01:44 GMT-0600 (Central Standard Time),771402.2999999821,A,stree,O,e,147,1,21308.69999998808,750093.599999994,7072,WL,B,1.0
7,21.444000005722046,immed,38555.999994277954,Fri Feb 28 2025 16:01:44 GMT-0600 (Central Standard Time),771536.0,A,street,O,t,114,1,21442.40000000596,750093.599999994,7072,WL,B,1.0
7,22.45900011062622,immed,37540.99988937378,Fri Feb 28 2025 16:01:44 GMT-0600 (Central Standard Time),772551.3999999762,A,streetenter,O,enter,980,1,22457.79999998212,750093.599999994,7072,WL,B,1.0
7,22.610000133514404,immed,37389.999866485596,Fri Feb 28 2025 16:01:44 GMT-0600 (Central Standard Time),772702.3999999762,A,g,O,g,135,1,150.69999998807907,772551.6999999881,7072,WL,B,2.0
7,22.792999982833862,immed,37207.00001716614,Fri Feb 28 2025 16:01:44 GMT-0600 (Central Standard Time),772885.5,A,gr,O,r,150,1,333.80000001192093,772551.6999999881,7072,WL,B,2.0
7,22.85599994659424,immed,37144.00005340576,Fri Feb 28 2025 16:01:44 GMT-0600 (Central Standard Time),772947.7999999821,A,gra,O,a,31,1,396.09999999403954,772551.6999999881,7072,WL,B,2.0
7,23.05999994277954,immed,36940.00005722046,Fri Feb 28 2025 16:01:44 GMT-0600 (Central Standard Time),773152.1999999881,A,gras,O,s,178,1,600.5,772551.6999999881,7072,WL,B,2.0
7,23.210000038146973,immed,36789.99996185303,Fri Feb 28 2025 16:01:44 GMT-0600 (Central Standard Time),773302.1999999881,A,grass,O,s,116,1,750.5,772551.6999999881,7072,WL,B,2.0
7,23.39199995994568,immed,36608.00004005432,Fri Feb 28 2025 16:01:44 GMT-0600 (Central Standard Time),773484.3999999762,A,grassenter,O,enter,150,1,932.6999999880791,772551.6999999881,7072,WL,B,2.0
7,27.52500009536743,immed,32474.99990463257,Fri Feb 28 2025 16:01:44 GMT-0600 (Central Standard Time),777617.5,A,c,O,c,4123,1,4132.800000011921,773484.6999999881,7072,WL,B,3.0
7,27.641000032424927,immed,32358.999967575073,Fri Feb 28 2025 16:01:44 GMT-0600 (Central Standard Time),777733.1999999881,A,ci,O,i,82,1,4248.5,773484.6999999881,7072,WL,B,3.0
7,27.723999977111816,immed,32276.000022888184,Fri Feb 28 2025 16:01:44 GMT-0600 (Central Standard Time),777816.3999999762,A,cit,O,t,57,1,4331.699999988079,773484.6999999881,7072,WL,B,3.0
7,27.824000120162964,immed,32175.999879837036,Fri Feb 28 2025 16:01:44 GMT-0600 (Central Standard Time),777916.1999999881,A,city,O,y,71,1,4431.5,773484.6999999881,7072,WL,B,3.0
7,28.391000032424927,immed,31608.999967575073,Fri Feb 28 2025 16:01:44 GMT-0600 (Central Standard Time),778482.7999999821,A,cityenter,O,enter,541,1,4998.0999999940395,773484.6999999881,7072,WL,B,3.0
7,28.575000047683716,immed,31424.999952316284,Fri Feb 28 2025 16:01:44 GMT-0600 (Central Standard Time),778666.8999999762,A,c,O,c,172,1,183.7999999821186,778483.099999994,7072,WL,B,4.0
7,28.657000064849854,immed,31342.999935150146,Fri Feb 28 2025 16:01:44 GMT-0600 (Central Standard Time),778749.599999994,A,ca,O,a,48,1,266.5,778483.099999994,7072,WL,B,4.0
7,28.79100012779236,immed,31208.99987220764,Fri Feb 28 2025 16:01:44 GMT-0600 (Central Standard Time),778883.1999999881,A,cab,O,b,117,1,400.09999999403954,778483.099999994,7072,WL,B,4.0
7,28.907999992370605,immed,31092.000007629395,Fri Feb 28 2025 16:01:44 GMT-0600 (Central Standard Time),779000.1999999881,A,cabi,O,i,97,1,517.0999999940395,778483.099999994,7072,WL,B,4.0
7,28.973999977111816,immed,31026.000022888184,Fri Feb 28 2025 16:01:44 GMT-0600 (Central Standard Time),779065.8999999762,A,cabin,O,n,34,1,582.7999999821186,778483.099999994,7072,WL,B,4.0
7,29.374000072479248,immed,30625.999927520752,Fri Feb 28 2025 16:01:44 GMT-0600 (Central Standard Time),779465.7999999821,A,cabinenter,O,enter,378,1,982.6999999880791,778483.099999994,7072,WL,B,4.0
7,29.641000032424927,immed,30358.999967575073,Fri Feb 28 2025 16:01:44 GMT-0600 (Central Standard Time),779733.3999999762,A,l,O,l,246,1,267.39999997615814,779466.0,7072,WL,B,5.0
7,29.77400016784668,immed,30225.99983215332,Fri Feb 28 2025 16:01:44 GMT-0600 (Central Standard Time),779866.599999994,A,la,O,a,103,1,400.59999999403954,779466.0,7072,WL,B,5.0
7,29.874000072479248,immed,30125.999927520752,Fri Feb 28 2025 16:01:44 GMT-0600 (Central Standard Time),779966.3999999762,A,lak,O,k,65,1,500.39999997615814,779466.0,7072,WL,B,5.0
7,29.973000049591064,immed,30026.999950408936,Fri Feb 28 2025 16:01:44 GMT-0600 (Central Standard Time),780065.599999994,A,lake,O,e,61,1,599.5999999940395,779466.0,7072,WL,B,5.0
7,30.45799994468689,immed,29542.00005531311,Fri Feb 28 2025 16:01:44 GMT-0600 (Central Standard Time),780549.7999999821,A,lakeenter,O,enter,472,1,1083.7999999821186,779466.0,7072,WL,B,5.0
7,31.77400016784668,immed,28225.99983215332,Fri Feb 28 2025 16:01:44 GMT-0600 (Central Standard Time),781866.099999994,A,c,O,c,1297,1,1316.0,780550.099999994,7072,WL,B,6.0
7,31.85599994659424,immed,28144.00005340576,Fri Feb 28 2025 16:01:44 GMT-0600 (Central Standard Time),781948.7999999821,A,cl,O,l,50,1,1398.699999988079,780550.099999994,7072,WL,B,6.0
7,31.990000009536743,immed,28009.999990463257,Fri Feb 28 2025 16:01:44 GMT-0600 (Central Standard Time),782082.3999999762,A,clo,O,o,114,1,1532.2999999821186,780550.099999994,7072,WL,B,6.0
7,32.07299995422363,immed,27927.000045776367,Fri Feb 28 2025 16:01:44 GMT-0600 (Central Standard Time),782165.3999999762,A,cloc,O,c,51,1,1615.2999999821186,780550.099999994,7072,WL,B,6.0
7,32.138999938964844,immed,27861.000061035156,Fri Feb 28 2025 16:01:44 GMT-0600 (Central Standard Time),782231.5,A,clock,O,k,30,1,1681.4000000059605,780550.099999994,7072,WL,B,6.0
7,32.638999938964844,immed,27361.000061035156,Fri Feb 28 2025 16:01:44 GMT-0600 (Central Standard Time),782731.5,A,clockenter,O,enter,485,1,2181.4000000059605,780550.099999994,7072,WL,B,6.0
7,32.92300009727478,immed,27076.99990272522,Fri Feb 28 2025 16:01:44 GMT-0600 (Central Standard Time),783015.599999994,A,p,O,p,267,1,283.90000000596046,782731.6999999881,7072,WL,B,7.0
7,33.0220000743866,immed,26977.999925613403,Fri Feb 28 2025 16:01:44 GMT-0600 (Central Standard Time),783114.3999999762,A,pi,O,i,61,1,382.69999998807907,782731.6999999881,7072,WL,B,7.0
7,33.140000104904175,immed,26859.999895095825,Fri Feb 28 2025 16:01:44 GMT-0600 (Central Standard Time),783232.1999999881,A,pip,O,p,107,1,500.5,782731.6999999881,7072,WL,B,7.0
7,33.78999996185303,immed,26210.000038146973,Fri Feb 28 2025 16:01:44 GMT-0600 (Central Standard Time),783882.0,A,pipe,O,e,621,1,1150.300000011921,782731.6999999881,7072,WL,B,7.0
7,33.93900012969971,immed,26060.999870300293,Fri Feb 28 2025 16:01:44 GMT-0600 (Central Standard Time),784031.0,A,pipeenter,O,enter,123,1,1299.300000011921,782731.6999999881,7072,WL,B,7.0
7,34.09000015258789,immed,25909.99984741211,Fri Feb 28 2025 16:01:44 GMT-0600 (Central Standard Time),784182.099999994,A,a,O,a,144,1,150.80000001192093,784031.2999999821,7072,WL,B,8.0
7,34.19000005722046,immed,25809.99994277954,Fri Feb 28 2025 16:01:44 GMT-0600 (Central Standard Time),784281.8999999762,A,ar,O,r,72,1,250.59999999403954,784031.2999999821,7072,WL,B,8.0
7,34.33899998664856,immed,25661.00001335144,Fri Feb 28 2025 16:01:44 GMT-0600 (Central Standard Time),784431.599999994,A,arm,O,m,122,1,400.30000001192093,784031.2999999821,7072,WL,B,8.0
7,34.5220000743866,immed,25477.999925613403,Fri Feb 28 2025 16:01:44 GMT-0600 (Central Standard Time),784614.099999994,A,armenter,O,enter,148,1,582.8000000119209,784031.2999999821,7072,WL,B,8.0
7,34.723000049591064,immed,25276.999950408936,Fri Feb 28 2025 16:01:44 GMT-0600 (Central Standard Time),784815.099999994,A,w,O,w,185,1,200.80000001192093,784614.2999999821,7072,WL,B,9.0
7,34.82299995422363,immed,25177.000045776367,Fri Feb 28 2025 16:01:44 GMT-0600 (Central Standard Time),784914.6999999881,A,wi,O,i,72,1,300.40000000596046,784614.2999999821,7072,WL,B,9.0
7,34.871999979019165,immed,25128.000020980835,Fri Feb 28 2025 16:01:44 GMT-0600 (Central Standard Time),784964.3999999762,A,wif,O,f,29,1,350.09999999403954,784614.2999999821,7072,WL,B,9.0
7,34.937999963760376,immed,25062.000036239624,Fri Feb 28 2025 16:01:44 GMT-0600 (Central Standard Time),785030.5,A,wife,O,e,55,1,416.2000000178814,784614.2999999821,7072,WL,B,9.0
7,35.07200002670288,immed,24927.99997329712,Fri Feb 28 2025 16:01:44 GMT-0600 (Central Standard Time),785163.8999999762,A,wifeenter,O,enter,111,1,549.5999999940395,784614.2999999821,7072,WL,B,9.0
7,38.23800015449524,immed,21761.99984550476,Fri Feb 28 2025 16:01:44 GMT-0600 (Central Standard Time),788330.6999999881,A,p,O,p,3146,1,3166.300000011921,785164.3999999762,7072,WL,B,10.0
7,38.354000091552734,immed,21645.999908447266,Fri Feb 28 2025 16:01:44 GMT-0600 (Central Standard Time),788446.599999994,A,pu,O,u,80,1,3282.2000000178814,785164.3999999762,7072,WL,B,10.0
7,38.5550000667572,immed,21444.999933242798,Fri Feb 28 2025 16:01:44 GMT-0600 (Central Standard Time),788647.1999999881,A,pul,O,l,176,1,3482.800000011921,785164.3999999762,7072,WL,B,10.0
7,39.0550000667572,immed,20944.999933242798,Fri Feb 28 2025 16:01:44 GMT-0600 (Central Standard Time),789147.0,A,pu,O,backspace,461,1,3982.600000023842,785164.3999999762,7072,WL,B,10.0
7,39.3050000667572,immed,20694.999933242798,Fri Feb 28 2025 16:01:44 GMT-0600 (Central Standard Time),789396.8999999762,A,pup,O,p,209,1,4232.5,785164.3999999762,7072,WL,B,10.0
7,39.38700008392334,immed,20612.99991607666,Fri Feb 28 2025 16:01:44 GMT-0600 (Central Standard Time),789479.5,A,pupi,O,i,54,1,4315.100000023842,785164.3999999762,7072,WL,B,10.0
7,39.605000019073486,immed,20394.999980926514,Fri Feb 28 2025 16:01:44 GMT-0600 (Central Standard Time),789696.6999999881,A,pupil,O,l,199,1,4532.300000011921,785164.3999999762,7072,WL,B,10.0
7,39.87000012397766,immed,20129.99987602234,Fri Feb 28 2025 16:01:44 GMT-0600 (Central Standard Time),789962.3999999762,A,pupilenter,O,enter,227,1,4798.0,785164.3999999762,7072,WL,B,10.0
7,43.15300011634827,immed,16846.999883651733,Fri Feb 28 2025 16:01:44 GMT-0600 (Central Standard Time),793245.099999994,A,a,O,a,3268,1,3282.4000000059605,789962.6999999881,7072,WL,B,11.0
7,43.236000061035156,immed,16763.999938964844,Fri Feb 28 2025 16:01:44 GMT-0600 (Central Standard Time),793328.1999999881,A,ar,O,r,56,1,3365.5,789962.6999999881,7072,WL,B,11.0
7,43.32000017166138,immed,16679.999828338623,Fri Feb 28 2025 16:01:44 GMT-0600 (Central Standard Time),793412.3999999762,A,arm,O,m,60,1,3449.699999988079,789962.6999999881,7072,WL,B,11.0
7,43.486000061035156,immed,16513.999938964844,Fri Feb 28 2025 16:01:44 GMT-0600 (Central Standard Time),793577.599999994,A,armenter,O,enter,125,1,3614.9000000059605,789962.6999999881,7072,WL,B,11.0
7,48.4520001411438,immed,11547.999858856201,Fri Feb 28 2025 16:01:44 GMT-0600 (Central Standard Time),798544.099999994,A,w,O,w,4956,1,4966.0999999940395,793578.0,7072,WL,B,12.0
7,48.568000078201294,immed,11431.999921798706,Fri Feb 28 2025 16:01:44 GMT-0600 (Central Standard Time),798660.599999994,A,wi,O,i,80,1,5082.5999999940395,793578.0,7072,WL,B,12.0
7,48.617000102996826,immed,11382.999897003174,Fri Feb 28 2025 16:01:44 GMT-0600 (Central Standard Time),798709.5,A,win,O,n,33,1,5131.5,793578.0,7072,WL,B,12.0
7,48.68499994277954,immed,11315.000057220459,Fri Feb 28 2025 16:01:44 GMT-0600 (Central Standard Time),798777.099999994,A,wind,O,d,56,1,5199.0999999940395,793578.0,7072,WL,B,12.0
7,48.91799998283386,immed,11082.000017166138,Fri Feb 28 2025 16:01:44 GMT-0600 (Central Standard Time),799010.1999999881,A,windo,O,o,212,1,5432.199999988079,793578.0,7072,WL,B,12.0
7,49.01800012588501,immed,10981.99987411499,Fri Feb 28 2025 16:01:44 GMT-0600 (Central Standard Time),799110.599999994,A,window,O,w,76,1,5532.5999999940395,793578.0,7072,WL,B,12.0
7,49.31700015068054,immed,10682.999849319458,Fri Feb 28 2025 16:01:44 GMT-0600 (Central Standard Time),799409.2999999821,A,windowenter,O,enter,271,1,5831.299999982119,793578.0,7072,WL,B,12.0
7,54.532999992370605,immed,5467.0000076293945,Fri Feb 28 2025 16:01:44 GMT-0600 (Central Standard Time),804625.3999999762,A,d,O,d,5197,1,5215.799999982119,799409.599999994,7072,WL,B,13.0
7,54.66600012779236,immed,5333.999872207642,Fri Feb 28 2025 16:01:44 GMT-0600 (Central Standard Time),804758.099999994,A,do,O,o,99,1,5348.5,799409.599999994,7072,WL,B,13.0
7,54.79900002479553,immed,5200.999975204468,Fri Feb 28 2025 16:01:44 GMT-0600 (Central Standard Time),804891.3999999762,A,doo,O,o,103,1,5481.799999982119,799409.599999994,7072,WL,B,13.0
7,54.85800004005432,immed,5141.999959945679,Fri Feb 28 2025 16:01:44 GMT-0600 (Central Standard Time),804950.1999999881,A,door,O,r,28,1,5540.5999999940395,799409.599999994,7072,WL,B,13.0
7,54.96500015258789,immed,5034.999847412109,Fri Feb 28 2025 16:01:44 GMT-0600 (Central Standard Time),805057.099999994,A,doorenter,O,enter,87,1,5647.5,799409.599999994,7072,WL,B,13.0
7,60.015000104904175,immed,-15.000104904174805,Fri Feb 28 2025 16:01:44 GMT-0600 (Central Standard Time),810107.099999994,A,None,O,None,5044,1,5049.700000017881,805057.3999999762,7072,WL,B,14.0
