block_c,block_dur,condition,countdown,datetime,endtime,list,multichar_response,project,response,response_time,session_number,start_end,starttime,subject_id,task,task_vers,trial
,,,,Fri Apr 18 2025 15:08:39 GMT-0500 (Central Daylight Time),,,,O,space,382,1,,,7129,WL,C,
prac,,0,,Fri Apr 18 2025 15:08:39 GMT-0500 (Central Daylight Time),,NA,b,O,b,4181,1,,,7129,WL,C,1.0
prac,,0,,Fri Apr 18 2025 15:08:39 GMT-0500 (Central Daylight Time),,NA,bo,O,o,143,1,,,7129,WL,C,1.0
prac,,0,,Fri Apr 18 2025 15:08:39 GMT-0500 (Central Daylight Time),,NA,boo,O,o,114,1,,,7129,WL,C,1.0
prac,,0,,Fri Apr 18 2025 15:08:39 GMT-0500 (Central Daylight Time),,NA,boos,O,s,101,1,,,7129,WL,C,1.0
prac,,0,,Fri Apr 18 2025 15:08:39 GMT-0500 (Central Daylight Time),,NA,boost,O,t,211,1,,,7129,WL,C,1.0
prac,,0,,Fri Apr 18 2025 15:08:39 GMT-0500 (Central Daylight Time),,NA,boostenter,O,enter,2024,1,,,7129,WL,C,1.0
1,1.0479998588562012,learn,58952.0001411438,Fri Apr 18 2025 15:08:39 GMT-0500 (Central Daylight Time),257211.60000002384,A,t,O,t,1039,1,1047.4000000059605,256164.20000001788,7129,WL,C,1.0
1,1.2329998016357422,learn,58767.00019836426,Fri Apr 18 2025 15:08:39 GMT-0500 (Central Daylight Time),257397.20000001788,A,to,O,o,165,1,1233.0,256164.20000001788,7129,WL,C,1.0
1,1.3309998512268066,learn,58669.00014877319,Fri Apr 18 2025 15:08:39 GMT-0500 (Central Daylight Time),257495.20000001788,A,tow,O,w,78,1,1331.0,256164.20000001788,7129,WL,C,1.0
1,1.7139999866485596,learn,58286.00001335144,Fri Apr 18 2025 15:08:39 GMT-0500 (Central Daylight Time),257878.10000002384,A,towe,O,e,371,1,1713.9000000059605,256164.20000001788,7129,WL,C,1.0
1,1.8149998188018799,learn,58185.00018119812,Fri Apr 18 2025 15:08:39 GMT-0500 (Central Daylight Time),257979.0,A,tower,O,r,85,1,1814.7999999821186,256164.20000001788,7129,WL,C,1.0
1,4.81499981880188,learn,55185.00018119812,Fri Apr 18 2025 15:08:39 GMT-0500 (Central Daylight Time),260978.90000000596,A,towerenter,O,enter,2994,1,4814.699999988079,256164.20000001788,7129,WL,C,1.0
1,5.546000003814697,learn,54453.9999961853,Fri Apr 18 2025 15:08:39 GMT-0500 (Central Daylight Time),261710.20000001788,A,s,O,s,713,1,730.8000000119209,260979.40000000596,7129,WL,C,2.0
1,5.678999900817871,learn,54321.00009918213,Fri Apr 18 2025 15:08:39 GMT-0500 (Central Daylight Time),261843.20000001788,A,su,O,u,124,1,863.8000000119209,260979.40000000596,7129,WL,C,2.0
1,5.813999891281128,learn,54186.00010871887,Fri Apr 18 2025 15:08:39 GMT-0500 (Central Daylight Time),261978.40000000596,A,sug,O,g,123,1,999.0,260979.40000000596,7129,WL,C,2.0
1,6.180999994277954,learn,53819.000005722046,Fri Apr 18 2025 15:08:39 GMT-0500 (Central Daylight Time),262344.5,A,suga,O,a,342,1,1365.0999999940395,260979.40000000596,7129,WL,C,2.0
1,6.329999923706055,learn,53670.000076293945,Fri Apr 18 2025 15:08:39 GMT-0500 (Central Daylight Time),262493.90000000596,A,sugar,O,r,138,1,1514.5,260979.40000000596,7129,WL,C,2.0
1,6.664999961853027,learn,53335.00003814697,Fri Apr 18 2025 15:08:39 GMT-0500 (Central Daylight Time),262828.60000002384,A,sugarenter,O,enter,327,1,1849.2000000178814,260979.40000000596,7129,WL,C,2.0
1,6.977999925613403,learn,53022.0000743866,Fri Apr 18 2025 15:08:39 GMT-0500 (Central Daylight Time),263141.8000000119,A,q,O,q,294,1,312.90000000596046,262828.90000000596,7129,WL,C,3.0
1,7.145999908447266,learn,52854.000091552734,Fri Apr 18 2025 15:08:39 GMT-0500 (Central Daylight Time),263309.90000000596,A,qu,O,u,149,1,481.0,262828.90000000596,7129,WL,C,3.0
1,7.230999946594238,learn,52769.00005340576,Fri Apr 18 2025 15:08:39 GMT-0500 (Central Daylight Time),263394.60000002384,A,que,O,e,78,1,565.7000000178814,262828.90000000596,7129,WL,C,3.0
1,7.395999908447266,learn,52604.000091552734,Fri Apr 18 2025 15:08:39 GMT-0500 (Central Daylight Time),263560.40000000596,A,quee,O,e,146,1,731.5,262828.90000000596,7129,WL,C,3.0
1,7.578999996185303,learn,52421.0000038147,Fri Apr 18 2025 15:08:39 GMT-0500 (Central Daylight Time),263743.10000002384,A,queen,O,n,171,1,914.2000000178814,262828.90000000596,7129,WL,C,3.0
1,8.01199984550476,learn,51988.00015449524,Fri Apr 18 2025 15:08:39 GMT-0500 (Central Daylight Time),264176.2000000179,A,queenenter,O,enter,411,1,1347.300000011921,262828.90000000596,7129,WL,C,3.0
1,8.229999780654907,learn,51770.00021934509,Fri Apr 18 2025 15:08:39 GMT-0500 (Central Daylight Time),264394.2000000179,A,w,O,w,196,1,217.59999999403954,264176.60000002384,7129,WL,C,4.0
1,8.345999956130981,learn,51654.00004386902,Fri Apr 18 2025 15:08:39 GMT-0500 (Central Daylight Time),264510.2000000179,A,wh,O,h,96,1,333.59999999403954,264176.60000002384,7129,WL,C,4.0
1,8.411999940872192,learn,51588.00005912781,Fri Apr 18 2025 15:08:39 GMT-0500 (Central Daylight Time),264575.60000002384,A,whe,O,e,52,1,399.0,264176.60000002384,7129,WL,C,4.0
1,8.561999797821045,learn,51438.000202178955,Fri Apr 18 2025 15:08:39 GMT-0500 (Central Daylight Time),264726.3000000119,A,whea,O,a,133,1,549.6999999880791,264176.60000002384,7129,WL,C,4.0
1,8.729999780654907,learn,51270.00021934509,Fri Apr 18 2025 15:08:39 GMT-0500 (Central Daylight Time),264894.3000000119,A,wheat,O,t,143,1,717.6999999880791,264176.60000002384,7129,WL,C,4.0
1,9.162999868392944,learn,50837.000131607056,Fri Apr 18 2025 15:08:39 GMT-0500 (Central Daylight Time),265326.60000002384,A,wheath,O,h,412,1,1150.0,264176.60000002384,7129,WL,C,4.0
1,9.262999773025513,learn,50737.00022697449,Fri Apr 18 2025 15:08:39 GMT-0500 (Central Daylight Time),265426.5,A,wheatho,O,o,85,1,1249.8999999761581,264176.60000002384,7129,WL,C,4.0
1,9.829999923706055,learn,50170.000076293945,Fri Apr 18 2025 15:08:39 GMT-0500 (Central Daylight Time),265994.60000002384,A,wheath,O,backspace,562,1,1818.0,264176.60000002384,7129,WL,C,4.0
1,9.994999885559082,learn,50005.00011444092,Fri Apr 18 2025 15:08:39 GMT-0500 (Central Daylight Time),266158.7000000179,A,wheat,O,backspace,154,1,1982.0999999940395,264176.60000002384,7129,WL,C,4.0
1,10.144999980926514,learn,49855.000019073486,Fri Apr 18 2025 15:08:39 GMT-0500 (Central Daylight Time),266309.3000000119,A,whea,O,backspace,134,1,2132.699999988079,264176.60000002384,7129,WL,C,4.0
1,10.81499981880188,learn,49185.00018119812,Fri Apr 18 2025 15:08:39 GMT-0500 (Central Daylight Time),266979.0,A,wheat,O,t,661,1,2802.399999976158,264176.60000002384,7129,WL,C,4.0
1,11.044999837875366,learn,48955.000162124634,Fri Apr 18 2025 15:08:39 GMT-0500 (Central Daylight Time),267208.8000000119,A,wheatenter,O,enter,210,1,3032.199999988079,264176.60000002384,7129,WL,C,4.0
1,12.111999988555908,learn,47888.00001144409,Fri Apr 18 2025 15:08:39 GMT-0500 (Central Daylight Time),268275.60000002384,A,h,O,h,1061,1,1066.5,267209.10000002384,7129,WL,C,5.0
1,12.226999998092651,learn,47773.00000190735,Fri Apr 18 2025 15:08:39 GMT-0500 (Central Daylight Time),268391.10000002384,A,ho,O,o,103,1,1182.0,267209.10000002384,7129,WL,C,5.0
1,12.377999782562256,learn,47622.000217437744,Fri Apr 18 2025 15:08:39 GMT-0500 (Central Daylight Time),268542.0,A,hom,O,m,131,1,1332.8999999761581,267209.10000002384,7129,WL,C,5.0
1,12.510999917984009,learn,47489.00008201599,Fri Apr 18 2025 15:08:39 GMT-0500 (Central Daylight Time),268675.0,A,home,O,e,117,1,1465.8999999761581,267209.10000002384,7129,WL,C,5.0
1,12.793999910354614,learn,47206.000089645386,Fri Apr 18 2025 15:08:39 GMT-0500 (Central Daylight Time),268957.8000000119,A,homeenter,O,enter,272,1,1748.699999988079,267209.10000002384,7129,WL,C,5.0
1,13.175999879837036,learn,46824.000120162964,Fri Apr 18 2025 15:08:39 GMT-0500 (Central Daylight Time),269340.60000002384,A,b,O,b,374,1,382.60000002384186,268958.0,7129,WL,C,6.0
1,13.310999870300293,learn,46689.00012969971,Fri Apr 18 2025 15:08:39 GMT-0500 (Central Daylight Time),269474.8000000119,A,bo,O,o,120,1,516.8000000119209,268958.0,7129,WL,C,6.0
1,13.460999965667725,learn,46539.000034332275,Fri Apr 18 2025 15:08:39 GMT-0500 (Central Daylight Time),269624.8000000119,A,boy,O,y,137,1,666.8000000119209,268958.0,7129,WL,C,6.0
1,13.812999963760376,learn,46187.000036239624,Fri Apr 18 2025 15:08:39 GMT-0500 (Central Daylight Time),269977.0,A,boys,O,s,340,1,1019.0,268958.0,7129,WL,C,6.0
1,13.94599986076355,learn,46054.00013923645,Fri Apr 18 2025 15:08:39 GMT-0500 (Central Daylight Time),270110.0,A,boysu,O,u,110,1,1152.0,268958.0,7129,WL,C,6.0
1,14.061999797821045,learn,45938.000202178955,Fri Apr 18 2025 15:08:39 GMT-0500 (Central Daylight Time),270225.90000000596,A,boysug,O,g,103,1,1267.9000000059605,268958.0,7129,WL,C,6.0
1,14.560999870300293,learn,45439.00012969971,Fri Apr 18 2025 15:08:39 GMT-0500 (Central Daylight Time),270724.90000000596,A,boysu,O,backspace,478,1,1766.9000000059605,268958.0,7129,WL,C,6.0
1,14.709999799728394,learn,45290.00020027161,Fri Apr 18 2025 15:08:39 GMT-0500 (Central Daylight Time),270873.8000000119,A,boys,O,backspace,134,1,1915.800000011921,268958.0,7129,WL,C,6.0
1,14.861999988555908,learn,45138.00001144409,Fri Apr 18 2025 15:08:39 GMT-0500 (Central Daylight Time),271025.7000000179,A,boy,O,backspace,138,1,2067.7000000178814,268958.0,7129,WL,C,6.0
1,15.55899977684021,learn,44441.00022315979,Fri Apr 18 2025 15:08:39 GMT-0500 (Central Daylight Time),271723.0,A,boyenter,O,enter,680,1,2765.0,268958.0,7129,WL,C,6.0
1,16.043999910354614,learn,43956.000089645386,Fri Apr 18 2025 15:08:39 GMT-0500 (Central Daylight Time),272207.8000000119,A,s,O,s,465,1,484.5,271723.3000000119,7129,WL,C,7.0
1,16.20899987220764,learn,43791.00012779236,Fri Apr 18 2025 15:08:39 GMT-0500 (Central Daylight Time),272373.40000000596,A,su,O,u,156,1,650.0999999940395,271723.3000000119,7129,WL,C,7.0
1,16.526999950408936,learn,43473.000049591064,Fri Apr 18 2025 15:08:39 GMT-0500 (Central Daylight Time),272690.7000000179,A,sug,O,g,303,1,967.4000000059605,271723.3000000119,7129,WL,C,7.0
1,16.710999965667725,learn,43289.000034332275,Fri Apr 18 2025 15:08:39 GMT-0500 (Central Daylight Time),272874.8000000119,A,suga,O,a,170,1,1151.5,271723.3000000119,7129,WL,C,7.0
1,16.810999870300293,learn,43189.00012969971,Fri Apr 18 2025 15:08:39 GMT-0500 (Central Daylight Time),272974.7000000179,A,sugar,O,r,82,1,1251.4000000059605,271723.3000000119,7129,WL,C,7.0
1,17.47699999809265,learn,42523.00000190735,Fri Apr 18 2025 15:08:39 GMT-0500 (Central Daylight Time),273640.60000002384,A,sugarenter,O,enter,652,1,1917.300000011921,271723.3000000119,7129,WL,C,7.0
1,18.042999982833862,learn,41957.00001716614,Fri Apr 18 2025 15:08:39 GMT-0500 (Central Daylight Time),274206.7000000179,A,d,O,d,547,1,565.8000000119209,273640.90000000596,7129,WL,C,8.0
1,18.325999975204468,learn,41674.00002479553,Fri Apr 18 2025 15:08:39 GMT-0500 (Central Daylight Time),274489.40000000596,A,do,O,o,270,1,848.5,273640.90000000596,7129,WL,C,8.0
1,18.47599983215332,learn,41524.00016784668,Fri Apr 18 2025 15:08:39 GMT-0500 (Central Daylight Time),274639.60000002384,A,doc,O,c,139,1,998.7000000178814,273640.90000000596,7129,WL,C,8.0
1,18.692999839782715,learn,41307.000160217285,Fri Apr 18 2025 15:08:39 GMT-0500 (Central Daylight Time),274856.60000002384,A,doct,O,t,206,1,1215.7000000178814,273640.90000000596,7129,WL,C,8.0
1,18.79199981689453,learn,41208.00018310547,Fri Apr 18 2025 15:08:39 GMT-0500 (Central Daylight Time),274956.40000000596,A,docto,O,o,85,1,1315.5,273640.90000000596,7129,WL,C,8.0
1,18.941999912261963,learn,41058.00008773804,Fri Apr 18 2025 15:08:39 GMT-0500 (Central Daylight Time),275105.7000000179,A,doctor,O,r,127,1,1464.800000011921,273640.90000000596,7129,WL,C,8.0
1,20.125,learn,39875.0,Fri Apr 18 2025 15:08:39 GMT-0500 (Central Daylight Time),276289.0,A,doctorenter,O,enter,1170,1,2648.0999999940395,273640.90000000596,7129,WL,C,8.0
1,28.704999923706055,learn,31295.000076293945,Fri Apr 18 2025 15:08:39 GMT-0500 (Central Daylight Time),284869.40000000596,A,s,O,s,8571,1,8580.09999999404,276289.3000000119,7129,WL,C,9.0
1,28.888999938964844,learn,31111.000061035156,Fri Apr 18 2025 15:08:39 GMT-0500 (Central Daylight Time),285053.10000002384,A,su,O,u,164,1,8763.800000011921,276289.3000000119,7129,WL,C,9.0
1,28.990999937057495,learn,31009.000062942505,Fri Apr 18 2025 15:08:39 GMT-0500 (Central Daylight Time),285154.8000000119,A,sua,O,a,86,1,8865.5,276289.3000000119,7129,WL,C,9.0
1,29.0719997882843,learn,30928.0002117157,Fri Apr 18 2025 15:08:39 GMT-0500 (Central Daylight Time),285236.2000000179,A,suar,O,r,73,1,8946.90000000596,276289.3000000119,7129,WL,C,9.0
1,30.10599994659424,learn,29894.00005340576,Fri Apr 18 2025 15:08:39 GMT-0500 (Central Daylight Time),286269.5,A,sua,O,backspace,1017,1,9980.199999988079,276289.3000000119,7129,WL,C,9.0
1,30.270999908447266,learn,29729.000091552734,Fri Apr 18 2025 15:08:39 GMT-0500 (Central Daylight Time),286435.3000000119,A,su,O,backspace,151,1,10146.0,276289.3000000119,7129,WL,C,9.0
1,30.438999891281128,learn,29561.000108718872,Fri Apr 18 2025 15:08:39 GMT-0500 (Central Daylight Time),286602.7000000179,A,s,O,backspace,160,1,10313.40000000596,276289.3000000119,7129,WL,C,9.0
1,31.33799982070923,learn,28662.00017929077,Fri Apr 18 2025 15:08:39 GMT-0500 (Central Daylight Time),287502.3000000119,A,,O,backspace,889,1,11213.0,276289.3000000119,7129,WL,C,9.0
1,31.538999795913696,learn,28461.000204086304,Fri Apr 18 2025 15:08:39 GMT-0500 (Central Daylight Time),287703.10000002384,A,,O,backspace,183,1,11413.800000011921,276289.3000000119,7129,WL,C,9.0
1,33.42199993133545,learn,26578.00006866455,Fri Apr 18 2025 15:08:39 GMT-0500 (Central Daylight Time),289586.10000002384,A,q,O,q,1868,1,13296.800000011921,276289.3000000119,7129,WL,C,9.0
1,33.58699989318848,learn,26413.000106811523,Fri Apr 18 2025 15:08:39 GMT-0500 (Central Daylight Time),289751.2000000179,A,qu,O,u,154,1,13461.90000000596,276289.3000000119,7129,WL,C,9.0
1,33.687999963760376,learn,26312.000036239624,Fri Apr 18 2025 15:08:39 GMT-0500 (Central Daylight Time),289851.8000000119,A,que,O,e,85,1,13562.5,276289.3000000119,7129,WL,C,9.0
1,33.82299995422363,learn,26177.000045776367,Fri Apr 18 2025 15:08:39 GMT-0500 (Central Daylight Time),289987.0,A,quee,O,e,120,1,13697.699999988079,276289.3000000119,7129,WL,C,9.0
1,33.98899984359741,learn,26011.000156402588,Fri Apr 18 2025 15:08:39 GMT-0500 (Central Daylight Time),290152.90000000596,A,queen,O,n,151,1,13863.59999999404,276289.3000000119,7129,WL,C,9.0
1,34.25499987602234,learn,25745.00012397766,Fri Apr 18 2025 15:08:39 GMT-0500 (Central Daylight Time),290418.5,A,queenenter,O,enter,259,1,14129.199999988079,276289.3000000119,7129,WL,C,9.0
1,39.33799982070923,learn,20662.00017929077,Fri Apr 18 2025 15:08:39 GMT-0500 (Central Daylight Time),295502.10000002384,A,h,O,h,5078,1,5083.300000011921,290418.8000000119,7129,WL,C,10.0
1,39.46999979019165,learn,20530.00020980835,Fri Apr 18 2025 15:08:39 GMT-0500 (Central Daylight Time),295634.60000002384,A,ho,O,o,112,1,5215.800000011921,290418.8000000119,7129,WL,C,10.0
1,39.57099986076355,learn,20429.00013923645,Fri Apr 18 2025 15:08:39 GMT-0500 (Central Daylight Time),295735.10000002384,A,hou,O,u,82,1,5316.300000011921,290418.8000000119,7129,WL,C,10.0
1,39.59999990463257,learn,20400.00009536743,Fri Apr 18 2025 15:08:39 GMT-0500 (Central Daylight Time),295764.2000000179,A,hous,O,s,19,1,5345.4000000059605,290418.8000000119,7129,WL,C,10.0
1,39.7039999961853,learn,20296.000003814697,Fri Apr 18 2025 15:08:39 GMT-0500 (Central Daylight Time),295867.8000000119,A,house,O,e,90,1,5449.0,290418.8000000119,7129,WL,C,10.0
1,39.900999784469604,learn,20099.000215530396,Fri Apr 18 2025 15:08:39 GMT-0500 (Central Daylight Time),296065.5,A,houseenter,O,enter,182,1,5646.699999988079,290418.8000000119,7129,WL,C,10.0
1,44.10199999809265,learn,15898.000001907349,Fri Apr 18 2025 15:08:39 GMT-0500 (Central Daylight Time),300266.7000000179,A,b,O,b,4179,1,4201.0,296065.7000000179,7129,WL,C,11.0
1,44.19999980926514,learn,15800.000190734863,Fri Apr 18 2025 15:08:39 GMT-0500 (Central Daylight Time),300364.60000002384,A,bo,O,o,79,1,4298.9000000059605,296065.7000000179,7129,WL,C,11.0
1,44.334999799728394,learn,15665.000200271606,Fri Apr 18 2025 15:08:39 GMT-0500 (Central Daylight Time),300498.7000000179,A,bon,O,n,127,1,4433.0,296065.7000000179,7129,WL,C,11.0
1,44.41699981689453,learn,15583.000183105469,Fri Apr 18 2025 15:08:39 GMT-0500 (Central Daylight Time),300581.5,A,bone,O,e,65,1,4515.799999982119,296065.7000000179,7129,WL,C,11.0
1,44.60099983215332,learn,15399.00016784668,Fri Apr 18 2025 15:08:39 GMT-0500 (Central Daylight Time),300765.0,A,boneenter,O,enter,165,1,4699.299999982119,296065.7000000179,7129,WL,C,11.0
1,56.5460000038147,learn,3453.9999961853027,Fri Apr 18 2025 15:08:39 GMT-0500 (Central Daylight Time),312710.5,A,b,O,b,11928,1,11945.299999982119,300765.2000000179,7129,WL,C,12.0
1,56.6969997882843,learn,3303.0002117156982,Fri Apr 18 2025 15:08:39 GMT-0500 (Central Daylight Time),312861.60000002384,A,bo,O,o,129,1,12096.40000000596,300765.2000000179,7129,WL,C,12.0
1,56.88099980354309,learn,3119.000196456909,Fri Apr 18 2025 15:08:39 GMT-0500 (Central Daylight Time),313044.7000000179,A,boy,O,y,165,1,12279.5,300765.2000000179,7129,WL,C,12.0
1,57.14699983596802,learn,2853.0001640319824,Fri Apr 18 2025 15:08:39 GMT-0500 (Central Daylight Time),313310.60000002384,A,boyenter,O,enter,248,1,12545.40000000596,300765.2000000179,7129,WL,C,12.0
1,59.811999797821045,learn,188.00020217895508,Fri Apr 18 2025 15:08:39 GMT-0500 (Central Daylight Time),315976.60000002384,A,s,O,s,2645,1,2665.600000023842,313311.0,7129,WL,C,13.0
1,60.013999938964844,learn,-13.99993896484375,Fri Apr 18 2025 15:08:39 GMT-0500 (Central Daylight Time),316177.90000000596,A,sNone,O,None,196,1,2866.9000000059605,313311.0,7129,WL,C,13.0
2,0.564000129699707,learn,59435.99987030029,Fri Apr 18 2025 15:08:39 GMT-0500 (Central Daylight Time),386253.7000000179,A,t,O,t,555,1,564.3000000119209,385689.40000000596,7129,WL,C,1.0
2,0.7149999141693115,learn,59285.00008583069,Fri Apr 18 2025 15:08:39 GMT-0500 (Central Daylight Time),386404.0,A,to,O,o,135,1,714.5999999940395,385689.40000000596,7129,WL,C,1.0
2,0.814000129699707,learn,59185.99987030029,Fri Apr 18 2025 15:08:39 GMT-0500 (Central Daylight Time),386503.60000002384,A,tow,O,w,87,1,814.2000000178814,385689.40000000596,7129,WL,C,1.0
2,1.0989999771118164,learn,58901.00002288818,Fri Apr 18 2025 15:08:39 GMT-0500 (Central Daylight Time),386788.10000002384,A,towe,O,e,268,1,1098.7000000178814,385689.40000000596,7129,WL,C,1.0
2,1.2320001125335693,learn,58767.99988746643,Fri Apr 18 2025 15:08:39 GMT-0500 (Central Daylight Time),386921.40000000596,A,tower,O,r,111,1,1232.0,385689.40000000596,7129,WL,C,1.0
2,1.5469999313354492,learn,58453.00006866455,Fri Apr 18 2025 15:08:39 GMT-0500 (Central Daylight Time),387236.3000000119,A,towerenter,O,enter,297,1,1546.9000000059605,385689.40000000596,7129,WL,C,1.0
2,1.930999994277954,learn,58069.000005722046,Fri Apr 18 2025 15:08:39 GMT-0500 (Central Daylight Time),387620.60000002384,A,s,O,s,376,1,384.10000002384186,387236.5,7129,WL,C,2.0
2,2.0989999771118164,learn,57901.00002288818,Fri Apr 18 2025 15:08:39 GMT-0500 (Central Daylight Time),387788.90000000596,A,su,O,u,162,1,552.4000000059605,387236.5,7129,WL,C,2.0
2,2.316999912261963,learn,57683.00008773804,Fri Apr 18 2025 15:08:39 GMT-0500 (Central Daylight Time),388005.90000000596,A,sug,O,g,198,1,769.4000000059605,387236.5,7129,WL,C,2.0
2,2.4649999141693115,learn,57535.00008583069,Fri Apr 18 2025 15:08:39 GMT-0500 (Central Daylight Time),388154.0,A,suga,O,a,134,1,917.5,387236.5,7129,WL,C,2.0
2,2.5820000171661377,learn,57417.99998283386,Fri Apr 18 2025 15:08:39 GMT-0500 (Central Daylight Time),388270.90000000596,A,sugar,O,r,97,1,1034.4000000059605,387236.5,7129,WL,C,2.0
2,3.614000082015991,learn,56385.99991798401,Fri Apr 18 2025 15:08:39 GMT-0500 (Central Daylight Time),389303.2000000179,A,suga,O,backspace,1021,1,2066.7000000178814,387236.5,7129,WL,C,2.0
2,3.9800000190734863,learn,56019.999980926514,Fri Apr 18 2025 15:08:39 GMT-0500 (Central Daylight Time),389669.3000000119,A,sugaenter,O,enter,358,1,2432.800000011921,387236.5,7129,WL,C,2.0
2,4.865999937057495,learn,55134.000062942505,Fri Apr 18 2025 15:08:39 GMT-0500 (Central Daylight Time),390555.3000000119,A,w,O,w,880,1,885.6999999880791,389669.60000002384,7129,WL,C,3.0
2,5.04800009727478,learn,54951.99990272522,Fri Apr 18 2025 15:08:39 GMT-0500 (Central Daylight Time),390737.5,A,wh,O,h,158,1,1067.8999999761581,389669.60000002384,7129,WL,C,3.0
2,5.148000001907349,learn,54851.99999809265,Fri Apr 18 2025 15:08:39 GMT-0500 (Central Daylight Time),390836.90000000596,A,whe,O,e,89,1,1167.2999999821186,389669.60000002384,7129,WL,C,3.0
2,5.3459999561309814,learn,54654.00004386902,Fri Apr 18 2025 15:08:39 GMT-0500 (Central Daylight Time),391035.10000002384,A,whea,O,a,171,1,1365.5,389669.60000002384,7129,WL,C,3.0
2,5.614000082015991,learn,54385.99991798401,Fri Apr 18 2025 15:08:39 GMT-0500 (Central Daylight Time),391303.60000002384,A,wheat,O,t,244,1,1634.0,389669.60000002384,7129,WL,C,3.0
2,7.61299991607666,learn,52387.00008392334,Fri Apr 18 2025 15:08:39 GMT-0500 (Central Daylight Time),393302.3000000119,A,whea,O,backspace,1990,1,3632.699999988079,389669.60000002384,7129,WL,C,3.0
2,8.597000122070312,learn,51402.99987792969,Fri Apr 18 2025 15:08:39 GMT-0500 (Central Daylight Time),394286.3000000119,A,wheat,O,t,962,1,4616.699999988079,389669.60000002384,7129,WL,C,3.0
2,9.097000122070312,learn,50902.99987792969,Fri Apr 18 2025 15:08:39 GMT-0500 (Central Daylight Time),394786.3000000119,A,wheatenter,O,enter,489,1,5116.699999988079,389669.60000002384,7129,WL,C,3.0
2,9.828999996185303,learn,50171.0000038147,Fri Apr 18 2025 15:08:39 GMT-0500 (Central Daylight Time),395518.2000000179,A,c,O,c,723,1,731.5,394786.7000000179,7129,WL,C,4.0
2,9.963000059127808,learn,50036.99994087219,Fri Apr 18 2025 15:08:39 GMT-0500 (Central Daylight Time),395652.7000000179,A,co,O,o,114,1,866.0,394786.7000000179,7129,WL,C,4.0
2,10.094000101089478,learn,49905.99989891052,Fri Apr 18 2025 15:08:39 GMT-0500 (Central Daylight Time),395783.8000000119,A,cor,O,r,104,1,997.0999999940395,394786.7000000179,7129,WL,C,4.0
2,10.594000101089478,learn,49405.99989891052,Fri Apr 18 2025 15:08:39 GMT-0500 (Central Daylight Time),396284.0,A,corn,O,n,482,1,1497.2999999821186,394786.7000000179,7129,WL,C,4.0
2,11.361999988555908,learn,48638.00001144409,Fri Apr 18 2025 15:08:39 GMT-0500 (Central Daylight Time),397050.90000000596,A,cornenter,O,enter,757,1,2264.199999988079,394786.7000000179,7129,WL,C,4.0
2,11.795000076293945,learn,48204.999923706055,Fri Apr 18 2025 15:08:39 GMT-0500 (Central Daylight Time),397484.3000000119,A,c,O,c,428,1,433.19999998807907,397051.10000002384,7129,WL,C,5.0
2,12.02999997138977,learn,47970.00002861023,Fri Apr 18 2025 15:08:39 GMT-0500 (Central Daylight Time),397719.8000000119,A,ca,O,a,214,1,668.6999999880791,397051.10000002384,7129,WL,C,5.0
2,12.26200008392334,learn,47737.99991607666,Fri Apr 18 2025 15:08:39 GMT-0500 (Central Daylight Time),397951.0,A,cat,O,t,209,1,899.8999999761581,397051.10000002384,7129,WL,C,5.0
2,12.41100001335144,learn,47588.99998664856,Fri Apr 18 2025 15:08:39 GMT-0500 (Central Daylight Time),398100.40000000596,A,catt,O,t,133,1,1049.2999999821186,397051.10000002384,7129,WL,C,5.0
2,12.595999956130981,learn,47404.00004386902,Fri Apr 18 2025 15:08:39 GMT-0500 (Central Daylight Time),398285.0,A,catth,O,h,170,1,1233.8999999761581,397051.10000002384,7129,WL,C,5.0
2,13.180000066757202,learn,46819.9999332428,Fri Apr 18 2025 15:08:39 GMT-0500 (Central Daylight Time),398869.3000000119,A,catt,O,backspace,578,1,1818.199999988079,397051.10000002384,7129,WL,C,5.0
2,13.394999980926514,learn,46605.000019073486,Fri Apr 18 2025 15:08:39 GMT-0500 (Central Daylight Time),399084.8000000119,A,cattl,O,l,194,1,2033.699999988079,397051.10000002384,7129,WL,C,5.0
2,13.526000022888184,learn,46473.99997711182,Fri Apr 18 2025 15:08:39 GMT-0500 (Central Daylight Time),399215.10000002384,A,cattle,O,e,118,1,2164.0,397051.10000002384,7129,WL,C,5.0
2,14.094000101089478,learn,45905.99989891052,Fri Apr 18 2025 15:08:39 GMT-0500 (Central Daylight Time),399783.5,A,cattleenter,O,enter,552,1,2732.399999976158,397051.10000002384,7129,WL,C,5.0
2,18.210000038146973,learn,41789.99996185303,Fri Apr 18 2025 15:08:39 GMT-0500 (Central Daylight Time),403899.3000000119,A,h,O,h,4110,1,4115.5,399783.8000000119,7129,WL,C,6.0
2,18.342999935150146,learn,41657.00006484985,Fri Apr 18 2025 15:08:39 GMT-0500 (Central Daylight Time),404032.60000002384,A,ho,O,o,119,1,4248.800000011921,399783.8000000119,7129,WL,C,6.0
2,18.493000030517578,learn,41506.99996948242,Fri Apr 18 2025 15:08:39 GMT-0500 (Central Daylight Time),404182.5,A,hom,O,m,138,1,4398.699999988079,399783.8000000119,7129,WL,C,6.0
2,18.625,learn,41375.0,Fri Apr 18 2025 15:08:39 GMT-0500 (Central Daylight Time),404314.60000002384,A,home,O,e,113,1,4530.800000011921,399783.8000000119,7129,WL,C,6.0
2,18.91000008583069,learn,41089.99991416931,Fri Apr 18 2025 15:08:39 GMT-0500 (Central Daylight Time),404599.0,A,homeenter,O,enter,263,1,4815.199999988079,399783.8000000119,7129,WL,C,6.0
2,19.475000143051147,learn,40524.99985694885,Fri Apr 18 2025 15:08:39 GMT-0500 (Central Daylight Time),405165.0,A,b,O,b,551,1,565.7999999821186,404599.2000000179,7129,WL,C,7.0
2,19.608999967575073,learn,40391.00003242493,Fri Apr 18 2025 15:08:39 GMT-0500 (Central Daylight Time),405298.40000000596,A,bo,O,o,117,1,699.1999999880791,404599.2000000179,7129,WL,C,7.0
2,19.8270001411438,learn,40172.9998588562,Fri Apr 18 2025 15:08:39 GMT-0500 (Central Daylight Time),405516.40000000596,A,boy,O,y,207,1,917.1999999880791,404599.2000000179,7129,WL,C,7.0
2,20.22699999809265,learn,39773.00000190735,Fri Apr 18 2025 15:08:39 GMT-0500 (Central Daylight Time),405916.10000002384,A,boyenter,O,enter,395,1,1316.9000000059605,404599.2000000179,7129,WL,C,7.0
2,21.009000062942505,learn,38990.999937057495,Fri Apr 18 2025 15:08:39 GMT-0500 (Central Daylight Time),406698.60000002384,A,s,O,s,769,1,782.2000000178814,405916.40000000596,7129,WL,C,8.0
2,21.16000008583069,learn,38839.99991416931,Fri Apr 18 2025 15:08:39 GMT-0500 (Central Daylight Time),406848.90000000596,A,su,O,u,136,1,932.5,405916.40000000596,7129,WL,C,8.0
2,21.259000062942505,learn,38740.999937057495,Fri Apr 18 2025 15:08:39 GMT-0500 (Central Daylight Time),406949.0,A,sua,O,a,76,1,1032.5999999940395,405916.40000000596,7129,WL,C,8.0
2,21.324000120162964,learn,38675.999879837036,Fri Apr 18 2025 15:08:39 GMT-0500 (Central Daylight Time),407013.2000000179,A,suar,O,r,46,1,1096.800000011921,405916.40000000596,7129,WL,C,8.0
2,22.52500009536743,learn,37474.99990463257,Fri Apr 18 2025 15:08:39 GMT-0500 (Central Daylight Time),408213.90000000596,A,sua,O,backspace,1182,1,2297.5,405916.40000000596,7129,WL,C,8.0
2,22.691999912261963,learn,37308.00008773804,Fri Apr 18 2025 15:08:39 GMT-0500 (Central Daylight Time),408381.3000000119,A,su,O,backspace,148,1,2464.9000000059605,405916.40000000596,7129,WL,C,8.0
2,22.908999919891357,learn,37091.00008010864,Fri Apr 18 2025 15:08:39 GMT-0500 (Central Daylight Time),408598.3000000119,A,sug,O,g,196,1,2681.9000000059605,405916.40000000596,7129,WL,C,8.0
2,23.29200005531311,learn,36707.99994468689,Fri Apr 18 2025 15:08:39 GMT-0500 (Central Daylight Time),408981.40000000596,A,suga,O,a,365,1,3065.0,405916.40000000596,7129,WL,C,8.0
2,23.407999992370605,learn,36592.000007629395,Fri Apr 18 2025 15:08:39 GMT-0500 (Central Daylight Time),409097.3000000119,A,sugar,O,r,98,1,3180.9000000059605,405916.40000000596,7129,WL,C,8.0
2,23.80900001525879,learn,36190.99998474121,Fri Apr 18 2025 15:08:39 GMT-0500 (Central Daylight Time),409498.3000000119,A,sugarenter,O,enter,395,1,3581.9000000059605,405916.40000000596,7129,WL,C,8.0
2,28.308000087738037,learn,31691.999912261963,Fri Apr 18 2025 15:08:39 GMT-0500 (Central Daylight Time),413997.10000002384,A,c,O,c,4493,1,4498.5,409498.60000002384,7129,WL,C,9.0
2,28.42199993133545,learn,31578.00006866455,Fri Apr 18 2025 15:08:39 GMT-0500 (Central Daylight Time),414111.90000000596,A,co,O,o,100,1,4613.299999982119,409498.60000002384,7129,WL,C,9.0
2,28.539000034332275,learn,31460.999965667725,Fri Apr 18 2025 15:08:39 GMT-0500 (Central Daylight Time),414229.0,A,cor,O,r,109,1,4730.399999976158,409498.60000002384,7129,WL,C,9.0
2,28.723000049591064,learn,31276.999950408936,Fri Apr 18 2025 15:08:39 GMT-0500 (Central Daylight Time),414412.60000002384,A,corn,O,n,169,1,4914.0,409498.60000002384,7129,WL,C,9.0
2,29.00600004196167,learn,30993.99995803833,Fri Apr 18 2025 15:08:39 GMT-0500 (Central Daylight Time),414695.8000000119,A,cornenter,O,enter,272,1,5197.199999988079,409498.60000002384,7129,WL,C,9.0
2,37.80299997329712,learn,22197.00002670288,Fri Apr 18 2025 15:08:39 GMT-0500 (Central Daylight Time),423492.60000002384,A,h,O,h,8789,1,8796.600000023842,414696.0,7129,WL,C,10.0
2,37.97000002861023,learn,22029.99997138977,Fri Apr 18 2025 15:08:39 GMT-0500 (Central Daylight Time),423659.3000000119,A,ho,O,o,153,1,8963.300000011921,414696.0,7129,WL,C,10.0
2,38.08500003814697,learn,21914.999961853027,Fri Apr 18 2025 15:08:39 GMT-0500 (Central Daylight Time),423774.40000000596,A,hou,O,u,103,1,9078.40000000596,414696.0,7129,WL,C,10.0
2,38.22000002861023,learn,21779.99997138977,Fri Apr 18 2025 15:08:39 GMT-0500 (Central Daylight Time),423909.60000002384,A,hous,O,s,130,1,9213.600000023842,414696.0,7129,WL,C,10.0
2,38.337000131607056,learn,21662.999868392944,Fri Apr 18 2025 15:08:39 GMT-0500 (Central Daylight Time),424026.8000000119,A,house,O,e,101,1,9330.800000011921,414696.0,7129,WL,C,10.0
2,39.13599991798401,learn,20864.00008201599,Fri Apr 18 2025 15:08:39 GMT-0500 (Central Daylight Time),424825.3000000119,A,houseenter,O,enter,773,1,10129.300000011921,414696.0,7129,WL,C,10.0
2,49.13300013542175,learn,10866.999864578247,Fri Apr 18 2025 15:08:39 GMT-0500 (Central Daylight Time),434822.2000000179,A,s,O,s,9980,1,9996.59999999404,424825.60000002384,7129,WL,C,11.0
2,49.58299994468689,learn,10417.00005531311,Fri Apr 18 2025 15:08:39 GMT-0500 (Central Daylight Time),435272.10000002384,A,su,O,u,438,1,10446.5,424825.60000002384,7129,WL,C,11.0
2,49.81500005722046,learn,10184.999942779541,Fri Apr 18 2025 15:08:39 GMT-0500 (Central Daylight Time),435504.60000002384,A,sug,O,g,220,1,10679.0,424825.60000002384,7129,WL,C,11.0
2,50.10000014305115,learn,9899.999856948853,Fri Apr 18 2025 15:08:39 GMT-0500 (Central Daylight Time),435789.2000000179,A,suga,O,a,267,1,10963.59999999404,424825.60000002384,7129,WL,C,11.0
2,50.21600008010864,learn,9783.999919891357,Fri Apr 18 2025 15:08:39 GMT-0500 (Central Daylight Time),435905.5,A,sugar,O,r,102,1,11079.899999976158,424825.60000002384,7129,WL,C,11.0
2,50.53200006484985,learn,9467.999935150146,Fri Apr 18 2025 15:08:39 GMT-0500 (Central Daylight Time),436221.10000002384,A,sugarenter,O,enter,307,1,11395.5,424825.60000002384,7129,WL,C,11.0
2,60.01200008392334,learn,-12.000083923339844,Fri Apr 18 2025 15:08:39 GMT-0500 (Central Daylight Time),445701.60000002384,A,None,O,None,9475,1,9480.200000017881,436221.40000000596,7129,WL,C,12.0
3,0.4830000400543213,learn,59516.99995994568,Fri Apr 18 2025 15:08:39 GMT-0500 (Central Daylight Time),513831.10000002384,A,d,O,d,473,1,482.90000000596046,513348.2000000179,7129,WL,C,1.0
3,0.8159999847412109,learn,59184.00001525879,Fri Apr 18 2025 15:08:39 GMT-0500 (Central Daylight Time),514163.7000000179,A,do,O,o,316,1,815.5,513348.2000000179,7129,WL,C,1.0
3,1.0160000324249268,learn,58983.99996757507,Fri Apr 18 2025 15:08:39 GMT-0500 (Central Daylight Time),514363.8000000119,A,doc,O,c,184,1,1015.5999999940395,513348.2000000179,7129,WL,C,1.0
3,1.2170000076293945,learn,58782.999992370605,Fri Apr 18 2025 15:08:39 GMT-0500 (Central Daylight Time),514564.90000000596,A,doct,O,t,195,1,1216.699999988079,513348.2000000179,7129,WL,C,1.0
3,1.383000135421753,learn,58616.99986457825,Fri Apr 18 2025 15:08:39 GMT-0500 (Central Daylight Time),514730.2000000179,A,docto,O,o,149,1,1382.0,513348.2000000179,7129,WL,C,1.0
3,1.567000150680542,learn,58432.99984931946,Fri Apr 18 2025 15:08:39 GMT-0500 (Central Daylight Time),514914.5,A,doctor,O,r,170,1,1566.2999999821186,513348.2000000179,7129,WL,C,1.0
3,2.0480000972747803,learn,57951.99990272522,Fri Apr 18 2025 15:08:39 GMT-0500 (Central Daylight Time),515395.3000000119,A,doctorenter,O,enter,473,1,2047.0999999940395,513348.2000000179,7129,WL,C,1.0
3,2.565000057220459,learn,57434.99994277954,Fri Apr 18 2025 15:08:39 GMT-0500 (Central Daylight Time),515912.5,A,c,O,c,506,1,517.0,515395.5,7129,WL,C,2.0
3,2.7200000286102295,learn,57279.99997138977,Fri Apr 18 2025 15:08:39 GMT-0500 (Central Daylight Time),516068.2000000179,A,ca,O,a,149,1,672.7000000178814,515395.5,7129,WL,C,2.0
3,2.9160001277923584,learn,57083.99987220764,Fri Apr 18 2025 15:08:39 GMT-0500 (Central Daylight Time),516263.40000000596,A,cam,O,m,187,1,867.9000000059605,515395.5,7129,WL,C,2.0
3,3.183000087738037,learn,56816.99991226196,Fri Apr 18 2025 15:08:39 GMT-0500 (Central Daylight Time),516530.7000000179,A,camp,O,p,260,1,1135.2000000178814,515395.5,7129,WL,C,2.0
3,3.8310000896453857,learn,56168.999910354614,Fri Apr 18 2025 15:08:39 GMT-0500 (Central Daylight Time),517179.0,A,campenter,O,enter,643,1,1783.5,515395.5,7129,WL,C,2.0
3,4.266000032424927,learn,55733.99996757507,Fri Apr 18 2025 15:08:39 GMT-0500 (Central Daylight Time),517613.5,A,c,O,c,419,1,434.2999999821186,517179.2000000179,7129,WL,C,3.0
3,4.398999929428101,learn,55601.0000705719,Fri Apr 18 2025 15:08:39 GMT-0500 (Central Daylight Time),517746.40000000596,A,co,O,o,116,1,567.1999999880791,517179.2000000179,7129,WL,C,3.0
3,4.516000032424927,learn,55483.99996757507,Fri Apr 18 2025 15:08:39 GMT-0500 (Central Daylight Time),517863.8000000119,A,cor,O,r,98,1,684.5999999940395,517179.2000000179,7129,WL,C,3.0
3,4.733000040054321,learn,55266.99995994568,Fri Apr 18 2025 15:08:39 GMT-0500 (Central Daylight Time),518080.5,A,corn,O,n,195,1,901.2999999821186,517179.2000000179,7129,WL,C,3.0
3,5.130000114440918,learn,54869.99988555908,Fri Apr 18 2025 15:08:39 GMT-0500 (Central Daylight Time),518477.60000002384,A,cornenter,O,enter,378,1,1298.4000000059605,517179.2000000179,7129,WL,C,3.0
3,6.447000026702881,learn,53552.99997329712,Fri Apr 18 2025 15:08:39 GMT-0500 (Central Daylight Time),519794.8000000119,A,w,O,w,1303,1,1317.0,518477.8000000119,7129,WL,C,4.0
3,6.578999996185303,learn,53421.0000038147,Fri Apr 18 2025 15:08:39 GMT-0500 (Central Daylight Time),519927.0,A,wh,O,h,122,1,1449.199999988079,518477.8000000119,7129,WL,C,4.0
3,6.67900013923645,learn,53320.99986076355,Fri Apr 18 2025 15:08:39 GMT-0500 (Central Daylight Time),520027.10000002384,A,whe,O,e,81,1,1549.300000011921,518477.8000000119,7129,WL,C,4.0
3,6.865000009536743,learn,53134.99999046326,Fri Apr 18 2025 15:08:39 GMT-0500 (Central Daylight Time),520212.90000000596,A,whea,O,a,166,1,1735.0999999940395,518477.8000000119,7129,WL,C,4.0
3,6.982000112533569,learn,53017.99988746643,Fri Apr 18 2025 15:08:39 GMT-0500 (Central Daylight Time),520329.8000000119,A,wheat,O,t,103,1,1852.0,518477.8000000119,7129,WL,C,4.0
3,8.996000051498413,learn,51003.99994850159,Fri Apr 18 2025 15:08:39 GMT-0500 (Central Daylight Time),522343.90000000596,A,wheatenter,O,enter,2000,1,3866.0999999940395,518477.8000000119,7129,WL,C,4.0
3,9.414999961853027,learn,50585.00003814697,Fri Apr 18 2025 15:08:39 GMT-0500 (Central Daylight Time),522762.90000000596,A,s,O,s,397,1,418.69999998807907,522344.2000000179,7129,WL,C,5.0
3,9.546000003814697,learn,50453.9999961853,Fri Apr 18 2025 15:08:39 GMT-0500 (Central Daylight Time),522893.60000002384,A,su,O,u,113,1,549.4000000059605,522344.2000000179,7129,WL,C,5.0
3,9.681999921798706,learn,50318.000078201294,Fri Apr 18 2025 15:08:39 GMT-0500 (Central Daylight Time),523029.3000000119,A,sug,O,g,129,1,685.0999999940395,522344.2000000179,7129,WL,C,5.0
3,9.848000049591064,learn,50151.999950408936,Fri Apr 18 2025 15:08:39 GMT-0500 (Central Daylight Time),523195.2000000179,A,suga,O,a,151,1,851.0,522344.2000000179,7129,WL,C,5.0
3,9.94700002670288,learn,50052.99997329712,Fri Apr 18 2025 15:08:39 GMT-0500 (Central Daylight Time),523294.5,A,sugar,O,r,79,1,950.2999999821186,522344.2000000179,7129,WL,C,5.0
3,10.694999933242798,learn,49305.0000667572,Fri Apr 18 2025 15:08:39 GMT-0500 (Central Daylight Time),524043.2000000179,A,sugarenter,O,enter,734,1,1699.0,522344.2000000179,7129,WL,C,5.0
3,13.110000133514404,learn,46889.999866485596,Fri Apr 18 2025 15:08:39 GMT-0500 (Central Daylight Time),526458.1000000238,A,c,O,c,2400,1,2414.7000000178814,524043.40000000596,7129,WL,C,6.0
3,13.27999997138977,learn,46720.00002861023,Fri Apr 18 2025 15:08:39 GMT-0500 (Central Daylight Time),526627.900000006,A,co,O,o,163,1,2584.5,524043.40000000596,7129,WL,C,6.0
3,13.414999961853027,learn,46585.00003814697,Fri Apr 18 2025 15:08:39 GMT-0500 (Central Daylight Time),526762.5,A,cor,O,r,112,1,2719.0999999940395,524043.40000000596,7129,WL,C,6.0
3,13.729000091552734,learn,46270.999908447266,Fri Apr 18 2025 15:08:39 GMT-0500 (Central Daylight Time),527076.400000006,A,corn,O,n,299,1,3033.0,524043.40000000596,7129,WL,C,6.0
3,14.196000099182129,learn,45803.99990081787,Fri Apr 18 2025 15:08:39 GMT-0500 (Central Daylight Time),527543.7000000179,A,cornenter,O,enter,446,1,3500.300000011921,524043.40000000596,7129,WL,C,6.0
3,14.498000144958496,learn,45501.999855041504,Fri Apr 18 2025 15:08:39 GMT-0500 (Central Daylight Time),527845.2000000179,A,c,O,c,296,1,301.30000001192093,527543.900000006,7129,WL,C,7.0
3,14.663000106811523,learn,45336.99989318848,Fri Apr 18 2025 15:08:39 GMT-0500 (Central Daylight Time),528010.400000006,A,ca,O,a,158,1,466.5,527543.900000006,7129,WL,C,7.0
3,14.761000156402588,learn,45238.99984359741,Fri Apr 18 2025 15:08:39 GMT-0500 (Central Daylight Time),528108.5,A,cat,O,t,90,1,564.5999999940395,527543.900000006,7129,WL,C,7.0
3,14.944999933242798,learn,45055.0000667572,Fri Apr 18 2025 15:08:39 GMT-0500 (Central Daylight Time),528292.900000006,A,catt,O,t,175,1,749.0,527543.900000006,7129,WL,C,7.0
3,15.111999988555908,learn,44888.00001144409,Fri Apr 18 2025 15:08:39 GMT-0500 (Central Daylight Time),528460.1000000238,A,cattl,O,l,151,1,916.2000000178814,527543.900000006,7129,WL,C,7.0
3,15.261000156402588,learn,44738.99984359741,Fri Apr 18 2025 15:08:39 GMT-0500 (Central Daylight Time),528608.7000000179,A,cattle,O,e,129,1,1064.800000011921,527543.900000006,7129,WL,C,7.0
3,16.111000061035156,learn,43888.999938964844,Fri Apr 18 2025 15:08:39 GMT-0500 (Central Daylight Time),529458.8000000119,A,cattleenter,O,enter,843,1,1914.9000000059605,527543.900000006,7129,WL,C,7.0
3,16.57800006866455,learn,43421.99993133545,Fri Apr 18 2025 15:08:39 GMT-0500 (Central Daylight Time),529925.900000006,A,h,O,h,450,1,466.7999999821186,529459.1000000238,7129,WL,C,8.0
3,16.76200008392334,learn,43237.99991607666,Fri Apr 18 2025 15:08:39 GMT-0500 (Central Daylight Time),530109.400000006,A,ho,O,o,176,1,650.2999999821186,529459.1000000238,7129,WL,C,8.0
3,17.078999996185303,learn,42921.0000038147,Fri Apr 18 2025 15:08:39 GMT-0500 (Central Daylight Time),530426.2000000179,A,hom,O,m,294,1,967.0999999940395,529459.1000000238,7129,WL,C,8.0
3,17.246000051498413,learn,42753.99994850159,Fri Apr 18 2025 15:08:39 GMT-0500 (Central Daylight Time),530593.3000000119,A,home,O,e,154,1,1134.199999988079,529459.1000000238,7129,WL,C,8.0
3,17.526999950408936,learn,42473.000049591064,Fri Apr 18 2025 15:08:39 GMT-0500 (Central Daylight Time),530874.900000006,A,homeenter,O,enter,265,1,1415.7999999821186,529459.1000000238,7129,WL,C,8.0
3,18.02900004386902,learn,41970.99995613098,Fri Apr 18 2025 15:08:39 GMT-0500 (Central Daylight Time),531376.7000000179,A,b,O,b,482,1,501.5,530875.2000000179,7129,WL,C,9.0
3,18.16000008583069,learn,41839.99991416931,Fri Apr 18 2025 15:08:39 GMT-0500 (Central Daylight Time),531507.5,A,bo,O,o,122,1,632.2999999821186,530875.2000000179,7129,WL,C,9.0
3,18.361000061035156,learn,41638.999938964844,Fri Apr 18 2025 15:08:39 GMT-0500 (Central Daylight Time),531708.5,A,boy,O,y,185,1,833.2999999821186,530875.2000000179,7129,WL,C,9.0
3,18.66000008583069,learn,41339.99991416931,Fri Apr 18 2025 15:08:39 GMT-0500 (Central Daylight Time),532008.2000000179,A,boyenter,O,enter,281,1,1133.0,530875.2000000179,7129,WL,C,9.0
3,30.292999982833862,learn,29707.000017166138,Fri Apr 18 2025 15:08:39 GMT-0500 (Central Daylight Time),543640.7000000179,A,c,O,c,11627,1,11632.300000011921,532008.400000006,7129,WL,C,10.0
3,30.439000129699707,learn,29560.999870300293,Fri Apr 18 2025 15:08:39 GMT-0500 (Central Daylight Time),543787.400000006,A,ca,O,a,132,1,11779.0,532008.400000006,7129,WL,C,10.0
3,30.539999961853027,learn,29460.000038146973,Fri Apr 18 2025 15:08:39 GMT-0500 (Central Daylight Time),543887.5,A,cam,O,m,80,1,11879.09999999404,532008.400000006,7129,WL,C,10.0
3,30.740000009536743,learn,29259.999990463257,Fri Apr 18 2025 15:08:39 GMT-0500 (Central Daylight Time),544087.6000000238,A,camp,O,p,189,1,12079.200000017881,532008.400000006,7129,WL,C,10.0
3,31.055000066757202,learn,28944.999933242798,Fri Apr 18 2025 15:08:39 GMT-0500 (Central Daylight Time),544403.1000000238,A,campenter,O,enter,310,1,12394.700000017881,532008.400000006,7129,WL,C,10.0
3,36.587000131607056,learn,23412.999868392944,Fri Apr 18 2025 15:08:39 GMT-0500 (Central Daylight Time),549935.1000000238,A,w,O,w,5522,1,5531.700000017881,544403.400000006,7129,WL,C,11.0
3,36.72200012207031,learn,23277.999877929688,Fri Apr 18 2025 15:08:39 GMT-0500 (Central Daylight Time),550069.7000000179,A,wh,O,h,109,1,5666.300000011921,544403.400000006,7129,WL,C,11.0
3,36.78699994087219,learn,23213.000059127808,Fri Apr 18 2025 15:08:39 GMT-0500 (Central Daylight Time),550135.0,A,whe,O,e,49,1,5731.5999999940395,544403.400000006,7129,WL,C,11.0
3,36.956000089645386,learn,23043.999910354614,Fri Apr 18 2025 15:08:39 GMT-0500 (Central Daylight Time),550303.6000000238,A,whea,O,a,150,1,5900.200000017881,544403.400000006,7129,WL,C,11.0
3,37.0699999332428,learn,22930.000066757202,Fri Apr 18 2025 15:08:39 GMT-0500 (Central Daylight Time),550418.400000006,A,wheat,O,t,106,1,6015.0,544403.400000006,7129,WL,C,11.0
3,37.30400013923645,learn,22695.99986076355,Fri Apr 18 2025 15:08:39 GMT-0500 (Central Daylight Time),550652.3000000119,A,wheatenter,O,enter,218,1,6248.9000000059605,544403.400000006,7129,WL,C,11.0
3,39.53699994087219,learn,20463.000059127808,Fri Apr 18 2025 15:08:39 GMT-0500 (Central Daylight Time),552884.7000000179,A,s,O,s,2211,1,2232.0999999940395,550652.6000000238,7129,WL,C,12.0
3,39.65300011634827,learn,20346.999883651733,Fri Apr 18 2025 15:08:39 GMT-0500 (Central Daylight Time),553001.2000000179,A,su,O,u,104,1,2348.5999999940395,550652.6000000238,7129,WL,C,12.0
3,39.78699994087219,learn,20213.000059127808,Fri Apr 18 2025 15:08:39 GMT-0500 (Central Daylight Time),553135.3000000119,A,sug,O,g,116,1,2482.699999988079,550652.6000000238,7129,WL,C,12.0
3,40.019999980926514,learn,19980.000019073486,Fri Apr 18 2025 15:08:39 GMT-0500 (Central Daylight Time),553367.5,A,suga,O,a,222,1,2714.899999976158,550652.6000000238,7129,WL,C,12.0
3,40.170000076293945,learn,19829.999923706055,Fri Apr 18 2025 15:08:39 GMT-0500 (Central Daylight Time),553517.8000000119,A,sugar,O,r,134,1,2865.199999988079,550652.6000000238,7129,WL,C,12.0
3,40.4520001411438,learn,19547.9998588562,Fri Apr 18 2025 15:08:39 GMT-0500 (Central Daylight Time),553800.2000000179,A,sugarenter,O,enter,271,1,3147.5999999940395,550652.6000000238,7129,WL,C,12.0
3,60.015000104904175,learn,-15.000104904174805,Fri Apr 18 2025 15:08:39 GMT-0500 (Central Daylight Time),573363.0,A,None,O,None,19558,1,19562.5,553800.5,7129,WL,C,13.0
4,0.7019999027252197,learn,59298.00009727478,Fri Apr 18 2025 15:08:39 GMT-0500 (Central Daylight Time),641440.1000000238,A,c,O,c,684,1,701.3000000119209,640738.8000000119,7129,WL,C,1.0
4,0.8020000457763672,learn,59197.99995422363,Fri Apr 18 2025 15:08:39 GMT-0500 (Central Daylight Time),641540.3000000119,A,ca,O,a,94,1,801.5,640738.8000000119,7129,WL,C,1.0
4,0.9529998302459717,learn,59047.00016975403,Fri Apr 18 2025 15:08:39 GMT-0500 (Central Daylight Time),641690.8000000119,A,cam,O,m,136,1,952.0,640738.8000000119,7129,WL,C,1.0
4,1.2189998626708984,learn,58781.0001373291,Fri Apr 18 2025 15:08:39 GMT-0500 (Central Daylight Time),641957.5,A,camp,O,p,250,1,1218.699999988079,640738.8000000119,7129,WL,C,1.0
4,1.503999948501587,learn,58496.00005149841,Fri Apr 18 2025 15:08:39 GMT-0500 (Central Daylight Time),642241.7000000179,A,campenter,O,enter,277,1,1502.9000000059605,640738.8000000119,7129,WL,C,1.0
4,1.9849998950958252,learn,58015.000104904175,Fri Apr 18 2025 15:08:39 GMT-0500 (Central Daylight Time),642722.7000000179,A,c,O,c,466,1,480.7000000178814,642242.0,7129,WL,C,2.0
4,2.118000030517578,learn,57881.99996948242,Fri Apr 18 2025 15:08:39 GMT-0500 (Central Daylight Time),642856.3000000119,A,co,O,o,120,1,614.3000000119209,642242.0,7129,WL,C,2.0
4,2.234999895095825,learn,57765.000104904175,Fri Apr 18 2025 15:08:39 GMT-0500 (Central Daylight Time),642972.8000000119,A,cor,O,r,102,1,730.8000000119209,642242.0,7129,WL,C,2.0
4,2.4509999752044678,learn,57549.00002479553,Fri Apr 18 2025 15:08:39 GMT-0500 (Central Daylight Time),643189.6000000238,A,corn,O,n,193,1,947.6000000238419,642242.0,7129,WL,C,2.0
4,2.8499999046325684,learn,57150.00009536743,Fri Apr 18 2025 15:08:39 GMT-0500 (Central Daylight Time),643588.2000000179,A,cornenter,O,enter,378,1,1346.2000000178814,642242.0,7129,WL,C,2.0
4,3.25,learn,56750.0,Fri Apr 18 2025 15:08:39 GMT-0500 (Central Daylight Time),643988.1000000238,A,l,O,l,384,1,399.60000002384186,643588.5,7129,WL,C,3.0
4,3.369999885559082,learn,56630.00011444092,Fri Apr 18 2025 15:08:39 GMT-0500 (Central Daylight Time),644108.7000000179,A,le,O,e,114,1,520.2000000178814,643588.5,7129,WL,C,3.0
4,3.567999839782715,learn,56432.000160217285,Fri Apr 18 2025 15:08:39 GMT-0500 (Central Daylight Time),644306.0,A,let,O,t,182,1,717.5,643588.5,7129,WL,C,3.0
4,3.7339999675750732,learn,56266.00003242493,Fri Apr 18 2025 15:08:39 GMT-0500 (Central Daylight Time),644471.8000000119,A,lett,O,t,154,1,883.3000000119209,643588.5,7129,WL,C,3.0
4,3.9189999103546143,learn,56081.000089645386,Fri Apr 18 2025 15:08:39 GMT-0500 (Central Daylight Time),644656.7000000179,A,lette,O,e,173,1,1068.2000000178814,643588.5,7129,WL,C,3.0
4,4.016999959945679,learn,55983.00004005432,Fri Apr 18 2025 15:08:39 GMT-0500 (Central Daylight Time),644755.3000000119,A,letter,O,r,91,1,1166.800000011921,643588.5,7129,WL,C,3.0
4,4.816999912261963,learn,55183.00008773804,Fri Apr 18 2025 15:08:39 GMT-0500 (Central Daylight Time),645554.900000006,A,letterenter,O,enter,792,1,1966.4000000059605,643588.5,7129,WL,C,3.0
4,5.184000015258789,learn,54815.99998474121,Fri Apr 18 2025 15:08:39 GMT-0500 (Central Daylight Time),645921.8000000119,A,m,O,m,346,1,366.69999998807907,645555.1000000238,7129,WL,C,4.0
4,5.300999879837036,learn,54699.000120162964,Fri Apr 18 2025 15:08:39 GMT-0500 (Central Daylight Time),646039.0,A,ma,O,a,96,1,483.89999997615814,645555.1000000238,7129,WL,C,4.0
4,5.483000040054321,learn,54516.99995994568,Fri Apr 18 2025 15:08:39 GMT-0500 (Central Daylight Time),646221.6000000238,A,mai,O,i,175,1,666.5,645555.1000000238,7129,WL,C,4.0
4,5.700000047683716,learn,54299.999952316284,Fri Apr 18 2025 15:08:39 GMT-0500 (Central Daylight Time),646437.7000000179,A,mail,O,l,200,1,882.5999999940395,645555.1000000238,7129,WL,C,4.0
4,6.365999937057495,learn,53634.000062942505,Fri Apr 18 2025 15:08:39 GMT-0500 (Central Daylight Time),647104.1000000238,A,mailenter,O,enter,645,1,1549.0,645555.1000000238,7129,WL,C,4.0
4,6.682999849319458,learn,53317.00015068054,Fri Apr 18 2025 15:08:39 GMT-0500 (Central Daylight Time),647421.1000000238,A,s,O,s,309,1,316.7000000178814,647104.400000006,7129,WL,C,5.0
4,6.833999872207642,learn,53166.00012779236,Fri Apr 18 2025 15:08:39 GMT-0500 (Central Daylight Time),647571.8000000119,A,sh,O,h,133,1,467.40000000596046,647104.400000006,7129,WL,C,5.0
4,6.9670000076293945,learn,53032.999992370605,Fri Apr 18 2025 15:08:39 GMT-0500 (Central Daylight Time),647705.5,A,sho,O,o,110,1,601.0999999940395,647104.400000006,7129,WL,C,5.0
4,7.099999904632568,learn,52900.00009536743,Fri Apr 18 2025 15:08:39 GMT-0500 (Central Daylight Time),647838.1000000238,A,shor,O,r,122,1,733.7000000178814,647104.400000006,7129,WL,C,5.0
4,7.266000032424927,learn,52733.99996757507,Fri Apr 18 2025 15:08:39 GMT-0500 (Central Daylight Time),648004.400000006,A,shore,O,e,149,1,900.0,647104.400000006,7129,WL,C,5.0
4,9.233000040054321,learn,50766.99995994568,Fri Apr 18 2025 15:08:39 GMT-0500 (Central Daylight Time),649971.2000000179,A,shoreenter,O,enter,1960,1,2866.800000011921,647104.400000006,7129,WL,C,5.0
4,11.883999824523926,learn,48116.000175476074,Fri Apr 18 2025 15:08:39 GMT-0500 (Central Daylight Time),652622.7000000179,A,c,O,c,2646,1,2651.2000000178814,649971.5,7129,WL,C,6.0
4,12.032999992370605,learn,47967.000007629395,Fri Apr 18 2025 15:08:39 GMT-0500 (Central Daylight Time),652771.6000000238,A,ca,O,a,141,1,2800.100000023842,649971.5,7129,WL,C,6.0
4,12.148000001907349,learn,47851.99999809265,Fri Apr 18 2025 15:08:39 GMT-0500 (Central Daylight Time),652886.2000000179,A,cat,O,t,96,1,2914.7000000178814,649971.5,7129,WL,C,6.0
4,12.297999858856201,learn,47702.0001411438,Fri Apr 18 2025 15:08:39 GMT-0500 (Central Daylight Time),653036.1000000238,A,catt,O,t,139,1,3064.600000023842,649971.5,7129,WL,C,6.0
4,12.450999975204468,learn,47549.00002479553,Fri Apr 18 2025 15:08:39 GMT-0500 (Central Daylight Time),653189.0,A,cattl,O,l,146,1,3217.5,649971.5,7129,WL,C,6.0
4,12.629999876022339,learn,47370.00012397766,Fri Apr 18 2025 15:08:39 GMT-0500 (Central Daylight Time),653368.8000000119,A,cattle,O,e,167,1,3397.300000011921,649971.5,7129,WL,C,6.0
4,12.997999906539917,learn,47002.00009346008,Fri Apr 18 2025 15:08:39 GMT-0500 (Central Daylight Time),653736.6000000238,A,cattleenter,O,enter,357,1,3765.100000023842,649971.5,7129,WL,C,6.0
4,13.330999851226807,learn,46669.00014877319,Fri Apr 18 2025 15:08:39 GMT-0500 (Central Daylight Time),654069.400000006,A,w,O,w,315,1,332.5,653736.900000006,7129,WL,C,7.0
4,13.497999906539917,learn,46502.00009346008,Fri Apr 18 2025 15:08:39 GMT-0500 (Central Daylight Time),654236.1000000238,A,wh,O,h,148,1,499.2000000178814,653736.900000006,7129,WL,C,7.0
4,13.598999977111816,learn,46401.00002288818,Fri Apr 18 2025 15:08:39 GMT-0500 (Central Daylight Time),654337.2000000179,A,whe,O,e,79,1,600.3000000119209,653736.900000006,7129,WL,C,7.0
4,13.747999906539917,learn,46252.00009346008,Fri Apr 18 2025 15:08:39 GMT-0500 (Central Daylight Time),654486.0,A,whea,O,a,132,1,749.0999999940395,653736.900000006,7129,WL,C,7.0
4,13.863999843597412,learn,46136.00015640259,Fri Apr 18 2025 15:08:39 GMT-0500 (Central Daylight Time),654602.6000000238,A,wheat,O,t,110,1,865.7000000178814,653736.900000006,7129,WL,C,7.0
4,14.212999820709229,learn,45787.00017929077,Fri Apr 18 2025 15:08:39 GMT-0500 (Central Daylight Time),654951.400000006,A,wheatenter,O,enter,336,1,1214.5,653736.900000006,7129,WL,C,7.0
4,14.54699993133545,learn,45453.00006866455,Fri Apr 18 2025 15:08:39 GMT-0500 (Central Daylight Time),655285.7000000179,A,s,O,s,316,1,333.90000000596046,654951.8000000119,7129,WL,C,8.0
4,14.69700002670288,learn,45302.99997329712,Fri Apr 18 2025 15:08:39 GMT-0500 (Central Daylight Time),655435.7000000179,A,su,O,u,135,1,483.90000000596046,654951.8000000119,7129,WL,C,8.0
4,14.86299991607666,learn,45137.00008392334,Fri Apr 18 2025 15:08:39 GMT-0500 (Central Daylight Time),655601.5,A,sug,O,g,152,1,649.6999999880791,654951.8000000119,7129,WL,C,8.0
4,15.04699993133545,learn,44953.00006866455,Fri Apr 18 2025 15:08:39 GMT-0500 (Central Daylight Time),655785.3000000119,A,suga,O,a,171,1,833.5,654951.8000000119,7129,WL,C,8.0
4,15.131999969482422,learn,44868.00003051758,Fri Apr 18 2025 15:08:39 GMT-0500 (Central Daylight Time),655869.8000000119,A,sugar,O,r,67,1,918.0,654951.8000000119,7129,WL,C,8.0
4,15.464999914169312,learn,44535.00008583069,Fri Apr 18 2025 15:08:39 GMT-0500 (Central Daylight Time),656202.8000000119,A,sugarenter,O,enter,326,1,1251.0,654951.8000000119,7129,WL,C,8.0
4,15.81499981880188,learn,44185.00018119812,Fri Apr 18 2025 15:08:39 GMT-0500 (Central Daylight Time),656553.5,A,d,O,d,338,1,350.39999997615814,656203.1000000238,7129,WL,C,9.0
4,15.980999946594238,learn,44019.00005340576,Fri Apr 18 2025 15:08:39 GMT-0500 (Central Daylight Time),656718.900000006,A,do,O,o,154,1,515.7999999821186,656203.1000000238,7129,WL,C,9.0
4,16.128999948501587,learn,43871.00005149841,Fri Apr 18 2025 15:08:39 GMT-0500 (Central Daylight Time),656867.6000000238,A,doc,O,c,129,1,664.5,656203.1000000238,7129,WL,C,9.0
4,16.378999948501587,learn,43621.00005149841,Fri Apr 18 2025 15:08:39 GMT-0500 (Central Daylight Time),657117.5,A,doct,O,t,230,1,914.3999999761581,656203.1000000238,7129,WL,C,9.0
4,16.563999891281128,learn,43436.00010871887,Fri Apr 18 2025 15:08:39 GMT-0500 (Central Daylight Time),657302.2000000179,A,docto,O,o,165,1,1099.0999999940395,656203.1000000238,7129,WL,C,9.0
4,17.030999898910522,learn,42969.00010108948,Fri Apr 18 2025 15:08:39 GMT-0500 (Central Daylight Time),657769.7000000179,A,doctor,O,r,460,1,1566.5999999940395,656203.1000000238,7129,WL,C,9.0
4,17.527999877929688,learn,42472.00012207031,Fri Apr 18 2025 15:08:39 GMT-0500 (Central Daylight Time),658266.0,A,doctorenter,O,enter,482,1,2062.899999976158,656203.1000000238,7129,WL,C,9.0
4,17.894999980926514,learn,42105.000019073486,Fri Apr 18 2025 15:08:39 GMT-0500 (Central Daylight Time),658633.2000000179,A,h,O,h,346,1,366.90000000596046,658266.3000000119,7129,WL,C,10.0
4,18.02900004386902,learn,41970.99995613098,Fri Apr 18 2025 15:08:39 GMT-0500 (Central Daylight Time),658767.5,A,ho,O,o,123,1,501.19999998807907,658266.3000000119,7129,WL,C,10.0
4,18.244999885559082,learn,41755.00011444092,Fri Apr 18 2025 15:08:39 GMT-0500 (Central Daylight Time),658983.400000006,A,hom,O,m,205,1,717.0999999940395,658266.3000000119,7129,WL,C,10.0
4,18.38100004196167,learn,41618.99995803833,Fri Apr 18 2025 15:08:39 GMT-0500 (Central Daylight Time),659119.1000000238,A,home,O,e,115,1,852.8000000119209,658266.3000000119,7129,WL,C,10.0
4,18.59500002861023,learn,41404.99997138977,Fri Apr 18 2025 15:08:39 GMT-0500 (Central Daylight Time),659332.8000000119,A,homeenter,O,enter,198,1,1066.5,658266.3000000119,7129,WL,C,10.0
4,18.961999893188477,learn,41038.00010681152,Fri Apr 18 2025 15:08:39 GMT-0500 (Central Daylight Time),659700.3000000119,A,b,O,b,353,1,367.19999998807907,659333.1000000238,7129,WL,C,11.0
4,19.079999923706055,learn,40920.000076293945,Fri Apr 18 2025 15:08:39 GMT-0500 (Central Daylight Time),659818.400000006,A,bo,O,o,111,1,485.2999999821186,659333.1000000238,7129,WL,C,11.0
4,19.294999837875366,learn,40705.000162124634,Fri Apr 18 2025 15:08:39 GMT-0500 (Central Daylight Time),660033.8000000119,A,boy,O,y,193,1,700.6999999880791,659333.1000000238,7129,WL,C,11.0
4,19.562000036239624,learn,40437.999963760376,Fri Apr 18 2025 15:08:39 GMT-0500 (Central Daylight Time),660299.900000006,A,boyenter,O,enter,260,1,966.7999999821186,659333.1000000238,7129,WL,C,11.0
4,23.243000030517578,learn,36756.99996948242,Fri Apr 18 2025 15:08:39 GMT-0500 (Central Daylight Time),663981.8000000119,A,n,O,n,3674,1,3681.5999999940395,660300.2000000179,7129,WL,C,12.0
4,23.360999822616577,learn,36639.00017738342,Fri Apr 18 2025 15:08:39 GMT-0500 (Central Daylight Time),664099.6000000238,A,na,O,a,102,1,3799.4000000059605,660300.2000000179,7129,WL,C,12.0
4,23.57699990272522,learn,36423.00009727478,Fri Apr 18 2025 15:08:39 GMT-0500 (Central Daylight Time),664315.3000000119,A,nai,O,i,200,1,4015.0999999940395,660300.2000000179,7129,WL,C,12.0
4,23.793999910354614,learn,36206.000089645386,Fri Apr 18 2025 15:08:39 GMT-0500 (Central Daylight Time),664532.400000006,A,nail,O,l,200,1,4232.199999988079,660300.2000000179,7129,WL,C,12.0
4,24.110999822616577,learn,35889.00017738342,Fri Apr 18 2025 15:08:39 GMT-0500 (Central Daylight Time),664849.6000000238,A,nailenter,O,enter,303,1,4549.4000000059605,660300.2000000179,7129,WL,C,12.0
4,33.40899991989136,learn,26591.000080108643,Fri Apr 18 2025 15:08:39 GMT-0500 (Central Daylight Time),674147.2000000179,A,w,O,w,9284,1,9297.40000000596,664849.8000000119,7129,WL,C,13.0
4,33.50699996948242,learn,26493.000030517578,Fri Apr 18 2025 15:08:39 GMT-0500 (Central Daylight Time),674245.6000000238,A,wh,O,h,79,1,9395.800000011921,664849.8000000119,7129,WL,C,13.0
4,33.62299990653992,learn,26377.000093460083,Fri Apr 18 2025 15:08:39 GMT-0500 (Central Daylight Time),674361.5,A,whe,O,e,101,1,9511.699999988079,664849.8000000119,7129,WL,C,13.0
4,33.7739999294281,learn,26226.0000705719,Fri Apr 18 2025 15:08:39 GMT-0500 (Central Daylight Time),674512.5,A,whea,O,a,139,1,9662.699999988079,664849.8000000119,7129,WL,C,13.0
4,33.90899991989136,learn,26091.000080108643,Fri Apr 18 2025 15:08:39 GMT-0500 (Central Daylight Time),674647.6000000238,A,wheat,O,t,115,1,9797.800000011921,664849.8000000119,7129,WL,C,13.0
4,34.19099998474121,learn,25809.00001525879,Fri Apr 18 2025 15:08:39 GMT-0500 (Central Daylight Time),674929.7000000179,A,wheatenter,O,enter,268,1,10079.90000000596,664849.8000000119,7129,WL,C,13.0
4,39.00600004196167,learn,20993.99995803833,Fri Apr 18 2025 15:08:39 GMT-0500 (Central Daylight Time),679744.6000000238,A,s,O,s,4803,1,4814.600000023842,674930.0,7129,WL,C,14.0
4,39.138999938964844,learn,20861.000061035156,Fri Apr 18 2025 15:08:39 GMT-0500 (Central Daylight Time),679877.2000000179,A,sh,O,h,128,1,4947.200000017881,674930.0,7129,WL,C,14.0
4,39.27300000190735,learn,20726.99999809265,Fri Apr 18 2025 15:08:39 GMT-0500 (Central Daylight Time),680011.0,A,sho,O,o,128,1,5081.0,674930.0,7129,WL,C,14.0
4,39.388999938964844,learn,20611.000061035156,Fri Apr 18 2025 15:08:39 GMT-0500 (Central Daylight Time),680127.0,A,shor,O,r,95,1,5197.0,674930.0,7129,WL,C,14.0
4,39.49000000953674,learn,20509.999990463257,Fri Apr 18 2025 15:08:39 GMT-0500 (Central Daylight Time),680228.1000000238,A,shore,O,e,85,1,5298.100000023842,674930.0,7129,WL,C,14.0
4,39.66799998283386,learn,20332.000017166138,Fri Apr 18 2025 15:08:39 GMT-0500 (Central Daylight Time),680406.5,A,shoreenter,O,enter,172,1,5476.5,674930.0,7129,WL,C,14.0
4,60.01699995994568,learn,-16.99995994567871,Fri Apr 18 2025 15:08:39 GMT-0500 (Central Daylight Time),700755.400000006,A,None,O,None,20345,1,20348.59999999404,680406.8000000119,7129,WL,C,15.0
5,0.6000001430511475,learn,60000.0,Fri Apr 18 2025 15:08:39 GMT-0500 (Central Daylight Time),775380.8000000119,A,b,O,b,592,1,599.6999999880791,774781.1000000238,7129,WL,C,1.0
5,0.7680001258850098,learn,60000.0,Fri Apr 18 2025 15:08:39 GMT-0500 (Central Daylight Time),775548.7000000179,A,bo,O,o,158,1,767.5999999940395,774781.1000000238,7129,WL,C,1.0
5,0.9670000076293945,learn,60000.0,Fri Apr 18 2025 15:08:39 GMT-0500 (Central Daylight Time),775747.5,A,bod,O,d,182,1,966.3999999761581,774781.1000000238,7129,WL,C,1.0
5,1.1500000953674316,learn,60000.0,Fri Apr 18 2025 15:08:39 GMT-0500 (Central Daylight Time),775930.8000000119,A,body,O,y,160,1,1149.699999988079,774781.1000000238,7129,WL,C,1.0
5,1.4320001602172852,learn,60000.0,Fri Apr 18 2025 15:08:39 GMT-0500 (Central Daylight Time),776212.5,A,bodyenter,O,enter,271,1,1431.3999999761581,774781.1000000238,7129,WL,C,1.0
5,1.7990000247955322,learn,60000.0,Fri Apr 18 2025 15:08:39 GMT-0500 (Central Daylight Time),776580.2000000179,A,c,O,c,352,1,367.40000000596046,776212.8000000119,7129,WL,C,2.0
5,1.9500000476837158,learn,60000.0,Fri Apr 18 2025 15:08:39 GMT-0500 (Central Daylight Time),776730.900000006,A,ca,O,a,129,1,518.0999999940395,776212.8000000119,7129,WL,C,2.0
5,2.116000175476074,learn,60000.0,Fri Apr 18 2025 15:08:39 GMT-0500 (Central Daylight Time),776896.3000000119,A,cam,O,m,148,1,683.5,776212.8000000119,7129,WL,C,2.0
5,2.365000009536743,learn,60000.0,Fri Apr 18 2025 15:08:39 GMT-0500 (Central Daylight Time),777146.0,A,camp,O,p,235,1,933.1999999880791,776212.8000000119,7129,WL,C,2.0
5,2.882000207901001,learn,60000.0,Fri Apr 18 2025 15:08:39 GMT-0500 (Central Daylight Time),777662.400000006,A,campenter,O,enter,495,1,1449.5999999940395,776212.8000000119,7129,WL,C,2.0
5,3.2990000247955322,learn,60000.0,Fri Apr 18 2025 15:08:39 GMT-0500 (Central Daylight Time),778080.0,A,s,O,s,399,1,417.2999999821186,777662.7000000179,7129,WL,C,3.0
5,3.433000087738037,learn,60000.0,Fri Apr 18 2025 15:08:39 GMT-0500 (Central Daylight Time),778213.900000006,A,sh,O,h,126,1,551.1999999880791,777662.7000000179,7129,WL,C,3.0
5,3.565000057220459,learn,60000.0,Fri Apr 18 2025 15:08:39 GMT-0500 (Central Daylight Time),778345.900000006,A,sho,O,o,118,1,683.1999999880791,777662.7000000179,7129,WL,C,3.0
5,3.7150001525878906,learn,60000.0,Fri Apr 18 2025 15:08:39 GMT-0500 (Central Daylight Time),778495.8000000119,A,shor,O,r,129,1,833.0999999940395,777662.7000000179,7129,WL,C,3.0
5,3.8010001182556152,learn,60000.0,Fri Apr 18 2025 15:08:39 GMT-0500 (Central Daylight Time),778581.8000000119,A,shore,O,e,79,1,919.0999999940395,777662.7000000179,7129,WL,C,3.0
5,4.299000024795532,learn,60000.0,Fri Apr 18 2025 15:08:39 GMT-0500 (Central Daylight Time),779079.900000006,A,shoreenter,O,enter,477,1,1417.199999988079,777662.7000000179,7129,WL,C,3.0
5,4.582000017166138,learn,60000.0,Fri Apr 18 2025 15:08:39 GMT-0500 (Central Daylight Time),779363.1000000238,A,l,O,l,269,1,282.90000000596046,779080.2000000179,7129,WL,C,4.0
5,4.700000047683716,learn,60000.0,Fri Apr 18 2025 15:08:39 GMT-0500 (Central Daylight Time),779480.5,A,le,O,e,96,1,400.2999999821186,779080.2000000179,7129,WL,C,4.0
5,4.851000070571899,learn,60000.0,Fri Apr 18 2025 15:08:39 GMT-0500 (Central Daylight Time),779631.400000006,A,let,O,t,125,1,551.1999999880791,779080.2000000179,7129,WL,C,4.0
5,4.999000072479248,learn,60000.0,Fri Apr 18 2025 15:08:39 GMT-0500 (Central Daylight Time),779780.0,A,lett,O,t,130,1,699.7999999821186,779080.2000000179,7129,WL,C,4.0
5,5.166000127792358,learn,60000.0,Fri Apr 18 2025 15:08:39 GMT-0500 (Central Daylight Time),779946.900000006,A,lette,O,e,160,1,866.6999999880791,779080.2000000179,7129,WL,C,4.0
5,5.213000059127808,learn,60000.0,Fri Apr 18 2025 15:08:39 GMT-0500 (Central Daylight Time),779994.1000000238,A,letter,O,r,40,1,913.9000000059605,779080.2000000179,7129,WL,C,4.0
5,5.7820000648498535,learn,60000.0,Fri Apr 18 2025 15:08:39 GMT-0500 (Central Daylight Time),780562.5,A,letterenter,O,enter,556,1,1482.2999999821186,779080.2000000179,7129,WL,C,4.0
5,7.281000137329102,learn,60000.0,Fri Apr 18 2025 15:08:39 GMT-0500 (Central Daylight Time),782061.7000000179,A,s,O,s,1482,1,1499.0,780562.7000000179,7129,WL,C,5.0
5,7.4150002002716064,learn,60000.0,Fri Apr 18 2025 15:08:39 GMT-0500 (Central Daylight Time),782195.3000000119,A,su,O,u,121,1,1632.5999999940395,780562.7000000179,7129,WL,C,5.0
5,7.513000011444092,learn,60000.0,Fri Apr 18 2025 15:08:39 GMT-0500 (Central Daylight Time),782293.8000000119,A,sug,O,g,80,1,1731.0999999940395,780562.7000000179,7129,WL,C,5.0
5,7.615000009536743,learn,60000.0,Fri Apr 18 2025 15:08:39 GMT-0500 (Central Daylight Time),782395.8000000119,A,suga,O,a,94,1,1833.0999999940395,780562.7000000179,7129,WL,C,5.0
5,7.748000144958496,learn,60000.0,Fri Apr 18 2025 15:08:39 GMT-0500 (Central Daylight Time),782528.8000000119,A,sugar,O,r,109,1,1966.0999999940395,780562.7000000179,7129,WL,C,5.0
5,8.130000114440918,learn,60000.0,Fri Apr 18 2025 15:08:39 GMT-0500 (Central Daylight Time),782910.7000000179,A,sugarenter,O,enter,363,1,2348.0,780562.7000000179,7129,WL,C,5.0
5,8.448000192642212,learn,60000.0,Fri Apr 18 2025 15:08:39 GMT-0500 (Central Daylight Time),783228.900000006,A,w,O,w,302,1,317.7999999821186,782911.1000000238,7129,WL,C,6.0
5,8.582000017166138,learn,60000.0,Fri Apr 18 2025 15:08:39 GMT-0500 (Central Daylight Time),783363.0,A,wh,O,h,126,1,451.89999997615814,782911.1000000238,7129,WL,C,6.0
5,8.646000146865845,learn,60000.0,Fri Apr 18 2025 15:08:39 GMT-0500 (Central Daylight Time),783427.0,A,whe,O,e,56,1,515.8999999761581,782911.1000000238,7129,WL,C,6.0
5,8.797000169754028,learn,60000.0,Fri Apr 18 2025 15:08:39 GMT-0500 (Central Daylight Time),783577.5,A,whea,O,a,137,1,666.3999999761581,782911.1000000238,7129,WL,C,6.0
5,8.897000074386597,learn,60000.0,Fri Apr 18 2025 15:08:39 GMT-0500 (Central Daylight Time),783677.5,A,wheat,O,t,90,1,766.3999999761581,782911.1000000238,7129,WL,C,6.0
5,9.747000217437744,learn,60000.0,Fri Apr 18 2025 15:08:39 GMT-0500 (Central Daylight Time),784528.0,A,wheatenter,O,enter,838,1,1616.8999999761581,782911.1000000238,7129,WL,C,6.0
5,10.062000036239624,learn,60000.0,Fri Apr 18 2025 15:08:39 GMT-0500 (Central Daylight Time),784842.900000006,A,d,O,d,310,1,314.69999998807907,784528.2000000179,7129,WL,C,7.0
5,10.214000225067139,learn,60000.0,Fri Apr 18 2025 15:08:39 GMT-0500 (Central Daylight Time),784994.900000006,A,do,O,o,147,1,466.69999998807907,784528.2000000179,7129,WL,C,7.0
5,10.297000169754028,learn,60000.0,Fri Apr 18 2025 15:08:39 GMT-0500 (Central Daylight Time),785077.8000000119,A,doc,O,c,76,1,549.5999999940395,784528.2000000179,7129,WL,C,7.0
5,10.514000177383423,learn,60000.0,Fri Apr 18 2025 15:08:39 GMT-0500 (Central Daylight Time),785294.900000006,A,doct,O,t,207,1,766.6999999880791,784528.2000000179,7129,WL,C,7.0
5,10.64900016784668,learn,60000.0,Fri Apr 18 2025 15:08:39 GMT-0500 (Central Daylight Time),785429.400000006,A,docto,O,o,126,1,901.1999999880791,784528.2000000179,7129,WL,C,7.0
5,10.781000137329102,learn,60000.0,Fri Apr 18 2025 15:08:39 GMT-0500 (Central Daylight Time),785561.3000000119,A,doctor,O,r,110,1,1033.0999999940395,784528.2000000179,7129,WL,C,7.0
5,11.196000099182129,learn,60000.0,Fri Apr 18 2025 15:08:39 GMT-0500 (Central Daylight Time),785977.1000000238,A,doctorenter,O,enter,394,1,1448.9000000059605,784528.2000000179,7129,WL,C,7.0
5,13.163000106811523,learn,60000.0,Fri Apr 18 2025 15:08:39 GMT-0500 (Central Daylight Time),787944.0,A,c,O,c,1948,1,1966.699999988079,785977.3000000119,7129,WL,C,8.0
5,13.28000020980835,learn,60000.0,Fri Apr 18 2025 15:08:39 GMT-0500 (Central Daylight Time),788061.0,A,co,O,o,109,1,2083.699999988079,785977.3000000119,7129,WL,C,8.0
5,13.396000146865845,learn,60000.0,Fri Apr 18 2025 15:08:39 GMT-0500 (Central Daylight Time),788176.7000000179,A,cor,O,r,93,1,2199.4000000059605,785977.3000000119,7129,WL,C,8.0
5,13.59600019454956,learn,60000.0,Fri Apr 18 2025 15:08:39 GMT-0500 (Central Daylight Time),788376.400000006,A,corn,O,n,188,1,2399.0999999940395,785977.3000000119,7129,WL,C,8.0
5,14.245000123977661,learn,60000.0,Fri Apr 18 2025 15:08:39 GMT-0500 (Central Daylight Time),789025.6000000238,A,cornenter,O,enter,636,1,3048.300000011921,785977.3000000119,7129,WL,C,8.0
5,16.26200008392334,learn,60000.0,Fri Apr 18 2025 15:08:39 GMT-0500 (Central Daylight Time),791042.900000006,A,c,O,c,2011,1,2017.0,789025.900000006,7129,WL,C,9.0
5,16.395000219345093,learn,60000.0,Fri Apr 18 2025 15:08:39 GMT-0500 (Central Daylight Time),791175.3000000119,A,ca,O,a,121,1,2149.4000000059605,789025.900000006,7129,WL,C,9.0
5,16.511000156402588,learn,60000.0,Fri Apr 18 2025 15:08:39 GMT-0500 (Central Daylight Time),791292.1000000238,A,cat,O,t,109,1,2266.2000000178814,789025.900000006,7129,WL,C,9.0
5,16.66200017929077,learn,60000.0,Fri Apr 18 2025 15:08:39 GMT-0500 (Central Daylight Time),791443.0,A,catt,O,t,144,1,2417.0999999940395,789025.900000006,7129,WL,C,9.0
5,16.862000226974487,learn,60000.0,Fri Apr 18 2025 15:08:39 GMT-0500 (Central Daylight Time),791642.5,A,cattl,O,l,176,1,2616.5999999940395,789025.900000006,7129,WL,C,9.0
5,17.028000116348267,learn,60000.0,Fri Apr 18 2025 15:08:39 GMT-0500 (Central Daylight Time),791808.6000000238,A,cattle,O,e,145,1,2782.7000000178814,789025.900000006,7129,WL,C,9.0
5,17.49400019645691,learn,60000.0,Fri Apr 18 2025 15:08:39 GMT-0500 (Central Daylight Time),792274.6000000238,A,cattleenter,O,enter,443,1,3248.7000000178814,789025.900000006,7129,WL,C,9.0
5,18.877000093460083,learn,60000.0,Fri Apr 18 2025 15:08:39 GMT-0500 (Central Daylight Time),793658.1000000238,A,n,O,n,1370,1,1383.2000000178814,792274.900000006,7129,WL,C,10.0
5,18.97699999809265,learn,60000.0,Fri Apr 18 2025 15:08:39 GMT-0500 (Central Daylight Time),793758.0,A,na,O,a,90,1,1483.0999999940395,792274.900000006,7129,WL,C,10.0
5,19.127000093460083,learn,60000.0,Fri Apr 18 2025 15:08:39 GMT-0500 (Central Daylight Time),793907.6000000238,A,nai,O,i,133,1,1632.7000000178814,792274.900000006,7129,WL,C,10.0
5,19.294000148773193,learn,60000.0,Fri Apr 18 2025 15:08:39 GMT-0500 (Central Daylight Time),794075.0,A,nail,O,l,151,1,1800.0999999940395,792274.900000006,7129,WL,C,10.0
5,19.6780002117157,learn,60000.0,Fri Apr 18 2025 15:08:39 GMT-0500 (Central Daylight Time),794459.1000000238,A,nailenter,O,enter,379,1,2184.2000000178814,792274.900000006,7129,WL,C,10.0
5,20.044000148773193,learn,60000.0,Fri Apr 18 2025 15:08:39 GMT-0500 (Central Daylight Time),794824.5,A,b,O,b,354,1,365.19999998807907,794459.3000000119,7129,WL,C,11.0
5,20.14400005340576,learn,60000.0,Fri Apr 18 2025 15:08:39 GMT-0500 (Central Daylight Time),794924.400000006,A,bo,O,o,84,1,465.09999999403954,794459.3000000119,7129,WL,C,11.0
5,20.44600009918213,learn,60000.0,Fri Apr 18 2025 15:08:39 GMT-0500 (Central Daylight Time),795226.6000000238,A,bod,O,d,289,1,767.3000000119209,794459.3000000119,7129,WL,C,11.0
5,20.66000008583069,learn,60000.0,Fri Apr 18 2025 15:08:39 GMT-0500 (Central Daylight Time),795440.8000000119,A,body,O,y,191,1,981.5,794459.3000000119,7129,WL,C,11.0
5,20.927000045776367,learn,60000.0,Fri Apr 18 2025 15:08:39 GMT-0500 (Central Daylight Time),795707.8000000119,A,bodyenter,O,enter,251,1,1248.5,794459.3000000119,7129,WL,C,11.0
5,23.62600016593933,learn,60000.0,Fri Apr 18 2025 15:08:39 GMT-0500 (Central Daylight Time),798406.900000006,A,w,O,w,2689,1,2698.7999999821186,795708.1000000238,7129,WL,C,12.0
5,23.759000062942505,learn,60000.0,Fri Apr 18 2025 15:08:39 GMT-0500 (Central Daylight Time),798539.900000006,A,wh,O,h,116,1,2831.7999999821186,795708.1000000238,7129,WL,C,12.0
5,23.807000160217285,learn,60000.0,Fri Apr 18 2025 15:08:39 GMT-0500 (Central Daylight Time),798587.3000000119,A,whe,O,e,40,1,2879.199999988079,795708.1000000238,7129,WL,C,12.0
5,23.9760000705719,learn,60000.0,Fri Apr 18 2025 15:08:39 GMT-0500 (Central Daylight Time),798756.900000006,A,whea,O,a,155,1,3048.7999999821186,795708.1000000238,7129,WL,C,12.0
5,24.05900001525879,learn,60000.0,Fri Apr 18 2025 15:08:39 GMT-0500 (Central Daylight Time),798840.0,A,wheat,O,t,61,1,3131.899999976158,795708.1000000238,7129,WL,C,12.0
5,24.30900001525879,learn,60000.0,Fri Apr 18 2025 15:08:39 GMT-0500 (Central Daylight Time),799090.0,A,wheatenter,O,enter,235,1,3381.899999976158,795708.1000000238,7129,WL,C,12.0
5,25.509000062942505,learn,60000.0,Fri Apr 18 2025 15:08:39 GMT-0500 (Central Daylight Time),800289.5,A,s,O,s,1187,1,1199.199999988079,799090.3000000119,7129,WL,C,13.0
5,25.658000230789185,learn,60000.0,Fri Apr 18 2025 15:08:39 GMT-0500 (Central Daylight Time),800439.0,A,su,O,u,139,1,1348.699999988079,799090.3000000119,7129,WL,C,13.0
5,25.942000150680542,learn,60000.0,Fri Apr 18 2025 15:08:39 GMT-0500 (Central Daylight Time),800723.1000000238,A,sug,O,g,271,1,1632.800000011921,799090.3000000119,7129,WL,C,13.0
5,26.10800004005432,learn,60000.0,Fri Apr 18 2025 15:08:39 GMT-0500 (Central Daylight Time),800888.900000006,A,suga,O,a,152,1,1798.5999999940395,799090.3000000119,7129,WL,C,13.0
5,26.20900011062622,learn,60000.0,Fri Apr 18 2025 15:08:39 GMT-0500 (Central Daylight Time),800989.7000000179,A,sugar,O,r,78,1,1899.4000000059605,799090.3000000119,7129,WL,C,13.0
5,26.425000190734863,learn,60000.0,Fri Apr 18 2025 15:08:39 GMT-0500 (Central Daylight Time),801205.6000000238,A,sugarenter,O,enter,206,1,2115.300000011921,799090.3000000119,7129,WL,C,13.0
5,28.10800004005432,learn,60000.0,Fri Apr 18 2025 15:08:39 GMT-0500 (Central Daylight Time),802888.400000006,A,h,O,h,1671,1,1682.5999999940395,801205.8000000119,7129,WL,C,14.0
5,28.241000175476074,learn,60000.0,Fri Apr 18 2025 15:08:39 GMT-0500 (Central Daylight Time),803021.3000000119,A,ho,O,o,115,1,1815.5,801205.8000000119,7129,WL,C,14.0
5,29.008000135421753,learn,60000.0,Fri Apr 18 2025 15:08:39 GMT-0500 (Central Daylight Time),803788.2000000179,A,h,O,backspace,758,1,2582.4000000059605,801205.8000000119,7129,WL,C,14.0
5,29.174000024795532,learn,60000.0,Fri Apr 18 2025 15:08:39 GMT-0500 (Central Daylight Time),803955.2000000179,A,,O,backspace,151,1,2749.4000000059605,801205.8000000119,7129,WL,C,14.0
5,29.658000230789185,learn,60000.0,Fri Apr 18 2025 15:08:39 GMT-0500 (Central Daylight Time),804438.7000000179,A,b,O,b,465,1,3232.9000000059605,801205.8000000119,7129,WL,C,14.0
5,29.73900008201599,learn,60000.0,Fri Apr 18 2025 15:08:39 GMT-0500 (Central Daylight Time),804519.900000006,A,bo,O,o,60,1,3314.0999999940395,801205.8000000119,7129,WL,C,14.0
5,29.908000230789185,learn,60000.0,Fri Apr 18 2025 15:08:39 GMT-0500 (Central Daylight Time),804688.6000000238,A,boy,O,y,148,1,3482.800000011921,801205.8000000119,7129,WL,C,14.0
5,30.106000185012817,learn,60000.0,Fri Apr 18 2025 15:08:39 GMT-0500 (Central Daylight Time),804886.8000000119,A,boyenter,O,enter,187,1,3681.0,801205.8000000119,7129,WL,C,14.0
5,36.97100019454956,learn,60000.0,Fri Apr 18 2025 15:08:39 GMT-0500 (Central Daylight Time),811752.2000000179,A,f,O,f,6845,1,6865.0999999940395,804887.1000000238,7129,WL,C,15.0
5,37.15500020980835,learn,60000.0,Fri Apr 18 2025 15:08:39 GMT-0500 (Central Daylight Time),811936.2000000179,A,fa,O,a,164,1,7049.0999999940395,804887.1000000238,7129,WL,C,15.0
5,37.57000017166138,learn,60000.0,Fri Apr 18 2025 15:08:39 GMT-0500 (Central Daylight Time),812351.1000000238,A,f,O,backspace,404,1,7464.0,804887.1000000238,7129,WL,C,15.0
5,37.789000034332275,learn,60000.0,Fri Apr 18 2025 15:08:39 GMT-0500 (Central Daylight Time),812569.6000000238,A,fl,O,l,197,1,7682.5,804887.1000000238,7129,WL,C,15.0
5,37.92200016975403,learn,60000.0,Fri Apr 18 2025 15:08:39 GMT-0500 (Central Daylight Time),812702.400000006,A,fla,O,a,112,1,7815.299999982119,804887.1000000238,7129,WL,C,15.0
5,38.15500020980835,learn,60000.0,Fri Apr 18 2025 15:08:39 GMT-0500 (Central Daylight Time),812935.5,A,flag,O,g,213,1,8048.399999976158,804887.1000000238,7129,WL,C,15.0
5,38.53700017929077,learn,60000.0,Fri Apr 18 2025 15:08:39 GMT-0500 (Central Daylight Time),813317.900000006,A,flagenter,O,enter,364,1,8430.799999982119,804887.1000000238,7129,WL,C,15.0
6,0.7999999523162842,distr,59200.000047683716,Fri Apr 18 2025 15:08:39 GMT-0500 (Central Daylight Time),881014.400000006,B,m,O,m,794,1,800.2999999821186,880214.1000000238,7129,WL,C,1.0
6,1.0329999923706055,distr,58967.000007629395,Fri Apr 18 2025 15:08:39 GMT-0500 (Central Daylight Time),881246.7000000179,B,mo,O,o,214,1,1032.5999999940395,880214.1000000238,7129,WL,C,1.0
6,1.2669999599456787,distr,58733.00004005432,Fri Apr 18 2025 15:08:39 GMT-0500 (Central Daylight Time),881481.0,B,mon,O,n,211,1,1266.8999999761581,880214.1000000238,7129,WL,C,1.0
6,1.4179999828338623,distr,58582.00001716614,Fri Apr 18 2025 15:08:39 GMT-0500 (Central Daylight Time),881631.400000006,B,mone,O,e,139,1,1417.2999999821186,880214.1000000238,7129,WL,C,1.0
6,1.6000001430511475,distr,58399.99985694885,Fri Apr 18 2025 15:08:39 GMT-0500 (Central Daylight Time),881813.6000000238,B,money,O,y,163,1,1599.5,880214.1000000238,7129,WL,C,1.0
6,1.9479999542236328,distr,58052.00004577637,Fri Apr 18 2025 15:08:39 GMT-0500 (Central Daylight Time),882162.3000000119,B,moneyenter,O,enter,333,1,1948.199999988079,880214.1000000238,7129,WL,C,1.0
6,2.5510001182556152,distr,57448.999881744385,Fri Apr 18 2025 15:08:39 GMT-0500 (Central Daylight Time),882764.6000000238,B,h,O,h,598,1,602.2000000178814,882162.400000006,7129,WL,C,2.0
6,2.700000047683716,distr,57299.999952316284,Fri Apr 18 2025 15:08:39 GMT-0500 (Central Daylight Time),882913.7000000179,B,ho,O,o,128,1,751.3000000119209,882162.400000006,7129,WL,C,2.0
6,2.8310000896453857,distr,57168.999910354614,Fri Apr 18 2025 15:08:39 GMT-0500 (Central Daylight Time),883045.3000000119,B,hot,O,t,122,1,882.9000000059605,882162.400000006,7129,WL,C,2.0
6,3.0490000247955322,distr,56950.99997520447,Fri Apr 18 2025 15:08:39 GMT-0500 (Central Daylight Time),883263.1000000238,B,hote,O,e,198,1,1100.7000000178814,882162.400000006,7129,WL,C,2.0
6,3.2810001373291016,distr,56718.9998626709,Fri Apr 18 2025 15:08:39 GMT-0500 (Central Daylight Time),883495.3000000119,B,hotel,O,l,212,1,1332.9000000059605,882162.400000006,7129,WL,C,2.0
6,3.7179999351501465,distr,56282.00006484985,Fri Apr 18 2025 15:08:39 GMT-0500 (Central Daylight Time),883931.8000000119,B,hotelenter,O,enter,430,1,1769.4000000059605,882162.400000006,7129,WL,C,2.0
6,7.365000009536743,distr,52634.99999046326,Fri Apr 18 2025 15:08:39 GMT-0500 (Central Daylight Time),887578.400000006,B,s,O,s,3641,1,3646.2999999821186,883932.1000000238,7129,WL,C,3.0
6,7.480999946594238,distr,52519.00005340576,Fri Apr 18 2025 15:08:39 GMT-0500 (Central Daylight Time),887694.7000000179,B,sk,O,k,105,1,3762.5999999940395,883932.1000000238,7129,WL,C,3.0
6,7.697999954223633,distr,52302.00004577637,Fri Apr 18 2025 15:08:39 GMT-0500 (Central Daylight Time),887911.5,B,sky,O,y,205,1,3979.399999976158,883932.1000000238,7129,WL,C,3.0
6,7.914000034332275,distr,52085.999965667725,Fri Apr 18 2025 15:08:39 GMT-0500 (Central Daylight Time),888127.400000006,B,skyenter,O,enter,206,1,4195.299999982119,883932.1000000238,7129,WL,C,3.0
6,9.581000089645386,distr,50418.999910354614,Fri Apr 18 2025 15:08:39 GMT-0500 (Central Daylight Time),889794.7000000179,B,m,O,m,1662,1,1667.0999999940395,888127.6000000238,7129,WL,C,4.0
6,9.664999961853027,distr,50335.00003814697,Fri Apr 18 2025 15:08:39 GMT-0500 (Central Daylight Time),889878.900000006,B,me,O,e,65,1,1751.2999999821186,888127.6000000238,7129,WL,C,4.0
6,9.77999997138977,distr,50220.00002861023,Fri Apr 18 2025 15:08:39 GMT-0500 (Central Daylight Time),889994.3000000119,B,mea,O,a,90,1,1866.699999988079,888127.6000000238,7129,WL,C,4.0
6,10.11299991607666,distr,49887.00008392334,Fri Apr 18 2025 15:08:39 GMT-0500 (Central Daylight Time),890327.2000000179,B,meat,O,t,321,1,2199.5999999940395,888127.6000000238,7129,WL,C,4.0
6,10.414000034332275,distr,49585.999965667725,Fri Apr 18 2025 15:08:39 GMT-0500 (Central Daylight Time),890627.7000000179,B,meatenter,O,enter,283,1,2500.0999999940395,888127.6000000238,7129,WL,C,4.0
6,16.177000045776367,distr,43822.99995422363,Fri Apr 18 2025 15:08:39 GMT-0500 (Central Daylight Time),896391.0,B,s,O,s,5754,1,5763.0,890628.0,7129,WL,C,5.0
6,16.30999994277954,distr,43690.00005722046,Fri Apr 18 2025 15:08:39 GMT-0500 (Central Daylight Time),896524.2000000179,B,sk,O,k,112,1,5896.200000017881,890628.0,7129,WL,C,5.0
6,16.594000101089478,distr,43405.99989891052,Fri Apr 18 2025 15:08:39 GMT-0500 (Central Daylight Time),896808.400000006,B,sky,O,y,271,1,6180.4000000059605,890628.0,7129,WL,C,5.0
6,18.877000093460083,distr,41122.99990653992,Fri Apr 18 2025 15:08:39 GMT-0500 (Central Daylight Time),899090.6000000238,B,skyenter,O,enter,2276,1,8462.600000023842,890628.0,7129,WL,C,5.0
6,21.743000030517578,distr,38256.99996948242,Fri Apr 18 2025 15:08:39 GMT-0500 (Central Daylight Time),901956.900000006,B,c,O,c,2852,1,2866.0999999940395,899090.8000000119,7129,WL,C,6.0
6,21.858999967575073,distr,38141.00003242493,Fri Apr 18 2025 15:08:39 GMT-0500 (Central Daylight Time),902072.900000006,B,co,O,o,104,1,2982.0999999940395,899090.8000000119,7129,WL,C,6.0
6,21.993000030517578,distr,38006.99996948242,Fri Apr 18 2025 15:08:39 GMT-0500 (Central Daylight Time),902207.5,B,cor,O,r,117,1,3116.699999988079,899090.8000000119,7129,WL,C,6.0
6,22.157999992370605,distr,37842.000007629395,Fri Apr 18 2025 15:08:39 GMT-0500 (Central Daylight Time),902372.2000000179,B,corn,O,n,157,1,3281.4000000059605,899090.8000000119,7129,WL,C,6.0
6,22.475000143051147,distr,37524.99985694885,Fri Apr 18 2025 15:08:39 GMT-0500 (Central Daylight Time),902689.3000000119,B,cornenter,O,enter,296,1,3598.5,899090.8000000119,7129,WL,C,6.0
6,23.509000062942505,distr,36490.999937057495,Fri Apr 18 2025 15:08:39 GMT-0500 (Central Daylight Time),903723.2000000179,B,c,O,c,1020,1,1033.5999999940395,902689.6000000238,7129,WL,C,7.0
6,23.676000118255615,distr,36323.999881744385,Fri Apr 18 2025 15:08:39 GMT-0500 (Central Daylight Time),903890.1000000238,B,ca,O,a,154,1,1200.5,902689.6000000238,7129,WL,C,7.0
6,23.79200005531311,distr,36207.99994468689,Fri Apr 18 2025 15:08:39 GMT-0500 (Central Daylight Time),904005.900000006,B,cat,O,t,110,1,1316.2999999821186,902689.6000000238,7129,WL,C,7.0
6,23.943000078201294,distr,36056.999921798706,Fri Apr 18 2025 15:08:39 GMT-0500 (Central Daylight Time),904156.900000006,B,catt,O,t,145,1,1467.2999999821186,902689.6000000238,7129,WL,C,7.0
6,24.10800004005432,distr,35891.99995994568,Fri Apr 18 2025 15:08:39 GMT-0500 (Central Daylight Time),904322.3000000119,B,cattl,O,l,152,1,1632.699999988079,902689.6000000238,7129,WL,C,7.0
6,24.242000102996826,distr,35757.999897003174,Fri Apr 18 2025 15:08:39 GMT-0500 (Central Daylight Time),904455.7000000179,B,cattle,O,e,122,1,1766.0999999940395,902689.6000000238,7129,WL,C,7.0
6,24.490999937057495,distr,35509.000062942505,Fri Apr 18 2025 15:08:39 GMT-0500 (Central Daylight Time),904704.8000000119,B,cattleenter,O,enter,238,1,2015.199999988079,902689.6000000238,7129,WL,C,7.0
6,35.87100005149841,distr,24128.999948501587,Fri Apr 18 2025 15:08:39 GMT-0500 (Central Daylight Time),916085.2000000179,B,h,O,h,11364,1,11380.09999999404,904705.1000000238,7129,WL,C,8.0
6,36.00500011444092,distr,23994.999885559082,Fri Apr 18 2025 15:08:39 GMT-0500 (Central Daylight Time),916218.900000006,B,ho,O,o,108,1,11513.799999982119,904705.1000000238,7129,WL,C,8.0
6,36.104000091552734,distr,23895.999908447266,Fri Apr 18 2025 15:08:39 GMT-0500 (Central Daylight Time),916318.400000006,B,hou,O,u,91,1,11613.299999982119,904705.1000000238,7129,WL,C,8.0
6,36.187000036239624,distr,23812.999963760376,Fri Apr 18 2025 15:08:39 GMT-0500 (Central Daylight Time),916400.900000006,B,hous,O,s,71,1,11695.799999982119,904705.1000000238,7129,WL,C,8.0
6,36.289000034332275,distr,23710.999965667725,Fri Apr 18 2025 15:08:39 GMT-0500 (Central Daylight Time),916502.8000000119,B,house,O,e,84,1,11797.699999988079,904705.1000000238,7129,WL,C,8.0
6,36.47200012207031,distr,23527.999877929688,Fri Apr 18 2025 15:08:39 GMT-0500 (Central Daylight Time),916685.7000000179,B,houseenter,O,enter,174,1,11980.59999999404,904705.1000000238,7129,WL,C,8.0
6,60.013999938964844,distr,-13.99993896484375,Fri Apr 18 2025 15:08:39 GMT-0500 (Central Daylight Time),940227.900000006,B,None,O,None,23537,1,23541.90000000596,916686.0,7129,WL,C,9.0
7,5.36299991607666,immed,54637.00008392334,Fri Apr 18 2025 15:08:39 GMT-0500 (Central Daylight Time),947559.400000006,A,f,O,f,5344,1,5363.5,942195.900000006,7129,WL,C,1.0
7,5.495999813079834,immed,54504.000186920166,Fri Apr 18 2025 15:08:39 GMT-0500 (Central Daylight Time),947692.6000000238,A,fo,O,o,127,1,5496.700000017881,942195.900000006,7129,WL,C,1.0
7,5.664000034332275,immed,54335.999965667725,Fri Apr 18 2025 15:08:39 GMT-0500 (Central Daylight Time),947859.7000000179,A,fou,O,u,161,1,5663.800000011921,942195.900000006,7129,WL,C,1.0
7,6.8459999561309814,immed,53154.00004386902,Fri Apr 18 2025 15:08:39 GMT-0500 (Central Daylight Time),949042.0,A,fo,O,backspace,1160,1,6846.0999999940395,942195.900000006,7129,WL,C,1.0
7,7.062999963760376,immed,52937.000036239624,Fri Apr 18 2025 15:08:39 GMT-0500 (Central Daylight Time),949258.900000006,A,f,O,backspace,202,1,7063.0,942195.900000006,7129,WL,C,1.0
7,7.2799999713897705,immed,52720.00002861023,Fri Apr 18 2025 15:08:39 GMT-0500 (Central Daylight Time),949475.6000000238,A,,O,backspace,202,1,7279.700000017881,942195.900000006,7129,WL,C,1.0
7,8.061999797821045,immed,51938.000202178955,Fri Apr 18 2025 15:08:39 GMT-0500 (Central Daylight Time),950257.900000006,A,c,O,c,770,1,8062.0,942195.900000006,7129,WL,C,1.0
7,8.178999900817871,immed,51821.00009918213,Fri Apr 18 2025 15:08:39 GMT-0500 (Central Daylight Time),950375.2000000179,A,co,O,o,99,1,8179.300000011921,942195.900000006,7129,WL,C,1.0
7,8.29699993133545,immed,51703.00006866455,Fri Apr 18 2025 15:08:39 GMT-0500 (Central Daylight Time),950493.2000000179,A,cor,O,r,111,1,8297.300000011921,942195.900000006,7129,WL,C,1.0
7,8.728999853134155,immed,51271.000146865845,Fri Apr 18 2025 15:08:39 GMT-0500 (Central Daylight Time),950924.8000000119,A,corn,O,n,426,1,8728.90000000596,942195.900000006,7129,WL,C,1.0
7,9.17799997329712,immed,50822.00002670288,Fri Apr 18 2025 15:08:39 GMT-0500 (Central Daylight Time),951373.7000000179,A,cornenter,O,enter,440,1,9177.800000011921,942195.900000006,7129,WL,C,1.0
7,9.607999801635742,immed,50392.00019836426,Fri Apr 18 2025 15:08:39 GMT-0500 (Central Daylight Time),951806.8000000119,A,w,O,w,415,1,432.80000001192093,951374.0,7129,WL,C,2.0
7,9.776000022888184,immed,50223.99997711182,Fri Apr 18 2025 15:08:39 GMT-0500 (Central Daylight Time),951974.2000000179,A,wh,O,h,148,1,600.2000000178814,951374.0,7129,WL,C,2.0
7,9.859999895095825,immed,50140.000104904175,Fri Apr 18 2025 15:08:39 GMT-0500 (Central Daylight Time),952057.900000006,A,whe,O,e,78,1,683.9000000059605,951374.0,7129,WL,C,2.0
7,10.176999807357788,immed,49823.00019264221,Fri Apr 18 2025 15:08:39 GMT-0500 (Central Daylight Time),952375.400000006,A,whea,O,a,297,1,1001.4000000059605,951374.0,7129,WL,C,2.0
7,10.491999864578247,immed,49508.00013542175,Fri Apr 18 2025 15:08:39 GMT-0500 (Central Daylight Time),952690.2000000179,A,wheat,O,t,302,1,1316.2000000178814,951374.0,7129,WL,C,2.0
7,11.158999919891357,immed,48841.00008010864,Fri Apr 18 2025 15:08:39 GMT-0500 (Central Daylight Time),953357.3000000119,A,wheatenter,O,enter,651,1,1983.300000011921,951374.0,7129,WL,C,2.0
7,11.542999982833862,immed,48457.00001716614,Fri Apr 18 2025 15:08:39 GMT-0500 (Central Daylight Time),953741.7000000179,A,q,O,q,379,1,384.09999999403954,953357.6000000238,7129,WL,C,3.0
7,11.774999856948853,immed,48225.00014305115,Fri Apr 18 2025 15:08:39 GMT-0500 (Central Daylight Time),953973.7000000179,A,qu,O,u,214,1,616.0999999940395,953357.6000000238,7129,WL,C,3.0
7,12.024999856948853,immed,47975.00014305115,Fri Apr 18 2025 15:08:39 GMT-0500 (Central Daylight Time),954223.6000000238,A,que,O,e,238,1,866.0,953357.6000000238,7129,WL,C,3.0
7,12.641999959945679,immed,47358.00004005432,Fri Apr 18 2025 15:08:39 GMT-0500 (Central Daylight Time),954840.6000000238,A,quee,O,e,597,1,1483.0,953357.6000000238,7129,WL,C,3.0
7,13.024999856948853,immed,46975.00014305115,Fri Apr 18 2025 15:08:39 GMT-0500 (Central Daylight Time),955223.1000000238,A,queen,O,n,363,1,1865.5,953357.6000000238,7129,WL,C,3.0
7,13.506999969482422,immed,46493.00003051758,Fri Apr 18 2025 15:08:39 GMT-0500 (Central Daylight Time),955705.2000000179,A,queenenter,O,enter,470,1,2347.5999999940395,953357.6000000238,7129,WL,C,3.0
7,15.940999984741211,immed,44059.00001525879,Fri Apr 18 2025 15:08:39 GMT-0500 (Central Daylight Time),958139.1000000238,A,c,O,c,2420,1,2433.600000023842,955705.5,7129,WL,C,4.0
7,16.107999801635742,immed,43892.00019836426,Fri Apr 18 2025 15:08:39 GMT-0500 (Central Daylight Time),958306.0,A,ca,O,a,145,1,2600.5,955705.5,7129,WL,C,4.0
7,16.256999969482422,immed,43743.00003051758,Fri Apr 18 2025 15:08:39 GMT-0500 (Central Daylight Time),958455.3000000119,A,cat,O,t,129,1,2749.800000011921,955705.5,7129,WL,C,4.0
7,16.424000024795532,immed,43575.99997520447,Fri Apr 18 2025 15:08:39 GMT-0500 (Central Daylight Time),958622.400000006,A,catt,O,t,158,1,2916.9000000059605,955705.5,7129,WL,C,4.0
7,16.58999991416931,immed,43410.00008583069,Fri Apr 18 2025 15:08:39 GMT-0500 (Central Daylight Time),958787.900000006,A,cattl,O,l,157,1,3082.4000000059605,955705.5,7129,WL,C,4.0
7,16.823999881744385,immed,43176.000118255615,Fri Apr 18 2025 15:08:39 GMT-0500 (Central Daylight Time),959022.5,A,cattle,O,e,222,1,3317.0,955705.5,7129,WL,C,4.0
7,17.271999835968018,immed,42728.00016403198,Fri Apr 18 2025 15:08:39 GMT-0500 (Central Daylight Time),959470.8000000119,A,cattleenter,O,enter,430,1,3765.300000011921,955705.5,7129,WL,C,4.0
7,17.741999864578247,immed,42258.00013542175,Fri Apr 18 2025 15:08:39 GMT-0500 (Central Daylight Time),959940.3000000119,A,d,O,d,464,1,469.19999998807907,959471.1000000238,7129,WL,C,5.0
7,18.122999906539917,immed,41877.00009346008,Fri Apr 18 2025 15:08:39 GMT-0500 (Central Daylight Time),960321.7000000179,A,do,O,o,359,1,850.5999999940395,959471.1000000238,7129,WL,C,5.0
7,18.305999994277954,immed,41694.000005722046,Fri Apr 18 2025 15:08:39 GMT-0500 (Central Daylight Time),960504.400000006,A,doc,O,c,169,1,1033.2999999821186,959471.1000000238,7129,WL,C,5.0
7,18.539999961853027,immed,41460.00003814697,Fri Apr 18 2025 15:08:39 GMT-0500 (Central Daylight Time),960738.8000000119,A,doct,O,t,219,1,1267.699999988079,959471.1000000238,7129,WL,C,5.0
7,18.6729998588562,immed,41327.0001411438,Fri Apr 18 2025 15:08:39 GMT-0500 (Central Daylight Time),960871.1000000238,A,docto,O,o,123,1,1400.0,959471.1000000238,7129,WL,C,5.0
7,18.871999979019165,immed,41128.000020980835,Fri Apr 18 2025 15:08:39 GMT-0500 (Central Daylight Time),961070.900000006,A,doctor,O,r,187,1,1599.7999999821186,959471.1000000238,7129,WL,C,5.0
7,19.50499987602234,immed,40495.00012397766,Fri Apr 18 2025 15:08:39 GMT-0500 (Central Daylight Time),961703.7000000179,A,doctorenter,O,enter,622,1,2232.5999999940395,959471.1000000238,7129,WL,C,5.0
7,29.38699984550476,immed,30613.00015449524,Fri Apr 18 2025 15:08:39 GMT-0500 (Central Daylight Time),971585.1000000238,A,h,O,h,9870,1,9881.200000017881,961703.900000006,7129,WL,C,6.0
7,29.501999855041504,immed,30498.000144958496,Fri Apr 18 2025 15:08:39 GMT-0500 (Central Daylight Time),971701.1000000238,A,ho,O,o,97,1,9997.200000017881,961703.900000006,7129,WL,C,6.0
7,29.61899995803833,immed,30381.00004196167,Fri Apr 18 2025 15:08:39 GMT-0500 (Central Daylight Time),971817.2000000179,A,hou,O,u,93,1,10113.300000011921,961703.900000006,7129,WL,C,6.0
7,29.667999982833862,immed,30332.000017166138,Fri Apr 18 2025 15:08:39 GMT-0500 (Central Daylight Time),971866.6000000238,A,hous,O,s,33,1,10162.700000017881,961703.900000006,7129,WL,C,6.0
7,29.753999948501587,immed,30246.000051498413,Fri Apr 18 2025 15:08:39 GMT-0500 (Central Daylight Time),971952.3000000119,A,house,O,e,64,1,10248.40000000596,961703.900000006,7129,WL,C,6.0
7,30.38599991798401,immed,29614.00008201599,Fri Apr 18 2025 15:08:39 GMT-0500 (Central Daylight Time),972584.1000000238,A,houseenter,O,enter,619,1,10880.200000017881,961703.900000006,7129,WL,C,6.0
7,33.68499994277954,immed,26315.00005722046,Fri Apr 18 2025 15:08:39 GMT-0500 (Central Daylight Time),975883.5,A,c,O,c,3286,1,3299.0999999940395,972584.400000006,7129,WL,C,7.0
7,33.86899995803833,immed,26131.00004196167,Fri Apr 18 2025 15:08:39 GMT-0500 (Central Daylight Time),976067.900000006,A,ca,O,a,178,1,3483.5,972584.400000006,7129,WL,C,7.0
7,34.0,immed,26000.0,Fri Apr 18 2025 15:08:39 GMT-0500 (Central Daylight Time),976198.900000006,A,cat,O,t,120,1,3614.5,972584.400000006,7129,WL,C,7.0
7,34.18400001525879,immed,25815.99998474121,Fri Apr 18 2025 15:08:39 GMT-0500 (Central Daylight Time),976382.900000006,A,catt,O,t,173,1,3798.5,972584.400000006,7129,WL,C,7.0
7,34.8529999256134,immed,25147.000074386597,Fri Apr 18 2025 15:08:39 GMT-0500 (Central Daylight Time),977051.2000000179,A,cat,O,backspace,654,1,4466.800000011921,972584.400000006,7129,WL,C,7.0
7,35.00099992752075,immed,24999.000072479248,Fri Apr 18 2025 15:08:39 GMT-0500 (Central Daylight Time),977199.2000000179,A,ca,O,backspace,138,1,4614.800000011921,972584.400000006,7129,WL,C,7.0
7,35.33299994468689,immed,24667.00005531311,Fri Apr 18 2025 15:08:39 GMT-0500 (Central Daylight Time),977531.900000006,A,c,O,backspace,318,1,4947.5,972584.400000006,7129,WL,C,7.0
7,35.51699995994568,immed,24483.00004005432,Fri Apr 18 2025 15:08:39 GMT-0500 (Central Daylight Time),977715.2000000179,A,,O,backspace,169,1,5130.800000011921,972584.400000006,7129,WL,C,7.0
7,36.032999992370605,immed,23967.000007629395,Fri Apr 18 2025 15:08:39 GMT-0500 (Central Daylight Time),978231.7000000179,A,s,O,s,496,1,5647.300000011921,972584.400000006,7129,WL,C,7.0
7,36.25099992752075,immed,23749.000072479248,Fri Apr 18 2025 15:08:39 GMT-0500 (Central Daylight Time),978449.0,A,su,O,u,196,1,5864.5999999940395,972584.400000006,7129,WL,C,7.0
7,36.484999895095825,immed,23515.000104904175,Fri Apr 18 2025 15:08:39 GMT-0500 (Central Daylight Time),978683.400000006,A,sug,O,g,218,1,6099.0,972584.400000006,7129,WL,C,7.0
7,36.68400001525879,immed,23315.99998474121,Fri Apr 18 2025 15:08:39 GMT-0500 (Central Daylight Time),978882.5,A,suga,O,a,184,1,6298.0999999940395,972584.400000006,7129,WL,C,7.0
7,36.800999879837036,immed,23199.000120162964,Fri Apr 18 2025 15:08:39 GMT-0500 (Central Daylight Time),978999.3000000119,A,sugar,O,r,97,1,6414.9000000059605,972584.400000006,7129,WL,C,7.0
7,37.08399987220764,immed,22916.00012779236,Fri Apr 18 2025 15:08:39 GMT-0500 (Central Daylight Time),979282.1000000238,A,sugarenter,O,enter,275,1,6697.700000017881,972584.400000006,7129,WL,C,7.0
7,37.51699995994568,immed,22483.00004005432,Fri Apr 18 2025 15:08:39 GMT-0500 (Central Daylight Time),979715.6000000238,A,n,O,n,419,1,433.30000001192093,979282.3000000119,7129,WL,C,8.0
7,37.717000007629395,immed,22282.999992370605,Fri Apr 18 2025 15:08:39 GMT-0500 (Central Daylight Time),979915.2000000179,A,na,O,a,193,1,632.9000000059605,979282.3000000119,7129,WL,C,8.0
7,37.94999980926514,immed,22050.000190734863,Fri Apr 18 2025 15:08:39 GMT-0500 (Central Daylight Time),980148.5,A,nai,O,i,224,1,866.1999999880791,979282.3000000119,7129,WL,C,8.0
7,38.16699981689453,immed,21833.00018310547,Fri Apr 18 2025 15:08:39 GMT-0500 (Central Daylight Time),980365.7000000179,A,nail,O,l,209,1,1083.4000000059605,979282.3000000119,7129,WL,C,8.0
7,38.51600003242493,immed,21483.999967575073,Fri Apr 18 2025 15:08:39 GMT-0500 (Central Daylight Time),980714.5,A,nailenter,O,enter,342,1,1432.199999988079,979282.3000000119,7129,WL,C,8.0
7,43.68400001525879,immed,16315.999984741211,Fri Apr 18 2025 15:08:39 GMT-0500 (Central Daylight Time),985882.2000000179,A,c,O,c,5154,1,5167.4000000059605,980714.8000000119,7129,WL,C,9.0
7,43.83399987220764,immed,16166.000127792358,Fri Apr 18 2025 15:08:39 GMT-0500 (Central Daylight Time),986032.7000000179,A,co,O,o,131,1,5317.9000000059605,980714.8000000119,7129,WL,C,9.0
7,43.95099997520447,immed,16049.000024795532,Fri Apr 18 2025 15:08:39 GMT-0500 (Central Daylight Time),986149.7000000179,A,cor,O,r,100,1,5434.9000000059605,980714.8000000119,7129,WL,C,9.0
7,44.115999937057495,immed,15884.000062942505,Fri Apr 18 2025 15:08:39 GMT-0500 (Central Daylight Time),986314.2000000179,A,corn,O,n,143,1,5599.4000000059605,980714.8000000119,7129,WL,C,9.0
7,44.38199996948242,immed,15618.000030517578,Fri Apr 18 2025 15:08:39 GMT-0500 (Central Daylight Time),986580.0,A,cornenter,O,enter,250,1,5865.199999988079,980714.8000000119,7129,WL,C,9.0
7,55.42999982833862,immed,4570.000171661377,Fri Apr 18 2025 15:08:39 GMT-0500 (Central Daylight Time),997628.1000000238,A,q,O,q,11044,1,11047.90000000596,986580.2000000179,7129,WL,C,10.0
7,55.55999994277954,immed,4440.000057220459,Fri Apr 18 2025 15:08:39 GMT-0500 (Central Daylight Time),997758.400000006,A,qu,O,u,121,1,11178.199999988079,986580.2000000179,7129,WL,C,10.0
7,55.67799997329712,immed,4322.000026702881,Fri Apr 18 2025 15:08:39 GMT-0500 (Central Daylight Time),997876.400000006,A,que,O,e,111,1,11296.199999988079,986580.2000000179,7129,WL,C,10.0
7,55.8289999961853,immed,4171.000003814697,Fri Apr 18 2025 15:08:39 GMT-0500 (Central Daylight Time),998027.0,A,quee,O,e,129,1,11446.799999982119,986580.2000000179,7129,WL,C,10.0
7,55.942999839782715,immed,4057.000160217285,Fri Apr 18 2025 15:08:39 GMT-0500 (Central Daylight Time),998141.8000000119,A,queen,O,n,106,1,11561.59999999404,986580.2000000179,7129,WL,C,10.0
7,56.27799987792969,immed,3722.0001220703125,Fri Apr 18 2025 15:08:39 GMT-0500 (Central Daylight Time),998476.1000000238,A,queenenter,O,enter,316,1,11895.90000000596,986580.2000000179,7129,WL,C,10.0
7,57.4449999332428,immed,2555.000066757202,Fri Apr 18 2025 15:08:39 GMT-0500 (Central Daylight Time),999643.2000000179,A,c,O,c,1146,1,1166.800000011921,998476.400000006,7129,WL,C,11.0
7,57.609999895095825,immed,2390.000104904175,Fri Apr 18 2025 15:08:39 GMT-0500 (Central Daylight Time),999808.7000000179,A,ca,O,a,154,1,1332.300000011921,998476.400000006,7129,WL,C,11.0
7,57.694000005722046,immed,2305.999994277954,Fri Apr 18 2025 15:08:39 GMT-0500 (Central Daylight Time),999892.400000006,A,cat,O,t,69,1,1416.0,998476.400000006,7129,WL,C,11.0
7,57.8439998626709,immed,2156.0001373291016,Fri Apr 18 2025 15:08:39 GMT-0500 (Central Daylight Time),1000042.2000000179,A,catt,O,t,128,1,1565.800000011921,998476.400000006,7129,WL,C,11.0
7,57.99399995803833,immed,2006.00004196167,Fri Apr 18 2025 15:08:39 GMT-0500 (Central Daylight Time),1000192.900000006,A,cattl,O,l,132,1,1716.5,998476.400000006,7129,WL,C,11.0
7,58.07699990272522,immed,1923.0000972747803,Fri Apr 18 2025 15:08:39 GMT-0500 (Central Daylight Time),1000275.2000000179,A,cattle,O,e,76,1,1798.800000011921,998476.400000006,7129,WL,C,11.0
7,58.24399995803833,immed,1756.00004196167,Fri Apr 18 2025 15:08:39 GMT-0500 (Central Daylight Time),1000442.400000006,A,cattleenter,O,enter,159,1,1966.0,998476.400000006,7129,WL,C,11.0
7,60.00999999046326,immed,-9.999990463256836,Fri Apr 18 2025 15:08:39 GMT-0500 (Central Daylight Time),1002208.8000000119,A,None,O,None,1762,1,1766.0999999940395,1000442.7000000179,7129,WL,C,12.0
