block_c,block_dur,condition,countdown,datetime,endtime,list,multichar_response,project,response,response_time,session_number,start_end,starttime,subject_id,task,task_vers,trial
,,,,Fri Feb 07 2025 13:30:30 GMT-0600 (Central Standard Time),,,,O,space,1788,1,,,7046,WL,C,
prac,,0,,Fri Feb 07 2025 13:30:30 GMT-0600 (Central Standard Time),,NA,b,O,b,3279,1,,,7046,WL,C,1.0
prac,,0,,Fri Feb 07 2025 13:30:30 GMT-0600 (Central Standard Time),,NA,bo,O,o,1030,1,,,7046,WL,C,1.0
prac,,0,,Fri Feb 07 2025 13:30:30 GMT-0600 (Central Standard Time),,NA,boo,O,o,133,1,,,7046,WL,C,1.0
prac,,0,,Fri Feb 07 2025 13:30:30 GMT-0600 (Central Standard Time),,NA,boos,O,s,120,1,,,7046,WL,C,1.0
prac,,0,,Fri Feb 07 2025 13:30:30 GMT-0600 (Central Standard Time),,NA,boost,O,t,227,1,,,7046,WL,C,1.0
prac,,0,,Fri Feb 07 2025 13:30:30 GMT-0600 (Central Standard Time),,NA,boostenter,O,enter,2849,1,,,7046,WL,C,1.0
1,2.0160000324249268,learn,57983.99996757507,Fri Feb 07 2025 13:30:30 GMT-0600 (Central Standard Time),143729.1000000015,A,t,O,t,2001,1,2015.6000000014901,141713.5,7046,WL,C,1.0
1,2.365999937057495,learn,57634.000062942505,Fri Feb 07 2025 13:30:30 GMT-0600 (Central Standard Time),144079.30000000447,A,to,O,o,328,1,2365.8000000044703,141713.5,7046,WL,C,1.0
1,2.5160000324249268,learn,57483.99996757507,Fri Feb 07 2025 13:30:30 GMT-0600 (Central Standard Time),144229.20000000298,A,tow,O,w,138,1,2515.7000000029802,141713.5,7046,WL,C,1.0
1,2.6489999294281006,learn,57351.0000705719,Fri Feb 07 2025 13:30:30 GMT-0600 (Central Standard Time),144362.20000000298,A,towe,O,e,116,1,2648.7000000029802,141713.5,7046,WL,C,1.0
1,2.75,learn,57250.0,Fri Feb 07 2025 13:30:30 GMT-0600 (Central Standard Time),144462.40000000596,A,tower,O,r,88,1,2748.9000000059605,141713.5,7046,WL,C,1.0
1,3.4159998893737793,learn,56584.00011062622,Fri Feb 07 2025 13:30:30 GMT-0600 (Central Standard Time),145128.70000000298,A,towerenter,O,enter,644,1,3415.2000000029802,141713.5,7046,WL,C,1.0
1,4.431999921798706,learn,55568.000078201294,Fri Feb 07 2025 13:30:30 GMT-0600 (Central Standard Time),146145.1000000015,A,w,O,w,1001,1,1015.6999999955297,145129.40000000596,7046,WL,C,2.0
1,4.681999921798706,learn,55318.000078201294,Fri Feb 07 2025 13:30:30 GMT-0600 (Central Standard Time),146395.0,A,wj,O,j,233,1,1265.5999999940395,145129.40000000596,7046,WL,C,2.0
1,5.2149999141693115,learn,54785.00008583069,Fri Feb 07 2025 13:30:30 GMT-0600 (Central Standard Time),146928.1000000015,A,w,O,backspace,511,1,1798.6999999955297,145129.40000000596,7046,WL,C,2.0
1,5.843999862670898,learn,54156.0001373291,Fri Feb 07 2025 13:30:30 GMT-0600 (Central Standard Time),147557.20000000298,A,wh,O,h,604,1,2427.7999999970198,145129.40000000596,7046,WL,C,2.0
1,5.898000001907349,learn,54101.99999809265,Fri Feb 07 2025 13:30:30 GMT-0600 (Central Standard Time),147611.1000000015,A,whe,O,e,44,1,2481.6999999955297,145129.40000000596,7046,WL,C,2.0
1,6.115000009536743,learn,53884.99999046326,Fri Feb 07 2025 13:30:30 GMT-0600 (Central Standard Time),147828.1000000015,A,whea,O,a,197,1,2698.6999999955297,145129.40000000596,7046,WL,C,2.0
1,6.197999954223633,learn,53802.00004577637,Fri Feb 07 2025 13:30:30 GMT-0600 (Central Standard Time),147911.20000000298,A,wheat,O,t,70,1,2781.7999999970198,145129.40000000596,7046,WL,C,2.0
1,6.697999954223633,learn,53302.00004577637,Fri Feb 07 2025 13:30:30 GMT-0600 (Central Standard Time),148410.80000000447,A,wheatenter,O,enter,491,1,3281.39999999851,145129.40000000596,7046,WL,C,2.0
1,7.0980000495910645,learn,52901.999950408936,Fri Feb 07 2025 13:30:30 GMT-0600 (Central Standard Time),148811.0,A,d,O,d,384,1,399.8999999985099,148411.1000000015,7046,WL,C,3.0
1,7.999000072479248,learn,52000.99992752075,Fri Feb 07 2025 13:30:30 GMT-0600 (Central Standard Time),149711.30000000447,A,,O,backspace,888,1,1300.2000000029802,148411.1000000015,7046,WL,C,3.0
1,9.497999906539917,learn,50502.00009346008,Fri Feb 07 2025 13:30:30 GMT-0600 (Central Standard Time),151210.40000000596,A,s,O,s,1491,1,2799.3000000044703,148411.1000000015,7046,WL,C,3.0
1,9.680999994277954,learn,50319.000005722046,Fri Feb 07 2025 13:30:30 GMT-0600 (Central Standard Time),151393.40000000596,A,su,O,u,160,1,2982.3000000044703,148411.1000000015,7046,WL,C,3.0
1,9.79699993133545,learn,50203.00006866455,Fri Feb 07 2025 13:30:30 GMT-0600 (Central Standard Time),151510.20000000298,A,sug,O,g,105,1,3099.10000000149,148411.1000000015,7046,WL,C,3.0
1,10.04699993133545,learn,49953.00006866455,Fri Feb 07 2025 13:30:30 GMT-0600 (Central Standard Time),151760.1000000015,A,suga,O,a,228,1,3349.0,148411.1000000015,7046,WL,C,3.0
1,10.114000082015991,learn,49885.99991798401,Fri Feb 07 2025 13:30:30 GMT-0600 (Central Standard Time),151826.80000000447,A,sugar,O,r,42,1,3415.7000000029802,148411.1000000015,7046,WL,C,3.0
1,10.879999876022339,learn,49120.00012397766,Fri Feb 07 2025 13:30:30 GMT-0600 (Central Standard Time),152593.30000000447,A,sugarenter,O,enter,743,1,4182.20000000298,148411.1000000015,7046,WL,C,3.0
1,11.79800009727478,learn,48201.99990272522,Fri Feb 07 2025 13:30:30 GMT-0600 (Central Standard Time),153510.6000000015,A,c,O,c,897,1,916.8999999985099,152593.70000000298,7046,WL,C,4.0
1,12.180000066757202,learn,47819.9999332428,Fri Feb 07 2025 13:30:30 GMT-0600 (Central Standard Time),153892.6000000015,A,co,O,o,363,1,1298.8999999985099,152593.70000000298,7046,WL,C,4.0
1,12.329999923706055,learn,47670.000076293945,Fri Feb 07 2025 13:30:30 GMT-0600 (Central Standard Time),154042.70000000298,A,cor,O,r,126,1,1449.0,152593.70000000298,7046,WL,C,4.0
1,12.546000003814697,learn,47453.9999961853,Fri Feb 07 2025 13:30:30 GMT-0600 (Central Standard Time),154259.20000000298,A,corn,O,n,199,1,1665.5,152593.70000000298,7046,WL,C,4.0
1,13.062999963760376,learn,46937.000036239624,Fri Feb 07 2025 13:30:30 GMT-0600 (Central Standard Time),154775.70000000298,A,cornenter,O,enter,494,1,2182.0,152593.70000000298,7046,WL,C,4.0
1,13.513000011444092,learn,46486.99998855591,Fri Feb 07 2025 13:30:30 GMT-0600 (Central Standard Time),155225.5,A,d,O,d,434,1,449.29999999701977,154776.20000000298,7046,WL,C,5.0
1,13.796000003814697,learn,46203.9999961853,Fri Feb 07 2025 13:30:30 GMT-0600 (Central Standard Time),155508.90000000596,A,do,O,o,265,1,732.7000000029802,154776.20000000298,7046,WL,C,5.0
1,14.229000091552734,learn,45770.999908447266,Fri Feb 07 2025 13:30:30 GMT-0600 (Central Standard Time),155942.0,A,doc,O,c,414,1,1165.7999999970198,154776.20000000298,7046,WL,C,5.0
1,14.61299991607666,learn,45387.00008392334,Fri Feb 07 2025 13:30:30 GMT-0600 (Central Standard Time),156325.30000000447,A,doct,O,t,364,1,1549.1000000014901,154776.20000000298,7046,WL,C,5.0
1,14.812000036239624,learn,45187.999963760376,Fri Feb 07 2025 13:30:30 GMT-0600 (Central Standard Time),156525.0,A,docto,O,o,189,1,1748.7999999970198,154776.20000000298,7046,WL,C,5.0
1,14.979000091552734,learn,45020.999908447266,Fri Feb 07 2025 13:30:30 GMT-0600 (Central Standard Time),156691.90000000596,A,doctor,O,r,149,1,1915.7000000029802,154776.20000000298,7046,WL,C,5.0
1,15.378999948501587,learn,44621.00005149841,Fri Feb 07 2025 13:30:30 GMT-0600 (Central Standard Time),157091.70000000298,A,doctorenter,O,enter,383,1,2315.5,154776.20000000298,7046,WL,C,5.0
1,16.194999933242798,learn,43805.0000667572,Fri Feb 07 2025 13:30:30 GMT-0600 (Central Standard Time),157908.1000000015,A,b,O,b,798,1,816.1000000014901,157092.0,7046,WL,C,6.0
1,16.545000076293945,learn,43454.999923706055,Fri Feb 07 2025 13:30:30 GMT-0600 (Central Standard Time),158258.1000000015,A,bo,O,o,334,1,1166.1000000014901,157092.0,7046,WL,C,6.0
1,17.045000076293945,learn,42954.999923706055,Fri Feb 07 2025 13:30:30 GMT-0600 (Central Standard Time),158757.90000000596,A,boy,O,y,480,1,1665.9000000059605,157092.0,7046,WL,C,6.0
1,18.628000020980835,learn,41371.999979019165,Fri Feb 07 2025 13:30:30 GMT-0600 (Central Standard Time),160340.90000000596,A,boyenter,O,enter,1573,1,3248.9000000059605,157092.0,7046,WL,C,6.0
1,21.259999990463257,learn,38740.00000953674,Fri Feb 07 2025 13:30:30 GMT-0600 (Central Standard Time),162973.20000000298,A,h,O,h,2622,1,2631.89999999851,160341.30000000447,7046,WL,C,7.0
1,21.543999910354614,learn,38456.000089645386,Fri Feb 07 2025 13:30:30 GMT-0600 (Central Standard Time),163256.5,A,ho,O,o,269,1,2915.1999999955297,160341.30000000447,7046,WL,C,7.0
1,21.89299988746643,learn,38107.00011253357,Fri Feb 07 2025 13:30:30 GMT-0600 (Central Standard Time),163606.30000000447,A,hom,O,m,331,1,3265.0,160341.30000000447,7046,WL,C,7.0
1,22.16000008583069,learn,37839.99991416931,Fri Feb 07 2025 13:30:30 GMT-0600 (Central Standard Time),163872.90000000596,A,home,O,e,252,1,3531.60000000149,160341.30000000447,7046,WL,C,7.0
1,23.91000008583069,learn,36089.99991416931,Fri Feb 07 2025 13:30:30 GMT-0600 (Central Standard Time),165622.5,A,homeenter,O,enter,1737,1,5281.19999999553,160341.30000000447,7046,WL,C,7.0
1,35.07200002670288,learn,24927.99997329712,Fri Feb 07 2025 13:30:30 GMT-0600 (Central Standard Time),176785.40000000596,A,h,O,h,11148,1,11162.40000000596,165623.0,7046,WL,C,8.0
1,35.25600004196167,learn,24743.99995803833,Fri Feb 07 2025 13:30:30 GMT-0600 (Central Standard Time),176968.90000000596,A,ho,O,o,159,1,11345.90000000596,165623.0,7046,WL,C,8.0
1,35.388999938964844,learn,24611.000061035156,Fri Feb 07 2025 13:30:30 GMT-0600 (Central Standard Time),177102.0,A,hom,O,m,122,1,11479.0,165623.0,7046,WL,C,8.0
1,35.60599994659424,learn,24394.00005340576,Fri Feb 07 2025 13:30:30 GMT-0600 (Central Standard Time),177318.70000000298,A,home,O,e,197,1,11695.70000000298,165623.0,7046,WL,C,8.0
1,36.00600004196167,learn,23993.99995803833,Fri Feb 07 2025 13:30:30 GMT-0600 (Central Standard Time),177718.5,A,homeenter,O,enter,380,1,12095.5,165623.0,7046,WL,C,8.0
1,60.014999866485596,learn,-14.999866485595703,Fri Feb 07 2025 13:30:30 GMT-0600 (Central Standard Time),201727.70000000298,A,None,O,None,24002,1,24008.70000000298,177719.0,7046,WL,C,9.0
2,1.5989999771118164,learn,58401.00002288818,Fri Feb 07 2025 13:30:30 GMT-0600 (Central Standard Time),275721.200000003,A,c,O,c,1585,1,1599.0,274122.200000003,7046,WL,C,1.0
2,1.7160000801086426,learn,58283.99991989136,Fri Feb 07 2025 13:30:30 GMT-0600 (Central Standard Time),275838.0,A,ca,O,a,105,1,1715.7999999970198,274122.200000003,7046,WL,C,1.0
2,1.8660001754760742,learn,58133.999824523926,Fri Feb 07 2025 13:30:30 GMT-0600 (Central Standard Time),275987.80000000447,A,cam,O,m,132,1,1865.6000000014901,274122.200000003,7046,WL,C,1.0
2,1.9490001201629639,learn,58050.999879837036,Fri Feb 07 2025 13:30:30 GMT-0600 (Central Standard Time),276071.1000000015,A,camp,O,p,71,1,1948.8999999985099,274122.200000003,7046,WL,C,1.0
2,2.4650001525878906,learn,57534.99984741211,Fri Feb 07 2025 13:30:30 GMT-0600 (Central Standard Time),276587.6000000015,A,campenter,O,enter,500,1,2465.39999999851,274122.200000003,7046,WL,C,1.0
2,2.9830000400543213,learn,57016.99995994568,Fri Feb 07 2025 13:30:30 GMT-0600 (Central Standard Time),277104.6000000015,A,s,O,s,495,1,516.6999999955297,276587.90000000596,7046,WL,C,2.0
2,3.1649999618530273,learn,56835.00003814697,Fri Feb 07 2025 13:30:30 GMT-0600 (Central Standard Time),277287.6000000015,A,sh,O,h,161,1,699.6999999955297,276587.90000000596,7046,WL,C,2.0
2,3.2320001125335693,learn,56767.99988746643,Fri Feb 07 2025 13:30:30 GMT-0600 (Central Standard Time),277354.30000000447,A,sho,O,o,59,1,766.3999999985099,276587.90000000596,7046,WL,C,2.0
2,3.3980000019073486,learn,56601.99999809265,Fri Feb 07 2025 13:30:30 GMT-0600 (Central Standard Time),277520.700000003,A,shor,O,r,153,1,932.7999999970198,276587.90000000596,7046,WL,C,2.0
2,3.432000160217285,learn,56567.999839782715,Fri Feb 07 2025 13:30:30 GMT-0600 (Central Standard Time),277554.0,A,shore,O,e,19,1,966.0999999940395,276587.90000000596,7046,WL,C,2.0
2,3.947999954223633,learn,56052.00004577637,Fri Feb 07 2025 13:30:30 GMT-0600 (Central Standard Time),278070.6000000015,A,shoreenter,O,enter,497,1,1482.6999999955297,276587.90000000596,7046,WL,C,2.0
2,5.980999946594238,learn,54019.00005340576,Fri Feb 07 2025 13:30:30 GMT-0600 (Central Standard Time),280103.200000003,A,w,O,w,2012,1,2032.2000000029802,278071.0,7046,WL,C,3.0
2,6.0970001220703125,learn,53902.99987792969,Fri Feb 07 2025 13:30:30 GMT-0600 (Central Standard Time),280219.700000003,A,wh,O,h,108,1,2148.7000000029802,278071.0,7046,WL,C,3.0
2,6.215000152587891,learn,53784.99984741211,Fri Feb 07 2025 13:30:30 GMT-0600 (Central Standard Time),280336.80000000447,A,whe,O,e,96,1,2265.8000000044703,278071.0,7046,WL,C,3.0
2,6.364000082015991,learn,53635.99991798401,Fri Feb 07 2025 13:30:30 GMT-0600 (Central Standard Time),280486.5,A,whea,O,a,130,1,2415.5,278071.0,7046,WL,C,3.0
2,6.447999954223633,learn,53552.00004577637,Fri Feb 07 2025 13:30:30 GMT-0600 (Central Standard Time),280569.700000003,A,wheat,O,t,68,1,2498.7000000029802,278071.0,7046,WL,C,3.0
2,6.781000137329102,learn,53218.9998626709,Fri Feb 07 2025 13:30:30 GMT-0600 (Central Standard Time),280903.0,A,wheatenter,O,enter,313,1,2832.0,278071.0,7046,WL,C,3.0
2,7.264000177383423,learn,52735.99982261658,Fri Feb 07 2025 13:30:30 GMT-0600 (Central Standard Time),281386.30000000447,A,s,O,s,460,1,483.0,280903.30000000447,7046,WL,C,4.0
2,7.46399998664856,learn,52536.00001335144,Fri Feb 07 2025 13:30:30 GMT-0600 (Central Standard Time),281585.90000000596,A,su,O,u,176,1,682.6000000014901,280903.30000000447,7046,WL,C,4.0
2,7.614000082015991,learn,52385.99991798401,Fri Feb 07 2025 13:30:30 GMT-0600 (Central Standard Time),281736.0,A,sug,O,g,136,1,832.6999999955297,280903.30000000447,7046,WL,C,4.0
2,7.897000074386597,learn,52102.9999256134,Fri Feb 07 2025 13:30:30 GMT-0600 (Central Standard Time),282019.30000000447,A,suga,O,a,266,1,1116.0,280903.30000000447,7046,WL,C,4.0
2,7.996999979019165,learn,52003.000020980835,Fri Feb 07 2025 13:30:30 GMT-0600 (Central Standard Time),282119.700000003,A,sugar,O,r,79,1,1216.3999999985099,280903.30000000447,7046,WL,C,4.0
2,8.264000177383423,learn,51735.99982261658,Fri Feb 07 2025 13:30:30 GMT-0600 (Central Standard Time),282386.0,A,sugarenter,O,enter,243,1,1482.6999999955297,280903.30000000447,7046,WL,C,4.0
2,8.480000019073486,learn,51519.999980926514,Fri Feb 07 2025 13:30:30 GMT-0600 (Central Standard Time),282602.5,A,d,O,d,194,1,216.09999999403954,282386.40000000596,7046,WL,C,5.0
2,8.580000162124634,learn,51419.999837875366,Fri Feb 07 2025 13:30:30 GMT-0600 (Central Standard Time),282702.200000003,A,do,O,o,88,1,315.79999999701977,282386.40000000596,7046,WL,C,5.0
2,9.147000074386597,learn,50852.9999256134,Fri Feb 07 2025 13:30:30 GMT-0600 (Central Standard Time),283269.0,A,doc,O,c,556,1,882.5999999940395,282386.40000000596,7046,WL,C,5.0
2,9.397000074386597,learn,50602.9999256134,Fri Feb 07 2025 13:30:30 GMT-0600 (Central Standard Time),283518.90000000596,A,doct,O,t,238,1,1132.5,282386.40000000596,7046,WL,C,5.0
2,9.580000162124634,learn,50419.999837875366,Fri Feb 07 2025 13:30:30 GMT-0600 (Central Standard Time),283702.200000003,A,docto,O,o,164,1,1315.7999999970198,282386.40000000596,7046,WL,C,5.0
2,9.680000066757202,learn,50319.9999332428,Fri Feb 07 2025 13:30:30 GMT-0600 (Central Standard Time),283802.1000000015,A,doctor,O,r,76,1,1415.6999999955297,282386.40000000596,7046,WL,C,5.0
2,11.845999956130981,learn,48154.00004386902,Fri Feb 07 2025 13:30:30 GMT-0600 (Central Standard Time),285968.1000000015,A,doctorenter,O,enter,2152,1,3581.6999999955297,282386.40000000596,7046,WL,C,5.0
2,17.794000148773193,learn,42205.99985122681,Fri Feb 07 2025 13:30:30 GMT-0600 (Central Standard Time),291916.40000000596,A,f,O,f,5930,1,5947.9000000059605,285968.5,7046,WL,C,6.0
2,17.97699999809265,learn,42023.00000190735,Fri Feb 07 2025 13:30:30 GMT-0600 (Central Standard Time),292099.200000003,A,fi,O,i,174,1,6130.70000000298,285968.5,7046,WL,C,6.0
2,18.094000101089478,learn,41905.99989891052,Fri Feb 07 2025 13:30:30 GMT-0600 (Central Standard Time),292216.0,A,fie,O,e,103,1,6247.5,285968.5,7046,WL,C,6.0
2,18.24399995803833,learn,41756.00004196167,Fri Feb 07 2025 13:30:30 GMT-0600 (Central Standard Time),292366.200000003,A,fiel,O,l,139,1,6397.70000000298,285968.5,7046,WL,C,6.0
2,18.377000093460083,learn,41622.99990653992,Fri Feb 07 2025 13:30:30 GMT-0600 (Central Standard Time),292499.1000000015,A,field,O,d,124,1,6530.60000000149,285968.5,7046,WL,C,6.0
2,19.177000045776367,learn,40822.99995422363,Fri Feb 07 2025 13:30:30 GMT-0600 (Central Standard Time),293299.30000000447,A,fieldenter,O,enter,784,1,7330.80000000447,285968.5,7046,WL,C,6.0
2,23.608999967575073,learn,36391.00003242493,Fri Feb 07 2025 13:30:30 GMT-0600 (Central Standard Time),297730.90000000596,A,w,O,w,4424,1,4431.30000000447,293299.6000000015,7046,WL,C,7.0
2,23.77500009536743,learn,36224.99990463257,Fri Feb 07 2025 13:30:30 GMT-0600 (Central Standard Time),297897.5,A,wh,O,h,152,1,4597.89999999851,293299.6000000015,7046,WL,C,7.0
2,23.87600016593933,learn,36123.99983406067,Fri Feb 07 2025 13:30:30 GMT-0600 (Central Standard Time),297997.700000003,A,whe,O,e,90,1,4698.10000000149,293299.6000000015,7046,WL,C,7.0
2,23.95900011062622,learn,36040.99988937378,Fri Feb 07 2025 13:30:30 GMT-0600 (Central Standard Time),298081.0,A,whea,O,a,68,1,4781.39999999851,293299.6000000015,7046,WL,C,7.0
2,24.55900001525879,learn,35440.99998474121,Fri Feb 07 2025 13:30:30 GMT-0600 (Central Standard Time),298680.80000000447,A,wheat,O,t,577,1,5381.20000000298,293299.6000000015,7046,WL,C,7.0
2,25.52500009536743,learn,34474.99990463257,Fri Feb 07 2025 13:30:30 GMT-0600 (Central Standard Time),299647.1000000015,A,wheatenter,O,enter,945,1,6347.5,293299.6000000015,7046,WL,C,7.0
2,43.236000061035156,learn,16763.999938964844,Fri Feb 07 2025 13:30:30 GMT-0600 (Central Standard Time),317358.1000000015,A,q,O,q,17699,1,17710.69999999553,299647.40000000596,7046,WL,C,8.0
2,43.60300016403198,learn,16396.999835968018,Fri Feb 07 2025 13:30:30 GMT-0600 (Central Standard Time),317724.80000000447,A,qu,O,u,348,1,18077.39999999851,299647.40000000596,7046,WL,C,8.0
2,43.76900005340576,learn,16230.999946594238,Fri Feb 07 2025 13:30:30 GMT-0600 (Central Standard Time),317891.1000000015,A,que,O,e,158,1,18243.69999999553,299647.40000000596,7046,WL,C,8.0
2,43.91900014877319,learn,16080.999851226807,Fri Feb 07 2025 13:30:30 GMT-0600 (Central Standard Time),318041.6000000015,A,quee,O,e,127,1,18394.19999999553,299647.40000000596,7046,WL,C,8.0
2,44.069000005722046,learn,15930.999994277954,Fri Feb 07 2025 13:30:30 GMT-0600 (Central Standard Time),318191.6000000015,A,queen,O,n,136,1,18544.19999999553,299647.40000000596,7046,WL,C,8.0
2,44.78500008583069,learn,15214.999914169312,Fri Feb 07 2025 13:30:30 GMT-0600 (Central Standard Time),318907.6000000015,A,queenenter,O,enter,707,1,19260.19999999553,299647.40000000596,7046,WL,C,8.0
2,57.098000049591064,learn,2901.9999504089355,Fri Feb 07 2025 13:30:30 GMT-0600 (Central Standard Time),331220.5,A,a,O,a,12303,1,12312.69999999553,318907.80000000447,7046,WL,C,9.0
2,57.414000034332275,learn,2585.9999656677246,Fri Feb 07 2025 13:30:30 GMT-0600 (Central Standard Time),331536.700000003,A,ar,O,r,302,1,12628.89999999851,318907.80000000447,7046,WL,C,9.0
2,57.56500005722046,learn,2434.999942779541,Fri Feb 07 2025 13:30:30 GMT-0600 (Central Standard Time),331687.200000003,A,arr,O,r,130,1,12779.39999999851,318907.80000000447,7046,WL,C,9.0
2,57.71500015258789,learn,2284.9998474121094,Fri Feb 07 2025 13:30:30 GMT-0600 (Central Standard Time),331837.30000000447,A,arro,O,o,140,1,12929.5,318907.80000000447,7046,WL,C,9.0
2,57.848000049591064,learn,2151.9999504089355,Fri Feb 07 2025 13:30:30 GMT-0600 (Central Standard Time),331970.40000000596,A,arrow,O,w,118,1,13062.60000000149,318907.80000000447,7046,WL,C,9.0
2,58.248000144958496,learn,1751.999855041504,Fri Feb 07 2025 13:30:30 GMT-0600 (Central Standard Time),332370.30000000447,A,arrowenter,O,enter,384,1,13462.5,318907.80000000447,7046,WL,C,9.0
2,60.01400017738342,learn,-14.000177383422852,Fri Feb 07 2025 13:30:30 GMT-0600 (Central Standard Time),334136.200000003,A,None,O,None,1759,1,1765.5,332370.700000003,7046,WL,C,10.0
3,0.7829999923706055,learn,59217.000007629395,Fri Feb 07 2025 13:30:30 GMT-0600 (Central Standard Time),406230.6000000015,A,b,O,b,764,1,783.1999999955297,405447.40000000596,7046,WL,C,1.0
3,1.2999999523162842,learn,58700.000047683716,Fri Feb 07 2025 13:30:30 GMT-0600 (Central Standard Time),406746.90000000596,A,bo,O,o,500,1,1299.5,405447.40000000596,7046,WL,C,1.0
3,1.7000000476837158,learn,58299.999952316284,Fri Feb 07 2025 13:30:30 GMT-0600 (Central Standard Time),407146.80000000447,A,bod,O,d,384,1,1699.3999999985099,405447.40000000596,7046,WL,C,1.0
3,2.0829999446868896,learn,57917.00005531311,Fri Feb 07 2025 13:30:30 GMT-0600 (Central Standard Time),407530.200000003,A,body,O,y,368,1,2082.7999999970198,405447.40000000596,7046,WL,C,1.0
3,2.4830000400543213,learn,57516.99995994568,Fri Feb 07 2025 13:30:30 GMT-0600 (Central Standard Time),407930.1000000015,A,bodyenter,O,enter,376,1,2482.6999999955297,405447.40000000596,7046,WL,C,1.0
3,2.998999834060669,learn,57001.00016593933,Fri Feb 07 2025 13:30:30 GMT-0600 (Central Standard Time),408446.6000000015,A,q,O,q,505,1,516.1999999955297,407930.40000000596,7046,WL,C,2.0
3,3.2159998416900635,learn,56784.00015830994,Fri Feb 07 2025 13:30:30 GMT-0600 (Central Standard Time),408663.1000000015,A,qu,O,u,204,1,732.6999999955297,407930.40000000596,7046,WL,C,2.0
3,3.4159998893737793,learn,56584.00011062622,Fri Feb 07 2025 13:30:30 GMT-0600 (Central Standard Time),408863.1000000015,A,que,O,e,179,1,932.6999999955297,407930.40000000596,7046,WL,C,2.0
3,3.5319998264312744,learn,56468.000173568726,Fri Feb 07 2025 13:30:30 GMT-0600 (Central Standard Time),408979.5,A,quee,O,e,108,1,1049.0999999940395,407930.40000000596,7046,WL,C,2.0
3,3.681999921798706,learn,56318.000078201294,Fri Feb 07 2025 13:30:30 GMT-0600 (Central Standard Time),409129.6000000015,A,queen,O,n,127,1,1199.1999999955297,407930.40000000596,7046,WL,C,2.0
3,4.082000017166138,learn,55917.99998283386,Fri Feb 07 2025 13:30:30 GMT-0600 (Central Standard Time),409529.30000000447,A,queenenter,O,enter,376,1,1598.8999999985099,407930.40000000596,7046,WL,C,2.0
3,4.615000009536743,learn,55384.99999046326,Fri Feb 07 2025 13:30:30 GMT-0600 (Central Standard Time),410062.6000000015,A,t,O,t,521,1,532.8999999985099,409529.700000003,7046,WL,C,3.0
3,4.764999866485596,learn,55235.000133514404,Fri Feb 07 2025 13:30:30 GMT-0600 (Central Standard Time),410212.6000000015,A,to,O,o,132,1,682.8999999985099,409529.700000003,7046,WL,C,3.0
3,4.914999961853027,learn,55085.00003814697,Fri Feb 07 2025 13:30:30 GMT-0600 (Central Standard Time),410362.700000003,A,tow,O,w,134,1,833.0,409529.700000003,7046,WL,C,3.0
3,5.082000017166138,learn,54917.99998283386,Fri Feb 07 2025 13:30:30 GMT-0600 (Central Standard Time),410529.30000000447,A,towe,O,e,152,1,999.6000000014901,409529.700000003,7046,WL,C,3.0
3,5.181999921798706,learn,54818.000078201294,Fri Feb 07 2025 13:30:30 GMT-0600 (Central Standard Time),410629.200000003,A,tower,O,r,82,1,1099.5,409529.700000003,7046,WL,C,3.0
3,5.48199987411499,learn,54518.00012588501,Fri Feb 07 2025 13:30:30 GMT-0600 (Central Standard Time),410929.1000000015,A,towerenter,O,enter,286,1,1399.3999999985099,409529.700000003,7046,WL,C,3.0
3,5.648000001907349,learn,54351.99999809265,Fri Feb 07 2025 13:30:30 GMT-0600 (Central Standard Time),411095.80000000447,A,d,O,d,154,1,166.39999999850988,410929.40000000596,7046,WL,C,4.0
3,5.832000017166138,learn,54167.99998283386,Fri Feb 07 2025 13:30:30 GMT-0600 (Central Standard Time),411278.90000000596,A,do,O,o,163,1,349.5,410929.40000000596,7046,WL,C,4.0
3,6.330999851226807,learn,53669.00014877319,Fri Feb 07 2025 13:30:30 GMT-0600 (Central Standard Time),411778.700000003,A,doc,O,c,492,1,849.2999999970198,410929.40000000596,7046,WL,C,4.0
3,6.579999923706055,learn,53420.000076293945,Fri Feb 07 2025 13:30:30 GMT-0600 (Central Standard Time),412028.6000000015,A,doct,O,t,232,1,1099.1999999955297,410929.40000000596,7046,WL,C,4.0
3,6.730000019073486,learn,53269.999980926514,Fri Feb 07 2025 13:30:30 GMT-0600 (Central Standard Time),412178.6000000015,A,docto,O,o,142,1,1249.1999999955297,410929.40000000596,7046,WL,C,4.0
3,6.86299991607666,learn,53137.00008392334,Fri Feb 07 2025 13:30:30 GMT-0600 (Central Standard Time),412312.0,A,doctor,O,r,120,1,1382.5999999940395,410929.40000000596,7046,WL,C,4.0
3,7.096999883651733,learn,52903.00011634827,Fri Feb 07 2025 13:30:30 GMT-0600 (Central Standard Time),412545.30000000447,A,doctorenter,O,enter,219,1,1615.8999999985099,410929.40000000596,7046,WL,C,4.0
3,7.796000003814697,learn,52203.9999961853,Fri Feb 07 2025 13:30:30 GMT-0600 (Central Standard Time),413245.0,A,b,O,b,681,1,699.3999999985099,412545.6000000015,7046,WL,C,5.0
3,8.145999908447266,learn,51854.000091552734,Fri Feb 07 2025 13:30:30 GMT-0600 (Central Standard Time),413594.80000000447,A,bo,O,o,333,1,1049.2000000029802,412545.6000000015,7046,WL,C,5.0
3,8.61299991607666,learn,51387.00008392334,Fri Feb 07 2025 13:30:30 GMT-0600 (Central Standard Time),414061.40000000596,A,boy,O,y,456,1,1515.8000000044703,412545.6000000015,7046,WL,C,5.0
3,8.963000059127808,learn,51036.99994087219,Fri Feb 07 2025 13:30:30 GMT-0600 (Central Standard Time),414411.30000000447,A,boyenter,O,enter,333,1,1865.7000000029802,412545.6000000015,7046,WL,C,5.0
3,9.395999908447266,learn,50604.000091552734,Fri Feb 07 2025 13:30:30 GMT-0600 (Central Standard Time),414844.40000000596,A,w,O,w,416,1,432.80000000447035,414411.6000000015,7046,WL,C,6.0
3,9.578999996185303,learn,50421.0000038147,Fri Feb 07 2025 13:30:30 GMT-0600 (Central Standard Time),415027.700000003,A,wh,O,h,167,1,616.1000000014901,414411.6000000015,7046,WL,C,6.0
3,9.76199984550476,learn,50238.00015449524,Fri Feb 07 2025 13:30:30 GMT-0600 (Central Standard Time),415210.700000003,A,whe,O,e,175,1,799.1000000014901,414411.6000000015,7046,WL,C,6.0
3,9.94599986076355,learn,50054.00013923645,Fri Feb 07 2025 13:30:30 GMT-0600 (Central Standard Time),415394.30000000447,A,whea,O,a,168,1,982.7000000029802,414411.6000000015,7046,WL,C,6.0
3,10.76199984550476,learn,49238.00015449524,Fri Feb 07 2025 13:30:30 GMT-0600 (Central Standard Time),416210.6000000015,A,wheat,O,t,808,1,1799.0,414411.6000000015,7046,WL,C,6.0
3,11.062000036239624,learn,48937.999963760376,Fri Feb 07 2025 13:30:30 GMT-0600 (Central Standard Time),416510.6000000015,A,wheatenter,O,enter,288,1,2099.0,414411.6000000015,7046,WL,C,6.0
3,11.529000043869019,learn,48470.99995613098,Fri Feb 07 2025 13:30:30 GMT-0600 (Central Standard Time),416977.40000000596,A,s,O,s,444,1,466.5,416510.90000000596,7046,WL,C,7.0
3,11.728999853134155,learn,48271.000146865845,Fri Feb 07 2025 13:30:30 GMT-0600 (Central Standard Time),417177.1000000015,A,su,O,u,178,1,666.1999999955297,416510.90000000596,7046,WL,C,7.0
3,12.044999837875366,learn,47955.000162124634,Fri Feb 07 2025 13:30:30 GMT-0600 (Central Standard Time),417493.5,A,sug,O,g,298,1,982.5999999940395,416510.90000000596,7046,WL,C,7.0
3,12.26199984550476,learn,47738.00015449524,Fri Feb 07 2025 13:30:30 GMT-0600 (Central Standard Time),417710.30000000447,A,suga,O,a,197,1,1199.3999999985099,416510.90000000596,7046,WL,C,7.0
3,12.294999837875366,learn,47705.000162124634,Fri Feb 07 2025 13:30:30 GMT-0600 (Central Standard Time),417743.6000000015,A,sugar,O,r,20,1,1232.6999999955297,416510.90000000596,7046,WL,C,7.0
3,12.628000020980835,learn,47371.999979019165,Fri Feb 07 2025 13:30:30 GMT-0600 (Central Standard Time),418076.90000000596,A,sugarenter,O,enter,323,1,1566.0,416510.90000000596,7046,WL,C,7.0
3,12.84500002861023,learn,47154.99997138977,Fri Feb 07 2025 13:30:30 GMT-0600 (Central Standard Time),418293.6000000015,A,c,O,c,206,1,216.39999999850988,418077.200000003,7046,WL,C,8.0
3,12.977999925613403,learn,47022.0000743866,Fri Feb 07 2025 13:30:30 GMT-0600 (Central Standard Time),418426.700000003,A,co,O,o,125,1,349.5,418077.200000003,7046,WL,C,8.0
3,13.128000020980835,learn,46871.999979019165,Fri Feb 07 2025 13:30:30 GMT-0600 (Central Standard Time),418576.80000000447,A,cor,O,r,136,1,499.6000000014901,418077.200000003,7046,WL,C,8.0
3,13.294999837875366,learn,46705.000162124634,Fri Feb 07 2025 13:30:30 GMT-0600 (Central Standard Time),418743.40000000596,A,corn,O,n,146,1,666.2000000029802,418077.200000003,7046,WL,C,8.0
3,13.577999830245972,learn,46422.00016975403,Fri Feb 07 2025 13:30:30 GMT-0600 (Central Standard Time),419026.40000000596,A,cornenter,O,enter,261,1,949.2000000029802,418077.200000003,7046,WL,C,8.0
3,13.894000053405762,learn,46105.99994659424,Fri Feb 07 2025 13:30:30 GMT-0600 (Central Standard Time),419342.90000000596,A,c,O,c,296,1,316.20000000298023,419026.700000003,7046,WL,C,9.0
3,13.977999925613403,learn,46022.0000743866,Fri Feb 07 2025 13:30:30 GMT-0600 (Central Standard Time),419426.40000000596,A,ca,O,a,68,1,399.70000000298023,419026.700000003,7046,WL,C,9.0
3,14.17799997329712,learn,45822.00002670288,Fri Feb 07 2025 13:30:30 GMT-0600 (Central Standard Time),419626.5,A,cam,O,m,176,1,599.7999999970198,419026.700000003,7046,WL,C,9.0
3,14.279000043869019,learn,45720.99995613098,Fri Feb 07 2025 13:30:30 GMT-0600 (Central Standard Time),419727.40000000596,A,camp,O,p,80,1,700.7000000029802,419026.700000003,7046,WL,C,9.0
3,15.227999925613403,learn,44772.0000743866,Fri Feb 07 2025 13:30:30 GMT-0600 (Central Standard Time),420676.1000000015,A,campenter,O,enter,939,1,1649.3999999985099,419026.700000003,7046,WL,C,9.0
3,20.241999864578247,learn,39758.00013542175,Fri Feb 07 2025 13:30:30 GMT-0600 (Central Standard Time),425690.80000000447,A,n,O,n,5007,1,5014.39999999851,420676.40000000596,7046,WL,C,10.0
3,20.442999839782715,learn,39557.000160217285,Fri Feb 07 2025 13:30:30 GMT-0600 (Central Standard Time),425891.1000000015,A,na,O,a,184,1,5214.69999999553,420676.40000000596,7046,WL,C,10.0
3,20.55900001525879,learn,39440.99998474121,Fri Feb 07 2025 13:30:30 GMT-0600 (Central Standard Time),426007.6000000015,A,nai,O,i,96,1,5331.19999999553,420676.40000000596,7046,WL,C,10.0
3,20.70899987220764,learn,39291.00012779236,Fri Feb 07 2025 13:30:30 GMT-0600 (Central Standard Time),426157.700000003,A,nail,O,l,139,1,5481.29999999702,420676.40000000596,7046,WL,C,10.0
3,21.04200005531311,learn,38957.99994468689,Fri Feb 07 2025 13:30:30 GMT-0600 (Central Standard Time),426490.90000000596,A,nailenter,O,enter,309,1,5814.5,420676.40000000596,7046,WL,C,10.0
3,21.441999912261963,learn,38558.00008773804,Fri Feb 07 2025 13:30:30 GMT-0600 (Central Standard Time),426890.80000000447,A,f,O,f,377,1,399.6000000014901,426491.200000003,7046,WL,C,11.0
3,21.54200005531311,learn,38457.99994468689,Fri Feb 07 2025 13:30:30 GMT-0600 (Central Standard Time),426990.80000000447,A,fl,O,l,87,1,499.6000000014901,426491.200000003,7046,WL,C,11.0
3,21.658999919891357,learn,38341.00008010864,Fri Feb 07 2025 13:30:30 GMT-0600 (Central Standard Time),427107.1000000015,A,fla,O,a,108,1,615.8999999985099,426491.200000003,7046,WL,C,11.0
3,22.092000007629395,learn,37907.999992370605,Fri Feb 07 2025 13:30:30 GMT-0600 (Central Standard Time),427540.5,A,flag,O,g,416,1,1049.2999999970198,426491.200000003,7046,WL,C,11.0
3,23.507999897003174,learn,36492.000102996826,Fri Feb 07 2025 13:30:30 GMT-0600 (Central Standard Time),428956.6000000015,A,flagenter,O,enter,1406,1,2465.39999999851,426491.200000003,7046,WL,C,11.0
3,24.10800004005432,learn,35891.99995994568,Fri Feb 07 2025 13:30:30 GMT-0600 (Central Standard Time),429556.5,A,h,O,h,591,1,599.5999999940395,428956.90000000596,7046,WL,C,12.0
3,24.307999849319458,learn,35692.00015068054,Fri Feb 07 2025 13:30:30 GMT-0600 (Central Standard Time),429756.40000000596,A,ho,O,o,183,1,799.5,428956.90000000596,7046,WL,C,12.0
3,24.639999866485596,learn,35360.000133514404,Fri Feb 07 2025 13:30:30 GMT-0600 (Central Standard Time),430088.40000000596,A,hom,O,m,177,1,1131.5,428956.90000000596,7046,WL,C,12.0
3,24.651000022888184,learn,35348.99997711182,Fri Feb 07 2025 13:30:30 GMT-0600 (Central Standard Time),430099.90000000596,A,home,O,e,1,1,1143.0,428956.90000000596,7046,WL,C,12.0
3,26.924000024795532,learn,33075.99997520447,Fri Feb 07 2025 13:30:30 GMT-0600 (Central Standard Time),432372.40000000596,A,homeenter,O,enter,2250,1,3415.5,428956.90000000596,7046,WL,C,12.0
3,36.48799991607666,learn,23512.00008392334,Fri Feb 07 2025 13:30:30 GMT-0600 (Central Standard Time),441936.200000003,A,d,O,d,9542,1,9563.5,432372.700000003,7046,WL,C,13.0
3,36.82099986076355,learn,23179.00013923645,Fri Feb 07 2025 13:30:30 GMT-0600 (Central Standard Time),442269.30000000447,A,do,O,o,314,1,9896.60000000149,432372.700000003,7046,WL,C,13.0
3,36.9539999961853,learn,23046.000003814697,Fri Feb 07 2025 13:30:30 GMT-0600 (Central Standard Time),442402.700000003,A,doc,O,c,126,1,10030.0,432372.700000003,7046,WL,C,13.0
3,37.22000002861023,learn,22779.99997138977,Fri Feb 07 2025 13:30:30 GMT-0600 (Central Standard Time),442669.0,A,doct,O,t,248,1,10296.29999999702,432372.700000003,7046,WL,C,13.0
3,37.36999988555908,learn,22630.000114440918,Fri Feb 07 2025 13:30:30 GMT-0600 (Central Standard Time),442819.0,A,docto,O,o,134,1,10446.29999999702,432372.700000003,7046,WL,C,13.0
3,37.47099995613098,learn,22529.00004386902,Fri Feb 07 2025 13:30:30 GMT-0600 (Central Standard Time),442919.1000000015,A,doctor,O,r,87,1,10546.39999999851,432372.700000003,7046,WL,C,13.0
3,37.919999837875366,learn,22080.000162124634,Fri Feb 07 2025 13:30:30 GMT-0600 (Central Standard Time),443368.90000000596,A,doctorenter,O,enter,427,1,10996.20000000298,432372.700000003,7046,WL,C,13.0
3,60.01300001144409,learn,-13.000011444091797,Fri Feb 07 2025 13:30:30 GMT-0600 (Central Standard Time),465462.0,A,None,O,None,22086,1,22092.69999999553,443369.30000000447,7046,WL,C,14.0
4,0.7659997940063477,learn,59234.00020599365,Fri Feb 07 2025 13:30:30 GMT-0600 (Central Standard Time),542904.3000000045,A,c,O,c,754,1,766.2000000029802,542138.1000000015,7046,WL,C,1.0
4,0.8999998569488525,learn,59100.00014305115,Fri Feb 07 2025 13:30:30 GMT-0600 (Central Standard Time),543037.700000003,A,ca,O,a,122,1,899.6000000014901,542138.1000000015,7046,WL,C,1.0
4,1.182999849319458,learn,58817.00015068054,Fri Feb 07 2025 13:30:30 GMT-0600 (Central Standard Time),543321.0,A,cat,O,t,269,1,1182.8999999985099,542138.1000000015,7046,WL,C,1.0
4,1.3829998970031738,learn,58617.000102996826,Fri Feb 07 2025 13:30:30 GMT-0600 (Central Standard Time),543520.900000006,A,catt,O,t,186,1,1382.8000000044703,542138.1000000015,7046,WL,C,1.0
4,1.498999834060669,learn,58501.00016593933,Fri Feb 07 2025 13:30:30 GMT-0600 (Central Standard Time),543637.5,A,cattl,O,l,98,1,1499.3999999985099,542138.1000000015,7046,WL,C,1.0
4,1.6329998970031738,learn,58367.000102996826,Fri Feb 07 2025 13:30:30 GMT-0600 (Central Standard Time),543771.1000000015,A,cattle,O,e,110,1,1633.0,542138.1000000015,7046,WL,C,1.0
4,2.0329999923706055,learn,57967.000007629395,Fri Feb 07 2025 13:30:30 GMT-0600 (Central Standard Time),544170.700000003,A,cattleenter,O,enter,384,1,2032.6000000014901,542138.1000000015,7046,WL,C,1.0
4,2.3329999446868896,learn,57667.00005531311,Fri Feb 07 2025 13:30:30 GMT-0600 (Central Standard Time),544470.6000000015,A,s,O,s,288,1,299.5,544171.1000000015,7046,WL,C,2.0
4,2.548999786376953,learn,57451.00021362305,Fri Feb 07 2025 13:30:30 GMT-0600 (Central Standard Time),544687.200000003,A,sh,O,h,205,1,516.1000000014901,544171.1000000015,7046,WL,C,2.0
4,2.631999969482422,learn,57368.00003051758,Fri Feb 07 2025 13:30:30 GMT-0600 (Central Standard Time),544770.6000000015,A,sho,O,o,67,1,599.5,544171.1000000015,7046,WL,C,2.0
4,2.7659997940063477,learn,57234.00020599365,Fri Feb 07 2025 13:30:30 GMT-0600 (Central Standard Time),544903.900000006,A,shor,O,r,120,1,732.8000000044703,544171.1000000015,7046,WL,C,2.0
4,2.8329999446868896,learn,57167.00005531311,Fri Feb 07 2025 13:30:30 GMT-0600 (Central Standard Time),544970.8000000045,A,shore,O,e,43,1,799.7000000029802,544171.1000000015,7046,WL,C,2.0
4,3.3320000171661377,learn,56667.99998283386,Fri Feb 07 2025 13:30:30 GMT-0600 (Central Standard Time),545470.3000000045,A,shoreenter,O,enter,487,1,1299.2000000029802,544171.1000000015,7046,WL,C,2.0
4,3.8989999294281006,learn,56101.0000705719,Fri Feb 07 2025 13:30:30 GMT-0600 (Central Standard Time),546036.8000000045,A,b,O,b,557,1,566.2000000029802,545470.6000000015,7046,WL,C,3.0
4,4.082000017166138,learn,55917.99998283386,Fri Feb 07 2025 13:30:30 GMT-0600 (Central Standard Time),546220.200000003,A,bo,O,o,174,1,749.6000000014901,545470.6000000015,7046,WL,C,3.0
4,4.347999811172485,learn,55652.000188827515,Fri Feb 07 2025 13:30:30 GMT-0600 (Central Standard Time),546486.5,A,bod,O,d,254,1,1015.8999999985099,545470.6000000015,7046,WL,C,3.0
4,4.497999906539917,learn,55502.00009346008,Fri Feb 07 2025 13:30:30 GMT-0600 (Central Standard Time),546636.6000000015,A,body,O,y,132,1,1166.0,545470.6000000015,7046,WL,C,3.0
4,4.881999969482422,learn,55118.00003051758,Fri Feb 07 2025 13:30:30 GMT-0600 (Central Standard Time),547019.8000000045,A,bodyenter,O,enter,374,1,1549.2000000029802,545470.6000000015,7046,WL,C,3.0
4,5.708999872207642,learn,54291.00012779236,Fri Feb 07 2025 13:30:30 GMT-0600 (Central Standard Time),547847.400000006,A,q,O,q,803,1,827.4000000059605,547020.0,7046,WL,C,4.0
4,5.898000001907349,learn,54101.99999809265,Fri Feb 07 2025 13:30:30 GMT-0600 (Central Standard Time),548036.200000003,A,qu,O,u,180,1,1016.2000000029802,547020.0,7046,WL,C,4.0
4,6.014999866485596,learn,53985.000133514404,Fri Feb 07 2025 13:30:30 GMT-0600 (Central Standard Time),548152.8000000045,A,que,O,e,95,1,1132.8000000044703,547020.0,7046,WL,C,4.0
4,6.164999961853027,learn,53835.00003814697,Fri Feb 07 2025 13:30:30 GMT-0600 (Central Standard Time),548302.8000000045,A,quee,O,e,138,1,1282.8000000044703,547020.0,7046,WL,C,4.0
4,6.2809998989105225,learn,53719.00010108948,Fri Feb 07 2025 13:30:30 GMT-0600 (Central Standard Time),548419.1000000015,A,queen,O,n,109,1,1399.1000000014901,547020.0,7046,WL,C,4.0
4,6.5309998989105225,learn,53469.00010108948,Fri Feb 07 2025 13:30:30 GMT-0600 (Central Standard Time),548669.400000006,A,queenenter,O,enter,232,1,1649.4000000059605,547020.0,7046,WL,C,4.0
4,7.498999834060669,learn,52501.00016593933,Fri Feb 07 2025 13:30:30 GMT-0600 (Central Standard Time),549636.900000006,A,h,O,h,949,1,967.0,548669.900000006,7046,WL,C,5.0
4,7.71399998664856,learn,52286.00001335144,Fri Feb 07 2025 13:30:30 GMT-0600 (Central Standard Time),549852.200000003,A,ho,O,o,197,1,1182.2999999970198,548669.900000006,7046,WL,C,5.0
4,7.880999803543091,learn,52119.00019645691,Fri Feb 07 2025 13:30:30 GMT-0600 (Central Standard Time),550018.8000000045,A,hom,O,m,142,1,1348.8999999985099,548669.900000006,7046,WL,C,5.0
4,7.996999979019165,learn,52003.000020980835,Fri Feb 07 2025 13:30:30 GMT-0600 (Central Standard Time),550135.400000006,A,home,O,e,96,1,1465.5,548669.900000006,7046,WL,C,5.0
4,8.413999795913696,learn,51586.000204086304,Fri Feb 07 2025 13:30:30 GMT-0600 (Central Standard Time),550552.400000006,A,homeenter,O,enter,396,1,1882.5,548669.900000006,7046,WL,C,5.0
4,8.730999946594238,learn,51269.00005340576,Fri Feb 07 2025 13:30:30 GMT-0600 (Central Standard Time),550868.6000000015,A,f,O,f,307,1,316.0,550552.6000000015,7046,WL,C,6.0
4,8.846999883651733,learn,51153.00011634827,Fri Feb 07 2025 13:30:30 GMT-0600 (Central Standard Time),550985.400000006,A,fl,O,l,102,1,432.80000000447035,550552.6000000015,7046,WL,C,6.0
4,9.030999898910522,learn,50969.00010108948,Fri Feb 07 2025 13:30:30 GMT-0600 (Central Standard Time),551168.6000000015,A,fla,O,a,162,1,616.0,550552.6000000015,7046,WL,C,6.0
4,9.179999828338623,learn,50820.00017166138,Fri Feb 07 2025 13:30:30 GMT-0600 (Central Standard Time),551318.3000000045,A,flaa,O,a,138,1,765.7000000029802,550552.6000000015,7046,WL,C,6.0
4,9.329999923706055,learn,50670.000076293945,Fri Feb 07 2025 13:30:30 GMT-0600 (Central Standard Time),551468.3000000045,A,flaag,O,g,141,1,915.7000000029802,550552.6000000015,7046,WL,C,6.0
4,9.846999883651733,learn,50153.00011634827,Fri Feb 07 2025 13:30:30 GMT-0600 (Central Standard Time),551984.900000006,A,flaa,O,backspace,495,1,1432.3000000044703,550552.6000000015,7046,WL,C,6.0
4,9.913999795913696,learn,50086.000204086304,Fri Feb 07 2025 13:30:30 GMT-0600 (Central Standard Time),552051.6000000015,A,flaag,O,g,50,1,1499.0,550552.6000000015,7046,WL,C,6.0
4,10.496999979019165,learn,49503.000020980835,Fri Feb 07 2025 13:30:30 GMT-0600 (Central Standard Time),552634.6000000015,A,flaa,O,backspace,575,1,2082.0,550552.6000000015,7046,WL,C,6.0
4,11.013000011444092,learn,48986.99998855591,Fri Feb 07 2025 13:30:30 GMT-0600 (Central Standard Time),553151.3000000045,A,fla,O,backspace,496,1,2598.7000000029802,550552.6000000015,7046,WL,C,6.0
4,11.162999868392944,learn,48837.000131607056,Fri Feb 07 2025 13:30:30 GMT-0600 (Central Standard Time),553301.200000003,A,flag,O,g,131,1,2748.60000000149,550552.6000000015,7046,WL,C,6.0
4,11.52999997138977,learn,48470.00002861023,Fri Feb 07 2025 13:30:30 GMT-0600 (Central Standard Time),553667.6000000015,A,flagenter,O,enter,357,1,3115.0,550552.6000000015,7046,WL,C,6.0
4,12.263000011444092,learn,47736.99998855591,Fri Feb 07 2025 13:30:30 GMT-0600 (Central Standard Time),554400.8000000045,A,d,O,d,720,1,732.8999999985099,553667.900000006,7046,WL,C,7.0
4,12.495999813079834,learn,47504.000186920166,Fri Feb 07 2025 13:30:30 GMT-0600 (Central Standard Time),554634.1000000015,A,do,O,o,218,1,966.1999999955297,553667.900000006,7046,WL,C,7.0
4,12.628999948501587,learn,47371.00005149841,Fri Feb 07 2025 13:30:30 GMT-0600 (Central Standard Time),554767.5,A,doc,O,c,121,1,1099.5999999940395,553667.900000006,7046,WL,C,7.0
4,12.845999956130981,learn,47154.00004386902,Fri Feb 07 2025 13:30:30 GMT-0600 (Central Standard Time),554983.8000000045,A,doct,O,t,203,1,1315.8999999985099,553667.900000006,7046,WL,C,7.0
4,12.995999813079834,learn,47004.000186920166,Fri Feb 07 2025 13:30:30 GMT-0600 (Central Standard Time),555134.1000000015,A,docto,O,o,139,1,1466.1999999955297,553667.900000006,7046,WL,C,7.0
4,13.111999988555908,learn,46888.00001144409,Fri Feb 07 2025 13:30:30 GMT-0600 (Central Standard Time),555250.5,A,doctor,O,r,101,1,1582.5999999940395,553667.900000006,7046,WL,C,7.0
4,13.51199984550476,learn,46488.00015449524,Fri Feb 07 2025 13:30:30 GMT-0600 (Central Standard Time),555650.5,A,doctorenter,O,enter,392,1,1982.5999999940395,553667.900000006,7046,WL,C,7.0
4,14.02899980545044,learn,45971.00019454956,Fri Feb 07 2025 13:30:30 GMT-0600 (Central Standard Time),556167.1000000015,A,n,O,n,504,1,516.2999999970198,555650.8000000045,7046,WL,C,8.0
4,14.145999908447266,learn,45854.000091552734,Fri Feb 07 2025 13:30:30 GMT-0600 (Central Standard Time),556283.900000006,A,na,O,a,100,1,633.1000000014901,555650.8000000045,7046,WL,C,8.0
4,14.26199984550476,learn,45738.00015449524,Fri Feb 07 2025 13:30:30 GMT-0600 (Central Standard Time),556400.5,A,nai,O,i,95,1,749.6999999955297,555650.8000000045,7046,WL,C,8.0
4,14.444999933242798,learn,45555.0000667572,Fri Feb 07 2025 13:30:30 GMT-0600 (Central Standard Time),556583.5,A,nail,O,l,162,1,932.6999999955297,555650.8000000045,7046,WL,C,8.0
4,14.911999940872192,learn,45088.00005912781,Fri Feb 07 2025 13:30:30 GMT-0600 (Central Standard Time),557050.0,A,nailenter,O,enter,452,1,1399.1999999955297,555650.8000000045,7046,WL,C,8.0
4,18.09599995613098,learn,41904.00004386902,Fri Feb 07 2025 13:30:30 GMT-0600 (Central Standard Time),560233.6000000015,A,s,O,s,3169,1,3183.39999999851,557050.200000003,7046,WL,C,9.0
4,18.24399995803833,learn,41756.00004196167,Fri Feb 07 2025 13:30:30 GMT-0600 (Central Standard Time),560382.400000006,A,su,O,u,137,1,3332.2000000029802,557050.200000003,7046,WL,C,9.0
4,18.378000020980835,learn,41621.999979019165,Fri Feb 07 2025 13:30:30 GMT-0600 (Central Standard Time),560515.700000003,A,sug,O,g,124,1,3465.5,557050.200000003,7046,WL,C,9.0
4,18.51099991798401,learn,41489.00008201599,Fri Feb 07 2025 13:30:30 GMT-0600 (Central Standard Time),560648.8000000045,A,suga,O,a,119,1,3598.60000000149,557050.200000003,7046,WL,C,9.0
4,18.5939998626709,learn,41406.0001373291,Fri Feb 07 2025 13:30:30 GMT-0600 (Central Standard Time),560732.3000000045,A,sugar,O,r,66,1,3682.10000000149,557050.200000003,7046,WL,C,9.0
4,18.878000020980835,learn,41121.999979019165,Fri Feb 07 2025 13:30:30 GMT-0600 (Central Standard Time),561015.700000003,A,sugarenter,O,enter,262,1,3965.5,557050.200000003,7046,WL,C,9.0
4,19.16100001335144,learn,40838.99998664856,Fri Feb 07 2025 13:30:30 GMT-0600 (Central Standard Time),561298.8000000045,A,c,O,c,267,1,282.80000000447035,561016.0,7046,WL,C,10.0
4,19.26099991798401,learn,40739.00008201599,Fri Feb 07 2025 13:30:30 GMT-0600 (Central Standard Time),561398.8000000045,A,co,O,o,80,1,382.80000000447035,561016.0,7046,WL,C,10.0
4,19.376999855041504,learn,40623.000144958496,Fri Feb 07 2025 13:30:30 GMT-0600 (Central Standard Time),561515.200000003,A,cor,O,r,109,1,499.20000000298023,561016.0,7046,WL,C,10.0
4,19.526999950408936,learn,40473.000049591064,Fri Feb 07 2025 13:30:30 GMT-0600 (Central Standard Time),561665.3000000045,A,corn,O,n,136,1,649.3000000044703,561016.0,7046,WL,C,10.0
4,19.793999910354614,learn,40206.000089645386,Fri Feb 07 2025 13:30:30 GMT-0600 (Central Standard Time),561931.900000006,A,cornenter,O,enter,250,1,915.9000000059605,561016.0,7046,WL,C,10.0
4,20.143999814987183,learn,39856.00018501282,Fri Feb 07 2025 13:30:30 GMT-0600 (Central Standard Time),562281.700000003,A,w,O,w,335,1,349.5,561932.200000003,7046,WL,C,11.0
4,20.293999910354614,learn,39706.000089645386,Fri Feb 07 2025 13:30:30 GMT-0600 (Central Standard Time),562431.8000000045,A,wh,O,h,137,1,499.6000000014901,561932.200000003,7046,WL,C,11.0
4,20.376999855041504,learn,39623.000144958496,Fri Feb 07 2025 13:30:30 GMT-0600 (Central Standard Time),562515.0,A,whe,O,e,75,1,582.7999999970198,561932.200000003,7046,WL,C,11.0
4,20.55999994277954,learn,39440.00005722046,Fri Feb 07 2025 13:30:30 GMT-0600 (Central Standard Time),562698.200000003,A,whea,O,a,167,1,766.0,561932.200000003,7046,WL,C,11.0
4,20.65999984741211,learn,39340.00015258789,Fri Feb 07 2025 13:30:30 GMT-0600 (Central Standard Time),562798.3000000045,A,wheat,O,t,80,1,866.1000000014901,561932.200000003,7046,WL,C,11.0
4,21.126999855041504,learn,38873.000144958496,Fri Feb 07 2025 13:30:30 GMT-0600 (Central Standard Time),563264.6000000015,A,wheatenter,O,enter,445,1,1332.3999999985099,561932.200000003,7046,WL,C,11.0
4,26.241999864578247,learn,33758.00013542175,Fri Feb 07 2025 13:30:30 GMT-0600 (Central Standard Time),568379.8000000045,A,h,O,h,5099,1,5114.89999999851,563264.900000006,7046,WL,C,12.0
4,26.307999849319458,learn,33692.00015068054,Fri Feb 07 2025 13:30:30 GMT-0600 (Central Standard Time),568446.3000000045,A,ho,O,o,55,1,5181.39999999851,563264.900000006,7046,WL,C,12.0
4,26.441999912261963,learn,33558.00008773804,Fri Feb 07 2025 13:30:30 GMT-0600 (Central Standard Time),568579.6000000015,A,hom,O,m,117,1,5314.69999999553,563264.900000006,7046,WL,C,12.0
4,26.54199981689453,learn,33458.00018310547,Fri Feb 07 2025 13:30:30 GMT-0600 (Central Standard Time),568679.700000003,A,home,O,e,89,1,5414.79999999702,563264.900000006,7046,WL,C,12.0
4,26.842000007629395,learn,33157.999992370605,Fri Feb 07 2025 13:30:30 GMT-0600 (Central Standard Time),568979.6000000015,A,homeenter,O,enter,284,1,5714.69999999553,563264.900000006,7046,WL,C,12.0
4,31.156999826431274,learn,28843.000173568726,Fri Feb 07 2025 13:30:30 GMT-0600 (Central Standard Time),573295.0,A,t,O,t,4305,1,4315.0999999940395,568979.900000006,7046,WL,C,13.0
4,31.27300000190735,learn,28726.99999809265,Fri Feb 07 2025 13:30:30 GMT-0600 (Central Standard Time),573411.400000006,A,to,O,o,108,1,4431.5,568979.900000006,7046,WL,C,13.0
4,31.35699987411499,learn,28643.00012588501,Fri Feb 07 2025 13:30:30 GMT-0600 (Central Standard Time),573494.900000006,A,tow,O,w,63,1,4515.0,568979.900000006,7046,WL,C,13.0
4,31.490000009536743,learn,28509.999990463257,Fri Feb 07 2025 13:30:30 GMT-0600 (Central Standard Time),573628.200000003,A,towe,O,e,124,1,4648.29999999702,568979.900000006,7046,WL,C,13.0
4,31.572999954223633,learn,28427.000045776367,Fri Feb 07 2025 13:30:30 GMT-0600 (Central Standard Time),573711.400000006,A,tower,O,r,71,1,4731.5,568979.900000006,7046,WL,C,13.0
4,31.93999981880188,learn,28060.00018119812,Fri Feb 07 2025 13:30:30 GMT-0600 (Central Standard Time),574078.1000000015,A,towerenter,O,enter,347,1,5098.19999999553,568979.900000006,7046,WL,C,13.0
4,32.40599989891052,learn,27594.000101089478,Fri Feb 07 2025 13:30:30 GMT-0600 (Central Standard Time),574544.400000006,A,g,O,g,445,1,466.1000000014901,574078.3000000045,7046,WL,C,14.0
4,32.53999996185303,learn,27460.000038146973,Fri Feb 07 2025 13:30:30 GMT-0600 (Central Standard Time),574677.8000000045,A,gl,O,l,114,1,599.5,574078.3000000045,7046,WL,C,14.0
4,33.12299990653992,learn,26877.000093460083,Fri Feb 07 2025 13:30:30 GMT-0600 (Central Standard Time),575261.1000000015,A,g,O,backspace,565,1,1182.7999999970198,574078.3000000045,7046,WL,C,14.0
4,33.28999996185303,learn,26710.000038146973,Fri Feb 07 2025 13:30:30 GMT-0600 (Central Standard Time),575427.700000003,A,,O,backspace,151,1,1349.3999999985099,574078.3000000045,7046,WL,C,14.0
4,33.4229998588562,learn,26577.0001411438,Fri Feb 07 2025 13:30:30 GMT-0600 (Central Standard Time),575561.0,A,f,O,f,120,1,1482.6999999955297,574078.3000000045,7046,WL,C,14.0
4,33.57299995422363,learn,26427.000045776367,Fri Feb 07 2025 13:30:30 GMT-0600 (Central Standard Time),575711.0,A,fl,O,l,130,1,1632.6999999955297,574078.3000000045,7046,WL,C,14.0
4,33.83899998664856,learn,26161.00001335144,Fri Feb 07 2025 13:30:30 GMT-0600 (Central Standard Time),575977.5,A,fla,O,a,252,1,1899.1999999955297,574078.3000000045,7046,WL,C,14.0
4,34.055999994277954,learn,25944.000005722046,Fri Feb 07 2025 13:30:30 GMT-0600 (Central Standard Time),576194.3000000045,A,flag,O,g,193,1,2116.0,574078.3000000045,7046,WL,C,14.0
4,34.35599994659424,learn,25644.00005340576,Fri Feb 07 2025 13:30:30 GMT-0600 (Central Standard Time),576493.900000006,A,flagenter,O,enter,281,1,2415.60000000149,574078.3000000045,7046,WL,C,14.0
4,36.25499987602234,learn,23745.00012397766,Fri Feb 07 2025 13:30:30 GMT-0600 (Central Standard Time),578393.3000000045,A,c,O,c,1885,1,1899.1000000014901,576494.200000003,7046,WL,C,15.0
4,36.40499997138977,learn,23595.00002861023,Fri Feb 07 2025 13:30:30 GMT-0600 (Central Standard Time),578543.5,A,ca,O,a,137,1,2049.2999999970198,576494.200000003,7046,WL,C,15.0
4,36.48899984359741,learn,23511.000156402588,Fri Feb 07 2025 13:30:30 GMT-0600 (Central Standard Time),578626.900000006,A,cat,O,t,76,1,2132.7000000029802,576494.200000003,7046,WL,C,15.0
4,36.67199993133545,learn,23328.00006866455,Fri Feb 07 2025 13:30:30 GMT-0600 (Central Standard Time),578809.900000006,A,catt,O,t,160,1,2315.7000000029802,576494.200000003,7046,WL,C,15.0
4,36.75499987602234,learn,23245.00012397766,Fri Feb 07 2025 13:30:30 GMT-0600 (Central Standard Time),578893.3000000045,A,cattl,O,l,64,1,2399.10000000149,576494.200000003,7046,WL,C,15.0
4,36.83799982070923,learn,23162.00017929077,Fri Feb 07 2025 13:30:30 GMT-0600 (Central Standard Time),578976.400000006,A,cattle,O,e,70,1,2482.2000000029802,576494.200000003,7046,WL,C,15.0
4,37.25499987602234,learn,22745.00012397766,Fri Feb 07 2025 13:30:30 GMT-0600 (Central Standard Time),579393.3000000045,A,cattleenter,O,enter,403,1,2899.10000000149,576494.200000003,7046,WL,C,15.0
5,0.8169999122619629,learn,60000.0,Fri Feb 07 2025 13:30:30 GMT-0600 (Central Standard Time),648538.6000000015,A,s,O,s,794,1,816.7999999970198,647721.8000000045,7046,WL,C,1.0
5,1.2329998016357422,learn,60000.0,Fri Feb 07 2025 13:30:30 GMT-0600 (Central Standard Time),648954.8000000045,A,sh,O,h,408,1,1233.0,647721.8000000045,7046,WL,C,1.0
5,1.366999864578247,learn,60000.0,Fri Feb 07 2025 13:30:30 GMT-0600 (Central Standard Time),649088.200000003,A,sho,O,o,112,1,1366.3999999985099,647721.8000000045,7046,WL,C,1.0
5,1.5,learn,60000.0,Fri Feb 07 2025 13:30:30 GMT-0600 (Central Standard Time),649221.3000000045,A,shor,O,r,114,1,1499.5,647721.8000000045,7046,WL,C,1.0
5,1.5499999523162842,learn,60000.0,Fri Feb 07 2025 13:30:30 GMT-0600 (Central Standard Time),649271.0,A,shore,O,e,38,1,1549.1999999955297,647721.8000000045,7046,WL,C,1.0
5,1.9159998893737793,learn,60000.0,Fri Feb 07 2025 13:30:30 GMT-0600 (Central Standard Time),649637.700000003,A,shoreenter,O,enter,354,1,1915.8999999985099,647721.8000000045,7046,WL,C,1.0
5,2.615999937057495,learn,60000.0,Fri Feb 07 2025 13:30:30 GMT-0600 (Central Standard Time),650337.700000003,A,b,O,b,678,1,699.6000000014901,649638.1000000015,7046,WL,C,2.0
5,2.882999897003174,learn,60000.0,Fri Feb 07 2025 13:30:30 GMT-0600 (Central Standard Time),650604.1000000015,A,bo,O,o,257,1,966.0,649638.1000000015,7046,WL,C,2.0
5,3.065999984741211,learn,60000.0,Fri Feb 07 2025 13:30:30 GMT-0600 (Central Standard Time),650787.3000000045,A,bod,O,d,159,1,1149.2000000029802,649638.1000000015,7046,WL,C,2.0
5,3.2159998416900635,learn,60000.0,Fri Feb 07 2025 13:30:30 GMT-0600 (Central Standard Time),650937.200000003,A,body,O,y,136,1,1299.1000000014901,649638.1000000015,7046,WL,C,2.0
5,3.5159997940063477,learn,60000.0,Fri Feb 07 2025 13:30:30 GMT-0600 (Central Standard Time),651237.3000000045,A,bodyenter,O,enter,291,1,1599.2000000029802,649638.1000000015,7046,WL,C,2.0
5,3.8489999771118164,learn,60000.0,Fri Feb 07 2025 13:30:30 GMT-0600 (Central Standard Time),651570.6000000015,A,c,O,c,318,1,333.0,651237.6000000015,7046,WL,C,3.0
5,3.9159998893737793,learn,60000.0,Fri Feb 07 2025 13:30:30 GMT-0600 (Central Standard Time),651637.200000003,A,ca,O,a,48,1,399.6000000014901,651237.6000000015,7046,WL,C,3.0
5,4.181999921798706,learn,60000.0,Fri Feb 07 2025 13:30:30 GMT-0600 (Central Standard Time),651903.700000003,A,cam,O,m,253,1,666.1000000014901,651237.6000000015,7046,WL,C,3.0
5,4.264999866485596,learn,60000.0,Fri Feb 07 2025 13:30:30 GMT-0600 (Central Standard Time),651986.8000000045,A,camp,O,p,75,1,749.2000000029802,651237.6000000015,7046,WL,C,3.0
5,4.614999771118164,learn,60000.0,Fri Feb 07 2025 13:30:30 GMT-0600 (Central Standard Time),652336.900000006,A,campenter,O,enter,328,1,1099.3000000044703,651237.6000000015,7046,WL,C,3.0
5,4.947999954223633,learn,60000.0,Fri Feb 07 2025 13:30:30 GMT-0600 (Central Standard Time),652670.1000000015,A,l,O,l,314,1,332.79999999701977,652337.3000000045,7046,WL,C,4.0
5,5.06499981880188,learn,60000.0,Fri Feb 07 2025 13:30:30 GMT-0600 (Central Standard Time),652786.900000006,A,le,O,e,100,1,449.6000000014901,652337.3000000045,7046,WL,C,4.0
5,5.398000001907349,learn,60000.0,Fri Feb 07 2025 13:30:30 GMT-0600 (Central Standard Time),653120.200000003,A,let,O,t,312,1,782.8999999985099,652337.3000000045,7046,WL,C,4.0
5,5.5309998989105225,learn,60000.0,Fri Feb 07 2025 13:30:30 GMT-0600 (Central Standard Time),653253.400000006,A,lett,O,t,123,1,916.1000000014901,652337.3000000045,7046,WL,C,4.0
5,5.915999889373779,learn,60000.0,Fri Feb 07 2025 13:30:30 GMT-0600 (Central Standard Time),653637.8000000045,A,lette,O,e,365,1,1300.5,652337.3000000045,7046,WL,C,4.0
5,5.96399998664856,learn,60000.0,Fri Feb 07 2025 13:30:30 GMT-0600 (Central Standard Time),653686.400000006,A,letter,O,r,29,1,1349.1000000014901,652337.3000000045,7046,WL,C,4.0
5,6.380999803543091,learn,60000.0,Fri Feb 07 2025 13:30:30 GMT-0600 (Central Standard Time),654102.900000006,A,letterenter,O,enter,396,1,1765.6000000014901,652337.3000000045,7046,WL,C,4.0
5,6.580999851226807,learn,60000.0,Fri Feb 07 2025 13:30:30 GMT-0600 (Central Standard Time),654303.0,A,t,O,t,180,1,199.69999999552965,654103.3000000045,7046,WL,C,5.0
5,6.680999994277954,learn,60000.0,Fri Feb 07 2025 13:30:30 GMT-0600 (Central Standard Time),654403.1000000015,A,to,O,o,92,1,299.79999999701977,654103.3000000045,7046,WL,C,5.0
5,6.813999891281128,learn,60000.0,Fri Feb 07 2025 13:30:30 GMT-0600 (Central Standard Time),654536.1000000015,A,tow,O,w,112,1,432.79999999701977,654103.3000000045,7046,WL,C,5.0
5,6.997999906539917,learn,60000.0,Fri Feb 07 2025 13:30:30 GMT-0600 (Central Standard Time),654719.700000003,A,towe,O,e,162,1,616.3999999985099,654103.3000000045,7046,WL,C,5.0
5,7.063999891281128,learn,60000.0,Fri Feb 07 2025 13:30:30 GMT-0600 (Central Standard Time),654786.1000000015,A,tower,O,r,52,1,682.7999999970198,654103.3000000045,7046,WL,C,5.0
5,7.363999843597412,learn,60000.0,Fri Feb 07 2025 13:30:30 GMT-0600 (Central Standard Time),655086.0,A,towerenter,O,enter,290,1,982.6999999955297,654103.3000000045,7046,WL,C,5.0
5,7.597999811172485,learn,60000.0,Fri Feb 07 2025 13:30:30 GMT-0600 (Central Standard Time),655319.6000000015,A,f,O,f,213,1,233.19999999552965,655086.400000006,7046,WL,C,6.0
5,7.929999828338623,learn,60000.0,Fri Feb 07 2025 13:30:30 GMT-0600 (Central Standard Time),655652.400000006,A,,O,backspace,315,1,566.0,655086.400000006,7046,WL,C,6.0
5,8.46399998664856,learn,60000.0,Fri Feb 07 2025 13:30:30 GMT-0600 (Central Standard Time),656185.700000003,A,f,O,f,520,1,1099.2999999970198,655086.400000006,7046,WL,C,6.0
5,8.613999843597412,learn,60000.0,Fri Feb 07 2025 13:30:30 GMT-0600 (Central Standard Time),656335.6000000015,A,fl,O,l,138,1,1249.1999999955297,655086.400000006,7046,WL,C,6.0
5,8.763999938964844,learn,60000.0,Fri Feb 07 2025 13:30:30 GMT-0600 (Central Standard Time),656485.5,A,fla,O,a,131,1,1399.0999999940395,655086.400000006,7046,WL,C,6.0
5,8.979999780654907,learn,60000.0,Fri Feb 07 2025 13:30:30 GMT-0600 (Central Standard Time),656702.200000003,A,flag,O,g,206,1,1615.7999999970198,655086.400000006,7046,WL,C,6.0
5,9.31499981880188,learn,60000.0,Fri Feb 07 2025 13:30:30 GMT-0600 (Central Standard Time),657036.6000000015,A,flagenter,O,enter,324,1,1950.1999999955297,655086.400000006,7046,WL,C,6.0
5,9.929999828338623,learn,60000.0,Fri Feb 07 2025 13:30:30 GMT-0600 (Central Standard Time),657652.0,A,h,O,h,607,1,615.0999999940395,657036.900000006,7046,WL,C,7.0
5,10.145999908447266,learn,60000.0,Fri Feb 07 2025 13:30:30 GMT-0600 (Central Standard Time),657868.200000003,A,ho,O,o,207,1,831.2999999970198,657036.900000006,7046,WL,C,7.0
5,10.245999813079834,learn,60000.0,Fri Feb 07 2025 13:30:30 GMT-0600 (Central Standard Time),657968.200000003,A,hom,O,m,79,1,931.2999999970198,657036.900000006,7046,WL,C,7.0
5,10.395999908447266,learn,60000.0,Fri Feb 07 2025 13:30:30 GMT-0600 (Central Standard Time),658118.400000006,A,home,O,e,138,1,1081.5,657036.900000006,7046,WL,C,7.0
5,10.629999876022339,learn,60000.0,Fri Feb 07 2025 13:30:30 GMT-0600 (Central Standard Time),658351.700000003,A,homeenter,O,enter,221,1,1314.7999999970198,657036.900000006,7046,WL,C,7.0
5,10.995999813079834,learn,60000.0,Fri Feb 07 2025 13:30:30 GMT-0600 (Central Standard Time),658718.3000000045,A,q,O,q,356,1,366.20000000298023,658352.1000000015,7046,WL,C,8.0
5,11.845999956130981,learn,60000.0,Fri Feb 07 2025 13:30:30 GMT-0600 (Central Standard Time),659568.0,A,qu,O,u,837,1,1215.8999999985099,658352.1000000015,7046,WL,C,8.0
5,11.94599986076355,learn,60000.0,Fri Feb 07 2025 13:30:30 GMT-0600 (Central Standard Time),659667.900000006,A,que,O,e,83,1,1315.8000000044703,658352.1000000015,7046,WL,C,8.0
5,12.095999956130981,learn,60000.0,Fri Feb 07 2025 13:30:30 GMT-0600 (Central Standard Time),659818.0,A,quee,O,e,135,1,1465.8999999985099,658352.1000000015,7046,WL,C,8.0
5,12.245999813079834,learn,60000.0,Fri Feb 07 2025 13:30:30 GMT-0600 (Central Standard Time),659968.1000000015,A,queen,O,n,129,1,1616.0,658352.1000000015,7046,WL,C,8.0
5,12.495999813079834,learn,60000.0,Fri Feb 07 2025 13:30:30 GMT-0600 (Central Standard Time),660218.3000000045,A,queenenter,O,enter,242,1,1866.2000000029802,658352.1000000015,7046,WL,C,8.0
5,12.77899980545044,learn,60000.0,Fri Feb 07 2025 13:30:30 GMT-0600 (Central Standard Time),660501.0,A,b,O,b,273,1,282.29999999701977,660218.700000003,7046,WL,C,9.0
5,12.911999940872192,learn,60000.0,Fri Feb 07 2025 13:30:30 GMT-0600 (Central Standard Time),660634.3000000045,A,bo,O,o,120,1,415.6000000014901,660218.700000003,7046,WL,C,9.0
5,13.128999948501587,learn,60000.0,Fri Feb 07 2025 13:30:30 GMT-0600 (Central Standard Time),660850.900000006,A,boy,O,y,194,1,632.2000000029802,660218.700000003,7046,WL,C,9.0
5,13.44599986076355,learn,60000.0,Fri Feb 07 2025 13:30:30 GMT-0600 (Central Standard Time),661167.700000003,A,boyenter,O,enter,295,1,949.0,660218.700000003,7046,WL,C,9.0
5,14.078999996185303,learn,60000.0,Fri Feb 07 2025 13:30:30 GMT-0600 (Central Standard Time),661800.700000003,A,d,O,d,612,1,632.7000000029802,661168.0,7046,WL,C,10.0
5,14.27899980545044,learn,60000.0,Fri Feb 07 2025 13:30:30 GMT-0600 (Central Standard Time),662000.5,A,do,O,o,178,1,832.5,661168.0,7046,WL,C,10.0
5,14.361999988555908,learn,60000.0,Fri Feb 07 2025 13:30:30 GMT-0600 (Central Standard Time),662083.900000006,A,doc,O,c,66,1,915.9000000059605,661168.0,7046,WL,C,10.0
5,14.544999837875366,learn,60000.0,Fri Feb 07 2025 13:30:30 GMT-0600 (Central Standard Time),662267.200000003,A,doct,O,t,176,1,1099.2000000029802,661168.0,7046,WL,C,10.0
5,14.694999933242798,learn,60000.0,Fri Feb 07 2025 13:30:30 GMT-0600 (Central Standard Time),662417.1000000015,A,docto,O,o,128,1,1249.1000000014901,661168.0,7046,WL,C,10.0
5,14.794999837875366,learn,60000.0,Fri Feb 07 2025 13:30:30 GMT-0600 (Central Standard Time),662517.200000003,A,doctor,O,r,81,1,1349.2000000029802,661168.0,7046,WL,C,10.0
5,15.744999885559082,learn,60000.0,Fri Feb 07 2025 13:30:30 GMT-0600 (Central Standard Time),663466.8000000045,A,doctorenter,O,enter,927,1,2298.8000000044703,661168.0,7046,WL,C,10.0
5,18.194000005722046,learn,60000.0,Fri Feb 07 2025 13:30:30 GMT-0600 (Central Standard Time),665916.1000000015,A,w,O,w,2433,1,2448.89999999851,663467.200000003,7046,WL,C,11.0
5,18.310999870300293,learn,60000.0,Fri Feb 07 2025 13:30:30 GMT-0600 (Central Standard Time),666032.700000003,A,wh,O,h,95,1,2565.5,663467.200000003,7046,WL,C,11.0
5,18.393999814987183,learn,60000.0,Fri Feb 07 2025 13:30:30 GMT-0600 (Central Standard Time),666116.1000000015,A,whe,O,e,67,1,2648.89999999851,663467.200000003,7046,WL,C,11.0
5,18.51099991798401,learn,60000.0,Fri Feb 07 2025 13:30:30 GMT-0600 (Central Standard Time),666232.6000000015,A,whea,O,a,103,1,2765.39999999851,663467.200000003,7046,WL,C,11.0
5,18.610999822616577,learn,60000.0,Fri Feb 07 2025 13:30:30 GMT-0600 (Central Standard Time),666333.1000000015,A,wheat,O,t,83,1,2865.89999999851,663467.200000003,7046,WL,C,11.0
5,18.944000005722046,learn,60000.0,Fri Feb 07 2025 13:30:30 GMT-0600 (Central Standard Time),666665.700000003,A,wheatenter,O,enter,310,1,3198.5,663467.200000003,7046,WL,C,11.0
5,19.0939998626709,learn,60000.0,Fri Feb 07 2025 13:30:30 GMT-0600 (Central Standard Time),666815.6000000015,A,c,O,c,129,1,149.5,666666.1000000015,7046,WL,C,12.0
5,19.209999799728394,learn,60000.0,Fri Feb 07 2025 13:30:30 GMT-0600 (Central Standard Time),666932.3000000045,A,co,O,o,100,1,266.20000000298023,666666.1000000015,7046,WL,C,12.0
5,19.30999994277954,learn,60000.0,Fri Feb 07 2025 13:30:30 GMT-0600 (Central Standard Time),667032.400000006,A,cor,O,r,87,1,366.30000000447035,666666.1000000015,7046,WL,C,12.0
5,19.47699999809265,learn,60000.0,Fri Feb 07 2025 13:30:30 GMT-0600 (Central Standard Time),667198.8000000045,A,corn,O,n,155,1,532.7000000029802,666666.1000000015,7046,WL,C,12.0
5,20.47699999809265,learn,60000.0,Fri Feb 07 2025 13:30:30 GMT-0600 (Central Standard Time),668198.6000000015,A,cornenter,O,enter,988,1,1532.5,666666.1000000015,7046,WL,C,12.0
5,20.759999990463257,learn,60000.0,Fri Feb 07 2025 13:30:30 GMT-0600 (Central Standard Time),668481.8000000045,A,a,O,a,261,1,282.8999999985099,668198.900000006,7046,WL,C,13.0
5,21.192999839782715,learn,60000.0,Fri Feb 07 2025 13:30:30 GMT-0600 (Central Standard Time),668915.0,A,,O,backspace,426,1,716.0999999940395,668198.900000006,7046,WL,C,13.0
5,21.292999982833862,learn,60000.0,Fri Feb 07 2025 13:30:30 GMT-0600 (Central Standard Time),669015.1000000015,A,c,O,c,80,1,816.1999999955297,668198.900000006,7046,WL,C,13.0
5,21.39299988746643,learn,60000.0,Fri Feb 07 2025 13:30:30 GMT-0600 (Central Standard Time),669114.900000006,A,ca,O,a,83,1,916.0,668198.900000006,7046,WL,C,13.0
5,21.509999990463257,learn,60000.0,Fri Feb 07 2025 13:30:30 GMT-0600 (Central Standard Time),669231.5,A,cam,O,m,104,1,1032.5999999940395,668198.900000006,7046,WL,C,13.0
5,21.64299988746643,learn,60000.0,Fri Feb 07 2025 13:30:30 GMT-0600 (Central Standard Time),669364.900000006,A,camp,O,p,116,1,1166.0,668198.900000006,7046,WL,C,13.0
5,22.242999792099,learn,60000.0,Fri Feb 07 2025 13:30:30 GMT-0600 (Central Standard Time),669964.6000000015,A,campenter,O,enter,591,1,1765.6999999955297,668198.900000006,7046,WL,C,13.0
5,26.390999794006348,learn,60000.0,Fri Feb 07 2025 13:30:30 GMT-0600 (Central Standard Time),674113.400000006,A,s,O,s,4127,1,4148.4000000059605,669965.0,7046,WL,C,14.0
5,26.557999849319458,learn,60000.0,Fri Feb 07 2025 13:30:30 GMT-0600 (Central Standard Time),674280.1000000015,A,su,O,u,145,1,4315.10000000149,669965.0,7046,WL,C,14.0
5,26.625,learn,60000.0,Fri Feb 07 2025 13:30:30 GMT-0600 (Central Standard Time),674346.700000003,A,sug,O,g,51,1,4381.70000000298,669965.0,7046,WL,C,14.0
5,26.740999937057495,learn,60000.0,Fri Feb 07 2025 13:30:30 GMT-0600 (Central Standard Time),674463.400000006,A,suga,O,a,104,1,4498.4000000059605,669965.0,7046,WL,C,14.0
5,26.824999809265137,learn,60000.0,Fri Feb 07 2025 13:30:30 GMT-0600 (Central Standard Time),674546.8000000045,A,sugar,O,r,76,1,4581.80000000447,669965.0,7046,WL,C,14.0
5,28.240999937057495,learn,60000.0,Fri Feb 07 2025 13:30:30 GMT-0600 (Central Standard Time),675962.8000000045,A,sugarenter,O,enter,1408,1,5997.80000000447,669965.0,7046,WL,C,14.0
5,34.68899989128113,learn,60000.0,Fri Feb 07 2025 13:30:30 GMT-0600 (Central Standard Time),682410.8000000045,A,n,O,n,6441,1,6447.70000000298,675963.1000000015,7046,WL,C,15.0
5,34.8219997882843,learn,60000.0,Fri Feb 07 2025 13:30:30 GMT-0600 (Central Standard Time),682544.1000000015,A,na,O,a,120,1,6581.0,675963.1000000015,7046,WL,C,15.0
5,34.90499997138977,learn,60000.0,Fri Feb 07 2025 13:30:30 GMT-0600 (Central Standard Time),682627.5,A,nai,O,i,66,1,6664.39999999851,675963.1000000015,7046,WL,C,15.0
5,35.0719997882843,learn,60000.0,Fri Feb 07 2025 13:30:30 GMT-0600 (Central Standard Time),682794.3000000045,A,nail,O,l,143,1,6831.20000000298,675963.1000000015,7046,WL,C,15.0
5,35.33899998664856,learn,60000.0,Fri Feb 07 2025 13:30:30 GMT-0600 (Central Standard Time),683060.6000000015,A,nailenter,O,enter,249,1,7097.5,675963.1000000015,7046,WL,C,15.0
6,0.7829999923706055,distr,59217.000007629395,Fri Feb 07 2025 13:30:30 GMT-0600 (Central Standard Time),766418.0,B,h,O,h,768,1,782.5999999940395,765635.400000006,7046,WL,C,1.0
6,1.116999864578247,distr,58883.00013542175,Fri Feb 07 2025 13:30:30 GMT-0600 (Central Standard Time),766751.200000003,B,ho,O,o,321,1,1115.7999999970198,765635.400000006,7046,WL,C,1.0
6,1.25,distr,58750.0,Fri Feb 07 2025 13:30:30 GMT-0600 (Central Standard Time),766884.400000006,B,hot,O,t,123,1,1249.0,765635.400000006,7046,WL,C,1.0
6,1.3999998569488525,distr,58600.00014305115,Fri Feb 07 2025 13:30:30 GMT-0600 (Central Standard Time),767034.6000000015,B,hote,O,e,143,1,1399.1999999955297,765635.400000006,7046,WL,C,1.0
6,1.5160000324249268,distr,58483.99996757507,Fri Feb 07 2025 13:30:30 GMT-0600 (Central Standard Time),767150.8000000045,B,hotel,O,l,97,1,1515.3999999985099,765635.400000006,7046,WL,C,1.0
6,1.932999849319458,distr,58067.00015068054,Fri Feb 07 2025 13:30:30 GMT-0600 (Central Standard Time),767567.700000003,B,hotelenter,O,enter,395,1,1932.2999999970198,765635.400000006,7046,WL,C,1.0
6,2.4830000400543213,distr,57516.99995994568,Fri Feb 07 2025 13:30:30 GMT-0600 (Central Standard Time),768117.6000000015,B,m,O,m,539,1,549.6999999955297,767567.900000006,7046,WL,C,2.0
6,2.5999999046325684,distr,57400.00009536743,Fri Feb 07 2025 13:30:30 GMT-0600 (Central Standard Time),768234.200000003,B,mo,O,o,102,1,666.2999999970198,767567.900000006,7046,WL,C,2.0
6,2.682999849319458,distr,57317.00015068054,Fri Feb 07 2025 13:30:30 GMT-0600 (Central Standard Time),768317.400000006,B,mon,O,n,72,1,749.5,767567.900000006,7046,WL,C,2.0
6,2.8489999771118164,distr,57151.00002288818,Fri Feb 07 2025 13:30:30 GMT-0600 (Central Standard Time),768484.0,B,mone,O,e,158,1,916.0999999940395,767567.900000006,7046,WL,C,2.0
6,2.9489998817443848,distr,57051.000118255615,Fri Feb 07 2025 13:30:30 GMT-0600 (Central Standard Time),768583.8000000045,B,money,O,y,79,1,1015.8999999985099,767567.900000006,7046,WL,C,2.0
6,3.315999984741211,distr,56684.00001525879,Fri Feb 07 2025 13:30:30 GMT-0600 (Central Standard Time),768950.6000000015,B,moneyenter,O,enter,348,1,1382.6999999955297,767567.900000006,7046,WL,C,2.0
6,4.2159998416900635,distr,55784.00015830994,Fri Feb 07 2025 13:30:30 GMT-0600 (Central Standard Time),769850.400000006,B,d,O,d,885,1,899.4000000059605,768951.0,7046,WL,C,3.0
6,4.4649999141693115,distr,55535.00008583069,Fri Feb 07 2025 13:30:30 GMT-0600 (Central Standard Time),770100.0,B,di,O,i,242,1,1149.0,768951.0,7046,WL,C,3.0
6,4.615999937057495,distr,55384.000062942505,Fri Feb 07 2025 13:30:30 GMT-0600 (Central Standard Time),770250.1000000015,B,dia,O,a,135,1,1299.1000000014901,768951.0,7046,WL,C,3.0
6,4.881999969482422,distr,55118.00003051758,Fri Feb 07 2025 13:30:30 GMT-0600 (Central Standard Time),770516.5,B,diam,O,m,257,1,1565.5,768951.0,7046,WL,C,3.0
6,4.98199987411499,distr,55018.00012588501,Fri Feb 07 2025 13:30:30 GMT-0600 (Central Standard Time),770616.700000003,B,diamo,O,o,88,1,1665.7000000029802,768951.0,7046,WL,C,3.0
6,5.098999977111816,distr,54901.00002288818,Fri Feb 07 2025 13:30:30 GMT-0600 (Central Standard Time),770733.400000006,B,diamon,O,n,98,1,1782.4000000059605,768951.0,7046,WL,C,3.0
6,5.700000047683716,distr,54299.999952316284,Fri Feb 07 2025 13:30:30 GMT-0600 (Central Standard Time),771334.3000000045,B,diamond,O,d,590,1,2383.3000000044703,768951.0,7046,WL,C,3.0
6,5.931999921798706,distr,54068.000078201294,Fri Feb 07 2025 13:30:30 GMT-0600 (Central Standard Time),771566.400000006,B,diamondenter,O,enter,221,1,2615.4000000059605,768951.0,7046,WL,C,3.0
6,6.264999866485596,distr,53735.000133514404,Fri Feb 07 2025 13:30:30 GMT-0600 (Central Standard Time),771899.900000006,B,c,O,c,317,1,333.1000000014901,771566.8000000045,7046,WL,C,4.0
6,6.414999961853027,distr,53585.00003814697,Fri Feb 07 2025 13:30:30 GMT-0600 (Central Standard Time),772049.8000000045,B,ch,O,h,127,1,483.0,771566.8000000045,7046,WL,C,4.0
6,7.047999858856201,distr,52952.0001411438,Fri Feb 07 2025 13:30:30 GMT-0600 (Central Standard Time),772682.700000003,B,chr,O,r,610,1,1115.8999999985099,771566.8000000045,7046,WL,C,4.0
6,7.164000034332275,distr,52835.999965667725,Fri Feb 07 2025 13:30:30 GMT-0600 (Central Standard Time),772799.200000003,B,chri,O,i,104,1,1232.3999999985099,771566.8000000045,7046,WL,C,4.0
6,7.263999938964844,distr,52736.000061035156,Fri Feb 07 2025 13:30:30 GMT-0600 (Central Standard Time),772899.1000000015,B,chris,O,s,91,1,1332.2999999970198,771566.8000000045,7046,WL,C,4.0
6,7.38100004196167,distr,52618.99995803833,Fri Feb 07 2025 13:30:30 GMT-0600 (Central Standard Time),773015.8000000045,B,christ,O,t,105,1,1449.0,771566.8000000045,7046,WL,C,4.0
6,7.546999931335449,distr,52453.00006866455,Fri Feb 07 2025 13:30:30 GMT-0600 (Central Standard Time),773182.400000006,B,christm,O,m,155,1,1615.6000000014901,771566.8000000045,7046,WL,C,4.0
6,7.63100004196167,distr,52368.99995803833,Fri Feb 07 2025 13:30:30 GMT-0600 (Central Standard Time),773265.8000000045,B,christma,O,a,68,1,1699.0,771566.8000000045,7046,WL,C,4.0
6,7.896999835968018,distr,52103.00016403198,Fri Feb 07 2025 13:30:30 GMT-0600 (Central Standard Time),773532.400000006,B,christmas,O,s,257,1,1965.6000000014901,771566.8000000045,7046,WL,C,4.0
6,8.563999891281128,distr,51436.00010871887,Fri Feb 07 2025 13:30:30 GMT-0600 (Central Standard Time),774198.700000003,B,christmasenter,O,enter,646,1,2631.89999999851,771566.8000000045,7046,WL,C,4.0
6,8.77999997138977,distr,51220.00002861023,Fri Feb 07 2025 13:30:30 GMT-0600 (Central Standard Time),774415.5,B,s,O,s,205,1,216.39999999850988,774199.1000000015,7046,WL,C,5.0
6,8.896999835968018,distr,51103.00016403198,Fri Feb 07 2025 13:30:30 GMT-0600 (Central Standard Time),774532.200000003,B,sk,O,k,100,1,333.1000000014901,774199.1000000015,7046,WL,C,5.0
6,9.11299991607666,distr,50887.00008392334,Fri Feb 07 2025 13:30:30 GMT-0600 (Central Standard Time),774748.6000000015,B,sky,O,y,199,1,549.5,774199.1000000015,7046,WL,C,5.0
6,9.496999979019165,distr,50503.000020980835,Fri Feb 07 2025 13:30:30 GMT-0600 (Central Standard Time),775132.0,B,skyenter,O,enter,366,1,932.8999999985099,774199.1000000015,7046,WL,C,5.0
6,15.510999917984009,distr,44489.00008201599,Fri Feb 07 2025 13:30:30 GMT-0600 (Central Standard Time),781146.5,B,d,O,d,5999,1,6014.0999999940395,775132.400000006,7046,WL,C,6.0
6,15.644999980926514,distr,44355.000019073486,Fri Feb 07 2025 13:30:30 GMT-0600 (Central Standard Time),781279.8000000045,B,do,O,o,121,1,6147.39999999851,775132.400000006,7046,WL,C,6.0
6,15.861999988555908,distr,44138.00001144409,Fri Feb 07 2025 13:30:30 GMT-0600 (Central Standard Time),781496.900000006,B,dol,O,l,195,1,6364.5,775132.400000006,7046,WL,C,6.0
6,15.961999893188477,distr,44038.00010681152,Fri Feb 07 2025 13:30:30 GMT-0600 (Central Standard Time),781596.700000003,B,doll,O,l,83,1,6464.29999999702,775132.400000006,7046,WL,C,6.0
6,16.144999980926514,distr,43855.000019073486,Fri Feb 07 2025 13:30:30 GMT-0600 (Central Standard Time),781779.6000000015,B,dolla,O,a,175,1,6647.19999999553,775132.400000006,7046,WL,C,6.0
6,16.211999893188477,distr,43788.00010681152,Fri Feb 07 2025 13:30:30 GMT-0600 (Central Standard Time),781846.6000000015,B,dollar,O,r,55,1,6714.19999999553,775132.400000006,7046,WL,C,6.0
6,16.794999837875366,distr,43205.000162124634,Fri Feb 07 2025 13:30:30 GMT-0600 (Central Standard Time),782429.6000000015,B,dollarenter,O,enter,565,1,7297.19999999553,775132.400000006,7046,WL,C,6.0
6,37.4210000038147,distr,22578.999996185303,Fri Feb 07 2025 13:30:30 GMT-0600 (Central Standard Time),803056.6000000015,B,v,O,v,20606,1,20626.69999999553,782429.900000006,7046,WL,C,7.0
6,37.57099986076355,distr,22429.00013923645,Fri Feb 07 2025 13:30:30 GMT-0600 (Central Standard Time),803206.3000000045,B,va,O,a,131,1,20776.39999999851,782429.900000006,7046,WL,C,7.0
6,37.90400004386902,distr,22095.99995613098,Fri Feb 07 2025 13:30:30 GMT-0600 (Central Standard Time),803539.400000006,B,val,O,l,325,1,21109.5,782429.900000006,7046,WL,C,7.0
6,38.08800005912781,distr,21911.999940872192,Fri Feb 07 2025 13:30:30 GMT-0600 (Central Standard Time),803723.1000000015,B,vall,O,l,160,1,21293.19999999553,782429.900000006,7046,WL,C,7.0
6,38.15499997138977,distr,21845.00002861023,Fri Feb 07 2025 13:30:30 GMT-0600 (Central Standard Time),803789.700000003,B,valle,O,e,57,1,21359.79999999702,782429.900000006,7046,WL,C,7.0
6,38.33800005912781,distr,21661.999940872192,Fri Feb 07 2025 13:30:30 GMT-0600 (Central Standard Time),803973.1000000015,B,valley,O,y,165,1,21543.19999999553,782429.900000006,7046,WL,C,7.0
6,38.62100005149841,distr,21378.999948501587,Fri Feb 07 2025 13:30:30 GMT-0600 (Central Standard Time),804256.0,B,valleyenter,O,enter,269,1,21826.09999999404,782429.900000006,7046,WL,C,7.0
6,43.38599991798401,distr,16614.00008201599,Fri Feb 07 2025 13:30:30 GMT-0600 (Central Standard Time),809021.1000000015,B,enter,O,enter,4747,1,4764.79999999702,804256.3000000045,7046,WL,C,8.0
6,55.81599998474121,distr,4184.000015258789,Fri Feb 07 2025 13:30:30 GMT-0600 (Central Standard Time),821450.700000003,B,enter,O,enter,12422,1,12429.39999999851,809021.3000000045,7046,WL,C,9.0
6,57.99899983406067,distr,2001.000165939331,Fri Feb 07 2025 13:30:30 GMT-0600 (Central Standard Time),823633.700000003,B,enter,O,enter,2161,1,2182.7000000029802,821451.0,7046,WL,C,10.0
6,59.764999866485596,distr,235.0001335144043,Fri Feb 07 2025 13:30:30 GMT-0600 (Central Standard Time),825399.6000000015,B,enter,O,enter,1753,1,1765.6000000014901,823634.0,7046,WL,C,11.0
6,60.013999938964844,distr,-13.99993896484375,Fri Feb 07 2025 13:30:30 GMT-0600 (Central Standard Time),825649.3000000045,B,None,O,None,243,1,249.30000000447035,825400.0,7046,WL,C,12.0
7,1.566999912261963,immed,58433.00008773804,Fri Feb 07 2025 13:30:30 GMT-0600 (Central Standard Time),842794.200000003,A,q,O,q,1543,1,1566.2000000029802,841228.0,7046,WL,C,1.0
7,1.75,immed,58250.0,Fri Feb 07 2025 13:30:30 GMT-0600 (Central Standard Time),842977.400000006,A,qu,O,u,162,1,1749.4000000059605,841228.0,7046,WL,C,1.0
7,1.8499999046325684,immed,58150.00009536743,Fri Feb 07 2025 13:30:30 GMT-0600 (Central Standard Time),843077.3000000045,A,que,O,e,91,1,1849.3000000044703,841228.0,7046,WL,C,1.0
7,2.0,immed,58000.0,Fri Feb 07 2025 13:30:30 GMT-0600 (Central Standard Time),843227.3000000045,A,quee,O,e,134,1,1999.3000000044703,841228.0,7046,WL,C,1.0
7,2.0829999446868896,immed,57917.00005531311,Fri Feb 07 2025 13:30:30 GMT-0600 (Central Standard Time),843310.6000000015,A,queen,O,n,72,1,2082.60000000149,841228.0,7046,WL,C,1.0
7,2.382999897003174,immed,57617.000102996826,Fri Feb 07 2025 13:30:30 GMT-0600 (Central Standard Time),843610.5,A,queenenter,O,enter,278,1,2382.5,841228.0,7046,WL,C,1.0
7,2.7660000324249268,immed,57233.99996757507,Fri Feb 07 2025 13:30:30 GMT-0600 (Central Standard Time),843993.900000006,A,t,O,t,370,1,383.1000000014901,843610.8000000045,7046,WL,C,2.0
7,2.882999897003174,immed,57117.000102996826,Fri Feb 07 2025 13:30:30 GMT-0600 (Central Standard Time),844110.3000000045,A,to,O,o,97,1,499.5,843610.8000000045,7046,WL,C,2.0
7,3.0329999923706055,immed,56967.000007629395,Fri Feb 07 2025 13:30:30 GMT-0600 (Central Standard Time),844260.3000000045,A,tow,O,w,134,1,649.5,843610.8000000045,7046,WL,C,2.0
7,3.115999937057495,immed,56884.000062942505,Fri Feb 07 2025 13:30:30 GMT-0600 (Central Standard Time),844343.8000000045,A,towe,O,e,72,1,733.0,843610.8000000045,7046,WL,C,2.0
7,3.182999849319458,immed,56817.00015068054,Fri Feb 07 2025 13:30:30 GMT-0600 (Central Standard Time),844410.3000000045,A,tower,O,r,43,1,799.5,843610.8000000045,7046,WL,C,2.0
7,3.5820000171661377,immed,56417.99998283386,Fri Feb 07 2025 13:30:30 GMT-0600 (Central Standard Time),844810.1000000015,A,towerenter,O,enter,385,1,1199.2999999970198,843610.8000000045,7046,WL,C,2.0
7,3.931999921798706,immed,56068.000078201294,Fri Feb 07 2025 13:30:30 GMT-0600 (Central Standard Time),845159.900000006,A,d,O,d,337,1,349.5,844810.400000006,7046,WL,C,3.0
7,4.016000032424927,immed,55983.99996757507,Fri Feb 07 2025 13:30:30 GMT-0600 (Central Standard Time),845243.3000000045,A,do,O,o,75,1,432.8999999985099,844810.400000006,7046,WL,C,3.0
7,4.182999849319458,immed,55817.00015068054,Fri Feb 07 2025 13:30:30 GMT-0600 (Central Standard Time),845410.1000000015,A,doc,O,c,143,1,599.6999999955297,844810.400000006,7046,WL,C,3.0
7,4.381999969482422,immed,55618.00003051758,Fri Feb 07 2025 13:30:30 GMT-0600 (Central Standard Time),845609.900000006,A,doct,O,t,186,1,799.5,844810.400000006,7046,WL,C,3.0
7,4.48199987411499,immed,55518.00012588501,Fri Feb 07 2025 13:30:30 GMT-0600 (Central Standard Time),845709.700000003,A,docto,O,o,90,1,899.2999999970198,844810.400000006,7046,WL,C,3.0
7,4.598999977111816,immed,55401.00002288818,Fri Feb 07 2025 13:30:30 GMT-0600 (Central Standard Time),845826.700000003,A,doctor,O,r,95,1,1016.2999999970198,844810.400000006,7046,WL,C,3.0
7,4.781999826431274,immed,55218.000173568726,Fri Feb 07 2025 13:30:30 GMT-0600 (Central Standard Time),846009.400000006,A,doctorenter,O,enter,161,1,1199.0,844810.400000006,7046,WL,C,3.0
7,5.049000024795532,immed,54950.99997520447,Fri Feb 07 2025 13:30:30 GMT-0600 (Central Standard Time),846276.3000000045,A,b,O,b,259,1,266.6000000014901,846009.700000003,7046,WL,C,4.0
7,5.164999961853027,immed,54835.00003814697,Fri Feb 07 2025 13:30:30 GMT-0600 (Central Standard Time),846392.900000006,A,bo,O,o,94,1,383.20000000298023,846009.700000003,7046,WL,C,4.0
7,5.332000017166138,immed,54667.99998283386,Fri Feb 07 2025 13:30:30 GMT-0600 (Central Standard Time),846559.6000000015,A,boy,O,y,154,1,549.8999999985099,846009.700000003,7046,WL,C,4.0
7,5.98199987411499,immed,54018.00012588501,Fri Feb 07 2025 13:30:30 GMT-0600 (Central Standard Time),847209.3000000045,A,boyenter,O,enter,628,1,1199.6000000014901,846009.700000003,7046,WL,C,4.0
7,6.664999961853027,immed,53335.00003814697,Fri Feb 07 2025 13:30:30 GMT-0600 (Central Standard Time),847892.5,A,f,O,f,674,1,683.0,847209.5,7046,WL,C,5.0
7,6.764999866485596,immed,53235.000133514404,Fri Feb 07 2025 13:30:30 GMT-0600 (Central Standard Time),847992.400000006,A,fl,O,l,79,1,782.9000000059605,847209.5,7046,WL,C,5.0
7,6.865000009536743,immed,53134.99999046326,Fri Feb 07 2025 13:30:30 GMT-0600 (Central Standard Time),848092.400000006,A,fla,O,a,91,1,882.9000000059605,847209.5,7046,WL,C,5.0
7,7.0309998989105225,immed,52969.00010108948,Fri Feb 07 2025 13:30:30 GMT-0600 (Central Standard Time),848259.0,A,flag,O,g,143,1,1049.5,847209.5,7046,WL,C,5.0
7,7.563999891281128,immed,52436.00010871887,Fri Feb 07 2025 13:30:30 GMT-0600 (Central Standard Time),848792.0,A,flagenter,O,enter,512,1,1582.5,847209.5,7046,WL,C,5.0
7,7.797999858856201,immed,52202.0001411438,Fri Feb 07 2025 13:30:30 GMT-0600 (Central Standard Time),849025.5,A,n,O,n,211,1,233.09999999403954,848792.400000006,7046,WL,C,6.0
7,7.865000009536743,immed,52134.99999046326,Fri Feb 07 2025 13:30:30 GMT-0600 (Central Standard Time),849092.200000003,A,na,O,a,51,1,299.79999999701977,848792.400000006,7046,WL,C,6.0
7,8.013999938964844,immed,51986.000061035156,Fri Feb 07 2025 13:30:30 GMT-0600 (Central Standard Time),849242.0,A,nai,O,i,136,1,449.59999999403954,848792.400000006,7046,WL,C,6.0
7,8.197999954223633,immed,51802.00004577637,Fri Feb 07 2025 13:30:30 GMT-0600 (Central Standard Time),849425.400000006,A,nail,O,l,161,1,633.0,848792.400000006,7046,WL,C,6.0
7,9.330999851226807,immed,50669.00014877319,Fri Feb 07 2025 13:30:30 GMT-0600 (Central Standard Time),850558.200000003,A,nailenter,O,enter,1113,1,1765.7999999970198,848792.400000006,7046,WL,C,6.0
7,11.280999898910522,immed,48719.00010108948,Fri Feb 07 2025 13:30:30 GMT-0600 (Central Standard Time),852508.700000003,A,h,O,h,1941,1,1950.1000000014901,850558.6000000015,7046,WL,C,7.0
7,11.429999828338623,immed,48570.00017166138,Fri Feb 07 2025 13:30:30 GMT-0600 (Central Standard Time),852657.400000006,A,ho,O,o,125,1,2098.8000000044703,850558.6000000015,7046,WL,C,7.0
7,11.513000011444092,immed,48486.99998855591,Fri Feb 07 2025 13:30:30 GMT-0600 (Central Standard Time),852741.1000000015,A,hom,O,m,74,1,2182.5,850558.6000000015,7046,WL,C,7.0
7,11.679999828338623,immed,48320.00017166138,Fri Feb 07 2025 13:30:30 GMT-0600 (Central Standard Time),852907.5,A,home,O,e,151,1,2348.89999999851,850558.6000000015,7046,WL,C,7.0
7,11.996000051498413,immed,48003.99994850159,Fri Feb 07 2025 13:30:30 GMT-0600 (Central Standard Time),853224.0,A,homeenter,O,enter,296,1,2665.39999999851,850558.6000000015,7046,WL,C,7.0
7,13.345999956130981,immed,46654.00004386902,Fri Feb 07 2025 13:30:30 GMT-0600 (Central Standard Time),854573.700000003,A,c,O,c,1339,1,1349.2999999970198,853224.400000006,7046,WL,C,8.0
7,13.478999853134155,immed,46521.000146865845,Fri Feb 07 2025 13:30:30 GMT-0600 (Central Standard Time),854707.1000000015,A,ca,O,a,127,1,1482.6999999955297,853224.400000006,7046,WL,C,8.0
7,13.595999956130981,immed,46404.00004386902,Fri Feb 07 2025 13:30:30 GMT-0600 (Central Standard Time),854823.6000000015,A,cam,O,m,104,1,1599.1999999955297,853224.400000006,7046,WL,C,8.0
7,13.69599986076355,immed,46304.00013923645,Fri Feb 07 2025 13:30:30 GMT-0600 (Central Standard Time),854923.400000006,A,camp,O,p,92,1,1699.0,853224.400000006,7046,WL,C,8.0
7,14.078999996185303,immed,45921.0000038147,Fri Feb 07 2025 13:30:30 GMT-0600 (Central Standard Time),855307.0,A,campenter,O,enter,361,1,2082.5999999940395,853224.400000006,7046,WL,C,8.0
7,21.043999910354614,immed,38956.000089645386,Fri Feb 07 2025 13:30:30 GMT-0600 (Central Standard Time),862271.6000000015,A,q,O,q,6944,1,6964.29999999702,855307.3000000045,7046,WL,C,9.0
7,21.194000005722046,immed,38805.999994277954,Fri Feb 07 2025 13:30:30 GMT-0600 (Central Standard Time),862421.3000000045,A,qu,O,u,140,1,7114.0,855307.3000000045,7046,WL,C,9.0
7,21.3439998626709,immed,38656.0001373291,Fri Feb 07 2025 13:30:30 GMT-0600 (Central Standard Time),862571.200000003,A,que,O,e,135,1,7263.89999999851,855307.3000000045,7046,WL,C,9.0
7,21.460000038146973,immed,38539.99996185303,Fri Feb 07 2025 13:30:30 GMT-0600 (Central Standard Time),862687.8000000045,A,quee,O,e,105,1,7380.5,855307.3000000045,7046,WL,C,9.0
7,21.542999982833862,immed,38457.00001716614,Fri Feb 07 2025 13:30:30 GMT-0600 (Central Standard Time),862771.0,A,queen,O,n,61,1,7463.69999999553,855307.3000000045,7046,WL,C,9.0
7,21.810999870300293,immed,38189.00012969971,Fri Feb 07 2025 13:30:30 GMT-0600 (Central Standard Time),863038.900000006,A,queenenter,O,enter,248,1,7731.60000000149,855307.3000000045,7046,WL,C,9.0
7,24.45899987220764,immed,35541.00012779236,Fri Feb 07 2025 13:30:30 GMT-0600 (Central Standard Time),865686.900000006,A,s,O,s,2629,1,2647.8000000044703,863039.1000000015,7046,WL,C,10.0
7,24.575999975204468,immed,35424.00002479553,Fri Feb 07 2025 13:30:30 GMT-0600 (Central Standard Time),865803.700000003,A,su,O,u,101,1,2764.60000000149,863039.1000000015,7046,WL,C,10.0
7,24.658999919891357,immed,35341.00008010864,Fri Feb 07 2025 13:30:30 GMT-0600 (Central Standard Time),865886.700000003,A,sug,O,g,72,1,2847.60000000149,863039.1000000015,7046,WL,C,10.0
7,24.80900001525879,immed,35190.99998474121,Fri Feb 07 2025 13:30:30 GMT-0600 (Central Standard Time),866036.8000000045,A,suga,O,a,132,1,2997.7000000029802,863039.1000000015,7046,WL,C,10.0
7,24.89299988746643,immed,35107.00011253357,Fri Feb 07 2025 13:30:30 GMT-0600 (Central Standard Time),866120.200000003,A,sugar,O,r,62,1,3081.10000000149,863039.1000000015,7046,WL,C,10.0
7,25.425999879837036,immed,34574.000120162964,Fri Feb 07 2025 13:30:30 GMT-0600 (Central Standard Time),866653.3000000045,A,sugarenter,O,enter,514,1,3614.2000000029802,863039.1000000015,7046,WL,C,10.0
7,25.95899987220764,immed,34041.00012779236,Fri Feb 07 2025 13:30:30 GMT-0600 (Central Standard Time),867186.1000000015,A,w,O,w,519,1,532.5,866653.6000000015,7046,WL,C,11.0
7,26.108999967575073,immed,33891.00003242493,Fri Feb 07 2025 13:30:30 GMT-0600 (Central Standard Time),867336.400000006,A,wh,O,h,128,1,682.8000000044703,866653.6000000015,7046,WL,C,11.0
7,26.191999912261963,immed,33808.00008773804,Fri Feb 07 2025 13:30:30 GMT-0600 (Central Standard Time),867419.6000000015,A,whe,O,e,68,1,766.0,866653.6000000015,7046,WL,C,11.0
7,26.491999864578247,immed,33508.00013542175,Fri Feb 07 2025 13:30:30 GMT-0600 (Central Standard Time),867719.400000006,A,whea,O,a,280,1,1065.8000000044703,866653.6000000015,7046,WL,C,11.0
7,26.592000007629395,immed,33407.999992370605,Fri Feb 07 2025 13:30:30 GMT-0600 (Central Standard Time),867819.6000000015,A,wheat,O,t,84,1,1166.0,866653.6000000015,7046,WL,C,11.0
7,26.941999912261963,immed,33058.00008773804,Fri Feb 07 2025 13:30:30 GMT-0600 (Central Standard Time),868169.6000000015,A,wheatenter,O,enter,337,1,1516.0,866653.6000000015,7046,WL,C,11.0
7,27.04200005531311,immed,32957.99994468689,Fri Feb 07 2025 13:30:30 GMT-0600 (Central Standard Time),868269.5,A,c,O,c,81,1,99.59999999403954,868169.900000006,7046,WL,C,12.0
7,27.20799994468689,immed,32792.00005531311,Fri Feb 07 2025 13:30:30 GMT-0600 (Central Standard Time),868436.0,A,co,O,o,150,1,266.09999999403954,868169.900000006,7046,WL,C,12.0
7,27.30900001525879,immed,32690.99998474121,Fri Feb 07 2025 13:30:30 GMT-0600 (Central Standard Time),868536.200000003,A,cor,O,r,79,1,366.29999999701977,868169.900000006,7046,WL,C,12.0
7,27.491999864578247,immed,32508.000135421753,Fri Feb 07 2025 13:30:30 GMT-0600 (Central Standard Time),868719.3000000045,A,corn,O,n,164,1,549.3999999985099,868169.900000006,7046,WL,C,12.0
7,28.007999897003174,immed,31992.000102996826,Fri Feb 07 2025 13:30:30 GMT-0600 (Central Standard Time),869235.8000000045,A,cornenter,O,enter,501,1,1065.8999999985099,868169.900000006,7046,WL,C,12.0
7,32.58999991416931,immed,27410.00008583069,Fri Feb 07 2025 13:30:30 GMT-0600 (Central Standard Time),873817.8000000045,A,l,O,l,4561,1,4581.70000000298,869236.1000000015,7046,WL,C,13.0
7,32.639999866485596,immed,27360.000133514404,Fri Feb 07 2025 13:30:30 GMT-0600 (Central Standard Time),873867.5,A,le,O,e,41,1,4631.39999999851,869236.1000000015,7046,WL,C,13.0
7,32.9229998588562,immed,27077.0001411438,Fri Feb 07 2025 13:30:30 GMT-0600 (Central Standard Time),874150.8000000045,A,let,O,t,272,1,4914.70000000298,869236.1000000015,7046,WL,C,13.0
7,33.08999991416931,immed,26910.00008583069,Fri Feb 07 2025 13:30:30 GMT-0600 (Central Standard Time),874317.5,A,lett,O,t,150,1,5081.39999999851,869236.1000000015,7046,WL,C,13.0
7,33.1729998588562,immed,26827.0001411438,Fri Feb 07 2025 13:30:30 GMT-0600 (Central Standard Time),874401.0,A,lette,O,e,63,1,5164.89999999851,869236.1000000015,7046,WL,C,13.0
7,33.28999996185303,immed,26710.000038146973,Fri Feb 07 2025 13:30:30 GMT-0600 (Central Standard Time),874517.6000000015,A,letter,O,r,99,1,5281.5,869236.1000000015,7046,WL,C,13.0
7,33.889999866485596,immed,26110.000133514404,Fri Feb 07 2025 13:30:30 GMT-0600 (Central Standard Time),875117.5,A,letterenter,O,enter,590,1,5881.39999999851,869236.1000000015,7046,WL,C,13.0
7,44.585999965667725,immed,15414.000034332275,Fri Feb 07 2025 13:30:30 GMT-0600 (Central Standard Time),885813.8000000045,A,g,O,g,10679,1,10696.10000000149,875117.700000003,7046,WL,C,14.0
7,44.73599982261658,immed,15264.000177383423,Fri Feb 07 2025 13:30:30 GMT-0600 (Central Standard Time),885964.0,A,gl,O,l,133,1,10846.29999999702,875117.700000003,7046,WL,C,14.0
7,44.82099986076355,immed,15179.00013923645,Fri Feb 07 2025 13:30:30 GMT-0600 (Central Standard Time),886048.400000006,A,gla,O,a,72,1,10930.70000000298,875117.700000003,7046,WL,C,14.0
7,45.55299997329712,immed,14447.00002670288,Fri Feb 07 2025 13:30:30 GMT-0600 (Central Standard Time),886780.400000006,A,gl,O,backspace,714,1,11662.70000000298,875117.700000003,7046,WL,C,14.0
7,45.7189998626709,immed,14281.000137329102,Fri Feb 07 2025 13:30:30 GMT-0600 (Central Standard Time),886946.8000000045,A,g,O,backspace,150,1,11829.10000000149,875117.700000003,7046,WL,C,14.0
7,45.86899995803833,immed,14131.00004196167,Fri Feb 07 2025 13:30:30 GMT-0600 (Central Standard Time),887096.900000006,A,,O,backspace,128,1,11979.20000000298,875117.700000003,7046,WL,C,14.0
7,45.95299983024597,immed,14047.000169754028,Fri Feb 07 2025 13:30:30 GMT-0600 (Central Standard Time),887180.3000000045,A,f,O,f,67,1,12062.60000000149,875117.700000003,7046,WL,C,14.0
7,46.151999950408936,immed,13848.000049591064,Fri Feb 07 2025 13:30:30 GMT-0600 (Central Standard Time),887380.1000000015,A,fl,O,l,192,1,12262.39999999851,875117.700000003,7046,WL,C,14.0
7,46.40299987792969,immed,13597.000122070312,Fri Feb 07 2025 13:30:30 GMT-0600 (Central Standard Time),887630.1000000015,A,fla,O,a,231,1,12512.39999999851,875117.700000003,7046,WL,C,14.0
7,46.51900005340576,immed,13480.999946594238,Fri Feb 07 2025 13:30:30 GMT-0600 (Central Standard Time),887746.900000006,A,flag,O,g,110,1,12629.20000000298,875117.700000003,7046,WL,C,14.0
7,46.9689998626709,immed,13031.000137329102,Fri Feb 07 2025 13:30:30 GMT-0600 (Central Standard Time),888196.6000000015,A,flagenter,O,enter,432,1,13078.89999999851,875117.700000003,7046,WL,C,14.0
7,60.01600003242493,immed,-16.000032424926758,Fri Feb 07 2025 13:30:30 GMT-0600 (Central Standard Time),901243.700000003,A,None,O,None,13041,1,13046.89999999851,888196.8000000045,7046,WL,C,15.0
