Number,acc_sum,block,block_c,block_cond,con_img,correct,correct_response,datetime,endtime,jitter,project,response,response_time,row_sel,session_number,start_end,starttime,subject_id,task,task_vers,trial
6,0,prac,1,A,circle.png,0,m,Fri Feb 21 2025 09:17:51 GMT-0600 (Central Standard Time),61218.699999999255,1900,I,None,1514,5,1,4191.60000000149,57027.099999997765,8031,NTS,A,1
3,1,prac,1,A,circle.png,1,z,Fri Feb 21 2025 09:17:51 GMT-0600 (Central Standard Time),64083.599999997765,1200,I,z,879,3,1,2858.599999997765,61225.0,8031,NTS,A,2
4,2,prac,1,A,circle.png,1,z,Fri Feb 21 2025 09:17:51 GMT-0600 (Central Standard Time),67132.79999999702,1400,I,z,852,4,1,3041.5,64091.29999999702,8031,NTS,A,3
7,3,prac,1,A,circle.png,1,m,Fri Feb 21 2025 09:17:51 GMT-0600 (Central Standard Time),70266.19999999925,1700,I,m,658,6,1,3126.300000000745,67139.89999999851,8031,NTS,A,4
9,4,prac,1,A,circle.png,1,m,Fri Feb 21 2025 09:17:51 GMT-0600 (Central Standard Time),73181.0,1500,I,m,631,8,1,2906.300000000745,70274.69999999925,8031,NTS,A,5
1,5,prac,1,A,circle.png,1,z,Fri Feb 21 2025 09:17:51 GMT-0600 (Central Standard Time),75479.09999999776,1000,I,z,516,1,1,2290.199999999255,73188.89999999851,8031,NTS,A,6
9,6,prac,1,A,circle.png,1,m,Fri Feb 21 2025 09:17:51 GMT-0600 (Central Standard Time),78362.0,1500,I,m,596,8,1,2873.5,75488.5,8031,NTS,A,7
1,7,prac,1,A,circle.png,1,z,Fri Feb 21 2025 09:17:51 GMT-0600 (Central Standard Time),80678.5,1000,I,z,526,1,1,2307.800000000745,78370.69999999925,8031,NTS,A,8
8,8,prac,1,A,circle.png,1,m,Fri Feb 21 2025 09:17:51 GMT-0600 (Central Standard Time),83594.59999999776,1600,I,m,520,7,1,2909.0,80685.59999999776,8031,NTS,A,9
2,9,prac,1,A,circle.png,1,z,Fri Feb 21 2025 09:17:51 GMT-0600 (Central Standard Time),87109.69999999925,2000,I,z,715,2,1,3507.699999999255,83602.0,8031,NTS,A,10
7,10,prac,1,A,circle.png,1,m,Fri Feb 21 2025 09:17:51 GMT-0600 (Central Standard Time),90209.89999999851,1700,I,m,599,6,1,3092.39999999851,87117.5,8031,NTS,A,11
4,11,prac,1,A,circle.png,1,z,Fri Feb 21 2025 09:17:51 GMT-0600 (Central Standard Time),92940.69999999925,1400,I,z,543,4,1,2721.699999999255,90219.0,8031,NTS,A,12
2,1,prac,1,B,triangle.png,1,m,Fri Feb 21 2025 09:17:51 GMT-0600 (Central Standard Time),130862.69999999925,1700,I,m,622,2,1,3090.10000000149,127772.59999999776,8031,NTS,A,1
4,2,prac,1,B,triangle.png,1,m,Fri Feb 21 2025 09:17:51 GMT-0600 (Central Standard Time),133763.5,1500,I,m,607,4,1,2891.10000000149,130872.39999999851,8031,NTS,A,2
3,3,prac,1,B,triangle.png,1,z,Fri Feb 21 2025 09:17:51 GMT-0600 (Central Standard Time),136627.79999999702,1600,I,z,469,3,1,2857.7999999970198,133770.0,8031,NTS,A,3
6,4,prac,1,B,triangle.png,1,m,Fri Feb 21 2025 09:17:51 GMT-0600 (Central Standard Time),139177.0,1000,I,m,757,5,1,2541.60000000149,136635.3999999985,8031,NTS,A,4
7,5,prac,1,B,triangle.png,1,z,Fri Feb 21 2025 09:17:51 GMT-0600 (Central Standard Time),142857.8999999985,2000,I,z,899,6,1,3673.10000000149,139184.79999999702,8031,NTS,A,5
7,6,prac,1,B,triangle.png,1,z,Fri Feb 21 2025 09:17:51 GMT-0600 (Central Standard Time),146474.19999999925,2000,I,z,823,6,1,3606.10000000149,142868.09999999776,8031,NTS,A,6
1,7,prac,1,B,triangle.png,1,z,Fri Feb 21 2025 09:17:51 GMT-0600 (Central Standard Time),150154.69999999925,1900,I,z,996,1,1,3673.5,146481.19999999925,8031,NTS,A,7
4,8,prac,1,B,triangle.png,1,m,Fri Feb 21 2025 09:17:51 GMT-0600 (Central Standard Time),153155.29999999702,1500,I,m,712,4,1,2992.0,150163.29999999702,8031,NTS,A,8
6,9,prac,1,B,triangle.png,1,m,Fri Feb 21 2025 09:17:51 GMT-0600 (Central Standard Time),155972.19999999925,1000,I,m,1032,5,1,2810.400000002235,153161.79999999702,8031,NTS,A,9
9,10,prac,1,B,triangle.png,1,z,Fri Feb 21 2025 09:17:51 GMT-0600 (Central Standard Time),158854.19999999925,1400,I,z,694,8,1,2875.900000002235,155978.29999999702,8031,NTS,A,10
8,11,prac,1,B,triangle.png,1,m,Fri Feb 21 2025 09:17:51 GMT-0600 (Central Standard Time),161786.19999999925,1200,I,m,955,7,1,2924.199999999255,158862.0,8031,NTS,A,11
9,12,prac,1,B,triangle.png,1,z,Fri Feb 21 2025 09:17:51 GMT-0600 (Central Standard Time),165035.29999999702,1400,I,z,1054,8,1,3243.5,161791.79999999702,8031,NTS,A,12
4,1,test,1,A,circle.png,1,z,Fri Feb 21 2025 09:17:51 GMT-0600 (Central Standard Time),184260.8999999985,1400,I,z,1310,4,1,2726.60000000149,181534.29999999702,8031,NTS,A,1
7,2,test,1,A,circle.png,1,m,Fri Feb 21 2025 09:17:51 GMT-0600 (Central Standard Time),187162.09999999776,1700,I,m,1184,6,1,2896.699999999255,184265.3999999985,8031,NTS,A,2
8,2,test,1,A,circle.png,0,m,Fri Feb 21 2025 09:17:51 GMT-0600 (Central Standard Time),190293.5,1600,I,None,1514,7,1,3125.900000002235,187167.59999999776,8031,NTS,A,3
1,3,test,1,A,circle.png,1,z,Fri Feb 21 2025 09:17:51 GMT-0600 (Central Standard Time),191993.0,1000,I,z,666,1,1,1694.0,190299.0,8031,NTS,A,4
9,4,test,1,A,circle.png,1,m,Fri Feb 21 2025 09:17:51 GMT-0600 (Central Standard Time),194075.0,1500,I,m,554,8,1,2077.10000000149,191997.8999999985,8031,NTS,A,5
6,4,test,1,A,circle.png,0,m,Fri Feb 21 2025 09:17:51 GMT-0600 (Central Standard Time),197507.69999999925,1900,I,None,1514,5,1,3428.199999999255,194079.5,8031,NTS,A,6
2,5,test,1,A,circle.png,1,z,Fri Feb 21 2025 09:17:51 GMT-0600 (Central Standard Time),200538.09999999776,2000,I,z,1001,2,1,3025.699999999255,197512.3999999985,8031,NTS,A,7
3,6,test,1,A,circle.png,1,z,Fri Feb 21 2025 09:17:51 GMT-0600 (Central Standard Time),202555.29999999702,1200,I,z,797,3,1,2012.199999999255,200543.09999999776,8031,NTS,A,8
4,7,test,1,A,circle.png,1,z,Fri Feb 21 2025 09:17:51 GMT-0600 (Central Standard Time),204704.3999999985,1400,I,z,724,4,1,2142.699999999255,202561.69999999925,8031,NTS,A,9
2,8,test,1,A,circle.png,1,z,Fri Feb 21 2025 09:17:51 GMT-0600 (Central Standard Time),207304.19999999925,2000,I,z,575,2,1,2595.400000002235,204708.79999999702,8031,NTS,A,10
4,9,test,1,A,circle.png,1,z,Fri Feb 21 2025 09:17:51 GMT-0600 (Central Standard Time),209386.5,1400,I,z,665,4,1,2077.7000000029802,207308.79999999702,8031,NTS,A,11
7,10,test,1,A,circle.png,1,m,Fri Feb 21 2025 09:17:51 GMT-0600 (Central Standard Time),211635.59999999776,1700,I,m,526,6,1,2242.89999999851,209392.69999999925,8031,NTS,A,12
2,11,test,1,A,circle.png,1,z,Fri Feb 21 2025 09:17:51 GMT-0600 (Central Standard Time),214169.59999999776,2000,I,z,509,2,1,2527.5,211642.09999999776,8031,NTS,A,13
3,12,test,1,A,circle.png,1,z,Fri Feb 21 2025 09:17:51 GMT-0600 (Central Standard Time),216250.3999999985,1200,I,z,847,3,1,2071.89999999851,214178.5,8031,NTS,A,14
7,13,test,1,A,circle.png,1,m,Fri Feb 21 2025 09:17:51 GMT-0600 (Central Standard Time),218583.09999999776,1700,I,m,610,6,1,2324.39999999851,216258.69999999925,8031,NTS,A,15
7,14,test,1,A,circle.png,1,m,Fri Feb 21 2025 09:17:51 GMT-0600 (Central Standard Time),220949.8999999985,1700,I,m,645,6,1,2358.800000000745,218591.09999999776,8031,NTS,A,16
8,15,test,1,A,circle.png,1,m,Fri Feb 21 2025 09:17:51 GMT-0600 (Central Standard Time),223450.59999999776,1600,I,m,883,7,1,2494.800000000745,220955.79999999702,8031,NTS,A,17
9,16,test,1,A,circle.png,1,m,Fri Feb 21 2025 09:17:51 GMT-0600 (Central Standard Time),225481.8999999985,1500,I,m,506,8,1,2026.699999999255,223455.19999999925,8031,NTS,A,18
6,17,test,1,A,circle.png,1,m,Fri Feb 21 2025 09:17:51 GMT-0600 (Central Standard Time),228098.8999999985,1900,I,m,698,5,1,2612.39999999851,225486.5,8031,NTS,A,19
1,18,test,1,A,circle.png,1,z,Fri Feb 21 2025 09:17:51 GMT-0600 (Central Standard Time),229665.79999999702,1000,I,z,549,1,1,1562.5,228103.29999999702,8031,NTS,A,20
3,19,test,1,A,circle.png,1,z,Fri Feb 21 2025 09:17:51 GMT-0600 (Central Standard Time),231579.79999999702,1200,I,z,686,3,1,1906.2999999970198,229673.5,8031,NTS,A,21
8,20,test,1,A,circle.png,1,m,Fri Feb 21 2025 09:17:51 GMT-0600 (Central Standard Time),233862.29999999702,1600,I,m,660,7,1,2272.599999997765,231589.69999999925,8031,NTS,A,22
6,21,test,1,A,circle.png,1,m,Fri Feb 21 2025 09:17:51 GMT-0600 (Central Standard Time),236445.5,1900,I,m,653,5,1,2579.2000000029802,233866.29999999702,8031,NTS,A,23
2,22,test,1,A,circle.png,1,z,Fri Feb 21 2025 09:17:51 GMT-0600 (Central Standard Time),239078.3999999985,2000,I,z,603,2,1,2624.0,236454.3999999985,8031,NTS,A,24
2,0,test,1,B,triangle.png,0,m,Fri Feb 21 2025 09:17:51 GMT-0600 (Central Standard Time),255005.8999999985,1200,I,None,1515,10,1,2725.300000000745,252280.59999999776,8031,NTS,A,1
9,1,test,1,B,triangle.png,1,z,Fri Feb 21 2025 09:17:51 GMT-0600 (Central Standard Time),257688.0,1900,I,z,758,16,1,2676.7000000029802,255011.29999999702,8031,NTS,A,2
7,2,test,1,B,triangle.png,1,z,Fri Feb 21 2025 09:17:51 GMT-0600 (Central Standard Time),260470.8999999985,2000,I,z,762,6,1,2778.89999999851,257692.0,8031,NTS,A,3
9,3,test,1,B,triangle.png,1,z,Fri Feb 21 2025 09:17:51 GMT-0600 (Central Standard Time),262918.3999999985,1900,I,z,517,16,1,2442.39999999851,260476.0,8031,NTS,A,4
8,4,test,1,B,triangle.png,1,m,Fri Feb 21 2025 09:17:51 GMT-0600 (Central Standard Time),266069.09999999776,1700,I,m,1421,15,1,3145.0,262924.09999999776,8031,NTS,A,5
1,5,test,1,B,triangle.png,1,z,Fri Feb 21 2025 09:17:51 GMT-0600 (Central Standard Time),268236.09999999776,1400,I,z,750,9,1,2162.599999997765,266073.5,8031,NTS,A,6
2,6,test,1,B,triangle.png,1,m,Fri Feb 21 2025 09:17:51 GMT-0600 (Central Standard Time),270899.799999997,1700,I,m,932,2,1,2658.0,268241.799999997,8031,NTS,A,7
6,7,test,1,B,triangle.png,1,m,Fri Feb 21 2025 09:17:51 GMT-0600 (Central Standard Time),273199.59999999776,1500,I,m,767,13,1,2293.599999997765,270906.0,8031,NTS,A,8
3,8,test,1,B,triangle.png,1,z,Fri Feb 21 2025 09:17:51 GMT-0600 (Central Standard Time),275815.8999999985,2000,I,z,584,11,1,2612.0,273203.8999999985,8031,NTS,A,9
2,9,test,1,B,triangle.png,1,m,Fri Feb 21 2025 09:17:51 GMT-0600 (Central Standard Time),278664.5,1700,I,m,1117,2,1,2844.60000000149,275819.8999999985,8031,NTS,A,10
1,10,test,1,B,triangle.png,1,z,Fri Feb 21 2025 09:17:51 GMT-0600 (Central Standard Time),280630.59999999776,1400,I,z,534,9,1,1960.5999999977648,278670.0,8031,NTS,A,11
8,11,test,1,B,triangle.png,1,m,Fri Feb 21 2025 09:17:51 GMT-0600 (Central Standard Time),282380.09999999776,1200,I,m,530,7,1,1746.0999999977648,280634.0,8031,NTS,A,12
7,12,test,1,B,triangle.png,1,z,Fri Feb 21 2025 09:17:51 GMT-0600 (Central Standard Time),284946.09999999776,2000,I,z,541,6,1,2560.300000000745,282385.799999997,8031,NTS,A,13
3,13,test,1,B,triangle.png,1,z,Fri Feb 21 2025 09:17:51 GMT-0600 (Central Standard Time),287078.299999997,1600,I,z,503,3,1,2127.5,284950.799999997,8031,NTS,A,14
6,14,test,1,B,triangle.png,1,m,Fri Feb 21 2025 09:17:51 GMT-0600 (Central Standard Time),289210.59999999776,1500,I,m,603,13,1,2127.300000000745,287083.299999997,8031,NTS,A,15
7,15,test,1,B,triangle.png,1,z,Fri Feb 21 2025 09:17:51 GMT-0600 (Central Standard Time),291493.69999999925,1600,I,z,651,14,1,2278.699999999255,289215.0,8031,NTS,A,16
6,16,test,1,B,triangle.png,1,m,Fri Feb 21 2025 09:17:51 GMT-0600 (Central Standard Time),293276.59999999776,1000,I,m,764,5,1,1777.800000000745,291498.799999997,8031,NTS,A,17
1,17,test,1,B,triangle.png,1,z,Fri Feb 21 2025 09:17:51 GMT-0600 (Central Standard Time),295692.19999999925,1900,I,z,496,1,1,2411.5,293280.69999999925,8031,NTS,A,18
9,17,test,1,B,triangle.png,0,z,Fri Feb 21 2025 09:17:51 GMT-0600 (Central Standard Time),297692.69999999925,1400,I,m,582,8,1,1995.800000000745,295696.8999999985,8031,NTS,A,19
8,18,test,1,B,triangle.png,1,m,Fri Feb 21 2025 09:17:51 GMT-0600 (Central Standard Time),300125.69999999925,1700,I,m,704,15,1,2428.10000000149,297697.59999999776,8031,NTS,A,20
2,19,test,1,B,triangle.png,1,m,Fri Feb 21 2025 09:17:51 GMT-0600 (Central Standard Time),302156.69999999925,1200,I,m,803,10,1,2025.300000000745,300131.3999999985,8031,NTS,A,21
8,20,test,1,B,triangle.png,1,m,Fri Feb 21 2025 09:17:51 GMT-0600 (Central Standard Time),304075.3999999985,1200,I,m,702,7,1,1913.800000000745,302161.59999999776,8031,NTS,A,22
4,21,test,1,B,triangle.png,1,m,Fri Feb 21 2025 09:17:51 GMT-0600 (Central Standard Time),305806.0,1000,I,m,711,12,1,1725.7000000029802,304080.299999997,8031,NTS,A,23
4,22,test,1,B,triangle.png,1,m,Fri Feb 21 2025 09:17:51 GMT-0600 (Central Standard Time),307872.3999999985,1500,I,m,542,4,1,2061.699999999255,305810.69999999925,8031,NTS,A,24
9,0,prac,1,C,circle.png,0,m,Fri Feb 21 2025 09:17:51 GMT-0600 (Central Standard Time),351491.299999997,1900,I,None,1516,8,1,4192.39999999851,347298.8999999985,8031,NTS,A,1
2,0,prac,1,C,triangle.png,0,m,Fri Feb 21 2025 09:17:51 GMT-0600 (Central Standard Time),355391.69999999925,1600,I,None,1515,2,1,3893.199999999255,351498.5,8031,NTS,A,2
1,1,prac,1,C,circle.png,1,z,Fri Feb 21 2025 09:17:51 GMT-0600 (Central Standard Time),359157.299999997,1700,I,z,1294,1,1,3759.199999999255,355398.09999999776,8031,NTS,A,3
9,1,prac,1,C,circle.png,0,m,Fri Feb 21 2025 09:17:51 GMT-0600 (Central Standard Time),363354.5,1900,I,None,1514,8,1,4190.10000000149,359164.3999999985,8031,NTS,A,4
4,2,prac,1,C,circle.png,1,z,Fri Feb 21 2025 09:17:51 GMT-0600 (Central Standard Time),366554.299999997,1000,I,z,1415,4,1,3192.599999997765,363361.69999999925,8031,NTS,A,5
2,2,prac,1,C,triangle.png,0,m,Fri Feb 21 2025 09:17:51 GMT-0600 (Central Standard Time),370452.799999997,1600,I,None,1517,2,1,3891.39999999851,366561.3999999985,8031,NTS,A,6
3,3,prac,1,C,triangle.png,1,z,Fri Feb 21 2025 09:17:51 GMT-0600 (Central Standard Time),373717.8999999985,1500,I,z,967,3,1,3257.5,370460.3999999985,8031,NTS,A,7
6,4,prac,1,C,circle.png,1,m,Fri Feb 21 2025 09:17:51 GMT-0600 (Central Standard Time),377883.799999997,2000,I,m,1381,5,1,4158.89999999851,373724.8999999985,8031,NTS,A,8
7,4,prac,1,C,triangle.png,0,z,Fri Feb 21 2025 09:17:51 GMT-0600 (Central Standard Time),381380.8999999985,1200,I,None,1516,6,1,3490.300000000745,377890.59999999776,8031,NTS,A,9
8,4,prac,1,C,triangle.png,0,m,Fri Feb 21 2025 09:17:51 GMT-0600 (Central Standard Time),385065.69999999925,1400,I,None,1501,7,1,3678.800000000745,381386.8999999985,8031,NTS,A,10
8,4,prac,1,C,triangle.png,0,m,Fri Feb 21 2025 09:17:51 GMT-0600 (Central Standard Time),388764.0,1400,I,None,1513,7,1,3691.10000000149,385072.8999999985,8031,NTS,A,11
1,4,prac,1,C,circle.png,0,z,Fri Feb 21 2025 09:17:51 GMT-0600 (Central Standard Time),392763.0,1700,I,None,1510,1,1,3992.2000000029802,388770.799999997,8031,NTS,A,12
7,0,prac,2,C,triangle.png,0,z,Fri Feb 21 2025 09:17:51 GMT-0600 (Central Standard Time),406790.3999999985,1200,I,None,1502,6,1,3476.60000000149,403313.799999997,8031,NTS,A,1
3,1,prac,2,C,triangle.png,1,z,Fri Feb 21 2025 09:17:51 GMT-0600 (Central Standard Time),410390.5,1500,I,z,1300,3,1,3591.60000000149,406798.8999999985,8031,NTS,A,2
6,2,prac,2,C,circle.png,1,m,Fri Feb 21 2025 09:17:51 GMT-0600 (Central Standard Time),414339.0,2000,I,m,1165,5,1,3941.300000000745,410397.69999999925,8031,NTS,A,3
9,3,prac,2,C,circle.png,1,m,Fri Feb 21 2025 09:17:51 GMT-0600 (Central Standard Time),418086.69999999925,1900,I,m,1067,8,1,3741.699999999255,414345.0,8031,NTS,A,4
8,3,prac,2,C,triangle.png,0,m,Fri Feb 21 2025 09:17:51 GMT-0600 (Central Standard Time),421786.59999999776,1400,I,None,1514,7,1,3694.0,418092.59999999776,8031,NTS,A,5
1,4,prac,2,C,circle.png,1,z,Fri Feb 21 2025 09:17:51 GMT-0600 (Central Standard Time),425568.5,1700,I,z,1289,1,1,3774.300000000745,421794.19999999925,8031,NTS,A,6
2,4,prac,2,C,triangle.png,0,m,Fri Feb 21 2025 09:17:51 GMT-0600 (Central Standard Time),429451.19999999925,1600,I,None,1513,2,1,3876.5,425574.69999999925,8031,NTS,A,7
8,4,prac,2,C,triangle.png,0,m,Fri Feb 21 2025 09:17:51 GMT-0600 (Central Standard Time),433032.8999999985,1400,I,z,1391,7,1,3576.60000000149,429456.299999997,8031,NTS,A,8
4,5,prac,2,C,circle.png,1,z,Fri Feb 21 2025 09:17:51 GMT-0600 (Central Standard Time),436132.09999999776,1000,I,z,1327,4,1,3091.5,433040.59999999776,8031,NTS,A,9
7,5,prac,2,C,triangle.png,0,z,Fri Feb 21 2025 09:17:51 GMT-0600 (Central Standard Time),439447.09999999776,1200,I,m,1327,6,1,3307.89999999851,436139.19999999925,8031,NTS,A,10
1,6,prac,2,C,circle.png,1,z,Fri Feb 21 2025 09:17:51 GMT-0600 (Central Standard Time),443146.8999999985,1700,I,z,1205,1,1,3691.60000000149,439455.299999997,8031,NTS,A,11
2,6,prac,2,C,triangle.png,0,m,Fri Feb 21 2025 09:17:51 GMT-0600 (Central Standard Time),447045.0,1600,I,None,1515,2,1,3891.0,443154.0,8031,NTS,A,12
2,1,test,1,C,circle.png,1,z,Fri Feb 21 2025 09:17:51 GMT-0600 (Central Standard Time),487432.3999999985,1700,I,z,1101,10,1,2832.10000000149,484600.299999997,8031,NTS,A,1
1,2,test,1,C,triangle.png,1,z,Fri Feb 21 2025 09:17:51 GMT-0600 (Central Standard Time),490797.299999997,1900,I,z,1436,17,1,3360.5,487436.799999997,8031,NTS,A,2
4,2,test,1,C,triangle.png,0,m,Fri Feb 21 2025 09:17:51 GMT-0600 (Central Standard Time),493213.299999997,1500,I,z,895,20,1,2411.0,490802.299999997,8031,NTS,A,3
7,3,test,1,C,triangle.png,1,z,Fri Feb 21 2025 09:17:51 GMT-0600 (Central Standard Time),496129.19999999925,1700,I,z,1191,22,1,2912.0,493217.19999999925,8031,NTS,A,4
7,4,test,1,C,triangle.png,1,z,Fri Feb 21 2025 09:17:51 GMT-0600 (Central Standard Time),498660.8999999985,1700,I,z,813,6,1,2527.5,496133.3999999985,8031,NTS,A,5
4,5,test,1,C,triangle.png,1,m,Fri Feb 21 2025 09:17:51 GMT-0600 (Central Standard Time),500879.59999999776,1500,I,m,694,12,1,2214.0,498665.59999999776,8031,NTS,A,6
6,6,test,1,C,circle.png,1,m,Fri Feb 21 2025 09:17:51 GMT-0600 (Central Standard Time),503843.5,1900,I,m,1037,5,1,2960.0,500883.5,8031,NTS,A,7
8,6,test,1,C,triangle.png,0,m,Fri Feb 21 2025 09:17:51 GMT-0600 (Central Standard Time),506976.5,1600,I,None,1515,23,1,3127.7000000029802,503848.799999997,8031,NTS,A,8
7,7,test,1,C,circle.png,1,m,Fri Feb 21 2025 09:17:51 GMT-0600 (Central Standard Time),510308.5,2000,I,m,1305,14,1,3327.300000000745,506981.19999999925,8031,NTS,A,9
3,8,test,1,C,circle.png,1,z,Fri Feb 21 2025 09:17:51 GMT-0600 (Central Standard Time),513092.0,1600,I,z,1166,19,1,2779.0,510313.0,8031,NTS,A,10
9,8,test,1,C,triangle.png,0,z,Fri Feb 21 2025 09:17:51 GMT-0600 (Central Standard Time),515756.19999999925,1400,I,m,1248,16,1,2659.10000000149,513097.09999999776,8031,NTS,A,11
9,9,test,1,C,circle.png,1,m,Fri Feb 21 2025 09:17:51 GMT-0600 (Central Standard Time),518555.09999999776,1500,I,m,1283,24,1,2794.300000000745,515760.799999997,8031,NTS,A,12
1,9,test,1,C,triangle.png,0,z,Fri Feb 21 2025 09:17:51 GMT-0600 (Central Standard Time),521986.5,1900,I,None,1514,9,1,3428.0,518558.5,8031,NTS,A,13
1,9,test,1,C,circle.png,0,z,Fri Feb 21 2025 09:17:51 GMT-0600 (Central Standard Time),524519.0999999978,1000,I,None,1514,1,1,2522.0,521997.09999999776,8031,NTS,A,14
8,9,test,1,C,triangle.png,0,m,Fri Feb 21 2025 09:17:51 GMT-0600 (Central Standard Time),527651.8999999985,1600,I,None,1514,7,1,3129.60000000149,524522.299999997,8031,NTS,A,15
8,10,test,1,C,circle.png,1,m,Fri Feb 21 2025 09:17:51 GMT-0600 (Central Standard Time),530001.5,1200,I,m,1116,15,1,2343.2000000029802,527658.299999997,8031,NTS,A,16
3,10,test,1,C,triangle.png,0,z,Fri Feb 21 2025 09:17:51 GMT-0600 (Central Standard Time),532734.799999997,1200,I,None,1515,3,1,2728.099999997765,530006.6999999993,8031,NTS,A,17
2,10,test,1,C,triangle.png,0,m,Fri Feb 21 2025 09:17:51 GMT-0600 (Central Standard Time),536265.299999997,2000,I,None,1514,2,1,3526.199999999255,532739.0999999978,8031,NTS,A,18
6,11,test,1,C,circle.png,1,m,Fri Feb 21 2025 09:17:51 GMT-0600 (Central Standard Time),539132.5999999978,1900,I,m,949,21,1,2862.5,536270.0999999978,8031,NTS,A,19
9,11,test,1,C,circle.png,0,m,Fri Feb 21 2025 09:17:51 GMT-0600 (Central Standard Time),542163.5999999978,1500,I,None,1514,8,1,3026.199999999255,539137.3999999985,8031,NTS,A,20
4,12,test,1,C,circle.png,1,z,Fri Feb 21 2025 09:17:51 GMT-0600 (Central Standard Time),544795.0999999978,1400,I,z,1211,4,1,2624.300000000745,542170.799999997,8031,NTS,A,21
3,12,test,1,C,circle.png,0,z,Fri Feb 21 2025 09:17:51 GMT-0600 (Central Standard Time),547930.299999997,1600,I,None,1517,11,1,3132.39999999851,544797.8999999985,8031,NTS,A,22
6,12,test,1,C,triangle.png,0,m,Fri Feb 21 2025 09:17:51 GMT-0600 (Central Standard Time),550460.1999999993,1000,I,None,1513,13,1,2525.10000000149,547935.0999999978,8031,NTS,A,23
2,13,test,1,C,circle.png,1,z,Fri Feb 21 2025 09:17:51 GMT-0600 (Central Standard Time),553260.8999999985,1700,I,z,1079,18,1,2796.300000000745,550464.5999999978,8031,NTS,A,24
9,0,test,2,C,circle.png,0,m,Fri Feb 21 2025 09:17:51 GMT-0600 (Central Standard Time),562325.5,1500,I,None,1513,8,1,3026.5,559299.0,8031,NTS,A,1
3,1,test,2,C,circle.png,1,z,Fri Feb 21 2025 09:17:51 GMT-0600 (Central Standard Time),564973.799999997,1600,I,z,1027,19,1,2642.10000000149,562331.6999999955,8031,NTS,A,2
8,2,test,2,C,triangle.png,1,m,Fri Feb 21 2025 09:17:51 GMT-0600 (Central Standard Time),567772.6000000015,1600,I,m,1171,7,1,2794.60000000149,564978.0,8031,NTS,A,3
1,3,test,2,C,circle.png,1,z,Fri Feb 21 2025 09:17:51 GMT-0600 (Central Standard Time),569905.8999999985,1000,I,z,1106,1,1,2128.39999999851,567777.5,8031,NTS,A,4
4,4,test,2,C,triangle.png,1,m,Fri Feb 21 2025 09:17:51 GMT-0600 (Central Standard Time),572872.1000000015,1500,I,m,1441,20,1,2957.4000000059605,569914.6999999955,8031,NTS,A,5
2,5,test,2,C,triangle.png,1,m,Fri Feb 21 2025 09:17:51 GMT-0600 (Central Standard Time),575738.6999999955,2000,I,m,842,2,1,2857.2999999970198,572881.3999999985,8031,NTS,A,6
6,6,test,2,C,triangle.png,1,m,Fri Feb 21 2025 09:17:51 GMT-0600 (Central Standard Time),577719.8999999985,1000,I,m,951,21,1,1970.7000000029802,575749.1999999955,8031,NTS,A,7
7,7,test,2,C,triangle.png,1,z,Fri Feb 21 2025 09:17:51 GMT-0600 (Central Standard Time),580418.5,1700,I,z,982,6,1,2692.10000000149,577726.3999999985,8031,NTS,A,8
3,8,test,2,C,circle.png,1,z,Fri Feb 21 2025 09:17:51 GMT-0600 (Central Standard Time),582884.8999999985,1600,I,z,846,11,1,2457.10000000149,580427.799999997,8031,NTS,A,9
2,9,test,2,C,circle.png,1,z,Fri Feb 21 2025 09:17:51 GMT-0600 (Central Standard Time),585366.6000000015,1700,I,z,751,18,1,2472.7000000029802,582893.8999999985,8031,NTS,A,10
4,10,test,2,C,triangle.png,1,m,Fri Feb 21 2025 09:17:51 GMT-0600 (Central Standard Time),588066.6000000015,1500,I,m,1182,12,1,2695.8000000044703,585370.799999997,8031,NTS,A,11
8,11,test,2,C,circle.png,1,m,Fri Feb 21 2025 09:17:51 GMT-0600 (Central Standard Time),590182.299999997,1200,I,m,885,23,1,2111.10000000149,588071.1999999955,8031,NTS,A,12
6,12,test,2,C,triangle.png,1,m,Fri Feb 21 2025 09:17:51 GMT-0600 (Central Standard Time),592115.8999999985,1000,I,m,916,13,1,1928.8999999985099,590187.0,8031,NTS,A,13
3,13,test,2,C,triangle.png,1,z,Fri Feb 21 2025 09:17:51 GMT-0600 (Central Standard Time),594315.6999999955,1200,I,z,974,3,1,2190.7999999970198,592124.8999999985,8031,NTS,A,14
1,14,test,2,C,triangle.png,1,z,Fri Feb 21 2025 09:17:51 GMT-0600 (Central Standard Time),597081.1000000015,1900,I,z,842,9,1,2755.60000000149,594325.5,8031,NTS,A,15
7,15,test,2,C,circle.png,1,m,Fri Feb 21 2025 09:17:51 GMT-0600 (Central Standard Time),600046.1000000015,2000,I,m,935,22,1,2957.8000000044703,597088.299999997,8031,NTS,A,16
6,16,test,2,C,circle.png,1,m,Fri Feb 21 2025 09:17:51 GMT-0600 (Central Standard Time),602829.0,1900,I,m,864,5,1,2778.10000000149,600050.8999999985,8031,NTS,A,17
4,16,test,2,C,circle.png,0,z,Fri Feb 21 2025 09:17:51 GMT-0600 (Central Standard Time),604844.1000000015,1400,I,m,587,4,1,2009.6000000014901,602834.5,8031,NTS,A,18
7,17,test,2,C,circle.png,1,m,Fri Feb 21 2025 09:17:51 GMT-0600 (Central Standard Time),607877.0,2000,I,m,1006,14,1,3028.0,604849.0,8031,NTS,A,19
8,18,test,2,C,circle.png,1,m,Fri Feb 21 2025 09:17:51 GMT-0600 (Central Standard Time),609826.3999999985,1200,I,m,723,15,1,1944.2000000029802,607882.1999999955,8031,NTS,A,20
9,19,test,2,C,triangle.png,1,z,Fri Feb 21 2025 09:17:51 GMT-0600 (Central Standard Time),612625.1000000015,1400,I,z,1375,24,1,2793.7000000029802,609831.3999999985,8031,NTS,A,21
9,20,test,2,C,triangle.png,1,z,Fri Feb 21 2025 09:17:51 GMT-0600 (Central Standard Time),614674.5,1400,I,z,630,16,1,2043.3999999985099,612631.1000000015,8031,NTS,A,22
2,21,test,2,C,circle.png,1,z,Fri Feb 21 2025 09:17:51 GMT-0600 (Central Standard Time),617691.1999999955,1700,I,z,1289,10,1,3010.5,614680.6999999955,8031,NTS,A,23
1,22,test,2,C,triangle.png,1,z,Fri Feb 21 2025 09:17:51 GMT-0600 (Central Standard Time),620388.799999997,1900,I,z,769,17,1,2692.7999999970198,617696.0,8031,NTS,A,24
9,1,test,3,C,triangle.png,1,z,Fri Feb 21 2025 09:17:51 GMT-0600 (Central Standard Time),628053.8999999985,1400,I,z,1450,16,1,2859.7999999970198,625194.1000000015,8031,NTS,A,1
7,2,test,3,C,triangle.png,1,z,Fri Feb 21 2025 09:17:51 GMT-0600 (Central Standard Time),630519.1999999955,1700,I,z,743,6,1,2460.6999999955297,628058.5,8031,NTS,A,2
2,2,test,3,C,triangle.png,0,m,Fri Feb 21 2025 09:17:51 GMT-0600 (Central Standard Time),633235.0,2000,I,z,688,18,1,2710.7000000029802,630524.299999997,8031,NTS,A,3
4,3,test,3,C,triangle.png,1,m,Fri Feb 21 2025 09:17:51 GMT-0600 (Central Standard Time),635584.799999997,1500,I,m,825,12,1,2345.0,633239.799999997,8031,NTS,A,4
4,4,test,3,C,circle.png,1,z,Fri Feb 21 2025 09:17:51 GMT-0600 (Central Standard Time),638068.5,1400,I,z,1066,20,1,2479.7000000029802,635588.799999997,8031,NTS,A,5
2,5,test,3,C,circle.png,1,z,Fri Feb 21 2025 09:17:51 GMT-0600 (Central Standard Time),640516.0,1700,I,z,730,10,1,2442.10000000149,638073.8999999985,8031,NTS,A,6
1,6,test,3,C,circle.png,1,z,Fri Feb 21 2025 09:17:51 GMT-0600 (Central Standard Time),642815.5,1000,I,z,1267,17,1,2293.3000000044703,640522.1999999955,8031,NTS,A,7
8,7,test,3,C,triangle.png,1,m,Fri Feb 21 2025 09:17:51 GMT-0600 (Central Standard Time),645797.8999999985,1600,I,m,1361,7,1,2976.89999999851,642821.0,8031,NTS,A,8
1,8,test,3,C,triangle.png,1,z,Fri Feb 21 2025 09:17:51 GMT-0600 (Central Standard Time),648663.299999997,1900,I,z,934,9,1,2861.0,645802.299999997,8031,NTS,A,9
3,9,test,3,C,triangle.png,1,z,Fri Feb 21 2025 09:17:51 GMT-0600 (Central Standard Time),650980.1000000015,1200,I,z,1089,19,1,2312.3000000044703,648667.799999997,8031,NTS,A,10
9,10,test,3,C,circle.png,1,m,Fri Feb 21 2025 09:17:51 GMT-0600 (Central Standard Time),653495.6999999955,1500,I,m,992,24,1,2507.5999999940395,650988.1000000015,8031,NTS,A,11
8,11,test,3,C,triangle.png,1,m,Fri Feb 21 2025 09:17:51 GMT-0600 (Central Standard Time),656345.6000000015,1600,I,m,1233,23,1,2845.4000000059605,653500.1999999955,8031,NTS,A,12
9,12,test,3,C,circle.png,1,m,Fri Feb 21 2025 09:17:51 GMT-0600 (Central Standard Time),658660.0,1500,I,m,788,8,1,2309.0,656351.0,8031,NTS,A,13
7,13,test,3,C,triangle.png,1,z,Fri Feb 21 2025 09:17:51 GMT-0600 (Central Standard Time),661394.0,1700,I,z,1017,22,1,2730.10000000149,658663.8999999985,8031,NTS,A,14
7,14,test,3,C,circle.png,1,m,Fri Feb 21 2025 09:17:51 GMT-0600 (Central Standard Time),664707.8999999985,2000,I,m,1286,14,1,3306.0,661401.8999999985,8031,NTS,A,15
6,15,test,3,C,triangle.png,1,m,Fri Feb 21 2025 09:17:51 GMT-0600 (Central Standard Time),667008.0,1000,I,m,1269,13,1,2295.60000000149,664712.3999999985,8031,NTS,A,16
1,16,test,3,C,circle.png,1,z,Fri Feb 21 2025 09:17:51 GMT-0600 (Central Standard Time),669408.299999997,1000,I,z,1376,1,1,2395.60000000149,667012.6999999955,8031,NTS,A,17
4,17,test,3,C,circle.png,1,z,Fri Feb 21 2025 09:17:51 GMT-0600 (Central Standard Time),671690.299999997,1400,I,z,858,4,1,2278.0,669412.299999997,8031,NTS,A,18
3,17,test,3,C,circle.png,0,z,Fri Feb 21 2025 09:17:51 GMT-0600 (Central Standard Time),674821.5,1600,I,None,1514,11,1,3128.3000000044703,671693.1999999955,8031,NTS,A,19
8,18,test,3,C,circle.png,1,m,Fri Feb 21 2025 09:17:51 GMT-0600 (Central Standard Time),677320.0,1200,I,m,1274,15,1,2492.10000000149,674827.8999999985,8031,NTS,A,20
6,19,test,3,C,circle.png,1,m,Fri Feb 21 2025 09:17:51 GMT-0600 (Central Standard Time),680203.0,1900,I,m,956,21,1,2879.89999999851,677323.1000000015,8031,NTS,A,21
2,20,test,3,C,triangle.png,1,m,Fri Feb 21 2025 09:17:51 GMT-0600 (Central Standard Time),683602.799999997,2000,I,m,1373,2,1,3396.6999999955297,680206.1000000015,8031,NTS,A,22
3,21,test,3,C,triangle.png,1,z,Fri Feb 21 2025 09:17:51 GMT-0600 (Central Standard Time),685868.1000000015,1200,I,z,1032,3,1,2260.5,683607.6000000015,8031,NTS,A,23
6,22,test,3,C,circle.png,1,m,Fri Feb 21 2025 09:17:51 GMT-0600 (Central Standard Time),688634.799999997,1900,I,m,831,5,1,2759.60000000149,685875.1999999955,8031,NTS,A,24
4,1,test,4,C,circle.png,1,z,Fri Feb 21 2025 09:17:51 GMT-0600 (Central Standard Time),693699.5,1400,I,z,1496,20,1,2908.7000000029802,690790.799999997,8031,NTS,A,1
7,2,test,4,C,triangle.png,1,z,Fri Feb 21 2025 09:17:51 GMT-0600 (Central Standard Time),696649.1000000015,1700,I,z,1224,6,1,2941.0,693708.1000000015,8031,NTS,A,2
7,2,test,4,C,circle.png,0,m,Fri Feb 21 2025 09:17:51 GMT-0600 (Central Standard Time),700181.799999997,2000,I,None,1515,14,1,3527.1999999955297,696654.6000000015,8031,NTS,A,3
8,3,test,4,C,triangle.png,1,m,Fri Feb 21 2025 09:17:51 GMT-0600 (Central Standard Time),702930.1000000015,1600,I,m,1125,23,1,2743.0,700187.1000000015,8031,NTS,A,4
9,4,test,4,C,circle.png,1,m,Fri Feb 21 2025 09:17:51 GMT-0600 (Central Standard Time),705345.0,1500,I,m,890,24,1,2407.10000000149,702937.8999999985,8031,NTS,A,5
6,5,test,4,C,circle.png,1,m,Fri Feb 21 2025 09:17:51 GMT-0600 (Central Standard Time),708095.0,1900,I,m,827,21,1,2744.39999999851,705350.6000000015,8031,NTS,A,6
8,6,test,4,C,circle.png,1,m,Fri Feb 21 2025 09:17:51 GMT-0600 (Central Standard Time),709911.5,1200,I,m,585,15,1,1812.5,708099.0,8031,NTS,A,7
1,6,test,4,C,triangle.png,0,z,Fri Feb 21 2025 09:17:51 GMT-0600 (Central Standard Time),713176.5,1900,I,m,1341,9,1,3260.2000000029802,709916.299999997,8031,NTS,A,8
2,7,test,4,C,circle.png,1,z,Fri Feb 21 2025 09:17:51 GMT-0600 (Central Standard Time),715825.1999999955,1700,I,z,917,10,1,2643.0999999940395,713182.1000000015,8031,NTS,A,9
3,8,test,4,C,triangle.png,1,z,Fri Feb 21 2025 09:17:51 GMT-0600 (Central Standard Time),717942.299999997,1200,I,z,887,19,1,2110.5,715831.799999997,8031,NTS,A,10
9,9,test,4,C,triangle.png,1,z,Fri Feb 21 2025 09:17:51 GMT-0600 (Central Standard Time),720557.299999997,1400,I,z,1196,16,1,2609.0,717948.299999997,8031,NTS,A,11
6,10,test,4,C,circle.png,1,m,Fri Feb 21 2025 09:17:51 GMT-0600 (Central Standard Time),723290.799999997,1900,I,m,808,5,1,2728.6999999955297,720562.1000000015,8031,NTS,A,12
6,11,test,4,C,triangle.png,1,m,Fri Feb 21 2025 09:17:51 GMT-0600 (Central Standard Time),725724.3999999985,1000,I,m,1417,13,1,2428.60000000149,723295.799999997,8031,NTS,A,13
4,12,test,4,C,circle.png,1,z,Fri Feb 21 2025 09:17:51 GMT-0600 (Central Standard Time),728472.6000000015,1400,I,z,1317,4,1,2743.60000000149,725729.0,8031,NTS,A,14
3,13,test,4,C,circle.png,1,z,Fri Feb 21 2025 09:17:51 GMT-0600 (Central Standard Time),731570.6999999955,1600,I,z,1481,11,1,3092.7999999970198,728477.8999999985,8031,NTS,A,15
2,14,test,4,C,triangle.png,1,m,Fri Feb 21 2025 09:17:51 GMT-0600 (Central Standard Time),735053.0,2000,I,m,1462,18,1,3477.10000000149,731575.8999999985,8031,NTS,A,16
7,15,test,4,C,triangle.png,1,z,Fri Feb 21 2025 09:17:51 GMT-0600 (Central Standard Time),737919.0,1700,I,z,1143,22,1,2859.60000000149,735059.3999999985,8031,NTS,A,17
8,16,test,4,C,triangle.png,1,m,Fri Feb 21 2025 09:17:51 GMT-0600 (Central Standard Time),740767.799999997,1600,I,m,1226,7,1,2843.60000000149,737924.1999999955,8031,NTS,A,18
1,17,test,4,C,circle.png,1,z,Fri Feb 21 2025 09:17:51 GMT-0600 (Central Standard Time),742783.3999999985,1000,I,z,993,17,1,2011.2999999970198,740772.1000000015,8031,NTS,A,19
1,18,test,4,C,circle.png,1,z,Fri Feb 21 2025 09:17:51 GMT-0600 (Central Standard Time),744333.6999999955,1000,I,z,529,1,1,1546.0,742787.6999999955,8031,NTS,A,20
9,19,test,4,C,circle.png,1,m,Fri Feb 21 2025 09:17:51 GMT-0600 (Central Standard Time),746999.0,1500,I,m,1134,8,1,2660.7000000029802,744338.299999997,8031,NTS,A,21
3,20,test,4,C,triangle.png,1,z,Fri Feb 21 2025 09:17:51 GMT-0600 (Central Standard Time),749564.6000000015,1200,I,z,1336,3,1,2560.8000000044703,747003.799999997,8031,NTS,A,22
4,20,test,4,C,triangle.png,0,m,Fri Feb 21 2025 09:17:51 GMT-0600 (Central Standard Time),752598.0,1500,I,None,1516,12,1,3029.0,749569.0,8031,NTS,A,23
2,21,test,4,C,triangle.png,1,m,Fri Feb 21 2025 09:17:51 GMT-0600 (Central Standard Time),755880.1999999955,2000,I,m,1259,2,1,3277.0999999940395,752603.1000000015,8031,NTS,A,24
