acc_sum,block,block_c,condition,correct,correct_response,datetime,endtime,flanker,jitter,project,response,response_test_buffer_response,response_test_target_response,response_time,response_time_test_buffer_response,response_time_test_target_response,row_sel,session_number,start_end,starttime,subject_id,target,task,task_vers,time_test_buffer,time_test_buffer_response,time_test_constants,time_test_flanker,time_test_jitter,time_test_logger,time_test_target,time_test_target_response,time_test_variables,trial
1,prac,1,con,1,z,Thu Dec 12 2024 16:10:57 GMT-0600 (Central Standard Time),159674.6000000001,banana,800,I,z,,,581,,,1,2,2676.600000000093,156998.0,8006,banana,NF,C,,,,,,,,,,1
2,prac,1,inc,1,m,Thu Dec 12 2024 16:10:57 GMT-0600 (Central Standard Time),162590.2000000002,raisin,1100,I,m,,,502,,,12,2,2908.8000000002794,159681.3999999999,8006,cobalt,NF,C,,,,,,,,,,2
3,prac,1,con,1,z,Thu Dec 12 2024 16:10:57 GMT-0600 (Central Standard Time),165439.30000000028,orange,1000,I,z,,,441,,,3,2,2844.5,162594.80000000028,8006,orange,NF,C,,,,,,,,,,3
4,prac,1,inc,1,z,Thu Dec 12 2024 16:10:57 GMT-0600 (Central Standard Time),168322.1000000001,cobalt,1100,I,z,,,482,,,4,2,2877.600000000093,165444.5,8006,raisin,NF,C,,,,,,,,,,4
5,prac,1,con,1,z,Thu Dec 12 2024 16:10:57 GMT-0600 (Central Standard Time),170887.80000000028,lime,800,I,z,,,451,,,5,2,2561.100000000093,168326.7000000002,8006,lime,NF,C,,,,,,,,,,5
6,prac,1,con,1,m,Thu Dec 12 2024 16:10:57 GMT-0600 (Central Standard Time),173520.3999999999,gold,800,I,m,,,517,,,13,2,2628.1999999997206,170892.2000000002,8006,gold,NF,C,,,,,,,,,,6
7,prac,1,inc,1,z,Thu Dec 12 2024 16:10:57 GMT-0600 (Central Standard Time),176203.0,iron,900,I,z,,,480,,,6,2,2678.399999999907,173524.6000000001,8006,pear,NF,C,,,,,,,,,,7
8,prac,1,inc,1,m,Thu Dec 12 2024 16:10:57 GMT-0600 (Central Standard Time),179002.0,plum,1100,I,m,,,391,,,16,2,2794.899999999907,176207.1000000001,8006,lead,NF,C,,,,,,,,,,8
9,prac,1,con,1,z,Thu Dec 12 2024 16:10:57 GMT-0600 (Central Standard Time),181684.5,kiwi,1000,I,z,,,380,,,7,2,2678.399999999907,179006.1000000001,8006,kiwi,NF,C,,,,,,,,,,9
10,prac,1,inc,1,z,Thu Dec 12 2024 16:10:57 GMT-0600 (Central Standard Time),184317.0,copper,900,I,z,,,421,,,2,2,2628.100000000093,181688.8999999999,8006,cherry,NF,C,,,,,,,,,,10
11,prac,1,con,1,m,Thu Dec 12 2024 16:10:57 GMT-0600 (Central Standard Time),186799.5,bronze,800,I,m,,,368,,,9,2,2476.5,184323.0,8006,bronze,NF,C,,,,,,,,,,11
12,prac,1,con,1,m,Thu Dec 12 2024 16:10:57 GMT-0600 (Central Standard Time),189465.5,silver,1000,I,m,,,358,,,11,2,2661.399999999907,186804.1000000001,8006,silver,NF,C,,,,,,,,,,12
13,prac,1,inc,1,z,Thu Dec 12 2024 16:10:57 GMT-0600 (Central Standard Time),192347.8999999999,lead,1100,I,z,,,472,,,8,2,2878.399999999907,189469.5,8006,plum,NF,C,,,,,,,,,,13
14,prac,1,inc,1,m,Thu Dec 12 2024 16:10:57 GMT-0600 (Central Standard Time),194980.3999999999,pear,900,I,m,,,429,,,14,2,2628.399999999907,192352.0,8006,iron,NF,C,,,,,,,,,,14
15,prac,1,inc,1,m,Thu Dec 12 2024 16:10:57 GMT-0600 (Central Standard Time),197613.8999999999,cherry,900,I,m,,,428,,,10,2,2629.2999999998137,194984.6000000001,8006,copper,NF,C,,,,,,,,,,15
16,prac,1,con,1,m,Thu Dec 12 2024 16:10:57 GMT-0600 (Central Standard Time),200428.6000000001,zinc,1000,I,m,,,505,,,15,2,2810.2999999998137,197618.30000000028,8006,zinc,NF,C,,,,,,,,,,16
1,test,1,con,1,z,Thu Dec 12 2024 16:10:57 GMT-0600 (Central Standard Time),218306.3999999999,pear,1000,I,z,z,None,408,209.0,199.0,43,2,1945.8999999999069,216360.5,8006,pear,NF,C,214437,214437,212707,213721,212709,214654,214238,214238,214653,1
2,test,1,inc,1,m,Thu Dec 12 2024 16:10:57 GMT-0600 (Central Standard Time),220055.8999999999,banana,800,I,m,m,None,402,203.0,199.0,85,2,1744.5,218311.3999999999,8006,silver,NF,C,216187,216187,214658,215470,214660,216403,215987,215987,216403,2
3,test,1,inc,1,z,Thu Dec 12 2024 16:10:57 GMT-0600 (Central Standard Time),221905.1000000001,copper,900,I,z,z,None,401,202.0,199.0,30,2,1845.0,220060.1000000001,8006,raisin,NF,C,218036,218036,216407,217320,216409,218252,217837,217837,218252,3
4,test,1,con,1,m,Thu Dec 12 2024 16:10:57 GMT-0600 (Central Standard Time),223537.8999999999,zinc,800,I,m,m,None,293,94.0,199.0,113,2,1628.6999999997206,221909.2000000002,8006,zinc,NF,C,219785,219785,218256,219069,218257,219885,219586,219586,219885,4
5,test,1,con,1,m,Thu Dec 12 2024 16:10:57 GMT-0600 (Central Standard Time),225287.6000000001,silver,800,I,m,m,None,412,213.0,199.0,81,2,1745.6000000000931,223542.0,8006,silver,NF,C,221418,221418,219889,220702,219890,221635,221219,221219,221635,5
6,test,1,con,1,m,Thu Dec 12 2024 16:10:57 GMT-0600 (Central Standard Time),227236.80000000028,gold,1000,I,m,m,None,405,190.0,215.0,99,2,1945.4000000003725,225291.3999999999,8006,gold,NF,C,223384,223384,221638,222652,221640,223584,223169,223169,223584,6
7,test,1,con,1,z,Thu Dec 12 2024 16:10:57 GMT-0600 (Central Standard Time),229069.5,kiwi,1000,I,z,z,None,296,97.0,199.0,51,2,1828.7999999998137,227240.7000000002,8006,kiwi,NF,C,225317,225317,223588,224602,223589,225417,225118,225118,225416,7
8,test,1,con,1,m,Thu Dec 12 2024 16:10:57 GMT-0600 (Central Standard Time),231035.6000000001,iron,1100,I,m,m,None,331,116.0,215.0,108,2,1962.2000000001863,229073.3999999999,8006,iron,NF,C,227266,227266,225420,226534,225422,227383,227051,227051,227383,8
9,test,1,con,1,m,Thu Dec 12 2024 16:10:57 GMT-0600 (Central Standard Time),232668.5,copper,800,I,m,m,None,290,91.0,199.0,73,2,1629.1999999997206,231039.30000000028,8006,copper,NF,C,228916,228916,227386,228200,227388,229016,228717,228717,229015,9
10,test,1,con,1,m,Thu Dec 12 2024 16:10:57 GMT-0600 (Central Standard Time),234518.0,bronze,900,I,m,m,None,413,198.0,215.0,66,2,1845.3999999999069,232672.6000000001,8006,bronze,NF,C,230665,230665,229020,229933,229021,230865,230450,230450,230865,10
11,test,1,con,1,m,Thu Dec 12 2024 16:10:57 GMT-0600 (Central Standard Time),236300.6000000001,zinc,900,I,m,m,None,340,141.0,199.0,114,2,1776.5,234524.1000000001,8006,zinc,NF,C,232498,232498,230871,231782,230872,232648,232299,232299,232648,11
12,test,1,con,1,z,Thu Dec 12 2024 16:10:57 GMT-0600 (Central Standard Time),238133.5,banana,1000,I,z,z,None,295,80.0,215.0,3,2,1828.6000000000931,236304.8999999999,8006,banana,NF,C,234398,234398,232652,233665,232653,234481,234182,234182,234481,12
13,test,1,inc,1,m,Thu Dec 12 2024 16:10:57 GMT-0600 (Central Standard Time),240016.2000000002,lime,800,I,m,m,None,535,336.0,199.0,101,2,1878.8000000002794,238137.3999999999,8006,gold,NF,C,236014,236014,234484,235298,234486,236363,235814,235814,236363,13
14,test,1,inc,1,m,Thu Dec 12 2024 16:10:57 GMT-0600 (Central Standard Time),242232.3999999999,plum,1100,I,m,m,None,570,371.0,199.0,112,2,2212.1999999997206,240020.2000000002,8006,iron,NF,C,238196,238196,236367,237480,236369,238579,237997,237997,238579,14
15,test,1,inc,1,m,Thu Dec 12 2024 16:10:57 GMT-0600 (Central Standard Time),244248.30000000028,orange,1000,I,m,m,None,469,270.0,199.0,71,2,2011.7000000001863,242236.6000000001,8006,bronze,NF,C,240312,240312,238584,239596,238585,240595,240113,240113,240595,15
16,test,1,con,1,m,Thu Dec 12 2024 16:10:57 GMT-0600 (Central Standard Time),246031.0,gold,900,I,m,m,None,347,147.0,200.0,98,2,1778.8999999999069,244252.1000000001,8006,gold,NF,C,242228,242228,240599,241513,240601,242378,242028,242028,242378,16
17,test,1,inc,1,m,Thu Dec 12 2024 16:10:57 GMT-0600 (Central Standard Time),248080.3999999999,plum,1100,I,m,m,None,403,204.0,199.0,120,2,2045.5999999996275,246034.80000000028,8006,zinc,NF,C,244211,244211,242382,243495,242383,244427,244012,244012,244427,17
18,test,1,con,1,m,Thu Dec 12 2024 16:10:57 GMT-0600 (Central Standard Time),249846.3999999999,cobalt,900,I,m,m,None,329,130.0,199.0,90,2,1762.0,248084.3999999999,8006,cobalt,NF,C,246061,246061,244431,245345,244433,246194,245861,245861,246193,18
19,test,1,con,1,m,Thu Dec 12 2024 16:10:57 GMT-0600 (Central Standard Time),251729.2000000002,silver,1000,I,m,m,None,343,144.0,199.0,83,2,1878.3000000002794,249850.8999999999,8006,silver,NF,C,247926,247926,246198,247210,246199,248076,247727,247727,248076,19
20,test,1,inc,1,m,Thu Dec 12 2024 16:10:57 GMT-0600 (Central Standard Time),253862.0,raisin,1100,I,m,m,None,488,288.0,200.0,72,2,2128.6999999997206,251733.30000000028,8006,bronze,NF,C,249910,249910,248080,249193,248082,250209,249710,249710,250209,20
21,test,1,inc,1,z,Thu Dec 12 2024 16:10:57 GMT-0600 (Central Standard Time),255944.80000000028,silver,1000,I,z,z,None,536,337.0,199.0,31,2,2079.0,253865.80000000028,8006,raisin,NF,C,251942,251942,250213,251227,250214,252292,251743,251743,252292,21
22,test,1,con,1,z,Thu Dec 12 2024 16:10:57 GMT-0600 (Central Standard Time),257743.8999999999,plum,800,I,z,z,None,453,254.0,199.0,57,2,1793.8999999999069,255950.0,8006,plum,NF,C,253825,253825,252297,253109,252298,254091,253626,253626,254091,22
23,test,1,inc,1,z,Thu Dec 12 2024 16:10:57 GMT-0600 (Central Standard Time),259560.1000000001,bronze,800,I,z,z,None,469,270.0,199.0,5,2,1811.6000000000931,257748.5,8006,banana,NF,C,255624,255624,254096,254908,254097,255907,255425,255425,255907,23
24,test,1,con,1,z,Thu Dec 12 2024 16:10:57 GMT-0600 (Central Standard Time),261576.0,cherry,1100,I,z,z,None,370,171.0,199.0,12,2,2011.5,259564.5,8006,cherry,NF,C,257740,257740,255912,257025,255913,257923,257541,257541,257923,24
25,test,1,inc,1,m,Thu Dec 12 2024 16:10:57 GMT-0600 (Central Standard Time),263325.6000000001,banana,800,I,m,m,None,413,214.0,199.0,93,2,1745.6000000000931,261580.0,8006,cobalt,NF,C,259456,259456,257927,258740,257928,259673,259257,259257,259673,25
26,test,1,inc,1,z,Thu Dec 12 2024 16:10:57 GMT-0600 (Central Standard Time),265291.7000000002,silver,1000,I,z,z,None,431,232.0,199.0,15,2,1961.8000000002794,263329.8999999999,8006,cherry,NF,C,261406,261406,259677,260690,259678,261639,261207,261207,261639,26
27,test,1,inc,1,z,Thu Dec 12 2024 16:10:57 GMT-0600 (Central Standard Time),267341.0,lead,1100,I,z,z,None,413,198.0,215.0,56,2,2045.6000000000931,265295.3999999999,8006,kiwi,NF,C,263488,263488,261642,262756,261644,263688,263273,263273,263688,27
28,test,1,inc,1,z,Thu Dec 12 2024 16:10:57 GMT-0600 (Central Standard Time),269523.6000000001,lead,1100,I,z,z,None,541,342.0,199.0,40,2,2178.899999999907,267344.7000000002,8006,lime,NF,C,265521,265521,263692,264805,263693,265871,265322,265322,265871,28
29,test,1,inc,1,z,Thu Dec 12 2024 16:10:57 GMT-0600 (Central Standard Time),271539.6000000001,zinc,1000,I,z,z,None,481,282.0,199.0,47,2,2012.3999999999069,269527.2000000002,8006,pear,NF,C,267604,267604,265874,266888,265876,267887,267405,267405,267887,29
30,test,1,inc,1,m,Thu Dec 12 2024 16:10:57 GMT-0600 (Central Standard Time),273472.5,cherry,900,I,m,m,None,485,286.0,199.0,78,2,1929.1000000000931,271543.3999999999,8006,copper,NF,C,269520,269520,267890,268804,267892,269820,269321,269321,269820,30
31,test,1,con,1,z,Thu Dec 12 2024 16:10:57 GMT-0600 (Central Standard Time),275189.6000000001,orange,800,I,z,z,None,380,165.0,215.0,17,2,1713.3999999999069,273476.2000000002,8006,orange,NF,C,271369,271369,269823,270637,269824,271537,271154,271154,271537,31
32,test,1,inc,1,z,Thu Dec 12 2024 16:10:57 GMT-0600 (Central Standard Time),277137.8000000003,silver,1000,I,z,z,None,409,194.0,215.0,7,2,1944.3000000002794,275193.5,8006,banana,NF,C,273285,273285,271541,272553,271542,273485,273070,273070,273485,32
33,test,1,inc,1,m,Thu Dec 12 2024 16:10:57 GMT-0600 (Central Standard Time),279003.8000000003,pear,900,I,m,m,None,416,217.0,199.0,118,2,1862.1000000000931,277141.7000000002,8006,zinc,NF,C,275118,275118,273489,274402,273490,275351,274919,274919,275351,33
34,test,1,inc,1,m,Thu Dec 12 2024 16:10:57 GMT-0600 (Central Standard Time),281086.8000000003,raisin,1100,I,m,m,None,445,246.0,199.0,88,2,2078.9000000003725,279007.8999999999,8006,silver,NF,C,277184,277184,275355,276468,275356,277434,276985,276985,277434,34
35,test,1,con,1,m,Thu Dec 12 2024 16:10:57 GMT-0600 (Central Standard Time),282919.5,gold,800,I,m,m,None,403,204.0,199.0,97,2,1828.8999999999069,281090.6000000001,8006,gold,NF,C,279051,279051,277438,278333,277439,279267,278851,278851,279267,35
36,test,1,con,1,m,Thu Dec 12 2024 16:10:57 GMT-0600 (Central Standard Time),284718.7000000002,lead,800,I,m,m,None,462,247.0,215.0,121,2,1794.8000000002794,282923.8999999999,8006,lead,NF,C,280816,280816,279271,280084,279272,281066,280601,280601,281066,36
37,test,1,inc,1,z,Thu Dec 12 2024 16:10:57 GMT-0600 (Central Standard Time),286868.1000000001,lead,1100,I,z,z,None,499,300.0,199.0,48,2,2144.5,284723.6000000001,8006,pear,NF,C,282899,282899,281071,282183,281072,283215,282700,282700,283215,37
38,test,1,con,1,z,Thu Dec 12 2024 16:10:57 GMT-0600 (Central Standard Time),288784.3000000003,plum,1000,I,z,z,None,369,170.0,199.0,59,2,1912.4000000003725,286871.8999999999,8006,plum,NF,C,284948,284948,283219,284232,283220,285131,284749,284749,285131,38
39,test,1,inc,1,m,Thu Dec 12 2024 16:10:57 GMT-0600 (Central Standard Time),290600.6000000001,banana,800,I,m,m,None,469,270.0,199.0,77,2,1812.5,288788.1000000001,8006,copper,NF,C,286664,286664,285135,285949,285136,286948,286465,286465,286948,39
40,test,1,con,1,m,Thu Dec 12 2024 16:10:57 GMT-0600 (Central Standard Time),292533.1000000001,bronze,1000,I,m,m,None,398,198.0,200.0,67,2,1928.3999999999069,290604.7000000002,8006,bronze,NF,C,288681,288681,286952,287965,286953,288880,288481,288481,288880,40
41,test,1,con,1,z,Thu Dec 12 2024 16:10:57 GMT-0600 (Central Standard Time),294415.8000000003,cherry,900,I,z,z,None,437,238.0,199.0,10,2,1879.1000000000931,292536.7000000002,8006,cherry,NF,C,290513,290513,288884,289798,288885,290763,290314,290314,290763,41
42,test,1,con,1,m,Thu Dec 12 2024 16:10:57 GMT-0600 (Central Standard Time),296181.8999999999,iron,900,I,m,m,None,322,123.0,199.0,106,2,1762.1999999997206,294419.7000000002,8006,iron,NF,C,292396,292396,290767,291680,290768,292529,292197,292197,292529,42
43,test,1,inc,1,m,Thu Dec 12 2024 16:10:57 GMT-0600 (Central Standard Time),298264.5,pear,900,I,m,m,None,642,443.0,199.0,126,2,2078.899999999907,296185.6000000001,8006,lead,NF,C,294163,294163,292533,293446,292534,294612,293963,293963,294612,43
44,test,1,inc,1,z,Thu Dec 12 2024 16:10:57 GMT-0600 (Central Standard Time),300314.0,zinc,1000,I,z,z,None,509,294.0,215.0,39,2,2045.6999999997206,298268.3000000003,8006,lime,NF,C,296361,296361,294615,295630,294617,296661,296146,296146,296661,44
45,test,1,con,1,z,Thu Dec 12 2024 16:10:57 GMT-0600 (Central Standard Time),302046.8000000003,lime,800,I,z,z,None,395,196.0,199.0,33,2,1728.9000000003725,300317.8999999999,8006,lime,NF,C,298194,298194,296665,297478,296666,298394,297995,297995,298394,45
46,test,1,inc,1,z,Thu Dec 12 2024 16:10:57 GMT-0600 (Central Standard Time),303913.2000000002,iron,900,I,z,z,None,418,219.0,199.0,62,2,1862.6000000000931,302050.6000000001,8006,plum,NF,C,300027,300027,298398,299311,298399,300260,299828,299828,300260,46
47,test,1,inc,1,z,Thu Dec 12 2024 16:10:57 GMT-0600 (Central Standard Time),305729.0,gold,800,I,z,z,None,370,169.0,201.0,37,2,1811.7999999998137,303917.2000000002,8006,lime,NF,C,301893,301893,300264,301077,300265,302076,301691,301691,302076,47
48,test,1,con,1,z,Thu Dec 12 2024 16:10:57 GMT-0600 (Central Standard Time),307628.1000000001,lime,1000,I,z,z,None,365,166.0,199.0,35,2,1895.2999999998137,305732.8000000003,8006,lime,NF,C,303809,303809,302080,303093,302081,303975,303610,303610,303975,48
49,test,1,con,1,z,Thu Dec 12 2024 16:10:57 GMT-0600 (Central Standard Time),309561.2000000002,raisin,1000,I,z,z,None,384,185.0,199.0,27,2,1929.3000000002794,307631.8999999999,8006,raisin,NF,C,305709,305709,303979,304993,303980,305908,305509,305509,305908,49
50,test,1,con,1,m,Thu Dec 12 2024 16:10:57 GMT-0600 (Central Standard Time),311510.5,iron,1000,I,m,m,None,404,205.0,199.0,107,2,1945.6000000000931,309564.8999999999,8006,iron,NF,C,307641,307641,305912,306925,305913,307858,307442,307442,307858,50
51,test,1,inc,1,z,Thu Dec 12 2024 16:10:57 GMT-0600 (Central Standard Time),313543.2000000002,cobalt,1100,I,z,z,None,387,172.0,215.0,8,2,2029.0,311514.2000000002,8006,banana,NF,C,309707,309707,307861,308975,307863,309890,309492,309492,309890,51
52,test,1,inc,1,z,Thu Dec 12 2024 16:10:57 GMT-0600 (Central Standard Time),315375.8999999999,gold,800,I,z,z,None,487,288.0,199.0,45,2,1829.0,313546.8999999999,8006,pear,NF,C,311423,311423,309894,310708,309895,311723,311224,311224,311723,52
53,test,1,con,1,z,Thu Dec 12 2024 16:10:57 GMT-0600 (Central Standard Time),317291.8999999999,lime,900,I,z,z,None,482,283.0,199.0,34,2,1912.3999999999069,315379.5,8006,lime,NF,C,313356,313356,311727,312640,311728,313639,313157,313157,313639,53
54,test,1,inc,1,z,Thu Dec 12 2024 16:10:57 GMT-0600 (Central Standard Time),319208.0,copper,900,I,z,z,None,470,270.0,200.0,6,2,1912.3999999999069,317295.6000000001,8006,banana,NF,C,315273,315273,313643,314556,313644,315555,315073,315073,315555,54
55,test,1,inc,1,m,Thu Dec 12 2024 16:10:57 GMT-0600 (Central Standard Time),321240.7000000002,plum,1100,I,m,m,None,386,187.0,199.0,104,2,2028.8000000002794,319211.8999999999,8006,gold,NF,C,317388,317388,315559,316672,315560,317588,317189,317189,317588,55
56,test,1,con,1,m,Thu Dec 12 2024 16:10:57 GMT-0600 (Central Standard Time),323190.1000000001,lead,1000,I,m,m,None,413,214.0,199.0,123,2,1945.6000000000931,321244.5,8006,lead,NF,C,319321,319321,317592,318605,317593,319537,319122,319122,319537,56
57,test,1,con,1,m,Thu Dec 12 2024 16:10:57 GMT-0600 (Central Standard Time),324989.5,copper,900,I,m,m,None,356,157.0,199.0,74,2,1795.6000000000931,323193.8999999999,8006,copper,NF,C,321170,321170,319541,320454,319542,321337,320971,320971,321337,57
58,test,1,con,1,z,Thu Dec 12 2024 16:10:57 GMT-0600 (Central Standard Time),326972.2000000002,pear,1100,I,z,z,None,348,133.0,215.0,44,2,1978.8999999999069,324993.3000000003,8006,pear,NF,C,323186,323186,321340,322454,321342,323319,322971,322971,323319,58
59,test,1,inc,1,m,Thu Dec 12 2024 16:10:57 GMT-0600 (Central Standard Time),328850.0,lime,800,I,m,m,None,543,344.0,199.0,125,2,1874.1000000000931,326975.8999999999,8006,lead,NF,C,324852,324853,323323,324137,323324,325197,324653,324653,325197,59
60,test,1,inc,1,z,Thu Dec 12 2024 16:10:57 GMT-0600 (Central Standard Time),330804.1000000001,zinc,1000,I,z,z,None,415,215.0,200.0,55,2,1950.0,328854.1000000001,8006,kiwi,NF,C,326936,326936,325201,326219,325203,327151,326736,326736,327151,60
61,test,1,con,1,m,Thu Dec 12 2024 16:10:57 GMT-0600 (Central Standard Time),332604.1000000001,bronze,800,I,m,m,None,457,242.0,215.0,65,2,1796.2000000001863,330807.8999999999,8006,bronze,NF,C,328701,328701,327155,327969,327156,328951,328486,328486,328951,61
62,test,1,con,1,m,Thu Dec 12 2024 16:10:57 GMT-0600 (Central Standard Time),334603.2000000002,zinc,1000,I,m,m,None,449,250.0,199.0,115,2,1995.3999999999069,332607.8000000003,8006,zinc,NF,C,330684,330684,328955,329968,328956,330950,330485,330485,330950,62
63,test,1,con,1,m,Thu Dec 12 2024 16:10:57 GMT-0600 (Central Standard Time),336585.8999999999,cobalt,1100,I,m,m,None,334,135.0,199.0,92,2,1978.6999999997206,334607.2000000002,8006,cobalt,NF,C,332783,332783,330954,332067,330956,332933,332584,332584,332933,63
64,test,1,con,1,m,Thu Dec 12 2024 16:10:57 GMT-0600 (Central Standard Time),338618.8000000003,copper,1100,I,m,m,None,392,193.0,199.0,76,2,2029.3000000002794,336589.5,8006,copper,NF,C,334766,334766,332937,334050,332938,334966,334567,334567,334966,64
65,test,1,inc,1,m,Thu Dec 12 2024 16:10:57 GMT-0600 (Central Standard Time),340617.8999999999,kiwi,1000,I,m,m,None,459,244.0,215.0,103,2,1995.0999999996275,338622.8000000003,8006,gold,NF,C,336715,336715,334970,335983,334971,336965,336500,336500,336965,65
66,test,1,con,1,m,Thu Dec 12 2024 16:10:57 GMT-0600 (Central Standard Time),342400.8000000003,silver,900,I,m,m,None,344,145.0,199.0,82,2,1779.0,340621.8000000003,8006,silver,NF,C,338598,338598,336969,337882,336970,338748,338399,338399,338748,66
67,test,1,con,1,z,Thu Dec 12 2024 16:10:57 GMT-0600 (Central Standard Time),344067.0,banana,800,I,z,z,None,324,125.0,199.0,1,2,1662.1999999997206,342404.8000000003,8006,banana,NF,C,340281,340281,338752,339565,338753,340414,340082,340082,340414,67
68,test,1,inc,1,m,Thu Dec 12 2024 16:10:57 GMT-0600 (Central Standard Time),345833.0,lime,800,I,m,m,None,427,228.0,199.0,109,2,1762.2999999998137,344070.7000000002,8006,iron,NF,C,341947,341947,340418,341231,340419,342180,341748,341748,342180,68
69,test,1,inc,1,m,Thu Dec 12 2024 16:10:57 GMT-0600 (Central Standard Time),347699.3000000003,pear,900,I,m,m,None,425,226.0,199.0,102,2,1862.3000000002794,345837.0,8006,gold,NF,C,343813,343813,342184,343097,342185,344046,343614,343614,344046,69
70,test,1,con,1,z,Thu Dec 12 2024 16:10:57 GMT-0600 (Central Standard Time),349681.7000000002,raisin,1100,I,z,z,None,335,136.0,199.0,28,2,1978.5,347703.2000000002,8006,raisin,NF,C,345879,345879,344050,345163,344052,346029,345680,345680,346029,70
71,test,1,inc,1,m,Thu Dec 12 2024 16:10:57 GMT-0600 (Central Standard Time),351514.8000000003,cherry,900,I,m,m,None,392,193.0,199.0,86,2,1829.1000000000931,349685.7000000002,8006,silver,NF,C,347662,347662,346033,346946,346034,347862,347463,347463,347862,71
72,test,1,inc,1,z,Thu Dec 12 2024 16:10:57 GMT-0600 (Central Standard Time),353280.8999999999,bronze,800,I,z,z,None,426,227.0,199.0,13,2,1762.1999999997206,351518.7000000002,8006,cherry,NF,C,349395,349395,347866,348679,347867,349628,349196,349196,349628,72
72,test,1,inc,0,z,Thu Dec 12 2024 16:10:57 GMT-0600 (Central Standard Time),355046.8000000003,copper,900,I,m,m,None,320,121.0,199.0,14,2,1762.2000000001863,353284.6000000001,8006,cherry,NF,C,351261,351261,349632,350545,349633,351394,351062,351062,351394,73
72,test,1,con,0,z,Thu Dec 12 2024 16:10:57 GMT-0600 (Central Standard Time),356779.6000000001,raisin,800,I,m,m,None,398,199.0,199.0,25,2,1729.1000000000931,355050.5,8006,raisin,NF,C,352927,352927,351398,352211,351399,353127,352728,352728,353127,74
73,test,1,inc,1,z,Thu Dec 12 2024 16:10:57 GMT-0600 (Central Standard Time),358795.7000000002,zinc,1000,I,z,z,None,465,266.0,199.0,63,2,2012.5,356783.2000000002,8006,plum,NF,C,354860,354860,353130,354144,353132,355143,354661,354661,355143,75
74,test,1,inc,1,m,Thu Dec 12 2024 16:10:57 GMT-0600 (Central Standard Time),360845.3000000003,raisin,1100,I,m,m,None,405,206.0,199.0,80,2,2046.0,358799.3000000003,8006,copper,NF,C,356976,356976,355146,356260,355148,357192,356777,356777,357192,76
75,test,1,con,1,z,Thu Dec 12 2024 16:10:57 GMT-0600 (Central Standard Time),362711.1000000001,banana,900,I,z,z,None,420,221.0,199.0,2,2,1862.2000000001863,360848.8999999999,8006,banana,NF,C,358825,358825,357196,358109,357197,359058,358626,358626,359058,77
76,test,1,inc,1,m,Thu Dec 12 2024 16:10:57 GMT-0600 (Central Standard Time),364477.3999999999,banana,800,I,m,m,None,430,215.0,215.0,69,2,1762.5,362714.8999999999,8006,bronze,NF,C,360608,360608,359062,359875,359063,360824,360393,360393,360824,78
77,test,1,con,1,z,Thu Dec 12 2024 16:10:57 GMT-0600 (Central Standard Time),366276.7000000002,orange,900,I,z,z,None,356,157.0,199.0,18,2,1795.5,364481.2000000002,8006,orange,NF,C,362457,362457,360828,361741,360830,362624,362258,362258,362624,79
78,test,1,inc,1,z,Thu Dec 12 2024 16:10:57 GMT-0600 (Central Standard Time),368425.8999999999,cobalt,1100,I,z,z,None,509,310.0,199.0,24,2,2145.5,366280.3999999999,8006,orange,NF,C,364457,364457,362627,363741,362629,364773,364258,364258,364773,80
79,test,1,con,1,z,Thu Dec 12 2024 16:10:57 GMT-0600 (Central Standard Time),370175.5,kiwi,900,I,z,z,None,312,112.0,200.0,50,2,1745.8999999999069,368429.6000000001,8006,kiwi,NF,C,366407,366407,364777,365690,364778,366523,366207,366207,366523,81
80,test,1,inc,1,m,Thu Dec 12 2024 16:10:57 GMT-0600 (Central Standard Time),372124.8999999999,kiwi,1000,I,m,m,None,405,206.0,199.0,127,2,1945.5999999996275,370179.3000000003,8006,lead,NF,C,368257,368257,366526,367540,366528,368472,368057,368057,368472,82
81,test,1,con,1,m,Thu Dec 12 2024 16:10:57 GMT-0600 (Central Standard Time),374191.0,zinc,1100,I,m,m,None,420,221.0,199.0,116,2,2062.2999999998137,372128.7000000002,8006,zinc,NF,C,370305,370305,368476,369589,368477,370538,370106,370106,370538,83
82,test,1,con,1,z,Thu Dec 12 2024 16:10:57 GMT-0600 (Central Standard Time),376132.8000000003,pear,900,I,z,z,None,491,292.0,199.0,42,2,1938.0,374194.8000000003,8006,pear,NF,C,372171,372171,370542,371455,370543,372480,371972,371972,372480,84
83,test,1,con,1,z,Thu Dec 12 2024 16:10:57 GMT-0600 (Central Standard Time),378006.1000000001,plum,900,I,z,z,None,438,239.0,199.0,58,2,1869.1000000000931,376137.0,8006,plum,NF,C,374104,374104,372484,373388,372485,374353,373904,373904,374353,85
84,test,1,inc,1,z,Thu Dec 12 2024 16:10:57 GMT-0600 (Central Standard Time),379805.7000000002,bronze,800,I,z,z,None,463,248.0,215.0,21,2,1795.8999999999069,378009.8000000003,8006,orange,NF,C,375903,375903,374357,375171,374358,376153,375687,375688,376153,86
85,test,1,con,1,z,Thu Dec 12 2024 16:10:57 GMT-0600 (Central Standard Time),381671.8000000003,orange,1000,I,z,z,None,327,128.0,199.0,19,2,1862.5,379809.3000000003,8006,orange,NF,C,377886,377886,376156,377170,376158,378019,377687,377687,378019,87
86,test,1,con,1,z,Thu Dec 12 2024 16:10:57 GMT-0600 (Central Standard Time),383754.6000000001,lime,1100,I,z,z,None,440,225.0,215.0,36,2,2078.7999999998137,381675.8000000003,8006,lime,NF,C,379869,379869,378023,379136,378024,380102,379653,379653,380102,88
87,test,1,inc,1,z,Thu Dec 12 2024 16:10:57 GMT-0600 (Central Standard Time),385704.0,silver,1000,I,z,z,None,403,188.0,215.0,23,2,1946.0,383758.0,8006,orange,NF,C,381851,381851,380105,381119,380106,382051,381636,381636,382051,89
88,test,1,con,1,m,Thu Dec 12 2024 16:10:57 GMT-0600 (Central Standard Time),387571.1000000001,cobalt,800,I,m,m,None,525,310.0,215.0,89,2,1863.5,385707.6000000001,8006,cobalt,NF,C,383600,383600,382055,382868,382056,383918,383385,383385,383918,90
89,test,1,con,1,m,Thu Dec 12 2024 16:10:57 GMT-0600 (Central Standard Time),389352.8999999999,iron,800,I,m,m,None,444,245.0,199.0,105,2,1778.3999999999069,387574.5,8006,iron,NF,C,385450,385450,383922,384734,383923,385700,385251,385251,385700,91
90,test,1,con,1,z,Thu Dec 12 2024 16:10:57 GMT-0600 (Central Standard Time),391152.3000000003,raisin,900,I,z,z,None,352,153.0,199.0,26,2,1795.3000000002794,389357.0,8006,raisin,NF,C,387333,387333,385704,386617,385705,387499,387134,387134,387499,92
91,test,1,con,1,z,Thu Dec 12 2024 16:10:57 GMT-0600 (Central Standard Time),393101.6000000001,banana,1100,I,z,z,None,306,107.0,199.0,4,2,1945.7000000001863,391155.8999999999,8006,banana,NF,C,389332,389332,387503,388616,387504,389449,389133,389133,389449,93
92,test,1,inc,1,m,Thu Dec 12 2024 16:10:57 GMT-0600 (Central Standard Time),395167.8000000003,raisin,1100,I,m,m,None,428,213.0,215.0,96,2,2062.0,393105.8000000003,8006,cobalt,NF,C,391298,391298,389453,390566,389454,391515,391083,391083,391515,94
93,test,1,con,1,z,Thu Dec 12 2024 16:10:57 GMT-0600 (Central Standard Time),397117.0,orange,1100,I,z,z,None,314,99.0,215.0,20,2,1945.5,395171.5,8006,orange,NF,C,393364,393364,391519,392632,391520,393464,393149,393149,393464,95
94,test,1,inc,1,z,Thu Dec 12 2024 16:10:57 GMT-0600 (Central Standard Time),399166.3999999999,cobalt,1100,I,z,z,None,413,214.0,199.0,32,2,2045.6999999997206,397120.7000000002,8006,raisin,NF,C,395297,395297,393468,394581,393469,395514,395098,395098,395513,96
95,test,1,con,1,m,Thu Dec 12 2024 16:10:57 GMT-0600 (Central Standard Time),401199.0,copper,1000,I,m,m,None,495,296.0,199.0,75,2,2028.7999999998137,399170.2000000002,8006,copper,NF,C,397247,397247,395517,396531,395518,397546,397047,397047,397546,97
96,test,1,con,1,m,Thu Dec 12 2024 16:10:57 GMT-0600 (Central Standard Time),403331.7000000002,gold,1100,I,m,m,None,498,299.0,199.0,100,2,2128.899999999907,401202.8000000003,8006,gold,NF,C,399379,399379,397550,398663,397551,399679,399180,399180,399679,98
97,test,1,inc,1,m,Thu Dec 12 2024 16:10:57 GMT-0600 (Central Standard Time),405264.6000000001,cherry,900,I,m,m,None,485,286.0,199.0,70,2,1929.1000000000931,403335.5,8006,bronze,NF,C,401312,401312,399683,400597,399684,401612,401113,401113,401612,99
98,test,1,inc,1,z,Thu Dec 12 2024 16:10:57 GMT-0600 (Central Standard Time),407080.6000000001,gold,800,I,z,z,None,468,269.0,199.0,53,2,1812.2000000001863,405268.3999999999,8006,kiwi,NF,C,403145,403145,401615,402430,401617,403428,402946,402946,403428,100
99,test,1,con,1,z,Thu Dec 12 2024 16:10:57 GMT-0600 (Central Standard Time),409080.1000000001,plum,1100,I,z,z,None,361,162.0,199.0,60,2,1996.1000000000931,407084.0,8006,plum,NF,C,405261,405261,403431,404545,403432,405427,405062,405062,405427,101
100,test,1,inc,1,z,Thu Dec 12 2024 16:10:57 GMT-0600 (Central Standard Time),410946.0,iron,900,I,z,z,None,418,219.0,199.0,46,2,1862.2999999998137,409083.7000000002,8006,pear,NF,C,407060,407060,405431,406344,405432,407293,406861,406861,407293,102
101,test,1,con,1,z,Thu Dec 12 2024 16:10:57 GMT-0600 (Central Standard Time),412662.3000000003,pear,800,I,z,z,None,371,172.0,199.0,41,2,1712.6000000000931,410949.7000000002,8006,pear,NF,C,408826,408826,407297,408110,407298,409009,408627,408627,409009,103
102,test,1,inc,1,z,Thu Dec 12 2024 16:10:57 GMT-0600 (Central Standard Time),414461.6000000001,bronze,800,I,z,z,None,464,265.0,199.0,29,2,1795.5,412666.1000000001,8006,raisin,NF,C,410542,410542,409013,409826,409014,410809,410343,410343,410809,104
103,test,1,inc,1,m,Thu Dec 12 2024 16:10:57 GMT-0600 (Central Standard Time),416677.5,plum,1100,I,m,m,None,579,380.0,199.0,128,2,2212.100000000093,414465.3999999999,8006,lead,NF,C,412642,412642,410812,411926,410814,413025,412443,412443,413025,105
104,test,1,inc,1,m,Thu Dec 12 2024 16:10:57 GMT-0600 (Central Standard Time),418743.8000000003,orange,1000,I,m,m,None,529,330.0,199.0,79,2,2062.5,416681.3000000003,8006,copper,NF,C,414757,414757,413028,414042,413030,415091,414558,414558,415091,106
105,test,1,inc,1,z,Thu Dec 12 2024 16:10:57 GMT-0600 (Central Standard Time),420842.7000000002,lead,1100,I,z,z,None,458,259.0,199.0,64,2,2095.100000000093,418747.6000000001,8006,plum,NF,C,416923,416923,415095,416207,415096,417190,416724,416724,417190,107
106,test,1,con,1,z,Thu Dec 12 2024 16:10:57 GMT-0600 (Central Standard Time),422858.8999999999,kiwi,1100,I,z,z,None,366,167.0,199.0,52,2,2012.2999999998137,420846.6000000001,8006,kiwi,NF,C,419023,419023,417194,418307,417195,419206,418824,418824,419206,108
107,test,1,inc,1,z,Thu Dec 12 2024 16:10:57 GMT-0600 (Central Standard Time),424658.3999999999,gold,800,I,z,z,None,451,252.0,199.0,61,2,1795.3999999999069,422863.0,8006,plum,NF,C,420739,420739,419210,420024,419211,421005,420540,420540,421005,109
108,test,1,inc,1,z,Thu Dec 12 2024 16:10:57 GMT-0600 (Central Standard Time),426507.8999999999,copper,900,I,z,z,None,407,208.0,199.0,22,2,1845.1999999997206,424662.7000000002,8006,orange,NF,C,422639,422639,421010,421923,421011,422855,422439,422439,422855,110
109,test,1,con,1,z,Thu Dec 12 2024 16:10:57 GMT-0600 (Central Standard Time),428240.7000000002,kiwi,800,I,z,z,None,386,187.0,199.0,49,2,1728.8999999999069,426511.8000000003,8006,kiwi,NF,C,424388,424388,422859,423672,422860,424588,424189,424189,424588,111
110,test,1,con,1,m,Thu Dec 12 2024 16:10:57 GMT-0600 (Central Standard Time),430140.0,lead,900,I,m,m,None,449,234.0,215.0,122,2,1895.7999999998137,428244.2000000002,8006,lead,NF,C,426237,426237,424591,425505,424593,426487,426022,426022,426487,112
111,test,1,inc,1,m,Thu Dec 12 2024 16:10:57 GMT-0600 (Central Standard Time),432172.6000000001,orange,1000,I,m,m,None,497,298.0,199.0,87,2,2029.2000000001863,430143.3999999999,8006,silver,NF,C,428220,428220,426490,427504,426492,428520,428021,428021,428520,113
112,test,1,con,1,z,Thu Dec 12 2024 16:10:57 GMT-0600 (Central Standard Time),433921.8999999999,cherry,800,I,z,z,None,408,193.0,215.0,9,2,1745.7999999998137,432176.1000000001,8006,cherry,NF,C,430069,430069,428523,429337,428524,430269,429854,429854,430269,114
113,test,1,inc,1,m,Thu Dec 12 2024 16:10:57 GMT-0600 (Central Standard Time),435688.3999999999,lime,800,I,m,m,None,418,219.0,199.0,117,2,1762.2999999998137,433926.1000000001,8006,zinc,NF,C,431803,431803,430273,431087,430274,432035,431603,431603,432035,115
114,test,1,inc,1,z,Thu Dec 12 2024 16:10:57 GMT-0600 (Central Standard Time),437604.5,iron,900,I,z,z,None,472,257.0,215.0,38,2,1912.1000000000931,435692.3999999999,8006,lime,NF,C,433685,433685,432039,432953,432041,433952,433470,433470,433952,116
115,test,1,inc,1,z,Thu Dec 12 2024 16:10:57 GMT-0600 (Central Standard Time),439587.3999999999,cobalt,1100,I,z,z,None,333,134.0,199.0,16,2,1979.0,437608.3999999999,8006,cherry,NF,C,435784,435784,433955,435069,433957,435935,435585,435585,435934,117
116,test,1,inc,1,m,Thu Dec 12 2024 16:10:57 GMT-0600 (Central Standard Time),441486.6000000001,cherry,900,I,m,m,None,455,256.0,199.0,94,2,1895.6000000000931,439591.0,8006,cobalt,NF,C,437567,437567,435938,436851,435939,437834,437368,437368,437834,118
117,test,1,inc,1,z,Thu Dec 12 2024 16:10:57 GMT-0600 (Central Standard Time),443402.7000000002,iron,900,I,z,z,None,475,260.0,215.0,54,2,1912.2000000001863,441490.5,8006,kiwi,NF,C,439483,439483,437838,438751,437839,439750,439268,439268,439750,119
118,test,1,con,1,m,Thu Dec 12 2024 16:10:57 GMT-0600 (Central Standard Time),445485.3999999999,silver,1100,I,m,m,None,439,224.0,215.0,84,2,2078.6999999997206,443406.7000000002,8006,silver,NF,C,441599,441599,439754,440867,439755,441832,441384,441384,441832,120
119,test,1,inc,1,m,Thu Dec 12 2024 16:10:57 GMT-0600 (Central Standard Time),447668.0,kiwi,1000,I,m,m,None,557,342.0,215.0,111,2,2178.899999999907,445489.1000000001,8006,iron,NF,C,443665,443665,441836,442947,441838,444015,443450,443450,444015,121
120,test,1,inc,1,m,Thu Dec 12 2024 16:10:57 GMT-0600 (Central Standard Time),449650.6000000001,kiwi,1000,I,m,m,None,433,234.0,199.0,119,2,1978.6000000000931,447672.0,8006,zinc,NF,C,445748,445748,444019,445032,444020,445998,445549,445549,445998,122
121,test,1,inc,1,m,Thu Dec 12 2024 16:10:57 GMT-0600 (Central Standard Time),451499.6000000001,pear,900,I,m,m,None,413,199.0,214.0,110,2,1845.5,449654.1000000001,8006,iron,NF,C,447647,447647,446001,446916,446002,447847,447433,447433,447847,123
122,test,1,inc,1,m,Thu Dec 12 2024 16:10:57 GMT-0600 (Central Standard Time),453499.3000000003,orange,1000,I,m,m,None,449,250.0,199.0,95,2,1996.0,451503.3000000003,8006,cobalt,NF,C,449580,449580,447850,448864,447851,449846,449381,449381,449846,124
123,test,1,con,1,m,Thu Dec 12 2024 16:10:57 GMT-0600 (Central Standard Time),455432.1000000001,cobalt,1000,I,m,m,None,395,196.0,199.0,91,2,1929.2000000001863,453502.8999999999,8006,cobalt,NF,C,451579,451579,449850,450865,449851,451779,451380,451380,451779,125
124,test,1,con,1,z,Thu Dec 12 2024 16:10:57 GMT-0600 (Central Standard Time),457398.3000000003,cherry,1000,I,z,z,None,430,231.0,199.0,11,2,1962.6000000000931,455435.7000000002,8006,cherry,NF,C,453512,453512,451783,452796,451784,453745,453313,453313,453745,126
125,test,1,con,1,m,Thu Dec 12 2024 16:10:57 GMT-0600 (Central Standard Time),459480.8999999999,bronze,1100,I,m,m,None,436,237.0,199.0,68,2,2078.899999999907,457402.0,8006,bronze,NF,C,455578,455578,453749,454862,453750,455828,455379,455379,455828,127
126,test,1,con,1,m,Thu Dec 12 2024 16:10:57 GMT-0600 (Central Standard Time),461580.3000000003,lead,1100,I,m,m,None,457,258.0,199.0,124,2,2095.7000000001863,459484.6000000001,8006,lead,NF,C,457661,457661,455832,456945,455833,457927,457462,457462,457927,128
