acc_sum,block,block_c,change,condition,correct,correct_response,datetime,endtime,face,project,response,response_time,row_sel,session_number,start_end,starttime,subject_id,task,task_vers,trial
0,prac,1,,1-Back,,,Fri Feb 28 2025 10:21:58 GMT-0600 (Central Standard Time),,005_o_f_d_a.png,O,space,25733,1,1,,,7069,VNB,B,0
1,prac,1,0.0,1-Back,1,m,Fri Feb 28 2025 10:21:58 GMT-0600 (Central Standard Time),173430.10000002384,020_y_f_n_a.png,O,m,1353,2,1,2204.5,171225.60000002384,7069,VNB,B,1
1,prac,1,0.0,1-Back,0,m,Fri Feb 28 2025 10:21:58 GMT-0600 (Central Standard Time),175595.39999997616,007_m_m_h_a.png,O,z,1273,3,1,2155.7999999523163,173439.60000002384,7069,VNB,B,2
2,prac,1,0.0,1-Back,1,m,Fri Feb 28 2025 10:21:58 GMT-0600 (Central Standard Time),177629.39999997616,016_y_m_d_a.png,O,m,1154,4,1,2024.7999999523163,175604.60000002384,7069,VNB,B,3
3,prac,1,0.0,1-Back,1,m,Fri Feb 28 2025 10:21:58 GMT-0600 (Central Standard Time),180094.80000001192,005_o_f_n_a.png,O,m,1590,5,1,2457.900000035763,177636.89999997616,7069,VNB,B,4
4,prac,1,1.0,1-Back,1,z,Fri Feb 28 2025 10:21:58 GMT-0600 (Central Standard Time),182276.89999997616,016_y_m_n_a.png,O,z,1300,6,1,2173.2999999523163,180103.60000002384,7069,VNB,B,5
5,prac,1,0.0,1-Back,1,m,Fri Feb 28 2025 10:21:58 GMT-0600 (Central Standard Time),184640.19999998808,004_o_m_h_a.png,O,m,1492,7,1,2352.300000011921,182287.89999997616,7069,VNB,B,6
6,prac,1,0.0,1-Back,1,m,Fri Feb 28 2025 10:21:58 GMT-0600 (Central Standard Time),187008.5,011_m_f_d_a.png,O,m,1450,8,1,2361.199999988079,184647.30000001192,7069,VNB,B,7
7,prac,1,1.0,1-Back,1,z,Fri Feb 28 2025 10:21:58 GMT-0600 (Central Standard Time),189024.69999998808,020_y_f_d_a.png,O,z,1154,9,1,2006.8999999761581,187017.80000001192,7069,VNB,B,8
8,prac,1,0.0,1-Back,1,m,Fri Feb 28 2025 10:21:58 GMT-0600 (Central Standard Time),191140.30000001192,007_m_m_n_a.png,O,m,1219,10,1,2104.699999988079,189035.60000002384,7069,VNB,B,9
9,prac,1,0.0,1-Back,1,m,Fri Feb 28 2025 10:21:58 GMT-0600 (Central Standard Time),193123.39999997616,005_o_f_h_a.png,O,m,1081,11,1,1973.7999999523163,191149.60000002384,7069,VNB,B,10
9,prac,1,0.0,1-Back,0,m,Fri Feb 28 2025 10:21:58 GMT-0600 (Central Standard Time),195037.39999997616,016_y_m_d_a.png,O,z,1015,12,1,1904.0,193133.39999997616,7069,VNB,B,11
0,test,1,0.0,1-Back,,,Fri Feb 28 2025 10:21:58 GMT-0600 (Central Standard Time),195037.39999997616,020_y_f_d_a.png,O,space,20701,1,1,1904.0,193133.39999997616,7069,VNB,B,0
0,test,1,0.0,1-Back,0,m,Fri Feb 28 2025 10:21:58 GMT-0600 (Central Standard Time),233146.19999998808,011_m_f_n_a.png,O,z,1001,2,1,2009.199999988079,231137.0,7069,VNB,B,1
0,test,1,0.0,1-Back,0,m,Fri Feb 28 2025 10:21:58 GMT-0600 (Central Standard Time),236176.5,004_o_m_h_a.png,O,None,2016,3,1,3024.600000023842,233151.89999997616,7069,VNB,B,2
0,test,1,1.0,1-Back,0,z,Fri Feb 28 2025 10:21:58 GMT-0600 (Central Standard Time),238640.39999997616,007_m_m_h_a.png,O,m,1435,4,1,2456.5,236183.89999997616,7069,VNB,B,3
0,test,1,0.0,1-Back,0,m,Fri Feb 28 2025 10:21:58 GMT-0600 (Central Standard Time),241175.39999997616,005_o_f_n_a.png,O,z,1516,5,1,2527.7999999523163,238647.60000002384,7069,VNB,B,4
0,test,1,0.0,1-Back,0,m,Fri Feb 28 2025 10:21:58 GMT-0600 (Central Standard Time),243305.10000002384,016_y_m_d_a.png,O,z,1101,6,1,2121.400000035763,241183.69999998808,7069,VNB,B,5
1,test,1,1.0,1-Back,1,z,Fri Feb 28 2025 10:21:58 GMT-0600 (Central Standard Time),245438.80000001192,011_m_f_d_a.png,O,z,1104,7,1,2126.5,243312.30000001192,7069,VNB,B,6
2,test,1,0.0,1-Back,1,m,Fri Feb 28 2025 10:21:58 GMT-0600 (Central Standard Time),247790.5,020_y_f_h_a.png,O,m,1323,8,1,2343.800000011921,245446.69999998808,7069,VNB,B,7
3,test,1,0.0,1-Back,1,m,Fri Feb 28 2025 10:21:58 GMT-0600 (Central Standard Time),250188.19999998808,004_o_m_n_a.png,O,m,1384,9,1,2390.399999976158,247797.80000001192,7069,VNB,B,8
4,test,1,0.0,1-Back,1,m,Fri Feb 28 2025 10:21:58 GMT-0600 (Central Standard Time),252036.80000001192,016_y_m_h_a.png,O,m,824,10,1,1840.5,250196.30000001192,7069,VNB,B,9
4,test,1,0.0,1-Back,0,m,Fri Feb 28 2025 10:21:58 GMT-0600 (Central Standard Time),254270.10000002384,004_o_m_d_a.png,O,z,1207,11,1,2226.2000000476837,252043.89999997616,7069,VNB,B,10
5,test,1,1.0,1-Back,1,z,Fri Feb 28 2025 10:21:58 GMT-0600 (Central Standard Time),256385.89999997616,005_o_f_d_a.png,O,z,1082,12,1,2109.099999964237,254276.80000001192,7069,VNB,B,11
6,test,1,0.0,1-Back,1,m,Fri Feb 28 2025 10:21:58 GMT-0600 (Central Standard Time),258367.80000001192,007_m_m_n_a.png,O,m,964,13,1,1974.6000000238419,256393.19999998808,7069,VNB,B,12
6,test,1,1.0,1-Back,0,z,Fri Feb 28 2025 10:21:58 GMT-0600 (Central Standard Time),260950.19999998808,020_y_f_n_a.png,O,m,1565,14,1,2574.199999988079,258376.0,7069,VNB,B,13
7,test,1,0.0,1-Back,1,m,Fri Feb 28 2025 10:21:58 GMT-0600 (Central Standard Time),263599.8000000119,011_m_f_h_a.png,O,m,1631,15,1,2637.600000023842,260962.19999998808,7069,VNB,B,14
8,test,1,0.0,1-Back,1,m,Fri Feb 28 2025 10:21:58 GMT-0600 (Central Standard Time),265483.89999997616,007_m_m_d_a.png,O,m,851,16,1,1879.0,263604.89999997616,7069,VNB,B,15
9,test,1,0.0,1-Back,1,m,Fri Feb 28 2025 10:21:58 GMT-0600 (Central Standard Time),267614.5,016_y_m_n_a.png,O,m,1105,17,1,2123.100000023842,265491.39999997616,7069,VNB,B,16
10,test,1,0.0,1-Back,1,m,Fri Feb 28 2025 10:21:58 GMT-0600 (Central Standard Time),269815.5,005_o_f_h_a.png,O,m,1181,18,1,2193.0,267622.5,7069,VNB,B,17
0,test,2,0.0,1-Back,,,Fri Feb 28 2025 10:21:58 GMT-0600 (Central Standard Time),269815.5,016_y_m_n_a.png,O,space,6214,1,1,2193.0,267622.5,7069,VNB,B,0
1,test,2,0.0,1-Back,1,m,Fri Feb 28 2025 10:21:58 GMT-0600 (Central Standard Time),280028.8000000119,020_y_f_h_a.png,O,m,958,2,1,1975.199999988079,278053.60000002384,7069,VNB,B,1
2,test,2,1.0,1-Back,1,m,Fri Feb 28 2025 10:21:58 GMT-0600 (Central Standard Time),282378.3000000119,004_o_m_n_a.png,O,m,1318,3,1,2343.199999988079,280035.10000002384,7069,VNB,B,2
3,test,2,0.0,1-Back,1,m,Fri Feb 28 2025 10:21:58 GMT-0600 (Central Standard Time),284377.1999999881,011_m_f_d_a.png,O,m,969,4,1,1994.0999999642372,282383.10000002384,7069,VNB,B,3
4,test,2,0.0,1-Back,1,z,Fri Feb 28 2025 10:21:58 GMT-0600 (Central Standard Time),286441.8000000119,007_m_m_d_a.png,O,z,1042,5,1,2058.400000035763,284383.39999997616,7069,VNB,B,4
5,test,2,0.0,1-Back,1,m,Fri Feb 28 2025 10:21:58 GMT-0600 (Central Standard Time),288442.5,016_y_m_h_a.png,O,m,968,6,1,1994.6000000238419,286447.89999997616,7069,VNB,B,5
6,test,2,1.0,1-Back,1,z,Fri Feb 28 2025 10:21:58 GMT-0600 (Central Standard Time),290690.3000000119,005_o_f_h_a.png,O,z,1224,7,1,2241.0,288449.3000000119,7069,VNB,B,6
7,test,2,0.0,1-Back,1,m,Fri Feb 28 2025 10:21:58 GMT-0600 (Central Standard Time),292639.89999997616,011_m_f_n_a.png,O,m,928,8,1,1942.8999999761581,290697.0,7069,VNB,B,7
8,test,2,0.0,1-Back,1,m,Fri Feb 28 2025 10:21:58 GMT-0600 (Central Standard Time),295221.1999999881,020_y_f_d_a.png,O,m,1562,9,1,2573.599999964237,292647.60000002384,7069,VNB,B,8
9,test,2,0.0,1-Back,1,m,Fri Feb 28 2025 10:21:58 GMT-0600 (Central Standard Time),297056.8000000119,007_m_m_n_a.png,O,m,804,10,1,1833.0,295223.8000000119,7069,VNB,B,9
10,test,2,1.0,1-Back,1,m,Fri Feb 28 2025 10:21:58 GMT-0600 (Central Standard Time),299038.6999999881,011_m_f_h_a.png,O,m,964,11,1,1974.5,297064.1999999881,7069,VNB,B,10
11,test,2,0.0,1-Back,1,z,Fri Feb 28 2025 10:21:58 GMT-0600 (Central Standard Time),301254.60000002384,004_o_m_h_a.png,O,z,1188,12,1,2209.600000023842,299045.0,7069,VNB,B,11
12,test,2,0.0,1-Back,1,m,Fri Feb 28 2025 10:21:58 GMT-0600 (Central Standard Time),303354.10000002384,016_y_m_d_a.png,O,m,1069,13,1,2090.7000000476837,301263.39999997616,7069,VNB,B,12
13,test,2,0.0,1-Back,1,m,Fri Feb 28 2025 10:21:58 GMT-0600 (Central Standard Time),305071.5,005_o_f_n_a.png,O,m,700,14,1,1709.5,303362.0,7069,VNB,B,13
13,test,2,0.0,1-Back,0,z,Fri Feb 28 2025 10:21:58 GMT-0600 (Central Standard Time),307487.39999997616,020_y_f_n_a.png,O,m,1401,15,1,2407.699999988079,305079.6999999881,7069,VNB,B,14
14,test,2,1.0,1-Back,1,m,Fri Feb 28 2025 10:21:58 GMT-0600 (Central Standard Time),309401.10000002384,007_m_m_h_a.png,O,m,883,16,1,1908.800000011921,307492.3000000119,7069,VNB,B,15
15,test,2,0.0,1-Back,1,m,Fri Feb 28 2025 10:21:58 GMT-0600 (Central Standard Time),311417.8000000119,005_o_f_d_a.png,O,m,993,17,1,2009.4000000357628,309408.39999997616,7069,VNB,B,16
16,test,2,1.0,1-Back,1,z,Fri Feb 28 2025 10:21:58 GMT-0600 (Central Standard Time),313634.39999997616,004_o_m_d_a.png,O,z,1184,18,1,2208.899999976158,311425.5,7069,VNB,B,17
0,test,3,1.0,1-Back,,,Fri Feb 28 2025 10:21:58 GMT-0600 (Central Standard Time),313634.39999997616,005_o_f_h_a.png,O,space,5337,1,1,2208.899999976158,311425.5,7069,VNB,B,0
1,test,3,0.0,1-Back,1,m,Fri Feb 28 2025 10:21:58 GMT-0600 (Central Standard Time),322846.1999999881,011_m_f_d_a.png,O,m,719,2,1,1740.3999999761581,321105.8000000119,7069,VNB,B,1
2,test,3,1.0,1-Back,1,m,Fri Feb 28 2025 10:21:58 GMT-0600 (Central Standard Time),324630.39999997616,007_m_m_n_a.png,O,m,756,3,1,1776.2999999523163,322854.10000002384,7069,VNB,B,2
3,test,3,0.0,1-Back,1,z,Fri Feb 28 2025 10:21:58 GMT-0600 (Central Standard Time),326678.3000000119,005_o_f_n_a.png,O,z,1023,4,1,2040.5,324637.8000000119,7069,VNB,B,3
4,test,3,1.0,1-Back,1,m,Fri Feb 28 2025 10:21:58 GMT-0600 (Central Standard Time),328780.0,004_o_m_d_a.png,O,m,1083,5,1,2097.899999976158,326682.10000002384,7069,VNB,B,4
5,test,3,0.0,1-Back,1,m,Fri Feb 28 2025 10:21:58 GMT-0600 (Central Standard Time),330911.89999997616,020_y_f_h_a.png,O,m,1105,6,1,2123.7999999523163,328788.10000002384,7069,VNB,B,5
6,test,3,0.0,1-Back,1,z,Fri Feb 28 2025 10:21:58 GMT-0600 (Central Standard Time),332828.60000002384,016_y_m_h_a.png,O,z,891,7,1,1907.2000000476837,330921.39999997616,7069,VNB,B,6
7,test,3,0.0,1-Back,1,m,Fri Feb 28 2025 10:21:58 GMT-0600 (Central Standard Time),334527.0,011_m_f_n_a.png,O,m,680,8,1,1689.1000000238419,332837.89999997616,7069,VNB,B,7
8,test,3,0.0,1-Back,1,m,Fri Feb 28 2025 10:21:58 GMT-0600 (Central Standard Time),336410.8000000119,020_y_f_d_a.png,O,m,851,9,1,1875.4000000357628,334535.39999997616,7069,VNB,B,8
9,test,3,1.0,1-Back,1,m,Fri Feb 28 2025 10:21:58 GMT-0600 (Central Standard Time),338376.5,004_o_m_n_a.png,O,m,936,10,1,1957.800000011921,336418.6999999881,7069,VNB,B,9
10,test,3,0.0,1-Back,1,m,Fri Feb 28 2025 10:21:58 GMT-0600 (Central Standard Time),340558.0,007_m_m_h_a.png,O,m,1154,11,1,2171.399999976158,338386.60000002384,7069,VNB,B,10
11,test,3,0.0,1-Back,1,z,Fri Feb 28 2025 10:21:58 GMT-0600 (Central Standard Time),342809.0,011_m_f_h_a.png,O,z,1220,12,1,2244.600000023842,340564.39999997616,7069,VNB,B,11
12,test,3,1.0,1-Back,1,m,Fri Feb 28 2025 10:21:58 GMT-0600 (Central Standard Time),344624.39999997616,005_o_f_d_a.png,O,m,785,13,1,1807.2999999523163,342817.10000002384,7069,VNB,B,12
12,test,3,0.0,1-Back,0,z,Fri Feb 28 2025 10:21:58 GMT-0600 (Central Standard Time),346840.39999997616,007_m_m_d_a.png,O,m,1187,14,1,2208.699999988079,344631.6999999881,7069,VNB,B,13
13,test,3,0.0,1-Back,1,m,Fri Feb 28 2025 10:21:58 GMT-0600 (Central Standard Time),348988.1999999881,016_y_m_n_a.png,O,m,1121,15,1,2138.699999988079,346849.5,7069,VNB,B,14
14,test,3,1.0,1-Back,1,m,Fri Feb 28 2025 10:21:58 GMT-0600 (Central Standard Time),350805.10000002384,004_o_m_h_a.png,O,m,788,16,1,1813.9000000357628,348991.1999999881,7069,VNB,B,15
15,test,3,0.0,1-Back,1,m,Fri Feb 28 2025 10:21:58 GMT-0600 (Central Standard Time),352638.0,016_y_m_d_a.png,O,m,805,17,1,1823.800000011921,350814.1999999881,7069,VNB,B,16
16,test,3,1.0,1-Back,1,m,Fri Feb 28 2025 10:21:58 GMT-0600 (Central Standard Time),354620.89999997616,020_y_f_n_a.png,O,m,950,18,1,1974.5,352646.39999997616,7069,VNB,B,17
0,test,4,1.0,1-Back,,,Fri Feb 28 2025 10:21:58 GMT-0600 (Central Standard Time),354620.89999997616,007_m_m_d_a.png,O,space,4559,1,1,1974.5,352646.39999997616,7069,VNB,B,0
1,test,4,0.0,1-Back,1,z,Fri Feb 28 2025 10:21:58 GMT-0600 (Central Standard Time),363034.89999997616,004_o_m_d_a.png,O,z,710,2,1,1725.5,361309.39999997616,7069,VNB,B,1
2,test,4,0.0,1-Back,1,m,Fri Feb 28 2025 10:21:58 GMT-0600 (Central Standard Time),365001.10000002384,016_y_m_h_a.png,O,m,942,3,1,1958.9000000357628,363042.1999999881,7069,VNB,B,2
3,test,4,0.0,1-Back,1,m,Fri Feb 28 2025 10:21:58 GMT-0600 (Central Standard Time),366766.60000002384,011_m_f_n_a.png,O,m,747,4,1,1757.6000000238419,365009.0,7069,VNB,B,3
4,test,4,1.0,1-Back,1,m,Fri Feb 28 2025 10:21:58 GMT-0600 (Central Standard Time),368566.3000000119,005_o_f_h_a.png,O,m,781,5,1,1790.800000011921,366775.5,7069,VNB,B,4
5,test,4,0.0,1-Back,1,m,Fri Feb 28 2025 10:21:58 GMT-0600 (Central Standard Time),370198.6999999881,007_m_m_n_a.png,O,m,605,6,1,1623.800000011921,368574.89999997616,7069,VNB,B,5
6,test,4,0.0,1-Back,1,m,Fri Feb 28 2025 10:21:58 GMT-0600 (Central Standard Time),372015.1999999881,016_y_m_d_a.png,O,m,788,7,1,1809.0999999642372,370206.10000002384,7069,VNB,B,6
7,test,4,1.0,1-Back,1,z,Fri Feb 28 2025 10:21:58 GMT-0600 (Central Standard Time),373947.89999997616,020_y_f_d_a.png,O,z,916,8,1,1924.8999999761581,372023.0,7069,VNB,B,7
8,test,4,0.0,1-Back,1,m,Fri Feb 28 2025 10:21:58 GMT-0600 (Central Standard Time),375730.6999999881,011_m_f_h_a.png,O,m,758,9,1,1775.800000011921,373954.89999997616,7069,VNB,B,8
9,test,4,0.0,1-Back,1,z,Fri Feb 28 2025 10:21:58 GMT-0600 (Central Standard Time),378165.0,004_o_m_h_a.png,O,z,1416,10,1,2427.0,375738.0,7069,VNB,B,9
10,test,4,1.0,1-Back,1,m,Fri Feb 28 2025 10:21:58 GMT-0600 (Central Standard Time),379981.3000000119,005_o_f_n_a.png,O,m,792,11,1,1809.5,378171.8000000119,7069,VNB,B,10
11,test,4,0.0,1-Back,1,m,Fri Feb 28 2025 10:21:58 GMT-0600 (Central Standard Time),381780.10000002384,011_m_f_d_a.png,O,m,776,12,1,1792.0,379988.10000002384,7069,VNB,B,11
11,test,4,0.0,1-Back,0,m,Fri Feb 28 2025 10:21:58 GMT-0600 (Central Standard Time),384095.0,020_y_f_n_a.png,O,z,1298,13,1,2307.199999988079,381787.8000000119,7069,VNB,B,12
12,test,4,0.0,1-Back,1,m,Fri Feb 28 2025 10:21:58 GMT-0600 (Central Standard Time),386309.3000000119,005_o_f_d_a.png,O,m,1196,14,1,2204.0,384105.3000000119,7069,VNB,B,13
13,test,4,0.0,1-Back,1,m,Fri Feb 28 2025 10:21:58 GMT-0600 (Central Standard Time),388461.89999997616,020_y_f_h_a.png,O,m,1136,15,1,2150.0,386311.89999997616,7069,VNB,B,14
14,test,4,1.0,1-Back,1,z,Fri Feb 28 2025 10:21:58 GMT-0600 (Central Standard Time),390292.60000002384,007_m_m_h_a.png,O,z,809,16,1,1825.5,388467.10000002384,7069,VNB,B,15
15,test,4,0.0,1-Back,1,m,Fri Feb 28 2025 10:21:58 GMT-0600 (Central Standard Time),391910.0,004_o_m_n_a.png,O,m,590,17,1,1610.199999988079,390299.8000000119,7069,VNB,B,16
15,test,4,1.0,1-Back,0,z,Fri Feb 28 2025 10:21:58 GMT-0600 (Central Standard Time),394258.39999997616,016_y_m_n_a.png,O,m,1318,18,1,2340.2999999523163,391918.10000002384,7069,VNB,B,17
0,test,5,1.0,1-Back,,,Fri Feb 28 2025 10:21:58 GMT-0600 (Central Standard Time),394258.39999997616,004_o_m_n_a.png,O,space,4257,1,1,2340.2999999523163,391918.10000002384,7069,VNB,B,0
1,test,5,1.0,1-Back,1,m,Fri Feb 28 2025 10:21:58 GMT-0600 (Central Standard Time),402854.60000002384,005_o_f_h_a.png,O,m,1297,2,1,2309.900000035763,400544.6999999881,7069,VNB,B,1
2,test,5,0.0,1-Back,1,m,Fri Feb 28 2025 10:21:58 GMT-0600 (Central Standard Time),404971.89999997616,016_y_m_d_a.png,O,m,1091,3,1,2110.199999988079,402861.6999999881,7069,VNB,B,2
3,test,5,0.0,1-Back,1,z,Fri Feb 28 2025 10:21:58 GMT-0600 (Central Standard Time),406936.5,004_o_m_d_a.png,O,z,934,4,1,1956.800000011921,404979.6999999881,7069,VNB,B,3
4,test,5,0.0,1-Back,1,m,Fri Feb 28 2025 10:21:58 GMT-0600 (Central Standard Time),408671.39999997616,011_m_f_h_a.png,O,m,716,5,1,1727.7999999523163,406943.60000002384,7069,VNB,B,4
4,test,5,0.0,1-Back,0,m,Fri Feb 28 2025 10:21:58 GMT-0600 (Central Standard Time),410818.5,020_y_f_n_a.png,O,z,1117,6,1,2139.399999976158,408679.10000002384,7069,VNB,B,5
5,test,5,1.0,1-Back,1,z,Fri Feb 28 2025 10:21:58 GMT-0600 (Central Standard Time),413237.39999997616,005_o_f_n_a.png,O,z,1400,7,1,2411.5,410825.89999997616,7069,VNB,B,6
6,test,5,0.0,1-Back,1,m,Fri Feb 28 2025 10:21:58 GMT-0600 (Central Standard Time),414984.10000002384,011_m_f_d_a.png,O,m,727,8,1,1739.800000011921,413244.3000000119,7069,VNB,B,7
6,test,5,0.0,1-Back,0,m,Fri Feb 28 2025 10:21:58 GMT-0600 (Central Standard Time),417200.8000000119,016_y_m_h_a.png,O,z,1196,9,1,2210.5,414990.3000000119,7069,VNB,B,8
7,test,5,0.0,1-Back,1,m,Fri Feb 28 2025 10:21:58 GMT-0600 (Central Standard Time),419049.89999997616,020_y_f_d_a.png,O,m,827,10,1,1842.0999999642372,417207.8000000119,7069,VNB,B,9
8,test,5,0.0,1-Back,1,m,Fri Feb 28 2025 10:21:58 GMT-0600 (Central Standard Time),420682.3000000119,007_m_m_n_a.png,O,m,608,11,1,1624.6000000238419,419057.6999999881,7069,VNB,B,10
9,test,5,1.0,1-Back,1,z,Fri Feb 28 2025 10:21:58 GMT-0600 (Central Standard Time),422549.10000002384,011_m_f_n_a.png,O,z,846,12,1,1860.4000000357628,420688.6999999881,7069,VNB,B,11
10,test,5,0.0,1-Back,1,m,Fri Feb 28 2025 10:21:58 GMT-0600 (Central Standard Time),424167.10000002384,004_o_m_h_a.png,O,m,599,13,1,1611.0,422556.10000002384,7069,VNB,B,12
11,test,5,0.0,1-Back,1,z,Fri Feb 28 2025 10:21:58 GMT-0600 (Central Standard Time),425898.1999999881,007_m_m_h_a.png,O,z,703,14,1,1726.0999999642372,424172.10000002384,7069,VNB,B,13
12,test,5,1.0,1-Back,1,m,Fri Feb 28 2025 10:21:58 GMT-0600 (Central Standard Time),427664.8000000119,005_o_f_d_a.png,O,m,736,15,1,1759.4000000357628,425905.39999997616,7069,VNB,B,14
13,test,5,0.0,1-Back,1,m,Fri Feb 28 2025 10:21:58 GMT-0600 (Central Standard Time),429279.5,016_y_m_n_a.png,O,m,594,16,1,1607.5,427672.0,7069,VNB,B,15
13,test,5,0.0,1-Back,0,m,Fri Feb 28 2025 10:21:58 GMT-0600 (Central Standard Time),431296.6999999881,020_y_f_h_a.png,O,z,995,17,1,2009.0999999642372,429287.60000002384,7069,VNB,B,16
14,test,5,0.0,1-Back,1,m,Fri Feb 28 2025 10:21:58 GMT-0600 (Central Standard Time),433012.60000002384,007_m_m_d_a.png,O,m,691,18,1,1709.7000000476837,431302.89999997616,7069,VNB,B,17
0,prac,1,0.0,2-Back,,,Fri Feb 28 2025 10:21:58 GMT-0600 (Central Standard Time),433012.60000002384,011_m_f_n_a.png,O,space,12109,1,1,1709.7000000476837,431302.89999997616,7069,VNB,B,0
0,prac,1,0.0,2-Back,,,Fri Feb 28 2025 10:21:58 GMT-0600 (Central Standard Time),433012.60000002384,005_o_f_h_a.png,O,space,12109,2,1,1709.7000000476837,431302.89999997616,7069,VNB,B,0
0,prac,1,0.0,2-Back,0,m,Fri Feb 28 2025 10:21:58 GMT-0600 (Central Standard Time),563171.0,004_o_m_d_a.png,O,None,2002,3,1,2860.800000011921,560310.1999999881,7069,VNB,B,1
1,prac,1,1.0,2-Back,1,z,Fri Feb 28 2025 10:21:58 GMT-0600 (Central Standard Time),565703.8000000119,007_m_m_h_a.png,O,z,1638,4,1,2523.300000011921,563180.5,7069,VNB,B,2
2,prac,1,0.0,2-Back,1,m,Fri Feb 28 2025 10:21:58 GMT-0600 (Central Standard Time),567886.8000000119,020_y_f_n_a.png,O,m,1320,5,1,2173.600000023842,565713.1999999881,7069,VNB,B,3
2,prac,1,1.0,2-Back,0,z,Fri Feb 28 2025 10:21:58 GMT-0600 (Central Standard Time),570386.3999999762,004_o_m_h_a.png,O,m,1636,6,1,2490.399999976158,567896.0,7069,VNB,B,4
3,prac,1,1.0,2-Back,1,z,Fri Feb 28 2025 10:21:58 GMT-0600 (Central Standard Time),572620.1999999881,016_y_m_n_a.png,O,z,1337,7,1,2224.899999976158,570395.3000000119,7069,VNB,B,5
4,prac,1,0.0,2-Back,1,m,Fri Feb 28 2025 10:21:58 GMT-0600 (Central Standard Time),575135.3000000119,011_m_f_d_a.png,O,m,1630,8,1,2506.699999988079,572628.6000000238,7069,VNB,B,6
4,prac,1,0.0,2-Back,0,m,Fri Feb 28 2025 10:21:58 GMT-0600 (Central Standard Time),577199.8000000119,005_o_f_d_a.png,O,z,1184,9,1,2054.600000023842,575145.1999999881,7069,VNB,B,7
5,prac,1,0.0,2-Back,1,m,Fri Feb 28 2025 10:21:58 GMT-0600 (Central Standard Time),578882.1000000238,007_m_m_h_a.png,O,m,893,10,1,1674.6000000238419,577207.5,7069,VNB,B,8
5,prac,1,1.0,2-Back,0,z,Fri Feb 28 2025 10:21:58 GMT-0600 (Central Standard Time),580949.6000000238,020_y_f_d_a.png,O,m,1207,11,1,2058.800000011921,578890.8000000119,7069,VNB,B,9
6,prac,1,0.0,2-Back,1,m,Fri Feb 28 2025 10:21:58 GMT-0600 (Central Standard Time),582915.6000000238,004_o_m_n_a.png,O,m,1105,12,1,1957.9000000357628,580957.6999999881,7069,VNB,B,10
0,prac,2,0.0,2-Back,,,Fri Feb 28 2025 10:21:58 GMT-0600 (Central Standard Time),582915.6000000238,011_m_f_n_a.png,O,a,7803,1,1,1957.9000000357628,580957.6999999881,7069,VNB,B,0
0,prac,2,0.0,2-Back,,,Fri Feb 28 2025 10:21:58 GMT-0600 (Central Standard Time),582915.6000000238,005_o_f_h_a.png,O,a,7803,2,1,1957.9000000357628,580957.6999999881,7069,VNB,B,0
0,prac,2,0.0,2-Back,0,m,Fri Feb 28 2025 10:21:58 GMT-0600 (Central Standard Time),598843.0,004_o_m_d_a.png,O,None,2012,3,1,2857.300000011921,595985.6999999881,7069,VNB,B,1
1,prac,2,1.0,2-Back,1,z,Fri Feb 28 2025 10:21:58 GMT-0600 (Central Standard Time),600926.1000000238,007_m_m_h_a.png,O,z,1296,4,1,2074.600000023842,598851.5,7069,VNB,B,2
2,prac,2,0.0,2-Back,1,m,Fri Feb 28 2025 10:21:58 GMT-0600 (Central Standard Time),603226.1000000238,020_y_f_n_a.png,O,m,1420,5,1,2290.2000000476837,600935.8999999762,7069,VNB,B,3
3,prac,2,1.0,2-Back,1,z,Fri Feb 28 2025 10:21:58 GMT-0600 (Central Standard Time),605374.6000000238,004_o_m_h_a.png,O,z,1278,6,1,2139.100000023842,603235.5,7069,VNB,B,4
3,prac,2,1.0,2-Back,0,z,Fri Feb 28 2025 10:21:58 GMT-0600 (Central Standard Time),607606.5,016_y_m_n_a.png,O,m,1335,7,1,2221.5,605385.0,7069,VNB,B,5
4,prac,2,0.0,2-Back,1,m,Fri Feb 28 2025 10:21:58 GMT-0600 (Central Standard Time),609625.6000000238,011_m_f_d_a.png,O,m,1130,8,1,2010.9000000357628,607614.6999999881,7069,VNB,B,6
5,prac,2,0.0,2-Back,1,m,Fri Feb 28 2025 10:21:58 GMT-0600 (Central Standard Time),612039.1999999881,005_o_f_d_a.png,O,m,1532,9,1,2403.0,609636.1999999881,7069,VNB,B,7
6,prac,2,0.0,2-Back,1,m,Fri Feb 28 2025 10:21:58 GMT-0600 (Central Standard Time),614389.3999999762,007_m_m_h_a.png,O,m,1574,10,1,2340.2999999523163,612049.1000000238,7069,VNB,B,8
6,prac,2,1.0,2-Back,0,z,Fri Feb 28 2025 10:21:58 GMT-0600 (Central Standard Time),616086.8000000119,020_y_f_d_a.png,O,m,812,11,1,1688.300000011921,614398.5,7069,VNB,B,9
7,prac,2,0.0,2-Back,1,m,Fri Feb 28 2025 10:21:58 GMT-0600 (Central Standard Time),618754.1999999881,004_o_m_n_a.png,O,m,1793,12,1,2657.699999988079,616096.5,7069,VNB,B,10
0,test,1,0.0,2-Back,,,Fri Feb 28 2025 10:21:58 GMT-0600 (Central Standard Time),618754.1999999881,016_y_m_h_a.png,O,space,25194,1,1,2657.699999988079,616096.5,7069,VNB,B,0
0,test,1,0.0,2-Back,,,Fri Feb 28 2025 10:21:58 GMT-0600 (Central Standard Time),618754.1999999881,005_o_f_n_a.png,O,space,25194,2,1,2657.699999988079,616096.5,7069,VNB,B,0
1,test,1,0.0,2-Back,1,z,Fri Feb 28 2025 10:21:58 GMT-0600 (Central Standard Time),659507.8000000119,004_o_m_h_a.png,O,z,610,3,1,1626.800000011921,657881.0,7069,VNB,B,1
2,test,1,0.0,2-Back,1,m,Fri Feb 28 2025 10:21:58 GMT-0600 (Central Standard Time),661856.3999999762,011_m_f_d_a.png,O,m,1329,4,1,2340.2999999523163,659516.1000000238,7069,VNB,B,2
2,test,1,1.0,2-Back,0,m,Fri Feb 28 2025 10:21:58 GMT-0600 (Central Standard Time),664340.8000000119,016_y_m_n_a.png,O,z,1451,5,1,2477.800000011921,661863.0,7069,VNB,B,3
2,test,1,0.0,2-Back,0,z,Fri Feb 28 2025 10:21:58 GMT-0600 (Central Standard Time),666921.1999999881,020_y_f_d_a.png,O,m,1560,6,1,2572.699999988079,664348.5,7069,VNB,B,4
3,test,1,0.0,2-Back,1,m,Fri Feb 28 2025 10:21:58 GMT-0600 (Central Standard Time),669038.8000000119,007_m_m_h_a.png,O,m,1101,7,1,2111.300000011921,666927.5,7069,VNB,B,5
4,test,1,1.0,2-Back,1,m,Fri Feb 28 2025 10:21:58 GMT-0600 (Central Standard Time),671869.3999999762,020_y_f_n_a.png,O,m,1807,8,1,2823.7999999523163,669045.6000000238,7069,VNB,B,6
5,test,1,0.0,2-Back,1,z,Fri Feb 28 2025 10:21:58 GMT-0600 (Central Standard Time),674020.3000000119,005_o_f_h_a.png,O,z,1116,9,1,2143.600000023842,671876.6999999881,7069,VNB,B,7
6,test,1,0.0,2-Back,1,m,Fri Feb 28 2025 10:21:58 GMT-0600 (Central Standard Time),676186.3000000119,004_o_m_d_a.png,O,m,1136,10,1,2158.300000011921,674028.0,7069,VNB,B,8
7,test,1,1.0,2-Back,1,m,Fri Feb 28 2025 10:21:58 GMT-0600 (Central Standard Time),678749.8000000119,007_m_m_d_a.png,O,m,1537,11,1,2556.800000011921,676193.0,7069,VNB,B,9
8,test,1,0.0,2-Back,1,m,Fri Feb 28 2025 10:21:58 GMT-0600 (Central Standard Time),681250.0,011_m_f_n_a.png,O,m,1476,12,1,2491.399999976158,678758.6000000238,7069,VNB,B,10
9,test,1,0.0,2-Back,1,m,Fri Feb 28 2025 10:21:58 GMT-0600 (Central Standard Time),683566.5,020_y_f_h_a.png,O,m,1289,13,1,2309.100000023842,681257.3999999762,7069,VNB,B,11
10,test,1,0.0,2-Back,1,z,Fri Feb 28 2025 10:21:58 GMT-0600 (Central Standard Time),685933.1999999881,007_m_m_n_a.png,O,z,1350,14,1,2358.199999988079,683575.0,7069,VNB,B,12
11,test,1,0.0,2-Back,1,m,Fri Feb 28 2025 10:21:58 GMT-0600 (Central Standard Time),688398.8999999762,016_y_m_d_a.png,O,m,1433,15,1,2459.099999964237,685939.8000000119,7069,VNB,B,13
12,test,1,1.0,2-Back,1,m,Fri Feb 28 2025 10:21:58 GMT-0600 (Central Standard Time),690597.1999999881,011_m_f_h_a.png,O,m,1182,16,1,2189.399999976158,688407.8000000119,7069,VNB,B,14
12,test,1,0.0,2-Back,0,z,Fri Feb 28 2025 10:21:58 GMT-0600 (Central Standard Time),693097.1000000238,005_o_f_d_a.png,O,m,1470,17,1,2491.7000000476837,690605.3999999762,7069,VNB,B,15
12,test,1,0.0,2-Back,0,m,Fri Feb 28 2025 10:21:58 GMT-0600 (Central Standard Time),695613.6999999881,004_o_m_n_a.png,O,z,1482,18,1,2507.800000011921,693105.8999999762,7069,VNB,B,16
0,test,2,0.0,2-Back,,,Fri Feb 28 2025 10:21:58 GMT-0600 (Central Standard Time),695613.6999999881,007_m_m_h_a.png,O,space,4327,1,1,2507.800000011921,693105.8999999762,7069,VNB,B,0
0,test,2,0.0,2-Back,,,Fri Feb 28 2025 10:21:58 GMT-0600 (Central Standard Time),695613.6999999881,020_y_f_n_a.png,O,space,4327,2,1,2507.800000011921,693105.8999999762,7069,VNB,B,0
1,test,2,1.0,2-Back,1,z,Fri Feb 28 2025 10:21:58 GMT-0600 (Central Standard Time),707493.1999999881,005_o_f_h_a.png,O,z,1274,3,1,2294.099999964237,705199.1000000238,7069,VNB,B,1
2,test,2,0.0,2-Back,1,m,Fri Feb 28 2025 10:21:58 GMT-0600 (Central Standard Time),709692.1999999881,004_o_m_d_a.png,O,m,1176,4,1,2194.899999976158,707497.3000000119,7069,VNB,B,2
2,test,2,0.0,2-Back,0,m,Fri Feb 28 2025 10:21:58 GMT-0600 (Central Standard Time),712208.1000000238,011_m_f_d_a.png,O,z,1487,5,1,2508.2000000476837,709699.8999999762,7069,VNB,B,3
3,test,2,0.0,2-Back,1,m,Fri Feb 28 2025 10:21:58 GMT-0600 (Central Standard Time),714542.3000000119,016_y_m_h_a.png,O,m,1317,6,1,2327.800000011921,712214.5,7069,VNB,B,4
4,test,2,0.0,2-Back,1,m,Fri Feb 28 2025 10:21:58 GMT-0600 (Central Standard Time),717289.5,005_o_f_n_a.png,O,m,1726,7,1,2738.5,714551.0,7069,VNB,B,5
4,test,2,1.0,2-Back,0,z,Fri Feb 28 2025 10:21:58 GMT-0600 (Central Standard Time),719637.8999999762,004_o_m_h_a.png,O,m,1322,8,1,2338.7999999523163,717299.1000000238,7069,VNB,B,6
5,test,2,0.0,2-Back,1,m,Fri Feb 28 2025 10:21:58 GMT-0600 (Central Standard Time),722238.5,020_y_f_d_a.png,O,m,1583,9,1,2592.899999976158,719645.6000000238,7069,VNB,B,7
6,test,2,0.0,2-Back,1,m,Fri Feb 28 2025 10:21:58 GMT-0600 (Central Standard Time),724437.1000000238,016_y_m_d_a.png,O,m,1175,10,1,2188.800000011921,722248.3000000119,7069,VNB,B,8
7,test,2,0.0,2-Back,1,m,Fri Feb 28 2025 10:21:58 GMT-0600 (Central Standard Time),727287.1999999881,007_m_m_n_a.png,O,m,1833,11,1,2842.899999976158,724444.3000000119,7069,VNB,B,9
8,test,2,0.0,2-Back,1,m,Fri Feb 28 2025 10:21:58 GMT-0600 (Central Standard Time),729651.8000000119,011_m_f_h_a.png,O,m,1333,12,1,2355.5,727296.3000000119,7069,VNB,B,10
8,test,2,1.0,2-Back,0,z,Fri Feb 28 2025 10:21:58 GMT-0600 (Central Standard Time),732101.1999999881,004_o_m_n_a.png,O,m,1425,13,1,2441.199999988079,729660.0,7069,VNB,B,11
9,test,2,0.0,2-Back,1,m,Fri Feb 28 2025 10:21:58 GMT-0600 (Central Standard Time),734718.6999999881,005_o_f_d_a.png,O,m,1600,14,1,2611.399999976158,732107.3000000119,7069,VNB,B,12
10,test,2,0.0,2-Back,1,m,Fri Feb 28 2025 10:21:58 GMT-0600 (Central Standard Time),736949.1999999881,020_y_f_h_a.png,O,m,1214,15,1,2227.099999964237,734722.1000000238,7069,VNB,B,13
10,test,2,0.0,2-Back,0,z,Fri Feb 28 2025 10:21:58 GMT-0600 (Central Standard Time),739532.6000000238,007_m_m_d_a.png,O,m,1559,16,1,2577.5,736955.1000000238,7069,VNB,B,14
10,test,2,0.0,2-Back,0,m,Fri Feb 28 2025 10:21:58 GMT-0600 (Central Standard Time),742563.8999999762,016_y_m_n_a.png,O,None,2015,17,1,3023.2999999523163,739540.6000000238,7069,VNB,B,15
10,test,2,1.0,2-Back,0,m,Fri Feb 28 2025 10:21:58 GMT-0600 (Central Standard Time),744996.3999999762,011_m_f_n_a.png,O,z,1399,18,1,2425.099999964237,742571.3000000119,7069,VNB,B,16
0,test,3,1.0,2-Back,,,Fri Feb 28 2025 10:21:58 GMT-0600 (Central Standard Time),744996.3999999762,004_o_m_n_a.png,O,space,2407,1,1,2425.099999964237,742571.3000000119,7069,VNB,B,0
0,test,3,1.0,2-Back,,,Fri Feb 28 2025 10:21:58 GMT-0600 (Central Standard Time),744996.3999999762,005_o_f_d_a.png,O,space,2407,2,1,2425.099999964237,742571.3000000119,7069,VNB,B,0
1,test,3,0.0,2-Back,1,m,Fri Feb 28 2025 10:21:58 GMT-0600 (Central Standard Time),754412.1000000238,020_y_f_h_a.png,O,m,741,3,1,1759.7000000476837,752652.3999999762,7069,VNB,B,1
2,test,3,0.0,2-Back,1,z,Fri Feb 28 2025 10:21:58 GMT-0600 (Central Standard Time),757075.8999999762,011_m_f_d_a.png,O,z,1634,4,1,2656.899999976158,754419.0,7069,VNB,B,2
2,test,3,1.0,2-Back,0,m,Fri Feb 28 2025 10:21:58 GMT-0600 (Central Standard Time),759725.3000000119,016_y_m_n_a.png,O,z,1622,5,1,2642.300000011921,757083.0,7069,VNB,B,3
3,test,3,0.0,2-Back,1,m,Fri Feb 28 2025 10:21:58 GMT-0600 (Central Standard Time),762324.5,004_o_m_h_a.png,O,m,1574,6,1,2591.699999988079,759732.8000000119,7069,VNB,B,4
3,test,3,0.0,2-Back,0,z,Fri Feb 28 2025 10:21:58 GMT-0600 (Central Standard Time),764606.6999999881,020_y_f_n_a.png,O,m,1255,7,1,2274.199999988079,762332.5,7069,VNB,B,5
4,test,3,1.0,2-Back,1,m,Fri Feb 28 2025 10:21:58 GMT-0600 (Central Standard Time),767356.3999999762,007_m_m_d_a.png,O,m,1725,8,1,2741.5,764614.8999999762,7069,VNB,B,6
5,test,3,0.0,2-Back,1,m,Fri Feb 28 2025 10:21:58 GMT-0600 (Central Standard Time),769756.5,016_y_m_d_a.png,O,m,1382,9,1,2392.899999976158,767363.6000000238,7069,VNB,B,7
6,test,3,0.0,2-Back,1,m,Fri Feb 28 2025 10:21:58 GMT-0600 (Central Standard Time),771819.8999999762,005_o_f_h_a.png,O,m,1046,10,1,2056.699999988079,769763.1999999881,7069,VNB,B,8
7,test,3,1.0,2-Back,1,m,Fri Feb 28 2025 10:21:58 GMT-0600 (Central Standard Time),774254.5,011_m_f_n_a.png,O,m,1414,11,1,2429.600000023842,771824.8999999762,7069,VNB,B,9
8,test,3,1.0,2-Back,1,z,Fri Feb 28 2025 10:21:58 GMT-0600 (Central Standard Time),776453.3999999762,007_m_m_h_a.png,O,z,1182,12,1,2190.599999964237,774262.8000000119,7069,VNB,B,10
9,test,3,0.0,2-Back,1,m,Fri Feb 28 2025 10:21:58 GMT-0600 (Central Standard Time),779368.3000000119,020_y_f_d_a.png,O,m,1894,13,1,2907.0,776461.3000000119,7069,VNB,B,11
10,test,3,0.0,2-Back,1,m,Fri Feb 28 2025 10:21:58 GMT-0600 (Central Standard Time),781686.1999999881,005_o_f_n_a.png,O,m,1288,14,1,2312.0,779374.1999999881,7069,VNB,B,12
10,test,3,0.0,2-Back,0,z,Fri Feb 28 2025 10:21:58 GMT-0600 (Central Standard Time),783934.6000000238,004_o_m_d_a.png,O,m,1223,15,1,2240.7000000476837,781693.8999999762,7069,VNB,B,13
11,test,3,1.0,2-Back,1,m,Fri Feb 28 2025 10:21:58 GMT-0600 (Central Standard Time),785870.1999999881,011_m_f_h_a.png,O,m,901,16,1,1927.5,783942.6999999881,7069,VNB,B,14
12,test,3,0.0,2-Back,1,m,Fri Feb 28 2025 10:21:58 GMT-0600 (Central Standard Time),788166.6000000238,007_m_m_n_a.png,O,m,1280,17,1,2289.2000000476837,785877.3999999762,7069,VNB,B,15
12,test,3,0.0,2-Back,0,z,Fri Feb 28 2025 10:21:58 GMT-0600 (Central Standard Time),790416.0,016_y_m_h_a.png,O,m,1214,18,1,2241.5,788174.5,7069,VNB,B,16
0,test,4,0.0,2-Back,,,Fri Feb 28 2025 10:21:58 GMT-0600 (Central Standard Time),790416.0,011_m_f_n_a.png,O,space,3299,1,1,2241.5,788174.5,7069,VNB,B,0
0,test,4,0.0,2-Back,,,Fri Feb 28 2025 10:21:58 GMT-0600 (Central Standard Time),790416.0,004_o_m_n_a.png,O,space,3299,2,1,2241.5,788174.5,7069,VNB,B,0
1,test,4,1.0,2-Back,1,m,Fri Feb 28 2025 10:21:58 GMT-0600 (Central Standard Time),800728.8999999762,016_y_m_h_a.png,O,m,745,3,1,1758.0,798970.8999999762,7069,VNB,B,1
2,test,4,1.0,2-Back,1,m,Fri Feb 28 2025 10:21:58 GMT-0600 (Central Standard Time),803029.3999999762,005_o_f_d_a.png,O,m,1281,4,1,2292.399999976158,800737.0,7069,VNB,B,2
3,test,4,0.0,2-Back,1,z,Fri Feb 28 2025 10:21:58 GMT-0600 (Central Standard Time),805161.1999999881,004_o_m_h_a.png,O,z,1103,5,1,2125.5,803035.6999999881,7069,VNB,B,3
3,test,4,0.0,2-Back,0,m,Fri Feb 28 2025 10:21:58 GMT-0600 (Central Standard Time),807860.3999999762,007_m_m_n_a.png,O,z,1675,6,1,2691.099999964237,805169.3000000119,7069,VNB,B,4
3,test,4,0.0,2-Back,0,m,Fri Feb 28 2025 10:21:58 GMT-0600 (Central Standard Time),810259.6999999881,011_m_f_d_a.png,O,z,1365,7,1,2390.399999976158,807869.3000000119,7069,VNB,B,5
3,test,4,0.0,2-Back,0,z,Fri Feb 28 2025 10:21:58 GMT-0600 (Central Standard Time),812743.1000000238,020_y_f_n_a.png,O,m,1467,8,1,2474.2000000476837,810268.8999999762,7069,VNB,B,6
3,test,4,1.0,2-Back,0,m,Fri Feb 28 2025 10:21:58 GMT-0600 (Central Standard Time),814925.0,005_o_f_h_a.png,O,z,1166,9,1,2173.699999988079,812751.3000000119,7069,VNB,B,7
4,test,4,0.0,2-Back,1,m,Fri Feb 28 2025 10:21:58 GMT-0600 (Central Standard Time),817307.8999999762,007_m_m_h_a.png,O,m,1350,10,1,2377.0,814930.8999999762,7069,VNB,B,8
4,test,4,0.0,2-Back,0,m,Fri Feb 28 2025 10:21:58 GMT-0600 (Central Standard Time),819406.3999999762,020_y_f_d_a.png,O,z,1071,11,1,2091.399999976158,817315.0,7069,VNB,B,9
5,test,4,0.0,2-Back,1,m,Fri Feb 28 2025 10:21:58 GMT-0600 (Central Standard Time),822072.3999999762,016_y_m_n_a.png,O,m,1648,12,1,2658.599999964237,819413.8000000119,7069,VNB,B,10
5,test,4,0.0,2-Back,0,z,Fri Feb 28 2025 10:21:58 GMT-0600 (Central Standard Time),824623.3999999762,004_o_m_d_a.png,O,m,1523,13,1,2543.7999999523163,822079.6000000238,7069,VNB,B,11
6,test,4,1.0,2-Back,1,m,Fri Feb 28 2025 10:21:58 GMT-0600 (Central Standard Time),827355.3000000119,011_m_f_h_a.png,O,m,1709,14,1,2722.5,824632.8000000119,7069,VNB,B,12
6,test,4,1.0,2-Back,0,m,Fri Feb 28 2025 10:21:58 GMT-0600 (Central Standard Time),829389.3000000119,020_y_f_h_a.png,O,z,1017,15,1,2023.300000011921,827366.0,7069,VNB,B,13
7,test,4,0.0,2-Back,1,m,Fri Feb 28 2025 10:21:58 GMT-0600 (Central Standard Time),831570.1000000238,005_o_f_n_a.png,O,m,1160,16,1,2175.0,829395.1000000238,7069,VNB,B,14
8,test,4,0.0,2-Back,1,m,Fri Feb 28 2025 10:21:58 GMT-0600 (Central Standard Time),833818.1999999881,016_y_m_d_a.png,O,m,1226,17,1,2240.699999988079,831577.5,7069,VNB,B,15
9,test,4,1.0,2-Back,1,m,Fri Feb 28 2025 10:21:58 GMT-0600 (Central Standard Time),836019.6000000238,007_m_m_d_a.png,O,m,1177,18,1,2192.7000000476837,833826.8999999762,7069,VNB,B,16
0,test,5,1.0,2-Back,,,Fri Feb 28 2025 10:21:58 GMT-0600 (Central Standard Time),836019.6000000238,020_y_f_d_a.png,O,space,3024,1,1,2192.7000000476837,833826.8999999762,7069,VNB,B,0
0,test,5,1.0,2-Back,,,Fri Feb 28 2025 10:21:58 GMT-0600 (Central Standard Time),836019.6000000238,005_o_f_h_a.png,O,space,3024,2,1,2192.7000000476837,833826.8999999762,7069,VNB,B,0
1,test,5,1.0,2-Back,1,z,Fri Feb 28 2025 10:21:58 GMT-0600 (Central Standard Time),847131.6000000238,004_o_m_d_a.png,O,z,1801,3,1,2823.900000035763,844307.6999999881,7069,VNB,B,1
1,test,5,1.0,2-Back,0,m,Fri Feb 28 2025 10:21:58 GMT-0600 (Central Standard Time),849813.8000000119,011_m_f_n_a.png,O,z,1655,4,1,2672.300000011921,847141.5,7069,VNB,B,2
1,test,5,0.0,2-Back,0,m,Fri Feb 28 2025 10:21:58 GMT-0600 (Central Standard Time),852262.3000000119,007_m_m_h_a.png,O,z,1429,5,1,2441.100000023842,849821.1999999881,7069,VNB,B,3
1,test,5,0.0,2-Back,0,z,Fri Feb 28 2025 10:21:58 GMT-0600 (Central Standard Time),854229.8000000119,020_y_f_n_a.png,O,m,949,6,1,1959.0,852270.8000000119,7069,VNB,B,4
2,test,5,0.0,2-Back,1,m,Fri Feb 28 2025 10:21:58 GMT-0600 (Central Standard Time),856327.8999999762,005_o_f_d_a.png,O,m,1071,7,1,2094.7999999523163,854233.1000000238,7069,VNB,B,5
3,test,5,0.0,2-Back,1,m,Fri Feb 28 2025 10:21:58 GMT-0600 (Central Standard Time),858744.3000000119,004_o_m_h_a.png,O,m,1385,8,1,2409.199999988079,856335.1000000238,7069,VNB,B,6
3,test,5,1.0,2-Back,0,z,Fri Feb 28 2025 10:21:58 GMT-0600 (Central Standard Time),861643.6000000238,011_m_f_d_a.png,O,m,1866,9,1,2891.300000011921,858752.3000000119,7069,VNB,B,7
4,test,5,0.0,2-Back,1,m,Fri Feb 28 2025 10:21:58 GMT-0600 (Central Standard Time),863858.8999999762,016_y_m_n_a.png,O,m,1192,10,1,2207.199999988079,861651.6999999881,7069,VNB,B,8
5,test,5,0.0,2-Back,1,m,Fri Feb 28 2025 10:21:58 GMT-0600 (Central Standard Time),866108.0,007_m_m_n_a.png,O,m,1225,11,1,2241.300000011921,863866.6999999881,7069,VNB,B,9
6,test,5,0.0,2-Back,1,m,Fri Feb 28 2025 10:21:58 GMT-0600 (Central Standard Time),868092.6999999881,020_y_f_h_a.png,O,m,967,12,1,1977.699999988079,866115.0,7069,VNB,B,10
7,test,5,0.0,2-Back,1,m,Fri Feb 28 2025 10:21:58 GMT-0600 (Central Standard Time),870207.8000000119,016_y_m_d_a.png,O,m,1098,13,1,2106.300000011921,868101.5,7069,VNB,B,11
8,test,5,1.0,2-Back,1,z,Fri Feb 28 2025 10:21:58 GMT-0600 (Central Standard Time),872206.3999999762,011_m_f_h_a.png,O,z,982,14,1,1989.699999988079,870216.6999999881,7069,VNB,B,12
9,test,5,0.0,2-Back,1,m,Fri Feb 28 2025 10:21:58 GMT-0600 (Central Standard Time),874572.8000000119,004_o_m_n_a.png,O,m,1348,15,1,2360.0,872212.8000000119,7069,VNB,B,13
10,test,5,0.0,2-Back,1,m,Fri Feb 28 2025 10:21:58 GMT-0600 (Central Standard Time),877070.6000000238,007_m_m_d_a.png,O,m,1470,16,1,2491.100000023842,874579.5,7069,VNB,B,14
10,test,5,0.0,2-Back,0,z,Fri Feb 28 2025 10:21:58 GMT-0600 (Central Standard Time),879288.6000000238,005_o_f_n_a.png,O,m,1187,17,1,2209.800000011921,877078.8000000119,7069,VNB,B,15
11,test,5,1.0,2-Back,1,m,Fri Feb 28 2025 10:21:58 GMT-0600 (Central Standard Time),881455.3999999762,016_y_m_h_a.png,O,m,1150,18,1,2158.2999999523163,879297.1000000238,7069,VNB,B,16
