acc_sum,block_c,block_dur,condition,correct,correct_response,countdown,datetime,endtime,project,response,response_time,response_time_test1_response,response_time_test2_response,row_sel,same,session_number,start_end,starttime,stim1,stim2,subject_id,task,task_vers,time_test1,time_test2,trial
1,1,0.0,prac,1,m,30000.0,Wed Oct 02 2024 18:45:08 GMT-0500 (Central Daylight Time),43493.39999997616,O,m,1135,,,6,no,1,2659.100000023842,40834.299999952316,practrial6.png,practrial6b.png,7021,PC,A,,,1
2,1,0.0,prac,1,z,30000.0,Wed Oct 02 2024 18:45:08 GMT-0500 (Central Daylight Time),45825.5,O,z,785,,,1,yes,1,2312.5,43513.0,practrial1.png,practrial1.png,7021,PC,A,,,2
3,1,0.0,prac,1,m,30000.0,Wed Oct 02 2024 18:45:08 GMT-0500 (Central Daylight Time),48041.299999952316,O,m,678,,,2,no,1,2198.399999976158,45842.89999997616,practrial2.png,practrial2b.png,7021,PC,A,,,3
3,1,0.0,prac,0,m,30000.0,Wed Oct 02 2024 18:45:08 GMT-0500 (Central Daylight Time),50406.699999928474,O,z,820,,,4,no,1,2347.2999999523163,48059.39999997616,practrial4.png,practrial4b.png,7021,PC,A,,,4
4,1,0.0,prac,1,z,30000.0,Wed Oct 02 2024 18:45:08 GMT-0500 (Central Daylight Time),52822.59999990463,O,z,874,,,5,yes,1,2407.1999999284744,50415.39999997616,practrial5.png,practrial5.png,7021,PC,A,,,5
5,1,0.0,prac,1,z,30000.0,Wed Oct 02 2024 18:45:08 GMT-0500 (Central Daylight Time),55271.699999928474,O,z,923,,,3,yes,1,2441.2999999523163,52830.39999997616,practrial3.png,practrial3.png,7021,PC,A,,,6
1,1,1.4000000953674316,test,1,z,28599.99990463257,Wed Oct 02 2024 18:45:08 GMT-0500 (Central Daylight Time),69801.29999995232,O,z,1381,1381,,1,yes,1,1395.7000000476837,68405.59999990463,test1trial1.png,test1trial1.png,7021,PC,A,59810,,1
2,1,2.2660000324249268,test,1,m,27733.999967575073,Wed Oct 02 2024 18:45:08 GMT-0500 (Central Daylight Time),70667.69999992847,O,m,834,834,,2,no,1,854.1999999284744,69813.5,test1trial2.png,test1trial2b.png,7021,PC,A,61220,,2
3,1,3.381999969482422,test,1,z,26618.000030517578,Wed Oct 02 2024 18:45:08 GMT-0500 (Central Daylight Time),71783.69999992847,O,z,1090,1090,,3,yes,1,1104.6000000238419,70679.09999990463,test1trial3.png,test1trial3.png,7021,PC,A,62085,,3
4,1,4.5320000648498535,test,1,m,25467.999935150146,Wed Oct 02 2024 18:45:08 GMT-0500 (Central Daylight Time),72933.09999990463,O,m,1134,1134,,4,no,1,1138.5,71794.59999990463,test1trial4.png,test1trial4b.png,7021,PC,A,63201,,4
5,1,5.615000009536743,test,1,z,24384.999990463257,Wed Oct 02 2024 18:45:08 GMT-0500 (Central Daylight Time),74015.79999995232,O,z,1064,1064,,5,yes,1,1071.5,72944.29999995232,test1trial5.png,test1trial5.png,7021,PC,A,64350,,5
6,1,6.581000089645386,test,1,m,23418.999910354614,Wed Oct 02 2024 18:45:08 GMT-0500 (Central Daylight Time),74982.59999990463,O,m,955,955,,6,no,1,959.7999999523163,74022.79999995232,test1trial6.png,test1trial6b.png,7021,PC,A,65428,,6
7,1,7.730000019073486,test,1,z,22269.999980926514,Wed Oct 02 2024 18:45:08 GMT-0500 (Central Daylight Time),76131.5,O,z,1118,1118,,7,yes,1,1137.2000000476837,74994.29999995232,test1trial7.png,test1trial7.png,7021,PC,A,66400,,7
7,1,8.680000066757202,test,0,m,21319.999933242798,Wed Oct 02 2024 18:45:08 GMT-0500 (Central Daylight Time),77081.79999995232,O,z,939,939,,8,no,1,946.2999999523163,76135.5,test1trial8.png,test1trial8b.png,7021,PC,A,67540,,8
8,1,9.680000066757202,test,1,z,20319.999933242798,Wed Oct 02 2024 18:45:08 GMT-0500 (Central Daylight Time),78081.19999992847,O,z,980,980,,9,yes,1,988.6999999284744,77092.5,test1trial9.png,test1trial9.png,7021,PC,A,68498,,9
9,1,10.595999956130981,test,1,m,19404.00004386902,Wed Oct 02 2024 18:45:08 GMT-0500 (Central Daylight Time),78997.29999995232,O,m,906,906,,10,no,1,910.1000000238419,78087.19999992847,test1trial10.png,test1trial10b.png,7021,PC,A,69492,,10
10,1,11.611999988555908,test,1,z,18388.00001144409,Wed Oct 02 2024 18:45:08 GMT-0500 (Central Daylight Time),80013.79999995232,O,z,1001,1001,,11,yes,1,1012.8999999761581,79000.89999997616,test1trial11.png,test1trial11.png,7021,PC,A,70405,,11
10,1,12.861999988555908,test,0,m,17138.00001144409,Wed Oct 02 2024 18:45:08 GMT-0500 (Central Daylight Time),81263.69999992847,O,z,1232,1232,,12,no,1,1244.8999999761581,80018.79999995232,test1trial12.png,test1trial12b.png,7021,PC,A,71423,,12
11,1,13.812000036239624,test,1,m,16187.999963760376,Wed Oct 02 2024 18:45:08 GMT-0500 (Central Daylight Time),82213.39999997616,O,m,933,933,,13,no,1,938.8000000715256,81274.59999990463,test1trial13.png,test1trial13b.png,7021,PC,A,72681,,13
12,1,14.878000020980835,test,1,m,15121.999979019165,Wed Oct 02 2024 18:45:08 GMT-0500 (Central Daylight Time),83279.79999995232,O,m,1041,1041,,14,no,1,1055.5,82224.29999995232,test1trial14.png,test1trial14b.png,7021,PC,A,73630,,14
13,1,15.844000101089478,test,1,z,14155.999898910522,Wed Oct 02 2024 18:45:08 GMT-0500 (Central Daylight Time),84245.79999995232,O,z,942,942,,15,yes,1,954.8999999761581,83290.89999997616,test1trial15.png,test1trial15.png,7021,PC,A,74696,,15
14,1,16.861000061035156,test,1,m,13138.999938964844,Wed Oct 02 2024 18:45:08 GMT-0500 (Central Daylight Time),85262.5,O,m,997,997,,16,no,1,1009.7000000476837,84252.79999995232,test1trial16.png,test1trial16b.png,7021,PC,A,75658,,16
15,1,17.861000061035156,test,1,z,12138.999938964844,Wed Oct 02 2024 18:45:08 GMT-0500 (Central Daylight Time),86262.0,O,z,983,983,,17,yes,1,988.7000000476837,85273.29999995232,test1trial17.png,test1trial17.png,7021,PC,A,76679,,17
16,1,18.877000093460083,test,1,m,11122.999906539917,Wed Oct 02 2024 18:45:08 GMT-0500 (Central Daylight Time),87278.0,O,m,1007,1007,,18,no,1,1011.3000000715256,86266.69999992847,test1trial18.png,test1trial18b.png,7021,PC,A,77671,,18
16,1,19.943000078201294,test,0,m,10056.999921798706,Wed Oct 02 2024 18:45:08 GMT-0500 (Central Daylight Time),88344.29999995232,O,z,1056,1056,,19,no,1,1062.2999999523163,87282.0,test1trial19.png,test1trial19b.png,7021,PC,A,78686,,19
17,1,21.158999919891357,test,1,z,8841.000080108643,Wed Oct 02 2024 18:45:08 GMT-0500 (Central Daylight Time),89560.5,O,z,1204,1204,,20,yes,1,1210.7000000476837,88349.79999995232,test1trial20.png,test1trial20.png,7021,PC,A,79754,,20
18,1,22.292999982833862,test,1,z,7707.000017166138,Wed Oct 02 2024 18:45:08 GMT-0500 (Central Daylight Time),90694.0,O,z,1116,1116,,21,yes,1,1127.5,89566.5,test1trial21.png,test1trial21.png,7021,PC,A,80971,,21
19,1,23.54200005531311,test,1,z,6457.99994468689,Wed Oct 02 2024 18:45:08 GMT-0500 (Central Daylight Time),91943.19999992847,O,z,1218,1218,,22,yes,1,1234.3999999761581,90708.79999995232,test1trial22.png,test1trial22.png,7021,PC,A,82116,,22
20,1,24.742000102996826,test,1,z,5257.999897003174,Wed Oct 02 2024 18:45:08 GMT-0500 (Central Daylight Time),93143.29999995232,O,z,1189,1189,,23,yes,1,1194.0,91949.29999995232,test1trial23.png,test1trial23.png,7021,PC,A,83354,,23
21,1,25.875,test,1,z,4125.0,Wed Oct 02 2024 18:45:08 GMT-0500 (Central Daylight Time),94276.5,O,z,1104,1104,,24,yes,1,1123.2000000476837,93153.29999995232,test1trial24.png,test1trial24.png,7021,PC,A,84559,,24
22,1,26.841000080108643,test,1,m,3158.9999198913574,Wed Oct 02 2024 18:45:08 GMT-0500 (Central Daylight Time),95242.5,O,m,938,938,,25,no,1,955.5,94287.0,test1trial25.png,test1trial25b.png,7021,PC,A,85693,,25
23,1,27.924000024795532,test,1,m,2075.999975204468,Wed Oct 02 2024 18:45:08 GMT-0500 (Central Daylight Time),96325.39999997616,O,m,1060,1060,,26,no,1,1072.8000000715256,95252.59999990463,test1trial26.png,test1trial26b.png,7021,PC,A,86659,,26
24,1,29.424000024795532,test,1,m,575.9999752044678,Wed Oct 02 2024 18:45:08 GMT-0500 (Central Daylight Time),97825.0,O,m,1481,1481,,27,no,1,1489.4000000953674,96335.59999990463,practrial6.png,practrial6b.png,7021,PC,A,87742,,27
24,1,30.02300000190735,test,0,z,-23.000001907348633,Wed Oct 02 2024 18:45:08 GMT-0500 (Central Daylight Time),98424.59999990463,O,None,587,587,,28,yes,1,589.5,97835.09999990463,practrial1.png,practrial1.png,7021,PC,A,89240,,28
1,2,1.315999984741211,test,1,m,28684.00001525879,Wed Oct 02 2024 18:45:08 GMT-0500 (Central Daylight Time),102673.79999995232,O,m,1297,,1297.0,1,no,1,4838.700000047684,97835.09999990463,test2trial1.png,test2trial1b.png,7021,PC,A,,92774.0,1
2,2,2.5329999923706055,test,1,m,27467.000007629395,Wed Oct 02 2024 18:45:08 GMT-0500 (Central Daylight Time),103890.19999992847,O,m,1188,,1188.0,2,no,1,6055.100000023842,97835.09999990463,test2trial2.png,test2trial2b.png,7021,PC,A,,94091.0,2
3,2,3.56499981880188,test,1,z,26435.00018119812,Wed Oct 02 2024 18:45:08 GMT-0500 (Central Daylight Time),104922.69999992847,O,z,1013,,1013.0,3,yes,1,7087.600000023842,97835.09999990463,test2trial3.png,test2trial3.png,7021,PC,A,,95306.0,3
4,2,4.597999811172485,test,1,z,25402.000188827515,Wed Oct 02 2024 18:45:08 GMT-0500 (Central Daylight Time),105955.69999992847,O,z,1004,,1004.0,4,yes,1,8120.600000023842,97835.09999990463,test2trial4.png,test2trial4.png,7021,PC,A,,96339.0,4
5,2,5.697999954223633,test,1,z,24302.000045776367,Wed Oct 02 2024 18:45:08 GMT-0500 (Central Daylight Time),107055.19999992847,O,z,1083,,1083.0,5,yes,1,9220.100000023842,97835.09999990463,test2trial5.png,test2trial5.png,7021,PC,A,,97372.0,5
6,2,6.898000001907349,test,1,z,23101.99999809265,Wed Oct 02 2024 18:45:08 GMT-0500 (Central Daylight Time),108255.09999990463,O,z,1176,,1176.0,6,yes,1,10420.0,97835.09999990463,test2trial6.png,test2trial6.png,7021,PC,A,,98471.0,6
7,2,8.163999795913696,test,1,m,21836.000204086304,Wed Oct 02 2024 18:45:08 GMT-0500 (Central Daylight Time),109521.0,O,m,1238,,1238.0,7,no,1,11685.900000095367,97835.09999990463,test2trial7.png,test2trial7b.png,7021,PC,A,,99672.0,7
8,2,9.212999820709229,test,1,m,20787.00017929077,Wed Oct 02 2024 18:45:08 GMT-0500 (Central Daylight Time),110570.89999997616,O,m,1033,,1033.0,8,no,1,12735.800000071526,97835.09999990463,test2trial8.png,test2trial8b.png,7021,PC,A,,100934.0,8
9,2,10.645999908447266,test,1,z,19354.000091552734,Wed Oct 02 2024 18:45:08 GMT-0500 (Central Daylight Time),112003.79999995232,O,z,1405,,1405.0,9,yes,1,14168.700000047684,97835.09999990463,test2trial9.png,test2trial9.png,7021,PC,A,,101986.0,9
10,2,11.712999820709229,test,1,z,18287.00017929077,Wed Oct 02 2024 18:45:08 GMT-0500 (Central Daylight Time),113069.89999997616,O,z,1044,,1044.0,10,yes,1,15234.800000071526,97835.09999990463,test2trial10.png,test2trial10.png,7021,PC,A,,103419.0,10
11,2,12.728999853134155,test,1,m,17271.000146865845,Wed Oct 02 2024 18:45:08 GMT-0500 (Central Daylight Time),114086.39999997616,O,m,990,,990.0,11,no,1,16251.300000071526,97835.09999990463,test2trial11.png,test2trial11b.png,7021,PC,A,,104497.0,11
12,2,13.828999996185303,test,1,m,16171.000003814697,Wed Oct 02 2024 18:45:08 GMT-0500 (Central Daylight Time),115186.09999990463,O,m,1080,,1080.0,12,no,1,17351.0,97835.09999990463,test2trial12.png,test2trial12b.png,7021,PC,A,,105503.0,12
13,2,14.92799997329712,test,1,z,15072.00002670288,Wed Oct 02 2024 18:45:08 GMT-0500 (Central Daylight Time),116285.0,O,z,1085,,1085.0,13,yes,1,18449.900000095367,97835.09999990463,test2trial13.png,test2trial13.png,7021,PC,A,,106601.0,13
14,2,17.244999885559082,test,1,m,12755.000114440918,Wed Oct 02 2024 18:45:08 GMT-0500 (Central Daylight Time),118601.39999997616,O,m,2304,,2304.0,14,no,1,20766.300000071526,97835.09999990463,test2trial14.png,test2trial14b.png,7021,PC,A,,107695.0,14
15,2,18.227999925613403,test,1,m,11772.000074386597,Wed Oct 02 2024 18:45:08 GMT-0500 (Central Daylight Time),119584.69999992847,O,m,957,,957.0,15,no,1,21749.600000023842,97835.09999990463,test2trial15.png,test2trial15b.png,7021,PC,A,,110018.0,15
15,2,19.360999822616577,test,0,m,10639.000177383423,Wed Oct 02 2024 18:45:08 GMT-0500 (Central Daylight Time),120717.69999992847,O,z,1110,,1110.0,16,no,1,22882.600000023842,97835.09999990463,test2trial16.png,test2trial16b.png,7021,PC,A,,111001.0,16
16,2,20.926999807357788,test,1,z,9073.000192642212,Wed Oct 02 2024 18:45:08 GMT-0500 (Central Daylight Time),122283.0,O,z,1545,,1545.0,17,yes,1,24447.900000095367,97835.09999990463,test2trial17.png,test2trial17.png,7021,PC,A,,112133.0,17
17,2,22.042999982833862,test,1,z,7957.000017166138,Wed Oct 02 2024 18:45:08 GMT-0500 (Central Daylight Time),123399.19999992847,O,z,1108,,1108.0,18,yes,1,25564.100000023842,97835.09999990463,test2trial18.png,test2trial18.png,7021,PC,A,,113690.0,18
18,2,23.55999994277954,test,1,z,6440.000057220459,Wed Oct 02 2024 18:45:08 GMT-0500 (Central Daylight Time),124916.19999992847,O,z,1504,,1504.0,19,yes,1,27081.100000023842,97835.09999990463,test2trial19.png,test2trial19.png,7021,PC,A,,114807.0,19
18,2,25.075999975204468,test,0,z,4924.000024795532,Wed Oct 02 2024 18:45:08 GMT-0500 (Central Daylight Time),126432.39999997616,O,m,1500,,1500.0,20,yes,1,28597.300000071526,97835.09999990463,test2trial20.png,test2trial20.png,7021,PC,A,,116331.0,20
19,2,26.375,test,1,z,3625.0,Wed Oct 02 2024 18:45:08 GMT-0500 (Central Daylight Time),127731.89999997616,O,z,1279,,1279.0,21,yes,1,29896.800000071526,97835.09999990463,test2trial21.png,test2trial21.png,7021,PC,A,,117848.0,21
20,2,27.507999897003174,test,1,m,2492.000102996826,Wed Oct 02 2024 18:45:08 GMT-0500 (Central Daylight Time),128864.69999992847,O,m,1107,,1107.0,22,no,1,31029.600000023842,97835.09999990463,test2trial22.png,test2trial22b.png,7021,PC,A,,119148.0,22
21,2,29.641000032424927,test,1,m,358.99996757507324,Wed Oct 02 2024 18:45:08 GMT-0500 (Central Daylight Time),130997.29999995232,O,m,2118,,2118.0,23,no,1,33162.200000047684,97835.09999990463,test2trial23.png,test2trial23b.png,7021,PC,A,,120281.0,23
21,2,30.0239999294281,test,0,m,-23.999929428100586,Wed Oct 02 2024 18:45:08 GMT-0500 (Central Daylight Time),131380.59999990463,O,None,370,,370.0,24,no,1,33545.5,97835.09999990463,test2trial24.png,test2trial24b.png,7021,PC,A,,122413.0,24
