acc_sum,block,block_c,change,condition,correct,correct_response,datetime,endtime,face,project,response,response_time,row_sel,session_number,start_end,starttime,subject_id,task,task_vers,trial
0,prac,1,,1-Back,,,Thu Mar 06 2025 17:52:17 GMT-0600 (Central Standard Time),,093_m_f_n_a.png,O,space,9439,1,1,,,7080,NNB,C,0
1,prac,1,0.0,1-Back,1,m,Thu Mar 06 2025 17:52:17 GMT-0600 (Central Standard Time),131308.5,098_y_f_n_a.png,O,m,959,2,1,1825.3000000044703,129483.19999999553,7080,NNB,C,1
1,prac,1,1.0,1-Back,0,z,Thu Mar 06 2025 17:52:17 GMT-0600 (Central Standard Time),134092.19999999553,098_y_f_n_a.png,O,None,2005,3,1,2774.5999999940395,131317.6000000015,7080,NNB,C,2
2,prac,1,0.0,1-Back,1,m,Thu Mar 06 2025 17:52:17 GMT-0600 (Central Standard Time),136240.6000000015,059_o_m_n_a.png,O,m,1216,4,1,2143.10000000149,134097.5,7080,NNB,C,3
3,prac,1,0.0,1-Back,1,m,Thu Mar 06 2025 17:52:17 GMT-0600 (Central Standard Time),137954.5,092_m_m_n_a.png,O,m,851,5,1,1704.8999999985099,136249.6000000015,7080,NNB,C,4
4,prac,1,1.0,1-Back,1,z,Thu Mar 06 2025 17:52:17 GMT-0600 (Central Standard Time),139438.79999999702,092_m_m_n_a.png,O,z,710,6,1,1476.3999999985099,137962.3999999985,7080,NNB,C,5
5,prac,1,0.0,1-Back,1,m,Thu Mar 06 2025 17:52:17 GMT-0600 (Central Standard Time),141122.6000000015,130_o_f_n_a.png,O,m,800,7,1,1674.4000000059605,139448.19999999553,7080,NNB,C,6
6,prac,1,0.0,1-Back,1,m,Thu Mar 06 2025 17:52:17 GMT-0600 (Central Standard Time),142853.1000000015,082_m_m_n_a.png,O,m,862,8,1,1721.3000000044703,141131.79999999702,7080,NNB,C,7
7,prac,1,0.0,1-Back,1,m,Thu Mar 06 2025 17:52:17 GMT-0600 (Central Standard Time),144486.69999999553,093_m_f_n_a.png,O,m,757,9,1,1625.0999999940395,142861.6000000015,7080,NNB,C,8
8,prac,1,1.0,1-Back,1,z,Thu Mar 06 2025 17:52:17 GMT-0600 (Central Standard Time),145852.1000000015,093_m_f_n_a.png,O,z,584,10,1,1355.7000000029802,144496.3999999985,7080,NNB,C,9
9,prac,1,0.0,1-Back,1,m,Thu Mar 06 2025 17:52:17 GMT-0600 (Central Standard Time),147269.29999999702,059_o_m_n_a.png,O,m,644,11,1,1409.0,145860.29999999702,7080,NNB,C,10
10,prac,1,0.0,1-Back,1,m,Thu Mar 06 2025 17:52:17 GMT-0600 (Central Standard Time),148851.79999999702,028_y_f_n_a.png,O,m,715,12,1,1572.2999999970198,147279.5,7080,NNB,C,11
0,test,1,0.0,1-Back,,,Thu Mar 06 2025 17:52:17 GMT-0600 (Central Standard Time),148851.79999999702,098_y_f_n_a.png,O,space,8243,1,1,1572.2999999970198,147279.5,7080,NNB,C,0
1,test,1,0.0,1-Back,1,m,Thu Mar 06 2025 17:52:17 GMT-0600 (Central Standard Time),167461.79999999702,006_m_f_n_a.png,O,m,728,2,1,1742.2999999970198,165719.5,7080,NNB,C,1
2,test,1,0.0,1-Back,1,m,Thu Mar 06 2025 17:52:17 GMT-0600 (Central Standard Time),169162.69999999553,028_y_f_n_a.png,O,m,681,3,1,1693.0,167469.69999999553,7080,NNB,C,2
3,test,1,1.0,1-Back,1,z,Thu Mar 06 2025 17:52:17 GMT-0600 (Central Standard Time),170744.1000000015,028_y_f_n_a.png,O,z,550,4,1,1574.0,169170.1000000015,7080,NNB,C,3
4,test,1,0.0,1-Back,1,m,Thu Mar 06 2025 17:52:17 GMT-0600 (Central Standard Time),172526.19999999553,006_m_f_n_a.png,O,m,751,5,1,1774.5,170751.69999999553,7080,NNB,C,4
4,test,1,0.0,1-Back,0,m,Thu Mar 06 2025 17:52:17 GMT-0600 (Central Standard Time),174259.79999999702,059_o_m_n_a.png,O,z,706,6,1,1726.6000000014901,172533.19999999553,7080,NNB,C,5
5,test,1,1.0,1-Back,1,z,Thu Mar 06 2025 17:52:17 GMT-0600 (Central Standard Time),176025.6000000015,059_o_m_n_a.png,O,z,739,7,1,1760.8000000044703,174264.79999999702,7080,NNB,C,6
6,test,1,0.0,1-Back,1,m,Thu Mar 06 2025 17:52:17 GMT-0600 (Central Standard Time),177741.8999999985,092_m_m_n_a.png,O,m,686,8,1,1710.3999999985099,176031.5,7080,NNB,C,7
7,test,1,0.0,1-Back,1,m,Thu Mar 06 2025 17:52:17 GMT-0600 (Central Standard Time),179325.19999999553,130_o_f_n_a.png,O,m,567,9,1,1574.6999999955297,177750.5,7080,NNB,C,8
8,test,1,0.0,1-Back,1,m,Thu Mar 06 2025 17:52:17 GMT-0600 (Central Standard Time),181157.6000000015,092_m_m_n_a.png,O,m,801,10,1,1825.5,179332.1000000015,7080,NNB,C,9
9,test,1,0.0,1-Back,1,m,Thu Mar 06 2025 17:52:17 GMT-0600 (Central Standard Time),182774.69999999553,057_y_m_n_a.png,O,m,595,11,1,1608.5,181166.19999999553,7080,NNB,C,10
10,test,1,1.0,1-Back,1,z,Thu Mar 06 2025 17:52:17 GMT-0600 (Central Standard Time),184473.29999999702,057_y_m_n_a.png,O,z,668,12,1,1691.1999999955297,182782.1000000015,7080,NNB,C,11
11,test,1,0.0,1-Back,1,m,Thu Mar 06 2025 17:52:17 GMT-0600 (Central Standard Time),186238.6000000015,030_o_f_n_a.png,O,m,742,13,1,1758.2000000029802,184480.3999999985,7080,NNB,C,12
12,test,1,1.0,1-Back,1,z,Thu Mar 06 2025 17:52:17 GMT-0600 (Central Standard Time),188588.29999999702,030_o_f_n_a.png,O,z,1320,14,1,2342.5,186245.79999999702,7080,NNB,C,13
13,test,1,0.0,1-Back,1,m,Thu Mar 06 2025 17:52:17 GMT-0600 (Central Standard Time),190387.69999999553,031_y_m_n_a.png,O,m,779,15,1,1790.5,188597.19999999553,7080,NNB,C,14
14,test,1,0.0,1-Back,1,m,Thu Mar 06 2025 17:52:17 GMT-0600 (Central Standard Time),192071.79999999702,093_m_f_n_a.png,O,m,658,16,1,1676.2999999970198,190395.5,7080,NNB,C,15
15,test,1,0.0,1-Back,1,m,Thu Mar 06 2025 17:52:17 GMT-0600 (Central Standard Time),193835.8999999985,146_o_m_n_a.png,O,m,744,17,1,1754.6000000014901,192081.29999999702,7080,NNB,C,16
16,test,1,0.0,1-Back,1,m,Thu Mar 06 2025 17:52:17 GMT-0600 (Central Standard Time),195435.8999999985,093_m_f_n_a.png,O,m,565,18,1,1593.7999999970198,193842.1000000015,7080,NNB,C,17
0,test,2,0.0,1-Back,,,Thu Mar 06 2025 17:52:17 GMT-0600 (Central Standard Time),195435.8999999985,092_m_m_n_a.png,O,space,3556,1,1,1593.7999999970198,193842.1000000015,7080,NNB,C,0
1,test,2,0.0,1-Back,1,m,Thu Mar 06 2025 17:52:17 GMT-0600 (Central Standard Time),202667.0,006_m_f_n_a.png,O,m,622,2,1,1638.7000000029802,201028.29999999702,7080,NNB,C,1
1,test,2,1.0,1-Back,0,z,Thu Mar 06 2025 17:52:17 GMT-0600 (Central Standard Time),204234.1000000015,006_m_f_n_a.png,O,m,549,3,1,1560.5,202673.6000000015,7080,NNB,C,2
2,test,2,0.0,1-Back,1,m,Thu Mar 06 2025 17:52:17 GMT-0600 (Central Standard Time),206066.0,092_m_m_n_a.png,O,m,799,4,1,1825.0,204241.0,7080,NNB,C,3
3,test,2,0.0,1-Back,1,m,Thu Mar 06 2025 17:52:17 GMT-0600 (Central Standard Time),208165.3999999985,057_y_m_n_a.png,O,m,1070,5,1,2093.0,206072.3999999985,7080,NNB,C,4
4,test,2,0.0,1-Back,1,m,Thu Mar 06 2025 17:52:17 GMT-0600 (Central Standard Time),209849.6000000015,098_y_f_n_a.png,O,m,665,6,1,1677.2000000029802,208172.3999999985,7080,NNB,C,5
5,test,2,1.0,1-Back,1,z,Thu Mar 06 2025 17:52:17 GMT-0600 (Central Standard Time),211863.19999999553,098_y_f_n_a.png,O,z,991,7,1,2007.6999999955297,209855.5,7080,NNB,C,6
6,test,2,0.0,1-Back,1,m,Thu Mar 06 2025 17:52:17 GMT-0600 (Central Standard Time),213478.79999999702,057_y_m_n_a.png,O,m,591,8,1,1609.0,211869.79999999702,7080,NNB,C,7
7,test,2,0.0,1-Back,1,m,Thu Mar 06 2025 17:52:17 GMT-0600 (Central Standard Time),215112.5,030_o_f_n_a.png,O,m,615,9,1,1631.0,213481.5,7080,NNB,C,8
8,test,2,0.0,1-Back,1,m,Thu Mar 06 2025 17:52:17 GMT-0600 (Central Standard Time),216845.6000000015,082_m_m_n_a.png,O,m,712,10,1,1726.1000000014901,215119.5,7080,NNB,C,9
9,test,2,1.0,1-Back,1,z,Thu Mar 06 2025 17:52:17 GMT-0600 (Central Standard Time),218546.79999999702,082_m_m_n_a.png,O,z,681,11,1,1693.7999999970198,216853.0,7080,NNB,C,10
10,test,2,0.0,1-Back,1,m,Thu Mar 06 2025 17:52:17 GMT-0600 (Central Standard Time),220245.29999999702,030_o_f_n_a.png,O,m,670,12,1,1692.1000000014901,218553.19999999553,7080,NNB,C,11
11,test,2,0.0,1-Back,1,m,Thu Mar 06 2025 17:52:17 GMT-0600 (Central Standard Time),221879.5,130_o_f_n_a.png,O,m,603,13,1,1626.3999999985099,220253.1000000015,7080,NNB,C,12
12,test,2,0.0,1-Back,1,m,Thu Mar 06 2025 17:52:17 GMT-0600 (Central Standard Time),223526.69999999553,059_o_m_n_a.png,O,m,624,14,1,1639.2999999970198,221887.3999999985,7080,NNB,C,13
13,test,2,0.0,1-Back,1,m,Thu Mar 06 2025 17:52:17 GMT-0600 (Central Standard Time),225211.3999999985,146_o_m_n_a.png,O,m,658,15,1,1678.2999999970198,223533.1000000015,7080,NNB,C,14
14,test,2,1.0,1-Back,1,z,Thu Mar 06 2025 17:52:17 GMT-0600 (Central Standard Time),226794.1000000015,146_o_m_n_a.png,O,z,566,16,1,1575.4000000059605,225218.69999999553,7080,NNB,C,15
15,test,2,0.0,1-Back,1,m,Thu Mar 06 2025 17:52:17 GMT-0600 (Central Standard Time),228390.3999999985,031_y_m_n_a.png,O,m,567,17,1,1588.7000000029802,226801.69999999553,7080,NNB,C,16
16,test,2,1.0,1-Back,1,z,Thu Mar 06 2025 17:52:17 GMT-0600 (Central Standard Time),230025.19999999553,031_y_m_n_a.png,O,z,599,18,1,1630.8999999985099,228394.29999999702,7080,NNB,C,17
0,test,3,1.0,1-Back,,,Thu Mar 06 2025 17:52:17 GMT-0600 (Central Standard Time),230025.19999999553,028_y_f_n_a.png,O,space,7976,1,1,1630.8999999985099,228394.29999999702,7080,NNB,C,0
1,test,3,0.0,1-Back,1,m,Thu Mar 06 2025 17:52:17 GMT-0600 (Central Standard Time),241872.0,146_o_m_n_a.png,O,m,735,1,1,1758.8999999985099,240113.1000000015,7080,NNB,C,1
2,test,3,1.0,1-Back,1,z,Thu Mar 06 2025 17:52:17 GMT-0600 (Central Standard Time),243502.0,146_o_m_n_a.png,O,z,602,1,1,1621.8999999985099,241880.1000000015,7080,NNB,C,2
3,test,3,0.0,1-Back,1,m,Thu Mar 06 2025 17:52:17 GMT-0600 (Central Standard Time),245087.1000000015,093_m_f_n_a.png,O,m,553,1,1,1582.3000000044703,243504.79999999702,7080,NNB,C,3
4,test,3,1.0,1-Back,1,z,Thu Mar 06 2025 17:52:17 GMT-0600 (Central Standard Time),246740.69999999553,093_m_f_n_a.png,O,z,617,1,1,1647.0999999940395,245093.6000000015,7080,NNB,C,4
5,test,3,0.0,1-Back,1,m,Thu Mar 06 2025 17:52:17 GMT-0600 (Central Standard Time),248403.8999999985,030_o_f_n_a.png,O,m,650,1,1,1655.7999999970198,246748.1000000015,7080,NNB,C,5
6,test,3,0.0,1-Back,1,m,Thu Mar 06 2025 17:52:17 GMT-0600 (Central Standard Time),249953.6000000015,057_y_m_n_a.png,O,m,534,1,1,1541.5,248412.1000000015,7080,NNB,C,6
7,test,3,0.0,1-Back,1,m,Thu Mar 06 2025 17:52:17 GMT-0600 (Central Standard Time),251751.6000000015,030_o_f_n_a.png,O,m,767,1,1,1791.2000000029802,249960.3999999985,7080,NNB,C,7
8,test,3,0.0,1-Back,1,m,Thu Mar 06 2025 17:52:17 GMT-0600 (Central Standard Time),253484.8999999985,031_y_m_n_a.png,O,m,711,1,1,1729.8999999985099,251755.0,7080,NNB,C,8
9,test,3,1.0,1-Back,1,z,Thu Mar 06 2025 17:52:17 GMT-0600 (Central Standard Time),255084.29999999702,031_y_m_n_a.png,O,z,583,1,1,1591.7999999970198,253492.5,7080,NNB,C,9
10,test,3,0.0,1-Back,1,m,Thu Mar 06 2025 17:52:17 GMT-0600 (Central Standard Time),256748.69999999553,006_m_f_n_a.png,O,m,636,1,1,1658.2999999970198,255090.3999999985,7080,NNB,C,10
11,test,3,0.0,1-Back,1,m,Thu Mar 06 2025 17:52:17 GMT-0600 (Central Standard Time),258484.29999999702,098_y_f_n_a.png,O,m,717,1,1,1727.3999999985099,256756.8999999985,7080,NNB,C,11
12,test,3,1.0,1-Back,1,z,Thu Mar 06 2025 17:52:17 GMT-0600 (Central Standard Time),260131.69999999553,098_y_f_n_a.png,O,z,622,1,1,1640.6999999955297,258491.0,7080,NNB,C,12
13,test,3,0.0,1-Back,1,m,Thu Mar 06 2025 17:52:17 GMT-0600 (Central Standard Time),261748.1000000015,006_m_f_n_a.png,O,m,597,1,1,1609.6000000014901,260138.5,7080,NNB,C,13
14,test,3,0.0,1-Back,1,m,Thu Mar 06 2025 17:52:17 GMT-0600 (Central Standard Time),263413.3999999985,092_m_m_n_a.png,O,m,635,1,1,1658.8999999985099,261754.5,7080,NNB,C,14
15,test,3,1.0,1-Back,1,z,Thu Mar 06 2025 17:52:17 GMT-0600 (Central Standard Time),265081.299999997,092_m_m_n_a.png,O,z,641,1,1,1662.8999999985099,263418.3999999985,7080,NNB,C,15
16,test,3,0.0,1-Back,1,m,Thu Mar 06 2025 17:52:17 GMT-0600 (Central Standard Time),266679.8999999985,130_o_f_n_a.png,O,m,575,1,1,1591.8999999985099,265088.0,7080,NNB,C,16
17,test,3,1.0,1-Back,1,z,Thu Mar 06 2025 17:52:17 GMT-0600 (Central Standard Time),268629.0,130_o_f_n_a.png,O,z,931,1,1,1944.1000000014901,266684.8999999985,7080,NNB,C,17
0,test,4,1.0,1-Back,,,Thu Mar 06 2025 17:52:17 GMT-0600 (Central Standard Time),268629.0,093_m_f_n_a.png,O,space,1134,1,1,1944.1000000014901,266684.8999999985,7080,NNB,C,0
1,test,4,0.0,1-Back,1,m,Thu Mar 06 2025 17:52:17 GMT-0600 (Central Standard Time),273443.299999997,146_o_m_n_a.png,O,m,554,2,1,1574.1000000014901,271869.19999999553,7080,NNB,C,1
1,test,4,0.0,1-Back,0,m,Thu Mar 06 2025 17:52:17 GMT-0600 (Central Standard Time),275062.69999999553,093_m_f_n_a.png,O,z,588,3,1,1613.5,273449.19999999553,7080,NNB,C,2
2,test,4,0.0,1-Back,1,m,Thu Mar 06 2025 17:52:17 GMT-0600 (Central Standard Time),276759.5,030_o_f_n_a.png,O,m,666,4,1,1692.6000000014901,275066.8999999985,7080,NNB,C,3
3,test,4,1.0,1-Back,1,z,Thu Mar 06 2025 17:52:17 GMT-0600 (Central Standard Time),278393.1000000015,030_o_f_n_a.png,O,z,598,5,1,1626.4000000059605,276766.69999999553,7080,NNB,C,4
4,test,4,0.0,1-Back,1,m,Thu Mar 06 2025 17:52:17 GMT-0600 (Central Standard Time),280092.299999997,098_y_f_n_a.png,O,m,671,6,1,1692.7999999970198,278399.5,7080,NNB,C,5
5,test,4,0.0,1-Back,1,m,Thu Mar 06 2025 17:52:17 GMT-0600 (Central Standard Time),281725.3999999985,057_y_m_n_a.png,O,m,603,7,1,1626.8999999985099,280098.5,7080,NNB,C,6
6,test,4,1.0,1-Back,1,z,Thu Mar 06 2025 17:52:17 GMT-0600 (Central Standard Time),283242.6000000015,057_y_m_n_a.png,O,z,498,8,1,1511.2000000029802,281731.3999999985,7080,NNB,C,7
7,test,4,0.0,1-Back,1,m,Thu Mar 06 2025 17:52:17 GMT-0600 (Central Standard Time),284973.5,098_y_f_n_a.png,O,m,709,9,1,1726.1000000014901,283247.3999999985,7080,NNB,C,8
8,test,4,0.0,1-Back,1,m,Thu Mar 06 2025 17:52:17 GMT-0600 (Central Standard Time),286556.799999997,082_m_m_n_a.png,O,m,561,10,1,1575.5,284981.299999997,7080,NNB,C,9
9,test,4,1.0,1-Back,1,z,Thu Mar 06 2025 17:52:17 GMT-0600 (Central Standard Time),288190.1000000015,082_m_m_n_a.png,O,z,601,11,1,1626.3000000044703,286563.799999997,7080,NNB,C,10
10,test,4,0.0,1-Back,1,m,Thu Mar 06 2025 17:52:17 GMT-0600 (Central Standard Time),289906.299999997,130_o_f_n_a.png,O,m,683,12,1,1709.7999999970198,288196.5,7080,NNB,C,11
11,test,4,0.0,1-Back,1,m,Thu Mar 06 2025 17:52:17 GMT-0600 (Central Standard Time),291556.19999999553,059_o_m_n_a.png,O,m,633,13,1,1642.5,289913.69999999553,7080,NNB,C,12
12,test,4,0.0,1-Back,1,m,Thu Mar 06 2025 17:52:17 GMT-0600 (Central Standard Time),293405.1000000015,130_o_f_n_a.png,O,m,829,14,1,1842.1000000014901,291563.0,7080,NNB,C,13
13,test,4,0.0,1-Back,1,m,Thu Mar 06 2025 17:52:17 GMT-0600 (Central Standard Time),295020.799999997,028_y_f_n_a.png,O,m,595,15,1,1608.1000000014901,293412.69999999553,7080,NNB,C,14
14,test,4,1.0,1-Back,1,z,Thu Mar 06 2025 17:52:17 GMT-0600 (Central Standard Time),296637.299999997,028_y_f_n_a.png,O,z,596,16,1,1609.2999999970198,295028.0,7080,NNB,C,15
15,test,4,0.0,1-Back,1,m,Thu Mar 06 2025 17:52:17 GMT-0600 (Central Standard Time),298219.69999999553,006_m_f_n_a.png,O,m,554,17,1,1575.5999999940395,296644.1000000015,7080,NNB,C,16
16,test,4,1.0,1-Back,1,z,Thu Mar 06 2025 17:52:17 GMT-0600 (Central Standard Time),300152.3999999985,006_m_f_n_a.png,O,z,908,18,1,1926.1000000014901,298226.299999997,7080,NNB,C,17
0,test,5,1.0,1-Back,,,Thu Mar 06 2025 17:52:17 GMT-0600 (Central Standard Time),300152.3999999985,059_o_m_n_a.png,O,space,1305,1,1,1926.1000000014901,298226.299999997,7080,NNB,C,0
1,test,5,1.0,1-Back,1,z,Thu Mar 06 2025 17:52:17 GMT-0600 (Central Standard Time),305301.1000000015,059_o_m_n_a.png,O,z,787,2,1,1806.3000000044703,303494.799999997,7080,NNB,C,1
2,test,5,0.0,1-Back,1,m,Thu Mar 06 2025 17:52:17 GMT-0600 (Central Standard Time),307068.3999999985,098_y_f_n_a.png,O,m,750,3,1,1759.5,305308.8999999985,7080,NNB,C,2
3,test,5,0.0,1-Back,1,m,Thu Mar 06 2025 17:52:17 GMT-0600 (Central Standard Time),309049.6000000015,057_y_m_n_a.png,O,m,949,4,1,1974.7000000029802,307074.8999999985,7080,NNB,C,3
4,test,5,0.0,1-Back,1,m,Thu Mar 06 2025 17:52:17 GMT-0600 (Central Standard Time),311250.69999999553,098_y_f_n_a.png,O,m,1174,5,1,2193.89999999851,309056.799999997,7080,NNB,C,4
5,test,5,0.0,1-Back,1,m,Thu Mar 06 2025 17:52:17 GMT-0600 (Central Standard Time),313033.299999997,092_m_m_n_a.png,O,m,751,6,1,1773.6999999955297,311259.6000000015,7080,NNB,C,5
6,test,5,1.0,1-Back,1,z,Thu Mar 06 2025 17:52:17 GMT-0600 (Central Standard Time),314714.3999999985,092_m_m_n_a.png,O,z,664,7,1,1673.0,313041.3999999985,7080,NNB,C,6
7,test,5,0.0,1-Back,1,m,Thu Mar 06 2025 17:52:17 GMT-0600 (Central Standard Time),316481.8999999985,028_y_f_n_a.png,O,m,742,8,1,1762.7000000029802,314719.19999999553,7080,NNB,C,7
8,test,5,0.0,1-Back,1,m,Thu Mar 06 2025 17:52:17 GMT-0600 (Central Standard Time),318199.69999999553,031_y_m_n_a.png,O,m,688,9,1,1710.6999999955297,316489.0,7080,NNB,C,8
9,test,5,0.0,1-Back,1,m,Thu Mar 06 2025 17:52:17 GMT-0600 (Central Standard Time),319881.0,028_y_f_n_a.png,O,m,659,10,1,1672.1000000014901,318208.8999999985,7080,NNB,C,9
10,test,5,0.0,1-Back,1,m,Thu Mar 06 2025 17:52:17 GMT-0600 (Central Standard Time),321530.69999999553,130_o_f_n_a.png,O,m,631,11,1,1641.2999999970198,319889.3999999985,7080,NNB,C,10
11,test,5,1.0,1-Back,1,z,Thu Mar 06 2025 17:52:17 GMT-0600 (Central Standard Time),323162.299999997,130_o_f_n_a.png,O,z,606,12,1,1623.1999999955297,321539.1000000015,7080,NNB,C,11
12,test,5,0.0,1-Back,1,m,Thu Mar 06 2025 17:52:17 GMT-0600 (Central Standard Time),324812.69999999553,146_o_m_n_a.png,O,m,629,13,1,1642.5,323170.19999999553,7080,NNB,C,12
13,test,5,0.0,1-Back,1,m,Thu Mar 06 2025 17:52:17 GMT-0600 (Central Standard Time),326660.19999999553,093_m_f_n_a.png,O,m,827,14,1,1839.2999999970198,324820.8999999985,7080,NNB,C,13
14,test,5,1.0,1-Back,1,z,Thu Mar 06 2025 17:52:17 GMT-0600 (Central Standard Time),328676.799999997,093_m_f_n_a.png,O,z,987,15,1,2008.3999999985099,326668.3999999985,7080,NNB,C,14
15,test,5,0.0,1-Back,1,m,Thu Mar 06 2025 17:52:17 GMT-0600 (Central Standard Time),330308.8999999985,146_o_m_n_a.png,O,m,611,16,1,1625.7000000029802,328683.19999999553,7080,NNB,C,15
16,test,5,0.0,1-Back,1,m,Thu Mar 06 2025 17:52:17 GMT-0600 (Central Standard Time),331892.5,006_m_f_n_a.png,O,m,560,17,1,1576.7000000029802,330315.799999997,7080,NNB,C,16
17,test,5,0.0,1-Back,1,m,Thu Mar 06 2025 17:52:17 GMT-0600 (Central Standard Time),333642.69999999553,082_m_m_n_a.png,O,m,723,18,1,1742.2999999970198,331900.3999999985,7080,NNB,C,17
0,prac,1,0.0,2-Back,,,Thu Mar 06 2025 17:52:17 GMT-0600 (Central Standard Time),333642.69999999553,031_y_m_n_a.png,O,space,8404,1,1,1742.2999999970198,331900.3999999985,7080,NNB,C,0
0,prac,1,0.0,2-Back,,,Thu Mar 06 2025 17:52:17 GMT-0600 (Central Standard Time),333642.69999999553,006_m_f_n_a.png,O,space,8404,2,1,1742.2999999970198,331900.3999999985,7080,NNB,C,0
1,prac,1,1.0,2-Back,1,m,Thu Mar 06 2025 17:52:17 GMT-0600 (Central Standard Time),470768.299999997,146_o_m_n_a.png,O,m,1141,3,1,2010.6000000014901,468757.69999999553,7080,NNB,C,1
2,prac,1,0.0,2-Back,1,m,Thu Mar 06 2025 17:52:17 GMT-0600 (Central Standard Time),473299.19999999553,130_o_f_n_a.png,O,m,1645,4,1,2520.39999999851,470778.799999997,7080,NNB,C,2
3,prac,1,0.0,2-Back,1,z,Thu Mar 06 2025 17:52:17 GMT-0600 (Central Standard Time),475264.5,146_o_m_n_a.png,O,z,1205,5,1,1957.8999999985099,473306.6000000015,7080,NNB,C,3
4,prac,1,1.0,2-Back,1,z,Thu Mar 06 2025 17:52:17 GMT-0600 (Central Standard Time),477414.0,130_o_f_n_a.png,O,z,1383,6,1,2140.8000000044703,475273.19999999553,7080,NNB,C,4
5,prac,1,0.0,2-Back,1,m,Thu Mar 06 2025 17:52:17 GMT-0600 (Central Standard Time),479214.0,082_m_m_n_a.png,O,m,946,7,1,1792.2000000029802,477421.799999997,7080,NNB,C,5
6,prac,1,0.0,2-Back,1,m,Thu Mar 06 2025 17:52:17 GMT-0600 (Central Standard Time),481346.6000000015,059_o_m_n_a.png,O,m,1244,8,1,2124.0,479222.6000000015,7080,NNB,C,6
7,prac,1,0.0,2-Back,1,m,Thu Mar 06 2025 17:52:17 GMT-0600 (Central Standard Time),483494.69999999553,028_y_f_n_a.png,O,m,1279,9,1,2137.89999999851,481356.799999997,7080,NNB,C,7
8,prac,1,1.0,2-Back,1,z,Thu Mar 06 2025 17:52:17 GMT-0600 (Central Standard Time),485163.799999997,059_o_m_n_a.png,O,z,899,10,1,1662.5,483501.299999997,7080,NNB,C,8
9,prac,1,0.0,2-Back,1,m,Thu Mar 06 2025 17:52:17 GMT-0600 (Central Standard Time),486994.5,098_y_f_n_a.png,O,m,961,11,1,1822.3000000044703,485172.19999999553,7080,NNB,C,9
10,prac,1,0.0,2-Back,1,m,Thu Mar 06 2025 17:52:17 GMT-0600 (Central Standard Time),488959.69999999553,082_m_m_n_a.png,O,m,1192,12,1,1957.5999999940395,487002.1000000015,7080,NNB,C,10
0,test,1,0.0,2-Back,,,Thu Mar 06 2025 17:52:17 GMT-0600 (Central Standard Time),488959.69999999553,057_y_m_n_a.png,O,space,13138,1,1,1957.5999999940395,487002.1000000015,7080,NNB,C,0
0,test,1,0.0,2-Back,,,Thu Mar 06 2025 17:52:17 GMT-0600 (Central Standard Time),488959.69999999553,057_y_m_n_a.png,O,space,13138,2,1,1957.5999999940395,487002.1000000015,7080,NNB,C,0
1,test,1,0.0,2-Back,1,m,Thu Mar 06 2025 17:52:17 GMT-0600 (Central Standard Time),517100.799999997,130_o_f_n_a.png,O,m,805,3,1,1824.3999999985099,515276.3999999985,7080,NNB,C,1
2,test,1,0.0,2-Back,1,m,Thu Mar 06 2025 17:52:17 GMT-0600 (Central Standard Time),518833.5,092_m_m_n_a.png,O,m,708,4,1,1727.0,517106.5,7080,NNB,C,2
3,test,1,1.0,2-Back,1,z,Thu Mar 06 2025 17:52:17 GMT-0600 (Central Standard Time),520650.8999999985,130_o_f_n_a.png,O,z,791,5,1,1810.2999999970198,518840.6000000015,7080,NNB,C,3
4,test,1,0.0,2-Back,1,m,Thu Mar 06 2025 17:52:17 GMT-0600 (Central Standard Time),522415.19999999553,098_y_f_n_a.png,O,m,734,6,1,1757.8999999985099,520657.299999997,7080,NNB,C,4
5,test,1,0.0,2-Back,1,m,Thu Mar 06 2025 17:52:17 GMT-0600 (Central Standard Time),524082.19999999553,092_m_m_n_a.png,O,m,640,7,1,1660.0999999940395,522422.1000000015,7080,NNB,C,5
6,test,1,1.0,2-Back,1,z,Thu Mar 06 2025 17:52:17 GMT-0600 (Central Standard Time),525998.5,098_y_f_n_a.png,O,z,885,8,1,1910.0,524088.5,7080,NNB,C,6
7,test,1,0.0,2-Back,1,m,Thu Mar 06 2025 17:52:17 GMT-0600 (Central Standard Time),527830.5,031_y_m_n_a.png,O,m,803,9,1,1825.1000000014901,526005.3999999985,7080,NNB,C,7
8,test,1,0.0,2-Back,1,m,Thu Mar 06 2025 17:52:17 GMT-0600 (Central Standard Time),529663.1000000015,030_o_f_n_a.png,O,m,808,10,1,1825.6000000014901,527837.5,7080,NNB,C,8
9,test,1,1.0,2-Back,1,z,Thu Mar 06 2025 17:52:17 GMT-0600 (Central Standard Time),531878.299999997,031_y_m_n_a.png,O,z,1183,11,1,2208.0,529670.299999997,7080,NNB,C,9
10,test,1,0.0,2-Back,1,m,Thu Mar 06 2025 17:52:17 GMT-0600 (Central Standard Time),533844.6999999955,006_m_f_n_a.png,O,m,936,12,1,1959.2999999970198,531885.3999999985,7080,NNB,C,10
11,test,1,0.0,2-Back,1,m,Thu Mar 06 2025 17:52:17 GMT-0600 (Central Standard Time),535728.6999999955,006_m_f_n_a.png,O,m,850,13,1,1876.5999999940395,533852.1000000015,7080,NNB,C,11
12,test,1,0.0,2-Back,1,m,Thu Mar 06 2025 17:52:17 GMT-0600 (Central Standard Time),538360.799999997,146_o_m_n_a.png,O,m,1600,14,1,2625.10000000149,535735.6999999955,7080,NNB,C,12
13,test,1,0.0,2-Back,1,m,Thu Mar 06 2025 17:52:17 GMT-0600 (Central Standard Time),540360.299999997,030_o_f_n_a.png,O,m,967,15,1,1992.1000000014901,538368.1999999955,7080,NNB,C,13
14,test,1,1.0,2-Back,1,z,Thu Mar 06 2025 17:52:17 GMT-0600 (Central Standard Time),542792.6999999955,146_o_m_n_a.png,O,z,1408,16,1,2424.6999999955297,540368.0,7080,NNB,C,14
15,test,1,0.0,2-Back,1,m,Thu Mar 06 2025 17:52:17 GMT-0600 (Central Standard Time),545357.6000000015,093_m_f_n_a.png,O,m,1544,17,1,2558.7000000029802,542798.8999999985,7080,NNB,C,15
15,test,1,0.0,2-Back,0,m,Thu Mar 06 2025 17:52:17 GMT-0600 (Central Standard Time),547841.1999999955,082_m_m_n_a.png,O,z,1464,18,1,2476.2999999970198,545364.8999999985,7080,NNB,C,16
0,test,2,0.0,2-Back,,,Thu Mar 06 2025 17:52:17 GMT-0600 (Central Standard Time),547841.1999999955,082_m_m_n_a.png,O,space,1671,1,1,2476.2999999970198,545364.8999999985,7080,NNB,C,0
0,test,2,0.0,2-Back,,,Thu Mar 06 2025 17:52:17 GMT-0600 (Central Standard Time),547841.1999999955,028_y_f_n_a.png,O,space,1671,2,1,2476.2999999970198,545364.8999999985,7080,NNB,C,0
1,test,2,1.0,2-Back,1,z,Thu Mar 06 2025 17:52:17 GMT-0600 (Central Standard Time),557018.8999999985,082_m_m_n_a.png,O,z,1353,3,1,2371.7999999970198,554647.1000000015,7080,NNB,C,1
2,test,2,0.0,2-Back,1,m,Thu Mar 06 2025 17:52:17 GMT-0600 (Central Standard Time),559202.6999999955,093_m_f_n_a.png,O,m,1164,4,1,2177.6999999955297,557025.0,7080,NNB,C,2
3,test,2,0.0,2-Back,1,m,Thu Mar 06 2025 17:52:17 GMT-0600 (Central Standard Time),562052.0,028_y_f_n_a.png,O,m,1819,5,1,2841.8000000044703,559210.1999999955,7080,NNB,C,3
3,test,2,0.0,2-Back,0,m,Thu Mar 06 2025 17:52:17 GMT-0600 (Central Standard Time),564301.799999997,146_o_m_n_a.png,O,z,1226,6,1,2244.10000000149,562057.6999999955,7080,NNB,C,4
4,test,2,0.0,2-Back,1,m,Thu Mar 06 2025 17:52:17 GMT-0600 (Central Standard Time),566386.799999997,098_y_f_n_a.png,O,m,1057,7,1,2078.6999999955297,564308.1000000015,7080,NNB,C,5
5,test,2,1.0,2-Back,1,z,Thu Mar 06 2025 17:52:17 GMT-0600 (Central Standard Time),568234.8999999985,146_o_m_n_a.png,O,z,821,8,1,1841.0,566393.8999999985,7080,NNB,C,6
6,test,2,0.0,2-Back,1,m,Thu Mar 06 2025 17:52:17 GMT-0600 (Central Standard Time),570366.8999999985,031_y_m_n_a.png,O,m,1111,9,1,2126.39999999851,568240.5,7080,NNB,C,7
7,test,2,0.0,2-Back,1,m,Thu Mar 06 2025 17:52:17 GMT-0600 (Central Standard Time),572715.799999997,031_y_m_n_a.png,O,m,1315,10,1,2343.0,570372.799999997,7080,NNB,C,8
8,test,2,0.0,2-Back,1,m,Thu Mar 06 2025 17:52:17 GMT-0600 (Central Standard Time),574883.3999999985,006_m_f_n_a.png,O,m,1139,11,1,2160.7999999970198,572722.6000000015,7080,NNB,C,9
9,test,2,0.0,2-Back,1,m,Thu Mar 06 2025 17:52:17 GMT-0600 (Central Standard Time),577016.299999997,028_y_f_n_a.png,O,m,1110,12,1,2125.89999999851,574890.3999999985,7080,NNB,C,10
9,test,2,1.0,2-Back,0,z,Thu Mar 06 2025 17:52:17 GMT-0600 (Central Standard Time),579214.799999997,006_m_f_n_a.png,O,m,1170,13,1,2192.5,577022.299999997,7080,NNB,C,11
10,test,2,0.0,2-Back,1,m,Thu Mar 06 2025 17:52:17 GMT-0600 (Central Standard Time),581264.6999999955,059_o_m_n_a.png,O,m,1026,14,1,2043.1999999955297,579221.5,7080,NNB,C,12
11,test,2,0.0,2-Back,1,m,Thu Mar 06 2025 17:52:17 GMT-0600 (Central Standard Time),583229.299999997,059_o_m_n_a.png,O,m,935,15,1,1956.5,581272.799999997,7080,NNB,C,13
12,test,2,0.0,2-Back,1,m,Thu Mar 06 2025 17:52:17 GMT-0600 (Central Standard Time),585263.1999999955,030_o_f_n_a.png,O,m,1000,16,1,2027.8999999985099,583235.299999997,7080,NNB,C,14
13,test,2,0.0,2-Back,1,m,Thu Mar 06 2025 17:52:17 GMT-0600 (Central Standard Time),587494.299999997,092_m_m_n_a.png,O,m,1201,17,1,2225.2999999970198,585269.0,7080,NNB,C,15
14,test,2,1.0,2-Back,1,z,Thu Mar 06 2025 17:52:17 GMT-0600 (Central Standard Time),589461.0,030_o_f_n_a.png,O,z,933,18,1,1958.5,587502.5,7080,NNB,C,16
0,test,3,1.0,2-Back,,,Thu Mar 06 2025 17:52:17 GMT-0600 (Central Standard Time),589461.0,057_y_m_n_a.png,O,space,1467,1,1,1958.5,587502.5,7080,NNB,C,0
0,test,3,1.0,2-Back,,,Thu Mar 06 2025 17:52:17 GMT-0600 (Central Standard Time),589461.0,057_y_m_n_a.png,O,space,1467,2,1,1958.5,587502.5,7080,NNB,C,0
1,test,3,0.0,2-Back,1,m,Thu Mar 06 2025 17:52:17 GMT-0600 (Central Standard Time),598374.3999999985,030_o_f_n_a.png,O,m,1252,3,1,2276.10000000149,596098.299999997,7080,NNB,C,1
2,test,3,0.0,2-Back,1,m,Thu Mar 06 2025 17:52:17 GMT-0600 (Central Standard Time),600640.1999999955,082_m_m_n_a.png,O,m,1242,4,1,2257.39999999851,598382.799999997,7080,NNB,C,2
3,test,3,1.0,2-Back,1,z,Thu Mar 06 2025 17:52:17 GMT-0600 (Central Standard Time),602906.1999999955,030_o_f_n_a.png,O,z,1238,5,1,2259.0999999940395,600647.1000000015,7080,NNB,C,3
4,test,3,0.0,2-Back,1,m,Thu Mar 06 2025 17:52:17 GMT-0600 (Central Standard Time),605140.1000000015,031_y_m_n_a.png,O,m,1216,6,1,2227.7000000029802,602912.3999999985,7080,NNB,C,4
4,test,3,0.0,2-Back,0,m,Thu Mar 06 2025 17:52:17 GMT-0600 (Central Standard Time),608005.0,082_m_m_n_a.png,O,z,1847,7,1,2857.8000000044703,605147.1999999955,7080,NNB,C,5
4,test,3,1.0,2-Back,0,z,Thu Mar 06 2025 17:52:17 GMT-0600 (Central Standard Time),609854.1999999955,031_y_m_n_a.png,O,m,818,8,1,1843.0999999940395,608011.1000000015,7080,NNB,C,6
5,test,3,0.0,2-Back,1,m,Thu Mar 06 2025 17:52:17 GMT-0600 (Central Standard Time),612035.6000000015,028_y_f_n_a.png,O,m,1162,9,1,2175.10000000149,609860.5,7080,NNB,C,7
6,test,3,0.0,2-Back,1,m,Thu Mar 06 2025 17:52:17 GMT-0600 (Central Standard Time),613805.1000000015,092_m_m_n_a.png,O,m,750,10,1,1764.9000000059605,612040.1999999955,7080,NNB,C,8
7,test,3,1.0,2-Back,1,z,Thu Mar 06 2025 17:52:17 GMT-0600 (Central Standard Time),615751.0,028_y_f_n_a.png,O,z,915,11,1,1939.3000000044703,613811.6999999955,7080,NNB,C,9
8,test,3,1.0,2-Back,1,z,Thu Mar 06 2025 17:52:17 GMT-0600 (Central Standard Time),617917.799999997,092_m_m_n_a.png,O,z,1135,12,1,2160.6999999955297,615757.1000000015,7080,NNB,C,10
9,test,3,0.0,2-Back,1,m,Thu Mar 06 2025 17:52:17 GMT-0600 (Central Standard Time),619933.6000000015,030_o_f_n_a.png,O,m,994,13,1,2009.1000000014901,617924.5,7080,NNB,C,11
10,test,3,0.0,2-Back,1,m,Thu Mar 06 2025 17:52:17 GMT-0600 (Central Standard Time),621749.299999997,093_m_f_n_a.png,O,m,793,14,1,1809.6000000014901,619939.6999999955,7080,NNB,C,12
11,test,3,0.0,2-Back,1,m,Thu Mar 06 2025 17:52:17 GMT-0600 (Central Standard Time),623683.6000000015,146_o_m_n_a.png,O,m,911,15,1,1929.7000000029802,621753.8999999985,7080,NNB,C,13
12,test,3,1.0,2-Back,1,z,Thu Mar 06 2025 17:52:17 GMT-0600 (Central Standard Time),625881.8999999985,093_m_f_n_a.png,O,z,1166,16,1,2190.7000000029802,623691.1999999955,7080,NNB,C,14
13,test,3,0.0,2-Back,1,m,Thu Mar 06 2025 17:52:17 GMT-0600 (Central Standard Time),627781.799999997,130_o_f_n_a.png,O,m,867,17,1,1893.6999999955297,625888.1000000015,7080,NNB,C,15
14,test,3,0.0,2-Back,1,m,Thu Mar 06 2025 17:52:17 GMT-0600 (Central Standard Time),629714.8999999985,130_o_f_n_a.png,O,m,904,18,1,1926.8999999985099,627788.0,7080,NNB,C,16
0,test,4,0.0,2-Back,,,Thu Mar 06 2025 17:52:17 GMT-0600 (Central Standard Time),629714.8999999985,059_o_m_n_a.png,O,space,1447,1,1,1926.8999999985099,627788.0,7080,NNB,C,0
0,test,4,0.0,2-Back,,,Thu Mar 06 2025 17:52:17 GMT-0600 (Central Standard Time),629714.8999999985,098_y_f_n_a.png,O,space,1447,2,1,1926.8999999985099,627788.0,7080,NNB,C,0
1,test,4,1.0,2-Back,1,z,Thu Mar 06 2025 17:52:17 GMT-0600 (Central Standard Time),638245.5,059_o_m_n_a.png,O,z,828,3,1,1844.0,636401.5,7080,NNB,C,1
2,test,4,1.0,2-Back,1,z,Thu Mar 06 2025 17:52:17 GMT-0600 (Central Standard Time),640128.3999999985,098_y_f_n_a.png,O,z,849,4,1,1876.2000000029802,638252.1999999955,7080,NNB,C,2
3,test,4,0.0,2-Back,1,m,Thu Mar 06 2025 17:52:17 GMT-0600 (Central Standard Time),641844.0,030_o_f_n_a.png,O,m,687,5,1,1708.5,640135.5,7080,NNB,C,3
3,test,4,0.0,2-Back,0,m,Thu Mar 06 2025 17:52:17 GMT-0600 (Central Standard Time),644309.5,030_o_f_n_a.png,O,z,1443,6,1,2459.39999999851,641850.1000000015,7080,NNB,C,4
4,test,4,0.0,2-Back,1,m,Thu Mar 06 2025 17:52:17 GMT-0600 (Central Standard Time),646226.6000000015,006_m_f_n_a.png,O,m,898,7,1,1911.0,644315.6000000015,7080,NNB,C,5
5,test,4,0.0,2-Back,1,m,Thu Mar 06 2025 17:52:17 GMT-0600 (Central Standard Time),648025.799999997,031_y_m_n_a.png,O,m,782,8,1,1792.1999999955297,646233.6000000015,7080,NNB,C,6
6,test,4,1.0,2-Back,1,z,Thu Mar 06 2025 17:52:17 GMT-0600 (Central Standard Time),649892.0,006_m_f_n_a.png,O,z,837,9,1,1858.8000000044703,648033.1999999955,7080,NNB,C,7
7,test,4,0.0,2-Back,1,m,Thu Mar 06 2025 17:52:17 GMT-0600 (Central Standard Time),651740.6000000015,092_m_m_n_a.png,O,m,815,10,1,1843.0,649897.6000000015,7080,NNB,C,8
7,test,4,0.0,2-Back,0,m,Thu Mar 06 2025 17:52:17 GMT-0600 (Central Standard Time),653940.5,031_y_m_n_a.png,O,z,1171,11,1,2192.7000000029802,651747.799999997,7080,NNB,C,9
8,test,4,0.0,2-Back,1,m,Thu Mar 06 2025 17:52:17 GMT-0600 (Central Standard Time),656122.6000000015,130_o_f_n_a.png,O,m,1155,12,1,2175.3000000044703,653947.299999997,7080,NNB,C,10
9,test,4,0.0,2-Back,1,m,Thu Mar 06 2025 17:52:17 GMT-0600 (Central Standard Time),658220.3999999985,057_y_m_n_a.png,O,m,1077,13,1,2091.10000000149,656129.299999997,7080,NNB,C,11
10,test,4,1.0,2-Back,1,z,Thu Mar 06 2025 17:52:17 GMT-0600 (Central Standard Time),660155.8999999985,130_o_f_n_a.png,O,z,907,14,1,1928.8999999985099,658227.0,7080,NNB,C,12
11,test,4,1.0,2-Back,1,z,Thu Mar 06 2025 17:52:17 GMT-0600 (Central Standard Time),662270.6000000015,057_y_m_n_a.png,O,z,1084,15,1,2108.2000000029802,660162.3999999985,7080,NNB,C,13
12,test,4,0.0,2-Back,1,m,Thu Mar 06 2025 17:52:17 GMT-0600 (Central Standard Time),664087.1999999955,082_m_m_n_a.png,O,m,781,16,1,1809.5,662277.6999999955,7080,NNB,C,14
13,test,4,0.0,2-Back,1,m,Thu Mar 06 2025 17:52:17 GMT-0600 (Central Standard Time),666086.0,093_m_f_n_a.png,O,m,967,17,1,1991.7000000029802,664094.299999997,7080,NNB,C,15
14,test,4,1.0,2-Back,1,z,Thu Mar 06 2025 17:52:17 GMT-0600 (Central Standard Time),668020.3999999985,082_m_m_n_a.png,O,z,916,18,1,1927.6000000014901,666092.799999997,7080,NNB,C,16
0,test,5,1.0,2-Back,,,Thu Mar 06 2025 17:52:17 GMT-0600 (Central Standard Time),668020.3999999985,057_y_m_n_a.png,O,space,1415,1,1,1927.6000000014901,666092.799999997,7080,NNB,C,0
0,test,5,1.0,2-Back,,,Thu Mar 06 2025 17:52:17 GMT-0600 (Central Standard Time),668020.3999999985,093_m_f_n_a.png,O,space,1415,2,1,1927.6000000014901,666092.799999997,7080,NNB,C,0
1,test,5,1.0,2-Back,1,z,Thu Mar 06 2025 17:52:17 GMT-0600 (Central Standard Time),676283.6999999955,057_y_m_n_a.png,O,z,780,3,1,1788.5999999940395,674495.1000000015,7080,NNB,C,1
2,test,5,1.0,2-Back,1,z,Thu Mar 06 2025 17:52:17 GMT-0600 (Central Standard Time),678132.3999999985,093_m_f_n_a.png,O,z,820,4,1,1841.2999999970198,676291.1000000015,7080,NNB,C,2
3,test,5,0.0,2-Back,1,m,Thu Mar 06 2025 17:52:17 GMT-0600 (Central Standard Time),680016.3999999985,130_o_f_n_a.png,O,m,851,5,1,1877.3999999985099,678139.0,7080,NNB,C,3
4,test,5,0.0,2-Back,1,m,Thu Mar 06 2025 17:52:17 GMT-0600 (Central Standard Time),682665.1999999955,057_y_m_n_a.png,O,m,1624,6,1,2641.7999999970198,680023.3999999985,7080,NNB,C,4
5,test,5,0.0,2-Back,1,m,Thu Mar 06 2025 17:52:17 GMT-0600 (Central Standard Time),685115.6000000015,028_y_f_n_a.png,O,m,1423,7,1,2446.2000000029802,682669.3999999985,7080,NNB,C,5
6,test,5,0.0,2-Back,1,m,Thu Mar 06 2025 17:52:17 GMT-0600 (Central Standard Time),687664.0,130_o_f_n_a.png,O,m,1525,8,1,2541.8000000044703,685122.1999999955,7080,NNB,C,6
7,test,5,1.0,2-Back,1,z,Thu Mar 06 2025 17:52:17 GMT-0600 (Central Standard Time),689912.8999999985,028_y_f_n_a.png,O,z,1216,9,1,2241.60000000149,687671.299999997,7080,NNB,C,7
8,test,5,0.0,2-Back,1,m,Thu Mar 06 2025 17:52:17 GMT-0600 (Central Standard Time),691828.0,146_o_m_n_a.png,O,m,896,10,1,1908.5,689919.5,7080,NNB,C,8
9,test,5,0.0,2-Back,1,m,Thu Mar 06 2025 17:52:17 GMT-0600 (Central Standard Time),693843.5,006_m_f_n_a.png,O,m,997,11,1,2008.6000000014901,691834.8999999985,7080,NNB,C,9
10,test,5,0.0,2-Back,1,m,Thu Mar 06 2025 17:52:17 GMT-0600 (Central Standard Time),695909.6999999955,092_m_m_n_a.png,O,m,1043,12,1,2059.5999999940395,693850.1000000015,7080,NNB,C,10
10,test,5,0.0,2-Back,0,m,Thu Mar 06 2025 17:52:17 GMT-0600 (Central Standard Time),698510.1000000015,146_o_m_n_a.png,O,z,1570,13,1,2592.9000000059605,695917.1999999955,7080,NNB,C,11
10,test,5,1.0,2-Back,0,z,Thu Mar 06 2025 17:52:17 GMT-0600 (Central Standard Time),700541.3999999985,092_m_m_n_a.png,O,m,1002,14,1,2023.3999999985099,698518.0,7080,NNB,C,12
11,test,5,0.0,2-Back,1,m,Thu Mar 06 2025 17:52:17 GMT-0600 (Central Standard Time),702260.0,098_y_f_n_a.png,O,m,700,15,1,1711.3000000044703,700548.6999999955,7080,NNB,C,13
12,test,5,0.0,2-Back,1,m,Thu Mar 06 2025 17:52:17 GMT-0600 (Central Standard Time),704141.1999999955,059_o_m_n_a.png,O,m,854,16,1,1873.7999999970198,702267.3999999985,7080,NNB,C,14
13,test,5,0.0,2-Back,1,m,Thu Mar 06 2025 17:52:17 GMT-0600 (Central Standard Time),706422.8999999985,006_m_f_n_a.png,O,m,1258,17,1,2275.0,704147.8999999985,7080,NNB,C,15
14,test,5,1.0,2-Back,1,z,Thu Mar 06 2025 17:52:17 GMT-0600 (Central Standard Time),708739.3999999985,059_o_m_n_a.png,O,z,1297,18,1,2308.5,706430.8999999985,7080,NNB,C,16
