acc_sum,block,block_c,change,condition,correct,correct_response,datetime,endtime,face,project,response,response_time,row_sel,session_number,start_end,starttime,subject_id,task,task_vers,trial
0,prac,1,,1-Back,,,Fri May 02 2025 13:20:47 GMT-0500 (Central Daylight Time),,093_m_f_n_a.png,I,space,3988,1,2,,,8014,NNB,C,0
1,prac,1,0.0,1-Back,1,m,Fri May 02 2025 13:20:47 GMT-0500 (Central Daylight Time),106932.20000001788,098_y_f_n_a.png,I,m,1470,2,2,2336.7000000178814,104595.5,8014,NNB,C,1
2,prac,1,1.0,1-Back,1,z,Fri May 02 2025 13:20:47 GMT-0500 (Central Daylight Time),108598.20000001788,098_y_f_n_a.png,I,z,877,3,2,1654.4000000059605,106943.80000001192,8014,NNB,C,2
3,prac,1,0.0,1-Back,1,m,Fri May 02 2025 13:20:47 GMT-0500 (Central Daylight Time),110664.20000001788,059_o_m_n_a.png,I,m,1183,4,2,2054.0,108610.20000001788,8014,NNB,C,3
4,prac,1,0.0,1-Back,1,m,Fri May 02 2025 13:20:47 GMT-0500 (Central Daylight Time),112613.60000002384,092_m_m_n_a.png,I,m,1063,5,2,1936.6000000238419,110677.0,8014,NNB,C,4
5,prac,1,1.0,1-Back,1,z,Fri May 02 2025 13:20:47 GMT-0500 (Central Daylight Time),114196.40000000596,092_m_m_n_a.png,I,z,802,6,2,1571.0,112625.40000000596,8014,NNB,C,5
6,prac,1,0.0,1-Back,1,m,Fri May 02 2025 13:20:47 GMT-0500 (Central Daylight Time),116045.90000000596,130_o_f_n_a.png,I,m,941,7,2,1837.199999988079,114208.70000001788,8014,NNB,C,6
7,prac,1,0.0,1-Back,1,m,Fri May 02 2025 13:20:47 GMT-0500 (Central Daylight Time),118011.80000001192,082_m_m_n_a.png,I,m,1089,8,2,1953.699999988079,116058.10000002384,8014,NNB,C,7
8,prac,1,0.0,1-Back,1,m,Fri May 02 2025 13:20:47 GMT-0500 (Central Daylight Time),119711.70000001788,093_m_f_n_a.png,I,m,908,9,2,1687.9000000059605,118023.80000001192,8014,NNB,C,8
9,prac,1,1.0,1-Back,1,z,Fri May 02 2025 13:20:47 GMT-0500 (Central Daylight Time),121261.10000002384,093_m_f_n_a.png,I,z,769,10,2,1537.7000000178814,119723.40000000596,8014,NNB,C,9
10,prac,1,0.0,1-Back,1,m,Fri May 02 2025 13:20:47 GMT-0500 (Central Daylight Time),122943.60000002384,059_o_m_n_a.png,I,m,889,11,2,1668.5,121275.10000002384,8014,NNB,C,10
11,prac,1,0.0,1-Back,1,m,Fri May 02 2025 13:20:47 GMT-0500 (Central Daylight Time),124793.10000002384,028_y_f_n_a.png,I,m,967,12,2,1836.2000000178814,122956.90000000596,8014,NNB,C,11
0,test,1,0.0,1-Back,,,Fri May 02 2025 13:20:47 GMT-0500 (Central Daylight Time),124793.10000002384,098_y_f_n_a.png,I,space,7150,1,2,1836.2000000178814,122956.90000000596,8014,NNB,C,0
1,test,1,0.0,1-Back,1,m,Fri May 02 2025 13:20:47 GMT-0500 (Central Daylight Time),149635.20000001788,006_m_f_n_a.png,I,m,935,2,2,1954.7000000178814,147680.5,8014,NNB,C,1
2,test,1,0.0,1-Back,1,m,Fri May 02 2025 13:20:47 GMT-0500 (Central Daylight Time),151501.40000000596,028_y_f_n_a.png,I,m,726,3,2,1855.199999988079,149646.20000001788,8014,NNB,C,2
3,test,1,1.0,1-Back,1,z,Fri May 02 2025 13:20:47 GMT-0500 (Central Daylight Time),153117.5,028_y_f_n_a.png,I,z,591,4,2,1606.7999999821186,151510.70000001788,8014,NNB,C,3
4,test,1,0.0,1-Back,1,m,Fri May 02 2025 13:20:47 GMT-0500 (Central Daylight Time),155100.40000000596,006_m_f_n_a.png,I,m,959,5,2,1973.7999999821186,153126.60000002384,8014,NNB,C,4
5,test,1,0.0,1-Back,1,m,Fri May 02 2025 13:20:47 GMT-0500 (Central Daylight Time),156932.90000000596,059_o_m_n_a.png,I,m,808,6,2,1822.7999999821186,155110.10000002384,8014,NNB,C,5
6,test,1,1.0,1-Back,1,z,Fri May 02 2025 13:20:47 GMT-0500 (Central Daylight Time),158649.20000001788,059_o_m_n_a.png,I,z,695,7,2,1706.4000000059605,156942.80000001192,8014,NNB,C,6
7,test,1,0.0,1-Back,1,m,Fri May 02 2025 13:20:47 GMT-0500 (Central Daylight Time),160548.80000001192,092_m_m_n_a.png,I,m,882,8,2,1890.5,158658.30000001192,8014,NNB,C,7
8,test,1,0.0,1-Back,1,m,Fri May 02 2025 13:20:47 GMT-0500 (Central Daylight Time),162281.30000001192,130_o_f_n_a.png,I,m,702,9,2,1722.300000011921,160559.0,8014,NNB,C,8
9,test,1,0.0,1-Back,1,m,Fri May 02 2025 13:20:47 GMT-0500 (Central Daylight Time),164530.60000002384,092_m_m_n_a.png,I,m,1219,10,2,2238.600000023842,162292.0,8014,NNB,C,9
10,test,1,0.0,1-Back,1,m,Fri May 02 2025 13:20:47 GMT-0500 (Central Daylight Time),166246.80000001192,057_y_m_n_a.png,I,m,698,11,2,1705.300000011921,164541.5,8014,NNB,C,10
11,test,1,1.0,1-Back,1,z,Fri May 02 2025 13:20:47 GMT-0500 (Central Daylight Time),167979.30000001192,057_y_m_n_a.png,I,z,700,12,2,1722.300000011921,166257.0,8014,NNB,C,11
12,test,1,0.0,1-Back,1,m,Fri May 02 2025 13:20:47 GMT-0500 (Central Daylight Time),169762.5,030_o_f_n_a.png,I,m,753,13,2,1770.0,167992.5,8014,NNB,C,12
13,test,1,1.0,1-Back,1,z,Fri May 02 2025 13:20:47 GMT-0500 (Central Daylight Time),171528.5,030_o_f_n_a.png,I,z,745,14,2,1755.5,169773.0,8014,NNB,C,13
14,test,1,0.0,1-Back,1,m,Fri May 02 2025 13:20:47 GMT-0500 (Central Daylight Time),173394.5,031_y_m_n_a.png,I,m,843,15,2,1857.0,171537.5,8014,NNB,C,14
15,test,1,0.0,1-Back,1,m,Fri May 02 2025 13:20:47 GMT-0500 (Central Daylight Time),175343.90000000596,093_m_f_n_a.png,I,m,922,16,2,1938.7999999821186,173405.10000002384,8014,NNB,C,15
16,test,1,0.0,1-Back,1,m,Fri May 02 2025 13:20:47 GMT-0500 (Central Daylight Time),177293.10000002384,146_o_m_n_a.png,I,m,931,17,2,1938.5,175354.60000002384,8014,NNB,C,16
17,test,1,0.0,1-Back,1,m,Fri May 02 2025 13:20:47 GMT-0500 (Central Daylight Time),179342.70000001788,093_m_f_n_a.png,I,m,1022,18,2,2039.2000000178814,177303.5,8014,NNB,C,17
0,test,2,0.0,1-Back,,,Fri May 02 2025 13:20:47 GMT-0500 (Central Daylight Time),179342.70000001788,092_m_m_n_a.png,I,space,2589,1,2,2039.2000000178814,177303.5,8014,NNB,C,0
1,test,2,0.0,1-Back,1,m,Fri May 02 2025 13:20:47 GMT-0500 (Central Daylight Time),185540.90000000596,006_m_f_n_a.png,I,m,558,2,2,1571.2999999821186,183969.60000002384,8014,NNB,C,1
2,test,2,1.0,1-Back,1,z,Fri May 02 2025 13:20:47 GMT-0500 (Central Daylight Time),187290.10000002384,006_m_f_n_a.png,I,z,727,3,2,1736.1000000238419,185554.0,8014,NNB,C,2
3,test,2,0.0,1-Back,1,m,Fri May 02 2025 13:20:47 GMT-0500 (Central Daylight Time),189006.30000001192,092_m_m_n_a.png,I,m,698,4,2,1704.5,187301.80000001192,8014,NNB,C,3
4,test,2,0.0,1-Back,1,m,Fri May 02 2025 13:20:47 GMT-0500 (Central Daylight Time),190689.20000001788,057_y_m_n_a.png,I,m,653,5,2,1673.0,189016.20000001788,8014,NNB,C,4
5,test,2,0.0,1-Back,1,m,Fri May 02 2025 13:20:47 GMT-0500 (Central Daylight Time),192471.80000001192,098_y_f_n_a.png,I,m,763,6,2,1771.0,190700.80000001192,8014,NNB,C,5
6,test,2,1.0,1-Back,1,z,Fri May 02 2025 13:20:47 GMT-0500 (Central Daylight Time),194204.70000001788,098_y_f_n_a.png,I,z,700,7,2,1722.0999999940395,192482.60000002384,8014,NNB,C,6
7,test,2,0.0,1-Back,1,m,Fri May 02 2025 13:20:47 GMT-0500 (Central Daylight Time),195970.70000001788,057_y_m_n_a.png,I,m,734,8,2,1754.9000000059605,194215.80000001192,8014,NNB,C,7
8,test,2,0.0,1-Back,1,m,Fri May 02 2025 13:20:47 GMT-0500 (Central Daylight Time),197682.60000002384,030_o_f_n_a.png,I,m,694,9,2,1701.7000000178814,195980.90000000596,8014,NNB,C,8
9,test,2,0.0,1-Back,1,m,Fri May 02 2025 13:20:47 GMT-0500 (Central Daylight Time),199403.10000002384,082_m_m_n_a.png,I,m,686,10,2,1709.0,197694.10000002384,8014,NNB,C,9
10,test,2,1.0,1-Back,1,z,Fri May 02 2025 13:20:47 GMT-0500 (Central Daylight Time),200985.80000001192,082_m_m_n_a.png,I,z,560,11,2,1571.4000000059605,199414.40000000596,8014,NNB,C,10
11,test,2,0.0,1-Back,1,m,Fri May 02 2025 13:20:47 GMT-0500 (Central Daylight Time),202701.80000001192,030_o_f_n_a.png,I,m,698,12,2,1705.5999999940395,200996.20000001788,8014,NNB,C,11
12,test,2,0.0,1-Back,1,m,Fri May 02 2025 13:20:47 GMT-0500 (Central Daylight Time),204484.80000001192,130_o_f_n_a.png,I,m,750,13,2,1772.9000000059605,202711.90000000596,8014,NNB,C,12
13,test,2,0.0,1-Back,1,m,Fri May 02 2025 13:20:47 GMT-0500 (Central Daylight Time),206284.20000001788,059_o_m_n_a.png,I,m,766,14,2,1788.5999999940395,204495.60000002384,8014,NNB,C,13
14,test,2,0.0,1-Back,1,m,Fri May 02 2025 13:20:47 GMT-0500 (Central Daylight Time),207950.60000002384,146_o_m_n_a.png,I,m,639,15,2,1655.6000000238419,206295.0,8014,NNB,C,14
15,test,2,1.0,1-Back,1,z,Fri May 02 2025 13:20:47 GMT-0500 (Central Daylight Time),209599.70000001788,146_o_m_n_a.png,I,z,622,16,2,1638.2000000178814,207961.5,8014,NNB,C,15
16,test,2,0.0,1-Back,1,m,Fri May 02 2025 13:20:47 GMT-0500 (Central Daylight Time),211449.0,031_y_m_n_a.png,I,m,819,17,2,1838.699999988079,209610.30000001192,8014,NNB,C,16
17,test,2,1.0,1-Back,1,z,Fri May 02 2025 13:20:47 GMT-0500 (Central Daylight Time),213282.0,031_y_m_n_a.png,I,z,803,18,2,1820.8999999761581,211461.10000002384,8014,NNB,C,17
0,test,3,1.0,1-Back,,,Fri May 02 2025 13:20:47 GMT-0500 (Central Daylight Time),213282.0,028_y_f_n_a.png,I,space,1898,1,2,1820.8999999761581,211461.10000002384,8014,NNB,C,0
1,test,3,0.0,1-Back,1,m,Fri May 02 2025 13:20:47 GMT-0500 (Central Daylight Time),219030.30000001192,146_o_m_n_a.png,I,m,706,1,2,1722.300000011921,217308.0,8014,NNB,C,1
2,test,3,1.0,1-Back,1,z,Fri May 02 2025 13:20:47 GMT-0500 (Central Daylight Time),220712.80000001192,146_o_m_n_a.png,I,z,662,1,2,1673.0999999940395,219039.70000001788,8014,NNB,C,2
3,test,3,0.0,1-Back,1,m,Fri May 02 2025 13:20:47 GMT-0500 (Central Daylight Time),222379.10000002384,093_m_f_n_a.png,I,m,643,1,2,1654.800000011921,220724.30000001192,8014,NNB,C,3
4,test,3,1.0,1-Back,1,z,Fri May 02 2025 13:20:47 GMT-0500 (Central Daylight Time),224012.0,093_m_f_n_a.png,I,z,608,1,2,1622.0,222390.0,8014,NNB,C,4
5,test,3,0.0,1-Back,1,m,Fri May 02 2025 13:20:47 GMT-0500 (Central Daylight Time),225778.0,030_o_f_n_a.png,I,m,735,1,2,1756.5,224021.5,8014,NNB,C,5
6,test,3,0.0,1-Back,1,m,Fri May 02 2025 13:20:47 GMT-0500 (Central Daylight Time),227410.90000000596,057_y_m_n_a.png,I,m,609,1,2,1620.0,225790.90000000596,8014,NNB,C,6
7,test,3,0.0,1-Back,1,m,Fri May 02 2025 13:20:47 GMT-0500 (Central Daylight Time),229227.10000002384,030_o_f_n_a.png,I,m,784,1,2,1805.2000000178814,227421.90000000596,8014,NNB,C,7
8,test,3,0.0,1-Back,1,m,Fri May 02 2025 13:20:47 GMT-0500 (Central Daylight Time),230926.40000000596,031_y_m_n_a.png,I,m,673,1,2,1688.5,229237.90000000596,8014,NNB,C,8
9,test,3,1.0,1-Back,1,z,Fri May 02 2025 13:20:47 GMT-0500 (Central Daylight Time),232543.0,031_y_m_n_a.png,I,z,590,1,2,1606.7999999821186,230936.20000001788,8014,NNB,C,9
10,test,3,0.0,1-Back,1,m,Fri May 02 2025 13:20:47 GMT-0500 (Central Daylight Time),234208.80000001192,006_m_f_n_a.png,I,m,646,1,2,1656.800000011921,232552.0,8014,NNB,C,10
11,test,3,0.0,1-Back,1,m,Fri May 02 2025 13:20:47 GMT-0500 (Central Daylight Time),235891.70000001788,098_y_f_n_a.png,I,m,650,1,2,1672.0999999940395,234219.60000002384,8014,NNB,C,11
12,test,3,1.0,1-Back,1,z,Fri May 02 2025 13:20:47 GMT-0500 (Central Daylight Time),237407.70000001788,098_y_f_n_a.png,I,z,488,1,2,1501.800000011921,235905.90000000596,8014,NNB,C,12
13,test,3,0.0,1-Back,1,m,Fri May 02 2025 13:20:47 GMT-0500 (Central Daylight Time),239190.5,006_m_f_n_a.png,I,m,757,1,2,1773.5999999940395,237416.90000000596,8014,NNB,C,13
14,test,3,0.0,1-Back,1,m,Fri May 02 2025 13:20:47 GMT-0500 (Central Daylight Time),240906.70000001788,092_m_m_n_a.png,I,m,685,1,2,1706.300000011921,239200.40000000596,8014,NNB,C,14
15,test,3,1.0,1-Back,1,z,Fri May 02 2025 13:20:47 GMT-0500 (Central Daylight Time),242456.30000001192,092_m_m_n_a.png,I,z,520,1,2,1538.9000000059605,240917.40000000596,8014,NNB,C,15
16,test,3,0.0,1-Back,1,m,Fri May 02 2025 13:20:47 GMT-0500 (Central Daylight Time),244122.5,130_o_f_n_a.png,I,m,635,1,2,1656.8999999761581,242465.60000002384,8014,NNB,C,16
17,test,3,1.0,1-Back,1,z,Fri May 02 2025 13:20:47 GMT-0500 (Central Daylight Time),245705.10000002384,130_o_f_n_a.png,I,z,554,1,2,1571.7000000178814,244133.40000000596,8014,NNB,C,17
0,test,4,1.0,1-Back,,,Fri May 02 2025 13:20:47 GMT-0500 (Central Daylight Time),245705.10000002384,093_m_f_n_a.png,I,space,1611,1,2,1571.7000000178814,244133.40000000596,8014,NNB,C,0
1,test,4,0.0,1-Back,1,m,Fri May 02 2025 13:20:47 GMT-0500 (Central Daylight Time),251153.10000002384,146_o_m_n_a.png,I,m,702,2,2,1722.800000011921,249430.30000001192,8014,NNB,C,1
2,test,4,0.0,1-Back,1,m,Fri May 02 2025 13:20:47 GMT-0500 (Central Daylight Time),253036.30000001192,093_m_f_n_a.png,I,m,857,3,2,1872.199999988079,251164.10000002384,8014,NNB,C,2
3,test,4,0.0,1-Back,1,m,Fri May 02 2025 13:20:47 GMT-0500 (Central Daylight Time),254719.20000001788,030_o_f_n_a.png,I,m,656,4,2,1673.800000011921,253045.40000000596,8014,NNB,C,3
4,test,4,1.0,1-Back,1,z,Fri May 02 2025 13:20:47 GMT-0500 (Central Daylight Time),256201.70000001788,030_o_f_n_a.png,I,z,461,5,2,1471.2000000178814,254730.5,8014,NNB,C,4
5,test,4,0.0,1-Back,1,m,Fri May 02 2025 13:20:47 GMT-0500 (Central Daylight Time),257885.10000002384,098_y_f_n_a.png,I,m,650,6,2,1674.1000000238419,256211.0,8014,NNB,C,5
6,test,4,0.0,1-Back,1,m,Fri May 02 2025 13:20:47 GMT-0500 (Central Daylight Time),259550.80000001192,057_y_m_n_a.png,I,m,647,7,2,1655.300000011921,257895.5,8014,NNB,C,6
7,test,4,1.0,1-Back,1,z,Fri May 02 2025 13:20:47 GMT-0500 (Central Daylight Time),261133.30000001192,057_y_m_n_a.png,I,z,564,8,2,1572.0999999940395,259561.20000001788,8014,NNB,C,7
8,test,4,0.0,1-Back,1,m,Fri May 02 2025 13:20:47 GMT-0500 (Central Daylight Time),262766.60000002384,098_y_f_n_a.png,I,m,606,9,2,1622.800000011921,261143.80000001192,8014,NNB,C,8
9,test,4,0.0,1-Back,1,m,Fri May 02 2025 13:20:47 GMT-0500 (Central Daylight Time),264432.60000002384,082_m_m_n_a.png,I,m,637,10,2,1653.9000000059605,262778.7000000179,8014,NNB,C,9
10,test,4,1.0,1-Back,1,z,Fri May 02 2025 13:20:47 GMT-0500 (Central Daylight Time),266048.90000000596,082_m_m_n_a.png,I,z,586,11,2,1603.7999999821186,264445.10000002384,8014,NNB,C,10
11,test,4,0.0,1-Back,1,m,Fri May 02 2025 13:20:47 GMT-0500 (Central Daylight Time),267664.90000000596,130_o_f_n_a.png,I,m,587,12,2,1606.7999999821186,266058.10000002384,8014,NNB,C,11
12,test,4,0.0,1-Back,1,m,Fri May 02 2025 13:20:47 GMT-0500 (Central Daylight Time),269214.40000000596,059_o_m_n_a.png,I,m,522,13,2,1538.9000000059605,267675.5,8014,NNB,C,12
12,test,4,0.0,1-Back,0,m,Fri May 02 2025 13:20:47 GMT-0500 (Central Daylight Time),270964.0,130_o_f_n_a.png,I,z,724,14,2,1737.8999999761581,269226.10000002384,8014,NNB,C,13
13,test,4,0.0,1-Back,1,m,Fri May 02 2025 13:20:47 GMT-0500 (Central Daylight Time),273096.60000002384,028_y_f_n_a.png,I,m,1112,15,2,2121.7000000178814,270974.90000000596,8014,NNB,C,14
14,test,4,1.0,1-Back,1,z,Fri May 02 2025 13:20:47 GMT-0500 (Central Daylight Time),274779.2000000179,028_y_f_n_a.png,I,z,659,16,2,1671.7000000178814,273107.5,8014,NNB,C,15
15,test,4,0.0,1-Back,1,m,Fri May 02 2025 13:20:47 GMT-0500 (Central Daylight Time),276628.90000000596,006_m_f_n_a.png,I,m,833,17,2,1839.7999999821186,274789.10000002384,8014,NNB,C,16
16,test,4,1.0,1-Back,1,z,Fri May 02 2025 13:20:47 GMT-0500 (Central Daylight Time),278394.90000000596,006_m_f_n_a.png,I,z,734,18,2,1755.2999999821186,276639.60000002384,8014,NNB,C,17
0,test,5,1.0,1-Back,,,Fri May 02 2025 13:20:47 GMT-0500 (Central Daylight Time),278394.90000000596,059_o_m_n_a.png,I,space,1328,1,2,1755.2999999821186,276639.60000002384,8014,NNB,C,0
1,test,5,1.0,1-Back,1,z,Fri May 02 2025 13:20:47 GMT-0500 (Central Daylight Time),283576.5,059_o_m_n_a.png,I,z,804,2,2,1822.8999999761581,281753.60000002384,8014,NNB,C,1
2,test,5,0.0,1-Back,1,m,Fri May 02 2025 13:20:47 GMT-0500 (Central Daylight Time),285293.8000000119,098_y_f_n_a.png,I,m,683,3,2,1707.199999988079,283586.60000002384,8014,NNB,C,2
3,test,5,0.0,1-Back,1,m,Fri May 02 2025 13:20:47 GMT-0500 (Central Daylight Time),287109.0,057_y_m_n_a.png,I,m,799,4,2,1805.699999988079,285303.3000000119,8014,NNB,C,3
4,test,5,0.0,1-Back,1,m,Fri May 02 2025 13:20:47 GMT-0500 (Central Daylight Time),288908.3000000119,098_y_f_n_a.png,I,m,775,5,2,1788.5,287119.8000000119,8014,NNB,C,4
5,test,5,0.0,1-Back,1,m,Fri May 02 2025 13:20:47 GMT-0500 (Central Daylight Time),290557.60000002384,092_m_m_n_a.png,I,m,631,6,2,1639.6000000238419,288918.0,8014,NNB,C,5
6,test,5,1.0,1-Back,1,z,Fri May 02 2025 13:20:47 GMT-0500 (Central Daylight Time),292073.7000000179,092_m_m_n_a.png,I,z,493,7,2,1505.300000011921,290568.40000000596,8014,NNB,C,6
7,test,5,0.0,1-Back,1,m,Fri May 02 2025 13:20:47 GMT-0500 (Central Daylight Time),293840.3000000119,028_y_f_n_a.png,I,m,746,8,2,1754.4000000059605,292085.90000000596,8014,NNB,C,7
8,test,5,0.0,1-Back,1,m,Fri May 02 2025 13:20:47 GMT-0500 (Central Daylight Time),295822.8000000119,031_y_m_n_a.png,I,m,956,9,2,1973.5999999940395,293849.2000000179,8014,NNB,C,8
9,test,5,0.0,1-Back,1,m,Fri May 02 2025 13:20:47 GMT-0500 (Central Daylight Time),297638.90000000596,028_y_f_n_a.png,I,m,788,10,2,1805.9000000059605,295833.0,8014,NNB,C,9
10,test,5,0.0,1-Back,1,m,Fri May 02 2025 13:20:47 GMT-0500 (Central Daylight Time),299305.0,130_o_f_n_a.png,I,m,645,11,2,1657.199999988079,297647.8000000119,8014,NNB,C,10
11,test,5,1.0,1-Back,1,z,Fri May 02 2025 13:20:47 GMT-0500 (Central Daylight Time),300954.60000002384,130_o_f_n_a.png,I,z,626,12,2,1638.2000000178814,299316.40000000596,8014,NNB,C,11
12,test,5,0.0,1-Back,1,m,Fri May 02 2025 13:20:47 GMT-0500 (Central Daylight Time),302621.0,146_o_m_n_a.png,I,m,650,13,2,1654.7999999821186,300966.2000000179,8014,NNB,C,12
13,test,5,0.0,1-Back,1,m,Fri May 02 2025 13:20:47 GMT-0500 (Central Daylight Time),304286.7000000179,093_m_f_n_a.png,I,m,647,14,2,1654.800000011921,302631.90000000596,8014,NNB,C,13
14,test,5,1.0,1-Back,1,z,Fri May 02 2025 13:20:47 GMT-0500 (Central Daylight Time),305952.90000000596,093_m_f_n_a.png,I,z,645,15,2,1655.2999999821186,304297.60000002384,8014,NNB,C,14
15,test,5,0.0,1-Back,1,m,Fri May 02 2025 13:20:47 GMT-0500 (Central Daylight Time),307652.5,146_o_m_n_a.png,I,m,666,16,2,1688.7999999821186,305963.7000000179,8014,NNB,C,15
16,test,5,0.0,1-Back,1,m,Fri May 02 2025 13:20:47 GMT-0500 (Central Daylight Time),309235.10000002384,006_m_f_n_a.png,I,m,558,17,2,1573.2000000178814,307661.90000000596,8014,NNB,C,16
17,test,5,0.0,1-Back,1,m,Fri May 02 2025 13:20:47 GMT-0500 (Central Daylight Time),310884.90000000596,082_m_m_n_a.png,I,m,633,18,2,1639.2999999821186,309245.60000002384,8014,NNB,C,17
0,prac,1,0.0,2-Back,,,Fri May 02 2025 13:20:47 GMT-0500 (Central Daylight Time),310884.90000000596,031_y_m_n_a.png,I,space,5218,1,2,1639.2999999821186,309245.60000002384,8014,NNB,C,0
0,prac,1,0.0,2-Back,,,Fri May 02 2025 13:20:47 GMT-0500 (Central Daylight Time),310884.90000000596,006_m_f_n_a.png,I,space,5218,2,2,1639.2999999821186,309245.60000002384,8014,NNB,C,0
1,prac,1,1.0,2-Back,1,m,Fri May 02 2025 13:20:47 GMT-0500 (Central Daylight Time),412087.5,146_o_m_n_a.png,I,m,1048,3,2,1923.0999999940395,410164.40000000596,8014,NNB,C,1
2,prac,1,0.0,2-Back,1,m,Fri May 02 2025 13:20:47 GMT-0500 (Central Daylight Time),414069.2000000179,130_o_f_n_a.png,I,m,1073,4,2,1967.9000000059605,412101.3000000119,8014,NNB,C,2
3,prac,1,0.0,2-Back,1,z,Fri May 02 2025 13:20:47 GMT-0500 (Central Daylight Time),415685.3000000119,146_o_m_n_a.png,I,z,834,5,2,1603.5999999940395,414081.7000000179,8014,NNB,C,3
4,prac,1,1.0,2-Back,1,z,Fri May 02 2025 13:20:47 GMT-0500 (Central Daylight Time),417401.40000000596,130_o_f_n_a.png,I,z,922,6,2,1703.9000000059605,415697.5,8014,NNB,C,4
5,prac,1,0.0,2-Back,1,m,Fri May 02 2025 13:20:47 GMT-0500 (Central Daylight Time),419050.90000000596,082_m_m_n_a.png,I,m,872,7,2,1639.199999988079,417411.7000000179,8014,NNB,C,5
6,prac,1,0.0,2-Back,1,m,Fri May 02 2025 13:20:47 GMT-0500 (Central Daylight Time),420950.40000000596,059_o_m_n_a.png,I,m,1019,8,2,1888.7999999821186,419061.60000002384,8014,NNB,C,6
7,prac,1,0.0,2-Back,1,m,Fri May 02 2025 13:20:47 GMT-0500 (Central Daylight Time),422799.8000000119,028_y_f_n_a.png,I,m,970,9,2,1837.300000011921,420962.5,8014,NNB,C,7
8,prac,1,1.0,2-Back,1,z,Fri May 02 2025 13:20:47 GMT-0500 (Central Daylight Time),424432.7000000179,059_o_m_n_a.png,I,z,841,10,2,1621.0,422811.7000000179,8014,NNB,C,8
9,prac,1,0.0,2-Back,1,m,Fri May 02 2025 13:20:47 GMT-0500 (Central Daylight Time),426465.60000002384,098_y_f_n_a.png,I,m,1159,11,2,2022.6000000238419,424443.0,8014,NNB,C,9
10,prac,1,0.0,2-Back,1,m,Fri May 02 2025 13:20:47 GMT-0500 (Central Daylight Time),428581.5,082_m_m_n_a.png,I,m,1327,12,2,2104.2999999821186,426477.2000000179,8014,NNB,C,10
0,test,1,0.0,2-Back,,,Fri May 02 2025 13:20:47 GMT-0500 (Central Daylight Time),428581.5,057_y_m_n_a.png,I,space,6010,1,2,2104.2999999821186,426477.2000000179,8014,NNB,C,0
0,test,1,0.0,2-Back,,,Fri May 02 2025 13:20:47 GMT-0500 (Central Daylight Time),428581.5,057_y_m_n_a.png,I,space,6010,2,2,2104.2999999821186,426477.2000000179,8014,NNB,C,0
1,test,1,0.0,2-Back,1,m,Fri May 02 2025 13:20:47 GMT-0500 (Central Daylight Time),449524.7000000179,130_o_f_n_a.png,I,m,1750,3,2,2773.300000011921,446751.40000000596,8014,NNB,C,1
2,test,1,0.0,2-Back,1,m,Fri May 02 2025 13:20:47 GMT-0500 (Central Daylight Time),451457.5,092_m_m_n_a.png,I,m,910,4,2,1923.3999999761581,449534.10000002384,8014,NNB,C,2
3,test,1,1.0,2-Back,1,z,Fri May 02 2025 13:20:47 GMT-0500 (Central Daylight Time),453223.7000000179,130_o_f_n_a.png,I,z,739,5,2,1753.2000000178814,451470.5,8014,NNB,C,3
4,test,1,0.0,2-Back,1,m,Fri May 02 2025 13:20:47 GMT-0500 (Central Daylight Time),455106.2000000179,098_y_f_n_a.png,I,m,860,6,2,1871.7000000178814,453234.5,8014,NNB,C,4
5,test,1,0.0,2-Back,1,m,Fri May 02 2025 13:20:47 GMT-0500 (Central Daylight Time),457189.0,092_m_m_n_a.png,I,m,1058,7,2,2073.199999988079,455115.8000000119,8014,NNB,C,5
6,test,1,1.0,2-Back,1,z,Fri May 02 2025 13:20:47 GMT-0500 (Central Daylight Time),458888.5,098_y_f_n_a.png,I,z,671,8,2,1690.199999988079,457198.3000000119,8014,NNB,C,6
7,test,1,0.0,2-Back,1,m,Fri May 02 2025 13:20:47 GMT-0500 (Central Daylight Time),460754.60000002384,031_y_m_n_a.png,I,m,835,9,2,1854.800000011921,458899.8000000119,8014,NNB,C,7
8,test,1,0.0,2-Back,1,m,Fri May 02 2025 13:20:47 GMT-0500 (Central Daylight Time),462720.8000000119,030_o_f_n_a.png,I,m,937,10,2,1955.0,460765.8000000119,8014,NNB,C,8
9,test,1,1.0,2-Back,1,z,Fri May 02 2025 13:20:47 GMT-0500 (Central Daylight Time),464853.40000000596,031_y_m_n_a.png,I,z,1108,11,2,2120.699999988079,462732.7000000179,8014,NNB,C,9
10,test,1,0.0,2-Back,1,m,Fri May 02 2025 13:20:47 GMT-0500 (Central Daylight Time),467002.7000000179,006_m_f_n_a.png,I,m,1119,12,2,2139.4000000059605,464863.3000000119,8014,NNB,C,10
11,test,1,0.0,2-Back,1,m,Fri May 02 2025 13:20:47 GMT-0500 (Central Daylight Time),469301.5,006_m_f_n_a.png,I,m,1281,13,2,2287.699999988079,467013.8000000119,8014,NNB,C,11
12,test,1,0.0,2-Back,1,m,Fri May 02 2025 13:20:47 GMT-0500 (Central Daylight Time),471284.60000002384,146_o_m_n_a.png,I,m,957,14,2,1973.9000000059605,469310.7000000179,8014,NNB,C,12
13,test,1,0.0,2-Back,1,m,Fri May 02 2025 13:20:47 GMT-0500 (Central Daylight Time),473384.0,030_o_f_n_a.png,I,m,1080,15,2,2089.0,471295.0,8014,NNB,C,13
14,test,1,1.0,2-Back,1,z,Fri May 02 2025 13:20:47 GMT-0500 (Central Daylight Time),475133.2000000179,146_o_m_n_a.png,I,z,732,16,2,1739.9000000059605,473393.3000000119,8014,NNB,C,14
15,test,1,0.0,2-Back,1,m,Fri May 02 2025 13:20:47 GMT-0500 (Central Daylight Time),477116.10000002384,093_m_f_n_a.png,I,m,950,17,2,1973.7000000178814,475142.40000000596,8014,NNB,C,15
15,test,1,0.0,2-Back,0,m,Fri May 02 2025 13:20:47 GMT-0500 (Central Daylight Time),479415.3000000119,082_m_m_n_a.png,I,z,1272,18,2,2288.300000011921,477127.0,8014,NNB,C,16
0,test,2,0.0,2-Back,,,Fri May 02 2025 13:20:47 GMT-0500 (Central Daylight Time),479415.3000000119,082_m_m_n_a.png,I,space,1637,1,2,2288.300000011921,477127.0,8014,NNB,C,0
0,test,2,0.0,2-Back,,,Fri May 02 2025 13:20:47 GMT-0500 (Central Daylight Time),479415.3000000119,028_y_f_n_a.png,I,space,1637,2,2,2288.300000011921,477127.0,8014,NNB,C,0
1,test,2,1.0,2-Back,1,z,Fri May 02 2025 13:20:47 GMT-0500 (Central Daylight Time),488012.7000000179,082_m_m_n_a.png,I,z,792,3,2,1806.5,486206.2000000179,8014,NNB,C,1
2,test,2,0.0,2-Back,1,m,Fri May 02 2025 13:20:47 GMT-0500 (Central Daylight Time),489895.40000000596,093_m_f_n_a.png,I,m,862,4,2,1873.4000000059605,488022.0,8014,NNB,C,2
2,test,2,0.0,2-Back,0,m,Fri May 02 2025 13:20:47 GMT-0500 (Central Daylight Time),491944.90000000596,028_y_f_n_a.png,I,z,1028,5,2,2040.199999988079,489904.7000000179,8014,NNB,C,3
3,test,2,0.0,2-Back,1,m,Fri May 02 2025 13:20:47 GMT-0500 (Central Daylight Time),493877.2000000179,146_o_m_n_a.png,I,m,915,6,2,1921.300000011921,491955.90000000596,8014,NNB,C,4
4,test,2,0.0,2-Back,1,m,Fri May 02 2025 13:20:47 GMT-0500 (Central Daylight Time),495843.8000000119,098_y_f_n_a.png,I,m,943,7,2,1956.800000011921,493887.0,8014,NNB,C,5
5,test,2,1.0,2-Back,1,z,Fri May 02 2025 13:20:47 GMT-0500 (Central Daylight Time),497793.10000002384,146_o_m_n_a.png,I,z,921,8,2,1938.4000000059605,495854.7000000179,8014,NNB,C,6
6,test,2,0.0,2-Back,1,m,Fri May 02 2025 13:20:47 GMT-0500 (Central Daylight Time),499642.40000000596,031_y_m_n_a.png,I,m,827,9,2,1840.199999988079,497802.2000000179,8014,NNB,C,7
6,test,2,0.0,2-Back,0,m,Fri May 02 2025 13:20:47 GMT-0500 (Central Daylight Time),502224.8000000119,031_y_m_n_a.png,I,z,1554,10,2,2570.800000011921,499654.0,8014,NNB,C,8
7,test,2,0.0,2-Back,1,m,Fri May 02 2025 13:20:47 GMT-0500 (Central Daylight Time),505140.5,006_m_f_n_a.png,I,m,1890,11,2,2906.0999999940395,502234.40000000596,8014,NNB,C,9
8,test,2,0.0,2-Back,1,m,Fri May 02 2025 13:20:47 GMT-0500 (Central Daylight Time),507406.5,028_y_f_n_a.png,I,m,1239,12,2,2254.5,505152.0,8014,NNB,C,10
9,test,2,1.0,2-Back,1,z,Fri May 02 2025 13:20:47 GMT-0500 (Central Daylight Time),509122.60000002384,006_m_f_n_a.png,I,z,693,13,2,1706.5,507416.10000002384,8014,NNB,C,11
10,test,2,0.0,2-Back,1,m,Fri May 02 2025 13:20:47 GMT-0500 (Central Daylight Time),510955.5,059_o_m_n_a.png,I,m,809,14,2,1822.5999999940395,509132.90000000596,8014,NNB,C,12
11,test,2,0.0,2-Back,1,m,Fri May 02 2025 13:20:47 GMT-0500 (Central Daylight Time),513338.3000000119,059_o_m_n_a.png,I,m,1352,15,2,2371.699999988079,510966.60000002384,8014,NNB,C,13
12,test,2,0.0,2-Back,1,m,Fri May 02 2025 13:20:47 GMT-0500 (Central Daylight Time),515220.90000000596,030_o_f_n_a.png,I,m,850,16,2,1873.199999988079,513347.7000000179,8014,NNB,C,14
13,test,2,0.0,2-Back,1,m,Fri May 02 2025 13:20:47 GMT-0500 (Central Daylight Time),517053.40000000596,092_m_m_n_a.png,I,m,815,17,2,1821.4000000059605,515232.0,8014,NNB,C,15
14,test,2,1.0,2-Back,1,z,Fri May 02 2025 13:20:47 GMT-0500 (Central Daylight Time),518686.40000000596,030_o_f_n_a.png,I,z,614,18,2,1622.4000000059605,517064.0,8014,NNB,C,16
0,test,3,1.0,2-Back,,,Fri May 02 2025 13:20:47 GMT-0500 (Central Daylight Time),518686.40000000596,057_y_m_n_a.png,I,space,2886,1,2,1622.4000000059605,517064.0,8014,NNB,C,0
0,test,3,1.0,2-Back,,,Fri May 02 2025 13:20:47 GMT-0500 (Central Daylight Time),518686.40000000596,057_y_m_n_a.png,I,space,2886,2,2,1622.4000000059605,517064.0,8014,NNB,C,0
1,test,3,0.0,2-Back,1,m,Fri May 02 2025 13:20:47 GMT-0500 (Central Daylight Time),528516.7000000179,030_o_f_n_a.png,I,m,759,3,2,1771.300000011921,526745.400000006,8014,NNB,C,1
2,test,3,0.0,2-Back,1,m,Fri May 02 2025 13:20:47 GMT-0500 (Central Daylight Time),530432.6000000238,082_m_m_n_a.png,I,m,895,4,2,1906.6000000238419,528526.0,8014,NNB,C,2
3,test,3,1.0,2-Back,1,z,Fri May 02 2025 13:20:47 GMT-0500 (Central Daylight Time),532232.1000000238,030_o_f_n_a.png,I,z,771,5,2,1788.4000000059605,530443.7000000179,8014,NNB,C,3
4,test,3,0.0,2-Back,1,m,Fri May 02 2025 13:20:47 GMT-0500 (Central Daylight Time),534016.1000000238,031_y_m_n_a.png,I,m,756,6,2,1774.6000000238419,532241.5,8014,NNB,C,4
4,test,3,0.0,2-Back,0,m,Fri May 02 2025 13:20:47 GMT-0500 (Central Daylight Time),535581.0,082_m_m_n_a.png,I,z,548,7,2,1554.0999999940395,534026.900000006,8014,NNB,C,5
5,test,3,1.0,2-Back,1,z,Fri May 02 2025 13:20:47 GMT-0500 (Central Daylight Time),537764.0,031_y_m_n_a.png,I,z,1150,8,2,2173.199999988079,535590.8000000119,8014,NNB,C,6
6,test,3,0.0,2-Back,1,m,Fri May 02 2025 13:20:47 GMT-0500 (Central Daylight Time),539563.3000000119,028_y_f_n_a.png,I,m,776,9,2,1787.9000000059605,537775.400000006,8014,NNB,C,7
7,test,3,0.0,2-Back,1,m,Fri May 02 2025 13:20:47 GMT-0500 (Central Daylight Time),542112.400000006,092_m_m_n_a.png,I,m,1529,10,2,2538.5999999940395,539573.8000000119,8014,NNB,C,8
8,test,3,1.0,2-Back,1,z,Fri May 02 2025 13:20:47 GMT-0500 (Central Daylight Time),544661.6000000238,028_y_f_n_a.png,I,z,1524,11,2,2539.9000000059605,542121.7000000179,8014,NNB,C,9
9,test,3,1.0,2-Back,1,z,Fri May 02 2025 13:20:47 GMT-0500 (Central Daylight Time),547610.7000000179,092_m_m_n_a.png,I,z,1927,12,2,2939.0999999940395,544671.6000000238,8014,NNB,C,10
10,test,3,0.0,2-Back,1,m,Fri May 02 2025 13:20:47 GMT-0500 (Central Daylight Time),549293.2000000179,030_o_f_n_a.png,I,m,666,13,2,1673.0,547620.2000000179,8014,NNB,C,11
11,test,3,0.0,2-Back,1,m,Fri May 02 2025 13:20:47 GMT-0500 (Central Daylight Time),551218.7000000179,093_m_f_n_a.png,I,m,907,14,2,1916.300000011921,549302.400000006,8014,NNB,C,12
12,test,3,0.0,2-Back,1,m,Fri May 02 2025 13:20:47 GMT-0500 (Central Daylight Time),553042.2000000179,146_o_m_n_a.png,I,m,786,15,2,1809.300000011921,551232.900000006,8014,NNB,C,13
13,test,3,1.0,2-Back,1,z,Fri May 02 2025 13:20:47 GMT-0500 (Central Daylight Time),554708.6000000238,093_m_f_n_a.png,I,z,634,16,2,1655.2000000178814,553053.400000006,8014,NNB,C,14
14,test,3,0.0,2-Back,1,m,Fri May 02 2025 13:20:47 GMT-0500 (Central Daylight Time),556608.0,130_o_f_n_a.png,I,m,872,17,2,1887.3999999761581,554720.6000000238,8014,NNB,C,15
15,test,3,0.0,2-Back,1,m,Fri May 02 2025 13:20:47 GMT-0500 (Central Daylight Time),558524.0,130_o_f_n_a.png,I,m,885,18,2,1904.8999999761581,556619.1000000238,8014,NNB,C,16
0,test,4,0.0,2-Back,,,Fri May 02 2025 13:20:47 GMT-0500 (Central Daylight Time),558524.0,059_o_m_n_a.png,I,space,1384,1,2,1904.8999999761581,556619.1000000238,8014,NNB,C,0
0,test,4,0.0,2-Back,,,Fri May 02 2025 13:20:47 GMT-0500 (Central Daylight Time),558524.0,098_y_f_n_a.png,I,space,1384,2,2,1904.8999999761581,556619.1000000238,8014,NNB,C,0
1,test,4,1.0,2-Back,1,z,Fri May 02 2025 13:20:47 GMT-0500 (Central Daylight Time),567037.8000000119,059_o_m_n_a.png,I,z,840,3,2,1854.699999988079,565183.1000000238,8014,NNB,C,1
2,test,4,1.0,2-Back,1,z,Fri May 02 2025 13:20:47 GMT-0500 (Central Daylight Time),568937.400000006,098_y_f_n_a.png,I,z,870,4,2,1889.199999988079,567048.2000000179,8014,NNB,C,2
3,test,4,0.0,2-Back,1,m,Fri May 02 2025 13:20:47 GMT-0500 (Central Daylight Time),570703.2000000179,030_o_f_n_a.png,I,m,739,5,2,1756.5,568946.7000000179,8014,NNB,C,3
4,test,4,0.0,2-Back,1,m,Fri May 02 2025 13:20:47 GMT-0500 (Central Daylight Time),572652.900000006,030_o_f_n_a.png,I,m,933,6,2,1940.2999999821186,570712.6000000238,8014,NNB,C,4
5,test,4,0.0,2-Back,1,m,Fri May 02 2025 13:20:47 GMT-0500 (Central Daylight Time),574652.0,006_m_f_n_a.png,I,m,982,7,2,1989.699999988079,572662.3000000119,8014,NNB,C,5
6,test,4,0.0,2-Back,1,m,Fri May 02 2025 13:20:47 GMT-0500 (Central Daylight Time),576934.7000000179,031_y_m_n_a.png,I,m,1264,8,2,2271.300000011921,574663.400000006,8014,NNB,C,6
7,test,4,1.0,2-Back,1,z,Fri May 02 2025 13:20:47 GMT-0500 (Central Daylight Time),578667.5,006_m_f_n_a.png,I,z,701,9,2,1722.0,576945.5,8014,NNB,C,7
8,test,4,0.0,2-Back,1,m,Fri May 02 2025 13:20:47 GMT-0500 (Central Daylight Time),580483.6000000238,092_m_m_n_a.png,I,m,784,10,2,1802.2000000178814,578681.400000006,8014,NNB,C,8
9,test,4,0.0,2-Back,1,m,Fri May 02 2025 13:20:47 GMT-0500 (Central Daylight Time),582366.400000006,031_y_m_n_a.png,I,m,856,11,2,1871.199999988079,580495.2000000179,8014,NNB,C,9
10,test,4,0.0,2-Back,1,m,Fri May 02 2025 13:20:47 GMT-0500 (Central Daylight Time),584182.6000000238,130_o_f_n_a.png,I,m,789,12,2,1803.9000000059605,582378.7000000179,8014,NNB,C,10
11,test,4,0.0,2-Back,1,m,Fri May 02 2025 13:20:47 GMT-0500 (Central Daylight Time),586681.8000000119,057_y_m_n_a.png,I,m,1469,13,2,2488.300000011921,584193.5,8014,NNB,C,11
12,test,4,1.0,2-Back,1,z,Fri May 02 2025 13:20:47 GMT-0500 (Central Daylight Time),588664.400000006,130_o_f_n_a.png,I,z,962,14,2,1971.0999999940395,586693.3000000119,8014,NNB,C,12
12,test,4,1.0,2-Back,0,z,Fri May 02 2025 13:20:47 GMT-0500 (Central Daylight Time),591696.900000006,057_y_m_n_a.png,I,None,2016,15,2,3021.699999988079,588675.2000000179,8014,NNB,C,13
12,test,4,0.0,2-Back,0,m,Fri May 02 2025 13:20:47 GMT-0500 (Central Daylight Time),594079.5,082_m_m_n_a.png,I,z,1363,16,2,2371.0,591708.5,8014,NNB,C,14
13,test,4,0.0,2-Back,1,m,Fri May 02 2025 13:20:47 GMT-0500 (Central Daylight Time),595995.8000000119,093_m_f_n_a.png,I,m,884,17,2,1905.0999999940395,594090.7000000179,8014,NNB,C,15
13,test,4,1.0,2-Back,0,z,Fri May 02 2025 13:20:47 GMT-0500 (Central Daylight Time),598011.5,082_m_m_n_a.png,I,m,992,18,2,2004.7999999821186,596006.7000000179,8014,NNB,C,16
0,test,5,1.0,2-Back,,,Fri May 02 2025 13:20:47 GMT-0500 (Central Daylight Time),598011.5,057_y_m_n_a.png,I,space,1681,1,2,2004.7999999821186,596006.7000000179,8014,NNB,C,0
0,test,5,1.0,2-Back,,,Fri May 02 2025 13:20:47 GMT-0500 (Central Daylight Time),598011.5,093_m_f_n_a.png,I,space,1681,2,2,2004.7999999821186,596006.7000000179,8014,NNB,C,0
1,test,5,1.0,2-Back,1,z,Fri May 02 2025 13:20:47 GMT-0500 (Central Daylight Time),606708.8000000119,057_y_m_n_a.png,I,z,941,3,2,1956.300000011921,604752.5,8014,NNB,C,1
2,test,5,1.0,2-Back,1,z,Fri May 02 2025 13:20:47 GMT-0500 (Central Daylight Time),608691.5,093_m_f_n_a.png,I,z,959,4,2,1972.5999999940395,606718.900000006,8014,NNB,C,2
3,test,5,0.0,2-Back,1,m,Fri May 02 2025 13:20:47 GMT-0500 (Central Daylight Time),610407.7000000179,130_o_f_n_a.png,I,m,688,5,2,1706.7000000178814,608701.0,8014,NNB,C,3
4,test,5,0.0,2-Back,1,m,Fri May 02 2025 13:20:47 GMT-0500 (Central Daylight Time),612223.7000000179,057_y_m_n_a.png,I,m,787,6,2,1806.300000011921,610417.400000006,8014,NNB,C,4
5,test,5,0.0,2-Back,1,m,Fri May 02 2025 13:20:47 GMT-0500 (Central Daylight Time),614090.0,028_y_f_n_a.png,I,m,843,7,2,1857.0,612233.0,8014,NNB,C,5
5,test,5,0.0,2-Back,0,m,Fri May 02 2025 13:20:47 GMT-0500 (Central Daylight Time),616055.6000000238,130_o_f_n_a.png,I,z,945,8,2,1954.7000000178814,614100.900000006,8014,NNB,C,6
5,test,5,1.0,2-Back,0,z,Fri May 02 2025 13:20:47 GMT-0500 (Central Daylight Time),618038.6000000238,028_y_f_n_a.png,I,m,956,9,2,1973.4000000059605,616065.2000000179,8014,NNB,C,7
6,test,5,0.0,2-Back,1,m,Fri May 02 2025 13:20:47 GMT-0500 (Central Daylight Time),620421.1000000238,146_o_m_n_a.png,I,m,1357,10,2,2372.600000023842,618048.5,8014,NNB,C,8
7,test,5,0.0,2-Back,1,m,Fri May 02 2025 13:20:47 GMT-0500 (Central Daylight Time),622270.6000000238,006_m_f_n_a.png,I,m,830,11,2,1838.4000000059605,620432.2000000179,8014,NNB,C,9
8,test,5,0.0,2-Back,1,m,Fri May 02 2025 13:20:47 GMT-0500 (Central Daylight Time),624253.0,092_m_m_n_a.png,I,m,966,12,2,1971.0999999940395,622281.900000006,8014,NNB,C,10
9,test,5,0.0,2-Back,1,m,Fri May 02 2025 13:20:47 GMT-0500 (Central Daylight Time),626619.2000000179,146_o_m_n_a.png,I,m,1343,13,2,2355.4000000059605,624263.8000000119,8014,NNB,C,11
9,test,5,1.0,2-Back,0,z,Fri May 02 2025 13:20:47 GMT-0500 (Central Daylight Time),628568.6000000238,092_m_m_n_a.png,I,m,921,14,2,1937.0,626631.6000000238,8014,NNB,C,12
10,test,5,0.0,2-Back,1,m,Fri May 02 2025 13:20:47 GMT-0500 (Central Daylight Time),630451.3000000119,098_y_f_n_a.png,I,m,852,15,2,1873.199999988079,628578.1000000238,8014,NNB,C,13
11,test,5,0.0,2-Back,1,m,Fri May 02 2025 13:20:47 GMT-0500 (Central Daylight Time),632367.400000006,059_o_m_n_a.png,I,m,895,16,2,1902.699999988079,630464.7000000179,8014,NNB,C,14
12,test,5,0.0,2-Back,1,m,Fri May 02 2025 13:20:47 GMT-0500 (Central Daylight Time),634150.400000006,006_m_f_n_a.png,I,m,765,17,2,1772.0,632378.400000006,8014,NNB,C,15
13,test,5,1.0,2-Back,1,z,Fri May 02 2025 13:20:47 GMT-0500 (Central Daylight Time),635966.400000006,059_o_m_n_a.png,I,z,790,18,2,1802.7999999821186,634163.6000000238,8014,NNB,C,16
