acc_sum,block,block_c,change,condition,correct,correct_response,datetime,endtime,face,project,response,response_time,row_sel,session_number,start_end,starttime,subject_id,task,task_vers,trial
0,prac,1,,1-Back,,,Tue Jan 14 2025 14:24:16 GMT-0600 (Central Standard Time),,050_m_f_n_a.png,I,space,13728,1,1,,,8014,NNB,A,0
0,prac,1,0.0,1-Back,0,m,Tue Jan 14 2025 14:24:16 GMT-0600 (Central Standard Time),185340.60000002384,063_y_f_n_a.png,I,None,2083,2,1,2891.300000011921,182449.30000001192,8014,NNB,A,1
0,prac,1,1.0,1-Back,0,z,Tue Jan 14 2025 14:24:16 GMT-0600 (Central Standard Time),187156.60000002384,063_y_f_n_a.png,I,m,1032,3,1,1812.1000000238419,185344.5,8014,NNB,A,2
1,prac,1,0.0,1-Back,1,m,Tue Jan 14 2025 14:24:16 GMT-0600 (Central Standard Time),189305.70000004768,053_o_m_n_a.png,I,m,1350,4,1,2143.600000023842,187162.10000002384,8014,NNB,A,3
2,prac,1,0.0,1-Back,1,m,Tue Jan 14 2025 14:24:16 GMT-0600 (Central Standard Time),191072.0,058_m_m_n_a.png,I,m,962,5,1,1762.5999999642372,189309.40000003576,8014,NNB,A,4
3,prac,1,1.0,1-Back,1,z,Tue Jan 14 2025 14:24:16 GMT-0600 (Central Standard Time),192871.20000004768,058_m_m_n_a.png,I,z,1021,6,1,1795.800000011921,191075.40000003576,8014,NNB,A,5
4,prac,1,0.0,1-Back,1,m,Tue Jan 14 2025 14:24:16 GMT-0600 (Central Standard Time),195370.60000002384,047_o_f_n_a.png,I,m,1666,7,1,2494.800000011921,192875.80000001192,8014,NNB,A,6
5,prac,1,0.0,1-Back,1,m,Tue Jan 14 2025 14:24:16 GMT-0600 (Central Standard Time),197170.20000004768,045_m_m_n_a.png,I,m,994,8,1,1794.2000000476837,195376.0,8014,NNB,A,7
6,prac,1,0.0,1-Back,1,m,Tue Jan 14 2025 14:24:16 GMT-0600 (Central Standard Time),198902.90000003576,050_m_f_n_a.png,I,m,946,9,1,1728.9000000357628,197174.0,8014,NNB,A,8
7,prac,1,1.0,1-Back,1,z,Tue Jan 14 2025 14:24:16 GMT-0600 (Central Standard Time),200435.90000003576,050_m_f_n_a.png,I,z,758,10,1,1529.6000000238419,198906.30000001192,8014,NNB,A,9
8,prac,1,0.0,1-Back,1,m,Tue Jan 14 2025 14:24:16 GMT-0600 (Central Standard Time),202152.60000002384,053_o_m_n_a.png,I,m,928,11,1,1712.3999999761581,200440.20000004768,8014,NNB,A,10
9,prac,1,0.0,1-Back,1,m,Tue Jan 14 2025 14:24:16 GMT-0600 (Central Standard Time),203884.60000002384,010_y_f_n_a.png,I,m,896,12,1,1728.199999988079,202156.40000003576,8014,NNB,A,11
0,test,1,0.0,1-Back,,,Tue Jan 14 2025 14:24:16 GMT-0600 (Central Standard Time),203884.60000002384,063_y_f_n_a.png,I,space,13961,1,1,1728.199999988079,202156.40000003576,8014,NNB,A,0
1,test,1,0.0,1-Back,1,m,Tue Jan 14 2025 14:24:16 GMT-0600 (Central Standard Time),229426.70000004768,043_m_f_n_a.png,I,m,831,2,1,1846.6000000238419,227580.10000002384,8014,NNB,A,1
2,test,1,0.0,1-Back,1,m,Tue Jan 14 2025 14:24:16 GMT-0600 (Central Standard Time),231875.90000003576,010_y_f_n_a.png,I,m,1429,3,1,2446.800000011921,229429.10000002384,8014,NNB,A,2
3,test,1,1.0,1-Back,1,z,Tue Jan 14 2025 14:24:16 GMT-0600 (Central Standard Time),233742.20000004768,010_y_f_n_a.png,I,z,836,4,1,1863.6000000238419,231878.60000002384,8014,NNB,A,3
4,test,1,0.0,1-Back,1,m,Tue Jan 14 2025 14:24:16 GMT-0600 (Central Standard Time),235874.70000004768,043_m_f_n_a.png,I,m,1098,5,1,2130.100000023842,233744.60000002384,8014,NNB,A,4
5,test,1,0.0,1-Back,1,m,Tue Jan 14 2025 14:24:16 GMT-0600 (Central Standard Time),237757.30000001192,053_o_m_n_a.png,I,m,861,6,1,1879.0,235878.30000001192,8014,NNB,A,5
6,test,1,1.0,1-Back,1,z,Tue Jan 14 2025 14:24:16 GMT-0600 (Central Standard Time),239656.80000001192,053_o_m_n_a.png,I,z,873,7,1,1897.0,237759.80000001192,8014,NNB,A,6
7,test,1,0.0,1-Back,1,m,Tue Jan 14 2025 14:24:16 GMT-0600 (Central Standard Time),241622.80000001192,058_m_m_n_a.png,I,m,935,8,1,1963.300000011921,239659.5,8014,NNB,A,7
8,test,1,0.0,1-Back,1,m,Tue Jan 14 2025 14:24:16 GMT-0600 (Central Standard Time),243555.40000003576,047_o_f_n_a.png,I,m,913,9,1,1930.0,241625.40000003576,8014,NNB,A,8
9,test,1,0.0,1-Back,1,m,Tue Jan 14 2025 14:24:16 GMT-0600 (Central Standard Time),245738.10000002384,058_m_m_n_a.png,I,m,1148,10,1,2179.899999976158,243558.20000004768,8014,NNB,A,9
10,test,1,0.0,1-Back,1,m,Tue Jan 14 2025 14:24:16 GMT-0600 (Central Standard Time),247537.70000004768,041_y_m_n_a.png,I,m,774,11,1,1797.0,245740.70000004768,8014,NNB,A,10
11,test,1,1.0,1-Back,1,z,Tue Jan 14 2025 14:24:16 GMT-0600 (Central Standard Time),249303.80000001192,041_y_m_n_a.png,I,z,742,12,1,1762.5,247541.30000001192,8014,NNB,A,11
12,test,1,0.0,1-Back,1,m,Tue Jan 14 2025 14:24:16 GMT-0600 (Central Standard Time),251469.80000001192,044_o_f_n_a.png,I,m,1136,13,1,2163.300000011921,249306.5,8014,NNB,A,12
13,test,1,1.0,1-Back,1,z,Tue Jan 14 2025 14:24:16 GMT-0600 (Central Standard Time),253319.40000003576,044_o_f_n_a.png,I,z,826,14,1,1847.300000011921,251472.10000002384,8014,NNB,A,13
14,test,1,0.0,1-Back,1,m,Tue Jan 14 2025 14:24:16 GMT-0600 (Central Standard Time),255318.20000004768,008_y_m_n_a.png,I,m,971,15,1,1996.5,253321.70000004768,8014,NNB,A,14
15,test,1,0.0,1-Back,1,m,Tue Jan 14 2025 14:24:16 GMT-0600 (Central Standard Time),257101.40000003576,050_m_f_n_a.png,I,m,753,16,1,1780.699999988079,255320.70000004768,8014,NNB,A,15
16,test,1,0.0,1-Back,1,m,Tue Jan 14 2025 14:24:16 GMT-0600 (Central Standard Time),258917.10000002384,046_o_m_n_a.png,I,m,795,17,1,1813.199999988079,257103.90000003576,8014,NNB,A,16
17,test,1,0.0,1-Back,1,m,Tue Jan 14 2025 14:24:16 GMT-0600 (Central Standard Time),261033.30000001192,050_m_f_n_a.png,I,m,1083,18,1,2113.899999976158,258919.40000003576,8014,NNB,A,17
0,test,2,0.0,1-Back,,,Tue Jan 14 2025 14:24:16 GMT-0600 (Central Standard Time),261033.30000001192,058_m_m_n_a.png,I,space,2880,1,1,2113.899999976158,258919.40000003576,8014,NNB,A,0
1,test,2,0.0,1-Back,1,m,Tue Jan 14 2025 14:24:16 GMT-0600 (Central Standard Time),268031.5,043_m_f_n_a.png,I,m,1068,2,1,2096.899999976158,265934.60000002384,8014,NNB,A,1
2,test,2,1.0,1-Back,1,z,Tue Jan 14 2025 14:24:16 GMT-0600 (Central Standard Time),269730.8000000119,043_m_f_n_a.png,I,z,682,3,1,1697.0,268033.8000000119,8014,NNB,A,2
3,test,2,0.0,1-Back,1,m,Tue Jan 14 2025 14:24:16 GMT-0600 (Central Standard Time),271463.5,058_m_m_n_a.png,I,m,701,4,1,1730.0,269733.5,8014,NNB,A,3
4,test,2,0.0,1-Back,1,m,Tue Jan 14 2025 14:24:16 GMT-0600 (Central Standard Time),273262.90000003576,041_y_m_n_a.png,I,m,767,5,1,1796.5,271466.40000003576,8014,NNB,A,4
5,test,2,0.0,1-Back,1,m,Tue Jan 14 2025 14:24:16 GMT-0600 (Central Standard Time),275012.3000000119,063_y_f_n_a.png,I,m,721,6,1,1746.8999999761581,273265.40000003576,8014,NNB,A,5
6,test,2,1.0,1-Back,1,z,Tue Jan 14 2025 14:24:16 GMT-0600 (Central Standard Time),276645.5,063_y_f_n_a.png,I,z,604,7,1,1630.8999999761581,275014.60000002384,8014,NNB,A,6
7,test,2,0.0,1-Back,1,m,Tue Jan 14 2025 14:24:16 GMT-0600 (Central Standard Time),278461.3000000119,041_y_m_n_a.png,I,m,795,8,1,1813.0,276648.3000000119,8014,NNB,A,7
8,test,2,0.0,1-Back,1,m,Tue Jan 14 2025 14:24:16 GMT-0600 (Central Standard Time),280160.90000003576,044_o_f_n_a.png,I,m,675,9,1,1697.1000000238419,278463.8000000119,8014,NNB,A,8
9,test,2,0.0,1-Back,1,m,Tue Jan 14 2025 14:24:16 GMT-0600 (Central Standard Time),281943.60000002384,045_m_m_n_a.png,I,m,759,10,1,1780.1000000238419,280163.5,8014,NNB,A,9
10,test,2,1.0,1-Back,1,z,Tue Jan 14 2025 14:24:16 GMT-0600 (Central Standard Time),283693.0,045_m_m_n_a.png,I,z,720,11,1,1746.699999988079,281946.3000000119,8014,NNB,A,10
11,test,2,0.0,1-Back,1,m,Tue Jan 14 2025 14:24:16 GMT-0600 (Central Standard Time),285825.7000000477,044_o_f_n_a.png,I,m,1099,12,1,2130.300000011921,283695.40000003576,8014,NNB,A,11
12,test,2,0.0,1-Back,1,m,Tue Jan 14 2025 14:24:16 GMT-0600 (Central Standard Time),287575.10000002384,047_o_f_n_a.png,I,m,726,13,1,1747.0,285828.10000002384,8014,NNB,A,12
13,test,2,0.0,1-Back,1,m,Tue Jan 14 2025 14:24:16 GMT-0600 (Central Standard Time),289374.40000003576,053_o_m_n_a.png,I,m,769,14,1,1796.9000000357628,287577.5,8014,NNB,A,13
14,test,2,0.0,1-Back,1,m,Tue Jan 14 2025 14:24:16 GMT-0600 (Central Standard Time),291057.2000000477,046_o_m_n_a.png,I,m,658,15,1,1679.9000000357628,289377.3000000119,8014,NNB,A,14
15,test,2,1.0,1-Back,1,z,Tue Jan 14 2025 14:24:16 GMT-0600 (Central Standard Time),292606.90000003576,046_o_m_n_a.png,I,z,527,16,1,1547.300000011921,291059.60000002384,8014,NNB,A,15
16,test,2,0.0,1-Back,1,m,Tue Jan 14 2025 14:24:16 GMT-0600 (Central Standard Time),294523.7000000477,008_y_m_n_a.png,I,m,897,17,1,1914.2000000476837,292609.5,8014,NNB,A,16
17,test,2,1.0,1-Back,1,z,Tue Jan 14 2025 14:24:16 GMT-0600 (Central Standard Time),296389.10000002384,008_y_m_n_a.png,I,z,837,18,1,1863.0,294526.10000002384,8014,NNB,A,17
0,test,3,1.0,1-Back,,,Tue Jan 14 2025 14:24:16 GMT-0600 (Central Standard Time),296389.10000002384,010_y_f_n_a.png,I,space,1884,1,1,1863.0,294526.10000002384,8014,NNB,A,0
1,test,3,0.0,1-Back,1,m,Tue Jan 14 2025 14:24:16 GMT-0600 (Central Standard Time),302236.90000003576,046_o_m_n_a.png,I,m,864,2,1,1880.0,300356.90000003576,8014,NNB,A,1
2,test,3,1.0,1-Back,1,z,Tue Jan 14 2025 14:24:16 GMT-0600 (Central Standard Time),303953.0,046_o_m_n_a.png,I,z,691,3,1,1713.699999988079,302239.3000000119,8014,NNB,A,2
3,test,3,0.0,1-Back,1,m,Tue Jan 14 2025 14:24:16 GMT-0600 (Central Standard Time),305702.8000000119,050_m_f_n_a.png,I,m,726,4,1,1747.0999999642372,303955.7000000477,8014,NNB,A,3
4,test,3,1.0,1-Back,1,z,Tue Jan 14 2025 14:24:16 GMT-0600 (Central Standard Time),307502.3000000119,050_m_f_n_a.png,I,z,777,5,1,1797.0,305705.3000000119,8014,NNB,A,4
5,test,3,0.0,1-Back,1,m,Tue Jan 14 2025 14:24:16 GMT-0600 (Central Standard Time),309301.7000000477,044_o_f_n_a.png,I,m,770,6,1,1796.9000000357628,307504.8000000119,8014,NNB,A,5
6,test,3,0.0,1-Back,1,m,Tue Jan 14 2025 14:24:16 GMT-0600 (Central Standard Time),311067.90000003576,041_y_m_n_a.png,I,m,746,7,1,1763.800000011921,309304.10000002384,8014,NNB,A,6
7,test,3,0.0,1-Back,1,m,Tue Jan 14 2025 14:24:16 GMT-0600 (Central Standard Time),312800.7000000477,044_o_f_n_a.png,I,m,708,8,1,1730.2000000476837,311070.5,8014,NNB,A,7
8,test,3,0.0,1-Back,1,m,Tue Jan 14 2025 14:24:16 GMT-0600 (Central Standard Time),314516.7000000477,008_y_m_n_a.png,I,m,687,9,1,1713.6000000238419,312803.10000002384,8014,NNB,A,8
9,test,3,1.0,1-Back,1,z,Tue Jan 14 2025 14:24:16 GMT-0600 (Central Standard Time),315982.90000003576,008_y_m_n_a.png,I,z,435,10,1,1463.5,314519.40000003576,8014,NNB,A,9
10,test,3,0.0,1-Back,1,m,Tue Jan 14 2025 14:24:16 GMT-0600 (Central Standard Time),317749.0,043_m_f_n_a.png,I,m,737,11,1,1763.3999999761581,315985.60000002384,8014,NNB,A,10
11,test,3,0.0,1-Back,1,m,Tue Jan 14 2025 14:24:16 GMT-0600 (Central Standard Time),319681.90000003576,063_y_f_n_a.png,I,m,907,12,1,1930.5,317751.40000003576,8014,NNB,A,11
12,test,3,1.0,1-Back,1,z,Tue Jan 14 2025 14:24:16 GMT-0600 (Central Standard Time),321314.40000003576,063_y_f_n_a.png,I,z,606,13,1,1630.0,319684.40000003576,8014,NNB,A,12
13,test,3,0.0,1-Back,1,m,Tue Jan 14 2025 14:24:16 GMT-0600 (Central Standard Time),323130.7000000477,043_m_f_n_a.png,I,m,781,14,1,1813.800000011921,321316.90000003576,8014,NNB,A,13
14,test,3,0.0,1-Back,1,m,Tue Jan 14 2025 14:24:16 GMT-0600 (Central Standard Time),324930.0,058_m_m_n_a.png,I,m,773,15,1,1796.699999988079,323133.3000000119,8014,NNB,A,14
15,test,3,1.0,1-Back,1,z,Tue Jan 14 2025 14:24:16 GMT-0600 (Central Standard Time),326612.90000003576,058_m_m_n_a.png,I,z,660,16,1,1680.4000000357628,324932.5,8014,NNB,A,15
16,test,3,0.0,1-Back,1,m,Tue Jan 14 2025 14:24:16 GMT-0600 (Central Standard Time),328479.0,047_o_f_n_a.png,I,m,835,17,1,1863.5999999642372,326615.40000003576,8014,NNB,A,16
17,test,3,1.0,1-Back,1,z,Tue Jan 14 2025 14:24:16 GMT-0600 (Central Standard Time),330261.7000000477,047_o_f_n_a.png,I,z,753,18,1,1780.2000000476837,328481.5,8014,NNB,A,17
0,test,4,1.0,1-Back,,,Tue Jan 14 2025 14:24:16 GMT-0600 (Central Standard Time),330261.7000000477,050_m_f_n_a.png,I,space,1715,1,1,1780.2000000476837,328481.5,8014,NNB,A,0
1,test,4,0.0,1-Back,1,m,Tue Jan 14 2025 14:24:16 GMT-0600 (Central Standard Time),335726.8000000119,046_o_m_n_a.png,I,m,685,2,1,1713.5999999642372,334013.2000000477,8014,NNB,A,1
2,test,4,0.0,1-Back,1,m,Tue Jan 14 2025 14:24:16 GMT-0600 (Central Standard Time),337676.10000002384,050_m_f_n_a.png,I,m,929,3,1,1947.0,335729.10000002384,8014,NNB,A,2
3,test,4,0.0,1-Back,1,m,Tue Jan 14 2025 14:24:16 GMT-0600 (Central Standard Time),339309.10000002384,044_o_f_n_a.png,I,m,612,4,1,1630.6000000238419,337678.5,8014,NNB,A,3
4,test,4,1.0,1-Back,1,z,Tue Jan 14 2025 14:24:16 GMT-0600 (Central Standard Time),340876.10000002384,044_o_f_n_a.png,I,z,547,5,1,1564.6000000238419,339311.5,8014,NNB,A,4
5,test,4,0.0,1-Back,1,m,Tue Jan 14 2025 14:24:16 GMT-0600 (Central Standard Time),342741.2000000477,063_y_f_n_a.png,I,m,837,6,1,1862.5,340878.7000000477,8014,NNB,A,5
6,test,4,0.0,1-Back,1,m,Tue Jan 14 2025 14:24:16 GMT-0600 (Central Standard Time),344457.10000002384,041_y_m_n_a.png,I,m,691,7,1,1713.300000011921,342743.8000000119,8014,NNB,A,6
7,test,4,1.0,1-Back,1,z,Tue Jan 14 2025 14:24:16 GMT-0600 (Central Standard Time),346140.0,041_y_m_n_a.png,I,z,655,8,1,1680.2999999523163,344459.7000000477,8014,NNB,A,7
8,test,4,0.0,1-Back,1,m,Tue Jan 14 2025 14:24:16 GMT-0600 (Central Standard Time),347889.5,063_y_f_n_a.png,I,m,716,9,1,1747.0,346142.5,8014,NNB,A,8
9,test,4,0.0,1-Back,1,m,Tue Jan 14 2025 14:24:16 GMT-0600 (Central Standard Time),349605.60000002384,045_m_m_n_a.png,I,m,694,10,1,1713.3999999761581,347892.2000000477,8014,NNB,A,9
10,test,4,1.0,1-Back,1,z,Tue Jan 14 2025 14:24:16 GMT-0600 (Central Standard Time),351121.8000000119,045_m_m_n_a.png,I,z,490,11,1,1513.800000011921,349608.0,8014,NNB,A,10
11,test,4,0.0,1-Back,1,m,Tue Jan 14 2025 14:24:16 GMT-0600 (Central Standard Time),352771.5,047_o_f_n_a.png,I,m,622,12,1,1647.2999999523163,351124.2000000477,8014,NNB,A,11
12,test,4,0.0,1-Back,1,m,Tue Jan 14 2025 14:24:16 GMT-0600 (Central Standard Time),354520.8000000119,053_o_m_n_a.png,I,m,725,13,1,1746.5999999642372,352774.2000000477,8014,NNB,A,12
13,test,4,0.0,1-Back,1,m,Tue Jan 14 2025 14:24:16 GMT-0600 (Central Standard Time),356204.7000000477,047_o_f_n_a.png,I,m,663,14,1,1680.7000000476837,354524.0,8014,NNB,A,13
14,test,4,0.0,1-Back,1,m,Tue Jan 14 2025 14:24:16 GMT-0600 (Central Standard Time),357903.0,010_y_f_n_a.png,I,m,676,15,1,1695.5,356207.5,8014,NNB,A,14
15,test,4,1.0,1-Back,1,z,Tue Jan 14 2025 14:24:16 GMT-0600 (Central Standard Time),359469.10000002384,010_y_f_n_a.png,I,z,537,16,1,1563.699999988079,357905.40000003576,8014,NNB,A,15
16,test,4,0.0,1-Back,1,m,Tue Jan 14 2025 14:24:16 GMT-0600 (Central Standard Time),361118.7000000477,043_m_f_n_a.png,I,m,619,17,1,1647.0,359471.7000000477,8014,NNB,A,16
17,test,4,1.0,1-Back,1,z,Tue Jan 14 2025 14:24:16 GMT-0600 (Central Standard Time),363217.90000003576,043_m_f_n_a.png,I,z,1065,18,1,2097.0,361120.90000003576,8014,NNB,A,17
0,test,5,1.0,1-Back,,,Tue Jan 14 2025 14:24:16 GMT-0600 (Central Standard Time),363217.90000003576,053_o_m_n_a.png,I,space,2015,1,1,2097.0,361120.90000003576,8014,NNB,A,0
1,test,5,1.0,1-Back,1,z,Tue Jan 14 2025 14:24:16 GMT-0600 (Central Standard Time),369049.40000003576,053_o_m_n_a.png,I,z,766,2,1,1797.0,367252.40000003576,8014,NNB,A,1
2,test,5,0.0,1-Back,1,m,Tue Jan 14 2025 14:24:16 GMT-0600 (Central Standard Time),370715.90000003576,063_y_f_n_a.png,I,m,646,3,1,1664.0,369051.90000003576,8014,NNB,A,2
3,test,5,0.0,1-Back,1,m,Tue Jan 14 2025 14:24:16 GMT-0600 (Central Standard Time),372398.40000003576,041_y_m_n_a.png,I,m,660,4,1,1680.300000011921,370718.10000002384,8014,NNB,A,3
4,test,5,0.0,1-Back,1,m,Tue Jan 14 2025 14:24:16 GMT-0600 (Central Standard Time),374398.0,063_y_f_n_a.png,I,m,970,5,1,1996.8999999761581,372401.10000002384,8014,NNB,A,4
5,test,5,0.0,1-Back,1,m,Tue Jan 14 2025 14:24:16 GMT-0600 (Central Standard Time),376064.10000002384,058_m_m_n_a.png,I,m,642,6,1,1663.8999999761581,374400.2000000477,8014,NNB,A,5
6,test,5,1.0,1-Back,1,z,Tue Jan 14 2025 14:24:16 GMT-0600 (Central Standard Time),377663.5,058_m_m_n_a.png,I,z,576,7,1,1597.0,376066.5,8014,NNB,A,6
7,test,5,0.0,1-Back,1,m,Tue Jan 14 2025 14:24:16 GMT-0600 (Central Standard Time),379529.8000000119,010_y_f_n_a.png,I,m,833,8,1,1863.699999988079,377666.10000002384,8014,NNB,A,7
8,test,5,0.0,1-Back,1,m,Tue Jan 14 2025 14:24:16 GMT-0600 (Central Standard Time),381212.40000003576,008_y_m_n_a.png,I,m,654,9,1,1680.1000000238419,379532.3000000119,8014,NNB,A,8
9,test,5,0.0,1-Back,1,m,Tue Jan 14 2025 14:24:16 GMT-0600 (Central Standard Time),382895.10000002384,010_y_f_n_a.png,I,m,652,10,1,1680.1000000238419,381215.0,8014,NNB,A,9
10,test,5,0.0,1-Back,1,m,Tue Jan 14 2025 14:24:16 GMT-0600 (Central Standard Time),384528.3000000119,047_o_f_n_a.png,I,m,600,11,1,1630.300000011921,382898.0,8014,NNB,A,10
11,test,5,1.0,1-Back,1,z,Tue Jan 14 2025 14:24:16 GMT-0600 (Central Standard Time),386211.0,047_o_f_n_a.png,I,z,656,12,1,1680.3999999761581,384530.60000002384,8014,NNB,A,11
12,test,5,0.0,1-Back,1,m,Tue Jan 14 2025 14:24:16 GMT-0600 (Central Standard Time),387993.60000002384,046_o_m_n_a.png,I,m,757,13,1,1779.699999988079,386213.90000003576,8014,NNB,A,12
13,test,5,0.0,1-Back,1,m,Tue Jan 14 2025 14:24:16 GMT-0600 (Central Standard Time),389626.40000003576,050_m_f_n_a.png,I,m,614,14,1,1630.300000011921,387996.10000002384,8014,NNB,A,13
14,test,5,1.0,1-Back,1,z,Tue Jan 14 2025 14:24:16 GMT-0600 (Central Standard Time),391325.90000003576,050_m_f_n_a.png,I,z,669,15,1,1697.300000011921,389628.60000002384,8014,NNB,A,14
15,test,5,0.0,1-Back,1,m,Tue Jan 14 2025 14:24:16 GMT-0600 (Central Standard Time),393025.40000003576,046_o_m_n_a.png,I,m,674,16,1,1697.1000000238419,391328.3000000119,8014,NNB,A,15
16,test,5,0.0,1-Back,1,m,Tue Jan 14 2025 14:24:16 GMT-0600 (Central Standard Time),394824.90000003576,043_m_f_n_a.png,I,m,775,17,1,1797.0,393027.90000003576,8014,NNB,A,16
17,test,5,0.0,1-Back,1,m,Tue Jan 14 2025 14:24:16 GMT-0600 (Central Standard Time),396575.2000000477,045_m_m_n_a.png,I,m,716,18,1,1748.0,394827.2000000477,8014,NNB,A,17
0,prac,1,0.0,2-Back,,,Tue Jan 14 2025 14:24:16 GMT-0600 (Central Standard Time),396575.2000000477,008_y_m_n_a.png,I,space,8992,1,1,1748.0,394827.2000000477,8014,NNB,A,0
0,prac,1,0.0,2-Back,,,Tue Jan 14 2025 14:24:16 GMT-0600 (Central Standard Time),396575.2000000477,043_m_f_n_a.png,I,space,8992,2,1,1748.0,394827.2000000477,8014,NNB,A,0
1,prac,1,1.0,2-Back,1,m,Tue Jan 14 2025 14:24:16 GMT-0600 (Central Standard Time),516553.40000003576,046_o_m_n_a.png,I,m,1103,3,1,1895.5,514657.90000003576,8014,NNB,A,1
1,prac,1,0.0,2-Back,0,m,Tue Jan 14 2025 14:24:16 GMT-0600 (Central Standard Time),519385.60000002384,047_o_f_n_a.png,I,None,2002,4,1,2827.100000023842,516558.5,8014,NNB,A,2
1,prac,1,0.0,2-Back,0,z,Tue Jan 14 2025 14:24:16 GMT-0600 (Central Standard Time),521535.2000000477,046_o_m_n_a.png,I,m,1371,5,1,2146.0,519389.2000000477,8014,NNB,A,3
2,prac,1,1.0,2-Back,1,z,Tue Jan 14 2025 14:24:16 GMT-0600 (Central Standard Time),523684.40000003576,047_o_f_n_a.png,I,z,1366,6,1,2146.0,521538.40000003576,8014,NNB,A,4
3,prac,1,0.0,2-Back,1,m,Tue Jan 14 2025 14:24:16 GMT-0600 (Central Standard Time),526200.3000000119,045_m_m_n_a.png,I,m,1705,7,1,2512.399999976158,523687.90000003576,8014,NNB,A,5
4,prac,1,0.0,2-Back,1,m,Tue Jan 14 2025 14:24:16 GMT-0600 (Central Standard Time),527916.5,053_o_m_n_a.png,I,m,909,8,1,1713.0,526203.5,8014,NNB,A,6
5,prac,1,0.0,2-Back,1,m,Tue Jan 14 2025 14:24:16 GMT-0600 (Central Standard Time),530099.1000000238,010_y_f_n_a.png,I,m,1354,9,1,2177.399999976158,527921.7000000477,8014,NNB,A,7
5,prac,1,1.0,2-Back,0,z,Tue Jan 14 2025 14:24:16 GMT-0600 (Central Standard Time),531965.2000000477,053_o_m_n_a.png,I,m,1082,10,1,1862.7000000476837,530102.5,8014,NNB,A,8
5,prac,1,0.0,2-Back,0,m,Tue Jan 14 2025 14:24:16 GMT-0600 (Central Standard Time),534514.5,063_y_f_n_a.png,I,z,1745,11,1,2546.199999988079,531968.3000000119,8014,NNB,A,9
6,prac,1,0.0,2-Back,1,m,Tue Jan 14 2025 14:24:16 GMT-0600 (Central Standard Time),536413.9000000358,045_m_m_n_a.png,I,m,1122,12,1,1895.9000000357628,534518.0,8014,NNB,A,10
0,prac,2,0.0,2-Back,,,Tue Jan 14 2025 14:24:16 GMT-0600 (Central Standard Time),536413.9000000358,008_y_m_n_a.png,I,a,51407,1,1,1895.9000000357628,534518.0,8014,NNB,A,0
0,prac,2,0.0,2-Back,,,Tue Jan 14 2025 14:24:16 GMT-0600 (Central Standard Time),536413.9000000358,043_m_f_n_a.png,I,a,51407,2,1,1895.9000000357628,534518.0,8014,NNB,A,0
1,prac,2,1.0,2-Back,1,m,Tue Jan 14 2025 14:24:16 GMT-0600 (Central Standard Time),594928.9000000358,046_o_m_n_a.png,I,m,1174,3,1,1979.6000000238419,592949.3000000119,8014,NNB,A,1
2,prac,2,0.0,2-Back,1,m,Tue Jan 14 2025 14:24:16 GMT-0600 (Central Standard Time),597544.6000000238,047_o_f_n_a.png,I,m,1772,4,1,2612.399999976158,594932.2000000477,8014,NNB,A,2
2,prac,2,0.0,2-Back,0,z,Tue Jan 14 2025 14:24:16 GMT-0600 (Central Standard Time),600060.6000000238,046_o_m_n_a.png,I,m,1741,5,1,2512.699999988079,597547.9000000358,8014,NNB,A,3
2,prac,2,1.0,2-Back,0,z,Tue Jan 14 2025 14:24:16 GMT-0600 (Central Standard Time),602843.0,047_o_f_n_a.png,I,None,2010,6,1,2778.899999976158,600064.1000000238,8014,NNB,A,4
2,prac,2,0.0,2-Back,0,m,Tue Jan 14 2025 14:24:16 GMT-0600 (Central Standard Time),604775.7000000477,045_m_m_n_a.png,I,z,1130,7,1,1929.2000000476837,602846.5,8014,NNB,A,5
3,prac,2,0.0,2-Back,1,m,Tue Jan 14 2025 14:24:16 GMT-0600 (Central Standard Time),606875.1000000238,053_o_m_n_a.png,I,m,1293,8,1,2095.800000011921,604779.3000000119,8014,NNB,A,6
4,prac,2,0.0,2-Back,1,m,Tue Jan 14 2025 14:24:16 GMT-0600 (Central Standard Time),609341.0,010_y_f_n_a.png,I,m,1638,9,1,2462.399999976158,606878.6000000238,8014,NNB,A,7
5,prac,2,1.0,2-Back,1,z,Tue Jan 14 2025 14:24:16 GMT-0600 (Central Standard Time),611240.4000000358,053_o_m_n_a.png,I,z,1120,10,1,1896.1000000238419,609344.3000000119,8014,NNB,A,8
6,prac,2,0.0,2-Back,1,m,Tue Jan 14 2025 14:24:16 GMT-0600 (Central Standard Time),613089.8000000119,063_y_f_n_a.png,I,m,1037,11,1,1845.8999999761581,611243.9000000358,8014,NNB,A,9
6,prac,2,0.0,2-Back,0,m,Tue Jan 14 2025 14:24:16 GMT-0600 (Central Standard Time),615688.9000000358,045_m_m_n_a.png,I,z,1819,12,1,2595.900000035763,613093.0,8014,NNB,A,10
0,test,1,0.0,2-Back,,,Tue Jan 14 2025 14:24:16 GMT-0600 (Central Standard Time),615688.9000000358,041_y_m_n_a.png,I,space,14448,1,1,2595.900000035763,613093.0,8014,NNB,A,0
0,test,1,0.0,2-Back,,,Tue Jan 14 2025 14:24:16 GMT-0600 (Central Standard Time),615688.9000000358,041_y_m_n_a.png,I,space,14448,2,1,2595.900000035763,613093.0,8014,NNB,A,0
1,test,1,0.0,2-Back,1,m,Tue Jan 14 2025 14:24:16 GMT-0600 (Central Standard Time),646362.5,047_o_f_n_a.png,I,m,1063,3,1,2080.399999976158,644282.1000000238,8014,NNB,A,1
2,test,1,0.0,2-Back,1,m,Tue Jan 14 2025 14:24:16 GMT-0600 (Central Standard Time),648428.7000000477,058_m_m_n_a.png,I,m,1037,4,1,2064.100000023842,646364.6000000238,8014,NNB,A,2
3,test,1,1.0,2-Back,1,z,Tue Jan 14 2025 14:24:16 GMT-0600 (Central Standard Time),650711.3000000119,047_o_f_n_a.png,I,z,1259,5,1,2280.300000011921,648431.0,8014,NNB,A,3
4,test,1,0.0,2-Back,1,m,Tue Jan 14 2025 14:24:16 GMT-0600 (Central Standard Time),652644.2000000477,063_y_f_n_a.png,I,m,905,6,1,1930.5,650713.7000000477,8014,NNB,A,4
4,test,1,0.0,2-Back,0,m,Tue Jan 14 2025 14:24:16 GMT-0600 (Central Standard Time),654826.5,058_m_m_n_a.png,I,z,1164,7,1,2179.699999988079,652646.8000000119,8014,NNB,A,5
5,test,1,1.0,2-Back,1,z,Tue Jan 14 2025 14:24:16 GMT-0600 (Central Standard Time),657725.7000000477,063_y_f_n_a.png,I,z,1877,8,1,2897.2000000476837,654828.5,8014,NNB,A,6
6,test,1,0.0,2-Back,1,m,Tue Jan 14 2025 14:24:16 GMT-0600 (Central Standard Time),660125.0,008_y_m_n_a.png,I,m,1378,9,1,2397.0,657728.0,8014,NNB,A,7
7,test,1,0.0,2-Back,1,m,Tue Jan 14 2025 14:24:16 GMT-0600 (Central Standard Time),662807.6000000238,044_o_f_n_a.png,I,m,1651,10,1,2680.199999988079,660127.4000000358,8014,NNB,A,8
8,test,1,1.0,2-Back,1,z,Tue Jan 14 2025 14:24:16 GMT-0600 (Central Standard Time),665206.7000000477,008_y_m_n_a.png,I,z,1369,11,1,2396.600000023842,662810.1000000238,8014,NNB,A,9
9,test,1,0.0,2-Back,1,m,Tue Jan 14 2025 14:24:16 GMT-0600 (Central Standard Time),667473.0,043_m_f_n_a.png,I,m,1234,12,1,2263.899999976158,665209.1000000238,8014,NNB,A,10
9,test,1,0.0,2-Back,0,m,Tue Jan 14 2025 14:24:16 GMT-0600 (Central Standard Time),670506.2000000477,043_m_f_n_a.png,I,None,2015,13,1,3030.900000035763,667475.3000000119,8014,NNB,A,11
10,test,1,0.0,2-Back,1,m,Tue Jan 14 2025 14:24:16 GMT-0600 (Central Standard Time),672621.1000000238,046_o_m_n_a.png,I,m,1095,14,1,2112.399999976158,670508.7000000477,8014,NNB,A,12
10,test,1,0.0,2-Back,0,m,Tue Jan 14 2025 14:24:16 GMT-0600 (Central Standard Time),674786.7000000477,044_o_f_n_a.png,I,z,1139,15,1,2163.300000011921,672623.4000000358,8014,NNB,A,13
10,test,1,1.0,2-Back,0,z,Tue Jan 14 2025 14:24:16 GMT-0600 (Central Standard Time),677169.6000000238,046_o_m_n_a.png,I,m,1356,16,1,2380.300000011921,674789.3000000119,8014,NNB,A,14
11,test,1,0.0,2-Back,1,m,Tue Jan 14 2025 14:24:16 GMT-0600 (Central Standard Time),679302.5,050_m_f_n_a.png,I,m,1102,17,1,2130.5,677172.0,8014,NNB,A,15
12,test,1,0.0,2-Back,1,m,Tue Jan 14 2025 14:24:16 GMT-0600 (Central Standard Time),681434.8000000119,045_m_m_n_a.png,I,m,1114,18,1,2129.899999976158,679304.9000000358,8014,NNB,A,16
0,test,2,0.0,2-Back,,,Tue Jan 14 2025 14:24:16 GMT-0600 (Central Standard Time),681434.8000000119,045_m_m_n_a.png,I,space,2070,1,1,2129.899999976158,679304.9000000358,8014,NNB,A,0
0,test,2,0.0,2-Back,,,Tue Jan 14 2025 14:24:16 GMT-0600 (Central Standard Time),681434.8000000119,010_y_f_n_a.png,I,space,2070,2,1,2129.899999976158,679304.9000000358,8014,NNB,A,0
1,test,2,1.0,2-Back,1,z,Tue Jan 14 2025 14:24:16 GMT-0600 (Central Standard Time),690732.1000000238,045_m_m_n_a.png,I,z,1087,3,1,2113.699999988079,688618.4000000358,8014,NNB,A,1
2,test,2,0.0,2-Back,1,m,Tue Jan 14 2025 14:24:16 GMT-0600 (Central Standard Time),692564.9000000358,050_m_f_n_a.png,I,m,804,4,1,1830.300000011921,690734.6000000238,8014,NNB,A,2
2,test,2,0.0,2-Back,0,m,Tue Jan 14 2025 14:24:16 GMT-0600 (Central Standard Time),694980.7000000477,010_y_f_n_a.png,I,z,1395,5,1,2413.400000035763,692567.3000000119,8014,NNB,A,3
3,test,2,0.0,2-Back,1,m,Tue Jan 14 2025 14:24:16 GMT-0600 (Central Standard Time),696796.8000000119,046_o_m_n_a.png,I,m,795,6,1,1813.5999999642372,694983.2000000477,8014,NNB,A,4
4,test,2,0.0,2-Back,1,m,Tue Jan 14 2025 14:24:16 GMT-0600 (Central Standard Time),698779.6000000238,063_y_f_n_a.png,I,m,963,7,1,1980.199999988079,696799.4000000358,8014,NNB,A,5
5,test,2,1.0,2-Back,1,z,Tue Jan 14 2025 14:24:16 GMT-0600 (Central Standard Time),701078.7000000477,046_o_m_n_a.png,I,z,1275,8,1,2296.800000011921,698781.9000000358,8014,NNB,A,6
6,test,2,0.0,2-Back,1,m,Tue Jan 14 2025 14:24:16 GMT-0600 (Central Standard Time),703661.4000000358,008_y_m_n_a.png,I,m,1561,9,1,2580.300000011921,701081.1000000238,8014,NNB,A,7
7,test,2,0.0,2-Back,1,m,Tue Jan 14 2025 14:24:16 GMT-0600 (Central Standard Time),706493.8000000119,008_y_m_n_a.png,I,m,1803,10,1,2830.199999988079,703663.6000000238,8014,NNB,A,8
8,test,2,0.0,2-Back,1,m,Tue Jan 14 2025 14:24:16 GMT-0600 (Central Standard Time),708626.3000000119,043_m_f_n_a.png,I,m,1098,11,1,2130.099999964237,706496.2000000477,8014,NNB,A,9
8,test,2,0.0,2-Back,0,m,Tue Jan 14 2025 14:24:16 GMT-0600 (Central Standard Time),710642.1000000238,010_y_f_n_a.png,I,z,998,12,1,2013.5,708628.6000000238,8014,NNB,A,10
8,test,2,1.0,2-Back,0,z,Tue Jan 14 2025 14:24:16 GMT-0600 (Central Standard Time),713408.0,043_m_f_n_a.png,I,m,1742,13,1,2763.399999976158,710644.6000000238,8014,NNB,A,11
9,test,2,0.0,2-Back,1,m,Tue Jan 14 2025 14:24:16 GMT-0600 (Central Standard Time),715341.0,053_o_m_n_a.png,I,m,912,14,1,1930.7999999523163,713410.2000000477,8014,NNB,A,12
9,test,2,0.0,2-Back,0,m,Tue Jan 14 2025 14:24:16 GMT-0600 (Central Standard Time),718373.4000000358,053_o_m_n_a.png,I,None,2014,15,1,3029.600000023842,715343.8000000119,8014,NNB,A,13
10,test,2,0.0,2-Back,1,m,Tue Jan 14 2025 14:24:16 GMT-0600 (Central Standard Time),720239.5,044_o_f_n_a.png,I,m,842,16,1,1863.699999988079,718375.8000000119,8014,NNB,A,14
11,test,2,0.0,2-Back,1,m,Tue Jan 14 2025 14:24:16 GMT-0600 (Central Standard Time),722238.9000000358,058_m_m_n_a.png,I,m,977,17,1,1997.0,720241.9000000358,8014,NNB,A,15
12,test,2,1.0,2-Back,1,z,Tue Jan 14 2025 14:24:16 GMT-0600 (Central Standard Time),724038.4000000358,044_o_f_n_a.png,I,z,777,18,1,1797.1000000238419,722241.3000000119,8014,NNB,A,16
0,test,3,1.0,2-Back,,,Tue Jan 14 2025 14:24:16 GMT-0600 (Central Standard Time),724038.4000000358,041_y_m_n_a.png,I,space,1939,1,1,1797.1000000238419,722241.3000000119,8014,NNB,A,0
0,test,3,1.0,2-Back,,,Tue Jan 14 2025 14:24:16 GMT-0600 (Central Standard Time),724038.4000000358,041_y_m_n_a.png,I,space,1939,2,1,1797.1000000238419,722241.3000000119,8014,NNB,A,0
1,test,3,0.0,2-Back,1,m,Tue Jan 14 2025 14:24:16 GMT-0600 (Central Standard Time),733001.9000000358,044_o_f_n_a.png,I,m,915,3,1,1946.9000000357628,731055.0,8014,NNB,A,1
2,test,3,0.0,2-Back,1,m,Tue Jan 14 2025 14:24:16 GMT-0600 (Central Standard Time),734885.0,045_m_m_n_a.png,I,m,862,4,1,1880.5999999642372,733004.4000000358,8014,NNB,A,2
3,test,3,1.0,2-Back,1,z,Tue Jan 14 2025 14:24:16 GMT-0600 (Central Standard Time),736701.0,044_o_f_n_a.png,I,z,787,5,1,1812.2999999523163,734888.7000000477,8014,NNB,A,3
4,test,3,0.0,2-Back,1,m,Tue Jan 14 2025 14:24:16 GMT-0600 (Central Standard Time),738733.8000000119,008_y_m_n_a.png,I,m,1011,6,1,2030.5,736703.3000000119,8014,NNB,A,4
4,test,3,0.0,2-Back,0,m,Tue Jan 14 2025 14:24:16 GMT-0600 (Central Standard Time),740533.1000000238,045_m_m_n_a.png,I,z,778,7,1,1797.1000000238419,738736.0,8014,NNB,A,5
5,test,3,1.0,2-Back,1,z,Tue Jan 14 2025 14:24:16 GMT-0600 (Central Standard Time),743015.5,008_y_m_n_a.png,I,z,1451,8,1,2479.7999999523163,740535.7000000477,8014,NNB,A,6
6,test,3,0.0,2-Back,1,m,Tue Jan 14 2025 14:24:16 GMT-0600 (Central Standard Time),744815.1000000238,010_y_f_n_a.png,I,m,769,9,1,1797.1000000238419,743018.0,8014,NNB,A,7
7,test,3,0.0,2-Back,1,m,Tue Jan 14 2025 14:24:16 GMT-0600 (Central Standard Time),746831.1000000238,058_m_m_n_a.png,I,m,985,10,1,2013.6000000238419,744817.5,8014,NNB,A,8
8,test,3,1.0,2-Back,1,z,Tue Jan 14 2025 14:24:16 GMT-0600 (Central Standard Time),748614.0,010_y_f_n_a.png,I,z,761,11,1,1780.7999999523163,746833.2000000477,8014,NNB,A,9
9,test,3,1.0,2-Back,1,z,Tue Jan 14 2025 14:24:16 GMT-0600 (Central Standard Time),751346.3000000119,058_m_m_n_a.png,I,z,1574,12,1,2729.800000011921,748616.5,8014,NNB,A,10
10,test,3,0.0,2-Back,1,m,Tue Jan 14 2025 14:24:16 GMT-0600 (Central Standard Time),753462.5,044_o_f_n_a.png,I,m,1086,13,1,2113.7999999523163,751348.7000000477,8014,NNB,A,11
11,test,3,0.0,2-Back,1,m,Tue Jan 14 2025 14:24:16 GMT-0600 (Central Standard Time),755378.4000000358,050_m_f_n_a.png,I,m,897,14,1,1913.699999988079,753464.7000000477,8014,NNB,A,12
12,test,3,0.0,2-Back,1,m,Tue Jan 14 2025 14:24:16 GMT-0600 (Central Standard Time),757111.3000000119,046_o_m_n_a.png,I,m,701,15,1,1730.5999999642372,755380.7000000477,8014,NNB,A,13
13,test,3,1.0,2-Back,1,z,Tue Jan 14 2025 14:24:16 GMT-0600 (Central Standard Time),759043.9000000358,050_m_f_n_a.png,I,z,905,16,1,1930.300000011921,757113.6000000238,8014,NNB,A,14
14,test,3,0.0,2-Back,1,m,Tue Jan 14 2025 14:24:16 GMT-0600 (Central Standard Time),760960.1000000238,047_o_f_n_a.png,I,m,884,17,1,1913.8999999761581,759046.2000000477,8014,NNB,A,15
15,test,3,0.0,2-Back,1,m,Tue Jan 14 2025 14:24:16 GMT-0600 (Central Standard Time),763042.5,047_o_f_n_a.png,I,m,1064,18,1,2080.099999964237,760962.4000000358,8014,NNB,A,16
0,test,4,0.0,2-Back,,,Tue Jan 14 2025 14:24:16 GMT-0600 (Central Standard Time),763042.5,053_o_m_n_a.png,I,space,1679,1,1,2080.099999964237,760962.4000000358,8014,NNB,A,0
0,test,4,0.0,2-Back,,,Tue Jan 14 2025 14:24:16 GMT-0600 (Central Standard Time),763042.5,063_y_f_n_a.png,I,space,1679,2,1,2080.099999964237,760962.4000000358,8014,NNB,A,0
1,test,4,1.0,2-Back,1,z,Tue Jan 14 2025 14:24:16 GMT-0600 (Central Standard Time),771806.7000000477,053_o_m_n_a.png,I,z,960,3,1,1980.5,769826.2000000477,8014,NNB,A,1
2,test,4,1.0,2-Back,1,z,Tue Jan 14 2025 14:24:16 GMT-0600 (Central Standard Time),773922.6000000238,063_y_f_n_a.png,I,z,1089,4,1,2113.600000023842,771809.0,8014,NNB,A,2
3,test,4,0.0,2-Back,1,m,Tue Jan 14 2025 14:24:16 GMT-0600 (Central Standard Time),775689.0,044_o_f_n_a.png,I,m,741,5,1,1763.7999999523163,773925.2000000477,8014,NNB,A,3
4,test,4,0.0,2-Back,1,m,Tue Jan 14 2025 14:24:16 GMT-0600 (Central Standard Time),777838.1000000238,044_o_f_n_a.png,I,m,1119,6,1,2146.600000023842,775691.5,8014,NNB,A,4
5,test,4,0.0,2-Back,1,m,Tue Jan 14 2025 14:24:16 GMT-0600 (Central Standard Time),779887.4000000358,043_m_f_n_a.png,I,m,1026,7,1,2046.6000000238419,777840.8000000119,8014,NNB,A,5
6,test,4,0.0,2-Back,1,m,Tue Jan 14 2025 14:24:16 GMT-0600 (Central Standard Time),781653.5,008_y_m_n_a.png,I,m,744,8,1,1763.699999988079,779889.8000000119,8014,NNB,A,6
7,test,4,1.0,2-Back,1,z,Tue Jan 14 2025 14:24:16 GMT-0600 (Central Standard Time),783386.4000000358,043_m_f_n_a.png,I,z,707,9,1,1730.5,781655.9000000358,8014,NNB,A,7
8,test,4,0.0,2-Back,1,m,Tue Jan 14 2025 14:24:16 GMT-0600 (Central Standard Time),785202.3000000119,058_m_m_n_a.png,I,m,782,10,1,1813.5999999642372,783388.7000000477,8014,NNB,A,8
8,test,4,0.0,2-Back,0,m,Tue Jan 14 2025 14:24:16 GMT-0600 (Central Standard Time),786968.5,008_y_m_n_a.png,I,z,734,11,1,1763.5999999642372,785204.9000000358,8014,NNB,A,9
9,test,4,0.0,2-Back,1,m,Tue Jan 14 2025 14:24:16 GMT-0600 (Central Standard Time),788784.6000000238,047_o_f_n_a.png,I,m,791,12,1,1813.5,786971.1000000238,8014,NNB,A,10
10,test,4,0.0,2-Back,1,m,Tue Jan 14 2025 14:24:16 GMT-0600 (Central Standard Time),790867.2000000477,041_y_m_n_a.png,I,m,1055,13,1,2080.100000023842,788787.1000000238,8014,NNB,A,11
11,test,4,1.0,2-Back,1,z,Tue Jan 14 2025 14:24:16 GMT-0600 (Central Standard Time),792600.1000000238,047_o_f_n_a.png,I,z,701,14,1,1730.1000000238419,790870.0,8014,NNB,A,12
12,test,4,1.0,2-Back,1,z,Tue Jan 14 2025 14:24:16 GMT-0600 (Central Standard Time),794749.4000000358,041_y_m_n_a.png,I,z,1120,15,1,2147.100000023842,792602.3000000119,8014,NNB,A,13
13,test,4,0.0,2-Back,1,m,Tue Jan 14 2025 14:24:16 GMT-0600 (Central Standard Time),796682.3000000119,045_m_m_n_a.png,I,m,915,16,1,1930.5999999642372,794751.7000000477,8014,NNB,A,14
14,test,4,0.0,2-Back,1,m,Tue Jan 14 2025 14:24:16 GMT-0600 (Central Standard Time),798548.1000000238,050_m_f_n_a.png,I,m,838,17,1,1862.800000011921,796685.3000000119,8014,NNB,A,15
15,test,4,1.0,2-Back,1,z,Tue Jan 14 2025 14:24:16 GMT-0600 (Central Standard Time),800231.0,045_m_m_n_a.png,I,z,660,18,1,1680.2999999523163,798550.7000000477,8014,NNB,A,16
0,test,5,1.0,2-Back,,,Tue Jan 14 2025 14:24:16 GMT-0600 (Central Standard Time),800231.0,041_y_m_n_a.png,I,space,1522,1,1,1680.2999999523163,798550.7000000477,8014,NNB,A,0
0,test,5,1.0,2-Back,,,Tue Jan 14 2025 14:24:16 GMT-0600 (Central Standard Time),800231.0,050_m_f_n_a.png,I,space,1522,2,1,1680.2999999523163,798550.7000000477,8014,NNB,A,0
1,test,5,1.0,2-Back,1,z,Tue Jan 14 2025 14:24:16 GMT-0600 (Central Standard Time),808611.8000000119,041_y_m_n_a.png,I,z,772,3,1,1797.199999988079,806814.6000000238,8014,NNB,A,1
2,test,5,1.0,2-Back,1,z,Tue Jan 14 2025 14:24:16 GMT-0600 (Central Standard Time),810544.5,050_m_f_n_a.png,I,z,900,4,1,1930.199999988079,808614.3000000119,8014,NNB,A,2
3,test,5,0.0,2-Back,1,m,Tue Jan 14 2025 14:24:16 GMT-0600 (Central Standard Time),812427.1000000238,047_o_f_n_a.png,I,m,856,5,1,1880.3999999761581,810546.7000000477,8014,NNB,A,3
3,test,5,0.0,2-Back,0,m,Tue Jan 14 2025 14:24:16 GMT-0600 (Central Standard Time),815459.7000000477,041_y_m_n_a.png,I,None,2015,6,1,3030.0,812429.7000000477,8014,NNB,A,4
4,test,5,0.0,2-Back,1,m,Tue Jan 14 2025 14:24:16 GMT-0600 (Central Standard Time),817242.4000000358,010_y_f_n_a.png,I,m,764,7,1,1780.5,815461.9000000358,8014,NNB,A,5
4,test,5,0.0,2-Back,0,m,Tue Jan 14 2025 14:24:16 GMT-0600 (Central Standard Time),819058.5,047_o_f_n_a.png,I,z,798,8,1,1813.8999999761581,817244.6000000238,8014,NNB,A,6
5,test,5,1.0,2-Back,1,z,Tue Jan 14 2025 14:24:16 GMT-0600 (Central Standard Time),821174.3000000119,010_y_f_n_a.png,I,z,1086,9,1,2113.399999976158,819060.9000000358,8014,NNB,A,7
6,test,5,0.0,2-Back,1,m,Tue Jan 14 2025 14:24:16 GMT-0600 (Central Standard Time),822890.7000000477,046_o_m_n_a.png,I,m,690,10,1,1714.1000000238419,821176.6000000238,8014,NNB,A,8
7,test,5,0.0,2-Back,1,m,Tue Jan 14 2025 14:24:16 GMT-0600 (Central Standard Time),824623.4000000358,043_m_f_n_a.png,I,m,709,11,1,1730.4000000357628,822893.0,8014,NNB,A,9
8,test,5,0.0,2-Back,1,m,Tue Jan 14 2025 14:24:16 GMT-0600 (Central Standard Time),826406.2000000477,058_m_m_n_a.png,I,m,761,12,1,1780.4000000357628,824625.8000000119,8014,NNB,A,10
8,test,5,0.0,2-Back,0,m,Tue Jan 14 2025 14:24:16 GMT-0600 (Central Standard Time),828222.2000000477,046_o_m_n_a.png,I,z,794,13,1,1813.6000000238419,826408.6000000238,8014,NNB,A,11
9,test,5,1.0,2-Back,1,z,Tue Jan 14 2025 14:24:16 GMT-0600 (Central Standard Time),830371.4000000358,058_m_m_n_a.png,I,z,1122,14,1,2147.0,828224.4000000358,8014,NNB,A,12
10,test,5,0.0,2-Back,1,m,Tue Jan 14 2025 14:24:16 GMT-0600 (Central Standard Time),832137.7000000477,063_y_f_n_a.png,I,m,732,15,1,1764.0,830373.7000000477,8014,NNB,A,13
11,test,5,0.0,2-Back,1,m,Tue Jan 14 2025 14:24:16 GMT-0600 (Central Standard Time),834170.5,053_o_m_n_a.png,I,m,1006,16,1,2030.2999999523163,832140.2000000477,8014,NNB,A,14
12,test,5,0.0,2-Back,1,m,Tue Jan 14 2025 14:24:16 GMT-0600 (Central Standard Time),835903.3000000119,043_m_f_n_a.png,I,m,701,17,1,1730.3999999761581,834172.9000000358,8014,NNB,A,15
13,test,5,1.0,2-Back,1,z,Tue Jan 14 2025 14:24:16 GMT-0600 (Central Standard Time),837552.6000000238,053_o_m_n_a.png,I,z,625,18,1,1647.0,835905.6000000238,8014,NNB,A,16
