acc_sum,block_c,block_dur,condition,correct,correct_response,countdown,datetime,endtime,project,response,response_time,response_time_test1_response,response_time_test2_response,row_sel,same,session_number,start_end,starttime,stim1,stim2,subject_id,task,task_vers,time_test1,time_test2,trial
1,1,0.0,prac,1,z,30000.0,Fri Apr 11 2025 10:51:33 GMT-0400 (Eastern Daylight Time),47346.89999961853,I,z,1319,,,5,yes,1,2841.8999996185303,44505.0,practrial5.png,practrial5.png,9011,PC,A,,,1
2,1,0.0,prac,1,z,30000.0,Fri Apr 11 2025 10:51:33 GMT-0400 (Eastern Daylight Time),50063.300000190735,I,z,1173,,,1,yes,1,2707.5,47355.800000190735,practrial1.png,practrial1.png,9011,PC,A,,,2
2,1,0.0,prac,0,m,30000.0,Fri Apr 11 2025 10:51:33 GMT-0400 (Eastern Daylight Time),52646.300000190735,I,z,1048,,,6,no,1,2574.1000003814697,50072.199999809265,practrial6.png,practrial6b.png,9011,PC,A,,,3
3,1,0.0,prac,1,m,30000.0,Fri Apr 11 2025 10:51:33 GMT-0400 (Eastern Daylight Time),55346.60000038147,I,m,1169,,,4,no,1,2691.300000190735,52655.300000190735,practrial4.png,practrial4b.png,9011,PC,A,,,4
4,1,0.0,prac,1,m,30000.0,Fri Apr 11 2025 10:51:33 GMT-0400 (Eastern Daylight Time),58129.89999961853,I,m,1253,,,2,no,1,2774.699999809265,55355.199999809265,practrial2.png,practrial2b.png,9011,PC,A,,,5
5,1,0.0,prac,1,z,30000.0,Fri Apr 11 2025 10:51:33 GMT-0400 (Eastern Daylight Time),61129.89999961853,I,z,1461,,,3,yes,1,2990.199999809265,58139.699999809265,practrial3.png,practrial3.png,9011,PC,A,,,6
1,1,1.3670001029968262,test,1,z,28632.999897003174,Fri Apr 11 2025 10:51:33 GMT-0400 (Eastern Daylight Time),81980.39999961853,I,z,1350,1350,,1,yes,1,1361.0,80619.39999961853,test1trial1.png,test1trial1.png,9011,PC,A,78465,,1
2,1,2.1500000953674316,test,1,m,27849.99990463257,Fri Apr 11 2025 10:51:33 GMT-0400 (Eastern Daylight Time),82762.60000038147,I,m,764,764,,2,no,1,774.6000003814697,81988.0,test1trial2.png,test1trial2b.png,9011,PC,A,79834,,2
3,1,3.4670000076293945,test,1,z,26532.999992370605,Fri Apr 11 2025 10:51:33 GMT-0400 (Eastern Daylight Time),84080.0,I,z,1298,1298,,3,yes,1,1313.3000001907349,82766.69999980927,test1trial3.png,test1trial3.png,9011,PC,A,80613,,3
4,1,4.2170000076293945,test,1,m,25782.999992370605,Fri Apr 11 2025 10:51:33 GMT-0400 (Eastern Daylight Time),84829.89999961853,I,m,730,730,,4,no,1,743.2999992370605,84086.60000038147,test1trial4.png,test1trial4b.png,9011,PC,A,81933,,4
5,1,5.2170000076293945,test,1,z,24782.999992370605,Fri Apr 11 2025 10:51:33 GMT-0400 (Eastern Daylight Time),85829.89999961853,I,z,987,987,,5,yes,1,991.3999996185303,84838.5,test1trial5.png,test1trial5.png,9011,PC,A,82684,,5
6,1,5.9670000076293945,test,1,m,24032.999992370605,Fri Apr 11 2025 10:51:33 GMT-0400 (Eastern Daylight Time),86579.80000019073,I,m,740,740,,6,no,1,743.3000001907349,85836.5,test1trial6.png,test1trial6b.png,9011,PC,A,83683,,6
7,1,6.9670000076293945,test,1,z,23032.999992370605,Fri Apr 11 2025 10:51:33 GMT-0400 (Eastern Daylight Time),87579.80000019073,I,z,981,981,,7,yes,1,991.4000005722046,86588.39999961853,test1trial7.png,test1trial7.png,9011,PC,A,84434,,7
8,1,8.766999959945679,test,1,m,21233.00004005432,Fri Apr 11 2025 10:51:33 GMT-0400 (Eastern Daylight Time),89379.89999961853,I,m,1790,1790,,8,no,1,1793.1999998092651,87586.69999980927,test1trial8.png,test1trial8b.png,9011,PC,A,85433,,8
9,1,9.733999967575073,test,1,z,20266.000032424927,Fri Apr 11 2025 10:51:33 GMT-0400 (Eastern Daylight Time),90346.60000038147,I,z,949,949,,9,yes,1,959.1000003814697,89387.5,test1trial9.png,test1trial9.png,9011,PC,A,87234,,9
10,1,10.967000007629395,test,1,m,19032.999992370605,Fri Apr 11 2025 10:51:33 GMT-0400 (Eastern Daylight Time),91580.0,I,m,1215,1215,,10,no,1,1226.6999998092651,90353.30000019073,test1trial10.png,test1trial10b.png,9011,PC,A,88200,,10
11,1,11.83400011062622,test,1,z,18165.99988937378,Fri Apr 11 2025 10:51:33 GMT-0400 (Eastern Daylight Time),92446.60000038147,I,z,847,847,,11,yes,1,860.2000007629395,91586.39999961853,test1trial11.png,test1trial11.png,9011,PC,A,89432,,11
12,1,13.016999959945679,test,1,m,16983.00004005432,Fri Apr 11 2025 10:51:33 GMT-0400 (Eastern Daylight Time),93629.89999961853,I,m,1161,1161,,12,no,1,1174.2999992370605,92455.60000038147,test1trial12.png,test1trial12b.png,9011,PC,A,90302,,12
13,1,14.117000102996826,test,1,m,15882.999897003174,Fri Apr 11 2025 10:51:33 GMT-0400 (Eastern Daylight Time),94729.89999961853,I,m,1083,1083,,13,no,1,1091.5999994277954,93638.30000019073,test1trial13.png,test1trial13b.png,9011,PC,A,91484,,13
14,1,15.067000150680542,test,1,m,14932.999849319458,Fri Apr 11 2025 10:51:33 GMT-0400 (Eastern Daylight Time),95679.80000019073,I,m,928,928,,14,no,1,943.5,94736.30000019073,test1trial14.png,test1trial14b.png,9011,PC,A,92582,,14
15,1,16.01699995994568,test,1,z,13983.000040054321,Fri Apr 11 2025 10:51:33 GMT-0400 (Eastern Daylight Time),96629.89999961853,I,z,939,939,,15,yes,1,943.5999994277954,95686.30000019073,test1trial15.png,test1trial15.png,9011,PC,A,93532,,15
16,1,16.867000102996826,test,1,m,13132.999897003174,Fri Apr 11 2025 10:51:33 GMT-0400 (Eastern Daylight Time),97479.89999961853,I,m,837,837,,16,no,1,844.0,96635.89999961853,test1trial16.png,test1trial16b.png,9011,PC,A,94482,,16
17,1,18.66700005531311,test,1,z,11332.99994468689,Fri Apr 11 2025 10:51:33 GMT-0400 (Eastern Daylight Time),99279.89999961853,I,z,1779,1779,,17,yes,1,1793.5999994277954,97486.30000019073,test1trial17.png,test1trial17.png,9011,PC,A,95332,,17
18,1,19.66700005531311,test,1,m,10332.99994468689,Fri Apr 11 2025 10:51:33 GMT-0400 (Eastern Daylight Time),100279.80000019073,I,m,984,984,,18,no,1,991.6000003814697,99288.19999980927,test1trial18.png,test1trial18b.png,9011,PC,A,97134,,18
19,1,20.75,test,1,m,9250.0,Fri Apr 11 2025 10:51:33 GMT-0400 (Eastern Daylight Time),101362.89999961853,I,m,1074,1074,,19,no,1,1076.5,100286.39999961853,test1trial19.png,test1trial19b.png,9011,PC,A,98133,,19
20,1,21.717000007629395,test,1,z,8282.999992370605,Fri Apr 11 2025 10:51:33 GMT-0400 (Eastern Daylight Time),102329.60000038147,I,z,950,950,,20,yes,1,958.7000007629395,101370.89999961853,test1trial20.png,test1trial20.png,9011,PC,A,99217,,20
21,1,22.40000009536743,test,1,z,7599.999904632568,Fri Apr 11 2025 10:51:33 GMT-0400 (Eastern Daylight Time),103013.19999980927,I,z,673,673,,21,yes,1,677.1999998092651,102336.0,test1trial21.png,test1trial21.png,9011,PC,A,100182,,21
22,1,23.41700005531311,test,1,z,6582.99994468689,Fri Apr 11 2025 10:51:33 GMT-0400 (Eastern Daylight Time),104030.0,I,z,997,997,,22,yes,1,1010.3999996185303,103019.60000038147,test1trial22.png,test1trial22.png,9011,PC,A,100866,,22
23,1,24.15000009536743,test,1,z,5849.999904632568,Fri Apr 11 2025 10:51:33 GMT-0400 (Eastern Daylight Time),104763.19999980927,I,z,715,715,,23,yes,1,725.5999994277954,104037.60000038147,test1trial23.png,test1trial23.png,9011,PC,A,101884,,23
24,1,24.93400001525879,test,1,z,5065.999984741211,Fri Apr 11 2025 10:51:33 GMT-0400 (Eastern Daylight Time),105546.69999980927,I,z,768,768,,24,yes,1,777.6999998092651,104769.0,test1trial24.png,test1trial24.png,9011,PC,A,102615,,24
25,1,25.90000009536743,test,1,m,4099.999904632568,Fri Apr 11 2025 10:51:33 GMT-0400 (Eastern Daylight Time),106513.19999980927,I,m,944,944,,25,no,1,960.0999994277954,105553.10000038147,test1trial25.png,test1trial25b.png,9011,PC,A,103399,,25
26,1,26.567000150680542,test,1,m,3432.999849319458,Fri Apr 11 2025 10:51:33 GMT-0400 (Eastern Daylight Time),107179.80000019073,I,m,650,650,,26,no,1,660.9000005722046,106518.89999961853,test1trial26.png,test1trial26b.png,9011,PC,A,104365,,26
27,1,28.600000143051147,test,1,m,1399.9998569488525,Fri Apr 11 2025 10:51:33 GMT-0400 (Eastern Daylight Time),109212.80000019073,I,m,2015,2015,,27,no,1,2027.1000003814697,107185.69999980927,practrial6.png,practrial6b.png,9011,PC,A,105032,,27
28,1,29.617000102996826,test,1,z,382.9998970031738,Fri Apr 11 2025 10:51:33 GMT-0400 (Eastern Daylight Time),110229.89999961853,I,z,1008,1008,,28,yes,1,1013.2999992370605,109216.60000038147,practrial1.png,practrial1.png,9011,PC,A,107063,,28
28,1,30.01699995994568,test,0,m,-16.99995994567871,Fri Apr 11 2025 10:51:33 GMT-0400 (Eastern Daylight Time),110630.0,I,None,391,391,,29,no,1,392.5,110237.5,practrial2.png,practrial2b.png,9011,PC,A,108084,,29
1,2,1.1329998970031738,test,1,m,28867.000102996826,Fri Apr 11 2025 10:51:33 GMT-0400 (Eastern Daylight Time),116630.0,I,m,1121,,1121.0,1,no,1,6392.5,110237.5,test2trial1.png,test2trial1b.png,9011,PC,A,,113350.0,1
2,2,2.1659998893737793,test,1,m,27834.00011062622,Fri Apr 11 2025 10:51:33 GMT-0400 (Eastern Daylight Time),117663.39999961853,I,m,1003,,1003.0,2,no,1,7425.89999961853,110237.5,test2trial2.png,test2trial2b.png,9011,PC,A,,114492.0,2
3,2,4.0,test,1,z,26000.0,Fri Apr 11 2025 10:51:33 GMT-0400 (Eastern Daylight Time),119496.60000038147,I,z,1819,,1819.0,3,yes,1,9259.10000038147,110237.5,test2trial3.png,test2trial3.png,9011,PC,A,,115516.0,3
4,2,4.683000087738037,test,1,z,25316.999912261963,Fri Apr 11 2025 10:51:33 GMT-0400 (Eastern Daylight Time),120179.5,I,z,674,,674.0,4,yes,1,9942.0,110237.5,test2trial4.png,test2trial4.png,9011,PC,A,,117349.0,4
5,2,5.799999952316284,test,1,z,24200.000047683716,Fri Apr 11 2025 10:51:33 GMT-0400 (Eastern Daylight Time),121296.5,I,z,1096,,1096.0,5,yes,1,11059.0,110237.5,test2trial5.png,test2trial5.png,9011,PC,A,,118031.0,5
6,2,7.33299994468689,test,1,z,22667.00005531311,Fri Apr 11 2025 10:51:33 GMT-0400 (Eastern Daylight Time),122829.89999961853,I,z,1514,,1514.0,6,yes,1,12592.39999961853,110237.5,test2trial6.png,test2trial6.png,9011,PC,A,,119149.0,6
7,2,8.282999992370605,test,1,m,21717.000007629395,Fri Apr 11 2025 10:51:33 GMT-0400 (Eastern Daylight Time),123779.5,I,m,941,,941.0,7,no,1,13542.0,110237.5,test2trial7.png,test2trial7b.png,9011,PC,A,,120682.0,7
8,2,9.183000087738037,test,1,m,20816.999912261963,Fri Apr 11 2025 10:51:33 GMT-0400 (Eastern Daylight Time),124679.80000019073,I,m,886,,886.0,8,no,1,14442.300000190735,110237.5,test2trial8.png,test2trial8b.png,9011,PC,A,,121632.0,8
9,2,10.48200011253357,test,1,z,19517.99988746643,Fri Apr 11 2025 10:51:33 GMT-0400 (Eastern Daylight Time),125979.30000019073,I,z,1280,,1280.0,9,yes,1,15741.800000190735,110237.5,test2trial9.png,test2trial9.png,9011,PC,A,,122534.0,9
10,2,11.183000087738037,test,1,z,18816.999912261963,Fri Apr 11 2025 10:51:33 GMT-0400 (Eastern Daylight Time),126679.80000019073,I,z,690,,690.0,10,yes,1,16442.300000190735,110237.5,test2trial10.png,test2trial10.png,9011,PC,A,,123829.0,10
11,2,12.065999984741211,test,1,m,17934.00001525879,Fri Apr 11 2025 10:51:33 GMT-0400 (Eastern Daylight Time),127563.30000019073,I,m,867,,867.0,11,no,1,17325.800000190735,110237.5,test2trial11.png,test2trial11b.png,9011,PC,A,,124532.0,11
12,2,13.08299994468689,test,1,m,16917.00005531311,Fri Apr 11 2025 10:51:33 GMT-0400 (Eastern Daylight Time),128579.5,I,m,1006,,1006.0,12,no,1,18342.0,110237.5,test2trial12.png,test2trial12b.png,9011,PC,A,,125416.0,12
13,2,14.082000017166138,test,1,z,15917.999982833862,Fri Apr 11 2025 10:51:33 GMT-0400 (Eastern Daylight Time),129579.0,I,z,983,,983.0,13,yes,1,19341.5,110237.5,test2trial13.png,test2trial13.png,9011,PC,A,,126431.0,13
14,2,15.183000087738037,test,1,m,14816.999912261963,Fri Apr 11 2025 10:51:33 GMT-0400 (Eastern Daylight Time),130680.0,I,m,1090,,1090.0,14,no,1,20442.5,110237.5,test2trial14.png,test2trial14b.png,9011,PC,A,,127429.0,14
15,2,15.933000087738037,test,1,m,14066.999912261963,Fri Apr 11 2025 10:51:33 GMT-0400 (Eastern Daylight Time),131429.80000019073,I,m,738,,738.0,15,no,1,21192.300000190735,110237.5,test2trial15.png,test2trial15b.png,9011,PC,A,,128532.0,15
16,2,17.25,test,1,m,12750.0,Fri Apr 11 2025 10:51:33 GMT-0400 (Eastern Daylight Time),132746.5,I,m,1300,,1300.0,16,no,1,22509.0,110237.5,test2trial16.png,test2trial16b.png,9011,PC,A,,129283.0,16
17,2,20.016000032424927,test,1,z,9983.999967575073,Fri Apr 11 2025 10:51:33 GMT-0400 (Eastern Daylight Time),135513.19999980927,I,z,2753,,2753.0,17,yes,1,25275.699999809265,110237.5,test2trial17.png,test2trial17.png,9011,PC,A,,130598.0,17
18,2,20.865999937057495,test,1,z,9134.000062942505,Fri Apr 11 2025 10:51:33 GMT-0400 (Eastern Daylight Time),136363.10000038147,I,z,833,,833.0,18,yes,1,26125.60000038147,110237.5,test2trial18.png,test2trial18.png,9011,PC,A,,133366.0,18
19,2,21.8989999294281,test,1,z,8101.000070571899,Fri Apr 11 2025 10:51:33 GMT-0400 (Eastern Daylight Time),137396.39999961853,I,z,1024,,1024.0,19,yes,1,27158.89999961853,110237.5,test2trial19.png,test2trial19.png,9011,PC,A,,134215.0,19
20,2,23.032999992370605,test,1,z,6967.0000076293945,Fri Apr 11 2025 10:51:33 GMT-0400 (Eastern Daylight Time),138530.0,I,z,1110,,1110.0,20,yes,1,28292.5,110237.5,test2trial20.png,test2trial20.png,9011,PC,A,,135249.0,20
21,2,24.382999897003174,test,1,z,5617.000102996826,Fri Apr 11 2025 10:51:33 GMT-0400 (Eastern Daylight Time),139880.0,I,z,1334,,1334.0,21,yes,1,29642.5,110237.5,test2trial21.png,test2trial21.png,9011,PC,A,,136385.0,21
22,2,25.282999992370605,test,1,m,4717.0000076293945,Fri Apr 11 2025 10:51:33 GMT-0400 (Eastern Daylight Time),140779.89999961853,I,m,882,,882.0,22,no,1,30542.39999961853,110237.5,test2trial22.png,test2trial22b.png,9011,PC,A,,137733.0,22
23,2,26.516000032424927,test,1,m,3483.9999675750732,Fri Apr 11 2025 10:51:33 GMT-0400 (Eastern Daylight Time),142013.30000019073,I,m,1214,,1214.0,23,no,1,31775.800000190735,110237.5,test2trial23.png,test2trial23b.png,9011,PC,A,,138633.0,23
24,2,27.499000072479248,test,1,m,2500.999927520752,Fri Apr 11 2025 10:51:33 GMT-0400 (Eastern Daylight Time),142996.39999961853,I,m,974,,974.0,24,no,1,32758.89999961853,110237.5,test2trial24.png,test2trial24b.png,9011,PC,A,,139865.0,24
25,2,29.449000120162964,test,1,z,550.9998798370361,Fri Apr 11 2025 10:51:33 GMT-0400 (Eastern Daylight Time),144946.5,I,z,1926,,1926.0,25,yes,1,34709.0,110237.5,test2trial25.png,test2trial25.png,9011,PC,A,,140849.0,25
25,2,30.016000032424927,test,0,z,-16.000032424926758,Fri Apr 11 2025 10:51:33 GMT-0400 (Eastern Daylight Time),145513.10000038147,I,None,559,,559.0,26,no,1,35275.60000038147,110237.5,test2trial26.png,test2trial26b.png,9011,PC,A,,142799.0,26
