acc_sum,block,block_c,condition,correct,correct_response,datetime,endtime,flanker,jitter,project,response,response_test_buffer_response,response_test_target_response,response_time,response_time_test_buffer_response,response_time_test_target_response,row_sel,session_number,start_end,starttime,subject_id,target,task,task_vers,time_test_buffer,time_test_buffer_response,time_test_constants,time_test_flanker,time_test_jitter,time_test_logger,time_test_target,time_test_target_response,time_test_variables,trial
1,prac,1,inc,1,z,Fri Apr 18 2025 14:31:47 GMT-0500 (Central Daylight Time),124828.0,napkin,1100,O,z,,,965,,,12,1,3358.0,121470.0,7129,friend,AF,C,,,,,,,,,,1
2,prac,1,inc,1,z,Fri Apr 18 2025 14:31:47 GMT-0500 (Central Daylight Time),127861.30000001192,window,1100,O,z,,,627,,,16,1,3025.4000000059605,124835.90000000596,7129,temper,AF,C,,,,,,,,,,2
3,prac,1,inc,1,z,Fri Apr 18 2025 14:31:47 GMT-0500 (Central Daylight Time),131011.30000001192,rock,900,O,z,,,941,,,10,1,3143.300000011921,127868.0,7129,kind,AF,C,,,,,,,,,,3
4,prac,1,inc,1,m,Fri Apr 18 2025 14:31:47 GMT-0500 (Central Daylight Time),134142.90000000596,hate,1100,O,m,,,725,,,4,1,3125.9000000059605,131017.0,7129,film,AF,C,,,,,,,,,,4
5,prac,1,inc,1,m,Fri Apr 18 2025 14:31:47 GMT-0500 (Central Daylight Time),137058.90000000596,elated,900,O,m,,,716,,,6,1,2910.0,134148.90000000596,7129,napkin,AF,C,,,,,,,,,,5
6,prac,1,inc,1,z,Fri Apr 18 2025 14:31:47 GMT-0500 (Central Daylight Time),139924.59999999404,film,900,O,z,,,653,,,14,1,2858.9000000059605,137065.69999998808,7129,hate,AF,C,,,,,,,,,,6
7,prac,1,con,1,z,Fri Apr 18 2025 14:31:47 GMT-0500 (Central Daylight Time),142857.69999998808,love,1000,O,z,,,624,,,11,1,2927.699999988079,139930.0,7129,love,AF,C,,,,,,,,,,7
8,prac,1,con,1,m,Fri Apr 18 2025 14:31:47 GMT-0500 (Central Daylight Time),145889.69999998808,remote,1000,O,m,,,732,,,7,1,3027.199999988079,142862.5,7129,remote,AF,C,,,,,,,,,,8
9,prac,1,inc,1,m,Fri Apr 18 2025 14:31:47 GMT-0500 (Central Daylight Time),149138.80000001192,brutal,1100,O,m,,,848,,,8,1,3243.100000023842,145895.69999998808,7129,window,AF,C,,,,,,,,,,9
10,prac,1,con,1,z,Fri Apr 18 2025 14:31:47 GMT-0500 (Central Daylight Time),151954.80000001192,rage,1000,O,z,,,517,,,15,1,2809.9000000059605,149144.90000000596,7129,rage,AF,C,,,,,,,,,,10
11,prac,1,con,1,m,Fri Apr 18 2025 14:31:47 GMT-0500 (Central Daylight Time),155053.80000001192,bell,1000,O,m,,,781,,,3,1,3092.0,151961.80000001192,7129,bell,AF,C,,,,,,,,,,11
12,prac,1,inc,1,m,Fri Apr 18 2025 14:31:47 GMT-0500 (Central Daylight Time),158002.19999998808,kind,900,O,m,,,742,,,2,1,2943.0,155059.19999998808,7129,rock,AF,C,,,,,,,,,,12
13,prac,1,con,1,z,Fri Apr 18 2025 14:31:47 GMT-0500 (Central Daylight Time),160884.90000000596,elated,800,O,z,,,770,,,9,1,2877.9000000059605,158007.0,7129,elated,AF,C,,,,,,,,,,13
14,prac,1,con,1,m,Fri Apr 18 2025 14:31:47 GMT-0500 (Central Daylight Time),163649.5,jacket,800,O,m,,,665,,,5,1,2757.800000011921,160891.69999998808,7129,jacket,AF,C,,,,,,,,,,14
15,prac,1,con,1,z,Fri Apr 18 2025 14:31:47 GMT-0500 (Central Daylight Time),166516.59999999404,brutal,800,O,z,,,764,,,13,1,2862.199999988079,163654.40000000596,7129,brutal,AF,C,,,,,,,,,,15
16,prac,1,con,1,m,Fri Apr 18 2025 14:31:47 GMT-0500 (Central Daylight Time),169281.69999998808,step,800,O,m,,,647,,,1,1,2759.199999988079,166522.5,7129,step,AF,C,,,,,,,,,,16
0,test,1,con,0,m,Fri Apr 18 2025 14:31:47 GMT-0500 (Central Daylight Time),180795.5,film,800,O,None,None,None,1815,1815.0,200.0,89,1,3345.300000011921,177450.19999998808,7129,film,AF,C,175016,175016,173486,174299,173487,176832,174816,174816,176831,1
1,test,1,inc,1,m,Fri Apr 18 2025 14:31:47 GMT-0500 (Central Daylight Time),183260.5,hate,1100,O,m,m,None,821,622.0,199.0,96,1,2459.0,180801.5,7129,film,AF,C,178664,178664,176838,177947,176838,179297,178465,178465,179296,2
2,test,1,con,1,z,Fri Apr 18 2025 14:31:47 GMT-0500 (Central Daylight Time),185526.69999998808,temper,1000,O,z,z,None,731,531.0,200.0,59,1,2258.0,183268.69999998808,7129,temper,AF,C,181030,181030,179305,180313,179305,181563,180829,180829,181563,3
3,test,1,inc,1,m,Fri Apr 18 2025 14:31:47 GMT-0500 (Central Daylight Time),187842.90000000596,hate,1100,O,m,m,None,667,468.0,199.0,88,1,2311.0,185531.90000000596,7129,bell,AF,C,183395,183395,181568,182680,181568,183879,183196,183196,183879,4
4,test,1,inc,1,m,Fri Apr 18 2025 14:31:47 GMT-0500 (Central Daylight Time),190476.30000001192,friend,1100,O,m,m,None,998,784.0,214.0,120,1,2629.0,187847.30000001192,7129,remote,AF,C,185728,185728,183883,184998,183884,186512,185513,185513,186512,5
5,test,1,con,1,z,Fri Apr 18 2025 14:31:47 GMT-0500 (Central Daylight Time),192841.30000001192,rage,1100,O,z,z,None,732,520.0,212.0,52,1,2360.7000000178814,190480.59999999404,7129,rage,AF,C,188343,188343,186517,187628,186517,188877,188131,188131,188877,6
6,test,1,inc,1,m,Fri Apr 18 2025 14:31:47 GMT-0500 (Central Daylight Time),195223.59999999404,friend,1100,O,m,m,None,758,545.0,213.0,128,1,2375.199999988079,192848.40000000596,7129,window,AF,C,190710,190710,188884,189993,188885,191260,190496,190496,191260,7
7,test,1,inc,1,z,Fri Apr 18 2025 14:31:47 GMT-0500 (Central Daylight Time),197571.5,film,1100,O,z,z,None,713,498.0,215.0,24,1,2343.0999999940395,195228.40000000596,7129,love,AF,C,193109,193109,191264,192377,191265,193608,192894,192894,193608,8
8,test,1,con,1,m,Fri Apr 18 2025 14:31:47 GMT-0500 (Central Daylight Time),199922.0,rock,1100,O,m,m,None,699,483.0,216.0,76,1,2343.4000000059605,197578.59999999404,7129,rock,AF,C,195459,195459,193615,194727,193615,195958,195242,195242,195958,9
9,test,1,con,1,z,Fri Apr 18 2025 14:31:47 GMT-0500 (Central Daylight Time),202170.59999999404,elated,1000,O,z,z,None,723,524.0,199.0,3,1,2244.7999999821186,199925.80000001192,7129,elated,AF,C,197675,197675,195962,196974,195962,198207,197475,197475,198207,10
10,test,1,con,1,m,Fri Apr 18 2025 14:31:47 GMT-0500 (Central Daylight Time),204453.09999999404,bell,1100,O,m,m,None,662,448.0,214.0,84,1,2275.5999999940395,202177.5,7129,bell,AF,C,200041,200041,198214,199324,198214,200489,199826,199826,200489,11
11,test,1,inc,1,z,Fri Apr 18 2025 14:31:47 GMT-0500 (Central Daylight Time),206853.30000001192,window,1100,O,z,z,None,755,555.0,200.0,40,1,2393.9000000059605,204459.40000000596,7129,brutal,AF,C,202323,202323,200495,201607,200496,202889,202122,202122,202889,12
12,test,1,inc,1,z,Fri Apr 18 2025 14:31:47 GMT-0500 (Central Daylight Time),209452.59999999404,window,1100,O,z,z,None,966,766.0,200.0,64,1,2592.4000000059605,206860.19999998808,7129,temper,AF,C,204722,204722,202896,204006,202897,205489,204522,204522,205489,13
13,test,1,inc,1,z,Fri Apr 18 2025 14:31:47 GMT-0500 (Central Daylight Time),211751.90000000596,remote,1000,O,z,z,None,751,536.0,215.0,31,1,2293.5999999940395,209458.30000001192,7129,friend,AF,C,207238,207238,205494,206505,205495,207788,207023,207023,207788,14
14,test,1,con,1,m,Fri Apr 18 2025 14:31:47 GMT-0500 (Central Daylight Time),213966.09999999404,remote,1000,O,m,m,None,683,469.0,214.0,115,1,2209.7999999821186,211756.30000001192,7129,remote,AF,C,209521,209521,207792,208804,207793,210002,209306,209306,210002,15
15,test,1,inc,1,z,Fri Apr 18 2025 14:31:47 GMT-0500 (Central Daylight Time),216385.09999999404,remote,1000,O,z,z,None,890,678.0,212.0,39,1,2411.4000000059605,213973.69999998808,7129,brutal,AF,C,211737,211737,210010,211021,210010,212421,211524,211524,212421,16
16,test,1,con,1,m,Fri Apr 18 2025 14:31:47 GMT-0500 (Central Daylight Time),218649.80000001192,remote,900,O,m,m,None,818,619.0,199.0,114,1,2259.9000000059605,216389.90000000596,7129,remote,AF,C,214052,214052,212426,213336,212426,214686,213852,213852,214686,17
17,test,1,con,1,m,Fri Apr 18 2025 14:31:47 GMT-0500 (Central Daylight Time),221130.69999998808,film,1100,O,m,m,None,839,625.0,214.0,92,1,2474.7999999821186,218655.90000000596,7129,film,AF,C,216533,216533,214692,215801,214692,217167,216319,216319,217167,18
18,test,1,inc,1,z,Fri Apr 18 2025 14:31:47 GMT-0500 (Central Daylight Time),223347.30000001192,jacket,800,O,z,z,None,872,673.0,199.0,5,1,2212.0,221135.30000001192,7129,elated,AF,C,218702,218702,217171,217986,217172,219383,218502,218502,219383,19
19,test,1,inc,1,m,Fri Apr 18 2025 14:31:47 GMT-0500 (Central Daylight Time),225729.40000000596,friend,1100,O,m,m,None,755,541.0,214.0,112,1,2376.5,223352.90000000596,7129,napkin,AF,C,221217,221217,219389,220497,219389,221765,221002,221002,221765,20
20,test,1,con,1,m,Fri Apr 18 2025 14:31:47 GMT-0500 (Central Daylight Time),227911.80000001192,napkin,1000,O,m,m,None,643,442.0,201.0,107,1,2177.4000000059605,225734.40000000596,7129,napkin,AF,C,223501,223501,221770,222783,221771,223948,223299,223299,223948,21
21,test,1,con,1,m,Fri Apr 18 2025 14:31:47 GMT-0500 (Central Daylight Time),230295.5,step,900,O,m,m,None,944,744.0,200.0,66,1,2375.9000000059605,227919.59999999404,7129,step,AF,C,225583,225583,223956,224866,223956,226332,225382,225382,226332,22
22,test,1,con,1,z,Fri Apr 18 2025 14:31:47 GMT-0500 (Central Daylight Time),232393.80000001192,temper,900,O,z,z,None,659,458.0,201.0,58,1,2093.600000023842,230300.19999998808,7129,temper,AF,C,227966,227966,226336,227249,226337,228430,227765,227765,228430,23
23,test,1,con,1,z,Fri Apr 18 2025 14:31:47 GMT-0500 (Central Daylight Time),234524.69999998808,rage,1000,O,z,z,None,593,393.0,200.0,51,1,2125.7999999821186,232398.90000000596,7129,rage,AF,C,230165,230165,228435,229448,228435,230561,229964,229964,230561,24
24,test,1,inc,1,z,Fri Apr 18 2025 14:31:47 GMT-0500 (Central Daylight Time),236811.09999999404,window,1100,O,z,z,None,665,451.0,214.0,8,1,2283.4000000059605,234527.69999998808,7129,elated,AF,C,232396,232396,230564,231677,230564,232847,232181,232181,232847,25
25,test,1,inc,1,z,Fri Apr 18 2025 14:31:47 GMT-0500 (Central Daylight Time),238995.90000000596,bell,1000,O,z,z,None,638,422.0,216.0,15,1,2178.9000000059605,236817.0,7129,kind,AF,C,234596,234596,232853,233864,232853,235032,234380,234380,235032,26
26,test,1,inc,1,z,Fri Apr 18 2025 14:31:47 GMT-0500 (Central Daylight Time),241076.40000000596,bell,1000,O,z,z,None,549,335.0,214.0,47,1,2077.2000000178814,238999.19999998808,7129,hate,AF,C,236777,236777,235035,236045,235036,237112,236563,236563,237112,27
27,test,1,inc,1,m,Fri Apr 18 2025 14:31:47 GMT-0500 (Central Daylight Time),243406.90000000596,hate,1100,O,m,m,None,685,470.0,215.0,72,1,2325.0999999940395,241081.80000001192,7129,step,AF,C,238960,238960,237118,238229,237118,239443,238745,238745,239443,28
28,test,1,inc,1,z,Fri Apr 18 2025 14:31:47 GMT-0500 (Central Daylight Time),245573.30000001192,rock,900,O,z,z,None,719,505.0,214.0,14,1,2161.800000011921,243411.5,7129,kind,AF,C,241093,241093,239448,240361,239448,241609,240878,240878,241609,29
29,test,1,con,1,m,Fri Apr 18 2025 14:31:47 GMT-0500 (Central Daylight Time),247723.69999998808,napkin,900,O,m,m,None,699,499.0,200.0,106,1,2144.399999976158,245579.30000001192,7129,napkin,AF,C,243244,243244,241615,242527,241616,243760,243043,243043,243760,30
30,test,1,inc,1,z,Fri Apr 18 2025 14:31:47 GMT-0500 (Central Daylight Time),249988.90000000596,film,1100,O,z,z,None,631,432.0,199.0,56,1,2261.0,247727.90000000596,7129,rage,AF,C,245593,245593,243764,244878,243764,246025,245393,245393,246025,31
31,test,1,con,1,m,Fri Apr 18 2025 14:31:47 GMT-0500 (Central Daylight Time),252822.5,jacket,1000,O,m,m,None,1299,1097.0,202.0,99,1,2828.9000000059605,249993.59999999404,7129,jacket,AF,C,247760,247760,246030,247042,246030,248859,247558,247558,248858,32
32,test,1,inc,1,z,Fri Apr 18 2025 14:31:47 GMT-0500 (Central Daylight Time),254971.0,napkin,900,O,z,z,None,699,500.0,199.0,30,1,2144.199999988079,252826.80000001192,7129,friend,AF,C,250490,250490,248863,249775,248863,251007,250290,250291,251007,33
33,test,1,con,1,z,Fri Apr 18 2025 14:31:47 GMT-0500 (Central Daylight Time),257136.09999999404,hate,900,O,z,z,None,725,525.0,200.0,42,1,2160.199999988079,254975.90000000596,7129,hate,AF,C,252642,252642,251012,251924,251012,253172,252441,252441,253172,34
34,test,1,con,1,z,Fri Apr 18 2025 14:31:47 GMT-0500 (Central Daylight Time),259301.5,friend,1000,O,z,z,None,618,403.0,215.0,27,1,2160.4000000059605,257141.09999999404,7129,friend,AF,C,254923,254923,253177,254189,253178,255338,254708,254708,255338,35
35,test,1,inc,1,z,Fri Apr 18 2025 14:31:47 GMT-0500 (Central Daylight Time),261369.19999998808,jacket,800,O,z,z,None,742,525.0,217.0,37,1,2062.399999976158,259306.80000001192,7129,brutal,AF,C,256873,256873,255343,256155,255343,257405,256656,256656,257405,36
36,test,1,con,1,z,Fri Apr 18 2025 14:31:47 GMT-0500 (Central Daylight Time),263501.40000000596,elated,900,O,z,z,None,690,488.0,202.0,2,1,2128.5,261372.90000000596,7129,elated,AF,C,259039,259039,257409,258322,257409,259537,258837,258837,259537,37
37,test,1,con,1,m,Fri Apr 18 2025 14:31:47 GMT-0500 (Central Daylight Time),265634.1999999881,bell,1000,O,m,m,None,608,409.0,199.0,83,1,2129.0999999940395,263505.09999999404,7129,bell,AF,C,261254,261254,259541,260553,259542,261670,261055,261055,261670,38
38,test,1,con,1,z,Fri Apr 18 2025 14:31:47 GMT-0500 (Central Daylight Time),267832.59999999404,hate,1000,O,z,z,None,657,441.0,216.0,43,1,2193.699999988079,265638.90000000596,7129,hate,AF,C,263421,263421,261675,262687,261675,263869,263204,263204,263869,39
39,test,1,inc,1,z,Fri Apr 18 2025 14:31:47 GMT-0500 (Central Daylight Time),269866.8000000119,rock,900,O,z,z,None,601,400.0,201.0,46,1,2030.0,267836.8000000119,7129,hate,AF,C,265503,265503,263873,264786,263873,265903,265302,265302,265903,40
40,test,1,inc,1,z,Fri Apr 18 2025 14:31:47 GMT-0500 (Central Daylight Time),271966.3000000119,remote,1000,O,z,z,None,564,363.0,201.0,63,1,2094.5,269871.8000000119,7129,temper,AF,C,267636,267636,265908,266920,265908,268002,267435,267435,268002,41
41,test,1,inc,1,z,Fri Apr 18 2025 14:31:47 GMT-0500 (Central Daylight Time),274315.09999999404,film,1100,O,z,z,None,707,508.0,199.0,16,1,2344.5999999940395,271970.5,7129,kind,AF,C,269835,269835,268007,269119,268007,270351,269636,269636,270351,42
42,test,1,con,1,z,Fri Apr 18 2025 14:31:47 GMT-0500 (Central Daylight Time),276163.6999999881,elated,800,O,z,z,None,506,292.0,214.0,1,1,1844.2999999821186,274319.40000000596,7129,elated,AF,C,271899,271899,270355,271169,270356,272200,271685,271685,272200,43
42,test,1,con,0,m,Fri Apr 18 2025 14:31:47 GMT-0500 (Central Daylight Time),277897.0,remote,800,O,z,z,None,383,168.0,215.0,113,1,1728.0999999940395,276168.90000000596,7129,remote,AF,C,273750,273750,272205,273017,272205,273933,273535,273535,273933,44
43,test,1,con,1,m,Fri Apr 18 2025 14:31:47 GMT-0500 (Central Daylight Time),279828.90000000596,window,800,O,m,m,None,596,396.0,200.0,121,1,1926.9000000059605,277902.0,7129,window,AF,C,275466,275466,273938,274751,273939,275865,275266,275266,275865,45
44,test,1,inc,1,m,Fri Apr 18 2025 14:31:47 GMT-0500 (Central Daylight Time),282029.90000000596,temper,1000,O,m,m,None,681,467.0,214.0,111,1,2197.0999999940395,279832.8000000119,7129,napkin,AF,C,277599,277599,275869,276882,275869,278066,277384,277384,278066,46
45,test,1,con,1,z,Fri Apr 18 2025 14:31:47 GMT-0500 (Central Daylight Time),284094.5,rage,900,O,z,z,None,619,418.0,201.0,50,1,2059.4000000059605,282035.09999999404,7129,rage,AF,C,279700,279700,278071,278983,278071,280131,279498,279498,280131,47
46,test,1,inc,1,m,Fri Apr 18 2025 14:31:47 GMT-0500 (Central Daylight Time),286129.09999999404,kind,900,O,m,m,None,584,369.0,215.0,78,1,2029.9000000059605,284099.1999999881,7129,rock,AF,C,281781,281781,280135,281049,280136,282165,281566,281566,282165,48
47,test,1,con,1,m,Fri Apr 18 2025 14:31:47 GMT-0500 (Central Daylight Time),288376.8000000119,napkin,1100,O,m,m,None,600,401.0,199.0,108,1,2243.4000000059605,286133.40000000596,7129,napkin,AF,C,283997,283997,282169,283280,282170,284413,283798,283798,284413,49
48,test,1,con,1,m,Fri Apr 18 2025 14:31:47 GMT-0500 (Central Daylight Time),290159.8000000119,jacket,800,O,m,m,None,445,246.0,199.0,97,1,1777.6000000238419,288382.1999999881,7129,jacket,AF,C,285946,285946,284418,285230,284419,286196,285747,285747,286196,50
49,test,1,con,1,z,Fri Apr 18 2025 14:31:47 GMT-0500 (Central Daylight Time),291925.90000000596,love,800,O,z,z,None,448,232.0,216.0,17,1,1760.7000000178814,290165.1999999881,7129,love,AF,C,287730,287730,286201,287012,286202,287962,287513,287513,287962,51
50,test,1,inc,1,m,Fri Apr 18 2025 14:31:47 GMT-0500 (Central Daylight Time),293858.59999999404,rage,800,O,m,m,None,598,399.0,199.0,85,1,1928.2999999821186,291930.3000000119,7129,bell,AF,C,289480,289480,287966,288779,287967,289895,289280,289280,289895,52
51,test,1,inc,1,m,Fri Apr 18 2025 14:31:47 GMT-0500 (Central Daylight Time),296142.09999999404,hate,1100,O,m,m,None,649,450.0,199.0,80,1,2278.2999999821186,293863.8000000119,7129,rock,AF,C,291728,291728,289900,291012,289900,292178,291529,291529,292178,53
52,test,1,con,1,z,Fri Apr 18 2025 14:31:47 GMT-0500 (Central Daylight Time),298291.09999999404,temper,1100,O,z,z,None,515,301.0,214.0,60,1,2143.4000000059605,296147.6999999881,7129,temper,AF,C,294026,294026,292184,293294,292184,294327,293812,293812,294327,54
53,test,1,inc,1,z,Fri Apr 18 2025 14:31:47 GMT-0500 (Central Daylight Time),300523.0,jacket,800,O,z,z,None,916,716.0,200.0,29,1,2227.5999999940395,298295.40000000596,7129,friend,AF,C,295843,295843,294331,295141,294332,296559,295642,295642,296559,55
54,test,1,con,1,z,Fri Apr 18 2025 14:31:47 GMT-0500 (Central Daylight Time),302789.1999999881,brutal,1100,O,z,z,None,638,422.0,216.0,36,1,2261.5,300527.6999999881,7129,brutal,AF,C,298393,298393,296564,297675,296564,298825,298177,298177,298825,56
55,test,1,inc,1,m,Fri Apr 18 2025 14:31:47 GMT-0500 (Central Daylight Time),304989.1999999881,kind,900,O,m,m,None,765,566.0,199.0,70,1,2189.899999976158,302799.3000000119,7129,step,AF,C,300459,300459,298835,299743,298836,301025,300259,300259,301025,57
56,test,1,inc,1,m,Fri Apr 18 2025 14:31:47 GMT-0500 (Central Daylight Time),307269.8000000119,friend,1100,O,m,m,None,637,437.0,200.0,104,1,2272.5,304997.3000000119,7129,jacket,AF,C,302858,302858,301033,302141,301034,303306,302657,302657,303306,58
57,test,1,con,1,z,Fri Apr 18 2025 14:31:47 GMT-0500 (Central Daylight Time),309690.90000000596,kind,800,O,z,z,None,1084,885.0,199.0,9,1,2413.9000000059605,307277.0,7129,kind,AF,C,304825,304825,303313,304124,303314,305727,304625,304625,305727,59
58,test,1,inc,1,z,Fri Apr 18 2025 14:31:47 GMT-0500 (Central Daylight Time),311919.3000000119,napkin,900,O,z,z,None,785,586.0,199.0,62,1,2225.7000000178814,309693.59999999404,7129,temper,AF,C,307356,307356,305730,306640,305730,307955,307156,307156,307955,60
59,test,1,con,1,z,Fri Apr 18 2025 14:31:47 GMT-0500 (Central Daylight Time),313752.40000000596,rage,800,O,z,z,None,485,285.0,200.0,49,1,1826.800000011921,311925.59999999404,7129,rage,AF,C,309490,309490,307962,308774,307962,309789,309290,309290,309788,61
60,test,1,inc,1,m,Fri Apr 18 2025 14:31:47 GMT-0500 (Central Daylight Time),316302.09999999404,love,1000,O,m,m,None,1005,804.0,201.0,87,1,2543.0,313759.09999999404,7129,bell,AF,C,311523,311523,309795,310805,309796,312338,311322,311322,312338,62
61,test,1,con,1,m,Fri Apr 18 2025 14:31:47 GMT-0500 (Central Daylight Time),318468.0,rock,800,O,m,m,None,832,633.0,199.0,73,1,2157.0,316311.0,7129,rock,AF,C,313871,313871,312347,313155,312348,314504,313671,313671,314504,63
62,test,1,inc,1,z,Fri Apr 18 2025 14:31:47 GMT-0500 (Central Daylight Time),320532.09999999404,rock,900,O,z,z,None,620,405.0,215.0,22,1,2056.699999988079,318475.40000000596,7129,love,AF,C,316152,316153,314511,315421,314512,316568,315937,315937,316568,64
63,test,1,inc,1,z,Fri Apr 18 2025 14:31:47 GMT-0500 (Central Daylight Time),322616.59999999404,bell,1000,O,z,z,None,543,343.0,200.0,23,1,2075.0,320541.59999999404,7129,love,AF,C,318304,318304,316578,317587,316578,318653,318103,318103,318653,65
64,test,1,inc,1,z,Fri Apr 18 2025 14:31:47 GMT-0500 (Central Daylight Time),324766.5,napkin,900,O,z,z,None,714,514.0,200.0,38,1,2142.0999999940395,322624.40000000596,7129,brutal,AF,C,320286,320286,318660,319569,318661,320803,320086,320086,320803,66
65,test,1,con,1,z,Fri Apr 18 2025 14:31:47 GMT-0500 (Central Daylight Time),327165.59999999404,kind,1100,O,z,z,None,756,556.0,200.0,12,1,2393.699999988079,324771.90000000596,7129,kind,AF,C,322635,322635,320808,321918,320808,323202,322435,322435,323202,67
66,test,1,inc,1,m,Fri Apr 18 2025 14:31:47 GMT-0500 (Central Daylight Time),329330.5,love,1000,O,m,m,None,632,418.0,214.0,95,1,2156.5,327174.0,7129,film,AF,C,324934,324934,323210,324217,323211,325367,324719,324719,325367,68
67,test,1,inc,1,z,Fri Apr 18 2025 14:31:47 GMT-0500 (Central Daylight Time),331546.6999999881,film,1100,O,z,z,None,568,369.0,199.0,48,1,2209.0999999940395,329337.59999999404,7129,hate,AF,C,327200,327200,325374,326484,325374,327583,327001,327001,327583,69
68,test,1,inc,1,m,Fri Apr 18 2025 14:31:47 GMT-0500 (Central Daylight Time),333695.3000000119,love,1000,O,m,m,None,625,414.0,211.0,79,1,2140.5,331554.8000000119,7129,rock,AF,C,329313,329313,327591,328599,327591,329731,329102,329102,329731,70
69,test,1,inc,1,z,Fri Apr 18 2025 14:31:47 GMT-0500 (Central Daylight Time),335780.1999999881,step,800,O,z,z,None,750,551.0,199.0,21,1,2080.199999988079,333700.0,7129,love,AF,C,331265,331265,329736,330549,329736,331816,331065,331065,331816,71
70,test,1,inc,1,z,Fri Apr 18 2025 14:31:47 GMT-0500 (Central Daylight Time),337877.6999999881,rock,900,O,z,z,None,654,455.0,199.0,54,1,2092.699999988079,335785.0,7129,rage,AF,C,333448,333448,331821,332732,331821,333914,333248,333248,333914,72
71,test,1,inc,1,m,Fri Apr 18 2025 14:31:47 GMT-0500 (Central Daylight Time),340043.90000000596,temper,1000,O,m,m,None,639,439.0,200.0,127,1,2161.300000011921,337882.59999999404,7129,window,AF,C,335632,335632,333919,334930,333919,336080,335431,335431,336080,73
72,test,1,con,1,z,Fri Apr 18 2025 14:31:47 GMT-0500 (Central Daylight Time),342260.59999999404,hate,800,O,z,z,None,873,672.0,201.0,41,1,2211.5999999940395,340049.0,7129,hate,AF,C,337614,337614,336085,336898,336085,338297,337412,337412,338297,74
73,test,1,inc,1,m,Fri Apr 18 2025 14:31:47 GMT-0500 (Central Daylight Time),344260.0,elated,800,O,m,m,None,667,468.0,199.0,125,1,1994.9000000059605,342265.09999999404,7129,window,AF,C,339828,339828,338301,339113,338301,340296,339629,339629,340296,75
74,test,1,inc,1,z,Fri Apr 18 2025 14:31:47 GMT-0500 (Central Daylight Time),346710.09999999404,window,1100,O,z,z,None,816,617.0,199.0,32,1,2445.0,344265.09999999404,7129,friend,AF,C,342129,342129,340301,341412,340302,342746,341929,341929,342746,76
75,test,1,con,1,m,Fri Apr 18 2025 14:31:47 GMT-0500 (Central Daylight Time),349073.90000000596,window,1100,O,m,m,None,723,509.0,214.0,124,1,2358.7000000178814,346715.1999999881,7129,window,AF,C,344594,344594,342751,343862,342751,345110,344380,344380,345110,77
76,test,1,con,1,m,Fri Apr 18 2025 14:31:47 GMT-0500 (Central Daylight Time),351007.5,napkin,800,O,m,m,None,585,370.0,215.0,105,1,1926.0999999940395,349081.40000000596,7129,napkin,AF,C,346661,346661,345117,345927,345118,347044,346445,346445,347044,78
77,test,1,inc,1,m,Fri Apr 18 2025 14:31:47 GMT-0500 (Central Daylight Time),353240.5,temper,1000,O,m,m,None,710,511.0,199.0,119,1,2228.5999999940395,351011.90000000596,7129,remote,AF,C,348760,348760,347048,348059,347048,349277,348560,348560,349277,79
78,test,1,con,1,z,Fri Apr 18 2025 14:31:47 GMT-0500 (Central Daylight Time),355237.8000000119,friend,800,O,z,z,None,660,446.0,214.0,25,1,1991.800000011921,353246.0,7129,friend,AF,C,350825,350825,349282,350092,349283,351274,350610,350610,351274,80
79,test,1,con,1,m,Fri Apr 18 2025 14:31:47 GMT-0500 (Central Daylight Time),357722.90000000596,film,1000,O,m,m,None,945,735.0,210.0,91,1,2481.4000000059605,355241.5,7129,film,AF,C,353008,353008,351278,352292,351278,353759,352797,352797,353759,81
80,test,1,inc,1,m,Fri Apr 18 2025 14:31:47 GMT-0500 (Central Daylight Time),359769.0,rage,800,O,m,m,None,706,506.0,200.0,93,1,2036.5999999940395,357732.40000000596,7129,film,AF,C,355292,355292,353768,354575,353769,355805,355091,355091,355805,82
81,test,1,inc,1,m,Fri Apr 18 2025 14:31:47 GMT-0500 (Central Daylight Time),361820.6999999881,brutal,900,O,m,m,None,616,417.0,199.0,118,1,2049.199999988079,359771.5,7129,remote,AF,C,357440,357440,355808,356724,355808,357857,357241,357241,357857,83
82,test,1,con,1,m,Fri Apr 18 2025 14:31:47 GMT-0500 (Central Daylight Time),363786.0,bell,800,O,m,m,None,625,426.0,199.0,81,1,1961.199999988079,361824.8000000119,7129,bell,AF,C,359389,359389,357861,358674,357861,359822,359190,359190,359822,84
83,test,1,inc,1,z,Fri Apr 18 2025 14:31:47 GMT-0500 (Central Daylight Time),365803.3000000119,step,800,O,z,z,None,683,483.0,200.0,13,1,2013.1000000238419,363790.1999999881,7129,kind,AF,C,361356,361356,359826,360640,359827,361839,361155,361155,361839,85
84,test,1,con,1,z,Fri Apr 18 2025 14:31:47 GMT-0500 (Central Daylight Time),367852.6999999881,love,1000,O,z,z,None,517,316.0,201.0,19,1,2043.5999999940395,365809.09999999404,7129,love,AF,C,363572,363572,361845,362857,361846,363889,363371,363371,363889,86
85,test,1,con,1,m,Fri Apr 18 2025 14:31:47 GMT-0500 (Central Daylight Time),369933.90000000596,film,900,O,m,m,None,636,437.0,199.0,90,1,2076.800000011921,367857.09999999404,7129,film,AF,C,365522,365522,363893,364804,363893,365970,365322,365322,365970,87
86,test,1,inc,1,m,Fri Apr 18 2025 14:31:47 GMT-0500 (Central Daylight Time),372016.09999999404,brutal,900,O,m,m,None,635,436.0,199.0,110,1,2075.699999988079,369940.40000000596,7129,napkin,AF,C,367603,367603,365976,366887,365977,368052,367404,367404,368052,88
87,test,1,inc,1,z,Fri Apr 18 2025 14:31:47 GMT-0500 (Central Daylight Time),374182.5,bell,1000,O,z,z,None,619,420.0,199.0,55,1,2161.300000011921,372021.1999999881,7129,rage,AF,C,369787,369787,368057,369071,368057,370219,369586,369587,370219,89
88,test,1,inc,1,m,Fri Apr 18 2025 14:31:47 GMT-0500 (Central Daylight Time),376182.40000000596,elated,800,O,m,m,None,670,470.0,200.0,101,1,1995.2000000178814,374187.1999999881,7129,jacket,AF,C,371736,371736,370223,371035,370224,372218,371536,371536,372218,90
89,test,1,inc,1,m,Fri Apr 18 2025 14:31:47 GMT-0500 (Central Daylight Time),378299.0,brutal,900,O,m,m,None,681,481.0,200.0,102,1,2111.300000011921,376187.6999999881,7129,jacket,AF,C,373854,373854,372224,373135,372224,374335,373654,373654,374335,91
90,test,1,con,1,z,Fri Apr 18 2025 14:31:47 GMT-0500 (Central Daylight Time),380629.90000000596,hate,1100,O,z,z,None,697,493.0,204.0,44,1,2326.7000000178814,378303.1999999881,7129,hate,AF,C,376171,376171,374339,375453,374340,376666,375967,375967,376666,92
91,test,1,inc,1,m,Fri Apr 18 2025 14:31:47 GMT-0500 (Central Daylight Time),382663.8000000119,elated,800,O,m,m,None,693,494.0,199.0,117,1,2028.4000000059605,380635.40000000596,7129,remote,AF,C,378201,378201,376671,377484,376672,378700,378002,378002,378700,93
92,test,1,inc,1,m,Fri Apr 18 2025 14:31:47 GMT-0500 (Central Daylight Time),384729.3000000119,rage,800,O,m,m,None,719,517.0,202.0,69,1,2060.9000000059605,382668.40000000596,7129,step,AF,C,380234,380234,378704,379516,378705,380765,380032,380032,380765,94
93,test,1,con,1,z,Fri Apr 18 2025 14:31:47 GMT-0500 (Central Daylight Time),386763.09999999404,brutal,1000,O,z,z,None,500,301.0,199.0,35,1,2028.5999999940395,384734.5,7129,brutal,AF,C,382498,382498,380771,381782,380771,382799,382299,382299,382799,95
94,test,1,con,1,m,Fri Apr 18 2025 14:31:47 GMT-0500 (Central Daylight Time),389193.5,jacket,1100,O,m,m,None,790,574.0,216.0,100,1,2425.0,386768.5,7129,jacket,AF,C,384649,384649,382805,383915,382805,385230,384433,384433,385230,96
95,test,1,con,1,m,Fri Apr 18 2025 14:31:47 GMT-0500 (Central Daylight Time),391429.1999999881,rock,1000,O,m,m,None,699,500.0,199.0,75,1,2231.199999988079,389198.0,7129,rock,AF,C,386965,386965,385234,386248,385234,387465,386765,386765,387465,97
96,test,1,con,1,z,Fri Apr 18 2025 14:31:47 GMT-0500 (Central Daylight Time),393376.90000000596,friend,900,O,z,z,None,500,301.0,199.0,26,1,1942.5,391434.40000000596,7129,friend,AF,C,389097,389097,387470,388381,387471,389413,388898,388898,389413,98
97,test,1,con,1,z,Fri Apr 18 2025 14:31:47 GMT-0500 (Central Daylight Time),395708.6999999881,brutal,800,O,z,z,None,988,788.0,200.0,33,1,2327.2999999821186,393381.40000000596,7129,brutal,AF,C,390946,390946,389417,390231,389418,391745,390746,390746,391745,99
98,test,1,con,1,m,Fri Apr 18 2025 14:31:47 GMT-0500 (Central Daylight Time),397608.5,jacket,900,O,m,m,None,452,252.0,200.0,98,1,1896.5,395712.0,7129,jacket,AF,C,393378,393379,391748,392663,391748,393645,393178,393178,393645,100
99,test,1,inc,1,m,Fri Apr 18 2025 14:31:47 GMT-0500 (Central Daylight Time),400125.3000000119,love,1000,O,m,m,None,975,774.0,201.0,71,1,2511.9000000059605,397613.40000000596,7129,step,AF,C,395377,395377,393649,394660,393650,396161,395176,395176,396161,101
100,test,1,inc,1,z,Fri Apr 18 2025 14:31:47 GMT-0500 (Central Daylight Time),402257.1999999881,napkin,900,O,z,z,None,684,484.0,200.0,6,1,2126.199999988079,400131.0,7129,elated,AF,C,397794,397794,396167,397077,396167,398293,397593,397593,398293,102
101,test,1,con,1,m,Fri Apr 18 2025 14:31:47 GMT-0500 (Central Daylight Time),404325.1999999881,rock,900,O,m,m,None,648,434.0,214.0,74,1,2063.5,402261.6999999881,7129,rock,AF,C,399927,399927,398298,399210,398298,400361,399712,399712,400361,103
102,test,1,con,1,m,Fri Apr 18 2025 14:31:47 GMT-0500 (Central Daylight Time),406307.5,window,900,O,m,m,None,535,335.0,200.0,122,1,1976.9000000059605,404330.59999999404,7129,window,AF,C,401993,401993,400367,401276,400367,402344,401793,401793,402343,104
103,test,1,con,1,m,Fri Apr 18 2025 14:31:47 GMT-0500 (Central Daylight Time),408555.5,step,1000,O,m,m,None,715,516.0,199.0,67,1,2243.5,406312.0,7129,step,AF,C,404075,404075,402348,403359,402348,404592,403876,403876,404592,105
104,test,1,con,1,m,Fri Apr 18 2025 14:31:47 GMT-0500 (Central Daylight Time),410537.90000000596,bell,900,O,m,m,None,540,325.0,215.0,82,1,1978.5999999940395,408559.3000000119,7129,bell,AF,C,406242,406242,404595,405508,404596,406574,406026,406026,406574,106
105,test,1,inc,1,z,Fri Apr 18 2025 14:31:47 GMT-0500 (Central Daylight Time),412569.59999999404,step,800,O,z,z,None,681,482.0,199.0,53,1,2028.0,410541.59999999404,7129,rage,AF,C,408108,408108,406578,407391,406578,408606,407908,407908,408606,107
106,test,1,con,1,z,Fri Apr 18 2025 14:31:47 GMT-0500 (Central Daylight Time),414919.6999999881,kind,1000,O,z,z,None,808,594.0,214.0,11,1,2344.5999999940395,412575.09999999404,7129,kind,AF,C,410357,410357,408611,409624,408612,410956,410143,410143,410956,108
107,test,1,con,1,z,Fri Apr 18 2025 14:31:47 GMT-0500 (Central Daylight Time),416787.3000000119,temper,800,O,z,z,None,532,333.0,199.0,57,1,1862.2000000178814,414925.09999999404,7129,temper,AF,C,412490,412490,410961,411773,410962,412823,412290,412290,412823,109
108,test,1,con,1,m,Fri Apr 18 2025 14:31:47 GMT-0500 (Central Daylight Time),418902.09999999404,step,1100,O,m,m,None,486,287.0,199.0,68,1,2109.5999999940395,416792.5,7129,step,AF,C,414640,414640,412829,413939,412829,414938,414440,414440,414938,110
109,test,1,con,1,z,Fri Apr 18 2025 14:31:47 GMT-0500 (Central Daylight Time),420984.3000000119,love,1100,O,z,z,None,460,261.0,199.0,20,1,2076.5,418907.8000000119,7129,love,AF,C,416754,416754,414944,416053,414944,417020,416554,416554,417020,111
110,test,1,inc,1,z,Fri Apr 18 2025 14:31:47 GMT-0500 (Central Daylight Time),423183.40000000596,remote,1000,O,z,z,None,652,453.0,199.0,7,1,2194.5,420988.90000000596,7129,elated,AF,C,418754,418754,417025,418038,417025,419220,418554,418554,419219,112
111,test,1,con,1,m,Fri Apr 18 2025 14:31:47 GMT-0500 (Central Daylight Time),425401.40000000596,window,1000,O,m,m,None,685,471.0,214.0,123,1,2212.7000000178814,423188.6999999881,7129,window,AF,C,420952,420952,419225,420237,419225,421437,420738,420738,421437,113
112,test,1,inc,1,z,Fri Apr 18 2025 14:31:47 GMT-0500 (Central Daylight Time),427416.1999999881,jacket,800,O,z,z,None,668,469.0,199.0,61,1,2010.0,425406.1999999881,7129,temper,AF,C,422969,422969,421442,422254,421443,423452,422769,422769,423452,114
113,test,1,inc,1,m,Fri Apr 18 2025 14:31:47 GMT-0500 (Central Daylight Time),429648.8000000119,temper,1000,O,m,m,None,684,485.0,199.0,103,1,2227.7000000178814,427421.09999999404,7129,jacket,AF,C,425185,425186,423457,424470,423457,425685,424986,424986,425685,115
114,test,1,con,1,z,Fri Apr 18 2025 14:31:47 GMT-0500 (Central Daylight Time),432047.5,elated,1100,O,z,z,None,759,560.0,199.0,4,1,2393.5,429654.0,7129,elated,AF,C,427518,427518,425690,426801,425690,428084,427318,427318,428084,116
115,test,1,inc,1,m,Fri Apr 18 2025 14:31:47 GMT-0500 (Central Daylight Time),434080.59999999404,kind,900,O,m,m,None,585,385.0,200.0,86,1,2028.5,432052.09999999404,7129,bell,AF,C,429718,429718,428088,429001,428088,430117,429518,429518,430117,117
116,test,1,con,1,m,Fri Apr 18 2025 14:31:47 GMT-0500 (Central Daylight Time),436014.0,step,800,O,m,m,None,588,389.0,199.0,65,1,1927.4000000059605,434086.59999999404,7129,step,AF,C,431650,431650,430123,430934,430123,432050,431450,431450,432050,118
117,test,1,inc,1,z,Fri Apr 18 2025 14:31:47 GMT-0500 (Central Daylight Time),437946.0,step,800,O,z,z,None,584,383.0,201.0,45,1,1928.199999988079,436017.8000000119,7129,hate,AF,C,433583,433583,432054,432867,432054,433982,433382,433382,433982,119
118,test,1,inc,1,m,Fri Apr 18 2025 14:31:47 GMT-0500 (Central Daylight Time),439845.3000000119,elated,800,O,m,m,None,566,365.0,201.0,109,1,1894.2000000178814,437951.09999999404,7129,napkin,AF,C,435515,435515,433987,434801,433987,435881,435314,435314,435881,120
119,test,1,con,1,z,Fri Apr 18 2025 14:31:47 GMT-0500 (Central Daylight Time),442610.5,kind,900,O,z,z,None,1330,1131.0,199.0,10,1,2760.5999999940395,439849.90000000596,7129,kind,AF,C,437515,437515,435886,436800,435886,438647,437315,437315,438647,121
120,test,1,con,1,z,Fri Apr 18 2025 14:31:47 GMT-0500 (Central Daylight Time),444812.1999999881,friend,1100,O,z,z,None,565,366.0,199.0,28,1,2197.0,442615.1999999881,7129,friend,AF,C,440482,440482,438651,439764,438652,440848,440282,440282,440848,122
121,test,1,inc,1,m,Fri Apr 18 2025 14:31:47 GMT-0500 (Central Daylight Time),446828.90000000596,rage,800,O,m,m,None,685,485.0,200.0,77,1,2012.0999999940395,444816.8000000119,7129,rock,AF,C,442380,442380,440853,441663,440853,442865,442179,442179,442865,123
122,test,1,con,1,z,Fri Apr 18 2025 14:31:47 GMT-0500 (Central Daylight Time),449142.8000000119,brutal,900,O,z,z,None,870,671.0,199.0,34,1,2307.7000000178814,446835.09999999404,7129,brutal,AF,C,444495,444495,442871,443780,442871,445179,444296,444296,445179,124
123,test,1,con,1,z,Fri Apr 18 2025 14:31:47 GMT-0500 (Central Daylight Time),451059.0,love,900,O,z,z,None,481,282.0,199.0,18,1,1911.5999999940395,449147.40000000596,7129,love,AF,C,446798,446798,445183,446095,445184,447095,446599,446599,447095,125
124,test,1,inc,1,m,Fri Apr 18 2025 14:31:47 GMT-0500 (Central Daylight Time),453124.09999999404,kind,900,O,m,m,None,629,416.0,213.0,94,1,2061.7999999821186,451062.3000000119,7129,film,AF,C,448744,448744,447098,448013,447099,449160,448530,448530,449160,126
125,test,1,con,1,m,Fri Apr 18 2025 14:31:47 GMT-0500 (Central Daylight Time),455456.8000000119,remote,1100,O,m,m,None,684,483.0,201.0,116,1,2328.7000000178814,453128.09999999404,7129,remote,AF,C,450995,450995,449164,450278,449164,451493,450793,450793,451493,127
126,test,1,inc,1,m,Fri Apr 18 2025 14:31:47 GMT-0500 (Central Daylight Time),457406.40000000596,brutal,900,O,m,m,None,512,297.0,215.0,126,1,1945.2000000178814,455461.1999999881,7129,window,AF,C,453142,453142,451497,452409,451498,453442,452927,452927,453442,128
