block_c,block_dur,condition,countdown,datetime,endtime,list,multichar_response,project,response,response_time,session_number,start_end,starttime,subject_id,task,task_vers,trial
,,,,Fri Mar 28 2025 11:10:58 GMT-0500 (Central Daylight Time),,,,O,space,333,1,,,7096,WL,A,
prac,,0,,Fri Mar 28 2025 11:10:58 GMT-0500 (Central Daylight Time),,NA,b,O,b,3636,1,,,7096,WL,A,1.0
prac,,0,,Fri Mar 28 2025 11:10:58 GMT-0500 (Central Daylight Time),,NA,bo,O,o,176,1,,,7096,WL,A,1.0
prac,,0,,Fri Mar 28 2025 11:10:58 GMT-0500 (Central Daylight Time),,NA,boo,O,o,134,1,,,7096,WL,A,1.0
prac,,0,,Fri Mar 28 2025 11:10:58 GMT-0500 (Central Daylight Time),,NA,boos,O,s,131,1,,,7096,WL,A,1.0
prac,,0,,Fri Mar 28 2025 11:10:58 GMT-0500 (Central Daylight Time),,NA,boost,O,t,247,1,,,7096,WL,A,1.0
prac,,0,,Fri Mar 28 2025 11:10:58 GMT-0500 (Central Daylight Time),,NA,boostenter,O,enter,7576,1,,,7096,WL,A,1.0
1,1.1349999904632568,learn,58865.00000953674,Fri Mar 28 2025 11:10:58 GMT-0500 (Central Daylight Time),177435.90000000596,A,b,O,b,1118,1,1134.7000000029802,176301.20000000298,7096,WL,A,1.0
1,1.3510000705718994,learn,58648.9999294281,Fri Mar 28 2025 11:10:58 GMT-0500 (Central Daylight Time),177652.29999999702,A,bo,O,o,207,1,1351.0999999940395,176301.20000000298,7096,WL,A,1.0
1,1.5169999599456787,learn,58483.00004005432,Fri Mar 28 2025 11:10:58 GMT-0500 (Central Daylight Time),177817.5,A,boo,O,o,150,1,1516.2999999970198,176301.20000000298,7096,WL,A,1.0
1,1.9179999828338623,learn,58082.00001716614,Fri Mar 28 2025 11:10:58 GMT-0500 (Central Daylight Time),178218.59999999404,A,book,O,k,385,1,1917.3999999910593,176301.20000000298,7096,WL,A,1.0
1,2.7669999599456787,learn,57233.00004005432,Fri Mar 28 2025 11:10:58 GMT-0500 (Central Daylight Time),179068.09999999404,A,bookenter,O,enter,831,1,2766.8999999910593,176301.20000000298,7096,WL,A,1.0
1,3.7160000801086426,learn,56283.99991989136,Fri Mar 28 2025 11:10:58 GMT-0500 (Central Daylight Time),180017.29999999702,A,r,O,r,935,1,948.7999999970198,179068.5,7096,WL,A,2.0
1,3.883000135421753,learn,56116.99986457825,Fri Mar 28 2025 11:10:58 GMT-0500 (Central Daylight Time),180183.59999999404,A,ru,O,u,153,1,1115.0999999940395,179068.5,7096,WL,A,2.0
1,4.115999937057495,learn,55884.000062942505,Fri Mar 28 2025 11:10:58 GMT-0500 (Central Daylight Time),180417.09999999404,A,rug,O,g,218,1,1348.5999999940395,179068.5,7096,WL,A,2.0
1,4.999000072479248,learn,55000.99992752075,Fri Mar 28 2025 11:10:58 GMT-0500 (Central Daylight Time),181299.90000000596,A,rugenter,O,enter,875,1,2231.4000000059605,179068.5,7096,WL,A,2.0
1,5.150000095367432,learn,54849.99990463257,Fri Mar 28 2025 11:10:58 GMT-0500 (Central Daylight Time),181450.90000000596,A,enter,O,enter,144,1,150.70000000298023,181300.20000000298,7096,WL,A,3.0
1,6.200999975204468,learn,53799.00002479553,Fri Mar 28 2025 11:10:58 GMT-0500 (Central Daylight Time),182501.70000000298,A,f,O,f,1033,1,1050.0,181451.70000000298,7096,WL,A,4.0
1,6.365999937057495,learn,53634.000062942505,Fri Mar 28 2025 11:10:58 GMT-0500 (Central Daylight Time),182666.90000000596,A,fi,O,i,150,1,1215.2000000029802,181451.70000000298,7096,WL,A,4.0
1,6.499000072479248,learn,53500.99992752075,Fri Mar 28 2025 11:10:58 GMT-0500 (Central Daylight Time),182799.79999999702,A,fin,O,n,112,1,1348.0999999940395,181451.70000000298,7096,WL,A,4.0
1,6.699000120162964,learn,53300.999879837036,Fri Mar 28 2025 11:10:58 GMT-0500 (Central Daylight Time),182999.90000000596,A,fing,O,g,187,1,1548.2000000029802,181451.70000000298,7096,WL,A,4.0
1,6.932000160217285,learn,53067.999839782715,Fri Mar 28 2025 11:10:58 GMT-0500 (Central Daylight Time),183232.79999999702,A,finge,O,e,220,1,1781.0999999940395,181451.70000000298,7096,WL,A,4.0
1,7.049000024795532,learn,52950.99997520447,Fri Mar 28 2025 11:10:58 GMT-0500 (Central Daylight Time),183349.59999999404,A,finger,O,r,106,1,1897.8999999910593,181451.70000000298,7096,WL,A,4.0
1,7.732000112533569,learn,52267.99988746643,Fri Mar 28 2025 11:10:58 GMT-0500 (Central Daylight Time),184032.5,A,fingerenter,O,enter,660,1,2580.7999999970198,181451.70000000298,7096,WL,A,4.0
1,10.263999938964844,learn,49736.000061035156,Fri Mar 28 2025 11:10:58 GMT-0500 (Central Daylight Time),186565.20000000298,A,r,O,r,2522,1,2532.2999999970198,184032.90000000596,7096,WL,A,5.0
1,11.331000089645386,learn,48668.999910354614,Fri Mar 28 2025 11:10:58 GMT-0500 (Central Daylight Time),187631.40000000596,A,ra,O,a,1048,1,3598.5,184032.90000000596,7096,WL,A,5.0
1,11.730999946594238,learn,48269.00005340576,Fri Mar 28 2025 11:10:58 GMT-0500 (Central Daylight Time),188031.40000000596,A,rat,O,t,388,1,3998.5,184032.90000000596,7096,WL,A,5.0
1,11.913000106811523,learn,48086.99989318848,Fri Mar 28 2025 11:10:58 GMT-0500 (Central Daylight Time),188214.09999999404,A,ratt,O,t,163,1,4181.199999988079,184032.90000000596,7096,WL,A,5.0
1,12.067000150680542,learn,47932.99984931946,Fri Mar 28 2025 11:10:58 GMT-0500 (Central Daylight Time),188368.0,A,rattl,O,l,142,1,4335.0999999940395,184032.90000000596,7096,WL,A,5.0
1,12.248000144958496,learn,47751.999855041504,Fri Mar 28 2025 11:10:58 GMT-0500 (Central Daylight Time),188549.09999999404,A,rattle,O,e,164,1,4516.199999988079,184032.90000000596,7096,WL,A,5.0
1,12.79800009727478,learn,47201.99990272522,Fri Mar 28 2025 11:10:58 GMT-0500 (Central Daylight Time),189099.0,A,rattleenter,O,enter,537,1,5066.0999999940395,184032.90000000596,7096,WL,A,5.0
1,13.164999961853027,learn,46835.00003814697,Fri Mar 28 2025 11:10:58 GMT-0500 (Central Daylight Time),189466.09999999404,A,a,O,a,345,1,366.79999999701977,189099.29999999702,7096,WL,A,6.0
1,13.347000122070312,learn,46652.99987792969,Fri Mar 28 2025 11:10:58 GMT-0500 (Central Daylight Time),189648.40000000596,A,ap,O,p,161,1,549.1000000089407,189099.29999999702,7096,WL,A,6.0
1,13.496999979019165,learn,46503.000020980835,Fri Mar 28 2025 11:10:58 GMT-0500 (Central Daylight Time),189798.20000000298,A,app,O,p,130,1,698.9000000059605,189099.29999999702,7096,WL,A,6.0
1,13.71399998664856,learn,46286.00001335144,Fri Mar 28 2025 11:10:58 GMT-0500 (Central Daylight Time),190014.79999999702,A,appl,O,l,196,1,915.5,189099.29999999702,7096,WL,A,6.0
1,13.880000114440918,learn,46119.99988555908,Fri Mar 28 2025 11:10:58 GMT-0500 (Central Daylight Time),190180.90000000596,A,apple,O,e,157,1,1081.6000000089407,189099.29999999702,7096,WL,A,6.0
1,14.694999933242798,learn,45305.0000667572,Fri Mar 28 2025 11:10:58 GMT-0500 (Central Daylight Time),190995.90000000596,A,appleenter,O,enter,792,1,1896.6000000089407,189099.29999999702,7096,WL,A,6.0
1,26.14300012588501,learn,33856.99987411499,Fri Mar 28 2025 11:10:58 GMT-0500 (Central Daylight Time),202444.09999999404,A,m,O,m,11433,1,11447.79999999702,190996.29999999702,7096,WL,A,7.0
1,26.278000116348267,learn,33721.99988365173,Fri Mar 28 2025 11:10:58 GMT-0500 (Central Daylight Time),202578.59999999404,A,me,O,e,128,1,11582.29999999702,190996.29999999702,7096,WL,A,7.0
1,26.39300012588501,learn,33606.99987411499,Fri Mar 28 2025 11:10:58 GMT-0500 (Central Daylight Time),202693.5,A,mea,O,a,97,1,11697.20000000298,190996.29999999702,7096,WL,A,7.0
1,26.710000038146973,learn,33289.99996185303,Fri Mar 28 2025 11:10:58 GMT-0500 (Central Daylight Time),203010.59999999404,A,mead,O,d,302,1,12014.29999999702,190996.29999999702,7096,WL,A,7.0
1,26.89300012588501,learn,33106.99987411499,Fri Mar 28 2025 11:10:58 GMT-0500 (Central Daylight Time),203194.20000000298,A,meado,O,o,177,1,12197.90000000596,190996.29999999702,7096,WL,A,7.0
1,27.192000150680542,learn,32807.99984931946,Fri Mar 28 2025 11:10:58 GMT-0500 (Central Daylight Time),203492.59999999404,A,meadow,O,w,290,1,12496.29999999702,190996.29999999702,7096,WL,A,7.0
1,27.975000143051147,learn,32024.999856948853,Fri Mar 28 2025 11:10:58 GMT-0500 (Central Daylight Time),204276.20000000298,A,meadowenter,O,enter,763,1,13279.90000000596,190996.29999999702,7096,WL,A,7.0
1,50.70300006866455,learn,9296.99993133545,Fri Mar 28 2025 11:10:58 GMT-0500 (Central Daylight Time),227003.5,A,enter,O,enter,22712,1,22726.90000000596,204276.59999999404,7096,WL,A,8.0
1,60.013999938964844,learn,-13.99993896484375,Fri Mar 28 2025 11:10:58 GMT-0500 (Central Daylight Time),236316.40000000596,A,None,O,None,9307,1,9312.5,227003.90000000596,7096,WL,A,9.0
2,1.3829998970031738,learn,58617.000102996826,Fri Mar 28 2025 11:10:58 GMT-0500 (Central Daylight Time),312625.299999997,A,c,O,c,1361,1,1382.5999999940395,311242.700000003,7096,WL,A,1.0
2,1.5329999923706055,learn,58467.000007629395,Fri Mar 28 2025 11:10:58 GMT-0500 (Central Daylight Time),312775.299999997,A,ch,O,h,137,1,1532.5999999940395,311242.700000003,7096,WL,A,1.0
2,1.816999912261963,learn,58183.00008773804,Fri Mar 28 2025 11:10:58 GMT-0500 (Central Daylight Time),313059.90000000596,A,chi,O,i,279,1,1817.2000000029802,311242.700000003,7096,WL,A,1.0
2,2.2990000247955322,learn,57700.99997520447,Fri Mar 28 2025 11:10:58 GMT-0500 (Central Daylight Time),313541.40000000596,A,chin,O,n,471,1,2298.7000000029802,311242.700000003,7096,WL,A,1.0
2,2.816999912261963,learn,57183.00008773804,Fri Mar 28 2025 11:10:58 GMT-0500 (Central Daylight Time),314059.40000000596,A,chi,O,backspace,511,1,2816.7000000029802,311242.700000003,7096,WL,A,1.0
2,3.1480000019073486,learn,56851.99999809265,Fri Mar 28 2025 11:10:58 GMT-0500 (Central Daylight Time),314391.09999999404,A,chim,O,m,319,1,3148.3999999910593,311242.700000003,7096,WL,A,1.0
2,3.382999897003174,learn,56617.000102996826,Fri Mar 28 2025 11:10:58 GMT-0500 (Central Daylight Time),314625.700000003,A,chimn,O,n,212,1,3383.0,311242.700000003,7096,WL,A,1.0
2,3.5149998664855957,learn,56485.000133514404,Fri Mar 28 2025 11:10:58 GMT-0500 (Central Daylight Time),314757.5,A,chimne,O,e,122,1,3514.7999999970198,311242.700000003,7096,WL,A,1.0
2,3.680999994277954,learn,56319.000005722046,Fri Mar 28 2025 11:10:58 GMT-0500 (Central Daylight Time),314924.0,A,chimney,O,y,159,1,3681.2999999970198,311242.700000003,7096,WL,A,1.0
2,4.480999946594238,learn,55519.00005340576,Fri Mar 28 2025 11:10:58 GMT-0500 (Central Daylight Time),315723.700000003,A,chimneyenter,O,enter,781,1,4481.0,311242.700000003,7096,WL,A,1.0
2,4.930999994277954,learn,55069.000005722046,Fri Mar 28 2025 11:10:58 GMT-0500 (Central Daylight Time),316174.09999999404,A,r,O,r,432,1,450.09999999403954,315724.0,7096,WL,A,2.0
2,5.06499981880188,learn,54935.00018119812,Fri Mar 28 2025 11:10:58 GMT-0500 (Central Daylight Time),316307.40000000596,A,ra,O,a,116,1,583.4000000059605,315724.0,7096,WL,A,2.0
2,5.2809998989105225,learn,54719.00010108948,Fri Mar 28 2025 11:10:58 GMT-0500 (Central Daylight Time),316524.0,A,rat,O,t,200,1,800.0,315724.0,7096,WL,A,2.0
2,5.46399998664856,learn,54536.00001335144,Fri Mar 28 2025 11:10:58 GMT-0500 (Central Daylight Time),316706.700000003,A,ratt,O,t,168,1,982.7000000029802,315724.0,7096,WL,A,2.0
2,5.630999803543091,learn,54369.00019645691,Fri Mar 28 2025 11:10:58 GMT-0500 (Central Daylight Time),316874.09999999404,A,rattl,O,l,152,1,1150.0999999940395,315724.0,7096,WL,A,2.0
2,5.799000024795532,learn,54200.99997520447,Fri Mar 28 2025 11:10:58 GMT-0500 (Central Daylight Time),317041.200000003,A,rattle,O,e,146,1,1317.2000000029802,315724.0,7096,WL,A,2.0
2,6.181999921798706,learn,53818.000078201294,Fri Mar 28 2025 11:10:58 GMT-0500 (Central Daylight Time),317424.700000003,A,rattleenter,O,enter,361,1,1700.7000000029802,315724.0,7096,WL,A,2.0
2,6.615000009536743,learn,53384.99999046326,Fri Mar 28 2025 11:10:58 GMT-0500 (Central Daylight Time),317857.40000000596,A,l,O,l,420,1,432.40000000596046,317425.0,7096,WL,A,3.0
2,6.813999891281128,learn,53186.00010871887,Fri Mar 28 2025 11:10:58 GMT-0500 (Central Daylight Time),318056.299999997,A,lo,O,o,186,1,631.2999999970198,317425.0,7096,WL,A,3.0
2,7.031999826431274,learn,52968.000173568726,Fri Mar 28 2025 11:10:58 GMT-0500 (Central Daylight Time),318274.799999997,A,log,O,g,213,1,849.7999999970198,317425.0,7096,WL,A,3.0
2,7.4649999141693115,learn,52535.00008583069,Fri Mar 28 2025 11:10:58 GMT-0500 (Central Daylight Time),318707.5,A,logenter,O,enter,411,1,1282.5,317425.0,7096,WL,A,3.0
2,8.562999963760376,learn,51437.000036239624,Fri Mar 28 2025 11:10:58 GMT-0500 (Central Daylight Time),319805.90000000596,A,f,O,f,1080,1,1098.2000000029802,318707.700000003,7096,WL,A,4.0
2,8.681999921798706,learn,51318.000078201294,Fri Mar 28 2025 11:10:58 GMT-0500 (Central Daylight Time),319924.40000000596,A,fl,O,l,113,1,1216.7000000029802,318707.700000003,7096,WL,A,4.0
2,8.896999835968018,learn,51103.00016403198,Fri Mar 28 2025 11:10:58 GMT-0500 (Central Daylight Time),320140.0,A,flo,O,o,209,1,1432.2999999970198,318707.700000003,7096,WL,A,4.0
2,9.030999898910522,learn,50969.00010108948,Fri Mar 28 2025 11:10:58 GMT-0500 (Central Daylight Time),320274.0,A,flow,O,w,128,1,1566.2999999970198,318707.700000003,7096,WL,A,4.0
2,9.212999820709229,learn,50787.00017929077,Fri Mar 28 2025 11:10:58 GMT-0500 (Central Daylight Time),320455.700000003,A,flowe,O,e,160,1,1748.0,318707.700000003,7096,WL,A,4.0
2,9.329999923706055,learn,50670.000076293945,Fri Mar 28 2025 11:10:58 GMT-0500 (Central Daylight Time),320573.0,A,flower,O,r,100,1,1865.2999999970198,318707.700000003,7096,WL,A,4.0
2,9.645999908447266,learn,50354.000091552734,Fri Mar 28 2025 11:10:58 GMT-0500 (Central Daylight Time),320888.799999997,A,flowerenter,O,enter,304,1,2181.0999999940395,318707.700000003,7096,WL,A,4.0
2,10.27999997138977,learn,49720.00002861023,Fri Mar 28 2025 11:10:58 GMT-0500 (Central Daylight Time),321522.200000003,A,f,O,f,612,1,633.1000000089407,320889.09999999404,7096,WL,A,5.0
2,10.379999876022339,learn,49620.00012397766,Fri Mar 28 2025 11:10:58 GMT-0500 (Central Daylight Time),321622.799999997,A,fi,O,i,88,1,733.7000000029802,320889.09999999404,7096,WL,A,5.0
2,10.513999938964844,learn,49486.000061035156,Fri Mar 28 2025 11:10:58 GMT-0500 (Central Daylight Time),321756.200000003,A,fin,O,n,117,1,867.1000000089407,320889.09999999404,7096,WL,A,5.0
2,10.679999828338623,learn,49320.00017166138,Fri Mar 28 2025 11:10:58 GMT-0500 (Central Daylight Time),321922.799999997,A,fing,O,g,161,1,1033.7000000029802,320889.09999999404,7096,WL,A,5.0
2,10.92799997329712,learn,49072.00002670288,Fri Mar 28 2025 11:10:58 GMT-0500 (Central Daylight Time),322171.200000003,A,finge,O,e,233,1,1282.1000000089407,320889.09999999404,7096,WL,A,5.0
2,11.013000011444092,learn,48986.99998855591,Fri Mar 28 2025 11:10:58 GMT-0500 (Central Daylight Time),322255.5,A,finger,O,r,72,1,1366.4000000059605,320889.09999999404,7096,WL,A,5.0
2,11.394999980926514,learn,48605.000019073486,Fri Mar 28 2025 11:10:58 GMT-0500 (Central Daylight Time),322638.0,A,fingerenter,O,enter,363,1,1748.9000000059605,320889.09999999404,7096,WL,A,5.0
2,13.26199984550476,learn,46738.00015449524,Fri Mar 28 2025 11:10:58 GMT-0500 (Central Daylight Time),324505.299999997,A,b,O,b,1855,1,1867.0999999940395,322638.200000003,7096,WL,A,6.0
2,13.411999940872192,learn,46588.00005912781,Fri Mar 28 2025 11:10:58 GMT-0500 (Central Daylight Time),324655.09999999404,A,bo,O,o,140,1,2016.8999999910593,322638.200000003,7096,WL,A,6.0
2,14.310999870300293,learn,45689.00012969971,Fri Mar 28 2025 11:10:58 GMT-0500 (Central Daylight Time),325553.799999997,A,boo,O,o,893,1,2915.5999999940395,322638.200000003,7096,WL,A,6.0
2,14.84500002861023,learn,45154.99997138977,Fri Mar 28 2025 11:10:58 GMT-0500 (Central Daylight Time),326088.0,A,bool,O,l,514,1,3449.7999999970198,322638.200000003,7096,WL,A,6.0
2,15.510999917984009,learn,44489.00008201599,Fri Mar 28 2025 11:10:58 GMT-0500 (Central Daylight Time),326754.200000003,A,boo,O,backspace,652,1,4116.0,322638.200000003,7096,WL,A,6.0
2,16.144999980926514,learn,43855.000019073486,Fri Mar 28 2025 11:10:58 GMT-0500 (Central Daylight Time),327387.700000003,A,book,O,k,619,1,4749.5,322638.200000003,7096,WL,A,6.0
2,16.51199984550476,learn,43488.00015449524,Fri Mar 28 2025 11:10:58 GMT-0500 (Central Daylight Time),327754.799999997,A,bookenter,O,enter,360,1,5116.5999999940395,322638.200000003,7096,WL,A,6.0
2,16.94599986076355,learn,43054.00013923645,Fri Mar 28 2025 11:10:58 GMT-0500 (Central Daylight Time),328188.90000000596,A,a,O,a,417,1,433.70000000298023,327755.200000003,7096,WL,A,7.0
2,17.07799983024597,learn,42922.00016975403,Fri Mar 28 2025 11:10:58 GMT-0500 (Central Daylight Time),328320.40000000596,A,ap,O,p,111,1,565.2000000029802,327755.200000003,7096,WL,A,7.0
2,17.277999877929688,learn,42722.00012207031,Fri Mar 28 2025 11:10:58 GMT-0500 (Central Daylight Time),328520.5,A,app,O,p,187,1,765.2999999970198,327755.200000003,7096,WL,A,7.0
2,17.494999885559082,learn,42505.00011444092,Fri Mar 28 2025 11:10:58 GMT-0500 (Central Daylight Time),328737.59999999404,A,appl,O,l,211,1,982.3999999910593,327755.200000003,7096,WL,A,7.0
2,17.694000005722046,learn,42305.999994277954,Fri Mar 28 2025 11:10:58 GMT-0500 (Central Daylight Time),328936.90000000596,A,apple,O,e,178,1,1181.7000000029802,327755.200000003,7096,WL,A,7.0
2,18.04699993133545,learn,41953.00006866455,Fri Mar 28 2025 11:10:58 GMT-0500 (Central Daylight Time),329289.59999999404,A,appleenter,O,enter,338,1,1534.3999999910593,327755.200000003,7096,WL,A,7.0
2,18.67799997329712,learn,41322.00002670288,Fri Mar 28 2025 11:10:58 GMT-0500 (Central Daylight Time),329920.799999997,A,m,O,m,619,1,630.7999999970198,329290.0,7096,WL,A,8.0
2,18.792999982833862,learn,41207.00001716614,Fri Mar 28 2025 11:10:58 GMT-0500 (Central Daylight Time),330035.90000000596,A,me,O,e,93,1,745.9000000059605,329290.0,7096,WL,A,8.0
2,18.90999984741211,learn,41090.00015258789,Fri Mar 28 2025 11:10:58 GMT-0500 (Central Daylight Time),330153.0,A,mea,O,a,103,1,863.0,329290.0,7096,WL,A,8.0
2,19.34500002861023,learn,40654.99997138977,Fri Mar 28 2025 11:10:58 GMT-0500 (Central Daylight Time),330587.200000003,A,mead,O,d,427,1,1297.2000000029802,329290.0,7096,WL,A,8.0
2,19.825999975204468,learn,40174.00002479553,Fri Mar 28 2025 11:10:58 GMT-0500 (Central Daylight Time),331068.90000000596,A,meado,O,o,464,1,1778.9000000059605,329290.0,7096,WL,A,8.0
2,20.144999980926514,learn,39855.000019073486,Fri Mar 28 2025 11:10:58 GMT-0500 (Central Daylight Time),331387.700000003,A,meadow,O,w,311,1,2097.7000000029802,329290.0,7096,WL,A,8.0
2,21.192999839782715,learn,38807.000160217285,Fri Mar 28 2025 11:10:58 GMT-0500 (Central Daylight Time),332435.5,A,meadowenter,O,enter,1033,1,3145.5,329290.0,7096,WL,A,8.0
2,22.228999853134155,learn,37771.000146865845,Fri Mar 28 2025 11:10:58 GMT-0500 (Central Daylight Time),333471.40000000596,A,k,O,k,1013,1,1035.7000000029802,332435.700000003,7096,WL,A,9.0
2,22.360999822616577,learn,37639.00017738342,Fri Mar 28 2025 11:10:58 GMT-0500 (Central Daylight Time),333603.90000000596,A,ke,O,e,125,1,1168.2000000029802,332435.700000003,7096,WL,A,9.0
2,22.743000030517578,learn,37256.99996948242,Fri Mar 28 2025 11:10:58 GMT-0500 (Central Daylight Time),333985.90000000596,A,key,O,y,374,1,1550.2000000029802,332435.700000003,7096,WL,A,9.0
2,23.258999824523926,learn,36741.000175476074,Fri Mar 28 2025 11:10:58 GMT-0500 (Central Daylight Time),334502.09999999404,A,keyenter,O,enter,506,1,2066.3999999910593,332435.700000003,7096,WL,A,9.0
2,24.243000030517578,learn,35756.99996948242,Fri Mar 28 2025 11:10:58 GMT-0500 (Central Daylight Time),335486.200000003,A,g,O,g,974,1,983.7999999970198,334502.40000000596,7096,WL,A,10.0
2,24.39199995994568,learn,35608.00004005432,Fri Mar 28 2025 11:10:58 GMT-0500 (Central Daylight Time),335634.799999997,A,go,O,o,128,1,1132.3999999910593,334502.40000000596,7096,WL,A,10.0
2,24.625,learn,35375.0,Fri Mar 28 2025 11:10:58 GMT-0500 (Central Daylight Time),335867.90000000596,A,gol,O,l,223,1,1365.5,334502.40000000596,7096,WL,A,10.0
2,24.80900001525879,learn,35190.99998474121,Fri Mar 28 2025 11:10:58 GMT-0500 (Central Daylight Time),336051.799999997,A,gold,O,d,166,1,1549.3999999910593,334502.40000000596,7096,WL,A,10.0
2,25.390999794006348,learn,34609.00020599365,Fri Mar 28 2025 11:10:58 GMT-0500 (Central Daylight Time),336634.200000003,A,goldenter,O,enter,559,1,2131.7999999970198,334502.40000000596,7096,WL,A,10.0
2,32.223999977111816,learn,27776.000022888184,Fri Mar 28 2025 11:10:58 GMT-0500 (Central Daylight Time),343466.700000003,A,r,O,r,6819,1,6832.20000000298,336634.5,7096,WL,A,11.0
2,32.42400002479553,learn,27575.999975204468,Fri Mar 28 2025 11:10:58 GMT-0500 (Central Daylight Time),343666.5,A,ru,O,u,193,1,7032.0,336634.5,7096,WL,A,11.0
2,32.75699996948242,learn,27243.000030517578,Fri Mar 28 2025 11:10:58 GMT-0500 (Central Daylight Time),343999.299999997,A,rug,O,g,313,1,7364.79999999702,336634.5,7096,WL,A,11.0
2,33.15599989891052,learn,26844.000101089478,Fri Mar 28 2025 11:10:58 GMT-0500 (Central Daylight Time),344399.09999999404,A,rugenter,O,enter,379,1,7764.5999999940395,336634.5,7096,WL,A,11.0
2,43.401999950408936,learn,16598.000049591064,Fri Mar 28 2025 11:10:58 GMT-0500 (Central Daylight Time),354644.40000000596,A,r,O,r,10237,1,10245.10000000894,344399.299999997,7096,WL,A,12.0
2,43.66799998283386,learn,16332.000017166138,Fri Mar 28 2025 11:10:58 GMT-0500 (Central Daylight Time),354910.700000003,A,ra,O,a,248,1,10511.40000000596,344399.299999997,7096,WL,A,12.0
2,43.9539999961853,learn,16046.000003814697,Fri Mar 28 2025 11:10:58 GMT-0500 (Central Daylight Time),355196.799999997,A,rat,O,t,280,1,10797.5,344399.299999997,7096,WL,A,12.0
2,44.11899995803833,learn,15881.00004196167,Fri Mar 28 2025 11:10:58 GMT-0500 (Central Daylight Time),355362.0,A,ratt,O,t,150,1,10962.70000000298,344399.299999997,7096,WL,A,12.0
2,44.3199999332428,learn,15680.000066757202,Fri Mar 28 2025 11:10:58 GMT-0500 (Central Daylight Time),355562.59999999404,A,rattl,O,l,174,1,11163.29999999702,344399.299999997,7096,WL,A,12.0
2,44.43599987030029,learn,15564.000129699707,Fri Mar 28 2025 11:10:58 GMT-0500 (Central Daylight Time),355678.799999997,A,rattle,O,e,98,1,11279.5,344399.299999997,7096,WL,A,12.0
2,44.78499984741211,learn,15215.00015258789,Fri Mar 28 2025 11:10:58 GMT-0500 (Central Daylight Time),356027.5,A,rattleenter,O,enter,333,1,11628.20000000298,344399.299999997,7096,WL,A,12.0
2,60.01099991798401,learn,-10.999917984008789,Fri Mar 28 2025 11:10:58 GMT-0500 (Central Daylight Time),371255.5,A,None,O,None,15223,1,15227.79999999702,356027.700000003,7096,WL,A,13.0
3,0.9510002136230469,learn,59048.99978637695,Fri Mar 28 2025 11:10:58 GMT-0500 (Central Daylight Time),464827.0,A,b,O,b,935,1,950.2000000029802,463876.799999997,7096,WL,A,1.0
3,1.1520001888275146,learn,58847.999811172485,Fri Mar 28 2025 11:10:58 GMT-0500 (Central Daylight Time),465028.200000003,A,bo,O,o,195,1,1151.4000000059605,463876.799999997,7096,WL,A,1.0
3,1.318000078201294,learn,58681.999921798706,Fri Mar 28 2025 11:10:58 GMT-0500 (Central Daylight Time),465194.299999997,A,boo,O,o,160,1,1317.5,463876.799999997,7096,WL,A,1.0
3,1.567000150680542,learn,58432.99984931946,Fri Mar 28 2025 11:10:58 GMT-0500 (Central Daylight Time),465443.40000000596,A,book,O,k,231,1,1566.6000000089407,463876.799999997,7096,WL,A,1.0
3,2.3510000705718994,learn,57648.9999294281,Fri Mar 28 2025 11:10:58 GMT-0500 (Central Daylight Time),466227.40000000596,A,bookenter,O,enter,767,1,2350.6000000089407,463876.799999997,7096,WL,A,1.0
3,2.749000072479248,learn,57250.99992752075,Fri Mar 28 2025 11:10:58 GMT-0500 (Central Daylight Time),466625.59999999404,A,a,O,a,384,1,397.8999999910593,466227.700000003,7096,WL,A,2.0
3,2.9670000076293945,learn,57032.999992370605,Fri Mar 28 2025 11:10:58 GMT-0500 (Central Daylight Time),466843.200000003,A,ap,O,p,204,1,615.5,466227.700000003,7096,WL,A,2.0
3,3.134000062942505,learn,56865.999937057495,Fri Mar 28 2025 11:10:58 GMT-0500 (Central Daylight Time),467010.0,A,app,O,p,151,1,782.2999999970198,466227.700000003,7096,WL,A,2.0
3,3.3340001106262207,learn,56665.99988937378,Fri Mar 28 2025 11:10:58 GMT-0500 (Central Daylight Time),467210.59999999404,A,appl,O,l,190,1,982.8999999910593,466227.700000003,7096,WL,A,2.0
3,3.5,learn,56500.0,Fri Mar 28 2025 11:10:58 GMT-0500 (Central Daylight Time),467375.90000000596,A,apple,O,e,151,1,1148.2000000029802,466227.700000003,7096,WL,A,2.0
3,4.132000207901001,learn,55867.999792099,Fri Mar 28 2025 11:10:58 GMT-0500 (Central Daylight Time),468007.90000000596,A,appleenter,O,enter,620,1,1780.2000000029802,466227.700000003,7096,WL,A,2.0
3,4.8490002155303955,learn,55150.999784469604,Fri Mar 28 2025 11:10:58 GMT-0500 (Central Daylight Time),468725.59999999404,A,m,O,m,700,1,717.5,468008.09999999404,7096,WL,A,3.0
3,4.950000047683716,learn,55049.999952316284,Fri Mar 28 2025 11:10:58 GMT-0500 (Central Daylight Time),468826.09999999404,A,me,O,e,77,1,818.0,468008.09999999404,7096,WL,A,3.0
3,5.083000183105469,learn,54916.99981689453,Fri Mar 28 2025 11:10:58 GMT-0500 (Central Daylight Time),468959.0,A,mea,O,a,122,1,950.9000000059605,468008.09999999404,7096,WL,A,3.0
3,5.383000135421753,learn,54616.99986457825,Fri Mar 28 2025 11:10:58 GMT-0500 (Central Daylight Time),469259.0,A,mead,O,d,284,1,1250.9000000059605,468008.09999999404,7096,WL,A,3.0
3,5.54800009727478,learn,54451.99990272522,Fri Mar 28 2025 11:10:58 GMT-0500 (Central Daylight Time),469424.0,A,meado,O,o,151,1,1415.9000000059605,468008.09999999404,7096,WL,A,3.0
3,5.749000072479248,learn,54250.99992752075,Fri Mar 28 2025 11:10:58 GMT-0500 (Central Daylight Time),469625.40000000596,A,meadow,O,w,196,1,1617.300000011921,468008.09999999404,7096,WL,A,3.0
3,6.299000024795532,learn,53700.99997520447,Fri Mar 28 2025 11:10:58 GMT-0500 (Central Daylight Time),470175.5,A,meadowenter,O,enter,528,1,2167.4000000059605,468008.09999999404,7096,WL,A,3.0
3,6.666000127792358,learn,53333.99987220764,Fri Mar 28 2025 11:10:58 GMT-0500 (Central Daylight Time),470542.5,A,t,O,t,356,1,366.70000000298023,470175.799999997,7096,WL,A,4.0
3,6.867000102996826,learn,53132.999897003174,Fri Mar 28 2025 11:10:58 GMT-0500 (Central Daylight Time),470742.90000000596,A,tr,O,r,183,1,567.1000000089407,470175.799999997,7096,WL,A,4.0
3,7.001000165939331,learn,52998.99983406067,Fri Mar 28 2025 11:10:58 GMT-0500 (Central Daylight Time),470876.90000000596,A,tra,O,a,119,1,701.1000000089407,470175.799999997,7096,WL,A,4.0
3,7.249000072479248,learn,52750.99992752075,Fri Mar 28 2025 11:10:58 GMT-0500 (Central Daylight Time),471125.40000000596,A,trai,O,i,230,1,949.6000000089407,470175.799999997,7096,WL,A,4.0
3,7.366000175476074,learn,52633.999824523926,Fri Mar 28 2025 11:10:58 GMT-0500 (Central Daylight Time),471242.5,A,train,O,n,90,1,1066.7000000029802,470175.799999997,7096,WL,A,4.0
3,8.04800009727478,learn,51951.99990272522,Fri Mar 28 2025 11:10:58 GMT-0500 (Central Daylight Time),471924.09999999404,A,trainenter,O,enter,663,1,1748.2999999970198,470175.799999997,7096,WL,A,4.0
3,8.383000135421753,learn,51616.99986457825,Fri Mar 28 2025 11:10:58 GMT-0500 (Central Daylight Time),472259.0,A,s,O,s,321,1,334.70000000298023,471924.299999997,7096,WL,A,5.0
3,8.618000030517578,learn,51381.99996948242,Fri Mar 28 2025 11:10:58 GMT-0500 (Central Daylight Time),472494.200000003,A,sa,O,a,229,1,569.9000000059605,471924.299999997,7096,WL,A,5.0
3,8.800000190734863,learn,51199.99980926514,Fri Mar 28 2025 11:10:58 GMT-0500 (Central Daylight Time),472676.40000000596,A,sal,O,l,176,1,752.1000000089407,471924.299999997,7096,WL,A,5.0
3,9.081000089645386,learn,50918.999910354614,Fri Mar 28 2025 11:10:58 GMT-0500 (Central Daylight Time),472957.700000003,A,salt,O,t,269,1,1033.4000000059605,471924.299999997,7096,WL,A,5.0
3,9.364000082015991,learn,50635.99991798401,Fri Mar 28 2025 11:10:58 GMT-0500 (Central Daylight Time),473240.09999999404,A,saltenter,O,enter,267,1,1315.7999999970198,471924.299999997,7096,WL,A,5.0
3,10.081000089645386,learn,49918.999910354614,Fri Mar 28 2025 11:10:58 GMT-0500 (Central Daylight Time),473957.40000000596,A,g,O,g,709,1,717.0,473240.40000000596,7096,WL,A,6.0
3,10.247000217437744,learn,49752.999782562256,Fri Mar 28 2025 11:10:58 GMT-0500 (Central Daylight Time),474123.40000000596,A,go,O,o,148,1,883.0,473240.40000000596,7096,WL,A,6.0
3,10.782000064849854,learn,49217.99993515015,Fri Mar 28 2025 11:10:58 GMT-0500 (Central Daylight Time),474658.299999997,A,gol,O,l,519,1,1417.8999999910593,473240.40000000596,7096,WL,A,6.0
3,11.198000192642212,learn,48801.99980735779,Fri Mar 28 2025 11:10:58 GMT-0500 (Central Daylight Time),475074.09999999404,A,gold,O,d,398,1,1833.699999988079,473240.40000000596,7096,WL,A,6.0
3,11.830000162124634,learn,48169.999837875366,Fri Mar 28 2025 11:10:58 GMT-0500 (Central Daylight Time),475706.799999997,A,goldenter,O,enter,626,1,2466.3999999910593,473240.40000000596,7096,WL,A,6.0
3,12.38100004196167,learn,47618.99995803833,Fri Mar 28 2025 11:10:58 GMT-0500 (Central Daylight Time),476257.799999997,A,l,O,l,545,1,550.7000000029802,475707.09999999404,7096,WL,A,7.0
3,12.663000106811523,learn,47336.99989318848,Fri Mar 28 2025 11:10:58 GMT-0500 (Central Daylight Time),476540.700000003,A,lo,O,o,276,1,833.6000000089407,475707.09999999404,7096,WL,A,7.0
3,12.962000131607056,learn,47037.999868392944,Fri Mar 28 2025 11:10:58 GMT-0500 (Central Daylight Time),476839.799999997,A,log,O,g,281,1,1132.7000000029802,475707.09999999404,7096,WL,A,7.0
3,13.245000123977661,learn,46754.99987602234,Fri Mar 28 2025 11:10:58 GMT-0500 (Central Daylight Time),477122.299999997,A,logenter,O,enter,268,1,1415.2000000029802,475707.09999999404,7096,WL,A,7.0
3,14.09500002861023,learn,45904.99997138977,Fri Mar 28 2025 11:10:58 GMT-0500 (Central Daylight Time),477972.299999997,A,r,O,r,830,1,849.7000000029802,477122.59999999404,7096,WL,A,8.0
3,14.247000217437744,learn,45752.999782562256,Fri Mar 28 2025 11:10:58 GMT-0500 (Central Daylight Time),478124.5,A,ra,O,a,143,1,1001.9000000059605,477122.59999999404,7096,WL,A,8.0
3,14.461000204086304,learn,45538.999795913696,Fri Mar 28 2025 11:10:58 GMT-0500 (Central Daylight Time),478338.90000000596,A,rat,O,t,201,1,1216.300000011921,477122.59999999404,7096,WL,A,8.0
3,14.663000106811523,learn,45336.99989318848,Fri Mar 28 2025 11:10:58 GMT-0500 (Central Daylight Time),478540.799999997,A,ratt,O,t,195,1,1418.2000000029802,477122.59999999404,7096,WL,A,8.0
3,14.927000045776367,learn,45072.99995422363,Fri Mar 28 2025 11:10:58 GMT-0500 (Central Daylight Time),478805.0,A,rattl,O,l,257,1,1682.4000000059605,477122.59999999404,7096,WL,A,8.0
3,15.065000057220459,learn,44934.99994277954,Fri Mar 28 2025 11:10:58 GMT-0500 (Central Daylight Time),478942.5,A,rattle,O,e,130,1,1819.9000000059605,477122.59999999404,7096,WL,A,8.0
3,15.428000211715698,learn,44571.9997882843,Fri Mar 28 2025 11:10:58 GMT-0500 (Central Daylight Time),479305.5,A,rattleenter,O,enter,356,1,2182.9000000059605,477122.59999999404,7096,WL,A,8.0
3,15.961000204086304,learn,44038.999795913696,Fri Mar 28 2025 11:10:58 GMT-0500 (Central Daylight Time),479839.200000003,A,c,O,c,515,1,533.5,479305.700000003,7096,WL,A,9.0
3,16.14300012588501,learn,43856.99987411499,Fri Mar 28 2025 11:10:58 GMT-0500 (Central Daylight Time),480021.0,A,ch,O,h,172,1,715.2999999970198,479305.700000003,7096,WL,A,9.0
3,16.311000108718872,learn,43688.99989128113,Fri Mar 28 2025 11:10:58 GMT-0500 (Central Daylight Time),480189.09999999404,A,chi,O,i,150,1,883.3999999910593,479305.700000003,7096,WL,A,9.0
3,16.594000101089478,learn,43405.99989891052,Fri Mar 28 2025 11:10:58 GMT-0500 (Central Daylight Time),480471.799999997,A,chim,O,m,260,1,1166.0999999940395,479305.700000003,7096,WL,A,9.0
3,16.99500012397766,learn,43004.99987602234,Fri Mar 28 2025 11:10:58 GMT-0500 (Central Daylight Time),480873.09999999404,A,chimn,O,n,388,1,1567.3999999910593,479305.700000003,7096,WL,A,9.0
3,17.14400005340576,learn,42855.99994659424,Fri Mar 28 2025 11:10:58 GMT-0500 (Central Daylight Time),481021.799999997,A,chimne,O,e,139,1,1716.0999999940395,479305.700000003,7096,WL,A,9.0
3,17.377000093460083,learn,42622.99990653992,Fri Mar 28 2025 11:10:58 GMT-0500 (Central Daylight Time),481254.799999997,A,chimney,O,y,221,1,1949.0999999940395,479305.700000003,7096,WL,A,9.0
3,18.210000038146973,learn,41789.99996185303,Fri Mar 28 2025 11:10:58 GMT-0500 (Central Daylight Time),482087.799999997,A,chimneyenter,O,enter,820,1,2782.0999999940395,479305.700000003,7096,WL,A,9.0
3,21.993000030517578,learn,38006.99996948242,Fri Mar 28 2025 11:10:58 GMT-0500 (Central Daylight Time),485870.59999999404,A,f,O,f,3764,1,3782.5999999940395,482088.0,7096,WL,A,10.0
3,22.127000093460083,learn,37872.99990653992,Fri Mar 28 2025 11:10:58 GMT-0500 (Central Daylight Time),486004.299999997,A,fi,O,i,127,1,3916.2999999970198,482088.0,7096,WL,A,10.0
3,22.174000024795532,learn,37825.99997520447,Fri Mar 28 2025 11:10:58 GMT-0500 (Central Daylight Time),486051.299999997,A,fin,O,n,36,1,3963.2999999970198,482088.0,7096,WL,A,10.0
3,22.574000120162964,learn,37425.999879837036,Fri Mar 28 2025 11:10:58 GMT-0500 (Central Daylight Time),486452.0,A,fing,O,g,393,1,4364.0,482088.0,7096,WL,A,10.0
3,22.825000047683716,learn,37174.999952316284,Fri Mar 28 2025 11:10:58 GMT-0500 (Central Daylight Time),486702.700000003,A,finge,O,e,231,1,4614.70000000298,482088.0,7096,WL,A,10.0
3,22.925000190734863,learn,37074.99980926514,Fri Mar 28 2025 11:10:58 GMT-0500 (Central Daylight Time),486802.59999999404,A,finger,O,r,93,1,4714.5999999940395,482088.0,7096,WL,A,10.0
3,23.225000143051147,learn,36774.99985694885,Fri Mar 28 2025 11:10:58 GMT-0500 (Central Daylight Time),487102.700000003,A,fingerenter,O,enter,280,1,5014.70000000298,482088.0,7096,WL,A,10.0
3,23.693000078201294,learn,36306.999921798706,Fri Mar 28 2025 11:10:58 GMT-0500 (Central Daylight Time),487570.700000003,A,f,O,f,461,1,467.70000000298023,487103.0,7096,WL,A,11.0
3,23.874000072479248,learn,36125.99992752075,Fri Mar 28 2025 11:10:58 GMT-0500 (Central Daylight Time),487752.09999999404,A,fl,O,l,166,1,649.0999999940395,487103.0,7096,WL,A,11.0
3,24.075000047683716,learn,35924.999952316284,Fri Mar 28 2025 11:10:58 GMT-0500 (Central Daylight Time),487953.200000003,A,flo,O,o,186,1,850.2000000029802,487103.0,7096,WL,A,11.0
3,24.19100022315979,learn,35808.99977684021,Fri Mar 28 2025 11:10:58 GMT-0500 (Central Daylight Time),488068.700000003,A,flow,O,w,105,1,965.7000000029802,487103.0,7096,WL,A,11.0
3,24.27500009536743,learn,35724.99990463257,Fri Mar 28 2025 11:10:58 GMT-0500 (Central Daylight Time),488152.299999997,A,flowe,O,e,69,1,1049.2999999970198,487103.0,7096,WL,A,11.0
3,24.493000030517578,learn,35506.99996948242,Fri Mar 28 2025 11:10:58 GMT-0500 (Central Daylight Time),488370.200000003,A,flower,O,r,213,1,1267.2000000029802,487103.0,7096,WL,A,11.0
3,24.758000135421753,learn,35241.99986457825,Fri Mar 28 2025 11:10:58 GMT-0500 (Central Daylight Time),488636.09999999404,A,flowerenter,O,enter,260,1,1533.0999999940395,487103.0,7096,WL,A,11.0
3,25.424000024795532,learn,34575.99997520447,Fri Mar 28 2025 11:10:58 GMT-0500 (Central Daylight Time),489302.09999999404,A,k,O,k,648,1,665.6999999880791,488636.40000000596,7096,WL,A,12.0
3,25.592000007629395,learn,34407.999992370605,Fri Mar 28 2025 11:10:58 GMT-0500 (Central Daylight Time),489469.299999997,A,ke,O,e,143,1,832.8999999910593,488636.40000000596,7096,WL,A,12.0
3,25.825000047683716,learn,34174.999952316284,Fri Mar 28 2025 11:10:58 GMT-0500 (Central Daylight Time),489702.40000000596,A,key,O,y,214,1,1066.0,488636.40000000596,7096,WL,A,12.0
3,26.241000175476074,learn,33758.999824523926,Fri Mar 28 2025 11:10:58 GMT-0500 (Central Daylight Time),490118.90000000596,A,keyenter,O,enter,397,1,1482.5,488636.40000000596,7096,WL,A,12.0
3,33.789000034332275,learn,26210.999965667725,Fri Mar 28 2025 11:10:58 GMT-0500 (Central Daylight Time),497667.200000003,A,h,O,h,7543,1,7548.100000008941,490119.09999999404,7096,WL,A,13.0
3,33.92400002479553,learn,26075.999975204468,Fri Mar 28 2025 11:10:58 GMT-0500 (Central Daylight Time),497801.5,A,ha,O,a,118,1,7682.4000000059605,490119.09999999404,7096,WL,A,13.0
3,34.122000217437744,learn,25877.999782562256,Fri Mar 28 2025 11:10:58 GMT-0500 (Central Daylight Time),497999.90000000596,A,har,O,r,178,1,7880.800000011921,490119.09999999404,7096,WL,A,13.0
3,34.82200002670288,learn,25177.99997329712,Fri Mar 28 2025 11:10:58 GMT-0500 (Central Daylight Time),498699.59999999404,A,harp,O,p,694,1,8580.5,490119.09999999404,7096,WL,A,13.0
3,35.622000217437744,learn,24377.999782562256,Fri Mar 28 2025 11:10:58 GMT-0500 (Central Daylight Time),499499.59999999404,A,harpenter,O,enter,783,1,9380.5,490119.09999999404,7096,WL,A,13.0
3,42.26700019836426,learn,17732.999801635742,Fri Mar 28 2025 11:10:58 GMT-0500 (Central Daylight Time),506144.799999997,A,r,O,r,6623,1,6644.899999991059,499499.90000000596,7096,WL,A,14.0
3,42.48400020599365,learn,17515.999794006348,Fri Mar 28 2025 11:10:58 GMT-0500 (Central Daylight Time),506361.200000003,A,ru,O,u,212,1,6861.29999999702,499499.90000000596,7096,WL,A,14.0
3,42.85000014305115,learn,17149.999856948853,Fri Mar 28 2025 11:10:58 GMT-0500 (Central Daylight Time),506728.09999999404,A,rug,O,g,346,1,7228.199999988079,499499.90000000596,7096,WL,A,14.0
3,43.1010000705719,learn,16898.9999294281,Fri Mar 28 2025 11:10:58 GMT-0500 (Central Daylight Time),506978.799999997,A,rugenter,O,enter,247,1,7478.899999991059,499499.90000000596,7096,WL,A,14.0
3,50.91600012779236,learn,9083.999872207642,Fri Mar 28 2025 11:10:58 GMT-0500 (Central Daylight Time),514793.200000003,A,r,O,r,7802,1,7814.20000000298,506979.0,7096,WL,A,15.0
3,51.15000009536743,learn,8849.999904632568,Fri Mar 28 2025 11:10:58 GMT-0500 (Central Daylight Time),515027.5,A,ra,O,a,212,1,8048.5,506979.0,7096,WL,A,15.0
3,51.382000207901,learn,8617.999792098999,Fri Mar 28 2025 11:10:58 GMT-0500 (Central Daylight Time),515259.5,A,rat,O,t,226,1,8280.5,506979.0,7096,WL,A,15.0
3,51.54900002479553,learn,8450.999975204468,Fri Mar 28 2025 11:10:58 GMT-0500 (Central Daylight Time),515426.700000003,A,ratt,O,t,154,1,8447.70000000298,506979.0,7096,WL,A,15.0
3,51.69800019264221,learn,8301.999807357788,Fri Mar 28 2025 11:10:58 GMT-0500 (Central Daylight Time),515576.200000003,A,rattl,O,l,137,1,8597.20000000298,506979.0,7096,WL,A,15.0
3,51.866000175476074,learn,8133.999824523926,Fri Mar 28 2025 11:10:58 GMT-0500 (Central Daylight Time),515743.5,A,rattle,O,e,157,1,8764.5,506979.0,7096,WL,A,15.0
3,52.13100004196167,learn,7868.99995803833,Fri Mar 28 2025 11:10:58 GMT-0500 (Central Daylight Time),516008.200000003,A,rattleenter,O,enter,251,1,9029.20000000298,506979.0,7096,WL,A,15.0
4,0.6510000228881836,learn,59348.99997711182,Fri Mar 28 2025 11:10:58 GMT-0500 (Central Daylight Time),583223.099999994,A,g,O,g,627,1,650.1999999880791,582572.900000006,7096,WL,A,1.0
4,0.8340001106262207,learn,59165.99988937378,Fri Mar 28 2025 11:10:58 GMT-0500 (Central Daylight Time),583405.799999997,A,go,O,o,169,1,832.8999999910593,582572.900000006,7096,WL,A,1.0
4,1.1340000629425049,learn,58865.999937057495,Fri Mar 28 2025 11:10:58 GMT-0500 (Central Daylight Time),583706.299999997,A,gol,O,l,284,1,1133.3999999910593,582572.900000006,7096,WL,A,1.0
4,1.2850000858306885,learn,58714.99991416931,Fri Mar 28 2025 11:10:58 GMT-0500 (Central Daylight Time),583857.0,A,gold,O,d,130,1,1284.0999999940395,582572.900000006,7096,WL,A,1.0
4,1.934000015258789,learn,58065.99998474121,Fri Mar 28 2025 11:10:58 GMT-0500 (Central Daylight Time),584505.5,A,goldenter,O,enter,629,1,1932.5999999940395,582572.900000006,7096,WL,A,1.0
4,2.3340001106262207,learn,57665.99988937378,Fri Mar 28 2025 11:10:58 GMT-0500 (Central Daylight Time),584906.200000003,A,r,O,r,387,1,400.40000000596046,584505.799999997,7096,WL,A,2.0
4,2.4660000801086426,learn,57533.99991989136,Fri Mar 28 2025 11:10:58 GMT-0500 (Central Daylight Time),585038.099999994,A,ra,O,a,119,1,532.2999999970198,584505.799999997,7096,WL,A,2.0
4,2.6500000953674316,learn,57349.99990463257,Fri Mar 28 2025 11:10:58 GMT-0500 (Central Daylight Time),585221.799999997,A,rat,O,t,169,1,716.0,584505.799999997,7096,WL,A,2.0
4,2.8329999446868896,learn,57167.00005531311,Fri Mar 28 2025 11:10:58 GMT-0500 (Central Daylight Time),585405.099999994,A,ratt,O,t,174,1,899.2999999970198,584505.799999997,7096,WL,A,2.0
4,3.0320000648498535,learn,56967.99993515015,Fri Mar 28 2025 11:10:58 GMT-0500 (Central Daylight Time),585604.299999997,A,rattl,O,l,189,1,1098.5,584505.799999997,7096,WL,A,2.0
4,3.200000047683716,learn,56799.999952316284,Fri Mar 28 2025 11:10:58 GMT-0500 (Central Daylight Time),585772.099999994,A,rattle,O,e,157,1,1266.2999999970198,584505.799999997,7096,WL,A,2.0
4,3.433000087738037,learn,56566.99991226196,Fri Mar 28 2025 11:10:58 GMT-0500 (Central Daylight Time),586005.200000003,A,rattleenter,O,enter,221,1,1499.4000000059605,584505.799999997,7096,WL,A,2.0
4,3.816999912261963,learn,56183.00008773804,Fri Mar 28 2025 11:10:58 GMT-0500 (Central Daylight Time),586388.900000006,A,t,O,t,368,1,383.40000000596046,586005.5,7096,WL,A,3.0
4,4.033999919891357,learn,55966.00008010864,Fri Mar 28 2025 11:10:58 GMT-0500 (Central Daylight Time),586605.799999997,A,tr,O,r,198,1,600.2999999970198,586005.5,7096,WL,A,3.0
4,4.16700005531311,learn,55832.99994468689,Fri Mar 28 2025 11:10:58 GMT-0500 (Central Daylight Time),586738.900000006,A,tra,O,a,112,1,733.4000000059605,586005.5,7096,WL,A,3.0
4,4.416000127792358,learn,55583.99987220764,Fri Mar 28 2025 11:10:58 GMT-0500 (Central Daylight Time),586988.200000003,A,trai,O,i,230,1,982.7000000029802,586005.5,7096,WL,A,3.0
4,4.5329999923706055,learn,55467.000007629395,Fri Mar 28 2025 11:10:58 GMT-0500 (Central Daylight Time),587105.5,A,train,O,n,111,1,1100.0,586005.5,7096,WL,A,3.0
4,4.999000072479248,learn,55000.99992752075,Fri Mar 28 2025 11:10:58 GMT-0500 (Central Daylight Time),587571.200000003,A,trainenter,O,enter,444,1,1565.7000000029802,586005.5,7096,WL,A,3.0
4,5.452000141143799,learn,54547.9998588562,Fri Mar 28 2025 11:10:58 GMT-0500 (Central Daylight Time),588024.200000003,A,f,O,f,439,1,452.79999999701977,587571.400000006,7096,WL,A,4.0
4,5.647000074386597,learn,54352.9999256134,Fri Mar 28 2025 11:10:58 GMT-0500 (Central Daylight Time),588218.599999994,A,fi,O,i,180,1,647.1999999880791,587571.400000006,7096,WL,A,4.0
4,5.76800012588501,learn,54231.99987411499,Fri Mar 28 2025 11:10:58 GMT-0500 (Central Daylight Time),588339.5,A,fin,O,n,116,1,768.0999999940395,587571.400000006,7096,WL,A,4.0
4,5.966000080108643,learn,54033.99991989136,Fri Mar 28 2025 11:10:58 GMT-0500 (Central Daylight Time),588538.400000006,A,fing,O,g,169,1,967.0,587571.400000006,7096,WL,A,4.0
4,6.200000047683716,learn,53799.999952316284,Fri Mar 28 2025 11:10:58 GMT-0500 (Central Daylight Time),588771.900000006,A,finge,O,e,213,1,1200.5,587571.400000006,7096,WL,A,4.0
4,6.331000089645386,learn,53668.999910354614,Fri Mar 28 2025 11:10:58 GMT-0500 (Central Daylight Time),588903.400000006,A,finger,O,r,108,1,1332.0,587571.400000006,7096,WL,A,4.0
4,6.565000057220459,learn,53434.99994277954,Fri Mar 28 2025 11:10:58 GMT-0500 (Central Daylight Time),589136.900000006,A,fingerenter,O,enter,221,1,1565.5,587571.400000006,7096,WL,A,4.0
4,7.150000095367432,learn,52849.99990463257,Fri Mar 28 2025 11:10:58 GMT-0500 (Central Daylight Time),589722.200000003,A,f,O,f,562,1,585.0,589137.200000003,7096,WL,A,5.0
4,7.2829999923706055,learn,52717.000007629395,Fri Mar 28 2025 11:10:58 GMT-0500 (Central Daylight Time),589854.900000006,A,fl,O,l,107,1,717.7000000029802,589137.200000003,7096,WL,A,5.0
4,7.498000144958496,learn,52501.999855041504,Fri Mar 28 2025 11:10:58 GMT-0500 (Central Daylight Time),590070.5,A,flo,O,o,194,1,933.2999999970198,589137.200000003,7096,WL,A,5.0
4,7.63100004196167,learn,52368.99995803833,Fri Mar 28 2025 11:10:58 GMT-0500 (Central Daylight Time),590203.200000003,A,flow,O,w,117,1,1066.0,589137.200000003,7096,WL,A,5.0
4,7.7179999351501465,learn,52282.00006484985,Fri Mar 28 2025 11:10:58 GMT-0500 (Central Daylight Time),590289.5,A,flowe,O,e,77,1,1152.2999999970198,589137.200000003,7096,WL,A,5.0
4,7.8500001430511475,learn,52149.99985694885,Fri Mar 28 2025 11:10:58 GMT-0500 (Central Daylight Time),590422.400000006,A,flower,O,r,111,1,1285.2000000029802,589137.200000003,7096,WL,A,5.0
4,8.246999979019165,learn,51753.000020980835,Fri Mar 28 2025 11:10:58 GMT-0500 (Central Daylight Time),590819.400000006,A,flowerenter,O,enter,386,1,1682.2000000029802,589137.200000003,7096,WL,A,5.0
4,8.73200011253357,learn,51267.99988746643,Fri Mar 28 2025 11:10:58 GMT-0500 (Central Daylight Time),591304.400000006,A,b,O,b,465,1,484.80000001192093,590819.599999994,7096,WL,A,6.0
4,8.88100004196167,learn,51118.99995803833,Fri Mar 28 2025 11:10:58 GMT-0500 (Central Daylight Time),591453.200000003,A,bo,O,o,124,1,633.6000000089407,590819.599999994,7096,WL,A,6.0
4,9.064000129699707,learn,50935.99987030029,Fri Mar 28 2025 11:10:58 GMT-0500 (Central Daylight Time),591636.5,A,boo,O,o,172,1,816.9000000059605,590819.599999994,7096,WL,A,6.0
4,9.315000057220459,learn,50684.99994277954,Fri Mar 28 2025 11:10:58 GMT-0500 (Central Daylight Time),591886.900000006,A,book,O,k,224,1,1067.300000011921,590819.599999994,7096,WL,A,6.0
4,9.880000114440918,learn,50119.99988555908,Fri Mar 28 2025 11:10:58 GMT-0500 (Central Daylight Time),592451.799999997,A,bookenter,O,enter,556,1,1632.2000000029802,590819.599999994,7096,WL,A,6.0
4,10.315000057220459,learn,49684.99994277954,Fri Mar 28 2025 11:10:58 GMT-0500 (Central Daylight Time),592886.700000003,A,a,O,a,416,1,434.70000000298023,592452.0,7096,WL,A,7.0
4,10.480999946594238,learn,49519.00005340576,Fri Mar 28 2025 11:10:58 GMT-0500 (Central Daylight Time),593053.5,A,ap,O,p,147,1,601.5,592452.0,7096,WL,A,7.0
4,10.631999969482422,learn,49368.00003051758,Fri Mar 28 2025 11:10:58 GMT-0500 (Central Daylight Time),593203.599999994,A,app,O,p,141,1,751.5999999940395,592452.0,7096,WL,A,7.0
4,10.848999977111816,learn,49151.00002288818,Fri Mar 28 2025 11:10:58 GMT-0500 (Central Daylight Time),593421.099999994,A,appl,O,l,206,1,969.0999999940395,592452.0,7096,WL,A,7.0
4,10.999000072479248,learn,49000.99992752075,Fri Mar 28 2025 11:10:58 GMT-0500 (Central Daylight Time),593570.799999997,A,apple,O,e,139,1,1118.7999999970198,592452.0,7096,WL,A,7.0
4,11.279000043869019,learn,48720.99995613098,Fri Mar 28 2025 11:10:58 GMT-0500 (Central Daylight Time),593851.5,A,appleenter,O,enter,259,1,1399.5,592452.0,7096,WL,A,7.0
4,13.230000019073486,learn,46769.999980926514,Fri Mar 28 2025 11:10:58 GMT-0500 (Central Daylight Time),595802.5,A,r,O,r,1938,1,1950.7999999970198,593851.700000003,7096,WL,A,8.0
4,13.381999969482422,learn,46618.00003051758,Fri Mar 28 2025 11:10:58 GMT-0500 (Central Daylight Time),595953.900000006,A,ru,O,u,146,1,2102.2000000029802,593851.700000003,7096,WL,A,8.0
4,13.993000030517578,learn,46006.99996948242,Fri Mar 28 2025 11:10:58 GMT-0500 (Central Daylight Time),596565.900000006,A,rug,O,g,592,1,2714.2000000029802,593851.700000003,7096,WL,A,8.0
4,14.477999925613403,learn,45522.0000743866,Fri Mar 28 2025 11:10:58 GMT-0500 (Central Daylight Time),597051.700000003,A,rugenter,O,enter,472,1,3200.0,593851.700000003,7096,WL,A,8.0
4,15.677000045776367,learn,44322.99995422363,Fri Mar 28 2025 11:10:58 GMT-0500 (Central Daylight Time),598250.799999997,A,k,O,k,1185,1,1198.7999999970198,597052.0,7096,WL,A,9.0
4,15.84500002861023,learn,44154.99997138977,Fri Mar 28 2025 11:10:58 GMT-0500 (Central Daylight Time),598418.299999997,A,ke,O,e,144,1,1366.2999999970198,597052.0,7096,WL,A,9.0
4,16.0770001411438,learn,43922.9998588562,Fri Mar 28 2025 11:10:58 GMT-0500 (Central Daylight Time),598650.099999994,A,key,O,y,216,1,1598.0999999940395,597052.0,7096,WL,A,9.0
4,16.710999965667725,learn,43289.000034332275,Fri Mar 28 2025 11:10:58 GMT-0500 (Central Daylight Time),599284.400000006,A,keyenter,O,enter,623,1,2232.4000000059605,597052.0,7096,WL,A,9.0
4,21.444999933242798,learn,38555.0000667572,Fri Mar 28 2025 11:10:58 GMT-0500 (Central Daylight Time),604018.700000003,A,t,O,t,4728,1,4734.100000008941,599284.599999994,7096,WL,A,10.0
4,21.693000078201294,learn,38306.999921798706,Fri Mar 28 2025 11:10:58 GMT-0500 (Central Daylight Time),604266.599999994,A,tr,O,r,234,1,4982.0,599284.599999994,7096,WL,A,10.0
4,21.825000047683716,learn,38174.999952316284,Fri Mar 28 2025 11:10:58 GMT-0500 (Central Daylight Time),604398.5,A,tra,O,a,119,1,5113.9000000059605,599284.599999994,7096,WL,A,10.0
4,21.975000143051147,learn,38024.99985694885,Fri Mar 28 2025 11:10:58 GMT-0500 (Central Daylight Time),604548.799999997,A,trai,O,i,129,1,5264.20000000298,599284.599999994,7096,WL,A,10.0
4,22.127000093460083,learn,37872.99990653992,Fri Mar 28 2025 11:10:58 GMT-0500 (Central Daylight Time),604700.5,A,train,O,n,146,1,5415.9000000059605,599284.599999994,7096,WL,A,10.0
4,22.89300012588501,learn,37106.99987411499,Fri Mar 28 2025 11:10:58 GMT-0500 (Central Daylight Time),605465.900000006,A,trainenter,O,enter,750,1,6181.300000011921,599284.599999994,7096,WL,A,10.0
4,23.891000032424927,learn,36108.99996757507,Fri Mar 28 2025 11:10:58 GMT-0500 (Central Daylight Time),606464.599999994,A,a,O,a,987,1,998.5,605466.099999994,7096,WL,A,11.0
4,24.127000093460083,learn,35872.99990653992,Fri Mar 28 2025 11:10:58 GMT-0500 (Central Daylight Time),606699.900000006,A,ap,O,p,229,1,1233.800000011921,605466.099999994,7096,WL,A,11.0
4,24.30999994277954,learn,35690.00005722046,Fri Mar 28 2025 11:10:58 GMT-0500 (Central Daylight Time),606883.099999994,A,app,O,p,177,1,1417.0,605466.099999994,7096,WL,A,11.0
4,24.52500009536743,learn,35474.99990463257,Fri Mar 28 2025 11:10:58 GMT-0500 (Central Daylight Time),607097.900000006,A,appl,O,l,198,1,1631.800000011921,605466.099999994,7096,WL,A,11.0
4,24.691999912261963,learn,35308.00008773804,Fri Mar 28 2025 11:10:58 GMT-0500 (Central Daylight Time),607265.700000003,A,apple,O,e,161,1,1799.6000000089407,605466.099999994,7096,WL,A,11.0
4,24.94099998474121,learn,35059.00001525879,Fri Mar 28 2025 11:10:58 GMT-0500 (Central Daylight Time),607514.299999997,A,appleenter,O,enter,233,1,2048.2000000029802,605466.099999994,7096,WL,A,11.0
4,33.48799991607666,learn,26512.00008392334,Fri Mar 28 2025 11:10:58 GMT-0500 (Central Daylight Time),616061.799999997,A,h,O,h,8541,1,8547.29999999702,607514.5,7096,WL,A,12.0
4,33.621999979019165,learn,26378.000020980835,Fri Mar 28 2025 11:10:58 GMT-0500 (Central Daylight Time),616195.200000003,A,ha,O,a,128,1,8680.70000000298,607514.5,7096,WL,A,12.0
4,33.855000019073486,learn,26144.999980926514,Fri Mar 28 2025 11:10:58 GMT-0500 (Central Daylight Time),616428.799999997,A,har,O,r,215,1,8914.29999999702,607514.5,7096,WL,A,12.0
4,34.15499997138977,learn,25845.00002861023,Fri Mar 28 2025 11:10:58 GMT-0500 (Central Daylight Time),616728.5,A,harp,O,p,278,1,9214.0,607514.5,7096,WL,A,12.0
4,34.53800010681152,learn,25461.999893188477,Fri Mar 28 2025 11:10:58 GMT-0500 (Central Daylight Time),617111.799999997,A,harpenter,O,enter,370,1,9597.29999999702,607514.5,7096,WL,A,12.0
4,34.95700001716614,learn,25042.999982833862,Fri Mar 28 2025 11:10:58 GMT-0500 (Central Daylight Time),617530.200000003,A,s,O,s,413,1,418.20000000298023,617112.0,7096,WL,A,13.0
4,35.355000019073486,learn,24644.999980926514,Fri Mar 28 2025 11:10:58 GMT-0500 (Central Daylight Time),617928.700000003,A,sa,O,a,384,1,816.7000000029802,617112.0,7096,WL,A,13.0
4,35.521000146865845,learn,24478.999853134155,Fri Mar 28 2025 11:10:58 GMT-0500 (Central Daylight Time),618094.200000003,A,sal,O,l,151,1,982.2000000029802,617112.0,7096,WL,A,13.0
4,35.72200012207031,learn,24277.999877929688,Fri Mar 28 2025 11:10:58 GMT-0500 (Central Daylight Time),618295.200000003,A,salt,O,t,189,1,1183.2000000029802,617112.0,7096,WL,A,13.0
4,35.98699998855591,learn,24013.00001144409,Fri Mar 28 2025 11:10:58 GMT-0500 (Central Daylight Time),618560.799999997,A,saltenter,O,enter,250,1,1448.7999999970198,617112.0,7096,WL,A,13.0
4,39.670000076293945,learn,20329.999923706055,Fri Mar 28 2025 11:10:58 GMT-0500 (Central Daylight Time),622243.599999994,A,r,O,r,3676,1,3682.5,618561.099999994,7096,WL,A,14.0
4,39.855000019073486,learn,20144.999980926514,Fri Mar 28 2025 11:10:58 GMT-0500 (Central Daylight Time),622428.400000006,A,ra,O,a,177,1,3867.300000011921,618561.099999994,7096,WL,A,14.0
4,40.15300011634827,learn,19846.999883651733,Fri Mar 28 2025 11:10:58 GMT-0500 (Central Daylight Time),622726.799999997,A,rat,O,t,278,1,4165.70000000298,618561.099999994,7096,WL,A,14.0
4,40.335999965667725,learn,19664.000034332275,Fri Mar 28 2025 11:10:58 GMT-0500 (Central Daylight Time),622909.900000006,A,ratt,O,t,163,1,4348.800000011921,618561.099999994,7096,WL,A,14.0
4,40.47000002861023,learn,19529.99997138977,Fri Mar 28 2025 11:10:58 GMT-0500 (Central Daylight Time),623043.799999997,A,rattl,O,l,117,1,4482.70000000298,618561.099999994,7096,WL,A,14.0
4,40.61899995803833,learn,19381.00004196167,Fri Mar 28 2025 11:10:58 GMT-0500 (Central Daylight Time),623192.099999994,A,rattle,O,e,133,1,4631.0,618561.099999994,7096,WL,A,14.0
4,40.86899995803833,learn,19131.00004196167,Fri Mar 28 2025 11:10:58 GMT-0500 (Central Daylight Time),623442.099999994,A,rattleenter,O,enter,244,1,4881.0,618561.099999994,7096,WL,A,14.0
4,48.70099997520447,learn,11299.000024795532,Fri Mar 28 2025 11:10:58 GMT-0500 (Central Daylight Time),631274.700000003,A,b,O,b,7819,1,7832.29999999702,623442.400000006,7096,WL,A,15.0
4,48.91600012779236,learn,11083.999872207642,Fri Mar 28 2025 11:10:58 GMT-0500 (Central Daylight Time),631489.900000006,A,bo,O,o,193,1,8047.5,623442.400000006,7096,WL,A,15.0
4,49.10000014305115,learn,10899.999856948853,Fri Mar 28 2025 11:10:58 GMT-0500 (Central Daylight Time),631673.200000003,A,boo,O,o,159,1,8230.79999999702,623442.400000006,7096,WL,A,15.0
4,49.299999952316284,learn,10700.000047683716,Fri Mar 28 2025 11:10:58 GMT-0500 (Central Daylight Time),631873.799999997,A,book,O,k,177,1,8431.39999999106,623442.400000006,7096,WL,A,15.0
4,49.63300013542175,learn,10366.999864578247,Fri Mar 28 2025 11:10:58 GMT-0500 (Central Daylight Time),632206.799999997,A,bookenter,O,enter,313,1,8764.39999999106,623442.400000006,7096,WL,A,15.0
5,0.5340001583099365,learn,60000.0,Fri Mar 28 2025 11:10:58 GMT-0500 (Central Daylight Time),700819.200000003,A,g,O,g,518,1,533.7999999970198,700285.400000006,7096,WL,A,1.0
5,0.7009999752044678,learn,60000.0,Fri Mar 28 2025 11:10:58 GMT-0500 (Central Daylight Time),700986.599999994,A,go,O,o,160,1,701.1999999880791,700285.400000006,7096,WL,A,1.0
5,0.9650001525878906,learn,60000.0,Fri Mar 28 2025 11:10:58 GMT-0500 (Central Daylight Time),701250.400000006,A,gol,O,l,256,1,965.0,700285.400000006,7096,WL,A,1.0
5,1.0989999771118164,learn,60000.0,Fri Mar 28 2025 11:10:58 GMT-0500 (Central Daylight Time),701384.799999997,A,gold,O,d,123,1,1099.3999999910593,700285.400000006,7096,WL,A,1.0
5,1.9160001277923584,learn,60000.0,Fri Mar 28 2025 11:10:58 GMT-0500 (Central Daylight Time),702201.299999997,A,goldenter,O,enter,802,1,1915.8999999910593,700285.400000006,7096,WL,A,1.0
5,2.5490000247955322,learn,60000.0,Fri Mar 28 2025 11:10:58 GMT-0500 (Central Daylight Time),702834.700000003,A,c,O,c,613,1,633.0,702201.700000003,7096,WL,A,2.0
5,2.699000120162964,learn,60000.0,Fri Mar 28 2025 11:10:58 GMT-0500 (Central Daylight Time),702984.799999997,A,ch,O,h,136,1,783.0999999940395,702201.700000003,7096,WL,A,2.0
5,2.815999984741211,learn,60000.0,Fri Mar 28 2025 11:10:58 GMT-0500 (Central Daylight Time),703101.599999994,A,chi,O,i,101,1,899.8999999910593,702201.700000003,7096,WL,A,2.0
5,3.183000087738037,learn,60000.0,Fri Mar 28 2025 11:10:58 GMT-0500 (Central Daylight Time),703468.200000003,A,chim,O,m,344,1,1266.5,702201.700000003,7096,WL,A,2.0
5,3.432000160217285,learn,60000.0,Fri Mar 28 2025 11:10:58 GMT-0500 (Central Daylight Time),703717.400000006,A,chimn,O,n,237,1,1515.7000000029802,702201.700000003,7096,WL,A,2.0
5,3.5980000495910645,learn,60000.0,Fri Mar 28 2025 11:10:58 GMT-0500 (Central Daylight Time),703884.099999994,A,chimne,O,e,160,1,1682.3999999910593,702201.700000003,7096,WL,A,2.0
5,3.8500001430511475,learn,60000.0,Fri Mar 28 2025 11:10:58 GMT-0500 (Central Daylight Time),704135.400000006,A,chimney,O,y,231,1,1933.7000000029802,702201.700000003,7096,WL,A,2.0
5,4.29800009727478,learn,60000.0,Fri Mar 28 2025 11:10:58 GMT-0500 (Central Daylight Time),704583.400000006,A,chimneyenter,O,enter,427,1,2381.7000000029802,702201.700000003,7096,WL,A,2.0
5,4.799000024795532,learn,60000.0,Fri Mar 28 2025 11:10:58 GMT-0500 (Central Daylight Time),705084.099999994,A,h,O,h,484,1,500.3999999910593,704583.700000003,7096,WL,A,3.0
5,4.89900016784668,learn,60000.0,Fri Mar 28 2025 11:10:58 GMT-0500 (Central Daylight Time),705184.5,A,ha,O,a,79,1,600.7999999970198,704583.700000003,7096,WL,A,3.0
5,5.0980000495910645,learn,60000.0,Fri Mar 28 2025 11:10:58 GMT-0500 (Central Daylight Time),705383.900000006,A,har,O,r,187,1,800.2000000029802,704583.700000003,7096,WL,A,3.0
5,5.479000091552734,learn,60000.0,Fri Mar 28 2025 11:10:58 GMT-0500 (Central Daylight Time),705765.0,A,harp,O,p,370,1,1181.2999999970198,704583.700000003,7096,WL,A,3.0
5,5.8459999561309814,learn,60000.0,Fri Mar 28 2025 11:10:58 GMT-0500 (Central Daylight Time),706131.900000006,A,harpenter,O,enter,359,1,1548.2000000029802,704583.700000003,7096,WL,A,3.0
5,6.430000066757202,learn,60000.0,Fri Mar 28 2025 11:10:58 GMT-0500 (Central Daylight Time),706715.5,A,s,O,s,568,1,583.2999999970198,706132.200000003,7096,WL,A,4.0
5,6.6000001430511475,learn,60000.0,Fri Mar 28 2025 11:10:58 GMT-0500 (Central Daylight Time),706885.5,A,sa,O,a,163,1,753.2999999970198,706132.200000003,7096,WL,A,4.0
5,7.081000089645386,learn,60000.0,Fri Mar 28 2025 11:10:58 GMT-0500 (Central Daylight Time),707366.400000006,A,sal,O,l,462,1,1234.2000000029802,706132.200000003,7096,WL,A,4.0
5,7.398000001907349,learn,60000.0,Fri Mar 28 2025 11:10:58 GMT-0500 (Central Daylight Time),707683.200000003,A,salt,O,t,311,1,1551.0,706132.200000003,7096,WL,A,4.0
5,7.680999994277954,learn,60000.0,Fri Mar 28 2025 11:10:58 GMT-0500 (Central Daylight Time),707966.299999997,A,saltenter,O,enter,265,1,1834.0999999940395,706132.200000003,7096,WL,A,4.0
5,7.966000080108643,learn,60000.0,Fri Mar 28 2025 11:10:58 GMT-0500 (Central Daylight Time),708251.599999994,A,r,O,r,279,1,285.0,707966.599999994,7096,WL,A,5.0
5,8.098999977111816,learn,60000.0,Fri Mar 28 2025 11:10:58 GMT-0500 (Central Daylight Time),708384.299999997,A,ra,O,a,111,1,417.70000000298023,707966.599999994,7096,WL,A,5.0
5,8.312999963760376,learn,60000.0,Fri Mar 28 2025 11:10:58 GMT-0500 (Central Daylight Time),708598.900000006,A,rat,O,t,195,1,632.3000000119209,707966.599999994,7096,WL,A,5.0
5,8.496999979019165,learn,60000.0,Fri Mar 28 2025 11:10:58 GMT-0500 (Central Daylight Time),708783.099999994,A,ratt,O,t,164,1,816.5,707966.599999994,7096,WL,A,5.0
5,9.130000114440918,learn,60000.0,Fri Mar 28 2025 11:10:58 GMT-0500 (Central Daylight Time),709415.900000006,A,rattl,O,l,612,1,1449.300000011921,707966.599999994,7096,WL,A,5.0
5,9.264000177383423,learn,60000.0,Fri Mar 28 2025 11:10:58 GMT-0500 (Central Daylight Time),709549.900000006,A,rattle,O,e,113,1,1583.300000011921,707966.599999994,7096,WL,A,5.0
5,9.861999988555908,learn,60000.0,Fri Mar 28 2025 11:10:58 GMT-0500 (Central Daylight Time),710147.599999994,A,rattleenter,O,enter,578,1,2181.0,707966.599999994,7096,WL,A,5.0
5,10.696000099182129,learn,60000.0,Fri Mar 28 2025 11:10:58 GMT-0500 (Central Daylight Time),710981.900000006,A,k,O,k,816,1,834.1000000089407,710147.799999997,7096,WL,A,6.0
5,10.880000114440918,learn,60000.0,Fri Mar 28 2025 11:10:58 GMT-0500 (Central Daylight Time),711165.599999994,A,ke,O,e,175,1,1017.7999999970198,710147.799999997,7096,WL,A,6.0
5,11.147000074386597,learn,60000.0,Fri Mar 28 2025 11:10:58 GMT-0500 (Central Daylight Time),711432.700000003,A,key,O,y,254,1,1284.9000000059605,710147.799999997,7096,WL,A,6.0
5,11.57800006866455,learn,60000.0,Fri Mar 28 2025 11:10:58 GMT-0500 (Central Daylight Time),711863.900000006,A,keyenter,O,enter,409,1,1716.1000000089407,710147.799999997,7096,WL,A,6.0
5,12.17900013923645,learn,60000.0,Fri Mar 28 2025 11:10:58 GMT-0500 (Central Daylight Time),712464.5,A,l,O,l,589,1,600.2999999970198,711864.200000003,7096,WL,A,7.0
5,12.381999969482422,learn,60000.0,Fri Mar 28 2025 11:10:58 GMT-0500 (Central Daylight Time),712667.099999994,A,lo,O,o,186,1,802.8999999910593,711864.200000003,7096,WL,A,7.0
5,12.628999948501587,learn,60000.0,Fri Mar 28 2025 11:10:58 GMT-0500 (Central Daylight Time),712914.299999997,A,log,O,g,230,1,1050.0999999940395,711864.200000003,7096,WL,A,7.0
5,14.344000101089478,learn,60000.0,Fri Mar 28 2025 11:10:58 GMT-0500 (Central Daylight Time),714629.299999997,A,logenter,O,enter,1698,1,2765.0999999940395,711864.200000003,7096,WL,A,7.0
5,15.19700002670288,learn,60000.0,Fri Mar 28 2025 11:10:58 GMT-0500 (Central Daylight Time),715482.200000003,A,r,O,r,848,1,852.6000000089407,714629.599999994,7096,WL,A,8.0
5,15.344000101089478,learn,60000.0,Fri Mar 28 2025 11:10:58 GMT-0500 (Central Daylight Time),715629.900000006,A,ru,O,u,138,1,1000.3000000119209,714629.599999994,7096,WL,A,8.0
5,15.726999998092651,learn,60000.0,Fri Mar 28 2025 11:10:58 GMT-0500 (Central Daylight Time),716012.5,A,rug,O,g,365,1,1382.9000000059605,714629.599999994,7096,WL,A,8.0
5,16.028000116348267,learn,60000.0,Fri Mar 28 2025 11:10:58 GMT-0500 (Central Daylight Time),716313.700000003,A,rugenter,O,enter,285,1,1684.1000000089407,714629.599999994,7096,WL,A,8.0
5,16.67900013923645,learn,60000.0,Fri Mar 28 2025 11:10:58 GMT-0500 (Central Daylight Time),716965.799999997,A,f,O,f,635,1,651.7999999970198,716314.0,7096,WL,A,9.0
5,16.82800006866455,learn,60000.0,Fri Mar 28 2025 11:10:58 GMT-0500 (Central Daylight Time),717114.5,A,fi,O,i,132,1,800.5,716314.0,7096,WL,A,9.0
5,16.927000045776367,learn,60000.0,Fri Mar 28 2025 11:10:58 GMT-0500 (Central Daylight Time),717213.5,A,fin,O,n,80,1,899.5,716314.0,7096,WL,A,9.0
5,17.343000173568726,learn,60000.0,Fri Mar 28 2025 11:10:58 GMT-0500 (Central Daylight Time),717629.799999997,A,fing,O,g,405,1,1315.7999999970198,716314.0,7096,WL,A,9.0
5,17.575999975204468,learn,60000.0,Fri Mar 28 2025 11:10:58 GMT-0500 (Central Daylight Time),717862.599999994,A,finge,O,e,215,1,1548.5999999940395,716314.0,7096,WL,A,9.0
5,17.676000118255615,learn,60000.0,Fri Mar 28 2025 11:10:58 GMT-0500 (Central Daylight Time),717962.5,A,finger,O,r,85,1,1648.5,716314.0,7096,WL,A,9.0
5,17.89199995994568,learn,60000.0,Fri Mar 28 2025 11:10:58 GMT-0500 (Central Daylight Time),718178.400000006,A,fingerenter,O,enter,209,1,1864.4000000059605,716314.0,7096,WL,A,9.0
5,18.610000133514404,learn,60000.0,Fri Mar 28 2025 11:10:58 GMT-0500 (Central Daylight Time),718897.0,A,f,O,f,706,1,718.4000000059605,718178.599999994,7096,WL,A,10.0
5,18.743000030517578,learn,60000.0,Fri Mar 28 2025 11:10:58 GMT-0500 (Central Daylight Time),719029.900000006,A,fl,O,l,123,1,851.3000000119209,718178.599999994,7096,WL,A,10.0
5,18.95800018310547,learn,60000.0,Fri Mar 28 2025 11:10:58 GMT-0500 (Central Daylight Time),719245.200000003,A,flo,O,o,205,1,1066.6000000089407,718178.599999994,7096,WL,A,10.0
5,19.094000101089478,learn,60000.0,Fri Mar 28 2025 11:10:58 GMT-0500 (Central Daylight Time),719380.799999997,A,flow,O,w,129,1,1202.2000000029802,718178.599999994,7096,WL,A,10.0
5,19.193000078201294,learn,60000.0,Fri Mar 28 2025 11:10:58 GMT-0500 (Central Daylight Time),719479.400000006,A,flowe,O,e,86,1,1300.800000011921,718178.599999994,7096,WL,A,10.0
5,19.325999975204468,learn,60000.0,Fri Mar 28 2025 11:10:58 GMT-0500 (Central Daylight Time),719613.0,A,flower,O,r,116,1,1434.4000000059605,718178.599999994,7096,WL,A,10.0
5,19.575999975204468,learn,60000.0,Fri Mar 28 2025 11:10:58 GMT-0500 (Central Daylight Time),719862.700000003,A,flowerenter,O,enter,238,1,1684.1000000089407,718178.599999994,7096,WL,A,10.0
5,20.05900001525879,learn,60000.0,Fri Mar 28 2025 11:10:58 GMT-0500 (Central Daylight Time),720345.900000006,A,b,O,b,470,1,483.0,719862.900000006,7096,WL,A,11.0
5,20.37600016593933,learn,60000.0,Fri Mar 28 2025 11:10:58 GMT-0500 (Central Daylight Time),720662.299999997,A,bo,O,o,296,1,799.3999999910593,719862.900000006,7096,WL,A,11.0
5,20.54200005531311,learn,60000.0,Fri Mar 28 2025 11:10:58 GMT-0500 (Central Daylight Time),720829.099999994,A,boo,O,o,149,1,966.1999999880791,719862.900000006,7096,WL,A,11.0
5,20.759999990463257,learn,60000.0,Fri Mar 28 2025 11:10:58 GMT-0500 (Central Daylight Time),721046.5,A,book,O,k,211,1,1183.5999999940395,719862.900000006,7096,WL,A,11.0
5,21.41100001335144,learn,60000.0,Fri Mar 28 2025 11:10:58 GMT-0500 (Central Daylight Time),721697.5,A,bookenter,O,enter,644,1,1834.5999999940395,719862.900000006,7096,WL,A,11.0
5,21.77500009536743,learn,60000.0,Fri Mar 28 2025 11:10:58 GMT-0500 (Central Daylight Time),722061.5,A,m,O,m,355,1,363.70000000298023,721697.799999997,7096,WL,A,12.0
5,21.87600016593933,learn,60000.0,Fri Mar 28 2025 11:10:58 GMT-0500 (Central Daylight Time),722163.400000006,A,me,O,e,93,1,465.6000000089407,721697.799999997,7096,WL,A,12.0
5,21.991000175476074,learn,60000.0,Fri Mar 28 2025 11:10:58 GMT-0500 (Central Daylight Time),722277.400000006,A,mea,O,a,96,1,579.6000000089407,721697.799999997,7096,WL,A,12.0
5,22.325000047683716,learn,60000.0,Fri Mar 28 2025 11:10:58 GMT-0500 (Central Daylight Time),722611.900000006,A,mead,O,d,327,1,914.1000000089407,721697.799999997,7096,WL,A,12.0
5,22.52500009536743,learn,60000.0,Fri Mar 28 2025 11:10:58 GMT-0500 (Central Daylight Time),722811.900000006,A,meado,O,o,195,1,1114.1000000089407,721697.799999997,7096,WL,A,12.0
5,22.69099998474121,learn,60000.0,Fri Mar 28 2025 11:10:58 GMT-0500 (Central Daylight Time),722977.900000006,A,meadow,O,w,161,1,1280.1000000089407,721697.799999997,7096,WL,A,12.0
5,23.02300000190735,learn,60000.0,Fri Mar 28 2025 11:10:58 GMT-0500 (Central Daylight Time),723310.200000003,A,meadowenter,O,enter,313,1,1612.4000000059605,721697.799999997,7096,WL,A,12.0
5,23.44099998474121,learn,60000.0,Fri Mar 28 2025 11:10:58 GMT-0500 (Central Daylight Time),723728.099999994,A,t,O,t,407,1,417.59999999403954,723310.5,7096,WL,A,13.0
5,23.674000024795532,learn,60000.0,Fri Mar 28 2025 11:10:58 GMT-0500 (Central Daylight Time),723960.900000006,A,tr,O,r,209,1,650.4000000059605,723310.5,7096,WL,A,13.0
5,23.807000160217285,learn,60000.0,Fri Mar 28 2025 11:10:58 GMT-0500 (Central Daylight Time),724094.299999997,A,tra,O,a,115,1,783.7999999970198,723310.5,7096,WL,A,13.0
5,23.991000175476074,learn,60000.0,Fri Mar 28 2025 11:10:58 GMT-0500 (Central Daylight Time),724278.200000003,A,trai,O,i,166,1,967.7000000029802,723310.5,7096,WL,A,13.0
5,24.10800004005432,learn,60000.0,Fri Mar 28 2025 11:10:58 GMT-0500 (Central Daylight Time),724394.700000003,A,train,O,n,110,1,1084.2000000029802,723310.5,7096,WL,A,13.0
5,24.907000064849854,learn,60000.0,Fri Mar 28 2025 11:10:58 GMT-0500 (Central Daylight Time),725193.799999997,A,trainenter,O,enter,777,1,1883.2999999970198,723310.5,7096,WL,A,13.0
5,26.006999969482422,learn,60000.0,Fri Mar 28 2025 11:10:58 GMT-0500 (Central Daylight Time),726294.200000003,A,a,O,a,1091,1,1100.2000000029802,725194.0,7096,WL,A,14.0
5,26.29100012779236,learn,60000.0,Fri Mar 28 2025 11:10:58 GMT-0500 (Central Daylight Time),726577.799999997,A,ap,O,p,279,1,1383.7999999970198,725194.0,7096,WL,A,14.0
5,26.457000017166138,learn,60000.0,Fri Mar 28 2025 11:10:58 GMT-0500 (Central Daylight Time),726744.0,A,app,O,p,147,1,1550.0,725194.0,7096,WL,A,14.0
5,26.692000150680542,learn,60000.0,Fri Mar 28 2025 11:10:58 GMT-0500 (Central Daylight Time),726978.5,A,appl,O,l,221,1,1784.5,725194.0,7096,WL,A,14.0
5,26.85599994659424,learn,60000.0,Fri Mar 28 2025 11:10:58 GMT-0500 (Central Daylight Time),727142.700000003,A,apple,O,e,146,1,1948.7000000029802,725194.0,7096,WL,A,14.0
5,27.48900008201599,learn,60000.0,Fri Mar 28 2025 11:10:58 GMT-0500 (Central Daylight Time),727776.0,A,appleenter,O,enter,622,1,2582.0,725194.0,7096,WL,A,14.0
5,34.32000017166138,learn,60000.0,Fri Mar 28 2025 11:10:58 GMT-0500 (Central Daylight Time),734606.599999994,A,k,O,k,6820,1,6830.29999999702,727776.299999997,7096,WL,A,15.0
5,34.48699998855591,learn,60000.0,Fri Mar 28 2025 11:10:58 GMT-0500 (Central Daylight Time),734773.799999997,A,ke,O,e,157,1,6997.5,727776.299999997,7096,WL,A,15.0
5,34.789000034332275,learn,60000.0,Fri Mar 28 2025 11:10:58 GMT-0500 (Central Daylight Time),735075.299999997,A,key,O,y,287,1,7299.0,727776.299999997,7096,WL,A,15.0
5,35.420000076293945,learn,60000.0,Fri Mar 28 2025 11:10:58 GMT-0500 (Central Daylight Time),735706.900000006,A,keyenter,O,enter,625,1,7930.600000008941,727776.299999997,7096,WL,A,15.0
6,1.133000135421753,distr,58866.99986457825,Fri Mar 28 2025 11:10:58 GMT-0500 (Central Daylight Time),818997.299999997,B,b,O,b,1124,1,1133.2000000029802,817864.099999994,7096,WL,A,1.0
6,1.3660001754760742,distr,58633.999824523926,Fri Mar 28 2025 11:10:58 GMT-0500 (Central Daylight Time),819230.299999997,B,bo,O,o,223,1,1366.2000000029802,817864.099999994,7096,WL,A,1.0
6,1.636000156402588,distr,58363.99984359741,Fri Mar 28 2025 11:10:58 GMT-0500 (Central Daylight Time),819500.099999994,B,bow,O,w,264,1,1636.0,817864.099999994,7096,WL,A,1.0
6,1.815999984741211,distr,58184.00001525879,Fri Mar 28 2025 11:10:58 GMT-0500 (Central Daylight Time),819679.700000003,B,bowl,O,l,157,1,1815.6000000089407,817864.099999994,7096,WL,A,1.0
6,2.950000047683716,distr,57049.999952316284,Fri Mar 28 2025 11:10:58 GMT-0500 (Central Daylight Time),820814.0,B,bowlenter,O,enter,1115,1,2949.9000000059605,817864.099999994,7096,WL,A,1.0
6,3.3500001430511475,distr,56649.99985694885,Fri Mar 28 2025 11:10:58 GMT-0500 (Central Daylight Time),821213.799999997,B,d,O,d,382,1,399.59999999403954,820814.200000003,7096,WL,A,2.0
6,3.883000135421753,distr,56116.99986457825,Fri Mar 28 2025 11:10:58 GMT-0500 (Central Daylight Time),821746.900000006,B,da,O,a,525,1,932.7000000029802,820814.200000003,7096,WL,A,2.0
6,4.084000110626221,distr,55915.99988937378,Fri Mar 28 2025 11:10:58 GMT-0500 (Central Daylight Time),821948.5,B,daw,O,w,193,1,1134.2999999970198,820814.200000003,7096,WL,A,2.0
6,4.5,distr,55500.0,Fri Mar 28 2025 11:10:58 GMT-0500 (Central Daylight Time),822363.700000003,B,dawn,O,n,409,1,1549.5,820814.200000003,7096,WL,A,2.0
6,4.932000160217285,distr,55067.999839782715,Fri Mar 28 2025 11:10:58 GMT-0500 (Central Daylight Time),822796.099999994,B,dawnenter,O,enter,420,1,1981.8999999910593,820814.200000003,7096,WL,A,2.0
6,5.468000173568726,distr,54531.999826431274,Fri Mar 28 2025 11:10:58 GMT-0500 (Central Daylight Time),823332.400000006,B,b,O,b,519,1,536.1000000089407,822796.299999997,7096,WL,A,3.0
6,5.682000160217285,distr,54317.999839782715,Fri Mar 28 2025 11:10:58 GMT-0500 (Central Daylight Time),823545.900000006,B,bo,O,o,201,1,749.6000000089407,822796.299999997,7096,WL,A,3.0
6,5.89900016784668,distr,54100.99983215332,Fri Mar 28 2025 11:10:58 GMT-0500 (Central Daylight Time),823762.799999997,B,bot,O,t,203,1,966.5,822796.299999997,7096,WL,A,3.0
6,6.0980000495910645,distr,53901.999950408936,Fri Mar 28 2025 11:10:58 GMT-0500 (Central Daylight Time),823962.400000006,B,bott,O,t,184,1,1166.1000000089407,822796.299999997,7096,WL,A,3.0
6,6.246999979019165,distr,53753.000020980835,Fri Mar 28 2025 11:10:58 GMT-0500 (Central Daylight Time),824111.299999997,B,bottl,O,l,128,1,1315.0,822796.299999997,7096,WL,A,3.0
6,6.582000017166138,distr,53417.99998283386,Fri Mar 28 2025 11:10:58 GMT-0500 (Central Daylight Time),824445.799999997,B,bottle,O,e,316,1,1649.5,822796.299999997,7096,WL,A,3.0
6,7.331000089645386,distr,52668.999910354614,Fri Mar 28 2025 11:10:58 GMT-0500 (Central Daylight Time),825195.200000003,B,bottleenter,O,enter,731,1,2398.9000000059605,822796.299999997,7096,WL,A,3.0
6,7.564000129699707,distr,52435.99987030029,Fri Mar 28 2025 11:10:58 GMT-0500 (Central Daylight Time),825428.5,B,s,O,s,225,1,233.0,825195.5,7096,WL,A,4.0
6,7.79800009727478,distr,52201.99990272522,Fri Mar 28 2025 11:10:58 GMT-0500 (Central Daylight Time),825661.900000006,B,se,O,e,222,1,466.40000000596046,825195.5,7096,WL,A,4.0
6,7.996999979019165,distr,52003.000020980835,Fri Mar 28 2025 11:10:58 GMT-0500 (Central Daylight Time),825861.099999994,B,see,O,e,191,1,665.5999999940395,825195.5,7096,WL,A,4.0
6,8.332000017166138,distr,51667.99998283386,Fri Mar 28 2025 11:10:58 GMT-0500 (Central Daylight Time),826195.799999997,B,seed,O,d,328,1,1000.2999999970198,825195.5,7096,WL,A,4.0
6,9.163000106811523,distr,50836.99989318848,Fri Mar 28 2025 11:10:58 GMT-0500 (Central Daylight Time),827027.099999994,B,seedenter,O,enter,824,1,1831.5999999940395,825195.5,7096,WL,A,4.0
6,10.830000162124634,distr,49169.999837875366,Fri Mar 28 2025 11:10:58 GMT-0500 (Central Daylight Time),828694.099999994,B,j,O,j,1657,1,1666.699999988079,827027.400000006,7096,WL,A,5.0
6,11.047000169754028,distr,48952.99983024597,Fri Mar 28 2025 11:10:58 GMT-0500 (Central Daylight Time),828910.799999997,B,ju,O,u,198,1,1883.3999999910593,827027.400000006,7096,WL,A,5.0
6,11.164000034332275,distr,48835.999965667725,Fri Mar 28 2025 11:10:58 GMT-0500 (Central Daylight Time),829027.799999997,B,jud,O,d,111,1,2000.3999999910593,827027.400000006,7096,WL,A,5.0
6,13.046000003814697,distr,46953.9999961853,Fri Mar 28 2025 11:10:58 GMT-0500 (Central Daylight Time),830909.599999994,B,judg,O,g,1863,1,3882.199999988079,827027.400000006,7096,WL,A,5.0
6,13.19700002670288,distr,46802.99997329712,Fri Mar 28 2025 11:10:58 GMT-0500 (Central Daylight Time),831061.400000006,B,judge,O,e,141,1,4034.0,827027.400000006,7096,WL,A,5.0
6,13.962000131607056,distr,46037.999868392944,Fri Mar 28 2025 11:10:58 GMT-0500 (Central Daylight Time),831826.099999994,B,judgeenter,O,enter,760,1,4798.699999988079,827027.400000006,7096,WL,A,5.0
6,52.36800003051758,distr,7631.999969482422,Fri Mar 28 2025 11:10:58 GMT-0500 (Central Daylight Time),870233.200000003,B,enter,O,enter,38402,1,38406.90000000596,831826.299999997,7096,WL,A,6.0
6,60.01300001144409,distr,-13.000011444091797,Fri Mar 28 2025 11:10:58 GMT-0500 (Central Daylight Time),877878.400000006,B,None,O,None,7642,1,7644.9000000059605,870233.5,7096,WL,A,7.0
7,14.877000093460083,immed,45122.99990653992,Fri Mar 28 2025 11:10:58 GMT-0500 (Central Daylight Time),906035.799999997,A,m,O,m,14864,1,14878.5,891157.299999997,7096,WL,A,1.0
7,15.361000061035156,immed,44638.999938964844,Fri Mar 28 2025 11:10:58 GMT-0500 (Central Daylight Time),906519.200000003,A,me,O,e,463,1,15361.90000000596,891157.299999997,7096,WL,A,1.0
7,15.509999990463257,immed,44490.00000953674,Fri Mar 28 2025 11:10:58 GMT-0500 (Central Daylight Time),906668.599999994,A,mea,O,a,130,1,15511.29999999702,891157.299999997,7096,WL,A,1.0
7,15.960999965667725,immed,44039.000034332275,Fri Mar 28 2025 11:10:58 GMT-0500 (Central Daylight Time),907119.400000006,A,mead,O,d,430,1,15962.10000000894,891157.299999997,7096,WL,A,1.0
7,16.259999990463257,immed,43740.00000953674,Fri Mar 28 2025 11:10:58 GMT-0500 (Central Daylight Time),907418.900000006,A,meado,O,o,294,1,16261.60000000894,891157.299999997,7096,WL,A,1.0
7,16.39400005340576,immed,43605.99994659424,Fri Mar 28 2025 11:10:58 GMT-0500 (Central Daylight Time),907552.900000006,A,meadow,O,w,120,1,16395.60000000894,891157.299999997,7096,WL,A,1.0
7,16.99500012397766,immed,43004.99987602234,Fri Mar 28 2025 11:10:58 GMT-0500 (Central Daylight Time),908153.599999994,A,meadowenter,O,enter,586,1,16996.29999999702,891157.299999997,7096,WL,A,1.0
7,17.526999950408936,immed,42473.000049591064,Fri Mar 28 2025 11:10:58 GMT-0500 (Central Daylight Time),908685.299999997,A,f,O,f,522,1,531.3999999910593,908153.900000006,7096,WL,A,2.0
7,17.677000045776367,immed,42322.99995422363,Fri Mar 28 2025 11:10:58 GMT-0500 (Central Daylight Time),908835.200000003,A,fi,O,i,144,1,681.2999999970198,908153.900000006,7096,WL,A,2.0
7,17.776999950408936,immed,42223.000049591064,Fri Mar 28 2025 11:10:58 GMT-0500 (Central Daylight Time),908935.400000006,A,fin,O,n,87,1,781.5,908153.900000006,7096,WL,A,2.0
7,17.99500012397766,immed,42004.99987602234,Fri Mar 28 2025 11:10:58 GMT-0500 (Central Daylight Time),909153.799999997,A,fing,O,g,204,1,999.8999999910593,908153.900000006,7096,WL,A,2.0
7,18.26099991798401,immed,41739.00008201599,Fri Mar 28 2025 11:10:58 GMT-0500 (Central Daylight Time),909419.5,A,finge,O,e,258,1,1265.5999999940395,908153.900000006,7096,WL,A,2.0
7,18.41000008583069,immed,41589.99991416931,Fri Mar 28 2025 11:10:58 GMT-0500 (Central Daylight Time),909568.200000003,A,finger,O,r,126,1,1414.2999999970198,908153.900000006,7096,WL,A,2.0
7,18.70900011062622,immed,41290.99988937378,Fri Mar 28 2025 11:10:58 GMT-0500 (Central Daylight Time),909867.299999997,A,fingerenter,O,enter,279,1,1713.3999999910593,908153.900000006,7096,WL,A,2.0
7,19.592999935150146,immed,40407.00006484985,Fri Mar 28 2025 11:10:58 GMT-0500 (Central Daylight Time),910751.799999997,A,f,O,f,873,1,884.2999999970198,909867.5,7096,WL,A,3.0
7,19.742000102996826,immed,40257.999897003174,Fri Mar 28 2025 11:10:58 GMT-0500 (Central Daylight Time),910900.599999994,A,fl,O,l,133,1,1033.0999999940395,909867.5,7096,WL,A,3.0
7,19.943000078201294,immed,40056.999921798706,Fri Mar 28 2025 11:10:58 GMT-0500 (Central Daylight Time),911101.0,A,flo,O,o,192,1,1233.5,909867.5,7096,WL,A,3.0
7,20.042999982833862,immed,39957.00001716614,Fri Mar 28 2025 11:10:58 GMT-0500 (Central Daylight Time),911201.799999997,A,flow,O,w,95,1,1334.2999999970198,909867.5,7096,WL,A,3.0
7,20.177000045776367,immed,39822.99995422363,Fri Mar 28 2025 11:10:58 GMT-0500 (Central Daylight Time),911335.099999994,A,flowe,O,e,121,1,1467.5999999940395,909867.5,7096,WL,A,3.0
7,20.308000087738037,immed,39691.99991226196,Fri Mar 28 2025 11:10:58 GMT-0500 (Central Daylight Time),911466.900000006,A,flower,O,r,116,1,1599.4000000059605,909867.5,7096,WL,A,3.0
7,20.608999967575073,immed,39391.00003242493,Fri Mar 28 2025 11:10:58 GMT-0500 (Central Daylight Time),911767.700000003,A,flowerenter,O,enter,278,1,1900.2000000029802,909867.5,7096,WL,A,3.0
7,21.044000148773193,immed,38955.99985122681,Fri Mar 28 2025 11:10:58 GMT-0500 (Central Daylight Time),912203.0,A,b,O,b,413,1,435.0,911768.0,7096,WL,A,4.0
7,21.225000143051147,immed,38774.99985694885,Fri Mar 28 2025 11:10:58 GMT-0500 (Central Daylight Time),912383.900000006,A,bo,O,o,168,1,615.9000000059605,911768.0,7096,WL,A,4.0
7,21.39199995994568,immed,38608.00004005432,Fri Mar 28 2025 11:10:58 GMT-0500 (Central Daylight Time),912550.900000006,A,boo,O,o,155,1,782.9000000059605,911768.0,7096,WL,A,4.0
7,21.64199995994568,immed,38358.00004005432,Fri Mar 28 2025 11:10:58 GMT-0500 (Central Daylight Time),912801.0,A,book,O,k,229,1,1033.0,911768.0,7096,WL,A,4.0
7,22.074000120162964,immed,37925.999879837036,Fri Mar 28 2025 11:10:58 GMT-0500 (Central Daylight Time),913233.0,A,bookenter,O,enter,417,1,1465.0,911768.0,7096,WL,A,4.0
7,24.27500009536743,immed,35724.99990463257,Fri Mar 28 2025 11:10:58 GMT-0500 (Central Daylight Time),915433.599999994,A,r,O,r,2187,1,2200.3999999910593,913233.200000003,7096,WL,A,5.0
7,24.457000017166138,immed,35542.99998283386,Fri Mar 28 2025 11:10:58 GMT-0500 (Central Daylight Time),915615.700000003,A,ru,O,u,159,1,2382.5,913233.200000003,7096,WL,A,5.0
7,24.77300000190735,immed,35226.99999809265,Fri Mar 28 2025 11:10:58 GMT-0500 (Central Daylight Time),915932.0,A,rug,O,g,298,1,2698.7999999970198,913233.200000003,7096,WL,A,5.0
7,25.008000135421753,immed,34991.99986457825,Fri Mar 28 2025 11:10:58 GMT-0500 (Central Daylight Time),916166.599999994,A,rugenter,O,enter,214,1,2933.3999999910593,913233.200000003,7096,WL,A,5.0
7,25.60800004005432,immed,34391.99995994568,Fri Mar 28 2025 11:10:58 GMT-0500 (Central Daylight Time),916766.299999997,A,g,O,g,581,1,599.3999999910593,916166.900000006,7096,WL,A,6.0
7,25.723999977111816,immed,34276.00002288818,Fri Mar 28 2025 11:10:58 GMT-0500 (Central Daylight Time),916882.200000003,A,go,O,o,109,1,715.2999999970198,916166.900000006,7096,WL,A,6.0
7,25.980000019073486,immed,34019.999980926514,Fri Mar 28 2025 11:10:58 GMT-0500 (Central Daylight Time),917138.099999994,A,gol,O,l,233,1,971.1999999880791,916166.900000006,7096,WL,A,6.0
7,26.108999967575073,immed,33891.00003242493,Fri Mar 28 2025 11:10:58 GMT-0500 (Central Daylight Time),917267.400000006,A,gold,O,d,125,1,1100.5,916166.900000006,7096,WL,A,6.0
7,26.373000144958496,immed,33626.999855041504,Fri Mar 28 2025 11:10:58 GMT-0500 (Central Daylight Time),917531.599999994,A,goldenter,O,enter,254,1,1364.699999988079,916166.900000006,7096,WL,A,6.0
7,26.7739999294281,immed,33226.0000705719,Fri Mar 28 2025 11:10:58 GMT-0500 (Central Daylight Time),917932.200000003,A,k,O,k,395,1,400.29999999701977,917531.900000006,7096,WL,A,7.0
7,26.94000005722046,immed,33059.99994277954,Fri Mar 28 2025 11:10:58 GMT-0500 (Central Daylight Time),918098.099999994,A,ke,O,e,144,1,566.1999999880791,917531.900000006,7096,WL,A,7.0
7,27.225000143051147,immed,32774.99985694885,Fri Mar 28 2025 11:10:58 GMT-0500 (Central Daylight Time),918383.200000003,A,key,O,y,272,1,851.2999999970198,917531.900000006,7096,WL,A,7.0
7,27.674999952316284,immed,32325.000047683716,Fri Mar 28 2025 11:10:58 GMT-0500 (Central Daylight Time),918833.299999997,A,keyenter,O,enter,444,1,1301.3999999910593,917531.900000006,7096,WL,A,7.0
7,31.871000051498413,immed,28128.999948501587,Fri Mar 28 2025 11:10:58 GMT-0500 (Central Daylight Time),923029.299999997,A,a,O,a,4187,1,4195.79999999702,918833.5,7096,WL,A,8.0
7,32.18900012969971,immed,27810.999870300293,Fri Mar 28 2025 11:10:58 GMT-0500 (Central Daylight Time),923347.700000003,A,ap,O,p,303,1,4514.20000000298,918833.5,7096,WL,A,8.0
7,32.35599994659424,immed,27644.00005340576,Fri Mar 28 2025 11:10:58 GMT-0500 (Central Daylight Time),923514.599999994,A,app,O,p,151,1,4681.0999999940395,918833.5,7096,WL,A,8.0
7,32.57299995422363,immed,27427.000045776367,Fri Mar 28 2025 11:10:58 GMT-0500 (Central Daylight Time),923731.900000006,A,appl,O,l,194,1,4898.4000000059605,918833.5,7096,WL,A,8.0
7,32.73900008201599,immed,27260.99991798401,Fri Mar 28 2025 11:10:58 GMT-0500 (Central Daylight Time),923897.200000003,A,apple,O,e,159,1,5063.70000000298,918833.5,7096,WL,A,8.0
7,33.055999994277954,immed,26944.000005722046,Fri Mar 28 2025 11:10:58 GMT-0500 (Central Daylight Time),924214.099999994,A,appleenter,O,enter,306,1,5380.5999999940395,918833.5,7096,WL,A,8.0
7,39.75200009346008,immed,20247.999906539917,Fri Mar 28 2025 11:10:58 GMT-0500 (Central Daylight Time),930910.599999994,A,r,O,r,6686,1,6696.199999988079,924214.400000006,7096,WL,A,9.0
7,39.937000036239624,immed,20062.999963760376,Fri Mar 28 2025 11:10:58 GMT-0500 (Central Daylight Time),931095.400000006,A,ra,O,a,164,1,6881.0,924214.400000006,7096,WL,A,9.0
7,40.26800012588501,immed,19731.99987411499,Fri Mar 28 2025 11:10:58 GMT-0500 (Central Daylight Time),931427.0,A,rat,O,t,314,1,7212.5999999940395,924214.400000006,7096,WL,A,9.0
7,40.41900014877319,immed,19580.999851226807,Fri Mar 28 2025 11:10:58 GMT-0500 (Central Daylight Time),931578.0,A,ratt,O,t,138,1,7363.5999999940395,924214.400000006,7096,WL,A,9.0
7,40.587000131607056,immed,19412.999868392944,Fri Mar 28 2025 11:10:58 GMT-0500 (Central Daylight Time),931745.799999997,A,rattl,O,l,162,1,7531.399999991059,924214.400000006,7096,WL,A,9.0
7,40.76900005340576,immed,19230.99994659424,Fri Mar 28 2025 11:10:58 GMT-0500 (Central Daylight Time),931927.099999994,A,rattle,O,e,160,1,7712.699999988079,924214.400000006,7096,WL,A,9.0
7,41.069000005722046,immed,18930.999994277954,Fri Mar 28 2025 11:10:58 GMT-0500 (Central Daylight Time),932227.299999997,A,rattleenter,O,enter,284,1,8012.899999991059,924214.400000006,7096,WL,A,9.0
7,46.46799993515015,immed,13532.000064849854,Fri Mar 28 2025 11:10:58 GMT-0500 (Central Daylight Time),937626.099999994,A,g,O,g,5385,1,5398.5,932227.599999994,7096,WL,A,10.0
7,46.58400011062622,immed,13415.99988937378,Fri Mar 28 2025 11:10:58 GMT-0500 (Central Daylight Time),937742.799999997,A,go,O,o,96,1,5515.20000000298,932227.599999994,7096,WL,A,10.0
7,46.8199999332428,immed,13180.000066757202,Fri Mar 28 2025 11:10:58 GMT-0500 (Central Daylight Time),937978.200000003,A,gol,O,l,225,1,5750.600000008941,932227.599999994,7096,WL,A,10.0
7,47.03500008583069,immed,12964.999914169312,Fri Mar 28 2025 11:10:58 GMT-0500 (Central Daylight Time),938193.400000006,A,gold,O,d,201,1,5965.800000011921,932227.599999994,7096,WL,A,10.0
7,47.301000118255615,immed,12698.999881744385,Fri Mar 28 2025 11:10:58 GMT-0500 (Central Daylight Time),938459.200000003,A,goldenter,O,enter,259,1,6231.600000008941,932227.599999994,7096,WL,A,10.0
7,50.8510000705719,immed,9148.9999294281,Fri Mar 28 2025 11:10:58 GMT-0500 (Central Daylight Time),942009.200000003,A,f,O,f,3537,1,3549.6000000089407,938459.599999994,7096,WL,A,11.0
7,53.14800000190735,immed,6851.999998092651,Fri Mar 28 2025 11:10:58 GMT-0500 (Central Daylight Time),944307.0,A,fl,O,l,2275,1,5847.4000000059605,938459.599999994,7096,WL,A,11.0
7,53.681999921798706,immed,6318.000078201294,Fri Mar 28 2025 11:10:58 GMT-0500 (Central Daylight Time),944840.799999997,A,f,O,backspace,519,1,6381.20000000298,938459.599999994,7096,WL,A,11.0
7,55.31599998474121,immed,4684.000015258789,Fri Mar 28 2025 11:10:58 GMT-0500 (Central Daylight Time),946474.5,A,,O,backspace,1621,1,8014.9000000059605,938459.599999994,7096,WL,A,11.0
7,56.180999994277954,immed,3819.000005722046,Fri Mar 28 2025 11:10:58 GMT-0500 (Central Daylight Time),947339.5,A,b,O,b,851,1,8879.90000000596,938459.599999994,7096,WL,A,11.0
7,56.3970000743866,immed,3602.9999256134033,Fri Mar 28 2025 11:10:58 GMT-0500 (Central Daylight Time),947555.599999994,A,bo,O,o,203,1,9096.0,938459.599999994,7096,WL,A,11.0
7,56.581000089645386,immed,3418.9999103546143,Fri Mar 28 2025 11:10:58 GMT-0500 (Central Daylight Time),947739.900000006,A,boo,O,o,164,1,9280.300000011921,938459.599999994,7096,WL,A,11.0
7,56.765000104904175,immed,3234.999895095825,Fri Mar 28 2025 11:10:58 GMT-0500 (Central Daylight Time),947923.5,A,book,O,k,164,1,9463.90000000596,938459.599999994,7096,WL,A,11.0
7,57.081000089645386,immed,2918.9999103546143,Fri Mar 28 2025 11:10:58 GMT-0500 (Central Daylight Time),948239.599999994,A,bookenter,O,enter,289,1,9780.0,938459.599999994,7096,WL,A,11.0
7,57.365999937057495,immed,2634.000062942505,Fri Mar 28 2025 11:10:58 GMT-0500 (Central Daylight Time),948524.099999994,A,a,O,a,278,1,284.19999998807907,948239.900000006,7096,WL,A,12.0
7,57.53200006484985,immed,2467.9999351501465,Fri Mar 28 2025 11:10:58 GMT-0500 (Central Daylight Time),948690.900000006,A,ap,O,p,141,1,451.0,948239.900000006,7096,WL,A,12.0
7,57.71300005912781,immed,2286.9999408721924,Fri Mar 28 2025 11:10:58 GMT-0500 (Central Daylight Time),948871.799999997,A,app,O,p,156,1,631.8999999910593,948239.900000006,7096,WL,A,12.0
7,57.914000034332275,immed,2085.9999656677246,Fri Mar 28 2025 11:10:58 GMT-0500 (Central Daylight Time),949072.5,A,appl,O,l,175,1,832.5999999940395,948239.900000006,7096,WL,A,12.0
7,58.08200001716614,immed,1917.9999828338623,Fri Mar 28 2025 11:10:58 GMT-0500 (Central Daylight Time),949240.400000006,A,apple,O,e,143,1,1000.5,948239.900000006,7096,WL,A,12.0
7,58.26300001144409,immed,1736.9999885559082,Fri Mar 28 2025 11:10:58 GMT-0500 (Central Daylight Time),949421.400000006,A,appleenter,O,enter,159,1,1181.5,948239.900000006,7096,WL,A,12.0
7,60.01200008392334,immed,-12.000083923339844,Fri Mar 28 2025 11:10:58 GMT-0500 (Central Daylight Time),951171.0,A,None,O,None,1745,1,1749.4000000059605,949421.599999994,7096,WL,A,13.0
