block_c,block_dur,condition,countdown,datetime,endtime,list,multichar_response,project,response,response_time,session_number,start_end,starttime,subject_id,task,task_vers,trial
,,,,Fri Feb 21 2025 16:42:38 GMT-0600 (Central Standard Time),,,,O,space,242,1,,,7056,WL,B,
prac,,0,,Fri Feb 21 2025 16:42:38 GMT-0600 (Central Standard Time),,NA,b,O,b,1756,1,,,7056,WL,B,1.0
prac,,0,,Fri Feb 21 2025 16:42:38 GMT-0600 (Central Standard Time),,NA,bo,O,o,358,1,,,7056,WL,B,1.0
prac,,0,,Fri Feb 21 2025 16:42:38 GMT-0600 (Central Standard Time),,NA,boo,O,o,653,1,,,7056,WL,B,1.0
prac,,0,,Fri Feb 21 2025 16:42:38 GMT-0600 (Central Standard Time),,NA,boos,O,s,243,1,,,7056,WL,B,1.0
prac,,0,,Fri Feb 21 2025 16:42:38 GMT-0600 (Central Standard Time),,NA,boost,O,t,311,1,,,7056,WL,B,1.0
prac,,0,,Fri Feb 21 2025 16:42:38 GMT-0600 (Central Standard Time),,NA,boostenter,O,enter,1030,1,,,7056,WL,B,1.0
1,0.9660000801086426,learn,59033.99991989136,Fri Feb 21 2025 16:42:38 GMT-0600 (Central Standard Time),129930.90000000037,A,s,O,s,943,1,965.6000000005588,128965.29999999981,7056,WL,B,1.0
1,1.3320000171661377,learn,58667.99998283386,Fri Feb 21 2025 16:42:38 GMT-0600 (Central Standard Time),130296.90000000037,A,st,O,t,345,1,1331.6000000005588,128965.29999999981,7056,WL,B,1.0
1,1.5980000495910645,learn,58401.999950408936,Fri Feb 21 2025 16:42:38 GMT-0600 (Central Standard Time),130563.29999999981,A,str,O,r,259,1,1598.0,128965.29999999981,7056,WL,B,1.0
1,2.0320000648498535,learn,57967.99993515015,Fri Feb 21 2025 16:42:38 GMT-0600 (Central Standard Time),130997.20000000019,A,stre,O,e,417,1,2031.9000000003725,128965.29999999981,7056,WL,B,1.0
1,2.249000072479248,learn,57750.99992752075,Fri Feb 21 2025 16:42:38 GMT-0600 (Central Standard Time),131213.7000000002,A,stree,O,e,199,1,2248.4000000003725,128965.29999999981,7056,WL,B,1.0
1,2.765000104904175,learn,57234.999895095825,Fri Feb 21 2025 16:42:38 GMT-0600 (Central Standard Time),131730.0,A,street,O,t,494,1,2764.7000000001863,128965.29999999981,7056,WL,B,1.0
1,4.515000104904175,learn,55484.999895095825,Fri Feb 21 2025 16:42:38 GMT-0600 (Central Standard Time),133480.0,A,streetenter,O,enter,1737,1,4514.700000000186,128965.29999999981,7056,WL,B,1.0
1,5.246999979019165,learn,54753.000020980835,Fri Feb 21 2025 16:42:38 GMT-0600 (Central Standard Time),134212.5,A,w,O,w,725,1,732.0,133480.5,7056,WL,B,2.0
1,5.447999954223633,learn,54552.00004577637,Fri Feb 21 2025 16:42:38 GMT-0600 (Central Standard Time),134413.5,A,wi,O,i,194,1,933.0,133480.5,7056,WL,B,2.0
1,5.63100004196167,learn,54368.99995803833,Fri Feb 21 2025 16:42:38 GMT-0600 (Central Standard Time),134596.10000000056,A,wif,O,f,166,1,1115.6000000005588,133480.5,7056,WL,B,2.0
1,5.89900016784668,learn,54100.99983215332,Fri Feb 21 2025 16:42:38 GMT-0600 (Central Standard Time),134863.7000000002,A,wife,O,e,259,1,1383.2000000001863,133480.5,7056,WL,B,2.0
1,6.246000051498413,learn,53753.99994850159,Fri Feb 21 2025 16:42:38 GMT-0600 (Central Standard Time),135210.5,A,wifeenter,O,enter,334,1,1730.0,133480.5,7056,WL,B,2.0
1,7.0299999713897705,learn,52970.00002861023,Fri Feb 21 2025 16:42:38 GMT-0600 (Central Standard Time),135995.2000000002,A,g,O,g,770,1,784.2999999998137,135210.90000000037,7056,WL,B,3.0
1,7.281000137329102,learn,52718.9998626709,Fri Feb 21 2025 16:42:38 GMT-0600 (Central Standard Time),136245.90000000037,A,gr,O,r,244,1,1035.0,135210.90000000037,7056,WL,B,3.0
1,7.5299999713897705,learn,52470.00002861023,Fri Feb 21 2025 16:42:38 GMT-0600 (Central Standard Time),136494.7000000002,A,gra,O,a,238,1,1283.7999999998137,135210.90000000037,7056,WL,B,3.0
1,7.812000036239624,learn,52187.999963760376,Fri Feb 21 2025 16:42:38 GMT-0600 (Central Standard Time),136777.40000000037,A,gras,O,s,268,1,1566.5,135210.90000000037,7056,WL,B,3.0
1,7.96399998664856,learn,52036.00001335144,Fri Feb 21 2025 16:42:38 GMT-0600 (Central Standard Time),136928.7999999998,A,grass,O,s,139,1,1717.8999999994412,135210.90000000037,7056,WL,B,3.0
1,8.162000179290771,learn,51837.99982070923,Fri Feb 21 2025 16:42:38 GMT-0600 (Central Standard Time),137127.2000000002,A,grassenter,O,enter,180,1,1916.2999999998137,135210.90000000037,7056,WL,B,3.0
1,8.396000146865845,learn,51603.999853134155,Fri Feb 21 2025 16:42:38 GMT-0600 (Central Standard Time),137361.2000000002,A,f,O,f,214,1,233.59999999962747,137127.60000000056,7056,WL,B,4.0
1,8.545000076293945,learn,51454.999923706055,Fri Feb 21 2025 16:42:38 GMT-0600 (Central Standard Time),137510.5,A,fi,O,i,138,1,382.8999999994412,137127.60000000056,7056,WL,B,4.0
1,8.666000127792358,learn,51333.99987220764,Fri Feb 21 2025 16:42:38 GMT-0600 (Central Standard Time),137630.90000000037,A,fir,O,r,114,1,503.29999999981374,137127.60000000056,7056,WL,B,4.0
1,8.812999963760376,learn,51187.000036239624,Fri Feb 21 2025 16:42:38 GMT-0600 (Central Standard Time),137778.2999999998,A,fire,O,e,126,1,650.6999999992549,137127.60000000056,7056,WL,B,4.0
1,9.029000043869019,learn,50970.99995613098,Fri Feb 21 2025 16:42:38 GMT-0600 (Central Standard Time),137994.40000000037,A,fireenter,O,enter,195,1,866.7999999998137,137127.60000000056,7056,WL,B,4.0
1,9.27999997138977,learn,50720.00002861023,Fri Feb 21 2025 16:42:38 GMT-0600 (Central Standard Time),138245.10000000056,A,d,O,d,244,1,250.5,137994.60000000056,7056,WL,B,5.0
1,9.445000171661377,learn,50554.99982833862,Fri Feb 21 2025 16:42:38 GMT-0600 (Central Standard Time),138410.0,A,do,O,o,149,1,415.3999999994412,137994.60000000056,7056,WL,B,5.0
1,9.611999988555908,learn,50388.00001144409,Fri Feb 21 2025 16:42:38 GMT-0600 (Central Standard Time),138577.40000000037,A,doo,O,o,156,1,582.7999999998137,137994.60000000056,7056,WL,B,5.0
1,9.779000043869019,learn,50220.99995613098,Fri Feb 21 2025 16:42:38 GMT-0600 (Central Standard Time),138744.0,A,door,O,r,148,1,749.3999999994412,137994.60000000056,7056,WL,B,5.0
1,10.296000003814697,learn,49703.9999961853,Fri Feb 21 2025 16:42:38 GMT-0600 (Central Standard Time),139260.7000000002,A,doorenter,O,enter,508,1,1266.0999999996275,137994.60000000056,7056,WL,B,5.0
1,10.664000034332275,learn,49335.999965667725,Fri Feb 21 2025 16:42:38 GMT-0600 (Central Standard Time),139628.5,A,a,O,a,361,1,367.5,139261.0,7056,WL,B,6.0
1,10.84500002861023,learn,49154.99997138977,Fri Feb 21 2025 16:42:38 GMT-0600 (Central Standard Time),139810.2000000002,A,ar,O,r,161,1,549.2000000001863,139261.0,7056,WL,B,6.0
1,11.016000032424927,learn,48983.99996757507,Fri Feb 21 2025 16:42:38 GMT-0600 (Central Standard Time),139981.0,A,arm,O,m,148,1,720.0,139261.0,7056,WL,B,6.0
1,11.34500002861023,learn,48654.99997138977,Fri Feb 21 2025 16:42:38 GMT-0600 (Central Standard Time),140310.10000000056,A,armenter,O,enter,321,1,1049.1000000005588,139261.0,7056,WL,B,6.0
1,12.045000076293945,learn,47954.999923706055,Fri Feb 21 2025 16:42:38 GMT-0600 (Central Standard Time),141010.0,A,s,O,s,687,1,699.5999999996275,140310.40000000037,7056,WL,B,7.0
1,12.245000123977661,learn,47754.99987602234,Fri Feb 21 2025 16:42:38 GMT-0600 (Central Standard Time),141209.60000000056,A,st,O,t,188,1,899.2000000001863,140310.40000000037,7056,WL,B,7.0
1,12.51200008392334,learn,47487.99991607666,Fri Feb 21 2025 16:42:38 GMT-0600 (Central Standard Time),141477.0,A,sta,O,a,252,1,1166.5999999996275,140310.40000000037,7056,WL,B,7.0
1,12.92799997329712,learn,47072.00002670288,Fri Feb 21 2025 16:42:38 GMT-0600 (Central Standard Time),141892.5,A,stat,O,t,400,1,1582.0999999996275,140310.40000000037,7056,WL,B,7.0
1,13.628000020980835,learn,46371.999979019165,Fri Feb 21 2025 16:42:38 GMT-0600 (Central Standard Time),142593.2999999998,A,sta,O,backspace,679,1,2282.899999999441,140310.40000000037,7056,WL,B,7.0
1,13.92900013923645,learn,46070.99986076355,Fri Feb 21 2025 16:42:38 GMT-0600 (Central Standard Time),142894.40000000037,A,star,O,r,291,1,2584.0,140310.40000000037,7056,WL,B,7.0
1,14.460999965667725,learn,45539.000034332275,Fri Feb 21 2025 16:42:38 GMT-0600 (Central Standard Time),143426.0,A,starenter,O,enter,518,1,3115.5999999996275,140310.40000000037,7056,WL,B,7.0
1,18.108999967575073,learn,41891.00003242493,Fri Feb 21 2025 16:42:38 GMT-0600 (Central Standard Time),147074.5,A,w,O,w,3635,1,3648.2000000001863,143426.2999999998,7056,WL,B,8.0
1,18.210000038146973,learn,41789.99996185303,Fri Feb 21 2025 16:42:38 GMT-0600 (Central Standard Time),147175.0,A,wi,O,i,82,1,3748.7000000001863,143426.2999999998,7056,WL,B,8.0
1,18.358999967575073,learn,41641.00003242493,Fri Feb 21 2025 16:42:38 GMT-0600 (Central Standard Time),147324.2999999998,A,wif,O,f,143,1,3898.0,143426.2999999998,7056,WL,B,8.0
1,18.592000007629395,learn,41407.999992370605,Fri Feb 21 2025 16:42:38 GMT-0600 (Central Standard Time),147556.90000000037,A,wife,O,e,216,1,4130.600000000559,143426.2999999998,7056,WL,B,8.0
1,18.924999952316284,learn,41075.000047683716,Fri Feb 21 2025 16:42:38 GMT-0600 (Central Standard Time),147890.40000000037,A,wifeenter,O,enter,322,1,4464.100000000559,143426.2999999998,7056,WL,B,8.0
1,32.45700001716614,learn,27542.999982833862,Fri Feb 21 2025 16:42:38 GMT-0600 (Central Standard Time),161421.90000000037,A,s,O,s,13509,1,13531.0,147890.90000000037,7056,WL,B,9.0
1,32.78800010681152,learn,27211.999893188477,Fri Feb 21 2025 16:42:38 GMT-0600 (Central Standard Time),161753.2000000002,A,st,O,t,313,1,13862.299999999814,147890.90000000037,7056,WL,B,9.0
1,33.15499997138977,learn,26845.00002861023,Fri Feb 21 2025 16:42:38 GMT-0600 (Central Standard Time),162120.2000000002,A,sta,O,a,356,1,14229.299999999814,147890.90000000037,7056,WL,B,9.0
1,33.271000146865845,learn,26728.999853134155,Fri Feb 21 2025 16:42:38 GMT-0600 (Central Standard Time),162236.5,A,star,O,r,111,1,14345.599999999627,147890.90000000037,7056,WL,B,9.0
1,33.50399994850159,learn,26496.000051498413,Fri Feb 21 2025 16:42:38 GMT-0600 (Central Standard Time),162469.40000000037,A,start,O,t,222,1,14578.5,147890.90000000037,7056,WL,B,9.0
1,33.75600004196167,learn,26243.99995803833,Fri Feb 21 2025 16:42:38 GMT-0600 (Central Standard Time),162720.7999999998,A,startenter,O,enter,241,1,14829.899999999441,147890.90000000037,7056,WL,B,9.0
1,46.616000175476074,learn,13383.999824523926,Fri Feb 21 2025 16:42:38 GMT-0600 (Central Standard Time),175583.0,A,w,O,w,12845,1,12861.899999999441,162721.10000000056,7056,WL,B,10.0
1,46.73300004005432,learn,13266.999959945679,Fri Feb 21 2025 16:42:38 GMT-0600 (Central Standard Time),175699.10000000056,A,wi,O,i,110,1,12978.0,162721.10000000056,7056,WL,B,10.0
1,46.90000009536743,learn,13099.999904632568,Fri Feb 21 2025 16:42:38 GMT-0600 (Central Standard Time),175866.40000000037,A,win,O,n,145,1,13145.299999999814,162721.10000000056,7056,WL,B,10.0
1,47.01699995994568,learn,12983.000040054321,Fri Feb 21 2025 16:42:38 GMT-0600 (Central Standard Time),175983.2000000002,A,wind,O,d,97,1,13262.099999999627,162721.10000000056,7056,WL,B,10.0
1,47.31700015068054,learn,12682.999849319458,Fri Feb 21 2025 16:42:38 GMT-0600 (Central Standard Time),176283.2999999998,A,windo,O,o,278,1,13562.199999999255,162721.10000000056,7056,WL,B,10.0
1,47.61500000953674,learn,12384.999990463257,Fri Feb 21 2025 16:42:38 GMT-0600 (Central Standard Time),176581.90000000037,A,window,O,w,292,1,13860.799999999814,162721.10000000056,7056,WL,B,10.0
1,47.901000022888184,learn,12098.999977111816,Fri Feb 21 2025 16:42:38 GMT-0600 (Central Standard Time),176867.10000000056,A,windowenter,O,enter,278,1,14146.0,162721.10000000056,7056,WL,B,10.0
1,50.63000011444092,learn,9369.999885559082,Fri Feb 21 2025 16:42:38 GMT-0600 (Central Standard Time),179596.5,A,p,O,p,2723,1,2729.2000000001863,176867.2999999998,7056,WL,B,11.0
1,50.848000049591064,learn,9151.999950408936,Fri Feb 21 2025 16:42:38 GMT-0600 (Central Standard Time),179814.90000000037,A,pi,O,i,196,1,2947.600000000559,176867.2999999998,7056,WL,B,11.0
1,51.348000049591064,learn,8651.999950408936,Fri Feb 21 2025 16:42:38 GMT-0600 (Central Standard Time),180314.5,A,pip,O,p,475,1,3447.2000000001863,176867.2999999998,7056,WL,B,11.0
1,51.71500015258789,learn,8284.99984741211,Fri Feb 21 2025 16:42:38 GMT-0600 (Central Standard Time),180682.0,A,pipe,O,e,344,1,3814.7000000001863,176867.2999999998,7056,WL,B,11.0
1,52.0460000038147,learn,7953.999996185303,Fri Feb 21 2025 16:42:38 GMT-0600 (Central Standard Time),181012.90000000037,A,pipeenter,O,enter,314,1,4145.600000000559,176867.2999999998,7056,WL,B,11.0
1,53.746999979019165,learn,6253.000020980835,Fri Feb 21 2025 16:42:38 GMT-0600 (Central Standard Time),182713.7999999998,A,c,O,c,1689,1,1700.5999999996275,181013.2000000002,7056,WL,B,12.0
1,53.914000034332275,learn,6085.999965667725,Fri Feb 21 2025 16:42:38 GMT-0600 (Central Standard Time),182880.5,A,ca,O,a,147,1,1867.2999999998137,181013.2000000002,7056,WL,B,12.0
1,54.062999963760376,learn,5937.000036239624,Fri Feb 21 2025 16:42:38 GMT-0600 (Central Standard Time),183029.90000000037,A,cab,O,b,133,1,2016.7000000001863,181013.2000000002,7056,WL,B,12.0
1,54.26200008392334,learn,5737.99991607666,Fri Feb 21 2025 16:42:38 GMT-0600 (Central Standard Time),183228.90000000037,A,cabi,O,i,190,1,2215.7000000001863,181013.2000000002,7056,WL,B,12.0
1,54.46300005912781,learn,5536.999940872192,Fri Feb 21 2025 16:42:38 GMT-0600 (Central Standard Time),183429.2999999998,A,cabin,O,n,184,1,2416.0999999996275,181013.2000000002,7056,WL,B,12.0
1,54.765000104904175,learn,5234.999895095825,Fri Feb 21 2025 16:42:38 GMT-0600 (Central Standard Time),183731.2999999998,A,cabinenter,O,enter,297,1,2718.0999999996275,181013.2000000002,7056,WL,B,12.0
1,60.01200008392334,learn,-12.000083923339844,Fri Feb 21 2025 16:42:38 GMT-0600 (Central Standard Time),188978.2999999998,A,None,O,None,5241,1,5246.699999999255,183731.60000000056,7056,WL,B,13.0
2,1.1329998970031738,learn,58867.000102996826,Fri Feb 21 2025 16:42:38 GMT-0600 (Central Standard Time),262420.7999999998,A,s,O,s,1118,1,1132.5,261288.2999999998,7056,WL,B,1.0
2,1.4500000476837158,learn,58549.999952316284,Fri Feb 21 2025 16:42:38 GMT-0600 (Central Standard Time),262738.2999999998,A,st,O,t,304,1,1450.0,261288.2999999998,7056,WL,B,1.0
2,1.684000015258789,learn,58315.99998474121,Fri Feb 21 2025 16:42:38 GMT-0600 (Central Standard Time),262972.5,A,str,O,r,211,1,1684.2000000001863,261288.2999999998,7056,WL,B,1.0
2,2.050999879837036,learn,57949.000120162964,Fri Feb 21 2025 16:42:38 GMT-0600 (Central Standard Time),263339.60000000056,A,stre,O,e,358,1,2051.300000000745,261288.2999999998,7056,WL,B,1.0
2,2.2339999675750732,learn,57766.00003242493,Fri Feb 21 2025 16:42:38 GMT-0600 (Central Standard Time),263522.60000000056,A,stree,O,e,160,1,2234.300000000745,261288.2999999998,7056,WL,B,1.0
2,2.432999849319458,learn,57567.00015068054,Fri Feb 21 2025 16:42:38 GMT-0600 (Central Standard Time),263720.9000000004,A,street,O,t,186,1,2432.600000000559,261288.2999999998,7056,WL,B,1.0
2,2.9170000553131104,learn,57082.99994468689,Fri Feb 21 2025 16:42:38 GMT-0600 (Central Standard Time),264204.7999999998,A,streetenter,O,enter,479,1,2916.5,261288.2999999998,7056,WL,B,1.0
2,3.315999984741211,learn,56684.00001525879,Fri Feb 21 2025 16:42:38 GMT-0600 (Central Standard Time),264603.9000000004,A,g,O,g,392,1,398.70000000018626,264205.2000000002,7056,WL,B,2.0
2,3.549999952316284,learn,56450.000047683716,Fri Feb 21 2025 16:42:38 GMT-0600 (Central Standard Time),264838.2999999998,A,gr,O,r,229,1,633.0999999996275,264205.2000000002,7056,WL,B,2.0
2,3.7330000400543213,learn,56266.99995994568,Fri Feb 21 2025 16:42:38 GMT-0600 (Central Standard Time),265021.0,A,gra,O,a,177,1,815.7999999998137,264205.2000000002,7056,WL,B,2.0
2,4.014999866485596,learn,55985.000133514404,Fri Feb 21 2025 16:42:38 GMT-0600 (Central Standard Time),265302.9000000004,A,gras,O,s,263,1,1097.7000000001863,264205.2000000002,7056,WL,B,2.0
2,4.165999889373779,learn,55834.00011062622,Fri Feb 21 2025 16:42:38 GMT-0600 (Central Standard Time),265454.60000000056,A,grass,O,s,144,1,1249.4000000003725,264205.2000000002,7056,WL,B,2.0
2,4.398999929428101,learn,55601.0000705719,Fri Feb 21 2025 16:42:38 GMT-0600 (Central Standard Time),265687.10000000056,A,grassenter,O,enter,213,1,1481.9000000003725,264205.2000000002,7056,WL,B,2.0
2,4.698999881744385,learn,55301.000118255615,Fri Feb 21 2025 16:42:38 GMT-0600 (Central Standard Time),265987.4000000004,A,d,O,d,294,1,300.0,265687.4000000004,7056,WL,B,3.0
2,4.8999998569488525,learn,55100.00014305115,Fri Feb 21 2025 16:42:38 GMT-0600 (Central Standard Time),266187.9000000004,A,do,O,o,191,1,500.5,265687.4000000004,7056,WL,B,3.0
2,5.065999984741211,learn,54934.00001525879,Fri Feb 21 2025 16:42:38 GMT-0600 (Central Standard Time),266354.0,A,doo,O,o,153,1,666.5999999996275,265687.4000000004,7056,WL,B,3.0
2,5.41700005531311,learn,54582.99994468689,Fri Feb 21 2025 16:42:38 GMT-0600 (Central Standard Time),266704.9000000004,A,door,O,r,331,1,1017.5,265687.4000000004,7056,WL,B,3.0
2,6.296999931335449,learn,53703.00006866455,Fri Feb 21 2025 16:42:38 GMT-0600 (Central Standard Time),267585.4000000004,A,doorenter,O,enter,870,1,1898.0,265687.4000000004,7056,WL,B,3.0
2,6.631999969482422,learn,53368.00003051758,Fri Feb 21 2025 16:42:38 GMT-0600 (Central Standard Time),267919.9000000004,A,a,O,a,324,1,334.20000000018626,267585.7000000002,7056,WL,B,4.0
2,6.813999891281128,learn,53186.00010871887,Fri Feb 21 2025 16:42:38 GMT-0600 (Central Standard Time),268102.0,A,ar,O,r,171,1,516.2999999998137,267585.7000000002,7056,WL,B,4.0
2,7.0320000648498535,learn,52967.99993515015,Fri Feb 21 2025 16:42:38 GMT-0600 (Central Standard Time),268320.10000000056,A,arm,O,m,209,1,734.4000000003725,267585.7000000002,7056,WL,B,4.0
2,8.364000082015991,learn,51635.99991798401,Fri Feb 21 2025 16:42:38 GMT-0600 (Central Standard Time),269652.5,A,armenter,O,enter,1317,1,2066.7999999998137,267585.7000000002,7056,WL,B,4.0
2,8.749000072479248,learn,51250.99992752075,Fri Feb 21 2025 16:42:38 GMT-0600 (Central Standard Time),270037.5,A,s,O,s,379,1,384.70000000018626,269652.7999999998,7056,WL,B,5.0
2,8.950000047683716,learn,51049.999952316284,Fri Feb 21 2025 16:42:38 GMT-0600 (Central Standard Time),270238.2999999998,A,st,O,t,191,1,585.5,269652.7999999998,7056,WL,B,5.0
2,9.148000001907349,learn,50851.99999809265,Fri Feb 21 2025 16:42:38 GMT-0600 (Central Standard Time),270436.5,A,sta,O,a,191,1,783.7000000001863,269652.7999999998,7056,WL,B,5.0
2,9.263999938964844,learn,50736.000061035156,Fri Feb 21 2025 16:42:38 GMT-0600 (Central Standard Time),270551.9000000004,A,star,O,r,92,1,899.1000000005588,269652.7999999998,7056,WL,B,5.0
2,9.780999898910522,learn,50219.00010108948,Fri Feb 21 2025 16:42:38 GMT-0600 (Central Standard Time),271069.2999999998,A,starenter,O,enter,493,1,1416.5,269652.7999999998,7056,WL,B,5.0
2,10.365000009536743,learn,49634.99999046326,Fri Feb 21 2025 16:42:38 GMT-0600 (Central Standard Time),271653.5,A,p,O,p,579,1,583.8999999994412,271069.60000000056,7056,WL,B,6.0
2,10.579999923706055,learn,49420.000076293945,Fri Feb 21 2025 16:42:38 GMT-0600 (Central Standard Time),271868.5,A,pi,O,i,199,1,798.8999999994412,271069.60000000056,7056,WL,B,6.0
2,10.79699993133545,learn,49203.00006866455,Fri Feb 21 2025 16:42:38 GMT-0600 (Central Standard Time),272085.60000000056,A,pip,O,p,209,1,1016.0,271069.60000000056,7056,WL,B,6.0
2,11.180999994277954,learn,48819.000005722046,Fri Feb 21 2025 16:42:38 GMT-0600 (Central Standard Time),272469.2000000002,A,pipe,O,e,367,1,1399.5999999996275,271069.60000000056,7056,WL,B,6.0
2,11.44700002670288,learn,48552.99997329712,Fri Feb 21 2025 16:42:38 GMT-0600 (Central Standard Time),272735.2000000002,A,pipeenter,O,enter,248,1,1665.5999999996275,271069.60000000056,7056,WL,B,6.0
2,11.644999980926514,learn,48355.000019073486,Fri Feb 21 2025 16:42:38 GMT-0600 (Central Standard Time),272933.10000000056,A,c,O,c,182,1,197.6000000005588,272735.5,7056,WL,B,7.0
2,11.782000064849854,learn,48217.99993515015,Fri Feb 21 2025 16:42:38 GMT-0600 (Central Standard Time),273070.0,A,ca,O,a,132,1,334.5,272735.5,7056,WL,B,7.0
2,11.98199987411499,learn,48018.00012588501,Fri Feb 21 2025 16:42:38 GMT-0600 (Central Standard Time),273269.7999999998,A,cab,O,b,191,1,534.2999999998137,272735.5,7056,WL,B,7.0
2,12.228999853134155,learn,47771.000146865845,Fri Feb 21 2025 16:42:38 GMT-0600 (Central Standard Time),273517.2999999998,A,cabi,O,i,226,1,781.7999999998137,272735.5,7056,WL,B,7.0
2,12.463000059127808,learn,47536.99994087219,Fri Feb 21 2025 16:42:38 GMT-0600 (Central Standard Time),273751.5,A,cabin,O,n,216,1,1016.0,272735.5,7056,WL,B,7.0
2,12.812000036239624,learn,47187.999963760376,Fri Feb 21 2025 16:42:38 GMT-0600 (Central Standard Time),274100.10000000056,A,cabinenter,O,enter,332,1,1364.6000000005588,272735.5,7056,WL,B,7.0
2,16.394999980926514,learn,43605.000019073486,Fri Feb 21 2025 16:42:38 GMT-0600 (Central Standard Time),277683.4000000004,A,p,O,p,3570,1,3583.0,274100.4000000004,7056,WL,B,8.0
2,16.562000036239624,learn,43437.999963760376,Fri Feb 21 2025 16:42:38 GMT-0600 (Central Standard Time),277850.60000000056,A,pi,O,i,154,1,3750.2000000001863,274100.4000000004,7056,WL,B,8.0
2,16.728999853134155,learn,43271.000146865845,Fri Feb 21 2025 16:42:38 GMT-0600 (Central Standard Time),278017.10000000056,A,pip,O,p,146,1,3916.7000000001863,274100.4000000004,7056,WL,B,8.0
2,16.91100001335144,learn,43088.99998664856,Fri Feb 21 2025 16:42:38 GMT-0600 (Central Standard Time),278199.2999999998,A,pipe,O,e,172,1,4098.899999999441,274100.4000000004,7056,WL,B,8.0
2,17.22699999809265,learn,42773.00000190735,Fri Feb 21 2025 16:42:38 GMT-0600 (Central Standard Time),278515.7000000002,A,pipeenter,O,enter,310,1,4415.299999999814,274100.4000000004,7056,WL,B,8.0
2,24.64299988746643,learn,35357.00011253357,Fri Feb 21 2025 16:42:38 GMT-0600 (Central Standard Time),285931.10000000056,A,l,O,l,7402,1,7415.200000000186,278515.9000000004,7056,WL,B,9.0
2,24.757999897003174,learn,35242.000102996826,Fri Feb 21 2025 16:42:38 GMT-0600 (Central Standard Time),286046.60000000056,A,la,O,a,106,1,7530.700000000186,278515.9000000004,7056,WL,B,9.0
2,24.924999952316284,learn,35075.000047683716,Fri Feb 21 2025 16:42:38 GMT-0600 (Central Standard Time),286213.10000000056,A,lak,O,k,156,1,7697.200000000186,278515.9000000004,7056,WL,B,9.0
2,25.075000047683716,learn,34924.999952316284,Fri Feb 21 2025 16:42:38 GMT-0600 (Central Standard Time),286363.2999999998,A,lake,O,e,135,1,7847.399999999441,278515.9000000004,7056,WL,B,9.0
2,25.325000047683716,learn,34674.999952316284,Fri Feb 21 2025 16:42:38 GMT-0600 (Central Standard Time),286613.60000000056,A,lakeenter,O,enter,232,1,8097.700000000186,278515.9000000004,7056,WL,B,9.0
2,39.4539999961853,learn,20546.000003814697,Fri Feb 21 2025 16:42:38 GMT-0600 (Central Standard Time),300742.7999999998,A,a,O,a,14122,1,14128.899999999441,286613.9000000004,7056,WL,B,10.0
2,39.670000076293945,learn,20329.999923706055,Fri Feb 21 2025 16:42:38 GMT-0600 (Central Standard Time),300959.10000000056,A,ar,O,r,197,1,14345.200000000186,286613.9000000004,7056,WL,B,10.0
2,40.05399990081787,learn,19946.00009918213,Fri Feb 21 2025 16:42:38 GMT-0600 (Central Standard Time),301343.2999999998,A,arm,O,m,368,1,14729.399999999441,286613.9000000004,7056,WL,B,10.0
2,40.48699998855591,learn,19513.00001144409,Fri Feb 21 2025 16:42:38 GMT-0600 (Central Standard Time),301776.10000000056,A,armenter,O,enter,415,1,15162.200000000186,286613.9000000004,7056,WL,B,10.0
2,41.22000002861023,learn,18779.99997138977,Fri Feb 21 2025 16:42:38 GMT-0600 (Central Standard Time),302509.10000000056,A,s,O,s,718,1,732.7000000001863,301776.4000000004,7056,WL,B,11.0
2,41.45300006866455,learn,18546.99993133545,Fri Feb 21 2025 16:42:38 GMT-0600 (Central Standard Time),302741.9000000004,A,st,O,t,226,1,965.5,301776.4000000004,7056,WL,B,11.0
2,41.70300006866455,learn,18296.99993133545,Fri Feb 21 2025 16:42:38 GMT-0600 (Central Standard Time),302991.7000000002,A,sta,O,a,230,1,1215.2999999998137,301776.4000000004,7056,WL,B,11.0
2,41.88700008392334,learn,18112.99991607666,Fri Feb 21 2025 16:42:38 GMT-0600 (Central Standard Time),303175.7999999998,A,star,O,r,165,1,1399.3999999994412,301776.4000000004,7056,WL,B,11.0
2,42.353999853134155,learn,17646.000146865845,Fri Feb 21 2025 16:42:38 GMT-0600 (Central Standard Time),303643.5,A,starenter,O,enter,461,1,1867.0999999996275,301776.4000000004,7056,WL,B,11.0
2,60.013999938964844,learn,-13.99993896484375,Fri Feb 21 2025 16:42:38 GMT-0600 (Central Standard Time),321303.4000000004,A,None,O,None,17654,1,17659.700000000186,303643.7000000002,7056,WL,B,12.0
3,0.8989999294281006,learn,59101.0000705719,Fri Feb 21 2025 16:42:38 GMT-0600 (Central Standard Time),403277.7000000002,A,s,O,s,893,1,898.9000000003725,402378.7999999998,7056,WL,B,1.0
3,1.1800000667572021,learn,58819.9999332428,Fri Feb 21 2025 16:42:38 GMT-0600 (Central Standard Time),403558.60000000056,A,st,O,t,270,1,1179.800000000745,402378.7999999998,7056,WL,B,1.0
3,1.4149999618530273,learn,58585.00003814697,Fri Feb 21 2025 16:42:38 GMT-0600 (Central Standard Time),403793.4000000004,A,str,O,r,223,1,1414.6000000005588,402378.7999999998,7056,WL,B,1.0
3,1.8980000019073486,learn,58101.99999809265,Fri Feb 21 2025 16:42:38 GMT-0600 (Central Standard Time),404277.10000000056,A,strr,O,r,469,1,1898.300000000745,402378.7999999998,7056,WL,B,1.0
3,2.430999994277954,learn,57569.000005722046,Fri Feb 21 2025 16:42:38 GMT-0600 (Central Standard Time),404809.60000000056,A,str,O,backspace,521,1,2430.800000000745,402378.7999999998,7056,WL,B,1.0
3,2.7309999465942383,learn,57269.00005340576,Fri Feb 21 2025 16:42:38 GMT-0600 (Central Standard Time),405109.60000000056,A,stre,O,e,284,1,2730.800000000745,402378.7999999998,7056,WL,B,1.0
3,3.0309998989105225,learn,56969.00010108948,Fri Feb 21 2025 16:42:38 GMT-0600 (Central Standard Time),405409.60000000056,A,stree,O,e,278,1,3030.800000000745,402378.7999999998,7056,WL,B,1.0
3,3.2809998989105225,learn,56719.00010108948,Fri Feb 21 2025 16:42:38 GMT-0600 (Central Standard Time),405660.0,A,street,O,t,234,1,3281.2000000001863,402378.7999999998,7056,WL,B,1.0
3,3.5820000171661377,learn,56417.99998283386,Fri Feb 21 2025 16:42:38 GMT-0600 (Central Standard Time),405960.2999999998,A,streetenter,O,enter,288,1,3581.5,402378.7999999998,7056,WL,B,1.0
3,3.864000082015991,learn,56135.99991798401,Fri Feb 21 2025 16:42:38 GMT-0600 (Central Standard Time),406242.7999999998,A,g,O,g,268,1,282.19999999925494,405960.60000000056,7056,WL,B,2.0
3,4.129999876022339,learn,55870.00012397766,Fri Feb 21 2025 16:42:38 GMT-0600 (Central Standard Time),406509.10000000056,A,gr,O,r,249,1,548.5,405960.60000000056,7056,WL,B,2.0
3,4.430999994277954,learn,55569.000005722046,Fri Feb 21 2025 16:42:38 GMT-0600 (Central Standard Time),406810.0,A,gra,O,a,280,1,849.3999999994412,405960.60000000056,7056,WL,B,2.0
3,4.747999906539917,learn,55252.00009346008,Fri Feb 21 2025 16:42:38 GMT-0600 (Central Standard Time),407126.2999999998,A,gras,O,s,298,1,1165.699999999255,405960.60000000056,7056,WL,B,2.0
3,4.914000034332275,learn,55085.999965667725,Fri Feb 21 2025 16:42:38 GMT-0600 (Central Standard Time),407292.7999999998,A,grass,O,s,150,1,1332.199999999255,405960.60000000056,7056,WL,B,2.0
3,5.118000030517578,learn,54881.99996948242,Fri Feb 21 2025 16:42:38 GMT-0600 (Central Standard Time),407496.60000000056,A,grassenter,O,enter,183,1,1536.0,405960.60000000056,7056,WL,B,2.0
3,5.513000011444092,learn,54486.99998855591,Fri Feb 21 2025 16:42:38 GMT-0600 (Central Standard Time),407891.60000000056,A,d,O,d,382,1,394.30000000074506,407497.2999999998,7056,WL,B,3.0
3,5.697000026702881,learn,54302.99997329712,Fri Feb 21 2025 16:42:38 GMT-0600 (Central Standard Time),408075.60000000056,A,do,O,o,170,1,578.3000000007451,407497.2999999998,7056,WL,B,3.0
3,5.812999963760376,learn,54187.000036239624,Fri Feb 21 2025 16:42:38 GMT-0600 (Central Standard Time),408191.60000000056,A,doo,O,o,105,1,694.3000000007451,407497.2999999998,7056,WL,B,3.0
3,6.078999996185303,learn,53921.0000038147,Fri Feb 21 2025 16:42:38 GMT-0600 (Central Standard Time),408457.5,A,door,O,r,254,1,960.2000000001863,407497.2999999998,7056,WL,B,3.0
3,6.444999933242798,learn,53555.0000667572,Fri Feb 21 2025 16:42:38 GMT-0600 (Central Standard Time),408824.10000000056,A,doora,O,a,355,1,1326.800000000745,407497.2999999998,7056,WL,B,3.0
3,6.596999883651733,learn,53403.00011634827,Fri Feb 21 2025 16:42:38 GMT-0600 (Central Standard Time),408975.4000000004,A,doorar,O,r,132,1,1478.1000000005588,407497.2999999998,7056,WL,B,3.0
3,7.046000003814697,learn,52953.9999961853,Fri Feb 21 2025 16:42:38 GMT-0600 (Central Standard Time),409425.0,A,doora,O,backspace,438,1,1927.7000000001863,407497.2999999998,7056,WL,B,3.0
3,7.562999963760376,learn,52437.000036239624,Fri Feb 21 2025 16:42:38 GMT-0600 (Central Standard Time),409941.7000000002,A,door,O,backspace,500,1,2444.4000000003725,407497.2999999998,7056,WL,B,3.0
3,7.86299991607666,learn,52137.00008392334,Fri Feb 21 2025 16:42:38 GMT-0600 (Central Standard Time),410241.2999999998,A,doorenter,O,enter,287,1,2744.0,407497.2999999998,7056,WL,B,3.0
3,8.213000059127808,learn,51786.99994087219,Fri Feb 21 2025 16:42:38 GMT-0600 (Central Standard Time),410592.4000000004,A,a,O,a,333,1,350.79999999981374,410241.60000000056,7056,WL,B,4.0
3,8.394000053405762,learn,51605.99994659424,Fri Feb 21 2025 16:42:38 GMT-0600 (Central Standard Time),410773.7000000002,A,ar,O,r,170,1,532.0999999996275,410241.60000000056,7056,WL,B,4.0
3,8.578999996185303,learn,51421.0000038147,Fri Feb 21 2025 16:42:38 GMT-0600 (Central Standard Time),410958.4000000004,A,arm,O,m,169,1,716.7999999998137,410241.60000000056,7056,WL,B,4.0
3,8.82800006866455,learn,51171.99993133545,Fri Feb 21 2025 16:42:38 GMT-0600 (Central Standard Time),411207.9000000004,A,armenter,O,enter,238,1,966.2999999998137,410241.60000000056,7056,WL,B,4.0
3,9.210000038146973,learn,50789.99996185303,Fri Feb 21 2025 16:42:38 GMT-0600 (Central Standard Time),411589.4000000004,A,s,O,s,373,1,381.20000000018626,411208.2000000002,7056,WL,B,5.0
3,9.394000053405762,learn,50605.99994659424,Fri Feb 21 2025 16:42:38 GMT-0600 (Central Standard Time),411773.5,A,st,O,t,180,1,565.2999999998137,411208.2000000002,7056,WL,B,5.0
3,9.611999988555908,learn,50388.00001144409,Fri Feb 21 2025 16:42:38 GMT-0600 (Central Standard Time),411991.10000000056,A,sta,O,a,200,1,782.9000000003725,411208.2000000002,7056,WL,B,5.0
3,9.810999870300293,learn,50189.00012969971,Fri Feb 21 2025 16:42:38 GMT-0600 (Central Standard Time),412190.7000000002,A,star,O,r,192,1,982.5,411208.2000000002,7056,WL,B,5.0
3,10.34500002861023,learn,49654.99997138977,Fri Feb 21 2025 16:42:38 GMT-0600 (Central Standard Time),412724.2000000002,A,starenter,O,enter,519,1,1516.0,411208.2000000002,7056,WL,B,5.0
3,10.944999933242798,learn,49055.0000667572,Fri Feb 21 2025 16:42:38 GMT-0600 (Central Standard Time),413324.7999999998,A,p,O,p,595,1,600.3999999994412,412724.4000000004,7056,WL,B,6.0
3,11.24399995803833,learn,48756.00004196167,Fri Feb 21 2025 16:42:38 GMT-0600 (Central Standard Time),413623.4000000004,A,pi,O,i,288,1,899.0,412724.4000000004,7056,WL,B,6.0
3,11.460999965667725,learn,48539.000034332275,Fri Feb 21 2025 16:42:38 GMT-0600 (Central Standard Time),413840.5,A,pip,O,p,198,1,1116.0999999996275,412724.4000000004,7056,WL,B,6.0
3,11.694000005722046,learn,48305.999994277954,Fri Feb 21 2025 16:42:38 GMT-0600 (Central Standard Time),414073.60000000056,A,pipe,O,e,219,1,1349.2000000001863,412724.4000000004,7056,WL,B,6.0
3,12.010999917984009,learn,47989.00008201599,Fri Feb 21 2025 16:42:38 GMT-0600 (Central Standard Time),414390.2000000002,A,pipeenter,O,enter,298,1,1665.7999999998137,412724.4000000004,7056,WL,B,6.0
3,12.361000061035156,learn,47638.999938964844,Fri Feb 21 2025 16:42:38 GMT-0600 (Central Standard Time),414740.4000000004,A,c,O,c,344,1,349.90000000037253,414390.5,7056,WL,B,7.0
3,12.744999885559082,learn,47255.00011444092,Fri Feb 21 2025 16:42:38 GMT-0600 (Central Standard Time),415124.2999999998,A,,O,backspace,378,1,733.7999999998137,414390.5,7056,WL,B,7.0
3,12.825999975204468,learn,47174.00002479553,Fri Feb 21 2025 16:42:38 GMT-0600 (Central Standard Time),415205.9000000004,A,w,O,w,64,1,815.4000000003725,414390.5,7056,WL,B,7.0
3,13.059999942779541,learn,46940.00005722046,Fri Feb 21 2025 16:42:38 GMT-0600 (Central Standard Time),415439.9000000004,A,wi,O,i,216,1,1049.4000000003725,414390.5,7056,WL,B,7.0
3,13.208999872207642,learn,46791.00012779236,Fri Feb 21 2025 16:42:38 GMT-0600 (Central Standard Time),415588.9000000004,A,wif,O,f,131,1,1198.4000000003725,414390.5,7056,WL,B,7.0
3,13.560999870300293,learn,46439.00012969971,Fri Feb 21 2025 16:42:38 GMT-0600 (Central Standard Time),415940.5,A,wife,O,e,335,1,1550.0,414390.5,7056,WL,B,7.0
3,13.82699990272522,learn,46173.00009727478,Fri Feb 21 2025 16:42:38 GMT-0600 (Central Standard Time),416206.10000000056,A,wifeenter,O,enter,248,1,1815.6000000005588,414390.5,7056,WL,B,7.0
3,14.109999895095825,learn,45890.000104904175,Fri Feb 21 2025 16:42:38 GMT-0600 (Central Standard Time),416490.10000000056,A,c,O,c,272,1,283.70000000018626,416206.4000000004,7056,WL,B,8.0
3,14.276999950408936,learn,45723.000049591064,Fri Feb 21 2025 16:42:38 GMT-0600 (Central Standard Time),416656.2000000002,A,ci,O,i,147,1,449.79999999981374,416206.4000000004,7056,WL,B,8.0
3,14.441999912261963,learn,45558.00008773804,Fri Feb 21 2025 16:42:38 GMT-0600 (Central Standard Time),416821.2999999998,A,cit,O,t,157,1,614.8999999994412,416206.4000000004,7056,WL,B,8.0
3,14.708999872207642,learn,45291.00012779236,Fri Feb 21 2025 16:42:38 GMT-0600 (Central Standard Time),417088.2999999998,A,city,O,y,253,1,881.8999999994412,416206.4000000004,7056,WL,B,8.0
3,15.993000030517578,learn,44006.99996948242,Fri Feb 21 2025 16:42:38 GMT-0600 (Central Standard Time),418372.2000000002,A,cityenter,O,enter,1270,1,2165.7999999998137,416206.4000000004,7056,WL,B,8.0
3,32.38700008392334,learn,27612.99991607666,Fri Feb 21 2025 16:42:38 GMT-0600 (Central Standard Time),434766.4000000004,A,w,O,w,16386,1,16393.900000000373,418372.5,7056,WL,B,9.0
3,32.53699994087219,learn,27463.000059127808,Fri Feb 21 2025 16:42:38 GMT-0600 (Central Standard Time),434916.60000000056,A,wi,O,i,145,1,16544.10000000056,418372.5,7056,WL,B,9.0
3,32.687999963760376,learn,27312.000036239624,Fri Feb 21 2025 16:42:38 GMT-0600 (Central Standard Time),435067.9000000004,A,win,O,n,141,1,16695.400000000373,418372.5,7056,WL,B,9.0
3,32.8199999332428,learn,27180.000066757202,Fri Feb 21 2025 16:42:38 GMT-0600 (Central Standard Time),435199.9000000004,A,wind,O,d,121,1,16827.400000000373,418372.5,7056,WL,B,9.0
3,32.97099995613098,learn,27029.00004386902,Fri Feb 21 2025 16:42:38 GMT-0600 (Central Standard Time),435350.7999999998,A,windo,O,o,130,1,16978.299999999814,418372.5,7056,WL,B,9.0
3,33.335999965667725,learn,26664.000034332275,Fri Feb 21 2025 16:42:38 GMT-0600 (Central Standard Time),435715.5,A,window,O,w,348,1,17343.0,418372.5,7056,WL,B,9.0
3,34.08800005912781,learn,25911.999940872192,Fri Feb 21 2025 16:42:38 GMT-0600 (Central Standard Time),436467.7000000002,A,windowenter,O,enter,745,1,18095.200000000186,418372.5,7056,WL,B,9.0
3,60.01200008392334,learn,-12.000083923339844,Fri Feb 21 2025 16:42:38 GMT-0600 (Central Standard Time),462391.2000000002,A,None,O,None,25918,1,25923.200000000186,436468.0,7056,WL,B,10.0
4,0.9010000228881836,learn,59098.99997711182,Fri Feb 21 2025 16:42:38 GMT-0600 (Central Standard Time),529220.2999999998,A,w,O,w,888,1,901.0,528319.2999999998,7056,WL,B,1.0
4,1.0510001182556152,learn,58948.999881744385,Fri Feb 21 2025 16:42:38 GMT-0600 (Central Standard Time),529370.5,A,wi,O,i,128,1,1051.2000000001863,528319.2999999998,7056,WL,B,1.0
4,1.2180001735687256,learn,58781.999826431274,Fri Feb 21 2025 16:42:38 GMT-0600 (Central Standard Time),529536.9000000004,A,win,O,n,154,1,1217.6000000005588,528319.2999999998,7056,WL,B,1.0
4,1.3519999980926514,learn,58648.00000190735,Fri Feb 21 2025 16:42:38 GMT-0600 (Central Standard Time),529671.0,A,wind,O,d,116,1,1351.7000000001863,528319.2999999998,7056,WL,B,1.0
4,1.5190000534057617,learn,58480.99994659424,Fri Feb 21 2025 16:42:38 GMT-0600 (Central Standard Time),529838.1000000006,A,windo,O,o,159,1,1518.800000000745,528319.2999999998,7056,WL,B,1.0
4,1.7660000324249268,learn,58233.99996757507,Fri Feb 21 2025 16:42:38 GMT-0600 (Central Standard Time),530085.2000000002,A,window,O,w,238,1,1765.9000000003725,528319.2999999998,7056,WL,B,1.0
4,2.0340001583099365,learn,57965.99984169006,Fri Feb 21 2025 16:42:38 GMT-0600 (Central Standard Time),530353.5,A,windowenter,O,enter,258,1,2034.2000000001863,528319.2999999998,7056,WL,B,1.0
4,2.302000045776367,learn,57697.99995422363,Fri Feb 21 2025 16:42:38 GMT-0600 (Central Standard Time),530621.5,A,c,O,c,263,1,267.79999999981374,530353.7000000002,7056,WL,B,2.0
4,2.434000015258789,learn,57565.99998474121,Fri Feb 21 2025 16:42:38 GMT-0600 (Central Standard Time),530753.1000000006,A,cl,O,l,118,1,399.40000000037253,530353.7000000002,7056,WL,B,2.0
4,2.702000141143799,learn,57297.9998588562,Fri Feb 21 2025 16:42:38 GMT-0600 (Central Standard Time),531021.2999999998,A,clo,O,o,263,1,667.5999999996275,530353.7000000002,7056,WL,B,2.0
4,2.884000062942505,learn,57115.999937057495,Fri Feb 21 2025 16:42:38 GMT-0600 (Central Standard Time),531203.0,A,cloc,O,c,158,1,849.2999999998137,530353.7000000002,7056,WL,B,2.0
4,3.0310001373291016,learn,56968.9998626709,Fri Feb 21 2025 16:42:38 GMT-0600 (Central Standard Time),531350.7000000002,A,clock,O,k,130,1,997.0,530353.7000000002,7056,WL,B,2.0
4,3.3990001678466797,learn,56600.99983215332,Fri Feb 21 2025 16:42:38 GMT-0600 (Central Standard Time),531718.2999999998,A,clockenter,O,enter,353,1,1364.5999999996275,530353.7000000002,7056,WL,B,2.0
4,3.7180001735687256,learn,56281.999826431274,Fri Feb 21 2025 16:42:38 GMT-0600 (Central Standard Time),532038.0,A,s,O,s,315,1,319.3999999994412,531718.6000000006,7056,WL,B,3.0
4,3.883000135421753,learn,56116.99986457825,Fri Feb 21 2025 16:42:38 GMT-0600 (Central Standard Time),532202.1000000006,A,sk,O,k,151,1,483.5,531718.6000000006,7056,WL,B,3.0
4,4.117000102996826,learn,55882.999897003174,Fri Feb 21 2025 16:42:38 GMT-0600 (Central Standard Time),532436.1000000006,A,ski,O,i,219,1,717.5,531718.6000000006,7056,WL,B,3.0
4,4.236999988555908,learn,55763.00001144409,Fri Feb 21 2025 16:42:38 GMT-0600 (Central Standard Time),532556.4000000004,A,skin,O,n,113,1,837.7999999998137,531718.6000000006,7056,WL,B,3.0
4,4.618000030517578,learn,55381.99996948242,Fri Feb 21 2025 16:42:38 GMT-0600 (Central Standard Time),532937.4000000004,A,skinenter,O,enter,371,1,1218.7999999998137,531718.6000000006,7056,WL,B,3.0
4,4.901000022888184,learn,55098.99997711182,Fri Feb 21 2025 16:42:38 GMT-0600 (Central Standard Time),533220.7999999998,A,f,O,f,278,1,283.09999999962747,532937.7000000002,7056,WL,B,4.0
4,5.065999984741211,learn,54934.00001525879,Fri Feb 21 2025 16:42:38 GMT-0600 (Central Standard Time),533385.2000000002,A,fi,O,i,151,1,447.5,532937.7000000002,7056,WL,B,4.0
4,5.267000198364258,learn,54732.99980163574,Fri Feb 21 2025 16:42:38 GMT-0600 (Central Standard Time),533586.4000000004,A,fir,O,r,189,1,648.7000000001863,532937.7000000002,7056,WL,B,4.0
4,5.501000165939331,learn,54498.99983406067,Fri Feb 21 2025 16:42:38 GMT-0600 (Central Standard Time),533820.7999999998,A,fire,O,e,228,1,883.0999999996275,532937.7000000002,7056,WL,B,4.0
4,5.79800009727478,learn,54201.99990272522,Fri Feb 21 2025 16:42:38 GMT-0600 (Central Standard Time),534117.6000000006,A,fireenter,O,enter,279,1,1179.9000000003725,532937.7000000002,7056,WL,B,4.0
4,7.065999984741211,learn,52934.00001525879,Fri Feb 21 2025 16:42:38 GMT-0600 (Central Standard Time),535386.0,A,s,O,s,1256,1,1268.0999999996275,534117.9000000004,7056,WL,B,5.0
4,7.299000024795532,learn,52700.99997520447,Fri Feb 21 2025 16:42:38 GMT-0600 (Central Standard Time),535618.9000000004,A,st,O,t,211,1,1501.0,534117.9000000004,7056,WL,B,5.0
4,7.499000072479248,learn,52500.99992752075,Fri Feb 21 2025 16:42:38 GMT-0600 (Central Standard Time),535818.5,A,str,O,r,187,1,1700.5999999996275,534117.9000000004,7056,WL,B,5.0
4,7.716000080108643,learn,52283.99991989136,Fri Feb 21 2025 16:42:38 GMT-0600 (Central Standard Time),536035.1000000006,A,strr,O,r,202,1,1917.2000000001863,534117.9000000004,7056,WL,B,5.0
4,8.198000192642212,learn,51801.99980735779,Fri Feb 21 2025 16:42:38 GMT-0600 (Central Standard Time),536518.0,A,str,O,backspace,474,1,2400.0999999996275,534117.9000000004,7056,WL,B,5.0
4,8.398000001907349,learn,51601.99999809265,Fri Feb 21 2025 16:42:38 GMT-0600 (Central Standard Time),536717.7000000002,A,stre,O,e,190,1,2599.7999999998137,534117.9000000004,7056,WL,B,5.0
4,8.532000064849854,learn,51467.99993515015,Fri Feb 21 2025 16:42:38 GMT-0600 (Central Standard Time),536851.2999999998,A,stree,O,e,118,1,2733.399999999441,534117.9000000004,7056,WL,B,5.0
4,8.797000169754028,learn,51202.99983024597,Fri Feb 21 2025 16:42:38 GMT-0600 (Central Standard Time),537117.0,A,street,O,t,251,1,2999.0999999996275,534117.9000000004,7056,WL,B,5.0
4,9.098999977111816,learn,50901.00002288818,Fri Feb 21 2025 16:42:38 GMT-0600 (Central Standard Time),537418.2999999998,A,streetenter,O,enter,288,1,3300.399999999441,534117.9000000004,7056,WL,B,5.0
4,9.481000185012817,learn,50518.99981498718,Fri Feb 21 2025 16:42:38 GMT-0600 (Central Standard Time),537800.1000000006,A,c,O,c,371,1,381.5,537418.6000000006,7056,WL,B,6.0
4,9.864000082015991,learn,50135.99991798401,Fri Feb 21 2025 16:42:38 GMT-0600 (Central Standard Time),538184.0,A,,O,backspace,373,1,765.3999999994412,537418.6000000006,7056,WL,B,6.0
4,9.96399998664856,learn,50036.00001335144,Fri Feb 21 2025 16:42:38 GMT-0600 (Central Standard Time),538283.2000000002,A,w,O,w,85,1,864.5999999996275,537418.6000000006,7056,WL,B,6.0
4,10.14900016784668,learn,49850.99983215332,Fri Feb 21 2025 16:42:38 GMT-0600 (Central Standard Time),538468.2000000002,A,wi,O,i,167,1,1049.5999999996275,537418.6000000006,7056,WL,B,6.0
4,10.365000009536743,learn,49634.99999046326,Fri Feb 21 2025 16:42:38 GMT-0600 (Central Standard Time),538684.1000000006,A,wif,O,f,209,1,1265.5,537418.6000000006,7056,WL,B,6.0
4,10.664000034332275,learn,49335.999965667725,Fri Feb 21 2025 16:42:38 GMT-0600 (Central Standard Time),538983.5,A,wife,O,e,289,1,1564.8999999994412,537418.6000000006,7056,WL,B,6.0
4,10.897000074386597,learn,49102.9999256134,Fri Feb 21 2025 16:42:38 GMT-0600 (Central Standard Time),539216.9000000004,A,wifeenter,O,enter,222,1,1798.2999999998137,537418.6000000006,7056,WL,B,6.0
4,11.13100004196167,learn,48868.99995803833,Fri Feb 21 2025 16:42:38 GMT-0600 (Central Standard Time),539450.5,A,c,O,c,213,1,233.29999999981374,539217.2000000002,7056,WL,B,7.0
4,11.249000072479248,learn,48750.99992752075,Fri Feb 21 2025 16:42:38 GMT-0600 (Central Standard Time),539568.2000000002,A,ci,O,i,106,1,351.0,539217.2000000002,7056,WL,B,7.0
4,11.414000034332275,learn,48585.999965667725,Fri Feb 21 2025 16:42:38 GMT-0600 (Central Standard Time),539733.9000000004,A,cit,O,t,149,1,516.7000000001863,539217.2000000002,7056,WL,B,7.0
4,11.630000114440918,learn,48369.99988555908,Fri Feb 21 2025 16:42:38 GMT-0600 (Central Standard Time),539949.4000000004,A,city,O,y,199,1,732.2000000001863,539217.2000000002,7056,WL,B,7.0
4,11.914000034332275,learn,48085.999965667725,Fri Feb 21 2025 16:42:38 GMT-0600 (Central Standard Time),540233.4000000004,A,cityenter,O,enter,262,1,1016.2000000001863,539217.2000000002,7056,WL,B,7.0
4,13.180999994277954,learn,46819.000005722046,Fri Feb 21 2025 16:42:38 GMT-0600 (Central Standard Time),541500.7000000002,A,s,O,s,1262,1,1267.0999999996275,540233.6000000006,7056,WL,B,8.0
4,13.397000074386597,learn,46602.9999256134,Fri Feb 21 2025 16:42:38 GMT-0600 (Central Standard Time),541717.0,A,st,O,t,199,1,1483.3999999994412,540233.6000000006,7056,WL,B,8.0
4,13.614000082015991,learn,46385.99991798401,Fri Feb 21 2025 16:42:38 GMT-0600 (Central Standard Time),541933.1000000006,A,sta,O,a,211,1,1699.5,540233.6000000006,7056,WL,B,8.0
4,13.746999979019165,learn,46253.000020980835,Fri Feb 21 2025 16:42:38 GMT-0600 (Central Standard Time),542066.1000000006,A,star,O,r,122,1,1832.5,540233.6000000006,7056,WL,B,8.0
4,14.081000089645386,learn,45918.999910354614,Fri Feb 21 2025 16:42:38 GMT-0600 (Central Standard Time),542400.7000000002,A,starenter,O,enter,315,1,2167.0999999996275,540233.6000000006,7056,WL,B,8.0
4,14.446000099182129,learn,45553.99990081787,Fri Feb 21 2025 16:42:38 GMT-0600 (Central Standard Time),542766.0,A,a,O,a,349,1,365.0,542401.0,7056,WL,B,9.0
4,14.614000082015991,learn,45385.99991798401,Fri Feb 21 2025 16:42:38 GMT-0600 (Central Standard Time),542933.2000000002,A,ar,O,r,161,1,532.2000000001863,542401.0,7056,WL,B,9.0
4,15.196000099182129,learn,44803.99990081787,Fri Feb 21 2025 16:42:38 GMT-0600 (Central Standard Time),543515.7000000002,A,arm,O,m,566,1,1114.7000000001863,542401.0,7056,WL,B,9.0
4,15.629000186920166,learn,44370.999813079834,Fri Feb 21 2025 16:42:38 GMT-0600 (Central Standard Time),543948.6000000006,A,armenter,O,enter,417,1,1547.6000000005588,542401.0,7056,WL,B,9.0
4,17.67900013923645,learn,42320.99986076355,Fri Feb 21 2025 16:42:38 GMT-0600 (Central Standard Time),545998.0,A,c,O,c,2033,1,2049.0999999996275,543948.9000000004,7056,WL,B,10.0
4,17.77999997138977,learn,42220.00002861023,Fri Feb 21 2025 16:42:38 GMT-0600 (Central Standard Time),546099.5,A,cl,O,l,79,1,2150.5999999996275,543948.9000000004,7056,WL,B,10.0
4,17.963000059127808,learn,42036.99994087219,Fri Feb 21 2025 16:42:38 GMT-0600 (Central Standard Time),546282.1000000006,A,clo,O,o,169,1,2333.2000000001863,543948.9000000004,7056,WL,B,10.0
4,18.07800006866455,learn,41921.99993133545,Fri Feb 21 2025 16:42:38 GMT-0600 (Central Standard Time),546397.5,A,cloc,O,c,99,1,2448.5999999996275,543948.9000000004,7056,WL,B,10.0
4,18.229000091552734,learn,41770.999908447266,Fri Feb 21 2025 16:42:38 GMT-0600 (Central Standard Time),546549.0,A,clock,O,k,145,1,2600.0999999996275,543948.9000000004,7056,WL,B,10.0
4,18.546000003814697,learn,41453.9999961853,Fri Feb 21 2025 16:42:38 GMT-0600 (Central Standard Time),546865.1000000006,A,clockenter,O,enter,302,1,2916.2000000001863,543948.9000000004,7056,WL,B,10.0
4,18.76200008392334,learn,41237.99991607666,Fri Feb 21 2025 16:42:38 GMT-0600 (Central Standard Time),547081.4000000004,A,w,O,w,205,1,216.0,546865.4000000004,7056,WL,B,11.0
4,18.879000186920166,learn,41120.999813079834,Fri Feb 21 2025 16:42:38 GMT-0600 (Central Standard Time),547198.0,A,wi,O,i,108,1,332.59999999962747,546865.4000000004,7056,WL,B,11.0
4,19.02900004386902,learn,40970.99995613098,Fri Feb 21 2025 16:42:38 GMT-0600 (Central Standard Time),547348.2000000002,A,win,O,n,135,1,482.79999999981374,546865.4000000004,7056,WL,B,11.0
4,19.16200017929077,learn,40837.99982070923,Fri Feb 21 2025 16:42:38 GMT-0600 (Central Standard Time),547481.7000000002,A,wind,O,d,113,1,616.2999999998137,546865.4000000004,7056,WL,B,11.0
4,19.396000146865845,learn,40603.999853134155,Fri Feb 21 2025 16:42:38 GMT-0600 (Central Standard Time),547715.2999999998,A,windo,O,o,220,1,849.8999999994412,546865.4000000004,7056,WL,B,11.0
4,19.694000005722046,learn,40305.999994277954,Fri Feb 21 2025 16:42:38 GMT-0600 (Central Standard Time),548013.9000000004,A,window,O,w,282,1,1148.5,546865.4000000004,7056,WL,B,11.0
4,20.361999988555908,learn,39638.00001144409,Fri Feb 21 2025 16:42:38 GMT-0600 (Central Standard Time),548681.0,A,windowenter,O,enter,647,1,1815.5999999996275,546865.4000000004,7056,WL,B,11.0
4,21.028000116348267,learn,38971.99988365173,Fri Feb 21 2025 16:42:38 GMT-0600 (Central Standard Time),549347.7999999998,A,p,O,p,661,1,666.5,548681.2999999998,7056,WL,B,12.0
4,21.195000171661377,learn,38804.99982833862,Fri Feb 21 2025 16:42:38 GMT-0600 (Central Standard Time),549514.7999999998,A,pi,O,i,144,1,833.5,548681.2999999998,7056,WL,B,12.0
4,21.361000061035156,learn,38638.999938964844,Fri Feb 21 2025 16:42:38 GMT-0600 (Central Standard Time),549680.4000000004,A,pip,O,p,145,1,999.1000000005588,548681.2999999998,7056,WL,B,12.0
4,21.61300015449524,learn,38386.99984550476,Fri Feb 21 2025 16:42:38 GMT-0600 (Central Standard Time),549932.9000000004,A,pipe,O,e,244,1,1251.6000000005588,548681.2999999998,7056,WL,B,12.0
4,22.02900004386902,learn,37970.99995613098,Fri Feb 21 2025 16:42:38 GMT-0600 (Central Standard Time),550348.1000000006,A,pipeenter,O,enter,399,1,1666.800000000745,548681.2999999998,7056,WL,B,12.0
4,22.311000108718872,learn,37688.99989128113,Fri Feb 21 2025 16:42:38 GMT-0600 (Central Standard Time),550630.5,A,p,O,p,266,1,282.20000000018626,550348.2999999998,7056,WL,B,13.0
4,22.461000204086304,learn,37538.999795913696,Fri Feb 21 2025 16:42:38 GMT-0600 (Central Standard Time),550780.5,A,pi,O,i,144,1,432.20000000018626,550348.2999999998,7056,WL,B,13.0
4,22.611000061035156,learn,37388.999938964844,Fri Feb 21 2025 16:42:38 GMT-0600 (Central Standard Time),550930.6000000006,A,pil,O,l,143,1,582.3000000007451,550348.2999999998,7056,WL,B,13.0
4,23.111000061035156,learn,36888.999938964844,Fri Feb 21 2025 16:42:38 GMT-0600 (Central Standard Time),551430.2999999998,A,pi,O,backspace,493,1,1082.0,550348.2999999998,7056,WL,B,13.0
4,23.311000108718872,learn,36688.99989128113,Fri Feb 21 2025 16:42:38 GMT-0600 (Central Standard Time),551630.4000000004,A,p,O,backspace,182,1,1282.1000000005588,550348.2999999998,7056,WL,B,13.0
4,23.97699999809265,learn,36023.00000190735,Fri Feb 21 2025 16:42:38 GMT-0600 (Central Standard Time),552296.5,A,pu,O,u,646,1,1948.2000000001863,550348.2999999998,7056,WL,B,13.0
4,25.16100001335144,learn,34838.99998664856,Fri Feb 21 2025 16:42:38 GMT-0600 (Central Standard Time),553480.7999999998,A,pup,O,p,1164,1,3132.5,550348.2999999998,7056,WL,B,13.0
4,25.460000038146973,learn,34539.99996185303,Fri Feb 21 2025 16:42:38 GMT-0600 (Central Standard Time),553779.6000000006,A,pupi,O,i,281,1,3431.300000000745,550348.2999999998,7056,WL,B,13.0
4,25.7260000705719,learn,34273.9999294281,Fri Feb 21 2025 16:42:38 GMT-0600 (Central Standard Time),554045.2999999998,A,pupil,O,l,244,1,3697.0,550348.2999999998,7056,WL,B,13.0
4,26.542999982833862,learn,33457.00001716614,Fri Feb 21 2025 16:42:38 GMT-0600 (Central Standard Time),554862.2999999998,A,pupilenter,O,enter,806,1,4514.0,550348.2999999998,7056,WL,B,13.0
4,31.942000150680542,learn,28057.999849319458,Fri Feb 21 2025 16:42:38 GMT-0600 (Central Standard Time),560261.7000000002,A,s,O,s,5375,1,5399.0,554862.7000000002,7056,WL,B,14.0
4,32.14300012588501,learn,27856.99987411499,Fri Feb 21 2025 16:42:38 GMT-0600 (Central Standard Time),560462.5,A,st,O,t,193,1,5599.799999999814,554862.7000000002,7056,WL,B,14.0
4,32.407999992370605,learn,27592.000007629395,Fri Feb 21 2025 16:42:38 GMT-0600 (Central Standard Time),560727.6000000006,A,sta,O,a,244,1,5864.9000000003725,554862.7000000002,7056,WL,B,14.0
4,32.907999992370605,learn,27092.000007629395,Fri Feb 21 2025 16:42:38 GMT-0600 (Central Standard Time),561227.9000000004,A,stay,O,y,476,1,6365.200000000186,554862.7000000002,7056,WL,B,14.0
4,33.526000022888184,learn,26473.999977111816,Fri Feb 21 2025 16:42:38 GMT-0600 (Central Standard Time),561845.7000000002,A,sta,O,backspace,610,1,6983.0,554862.7000000002,7056,WL,B,14.0
4,33.80800008773804,learn,26191.999912261963,Fri Feb 21 2025 16:42:38 GMT-0600 (Central Standard Time),562127.1000000006,A,star,O,r,258,1,7264.4000000003725,554862.7000000002,7056,WL,B,14.0
4,34.44000005722046,learn,25559.99994277954,Fri Feb 21 2025 16:42:38 GMT-0600 (Central Standard Time),562759.4000000004,A,starenter,O,enter,608,1,7896.700000000186,554862.7000000002,7056,WL,B,14.0
4,40.67200016975403,learn,19327.99983024597,Fri Feb 21 2025 16:42:38 GMT-0600 (Central Standard Time),568991.6000000006,A,s,O,s,6214,1,6231.9000000003725,562759.7000000002,7056,WL,B,15.0
4,40.92200016975403,learn,19077.99983024597,Fri Feb 21 2025 16:42:38 GMT-0600 (Central Standard Time),569241.4000000004,A,st,O,t,234,1,6481.700000000186,562759.7000000002,7056,WL,B,15.0
4,41.18900012969971,learn,18810.999870300293,Fri Feb 21 2025 16:42:38 GMT-0600 (Central Standard Time),569508.1000000006,A,sta,O,a,259,1,6748.4000000003725,562759.7000000002,7056,WL,B,15.0
4,41.33800005912781,learn,18661.999940872192,Fri Feb 21 2025 16:42:38 GMT-0600 (Central Standard Time),569657.1000000006,A,star,O,r,136,1,6897.4000000003725,562759.7000000002,7056,WL,B,15.0
4,41.88700008392334,learn,18112.99991607666,Fri Feb 21 2025 16:42:38 GMT-0600 (Central Standard Time),570206.2000000002,A,starenter,O,enter,538,1,7446.5,562759.7000000002,7056,WL,B,15.0
5,0.43400001525878906,learn,60000.0,Fri Feb 21 2025 16:42:38 GMT-0600 (Central Standard Time),635303.0,A,f,O,f,424,1,433.70000000018626,634869.2999999998,7056,WL,B,1.0
5,0.6180000305175781,learn,60000.0,Fri Feb 21 2025 16:42:38 GMT-0600 (Central Standard Time),635487.2000000002,A,fi,O,i,177,1,617.9000000003725,634869.2999999998,7056,WL,B,1.0
5,0.7009999752044678,learn,60000.0,Fri Feb 21 2025 16:42:38 GMT-0600 (Central Standard Time),635570.1000000006,A,fir,O,r,70,1,700.8000000007451,634869.2999999998,7056,WL,B,1.0
5,0.9019999504089355,learn,60000.0,Fri Feb 21 2025 16:42:38 GMT-0600 (Central Standard Time),635770.2999999998,A,fire,O,e,194,1,901.0,634869.2999999998,7056,WL,B,1.0
5,1.2850000858306885,learn,60000.0,Fri Feb 21 2025 16:42:38 GMT-0600 (Central Standard Time),636154.2000000002,A,fireenter,O,enter,362,1,1284.9000000003725,634869.2999999998,7056,WL,B,1.0
5,1.6160001754760742,learn,60000.0,Fri Feb 21 2025 16:42:38 GMT-0600 (Central Standard Time),636485.2000000002,A,c,O,c,327,1,330.70000000018626,636154.5,7056,WL,B,2.0
5,1.7840001583099365,learn,60000.0,Fri Feb 21 2025 16:42:38 GMT-0600 (Central Standard Time),636653.2000000002,A,cl,O,l,152,1,498.70000000018626,636154.5,7056,WL,B,2.0
5,1.9839999675750732,learn,60000.0,Fri Feb 21 2025 16:42:38 GMT-0600 (Central Standard Time),636853.2000000002,A,clo,O,o,183,1,698.7000000001863,636154.5,7056,WL,B,2.0
5,2.117000102996826,learn,60000.0,Fri Feb 21 2025 16:42:38 GMT-0600 (Central Standard Time),636986.2999999998,A,cloc,O,c,112,1,831.7999999998137,636154.5,7056,WL,B,2.0
5,2.249000072479248,learn,60000.0,Fri Feb 21 2025 16:42:38 GMT-0600 (Central Standard Time),637118.2000000002,A,clock,O,k,125,1,963.7000000001863,636154.5,7056,WL,B,2.0
5,2.4839999675750732,learn,60000.0,Fri Feb 21 2025 16:42:38 GMT-0600 (Central Standard Time),637352.7999999998,A,clockenter,O,enter,223,1,1198.2999999998137,636154.5,7056,WL,B,2.0
5,2.8510000705718994,learn,60000.0,Fri Feb 21 2025 16:42:38 GMT-0600 (Central Standard Time),637719.7000000002,A,s,O,s,348,1,366.70000000018626,637353.0,7056,WL,B,3.0
5,3.001000165939331,learn,60000.0,Fri Feb 21 2025 16:42:38 GMT-0600 (Central Standard Time),637869.6000000006,A,sk,O,k,133,1,516.6000000005588,637353.0,7056,WL,B,3.0
5,3.2320001125335693,learn,60000.0,Fri Feb 21 2025 16:42:38 GMT-0600 (Central Standard Time),638101.1000000006,A,ski,O,i,226,1,748.1000000005588,637353.0,7056,WL,B,3.0
5,3.433000087738037,learn,60000.0,Fri Feb 21 2025 16:42:38 GMT-0600 (Central Standard Time),638302.4000000004,A,skin,O,n,185,1,949.4000000003725,637353.0,7056,WL,B,3.0
5,3.7320001125335693,learn,60000.0,Fri Feb 21 2025 16:42:38 GMT-0600 (Central Standard Time),638600.9000000004,A,skinenter,O,enter,285,1,1247.9000000003725,637353.0,7056,WL,B,3.0
5,4.666000127792358,learn,60000.0,Fri Feb 21 2025 16:42:38 GMT-0600 (Central Standard Time),639535.2000000002,A,s,O,s,917,1,934.0999999996275,638601.1000000006,7056,WL,B,4.0
5,4.866000175476074,learn,60000.0,Fri Feb 21 2025 16:42:38 GMT-0600 (Central Standard Time),639734.6000000006,A,st,O,t,181,1,1133.5,638601.1000000006,7056,WL,B,4.0
5,5.150000095367432,learn,60000.0,Fri Feb 21 2025 16:42:38 GMT-0600 (Central Standard Time),640018.7999999998,A,sta,O,a,262,1,1417.699999999255,638601.1000000006,7056,WL,B,4.0
5,5.799999952316284,learn,60000.0,Fri Feb 21 2025 16:42:38 GMT-0600 (Central Standard Time),640668.9000000004,A,st,O,backspace,634,1,2067.7999999998137,638601.1000000006,7056,WL,B,4.0
5,5.950999975204468,learn,60000.0,Fri Feb 21 2025 16:42:38 GMT-0600 (Central Standard Time),640820.2000000002,A,ste,O,e,126,1,2219.0999999996275,638601.1000000006,7056,WL,B,4.0
5,6.1000001430511475,learn,60000.0,Fri Feb 21 2025 16:42:38 GMT-0600 (Central Standard Time),640968.6000000006,A,stee,O,e,130,1,2367.5,638601.1000000006,7056,WL,B,4.0
5,6.348999977111816,learn,60000.0,Fri Feb 21 2025 16:42:38 GMT-0600 (Central Standard Time),641217.9000000004,A,steer,O,r,237,1,2616.7999999998137,638601.1000000006,7056,WL,B,4.0
5,6.916000127792358,learn,60000.0,Fri Feb 21 2025 16:42:38 GMT-0600 (Central Standard Time),641784.6000000006,A,stee,O,backspace,546,1,3183.5,638601.1000000006,7056,WL,B,4.0
5,7.0329999923706055,learn,60000.0,Fri Feb 21 2025 16:42:38 GMT-0600 (Central Standard Time),641901.6000000006,A,steet,O,t,109,1,3300.5,638601.1000000006,7056,WL,B,4.0
5,7.348999977111816,learn,60000.0,Fri Feb 21 2025 16:42:38 GMT-0600 (Central Standard Time),642218.1000000006,A,steetenter,O,enter,310,1,3617.0,638601.1000000006,7056,WL,B,4.0
5,7.664999961853027,learn,60000.0,Fri Feb 21 2025 16:42:38 GMT-0600 (Central Standard Time),642533.7000000002,A,d,O,d,310,1,315.5,642218.2000000002,7056,WL,B,5.0
5,7.815000057220459,learn,60000.0,Fri Feb 21 2025 16:42:38 GMT-0600 (Central Standard Time),642684.0,A,do,O,o,143,1,465.79999999981374,642218.2000000002,7056,WL,B,5.0
5,7.982000112533569,learn,60000.0,Fri Feb 21 2025 16:42:38 GMT-0600 (Central Standard Time),642851.1000000006,A,doo,O,o,145,1,632.9000000003725,642218.2000000002,7056,WL,B,5.0
5,8.14900016784668,learn,60000.0,Fri Feb 21 2025 16:42:38 GMT-0600 (Central Standard Time),643017.7999999998,A,door,O,r,154,1,799.5999999996275,642218.2000000002,7056,WL,B,5.0
5,8.516000032424927,learn,60000.0,Fri Feb 21 2025 16:42:38 GMT-0600 (Central Standard Time),643385.1000000006,A,doorenter,O,enter,347,1,1166.9000000003725,642218.2000000002,7056,WL,B,5.0
5,8.799000024795532,learn,60000.0,Fri Feb 21 2025 16:42:38 GMT-0600 (Central Standard Time),643667.2999999998,A,a,O,a,270,1,282.0,643385.2999999998,7056,WL,B,6.0
5,8.930999994277954,learn,60000.0,Fri Feb 21 2025 16:42:38 GMT-0600 (Central Standard Time),643799.6000000006,A,ar,O,r,122,1,414.30000000074506,643385.2999999998,7056,WL,B,6.0
5,9.248000144958496,learn,60000.0,Fri Feb 21 2025 16:42:38 GMT-0600 (Central Standard Time),644117.2000000002,A,arm,O,m,312,1,731.9000000003725,643385.2999999998,7056,WL,B,6.0
5,9.781000137329102,learn,60000.0,Fri Feb 21 2025 16:42:38 GMT-0600 (Central Standard Time),644649.9000000004,A,armenter,O,enter,517,1,1264.6000000005588,643385.2999999998,7056,WL,B,6.0
5,12.031000137329102,learn,60000.0,Fri Feb 21 2025 16:42:38 GMT-0600 (Central Standard Time),646900.2999999998,A,c,O,c,2236,1,2250.0999999996275,644650.2000000002,7056,WL,B,7.0
5,12.17900013923645,learn,60000.0,Fri Feb 21 2025 16:42:38 GMT-0600 (Central Standard Time),647048.2000000002,A,cl,O,l,129,1,2398.0,644650.2000000002,7056,WL,B,7.0
5,12.348000049591064,learn,60000.0,Fri Feb 21 2025 16:42:38 GMT-0600 (Central Standard Time),647217.0,A,clo,O,o,156,1,2566.7999999998137,644650.2000000002,7056,WL,B,7.0
5,12.496999979019165,learn,60000.0,Fri Feb 21 2025 16:42:38 GMT-0600 (Central Standard Time),647365.6000000006,A,cloc,O,c,141,1,2715.4000000003725,644650.2000000002,7056,WL,B,7.0
5,12.680000066757202,learn,60000.0,Fri Feb 21 2025 16:42:38 GMT-0600 (Central Standard Time),647548.6000000006,A,clock,O,k,167,1,2898.4000000003725,644650.2000000002,7056,WL,B,7.0
5,13.014000177383423,learn,60000.0,Fri Feb 21 2025 16:42:38 GMT-0600 (Central Standard Time),647882.9000000004,A,clockenter,O,enter,322,1,3232.7000000001863,644650.2000000002,7056,WL,B,7.0
5,13.44700002670288,learn,60000.0,Fri Feb 21 2025 16:42:38 GMT-0600 (Central Standard Time),648315.7000000002,A,w,O,w,419,1,432.5,647883.2000000002,7056,WL,B,8.0
5,13.547000169754028,learn,60000.0,Fri Feb 21 2025 16:42:38 GMT-0600 (Central Standard Time),648415.4000000004,A,wi,O,i,90,1,532.2000000001863,647883.2000000002,7056,WL,B,8.0
5,13.69700002670288,learn,60000.0,Fri Feb 21 2025 16:42:38 GMT-0600 (Central Standard Time),648565.7000000002,A,win,O,n,132,1,682.5,647883.2000000002,7056,WL,B,8.0
5,13.830000162124634,learn,60000.0,Fri Feb 21 2025 16:42:38 GMT-0600 (Central Standard Time),648699.2000000002,A,wind,O,d,120,1,816.0,647883.2000000002,7056,WL,B,8.0
5,14.02999997138977,learn,60000.0,Fri Feb 21 2025 16:42:38 GMT-0600 (Central Standard Time),648899.2000000002,A,windo,O,o,183,1,1016.0,647883.2000000002,7056,WL,B,8.0
5,14.38100004196167,learn,60000.0,Fri Feb 21 2025 16:42:38 GMT-0600 (Central Standard Time),649249.7000000002,A,window,O,w,338,1,1366.5,647883.2000000002,7056,WL,B,8.0
5,14.878999948501587,learn,60000.0,Fri Feb 21 2025 16:42:38 GMT-0600 (Central Standard Time),649748.2000000002,A,windowenter,O,enter,483,1,1865.0,647883.2000000002,7056,WL,B,8.0
5,15.46399998664856,learn,60000.0,Fri Feb 21 2025 16:42:38 GMT-0600 (Central Standard Time),650332.9000000004,A,k,O,k,580,1,584.5,649748.4000000004,7056,WL,B,9.0
5,15.897000074386597,learn,60000.0,Fri Feb 21 2025 16:42:38 GMT-0600 (Central Standard Time),650765.7000000002,A,,O,backspace,416,1,1017.2999999998137,649748.4000000004,7056,WL,B,9.0
5,15.996000051498413,learn,60000.0,Fri Feb 21 2025 16:42:38 GMT-0600 (Central Standard Time),650865.6000000006,A,s,O,s,82,1,1117.2000000001863,649748.4000000004,7056,WL,B,9.0
5,16.180000066757202,learn,60000.0,Fri Feb 21 2025 16:42:38 GMT-0600 (Central Standard Time),651048.9000000004,A,sk,O,k,163,1,1300.5,649748.4000000004,7056,WL,B,9.0
5,16.413000106811523,learn,60000.0,Fri Feb 21 2025 16:42:38 GMT-0600 (Central Standard Time),651282.2999999998,A,ski,O,i,212,1,1533.8999999994412,649748.4000000004,7056,WL,B,9.0
5,16.628999948501587,learn,60000.0,Fri Feb 21 2025 16:42:38 GMT-0600 (Central Standard Time),651498.5,A,skin,O,n,194,1,1750.0999999996275,649748.4000000004,7056,WL,B,9.0
5,16.896000146865845,learn,60000.0,Fri Feb 21 2025 16:42:38 GMT-0600 (Central Standard Time),651764.9000000004,A,skinenter,O,enter,243,1,2016.5,649748.4000000004,7056,WL,B,9.0
5,17.396000146865845,learn,60000.0,Fri Feb 21 2025 16:42:38 GMT-0600 (Central Standard Time),652265.1000000006,A,f,O,f,489,1,500.0,651765.1000000006,7056,WL,B,10.0
5,17.562000036239624,learn,60000.0,Fri Feb 21 2025 16:42:38 GMT-0600 (Central Standard Time),652431.4000000004,A,fi,O,i,157,1,666.2999999998137,651765.1000000006,7056,WL,B,10.0
5,17.680000066757202,learn,60000.0,Fri Feb 21 2025 16:42:38 GMT-0600 (Central Standard Time),652548.7000000002,A,fir,O,r,112,1,783.5999999996275,651765.1000000006,7056,WL,B,10.0
5,17.82800006866455,learn,60000.0,Fri Feb 21 2025 16:42:38 GMT-0600 (Central Standard Time),652696.7999999998,A,fire,O,e,128,1,931.6999999992549,651765.1000000006,7056,WL,B,10.0
5,17.979000091552734,learn,60000.0,Fri Feb 21 2025 16:42:38 GMT-0600 (Central Standard Time),652848.1000000006,A,fireenter,O,enter,131,1,1083.0,651765.1000000006,7056,WL,B,10.0
5,18.248000144958496,learn,60000.0,Fri Feb 21 2025 16:42:38 GMT-0600 (Central Standard Time),653116.7999999998,A,p,O,p,263,1,268.3999999994412,652848.4000000004,7056,WL,B,11.0
5,18.44600009918213,learn,60000.0,Fri Feb 21 2025 16:42:38 GMT-0600 (Central Standard Time),653314.9000000004,A,pi,O,i,193,1,466.5,652848.4000000004,7056,WL,B,11.0
5,18.611000061035156,learn,60000.0,Fri Feb 21 2025 16:42:38 GMT-0600 (Central Standard Time),653479.9000000004,A,pip,O,p,154,1,631.5,652848.4000000004,7056,WL,B,11.0
5,18.812000036239624,learn,60000.0,Fri Feb 21 2025 16:42:38 GMT-0600 (Central Standard Time),653681.2999999998,A,pipe,O,e,182,1,832.8999999994412,652848.4000000004,7056,WL,B,11.0
5,19.111000061035156,learn,60000.0,Fri Feb 21 2025 16:42:38 GMT-0600 (Central Standard Time),653980.1000000006,A,pipeenter,O,enter,284,1,1131.7000000001863,652848.4000000004,7056,WL,B,11.0
5,19.561000108718872,learn,60000.0,Fri Feb 21 2025 16:42:38 GMT-0600 (Central Standard Time),654430.2000000002,A,p,O,p,442,1,449.79999999981374,653980.4000000004,7056,WL,B,12.0
5,19.794000148773193,learn,60000.0,Fri Feb 21 2025 16:42:38 GMT-0600 (Central Standard Time),654662.7999999998,A,pu,O,u,213,1,682.3999999994412,653980.4000000004,7056,WL,B,12.0
5,19.91200017929077,learn,60000.0,Fri Feb 21 2025 16:42:38 GMT-0600 (Central Standard Time),654781.1000000006,A,pup,O,p,110,1,800.7000000001863,653980.4000000004,7056,WL,B,12.0
5,20.32800006866455,learn,60000.0,Fri Feb 21 2025 16:42:38 GMT-0600 (Central Standard Time),655197.5,A,pupl,O,l,411,1,1217.0999999996275,653980.4000000004,7056,WL,B,12.0
5,20.728000164031982,learn,60000.0,Fri Feb 21 2025 16:42:38 GMT-0600 (Central Standard Time),655597.2999999998,A,pup,O,backspace,383,1,1616.8999999994412,653980.4000000004,7056,WL,B,12.0
5,21.011000156402588,learn,60000.0,Fri Feb 21 2025 16:42:38 GMT-0600 (Central Standard Time),655880.1000000006,A,pupi,O,i,272,1,1899.7000000001863,653980.4000000004,7056,WL,B,12.0
5,21.294000148773193,learn,60000.0,Fri Feb 21 2025 16:42:38 GMT-0600 (Central Standard Time),656163.1000000006,A,pupil,O,l,269,1,2182.7000000001863,653980.4000000004,7056,WL,B,12.0
5,21.561000108718872,learn,60000.0,Fri Feb 21 2025 16:42:38 GMT-0600 (Central Standard Time),656430.6000000006,A,pupilenter,O,enter,257,1,2450.2000000001863,653980.4000000004,7056,WL,B,12.0
5,21.861000061035156,learn,60000.0,Fri Feb 21 2025 16:42:38 GMT-0600 (Central Standard Time),656730.4000000004,A,c,O,c,287,1,299.6000000005588,656430.7999999998,7056,WL,B,13.0
5,21.978000164031982,learn,60000.0,Fri Feb 21 2025 16:42:38 GMT-0600 (Central Standard Time),656847.2000000002,A,ci,O,i,98,1,416.40000000037253,656430.7999999998,7056,WL,B,13.0
5,22.14300012588501,learn,60000.0,Fri Feb 21 2025 16:42:38 GMT-0600 (Central Standard Time),657012.2999999998,A,cit,O,t,158,1,581.5,656430.7999999998,7056,WL,B,13.0
5,22.37600016593933,learn,60000.0,Fri Feb 21 2025 16:42:38 GMT-0600 (Central Standard Time),657244.9000000004,A,city,O,y,218,1,814.1000000005588,656430.7999999998,7056,WL,B,13.0
5,22.594000101089478,learn,60000.0,Fri Feb 21 2025 16:42:38 GMT-0600 (Central Standard Time),657462.7000000002,A,cityenter,O,enter,201,1,1031.9000000003725,656430.7999999998,7056,WL,B,13.0
5,22.81000018119812,learn,60000.0,Fri Feb 21 2025 16:42:38 GMT-0600 (Central Standard Time),657678.7999999998,A,w,O,w,198,1,215.79999999981374,657463.0,7056,WL,B,14.0
5,22.944000005722046,learn,60000.0,Fri Feb 21 2025 16:42:38 GMT-0600 (Central Standard Time),657813.1000000006,A,wi,O,i,120,1,350.1000000005588,657463.0,7056,WL,B,14.0
5,23.093000173568726,learn,60000.0,Fri Feb 21 2025 16:42:38 GMT-0600 (Central Standard Time),657961.9000000004,A,wif,O,f,127,1,498.90000000037253,657463.0,7056,WL,B,14.0
5,23.311000108718872,learn,60000.0,Fri Feb 21 2025 16:42:38 GMT-0600 (Central Standard Time),658179.7000000002,A,wife,O,e,210,1,716.7000000001863,657463.0,7056,WL,B,14.0
5,23.55900001525879,learn,60000.0,Fri Feb 21 2025 16:42:38 GMT-0600 (Central Standard Time),658428.5,A,wifeenter,O,enter,234,1,965.5,657463.0,7056,WL,B,14.0
5,25.542999982833862,learn,60000.0,Fri Feb 21 2025 16:42:38 GMT-0600 (Central Standard Time),660412.0,A,f,O,f,1970,1,1983.2999999998137,658428.7000000002,7056,WL,B,15.0
5,25.70900011062622,learn,60000.0,Fri Feb 21 2025 16:42:38 GMT-0600 (Central Standard Time),660578.2999999998,A,fi,O,i,154,1,2149.5999999996275,658428.7000000002,7056,WL,B,15.0
5,25.79200005531311,learn,60000.0,Fri Feb 21 2025 16:42:38 GMT-0600 (Central Standard Time),660660.6000000006,A,fir,O,r,76,1,2231.9000000003725,658428.7000000002,7056,WL,B,15.0
5,25.944000005722046,learn,60000.0,Fri Feb 21 2025 16:42:38 GMT-0600 (Central Standard Time),660812.7000000002,A,fire,O,e,143,1,2384.0,658428.7000000002,7056,WL,B,15.0
5,26.14199995994568,learn,60000.0,Fri Feb 21 2025 16:42:38 GMT-0600 (Central Standard Time),661011.4000000004,A,fireenter,O,enter,177,1,2582.7000000001863,658428.7000000002,7056,WL,B,15.0
6,0.4350001811981201,distr,59564.99981880188,Fri Feb 21 2025 16:42:38 GMT-0600 (Central Standard Time),746436.1000000006,B,a,O,a,430,1,434.1000000005588,746002.0,7056,WL,B,1.0
6,0.6310000419616699,distr,59368.99995803833,Fri Feb 21 2025 16:42:38 GMT-0600 (Central Standard Time),746632.9000000004,B,ar,O,r,186,1,630.9000000003725,746002.0,7056,WL,B,1.0
6,0.8330001831054688,distr,59166.99981689453,Fri Feb 21 2025 16:42:38 GMT-0600 (Central Standard Time),746834.7999999998,B,arm,O,m,189,1,832.7999999998137,746002.0,7056,WL,B,1.0
6,1.001000165939331,distr,58998.99983406067,Fri Feb 21 2025 16:42:38 GMT-0600 (Central Standard Time),747002.4000000004,B,army,O,y,147,1,1000.4000000003725,746002.0,7056,WL,B,1.0
6,1.315000057220459,distr,58684.99994277954,Fri Feb 21 2025 16:42:38 GMT-0600 (Central Standard Time),747317.0,B,armyenter,O,enter,298,1,1315.0,746002.0,7056,WL,B,1.0
6,1.6820001602172852,distr,58317.999839782715,Fri Feb 21 2025 16:42:38 GMT-0600 (Central Standard Time),747683.7999999998,B,b,O,b,353,1,366.5,747317.2999999998,7056,WL,B,2.0
6,1.817000150680542,distr,58182.99984931946,Fri Feb 21 2025 16:42:38 GMT-0600 (Central Standard Time),747818.1000000006,B,bu,O,u,112,1,500.80000000074506,747317.2999999998,7056,WL,B,2.0
6,1.8990001678466797,distr,58100.99983215332,Fri Feb 21 2025 16:42:38 GMT-0600 (Central Standard Time),747900.6000000006,B,bui,O,i,75,1,583.3000000007451,747317.2999999998,7056,WL,B,2.0
6,2.0160000324249268,distr,57983.99996757507,Fri Feb 21 2025 16:42:38 GMT-0600 (Central Standard Time),748017.5,B,buil,O,l,94,1,700.2000000001863,747317.2999999998,7056,WL,B,2.0
6,2.1000001430511475,distr,57899.99985694885,Fri Feb 21 2025 16:42:38 GMT-0600 (Central Standard Time),748101.0,B,build,O,d,79,1,783.7000000001863,747317.2999999998,7056,WL,B,2.0
6,2.1470000743865967,distr,57852.9999256134,Fri Feb 21 2025 16:42:38 GMT-0600 (Central Standard Time),748148.7000000002,B,buildi,O,i,39,1,831.4000000003725,747317.2999999998,7056,WL,B,2.0
6,2.2980000972747803,distr,57701.99990272522,Fri Feb 21 2025 16:42:38 GMT-0600 (Central Standard Time),748299.7999999998,B,buildin,O,n,138,1,982.5,747317.2999999998,7056,WL,B,2.0
6,2.382000207901001,distr,57617.999792099,Fri Feb 21 2025 16:42:38 GMT-0600 (Central Standard Time),748383.7999999998,B,building,O,g,74,1,1066.5,747317.2999999998,7056,WL,B,2.0
6,2.5820000171661377,distr,57417.99998283386,Fri Feb 21 2025 16:42:38 GMT-0600 (Central Standard Time),748583.4000000004,B,buildingenter,O,enter,188,1,1266.1000000005588,747317.2999999998,7056,WL,B,2.0
6,2.8320000171661377,distr,57167.99998283386,Fri Feb 21 2025 16:42:38 GMT-0600 (Central Standard Time),748833.7000000002,B,f,O,f,230,1,250.0,748583.7000000002,7056,WL,B,3.0
6,3.0480000972747803,distr,56951.99990272522,Fri Feb 21 2025 16:42:38 GMT-0600 (Central Standard Time),749049.7999999998,B,fr,O,r,210,1,466.09999999962747,748583.7000000002,7056,WL,B,3.0
6,3.249000072479248,distr,56750.99992752075,Fri Feb 21 2025 16:42:38 GMT-0600 (Central Standard Time),749250.4000000004,B,fri,O,i,190,1,666.7000000001863,748583.7000000002,7056,WL,B,3.0
6,3.432000160217285,distr,56567.999839782715,Fri Feb 21 2025 16:42:38 GMT-0600 (Central Standard Time),749433.7999999998,B,frie,O,e,170,1,850.0999999996275,748583.7000000002,7056,WL,B,3.0
6,3.6490001678466797,distr,56350.99983215332,Fri Feb 21 2025 16:42:38 GMT-0600 (Central Standard Time),749650.1000000006,B,frien,O,n,205,1,1066.4000000003725,748583.7000000002,7056,WL,B,3.0
6,3.866000175476074,distr,56133.999824523926,Fri Feb 21 2025 16:42:38 GMT-0600 (Central Standard Time),749867.7999999998,B,friend,O,d,196,1,1284.0999999996275,748583.7000000002,7056,WL,B,3.0
6,4.050000190734863,distr,55949.99980926514,Fri Feb 21 2025 16:42:38 GMT-0600 (Central Standard Time),750051.4000000004,B,friendenter,O,enter,177,1,1467.7000000001863,748583.7000000002,7056,WL,B,3.0
6,4.199000120162964,distr,55800.999879837036,Fri Feb 21 2025 16:42:38 GMT-0600 (Central Standard Time),750200.4000000004,B,s,O,s,139,1,148.70000000018626,750051.7000000002,7056,WL,B,4.0
6,4.364000082015991,distr,55635.99991798401,Fri Feb 21 2025 16:42:38 GMT-0600 (Central Standard Time),750365.2000000002,B,st,O,t,157,1,313.5,750051.7000000002,7056,WL,B,4.0
6,4.549000024795532,distr,55450.99997520447,Fri Feb 21 2025 16:42:38 GMT-0600 (Central Standard Time),750550.6000000006,B,sto,O,o,168,1,498.90000000037253,750051.7000000002,7056,WL,B,4.0
6,4.666000127792358,distr,55333.99987220764,Fri Feb 21 2025 16:42:38 GMT-0600 (Central Standard Time),750667.7999999998,B,stor,O,r,111,1,616.0999999996275,750051.7000000002,7056,WL,B,4.0
6,4.916000127792358,distr,55083.99987220764,Fri Feb 21 2025 16:42:38 GMT-0600 (Central Standard Time),750917.6000000006,B,storm,O,m,233,1,865.9000000003725,750051.7000000002,7056,WL,B,4.0
6,5.330000162124634,distr,54669.999837875366,Fri Feb 21 2025 16:42:38 GMT-0600 (Central Standard Time),751331.6000000006,B,stormenter,O,enter,407,1,1279.9000000003725,750051.7000000002,7056,WL,B,4.0
6,9.563000202178955,distr,50436.999797821045,Fri Feb 21 2025 16:42:38 GMT-0600 (Central Standard Time),755564.7000000002,B,c,O,c,4220,1,4232.9000000003725,751331.7999999998,7056,WL,B,5.0
6,10.38100004196167,distr,49618.99995803833,Fri Feb 21 2025 16:42:38 GMT-0600 (Central Standard Time),756382.5,B,ca,O,a,802,1,5050.700000000186,751331.7999999998,7056,WL,B,5.0
6,11.380000114440918,distr,48619.99988555908,Fri Feb 21 2025 16:42:38 GMT-0600 (Central Standard Time),757381.4000000004,B,c,O,backspace,983,1,6049.600000000559,751331.7999999998,7056,WL,B,5.0
6,11.611999988555908,distr,48388.00001144409,Fri Feb 21 2025 16:42:38 GMT-0600 (Central Standard Time),757613.9000000004,B,ci,O,i,224,1,6282.100000000559,751331.7999999998,7056,WL,B,5.0
6,11.796000003814697,distr,48203.9999961853,Fri Feb 21 2025 16:42:38 GMT-0600 (Central Standard Time),757797.6000000006,B,cit,O,t,168,1,6465.800000000745,751331.7999999998,7056,WL,B,5.0
6,11.963000059127808,distr,48036.99994087219,Fri Feb 21 2025 16:42:38 GMT-0600 (Central Standard Time),757964.7999999998,B,city,O,y,161,1,6633.0,751331.7999999998,7056,WL,B,5.0
6,12.330000162124634,distr,47669.999837875366,Fri Feb 21 2025 16:42:38 GMT-0600 (Central Standard Time),758331.4000000004,B,cityenter,O,enter,361,1,6999.600000000559,751331.7999999998,7056,WL,B,5.0
6,60.015000104904175,distr,-15.000104904174805,Fri Feb 21 2025 16:42:38 GMT-0600 (Central Standard Time),806017.0,B,None,O,None,47680,1,47685.299999999814,758331.7000000002,7056,WL,B,6.0
7,1.5999999046325684,immed,58400.00009536743,Fri Feb 21 2025 16:42:38 GMT-0600 (Central Standard Time),830541.0,A,s,O,s,1584,1,1600.0,828941.0,7056,WL,B,1.0
7,1.8829998970031738,immed,58117.000102996826,Fri Feb 21 2025 16:42:38 GMT-0600 (Central Standard Time),830824.0,A,st,O,t,272,1,1883.0,828941.0,7056,WL,B,1.0
7,2.134000062942505,immed,57865.999937057495,Fri Feb 21 2025 16:42:38 GMT-0600 (Central Standard Time),831074.6000000006,A,str,O,r,238,1,2133.600000000559,828941.0,7056,WL,B,1.0
7,2.431999921798706,immed,57568.000078201294,Fri Feb 21 2025 16:42:38 GMT-0600 (Central Standard Time),831373.2999999998,A,stre,O,e,283,1,2432.2999999998137,828941.0,7056,WL,B,1.0
7,2.5999999046325684,immed,57400.00009536743,Fri Feb 21 2025 16:42:38 GMT-0600 (Central Standard Time),831541.1000000006,A,stree,O,e,142,1,2600.100000000559,828941.0,7056,WL,B,1.0
7,2.7839999198913574,immed,57216.00008010864,Fri Feb 21 2025 16:42:38 GMT-0600 (Central Standard Time),831724.6000000006,A,street,O,t,168,1,2783.600000000559,828941.0,7056,WL,B,1.0
7,3.1659998893737793,immed,56834.00011062622,Fri Feb 21 2025 16:42:38 GMT-0600 (Central Standard Time),832107.1000000006,A,streeta,O,a,368,1,3166.100000000559,828941.0,7056,WL,B,1.0
7,3.7829999923706055,immed,56217.000007629395,Fri Feb 21 2025 16:42:38 GMT-0600 (Central Standard Time),832723.5,A,street,O,backspace,601,1,3782.5,828941.0,7056,WL,B,1.0
7,4.099999904632568,immed,55900.00009536743,Fri Feb 21 2025 16:42:38 GMT-0600 (Central Standard Time),833040.6000000006,A,streetenter,O,enter,305,1,4099.600000000559,828941.0,7056,WL,B,1.0
7,4.432999849319458,immed,55567.00015068054,Fri Feb 21 2025 16:42:38 GMT-0600 (Central Standard Time),833373.7000000002,A,a,O,a,317,1,332.79999999981374,833040.9000000004,7056,WL,B,2.0
7,4.749000072479248,immed,55250.99992752075,Fri Feb 21 2025 16:42:38 GMT-0600 (Central Standard Time),833690.2000000002,A,ar,O,r,296,1,649.2999999998137,833040.9000000004,7056,WL,B,2.0
7,5.065000057220459,immed,54934.99994277954,Fri Feb 21 2025 16:42:38 GMT-0600 (Central Standard Time),834006.2999999998,A,arm,O,m,305,1,965.3999999994412,833040.9000000004,7056,WL,B,2.0
7,5.48199987411499,immed,54518.00012588501,Fri Feb 21 2025 16:42:38 GMT-0600 (Central Standard Time),834422.7999999998,A,armenter,O,enter,406,1,1381.8999999994412,833040.9000000004,7056,WL,B,2.0
7,5.815999984741211,immed,54184.00001525879,Fri Feb 21 2025 16:42:38 GMT-0600 (Central Standard Time),834757.5,A,d,O,d,330,1,334.59999999962747,834422.9000000004,7056,WL,B,3.0
7,5.966000080108643,immed,54033.99991989136,Fri Feb 21 2025 16:42:38 GMT-0600 (Central Standard Time),834907.2000000002,A,do,O,o,136,1,484.29999999981374,834422.9000000004,7056,WL,B,3.0
7,6.115000009536743,immed,53884.99999046326,Fri Feb 21 2025 16:42:38 GMT-0600 (Central Standard Time),835056.4000000004,A,doo,O,o,138,1,633.5,834422.9000000004,7056,WL,B,3.0
7,6.315000057220459,immed,53684.99994277954,Fri Feb 21 2025 16:42:38 GMT-0600 (Central Standard Time),835256.4000000004,A,door,O,r,189,1,833.5,834422.9000000004,7056,WL,B,3.0
7,6.496999979019165,immed,53503.000020980835,Fri Feb 21 2025 16:42:38 GMT-0600 (Central Standard Time),835437.7000000002,A,doorenter,O,enter,171,1,1014.7999999998137,834422.9000000004,7056,WL,B,3.0
7,6.948999881744385,immed,53051.000118255615,Fri Feb 21 2025 16:42:38 GMT-0600 (Central Standard Time),835889.5,A,w,O,w,440,1,451.5,835438.0,7056,WL,B,4.0
7,7.065999984741211,immed,52934.00001525879,Fri Feb 21 2025 16:42:38 GMT-0600 (Central Standard Time),836006.6000000006,A,wi,O,i,107,1,568.6000000005588,835438.0,7056,WL,B,4.0
7,7.197000026702881,immed,52802.99997329712,Fri Feb 21 2025 16:42:38 GMT-0600 (Central Standard Time),836138.4000000004,A,win,O,n,124,1,700.4000000003725,835438.0,7056,WL,B,4.0
7,7.3480000495910645,immed,52651.999950408936,Fri Feb 21 2025 16:42:38 GMT-0600 (Central Standard Time),836289.1000000006,A,wind,O,d,139,1,851.1000000005588,835438.0,7056,WL,B,4.0
7,7.648000001907349,immed,52351.99999809265,Fri Feb 21 2025 16:42:38 GMT-0600 (Central Standard Time),836589.4000000004,A,windo,O,o,283,1,1151.4000000003725,835438.0,7056,WL,B,4.0
7,7.930999994277954,immed,52069.000005722046,Fri Feb 21 2025 16:42:38 GMT-0600 (Central Standard Time),836871.7999999998,A,window,O,w,262,1,1433.7999999998137,835438.0,7056,WL,B,4.0
7,9.030999898910522,immed,50969.00010108948,Fri Feb 21 2025 16:42:38 GMT-0600 (Central Standard Time),837971.9000000004,A,windowenter,O,enter,1077,1,2533.9000000003725,835438.0,7056,WL,B,4.0
7,9.384999990463257,immed,50615.00000953674,Fri Feb 21 2025 16:42:38 GMT-0600 (Central Standard Time),838325.6000000006,A,c,O,c,332,1,353.40000000037253,837972.2000000002,7056,WL,B,5.0
7,9.447999954223633,immed,50552.00004577637,Fri Feb 21 2025 16:42:38 GMT-0600 (Central Standard Time),838389.0,A,cl,O,l,57,1,416.79999999981374,837972.2000000002,7056,WL,B,5.0
7,9.71399998664856,immed,50286.00001335144,Fri Feb 21 2025 16:42:38 GMT-0600 (Central Standard Time),838655.0,A,clo,O,o,255,1,682.7999999998137,837972.2000000002,7056,WL,B,5.0
7,9.897000074386597,immed,50102.9999256134,Fri Feb 21 2025 16:42:38 GMT-0600 (Central Standard Time),838837.9000000004,A,cloc,O,c,167,1,865.7000000001863,837972.2000000002,7056,WL,B,5.0
7,10.082000017166138,immed,49917.99998283386,Fri Feb 21 2025 16:42:38 GMT-0600 (Central Standard Time),839022.7999999998,A,clock,O,k,160,1,1050.5999999996275,837972.2000000002,7056,WL,B,5.0
7,10.313999891281128,immed,49686.00010871887,Fri Feb 21 2025 16:42:38 GMT-0600 (Central Standard Time),839254.7999999998,A,clockenter,O,enter,212,1,1282.5999999996275,837972.2000000002,7056,WL,B,5.0
7,10.598999977111816,immed,49401.00002288818,Fri Feb 21 2025 16:42:38 GMT-0600 (Central Standard Time),839539.5,A,p,O,p,279,1,284.5,839255.0,7056,WL,B,6.0
7,10.897000074386597,immed,49102.9999256134,Fri Feb 21 2025 16:42:38 GMT-0600 (Central Standard Time),839838.0,A,pi,O,i,281,1,583.0,839255.0,7056,WL,B,6.0
7,11.148000001907349,immed,48851.99999809265,Fri Feb 21 2025 16:42:38 GMT-0600 (Central Standard Time),840088.6000000006,A,pip,O,p,239,1,833.6000000005588,839255.0,7056,WL,B,6.0
7,11.480000019073486,immed,48519.999980926514,Fri Feb 21 2025 16:42:38 GMT-0600 (Central Standard Time),840420.5,A,pipe,O,e,315,1,1165.5,839255.0,7056,WL,B,6.0
7,11.69599986076355,immed,48304.00013923645,Fri Feb 21 2025 16:42:38 GMT-0600 (Central Standard Time),840637.0,A,pipeenter,O,enter,210,1,1382.0,839255.0,7056,WL,B,6.0
7,12.312999963760376,immed,47687.000036239624,Fri Feb 21 2025 16:42:38 GMT-0600 (Central Standard Time),841254.2999999998,A,p,O,p,600,1,617.0,840637.2999999998,7056,WL,B,7.0
7,12.63100004196167,immed,47368.99995803833,Fri Feb 21 2025 16:42:38 GMT-0600 (Central Standard Time),841572.2000000002,A,pu,O,u,310,1,934.9000000003725,840637.2999999998,7056,WL,B,7.0
7,12.94700002670288,immed,47052.99997329712,Fri Feb 21 2025 16:42:38 GMT-0600 (Central Standard Time),841887.7000000002,A,pup,O,p,295,1,1250.4000000003725,840637.2999999998,7056,WL,B,7.0
7,13.513000011444092,immed,46486.99998855591,Fri Feb 21 2025 16:42:38 GMT-0600 (Central Standard Time),842453.9000000004,A,pupi,O,i,547,1,1816.6000000005588,840637.2999999998,7056,WL,B,7.0
7,13.79699993133545,immed,46203.00006866455,Fri Feb 21 2025 16:42:38 GMT-0600 (Central Standard Time),842737.5,A,pupil,O,l,272,1,2100.2000000001863,840637.2999999998,7056,WL,B,7.0
7,14.213000059127808,immed,45786.99994087219,Fri Feb 21 2025 16:42:38 GMT-0600 (Central Standard Time),843153.7999999998,A,pupilenter,O,enter,395,1,2516.5,840637.2999999998,7056,WL,B,7.0
7,14.664000034332275,immed,45335.999965667725,Fri Feb 21 2025 16:42:38 GMT-0600 (Central Standard Time),843605.1000000006,A,w,O,w,446,1,451.0,843154.1000000006,7056,WL,B,8.0
7,14.829999923706055,immed,45170.000076293945,Fri Feb 21 2025 16:42:38 GMT-0600 (Central Standard Time),843770.6000000006,A,wi,O,i,152,1,616.5,843154.1000000006,7056,WL,B,8.0
7,15.078999996185303,immed,44921.0000038147,Fri Feb 21 2025 16:42:38 GMT-0600 (Central Standard Time),844020.5,A,wif,O,f,236,1,866.3999999994412,843154.1000000006,7056,WL,B,8.0
7,15.247999906539917,immed,44752.00009346008,Fri Feb 21 2025 16:42:38 GMT-0600 (Central Standard Time),844189.0,A,wife,O,e,146,1,1034.8999999994412,843154.1000000006,7056,WL,B,8.0
7,15.395999908447266,immed,44604.000091552734,Fri Feb 21 2025 16:42:38 GMT-0600 (Central Standard Time),844336.6000000006,A,wifeenter,O,enter,127,1,1182.5,843154.1000000006,7056,WL,B,8.0
7,15.644999980926514,immed,44355.000019073486,Fri Feb 21 2025 16:42:38 GMT-0600 (Central Standard Time),844585.7000000002,A,s,O,s,236,1,248.90000000037253,844336.7999999998,7056,WL,B,9.0
7,16.162999868392944,immed,43837.000131607056,Fri Feb 21 2025 16:42:38 GMT-0600 (Central Standard Time),845103.4000000004,A,,O,backspace,502,1,766.6000000005588,844336.7999999998,7056,WL,B,9.0
7,16.32800006866455,immed,43671.99993133545,Fri Feb 21 2025 16:42:38 GMT-0600 (Central Standard Time),845269.4000000004,A,c,O,c,159,1,932.6000000005588,844336.7999999998,7056,WL,B,9.0
7,16.447999954223633,immed,43552.00004577637,Fri Feb 21 2025 16:42:38 GMT-0600 (Central Standard Time),845389.0,A,ci,O,i,103,1,1052.2000000001863,844336.7999999998,7056,WL,B,9.0
7,16.662999868392944,immed,43337.000131607056,Fri Feb 21 2025 16:42:38 GMT-0600 (Central Standard Time),845603.5,A,cit,O,t,191,1,1266.7000000001863,844336.7999999998,7056,WL,B,9.0
7,16.87999987602234,immed,43120.00012397766,Fri Feb 21 2025 16:42:38 GMT-0600 (Central Standard Time),845820.7000000002,A,city,O,y,201,1,1483.9000000003725,844336.7999999998,7056,WL,B,9.0
7,17.128999948501587,immed,42871.00005149841,Fri Feb 21 2025 16:42:38 GMT-0600 (Central Standard Time),846069.7000000002,A,cityenter,O,enter,242,1,1732.9000000003725,844336.7999999998,7056,WL,B,9.0
7,18.02900004386902,immed,41970.99995613098,Fri Feb 21 2025 16:42:38 GMT-0600 (Central Standard Time),846969.6000000006,A,a,O,a,879,1,899.6000000005588,846070.0,7056,WL,B,10.0
7,18.210999965667725,immed,41789.000034332275,Fri Feb 21 2025 16:42:38 GMT-0600 (Central Standard Time),847152.0,A,ar,O,r,163,1,1082.0,846070.0,7056,WL,B,10.0
7,18.42899990081787,immed,41571.00009918213,Fri Feb 21 2025 16:42:38 GMT-0600 (Central Standard Time),847369.6000000006,A,are,O,e,195,1,1299.6000000005588,846070.0,7056,WL,B,10.0
7,18.861999988555908,immed,41138.00001144409,Fri Feb 21 2025 16:42:38 GMT-0600 (Central Standard Time),847803.1000000006,A,arem,O,m,427,1,1733.1000000005588,846070.0,7056,WL,B,10.0
7,19.312999963760376,immed,40687.000036239624,Fri Feb 21 2025 16:42:38 GMT-0600 (Central Standard Time),848253.7999999998,A,are,O,backspace,444,1,2183.7999999998137,846070.0,7056,WL,B,10.0
7,19.477999925613403,immed,40522.0000743866,Fri Feb 21 2025 16:42:38 GMT-0600 (Central Standard Time),848418.9000000004,A,ar,O,backspace,158,1,2348.9000000003725,846070.0,7056,WL,B,10.0
7,19.711999893188477,immed,40288.00010681152,Fri Feb 21 2025 16:42:38 GMT-0600 (Central Standard Time),848652.6000000006,A,arm,O,m,226,1,2582.600000000559,846070.0,7056,WL,B,10.0
7,20.05999994277954,immed,39940.00005722046,Fri Feb 21 2025 16:42:38 GMT-0600 (Central Standard Time),849001.2999999998,A,armenter,O,enter,327,1,2931.2999999998137,846070.0,7056,WL,B,10.0
7,20.777999877929688,immed,39222.00012207031,Fri Feb 21 2025 16:42:38 GMT-0600 (Central Standard Time),849718.9000000004,A,s,O,s,696,1,717.4000000003725,849001.5,7056,WL,B,11.0
7,20.977999925613403,immed,39022.0000743866,Fri Feb 21 2025 16:42:38 GMT-0600 (Central Standard Time),849919.2000000002,A,sk,O,k,177,1,917.7000000001863,849001.5,7056,WL,B,11.0
7,21.16100001335144,immed,38838.99998664856,Fri Feb 21 2025 16:42:38 GMT-0600 (Central Standard Time),850101.7999999998,A,ski,O,i,166,1,1100.2999999998137,849001.5,7056,WL,B,11.0
7,21.361000061035156,immed,38638.999938964844,Fri Feb 21 2025 16:42:38 GMT-0600 (Central Standard Time),850301.7000000002,A,skin,O,n,183,1,1300.2000000001863,849001.5,7056,WL,B,11.0
7,21.74399995803833,immed,38256.00004196167,Fri Feb 21 2025 16:42:38 GMT-0600 (Central Standard Time),850684.7000000002,A,skinenter,O,enter,378,1,1683.2000000001863,849001.5,7056,WL,B,11.0
7,24.744999885559082,immed,35255.00011444092,Fri Feb 21 2025 16:42:38 GMT-0600 (Central Standard Time),853685.7999999998,A,f,O,f,2984,1,3000.899999999441,850684.9000000004,7056,WL,B,12.0
7,24.90999984741211,immed,35090.00015258789,Fri Feb 21 2025 16:42:38 GMT-0600 (Central Standard Time),853850.5,A,fi,O,i,153,1,3165.5999999996275,850684.9000000004,7056,WL,B,12.0
7,25.026000022888184,immed,34973.99997711182,Fri Feb 21 2025 16:42:38 GMT-0600 (Central Standard Time),853966.7999999998,A,fir,O,r,107,1,3281.899999999441,850684.9000000004,7056,WL,B,12.0
7,25.210999965667725,immed,34789.000034332275,Fri Feb 21 2025 16:42:38 GMT-0600 (Central Standard Time),854151.7999999998,A,fire,O,e,179,1,3466.899999999441,850684.9000000004,7056,WL,B,12.0
7,25.40999984741211,immed,34590.00015258789,Fri Feb 21 2025 16:42:38 GMT-0600 (Central Standard Time),854350.7999999998,A,fireenter,O,enter,192,1,3665.899999999441,850684.9000000004,7056,WL,B,12.0
7,31.389999866485596,immed,28610.000133514404,Fri Feb 21 2025 16:42:38 GMT-0600 (Central Standard Time),860331.0,A,p,O,p,5967,1,5979.899999999441,854351.1000000006,7056,WL,B,13.0
7,31.674000024795532,immed,28325.999975204468,Fri Feb 21 2025 16:42:38 GMT-0600 (Central Standard Time),860614.7000000002,A,pi,O,i,275,1,6263.5999999996275,854351.1000000006,7056,WL,B,13.0
7,31.889999866485596,immed,28110.000133514404,Fri Feb 21 2025 16:42:38 GMT-0600 (Central Standard Time),860830.7000000002,A,pip,O,p,206,1,6479.5999999996275,854351.1000000006,7056,WL,B,13.0
7,32.39100003242493,immed,27608.999967575073,Fri Feb 21 2025 16:42:38 GMT-0600 (Central Standard Time),861331.9000000004,A,pipe,O,e,486,1,6980.799999999814,854351.1000000006,7056,WL,B,13.0
7,32.75699996948242,immed,27243.000030517578,Fri Feb 21 2025 16:42:38 GMT-0600 (Central Standard Time),861698.1000000006,A,pipeenter,O,enter,353,1,7347.0,854351.1000000006,7056,WL,B,13.0
7,38.45599985122681,immed,21544.000148773193,Fri Feb 21 2025 16:42:38 GMT-0600 (Central Standard Time),867397.2999999998,A,s,O,s,5694,1,5698.899999999441,861698.4000000004,7056,WL,B,14.0
7,38.704999923706055,immed,21295.000076293945,Fri Feb 21 2025 16:42:38 GMT-0600 (Central Standard Time),867645.7999999998,A,st,O,t,232,1,5947.399999999441,861698.4000000004,7056,WL,B,14.0
7,38.94000005722046,immed,21059.99994277954,Fri Feb 21 2025 16:42:38 GMT-0600 (Central Standard Time),867880.5,A,sta,O,a,214,1,6182.0999999996275,861698.4000000004,7056,WL,B,14.0
7,39.33899998664856,immed,20661.00001335144,Fri Feb 21 2025 16:42:38 GMT-0600 (Central Standard Time),868279.6000000006,A,stat,O,t,389,1,6581.200000000186,861698.4000000004,7056,WL,B,14.0
7,40.0220000743866,immed,19977.999925613403,Fri Feb 21 2025 16:42:38 GMT-0600 (Central Standard Time),868962.7000000002,A,sta,O,backspace,671,1,7264.299999999814,861698.4000000004,7056,WL,B,14.0
7,40.270999908447266,immed,19729.000091552734,Fri Feb 21 2025 16:42:38 GMT-0600 (Central Standard Time),869212.2000000002,A,star,O,r,234,1,7513.799999999814,861698.4000000004,7056,WL,B,14.0
7,40.73699998855591,immed,19263.00001144409,Fri Feb 21 2025 16:42:38 GMT-0600 (Central Standard Time),869678.2999999998,A,starenter,O,enter,457,1,7979.899999999441,861698.4000000004,7056,WL,B,14.0
7,43.4539999961853,immed,16546.000003814697,Fri Feb 21 2025 16:42:38 GMT-0600 (Central Standard Time),872394.7000000002,A,s,O,s,2697,1,2716.2000000001863,869678.5,7056,WL,B,15.0
7,43.585999965667725,immed,16414.000034332275,Fri Feb 21 2025 16:42:38 GMT-0600 (Central Standard Time),872527.2000000002,A,sk,O,k,114,1,2848.7000000001863,869678.5,7056,WL,B,15.0
7,43.78600001335144,immed,16213.99998664856,Fri Feb 21 2025 16:42:38 GMT-0600 (Central Standard Time),872727.4000000004,A,ski,O,i,190,1,3048.9000000003725,869678.5,7056,WL,B,15.0
7,43.97000002861023,immed,16029.99997138977,Fri Feb 21 2025 16:42:38 GMT-0600 (Central Standard Time),872910.6000000006,A,skin,O,n,166,1,3232.100000000559,869678.5,7056,WL,B,15.0
7,44.251999855041504,immed,15748.000144958496,Fri Feb 21 2025 16:42:38 GMT-0600 (Central Standard Time),873192.7999999998,A,skinenter,O,enter,271,1,3514.2999999998137,869678.5,7056,WL,B,15.0
