acc_sum,block_c,block_dur,condition,correct,correct_response,countdown,datetime,endtime,project,response,response_time,response_time_test1_response,response_time_test2_response,row_sel,same,session_number,start_end,starttime,stim1,stim2,subject_id,task,task_vers,time_test1,time_test2,trial
1,1,0.0,prac,1,m,30000.0,Wed Apr 23 2025 16:22:16 GMT-0500 (Central Daylight Time),29499.599999999627,I,m,1778,,,3,no,3,3308.800000000745,26190.799999998882,QHZXPC,QHZWPC,8008,LC,B,,,1
2,1,0.0,prac,1,m,30000.0,Wed Apr 23 2025 16:22:16 GMT-0500 (Central Daylight Time),32965.09999999963,I,m,1935,,,5,no,3,3458.4000000003725,29506.699999999255,LNDPRSKQB,LNDPRSJQB,8008,LC,B,,,2
3,1,0.0,prac,1,z,30000.0,Wed Apr 23 2025 16:22:16 GMT-0500 (Central Daylight Time),36230.199999999255,I,z,1735,,,4,yes,3,3260.0999999996275,32970.09999999963,RSM,RSM,8008,LC,B,,,3
3,1,0.0,prac,0,z,30000.0,Wed Apr 23 2025 16:22:16 GMT-0500 (Central Daylight Time),41046.0,I,m,3286,,,2,yes,3,4810.300000000745,36235.699999999255,NBGFSM,NBGFSM,8008,LC,B,,,4
4,1,0.0,prac,1,m,30000.0,Wed Apr 23 2025 16:22:16 GMT-0500 (Central Daylight Time),43711.59999999963,I,m,1127,,,1,no,3,2659.800000000745,41051.79999999888,RNV,FNV,8008,LC,B,,,5
5,1,0.0,prac,1,z,30000.0,Wed Apr 23 2025 16:22:16 GMT-0500 (Central Daylight Time),48626.39999999851,I,z,3380,,,6,yes,3,4909.39999999851,43717.0,CSDBFPHXZ,CSDBFPHXZ,8008,LC,B,,,6
1,1,1.502000093460083,test,1,m,28497.999906539917,Wed Apr 23 2025 16:22:16 GMT-0500 (Central Daylight Time),55492.59999999963,I,m,1487,1487,,1,no,3,1497.5999999996275,53995.0,HCF,RCF,8008,LC,B,52008,,1
2,1,3.952000141143799,test,1,m,26047.9998588562,Wed Apr 23 2025 16:22:16 GMT-0500 (Central Daylight Time),57942.59999999963,I,m,2426,2426,,2,no,3,2444.800000000745,55497.79999999888,QTPRJX,QTPNJX,8008,LC,B,53511,,2
3,1,6.332000017166138,test,1,m,23667.999982833862,Wed Apr 23 2025 16:22:16 GMT-0500 (Central Daylight Time),60322.59999999963,I,m,2366,2366,,3,no,3,2375.7000000011176,57946.89999999851,MZDYGVGKQ,MZDYGLBKQ,8008,LC,B,55960,,3
4,1,7.896000146865845,test,1,m,22103.999853134155,Wed Apr 23 2025 16:22:16 GMT-0500 (Central Daylight Time),61887.09999999963,I,m,1545,1545,,4,no,3,1559.7000000011176,60327.39999999851,FQTNMK,JQTNMK,8008,LC,B,58340,,4
5,1,9.348999977111816,test,1,z,20651.000022888184,Wed Apr 23 2025 16:22:16 GMT-0500 (Central Daylight Time),63339.199999999255,I,z,1436,1436,,5,yes,3,1446.800000000745,61892.39999999851,CLJ,CLJ,8008,LC,B,59906,,5
5,1,13.894999980926514,test,0,m,16105.000019073486,Wed Apr 23 2025 16:22:16 GMT-0500 (Central Daylight Time),67885.39999999851,I,z,4539,4539,,6,no,3,4543.0,63342.39999999851,JGDMNSVPW,JGZMNSVPW,8008,LC,B,61355,,6
6,1,17.427000045776367,test,1,z,12572.999954223633,Wed Apr 23 2025 16:22:16 GMT-0500 (Central Daylight Time),71417.69999999925,I,z,3512,3512,,7,yes,3,3528.5999999996275,67889.09999999963,FPTVHKCBJ,FPTVHKCBJ,8008,LC,B,65902,,7
7,1,19.594000101089478,test,1,m,10405.999898910522,Wed Apr 23 2025 16:22:16 GMT-0500 (Central Daylight Time),73584.69999999925,I,m,2156,2156,,8,no,3,2162.4000000003725,71422.29999999888,XRPZBS,ZRPBDH,8008,LC,B,69435,,8
8,1,20.943000078201294,test,1,m,9056.999921798706,Wed Apr 23 2025 16:22:16 GMT-0500 (Central Daylight Time),74933.69999999925,I,m,1341,1341,,9,no,3,1345.4000000003725,73588.29999999888,ZSQ,ZSP,8008,LC,B,71601,,9
9,1,23.110000133514404,test,1,z,6889.999866485596,Wed Apr 23 2025 16:22:16 GMT-0500 (Central Daylight Time),77100.69999999925,I,z,2147,2147,,10,yes,3,2162.800000000745,74937.89999999851,MPZRXL,MPZRXL,8008,LC,B,72950,,10
10,1,24.358999967575073,test,1,m,5641.000032424927,Wed Apr 23 2025 16:22:16 GMT-0500 (Central Daylight Time),78349.79999999888,I,m,1233,1233,,11,no,3,1245.5,77104.29999999888,KJH,KRH,8008,LC,B,75117,,11
10,1,27.99399995803833,test,0,z,2006.00004196167,Wed Apr 23 2025 16:22:16 GMT-0500 (Central Daylight Time),81984.39999999851,I,m,3616,3616,,12,yes,3,3630.5999999996275,78353.79999999888,SMNHVTFCB,SMNHVTFCB,8008,LC,B,76366,,12
10,1,30.008000135421753,test,0,z,-8.00013542175293,Wed Apr 23 2025 16:22:16 GMT-0500 (Central Daylight Time),83998.69999999925,I,None,2011,2011,,13,yes,3,2011.300000000745,81987.39999999851,KJWTQF,KJWTQF,8008,LC,B,80000,,13
1,2,3.934000015258789,test,1,z,26065.99998474121,Wed Apr 23 2025 16:22:16 GMT-0500 (Central Daylight Time),90147.59999999963,I,z,3919,,3919.0,1,yes,3,8160.200000001118,81987.39999999851,PRDBZTYFN,PRDBZTYFN,8008,LC,B,,84231.0,1
2,2,6.997999906539917,test,1,m,23002.000093460083,Wed Apr 23 2025 16:22:16 GMT-0500 (Central Daylight Time),93212.0,I,m,3050,,3050.0,2,no,3,11224.60000000149,81987.39999999851,NCWJDZ,NCMJDZ,8008,LC,B,,88164.0,2
3,2,8.265000104904175,test,1,m,21734.999895095825,Wed Apr 23 2025 16:22:16 GMT-0500 (Central Daylight Time),94479.09999999963,I,m,1259,,1259.0,3,no,3,12491.700000001118,81987.39999999851,KHW,KBW,8008,LC,B,,91227.0,3
4,2,11.312999963760376,test,1,m,18687.000036239624,Wed Apr 23 2025 16:22:16 GMT-0500 (Central Daylight Time),97526.39999999851,I,m,3039,,3039.0,4,no,3,15539.0,81987.39999999851,ZRBGMF,ZRBCMF,8008,LC,B,,92495.0,4
5,2,12.430000066757202,test,1,m,17569.999933242798,Wed Apr 23 2025 16:22:16 GMT-0500 (Central Daylight Time),98643.79999999888,I,m,1105,,1105.0,5,no,3,16656.400000000373,81987.39999999851,BTH,BYH,8008,LC,B,,95541.0,5
6,2,17.661999940872192,test,1,z,12338.000059127808,Wed Apr 23 2025 16:22:16 GMT-0500 (Central Daylight Time),103875.19999999925,I,z,5211,,5211.0,6,yes,3,21887.800000000745,81987.39999999851,XWKQRYCNZ,XWKQRYCNZ,8008,LC,B,,96661.0,6
7,2,21.259999990463257,test,1,z,8740.000009536743,Wed Apr 23 2025 16:22:16 GMT-0500 (Central Daylight Time),107473.79999999888,I,z,3577,,3577.0,7,yes,3,25486.400000000373,81987.39999999851,HNPDLK,HNPDLK,8008,LC,B,,101892.0,7
7,2,25.342999935150146,test,0,m,4657.0000648498535,Wed Apr 23 2025 16:22:16 GMT-0500 (Central Daylight Time),111556.19999999925,I,z,4068,,4068.0,8,no,3,29568.800000000745,81987.39999999851,WMQTRSGLZ,WMQTRZGLZ,8008,LC,B,,105490.0,8
8,2,26.509000062942505,test,1,z,3490.999937057495,Wed Apr 23 2025 16:22:16 GMT-0500 (Central Daylight Time),112722.19999999925,I,z,1154,,1154.0,9,yes,3,30734.800000000745,81987.39999999851,JPN,JPN,8008,LC,B,,109572.0,9
9,2,28.80900001525879,test,1,m,1190.999984741211,Wed Apr 23 2025 16:22:16 GMT-0500 (Central Daylight Time),115022.89999999851,I,m,2296,,2296.0,10,no,3,33035.5,81987.39999999851,QLXSVT,QLNSVT,8008,LC,B,,110738.0,10
9,2,30.009999990463257,test,0,z,-9.999990463256836,Wed Apr 23 2025 16:22:16 GMT-0500 (Central Daylight Time),116223.19999999925,I,None,1195,,1195.0,11,yes,3,34235.800000000745,81987.39999999851,YXHKZVFPB,YXHKZVFPD,8008,LC,B,,113040.0,11
