block_c,block_dur,condition,countdown,datetime,endtime,list,multichar_response,project,response,response_time,session_number,start_end,starttime,subject_id,task,task_vers,trial
,,,,Mon Mar 24 2025 10:30:19 GMT-0500 (Central Daylight Time),,,,I,space,281,1,,,8036,WL,A,
prac,,0,,Mon Mar 24 2025 10:30:19 GMT-0500 (Central Daylight Time),,NA,b,I,b,10447,1,,,8036,WL,A,1.0
prac,,0,,Mon Mar 24 2025 10:30:19 GMT-0500 (Central Daylight Time),,NA,bo,I,o,687,1,,,8036,WL,A,1.0
prac,,0,,Mon Mar 24 2025 10:30:19 GMT-0500 (Central Daylight Time),,NA,boo,I,o,171,1,,,8036,WL,A,1.0
prac,,0,,Mon Mar 24 2025 10:30:19 GMT-0500 (Central Daylight Time),,NA,boos,I,s,104,1,,,8036,WL,A,1.0
prac,,0,,Mon Mar 24 2025 10:30:19 GMT-0500 (Central Daylight Time),,NA,boost,I,t,332,1,,,8036,WL,A,1.0
prac,,0,,Mon Mar 24 2025 10:30:19 GMT-0500 (Central Daylight Time),,NA,boostenter,I,enter,2110,1,,,8036,WL,A,1.0
1,6.0309998989105225,learn,53969.00010108948,Mon Mar 24 2025 10:30:19 GMT-0500 (Central Daylight Time),147626.2999999998,A,r,I,r,6018,1,6031.299999999814,141595.0,8036,WL,A,1.0
1,6.2809998989105225,learn,53719.00010108948,Mon Mar 24 2025 10:30:19 GMT-0500 (Central Daylight Time),147876.19999999925,A,ru,I,u,233,1,6281.199999999255,141595.0,8036,WL,A,1.0
1,6.513999938964844,learn,53486.000061035156,Mon Mar 24 2025 10:30:19 GMT-0500 (Central Daylight Time),148109.2999999998,A,rug,I,g,216,1,6514.299999999814,141595.0,8036,WL,A,1.0
1,11.02999997138977,learn,48970.00002861023,Mon Mar 24 2025 10:30:19 GMT-0500 (Central Daylight Time),152624.69999999925,A,rugenter,I,enter,4495,1,11029.699999999255,141595.0,8036,WL,A,1.0
1,19.65999984741211,learn,40340.00015258789,Mon Mar 24 2025 10:30:19 GMT-0500 (Central Daylight Time),161255.19999999925,A,r,I,r,8619,1,8630.0,152625.19999999925,8036,WL,A,2.0
1,21.792999982833862,learn,38207.00001716614,Mon Mar 24 2025 10:30:19 GMT-0500 (Central Daylight Time),163387.7999999998,A,,I,backspace,2117,1,10762.600000000559,152625.19999999925,8036,WL,A,2.0
1,22.14299988746643,learn,37857.00011253357,Mon Mar 24 2025 10:30:19 GMT-0500 (Central Daylight Time),163737.7999999998,A,,I,backspace,336,1,11112.600000000559,152625.19999999925,8036,WL,A,2.0
1,30.9229998588562,learn,29077.0001411438,Mon Mar 24 2025 10:30:19 GMT-0500 (Central Daylight Time),172518.2999999998,A,h,I,h,8770,1,19893.10000000056,152625.19999999925,8036,WL,A,2.0
1,31.138999938964844,learn,28861.000061035156,Mon Mar 24 2025 10:30:19 GMT-0500 (Central Daylight Time),172734.89999999944,A,ha,I,a,206,1,20109.700000000186,152625.19999999925,8036,WL,A,2.0
1,31.454999923706055,learn,28545.000076293945,Mon Mar 24 2025 10:30:19 GMT-0500 (Central Daylight Time),173051.59999999963,A,har,I,r,302,1,20426.400000000373,152625.19999999925,8036,WL,A,2.0
1,31.83899998664856,learn,28161.00001335144,Mon Mar 24 2025 10:30:19 GMT-0500 (Central Daylight Time),173434.7999999998,A,harp,I,p,369,1,20809.60000000056,152625.19999999925,8036,WL,A,2.0
1,33.80499982833862,learn,26195.000171661377,Mon Mar 24 2025 10:30:19 GMT-0500 (Central Daylight Time),175401.0,A,harpenter,I,enter,1946,1,22775.800000000745,152625.19999999925,8036,WL,A,2.0
1,41.20199990272522,learn,18798.00009727478,Mon Mar 24 2025 10:30:19 GMT-0500 (Central Daylight Time),182798.40000000037,A,f,I,f,7379,1,7397.000000000931,175401.39999999944,8036,WL,A,3.0
1,41.4689998626709,learn,18531.0001373291,Mon Mar 24 2025 10:30:19 GMT-0500 (Central Daylight Time),183065.0,A,fl,I,l,245,1,7663.600000000559,175401.39999999944,8036,WL,A,3.0
1,41.7189998626709,learn,18281.0001373291,Mon Mar 24 2025 10:30:19 GMT-0500 (Central Daylight Time),183314.69999999925,A,flo,I,o,244,1,7913.299999999814,175401.39999999944,8036,WL,A,3.0
1,41.918999910354614,learn,18081.000089645386,Mon Mar 24 2025 10:30:19 GMT-0500 (Central Daylight Time),183514.79999999888,A,flow,I,w,194,1,8113.399999999441,175401.39999999944,8036,WL,A,3.0
1,42.15299987792969,learn,17847.000122070312,Mon Mar 24 2025 10:30:19 GMT-0500 (Central Daylight Time),183749.40000000037,A,flowe,I,e,226,1,8348.000000000931,175401.39999999944,8036,WL,A,3.0
1,42.39800000190735,learn,17601.99999809265,Mon Mar 24 2025 10:30:19 GMT-0500 (Central Daylight Time),183994.0,A,flower,I,r,239,1,8592.600000000559,175401.39999999944,8036,WL,A,3.0
1,43.651999950408936,learn,16348.000049591064,Mon Mar 24 2025 10:30:19 GMT-0500 (Central Daylight Time),185247.90000000037,A,flowerenter,I,enter,1242,1,9846.500000000931,175401.39999999944,8036,WL,A,3.0
1,57.71399998664856,learn,2286.0000133514404,Mon Mar 24 2025 10:30:19 GMT-0500 (Central Daylight Time),199309.90000000037,A,c,I,c,14045,1,14061.5,185248.40000000037,8036,WL,A,4.0
1,57.94700002670288,learn,2052.999973297119,Mon Mar 24 2025 10:30:19 GMT-0500 (Central Daylight Time),199543.29999999888,A,ch,I,h,214,1,14294.89999999851,185248.40000000037,8036,WL,A,4.0
1,58.996999979019165,learn,1003.000020980835,Mon Mar 24 2025 10:30:19 GMT-0500 (Central Daylight Time),200592.90000000037,A,chi,I,i,1030,1,15344.5,185248.40000000037,8036,WL,A,4.0
1,59.36299991607666,learn,637.0000839233398,Mon Mar 24 2025 10:30:19 GMT-0500 (Central Daylight Time),200959.5,A,chim,I,m,356,1,15711.099999999627,185248.40000000037,8036,WL,A,4.0
1,59.71299982070923,learn,287.0001792907715,Mon Mar 24 2025 10:30:19 GMT-0500 (Central Daylight Time),201309.40000000037,A,chimn,I,n,342,1,16061.0,185248.40000000037,8036,WL,A,4.0
1,60.01300001144409,learn,-13.000011444091797,Mon Mar 24 2025 10:30:19 GMT-0500 (Central Daylight Time),201609.40000000037,A,chimnNone,I,None,295,1,16361.0,185248.40000000037,8036,WL,A,4.0
2,1.5329999923706055,learn,58467.000007629395,Mon Mar 24 2025 10:30:19 GMT-0500 (Central Daylight Time),270087.9000000004,A,b,I,b,1522,1,1532.7000000011176,268555.19999999925,8036,WL,A,1.0
2,2.0989999771118164,learn,57901.00002288818,Mon Mar 24 2025 10:30:19 GMT-0500 (Central Daylight Time),270654.4000000004,A,bo,I,o,556,1,2099.2000000011176,268555.19999999925,8036,WL,A,1.0
2,2.2660000324249268,learn,57733.99996757507,Mon Mar 24 2025 10:30:19 GMT-0500 (Central Daylight Time),270821.0,A,boo,I,o,159,1,2265.800000000745,268555.19999999925,8036,WL,A,1.0
2,2.5160000324249268,learn,57483.99996757507,Mon Mar 24 2025 10:30:19 GMT-0500 (Central Daylight Time),271071.0,A,book,I,k,240,1,2515.800000000745,268555.19999999925,8036,WL,A,1.0
2,3.131999969482422,learn,56868.00003051758,Mon Mar 24 2025 10:30:19 GMT-0500 (Central Daylight Time),271687.4000000004,A,bookf,I,f,598,1,3132.2000000011176,268555.19999999925,8036,WL,A,1.0
2,3.2990000247955322,learn,56700.99997520447,Mon Mar 24 2025 10:30:19 GMT-0500 (Central Daylight Time),271854.19999999925,A,bookfl,I,l,157,1,3299.0,268555.19999999925,8036,WL,A,1.0
2,3.5989999771118164,learn,56401.00002288818,Mon Mar 24 2025 10:30:19 GMT-0500 (Central Daylight Time),272154.0999999996,A,bookflo,I,o,279,1,3598.9000000003725,268555.19999999925,8036,WL,A,1.0
2,3.8980000019073486,learn,56101.99999809265,Mon Mar 24 2025 10:30:19 GMT-0500 (Central Daylight Time),272453.7999999989,A,bookflow,I,w,290,1,3898.5999999996275,268555.19999999925,8036,WL,A,1.0
2,4.148999929428101,learn,55851.0000705719,Mon Mar 24 2025 10:30:19 GMT-0500 (Central Daylight Time),272704.19999999925,A,bookflowe,I,e,230,1,4149.0,268555.19999999925,8036,WL,A,1.0
2,4.430999994277954,learn,55569.000005722046,Mon Mar 24 2025 10:30:19 GMT-0500 (Central Daylight Time),272986.69999999925,A,bookflower,I,r,277,1,4431.5,268555.19999999925,8036,WL,A,1.0
2,5.547999858856201,learn,54452.0001411438,Mon Mar 24 2025 10:30:19 GMT-0500 (Central Daylight Time),274103.19999999925,A,bookflowe,I,backspace,1099,1,5548.0,268555.19999999925,8036,WL,A,1.0
2,5.764999866485596,learn,54235.000133514404,Mon Mar 24 2025 10:30:19 GMT-0500 (Central Daylight Time),274319.7999999989,A,bookflow,I,backspace,205,1,5764.5999999996275,268555.19999999925,8036,WL,A,1.0
2,5.947999954223633,learn,54052.00004577637,Mon Mar 24 2025 10:30:19 GMT-0500 (Central Daylight Time),274503.0999999996,A,bookflo,I,backspace,173,1,5947.9000000003725,268555.19999999925,8036,WL,A,1.0
2,6.115000009536743,learn,53884.99999046326,Mon Mar 24 2025 10:30:19 GMT-0500 (Central Daylight Time),274670.0,A,bookfl,I,backspace,158,1,6114.800000000745,268555.19999999925,8036,WL,A,1.0
2,6.264999866485596,learn,53735.000133514404,Mon Mar 24 2025 10:30:19 GMT-0500 (Central Daylight Time),274819.7999999989,A,bookf,I,backspace,135,1,6264.5999999996275,268555.19999999925,8036,WL,A,1.0
2,6.46399998664856,learn,53536.00001335144,Mon Mar 24 2025 10:30:19 GMT-0500 (Central Daylight Time),275019.7999999989,A,book,I,backspace,185,1,6464.5999999996275,268555.19999999925,8036,WL,A,1.0
2,7.546999931335449,learn,52453.00006866455,Mon Mar 24 2025 10:30:19 GMT-0500 (Central Daylight Time),276102.7999999989,A,bookenter,I,enter,1073,1,7547.5999999996275,268555.19999999925,8036,WL,A,1.0
2,8.379999876022339,learn,51620.00012397766,Mon Mar 24 2025 10:30:19 GMT-0500 (Central Daylight Time),276935.9000000004,A,f,I,f,822,1,832.7000000011176,276103.19999999925,8036,WL,A,2.0
2,8.629999876022339,learn,51370.00012397766,Mon Mar 24 2025 10:30:19 GMT-0500 (Central Daylight Time),277185.69999999925,A,fl,I,l,237,1,1082.5,276103.19999999925,8036,WL,A,2.0
2,8.879999876022339,learn,51120.00012397766,Mon Mar 24 2025 10:30:19 GMT-0500 (Central Daylight Time),277435.69999999925,A,flo,I,o,243,1,1332.5,276103.19999999925,8036,WL,A,2.0
2,9.114000082015991,learn,50885.99991798401,Mon Mar 24 2025 10:30:19 GMT-0500 (Central Daylight Time),277668.9000000004,A,flow,I,w,218,1,1565.7000000011176,276103.19999999925,8036,WL,A,2.0
2,9.379999876022339,learn,50620.00012397766,Mon Mar 24 2025 10:30:19 GMT-0500 (Central Daylight Time),277935.5,A,flowe,I,e,248,1,1832.300000000745,276103.19999999925,8036,WL,A,2.0
2,9.70799994468689,learn,50292.00005531311,Mon Mar 24 2025 10:30:19 GMT-0500 (Central Daylight Time),278263.2999999989,A,flower,I,r,307,1,2160.0999999996275,276103.19999999925,8036,WL,A,2.0
2,10.496000051498413,learn,49503.99994850159,Mon Mar 24 2025 10:30:19 GMT-0500 (Central Daylight Time),279051.7999999989,A,flowerenter,I,enter,773,1,2948.5999999996275,276103.19999999925,8036,WL,A,2.0
2,11.129999876022339,learn,48870.00012397766,Mon Mar 24 2025 10:30:19 GMT-0500 (Central Daylight Time),279685.0,A,t,I,t,617,1,632.8000000007451,279052.19999999925,8036,WL,A,3.0
2,11.36299991607666,learn,48637.00008392334,Mon Mar 24 2025 10:30:19 GMT-0500 (Central Daylight Time),279918.5,A,tr,I,r,224,1,866.3000000007451,279052.19999999925,8036,WL,A,3.0
2,11.713000059127808,learn,48286.99994087219,Mon Mar 24 2025 10:30:19 GMT-0500 (Central Daylight Time),280268.0,A,tra,I,a,335,1,1215.800000000745,279052.19999999925,8036,WL,A,3.0
2,11.878999948501587,learn,48121.00005149841,Mon Mar 24 2025 10:30:19 GMT-0500 (Central Daylight Time),280434.5999999996,A,trai,I,i,161,1,1382.4000000003725,279052.19999999925,8036,WL,A,3.0
2,12.145999908447266,learn,47854.000091552734,Mon Mar 24 2025 10:30:19 GMT-0500 (Central Daylight Time),280701.19999999925,A,train,I,n,251,1,1649.0,279052.19999999925,8036,WL,A,3.0
2,13.394999980926514,learn,46605.000019073486,Mon Mar 24 2025 10:30:19 GMT-0500 (Central Daylight Time),281950.7999999989,A,trainenter,I,enter,1232,1,2898.5999999996275,279052.19999999925,8036,WL,A,3.0
2,14.045000076293945,learn,45954.999923706055,Mon Mar 24 2025 10:30:19 GMT-0500 (Central Daylight Time),282600.5,A,r,I,r,639,1,649.5,281951.0,8036,WL,A,4.0
2,14.477999925613403,learn,45522.0000743866,Mon Mar 24 2025 10:30:19 GMT-0500 (Central Daylight Time),283033.7999999989,A,ru,I,u,421,1,1082.7999999988824,281951.0,8036,WL,A,4.0
2,14.795000076293945,learn,45204.999923706055,Mon Mar 24 2025 10:30:19 GMT-0500 (Central Daylight Time),283350.2999999989,A,rug,I,g,299,1,1399.2999999988824,281951.0,8036,WL,A,4.0
2,16.24399995803833,learn,43756.00004196167,Mon Mar 24 2025 10:30:19 GMT-0500 (Central Daylight Time),284799.69999999925,A,rugenter,I,enter,1431,1,2848.699999999255,281951.0,8036,WL,A,4.0
2,19.776999950408936,learn,40223.000049591064,Mon Mar 24 2025 10:30:19 GMT-0500 (Central Daylight Time),288332.4000000004,A,c,I,c,3525,1,3532.300000000745,284800.0999999996,8036,WL,A,5.0
2,20.026999950408936,learn,39973.000049591064,Mon Mar 24 2025 10:30:19 GMT-0500 (Central Daylight Time),288582.0999999996,A,ch,I,h,240,1,3782.0,284800.0999999996,8036,WL,A,5.0
2,20.41000008583069,learn,39589.99991416931,Mon Mar 24 2025 10:30:19 GMT-0500 (Central Daylight Time),288965.2999999989,A,chi,I,i,367,1,4165.199999999255,284800.0999999996,8036,WL,A,5.0
2,21.325999975204468,learn,38674.00002479553,Mon Mar 24 2025 10:30:19 GMT-0500 (Central Daylight Time),289881.7999999989,A,chim,I,m,896,1,5081.699999999255,284800.0999999996,8036,WL,A,5.0
2,21.609999895095825,learn,38390.000104904175,Mon Mar 24 2025 10:30:19 GMT-0500 (Central Daylight Time),290164.9000000004,A,chimn,I,n,267,1,5364.800000000745,284800.0999999996,8036,WL,A,5.0
2,21.858999967575073,learn,38141.00003242493,Mon Mar 24 2025 10:30:19 GMT-0500 (Central Daylight Time),290414.69999999925,A,chimne,I,e,232,1,5614.5999999996275,284800.0999999996,8036,WL,A,5.0
2,22.14299988746643,learn,37857.00011253357,Mon Mar 24 2025 10:30:19 GMT-0500 (Central Daylight Time),290698.0999999996,A,chimney,I,y,278,1,5898.0,284800.0999999996,8036,WL,A,5.0
2,23.30900001525879,learn,36690.99998474121,Mon Mar 24 2025 10:30:19 GMT-0500 (Central Daylight Time),291864.2999999989,A,chimneyenter,I,enter,1147,1,7064.199999999255,284800.0999999996,8036,WL,A,5.0
2,24.79099988937378,learn,35209.00011062622,Mon Mar 24 2025 10:30:19 GMT-0500 (Central Daylight Time),293347.19999999925,A,s,I,s,1469,1,1482.5,291864.69999999925,8036,WL,A,6.0
2,25.08999991416931,learn,34910.00008583069,Mon Mar 24 2025 10:30:19 GMT-0500 (Central Daylight Time),293647.0999999996,A,sa,I,a,290,1,1782.4000000003725,291864.69999999925,8036,WL,A,6.0
2,25.323999881744385,learn,34676.000118255615,Mon Mar 24 2025 10:30:19 GMT-0500 (Central Daylight Time),293880.4000000004,A,sal,I,l,214,1,2015.7000000011176,291864.69999999925,8036,WL,A,6.0
2,25.641000032424927,learn,34358.99996757507,Mon Mar 24 2025 10:30:19 GMT-0500 (Central Daylight Time),294197.0999999996,A,salt,I,t,301,1,2332.4000000003725,291864.69999999925,8036,WL,A,6.0
2,26.624000072479248,learn,33375.99992752075,Mon Mar 24 2025 10:30:19 GMT-0500 (Central Daylight Time),295180.0,A,saltenter,I,enter,968,1,3315.300000000745,291864.69999999925,8036,WL,A,6.0
2,30.305999994277954,learn,29694.000005722046,Mon Mar 24 2025 10:30:19 GMT-0500 (Central Daylight Time),298862.4000000004,A,t,I,t,3665,1,3681.9000000003725,295180.5,8036,WL,A,7.0
2,30.555999994277954,learn,29444.000005722046,Mon Mar 24 2025 10:30:19 GMT-0500 (Central Daylight Time),299112.0999999996,A,tr,I,r,238,1,3931.5999999996275,295180.5,8036,WL,A,7.0
2,30.871999979019165,learn,29128.000020980835,Mon Mar 24 2025 10:30:19 GMT-0500 (Central Daylight Time),299428.5,A,tra,I,a,301,1,4248.0,295180.5,8036,WL,A,7.0
2,31.105000019073486,learn,28894.999980926514,Mon Mar 24 2025 10:30:19 GMT-0500 (Central Daylight Time),299662.0,A,trai,I,i,216,1,4481.5,295180.5,8036,WL,A,7.0
2,31.355000019073486,learn,28644.999980926514,Mon Mar 24 2025 10:30:19 GMT-0500 (Central Daylight Time),299911.9000000004,A,train,I,n,239,1,4731.4000000003725,295180.5,8036,WL,A,7.0
2,32.6710000038147,learn,27328.999996185303,Mon Mar 24 2025 10:30:19 GMT-0500 (Central Daylight Time),301228.0,A,trainenter,I,enter,1309,1,6047.5,295180.5,8036,WL,A,7.0
2,38.20300006866455,learn,21796.99993133545,Mon Mar 24 2025 10:30:19 GMT-0500 (Central Daylight Time),306759.7999999989,A,r,I,r,5513,1,5531.39999999851,301228.4000000004,8036,WL,A,8.0
2,38.70300006866455,learn,21296.99993133545,Mon Mar 24 2025 10:30:19 GMT-0500 (Central Daylight Time),307259.69999999925,A,ru,I,u,485,1,6031.299999998882,301228.4000000004,8036,WL,A,8.0
2,38.93599987030029,learn,21064.000129699707,Mon Mar 24 2025 10:30:19 GMT-0500 (Central Daylight Time),307492.9000000004,A,rug,I,g,218,1,6264.5,301228.4000000004,8036,WL,A,8.0
2,40.38599991798401,learn,19614.00008201599,Mon Mar 24 2025 10:30:19 GMT-0500 (Central Daylight Time),308942.2999999989,A,rugenter,I,enter,1440,1,7713.89999999851,301228.4000000004,8036,WL,A,8.0
2,46.384000062942505,learn,13615.999937057495,Mon Mar 24 2025 10:30:19 GMT-0500 (Central Daylight Time),314940.5,A,h,I,h,5983,1,5997.800000000745,308942.69999999925,8036,WL,A,9.0
2,46.59999990463257,learn,13400.000095367432,Mon Mar 24 2025 10:30:19 GMT-0500 (Central Daylight Time),315156.9000000004,A,ha,I,a,208,1,6214.200000001118,308942.69999999925,8036,WL,A,9.0
2,46.91700005531311,learn,13082.99994468689,Mon Mar 24 2025 10:30:19 GMT-0500 (Central Daylight Time),315473.7999999989,A,har,I,r,297,1,6531.0999999996275,308942.69999999925,8036,WL,A,9.0
2,47.33399987220764,learn,12666.000127792358,Mon Mar 24 2025 10:30:19 GMT-0500 (Central Daylight Time),315890.19999999925,A,harp,I,p,404,1,6947.5,308942.69999999925,8036,WL,A,9.0
2,48.56699991226196,learn,11433.000087738037,Mon Mar 24 2025 10:30:19 GMT-0500 (Central Daylight Time),317123.0999999996,A,harpenter,I,enter,1227,1,8180.4000000003725,308942.69999999925,8036,WL,A,9.0
2,53.24900007247925,learn,6750.999927520752,Mon Mar 24 2025 10:30:19 GMT-0500 (Central Daylight Time),321805.0999999996,A,r,I,r,4674,1,4681.5999999996275,317123.5,8036,WL,A,10.0
2,53.63199996948242,learn,6368.000030517578,Mon Mar 24 2025 10:30:19 GMT-0500 (Central Daylight Time),322188.19999999925,A,ra,I,a,376,1,5064.699999999255,317123.5,8036,WL,A,10.0
2,54.03200006484985,learn,5967.9999351501465,Mon Mar 24 2025 10:30:19 GMT-0500 (Central Daylight Time),322588.0999999996,A,rat,I,t,393,1,5464.5999999996275,317123.5,8036,WL,A,10.0
2,54.19799995422363,learn,5802.000045776367,Mon Mar 24 2025 10:30:19 GMT-0500 (Central Daylight Time),322754.5999999996,A,ratt,I,t,161,1,5631.0999999996275,317123.5,8036,WL,A,10.0
2,54.44799995422363,learn,5552.000045776367,Mon Mar 24 2025 10:30:19 GMT-0500 (Central Daylight Time),323004.69999999925,A,rattl,I,l,243,1,5881.199999999255,317123.5,8036,WL,A,10.0
2,54.63100004196167,learn,5368.99995803833,Mon Mar 24 2025 10:30:19 GMT-0500 (Central Daylight Time),323187.7999999989,A,rattle,I,e,168,1,6064.299999998882,317123.5,8036,WL,A,10.0
2,55.69799995422363,learn,4302.000045776367,Mon Mar 24 2025 10:30:19 GMT-0500 (Central Daylight Time),324254.19999999925,A,rattleenter,I,enter,1049,1,7130.699999999255,317123.5,8036,WL,A,10.0
2,60.013999938964844,learn,-13.99993896484375,Mon Mar 24 2025 10:30:19 GMT-0500 (Central Daylight Time),328570.69999999925,A,None,I,None,4311,1,4316.199999999255,324254.5,8036,WL,A,11.0
3,2.2159998416900635,learn,57784.00015830994,Mon Mar 24 2025 10:30:19 GMT-0500 (Central Daylight Time),397414.69999999925,A,g,I,g,2199,1,2215.7999999988824,395198.9000000004,8036,WL,A,1.0
3,2.4659998416900635,learn,57534.00015830994,Mon Mar 24 2025 10:30:19 GMT-0500 (Central Daylight Time),397664.4000000004,A,go,I,o,238,1,2465.5,395198.9000000004,8036,WL,A,1.0
3,2.748999834060669,learn,57251.00016593933,Mon Mar 24 2025 10:30:19 GMT-0500 (Central Daylight Time),397947.69999999925,A,gol,I,l,269,1,2748.7999999988824,395198.9000000004,8036,WL,A,1.0
3,2.9830000400543213,learn,57016.99995994568,Mon Mar 24 2025 10:30:19 GMT-0500 (Central Daylight Time),398181.19999999925,A,gold,I,d,226,1,2982.2999999988824,395198.9000000004,8036,WL,A,1.0
3,3.615999937057495,learn,56384.000062942505,Mon Mar 24 2025 10:30:19 GMT-0500 (Central Daylight Time),398814.19999999925,A,goldenter,I,enter,616,1,3615.2999999988824,395198.9000000004,8036,WL,A,1.0
3,4.799000024795532,learn,55200.99997520447,Mon Mar 24 2025 10:30:19 GMT-0500 (Central Daylight Time),399997.19999999925,A,f,I,f,1167,1,1182.5999999996275,398814.5999999996,8036,WL,A,2.0
3,5.031999826431274,learn,54968.000173568726,Mon Mar 24 2025 10:30:19 GMT-0500 (Central Daylight Time),400230.5,A,fl,I,l,224,1,1415.9000000003725,398814.5999999996,8036,WL,A,2.0
3,5.281999826431274,learn,54718.000173568726,Mon Mar 24 2025 10:30:19 GMT-0500 (Central Daylight Time),400480.5999999996,A,flo,I,o,230,1,1666.0,398814.5999999996,8036,WL,A,2.0
3,5.514999866485596,learn,54485.000133514404,Mon Mar 24 2025 10:30:19 GMT-0500 (Central Daylight Time),400713.9000000004,A,flow,I,w,213,1,1899.300000000745,398814.5999999996,8036,WL,A,2.0
3,5.764999866485596,learn,54235.000133514404,Mon Mar 24 2025 10:30:19 GMT-0500 (Central Daylight Time),400963.69999999925,A,flowe,I,e,235,1,2149.0999999996275,398814.5999999996,8036,WL,A,2.0
3,6.014999866485596,learn,53985.000133514404,Mon Mar 24 2025 10:30:19 GMT-0500 (Central Daylight Time),401213.5,A,flower,I,r,242,1,2398.9000000003725,398814.5999999996,8036,WL,A,2.0
3,6.997999906539917,learn,53002.00009346008,Mon Mar 24 2025 10:30:19 GMT-0500 (Central Daylight Time),402196.5,A,flowerenter,I,enter,976,1,3381.9000000003725,398814.5999999996,8036,WL,A,2.0
3,7.430999994277954,learn,52569.000005722046,Mon Mar 24 2025 10:30:19 GMT-0500 (Central Daylight Time),402629.69999999925,A,t,I,t,417,1,432.69999999925494,402197.0,8036,WL,A,3.0
3,7.680999994277954,learn,52319.000005722046,Mon Mar 24 2025 10:30:19 GMT-0500 (Central Daylight Time),402879.5,A,tr,I,r,239,1,682.5,402197.0,8036,WL,A,3.0
3,7.96399998664856,learn,52036.00001335144,Mon Mar 24 2025 10:30:19 GMT-0500 (Central Daylight Time),403162.5999999996,A,tra,I,a,278,1,965.5999999996275,402197.0,8036,WL,A,3.0
3,8.648000001907349,learn,51351.99999809265,Mon Mar 24 2025 10:30:19 GMT-0500 (Central Daylight Time),403846.4000000004,A,trai,I,i,667,1,1649.4000000003725,402197.0,8036,WL,A,3.0
3,8.930999994277954,learn,51069.000005722046,Mon Mar 24 2025 10:30:19 GMT-0500 (Central Daylight Time),404129.4000000004,A,train,I,n,263,1,1932.4000000003725,402197.0,8036,WL,A,3.0
3,9.563999891281128,learn,50436.00010871887,Mon Mar 24 2025 10:30:19 GMT-0500 (Central Daylight Time),404762.4000000004,A,trainenter,I,enter,620,1,2565.4000000003725,402197.0,8036,WL,A,3.0
3,10.513999938964844,learn,49486.000061035156,Mon Mar 24 2025 10:30:19 GMT-0500 (Central Daylight Time),405712.19999999925,A,c,I,c,939,1,949.5,404762.69999999925,8036,WL,A,4.0
3,10.763000011444092,learn,49236.99998855591,Mon Mar 24 2025 10:30:19 GMT-0500 (Central Daylight Time),405961.7999999989,A,ch,I,h,229,1,1199.0999999996275,404762.69999999925,8036,WL,A,4.0
3,11.346999883651733,learn,48653.00011634827,Mon Mar 24 2025 10:30:19 GMT-0500 (Central Daylight Time),406545.0999999996,A,chi,I,i,571,1,1782.4000000003725,404762.69999999925,8036,WL,A,4.0
3,11.896999835968018,learn,48103.00016403198,Mon Mar 24 2025 10:30:19 GMT-0500 (Central Daylight Time),407095.0999999996,A,chim,I,m,532,1,2332.4000000003725,404762.69999999925,8036,WL,A,4.0
3,12.179999828338623,learn,47820.00017166138,Mon Mar 24 2025 10:30:19 GMT-0500 (Central Daylight Time),407378.19999999925,A,chimn,I,n,270,1,2615.5,404762.69999999925,8036,WL,A,4.0
3,12.730000019073486,learn,47269.999980926514,Mon Mar 24 2025 10:30:19 GMT-0500 (Central Daylight Time),407928.2999999989,A,chimne,I,e,531,1,3165.5999999996275,404762.69999999925,8036,WL,A,4.0
3,12.980000019073486,learn,47019.999980926514,Mon Mar 24 2025 10:30:19 GMT-0500 (Central Daylight Time),408178.0,A,chimney,I,y,237,1,3415.300000000745,404762.69999999925,8036,WL,A,4.0
3,13.978999853134155,learn,46021.000146865845,Mon Mar 24 2025 10:30:19 GMT-0500 (Central Daylight Time),409177.7999999989,A,chimneyenter,I,enter,979,1,4415.0999999996275,404762.69999999925,8036,WL,A,4.0
3,15.611999988555908,learn,44388.00001144409,Mon Mar 24 2025 10:30:19 GMT-0500 (Central Daylight Time),410810.5,A,r,I,r,1620,1,1632.4000000003725,409178.0999999996,8036,WL,A,5.0
3,15.944999933242798,learn,44055.0000667572,Mon Mar 24 2025 10:30:19 GMT-0500 (Central Daylight Time),411143.7999999989,A,ra,I,a,315,1,1965.699999999255,409178.0999999996,8036,WL,A,5.0
3,16.328999996185303,learn,43671.0000038147,Mon Mar 24 2025 10:30:19 GMT-0500 (Central Daylight Time),411527.0,A,rat,I,t,374,1,2348.9000000003725,409178.0999999996,8036,WL,A,5.0
3,16.494999885559082,learn,43505.00011444092,Mon Mar 24 2025 10:30:19 GMT-0500 (Central Daylight Time),411693.69999999925,A,ratt,I,t,158,1,2515.5999999996275,409178.0999999996,8036,WL,A,5.0
3,16.812000036239624,learn,43187.999963760376,Mon Mar 24 2025 10:30:19 GMT-0500 (Central Daylight Time),412010.19999999925,A,rattl,I,l,304,1,2832.0999999996275,409178.0999999996,8036,WL,A,5.0
3,17.027999877929688,learn,42972.00012207031,Mon Mar 24 2025 10:30:19 GMT-0500 (Central Daylight Time),412226.69999999925,A,rattle,I,e,203,1,3048.5999999996275,409178.0999999996,8036,WL,A,5.0
3,18.210999965667725,learn,41789.000034332275,Mon Mar 24 2025 10:30:19 GMT-0500 (Central Daylight Time),413409.69999999925,A,rattleenter,I,enter,1170,1,4231.5999999996275,409178.0999999996,8036,WL,A,5.0
3,19.876999855041504,learn,40123.000144958496,Mon Mar 24 2025 10:30:19 GMT-0500 (Central Daylight Time),415076.0,A,b,I,b,1660,1,1665.9000000003725,413410.0999999996,8036,WL,A,6.0
3,20.442999839782715,learn,39557.000160217285,Mon Mar 24 2025 10:30:19 GMT-0500 (Central Daylight Time),415642.2999999989,A,bo,I,o,553,1,2232.199999999255,413410.0999999996,8036,WL,A,6.0
3,20.64299988746643,learn,39357.00011253357,Mon Mar 24 2025 10:30:19 GMT-0500 (Central Daylight Time),415842.19999999925,A,boo,I,o,179,1,2432.0999999996275,413410.0999999996,8036,WL,A,6.0
3,20.960000038146973,learn,39039.99996185303,Mon Mar 24 2025 10:30:19 GMT-0500 (Central Daylight Time),416159.19999999925,A,book,I,k,299,1,2749.0999999996275,413410.0999999996,8036,WL,A,6.0
3,22.258999824523926,learn,37741.000175476074,Mon Mar 24 2025 10:30:19 GMT-0500 (Central Daylight Time),417458.2999999989,A,bookenter,I,enter,1278,1,4048.199999999255,413410.0999999996,8036,WL,A,6.0
3,24.287999868392944,learn,35712.000131607056,Mon Mar 24 2025 10:30:19 GMT-0500 (Central Daylight Time),419486.7999999989,A,r,I,r,2006,1,2028.2999999988824,417458.5,8036,WL,A,7.0
3,24.575999975204468,learn,35424.00002479553,Mon Mar 24 2025 10:30:19 GMT-0500 (Central Daylight Time),419774.5,A,ru,I,u,270,1,2316.0,417458.5,8036,WL,A,7.0
3,24.85800004005432,learn,35141.99995994568,Mon Mar 24 2025 10:30:19 GMT-0500 (Central Daylight Time),420057.2999999989,A,rug,I,g,262,1,2598.7999999988824,417458.5,8036,WL,A,7.0
3,26.075000047683716,learn,33924.999952316284,Mon Mar 24 2025 10:30:19 GMT-0500 (Central Daylight Time),421273.9000000004,A,rugenter,I,enter,1211,1,3815.4000000003725,417458.5,8036,WL,A,7.0
3,29.207000017166138,learn,30792.999982833862,Mon Mar 24 2025 10:30:19 GMT-0500 (Central Daylight Time),424406.19999999925,A,l,I,l,3123,1,3132.0,421274.19999999925,8036,WL,A,8.0
3,29.457000017166138,learn,30542.999982833862,Mon Mar 24 2025 10:30:19 GMT-0500 (Central Daylight Time),424656.0999999996,A,lo,I,o,231,1,3381.9000000003725,421274.19999999925,8036,WL,A,8.0
3,29.823999881744385,learn,30176.000118255615,Mon Mar 24 2025 10:30:19 GMT-0500 (Central Daylight Time),425022.7999999989,A,log,I,g,357,1,3748.5999999996275,421274.19999999925,8036,WL,A,8.0
3,30.973000049591064,learn,29026.999950408936,Mon Mar 24 2025 10:30:19 GMT-0500 (Central Daylight Time),426172.19999999925,A,logenter,I,enter,1135,1,4898.0,421274.19999999925,8036,WL,A,8.0
3,42.90299987792969,learn,17097.000122070312,Mon Mar 24 2025 10:30:19 GMT-0500 (Central Daylight Time),438101.9000000004,A,b,I,b,11921,1,11929.400000000373,426172.5,8036,WL,A,9.0
3,43.18599987030029,learn,16814.000129699707,Mon Mar 24 2025 10:30:19 GMT-0500 (Central Daylight Time),438385.19999999925,A,bu,I,u,271,1,12212.699999999255,426172.5,8036,WL,A,9.0
3,43.585999965667725,learn,16414.000034332275,Mon Mar 24 2025 10:30:19 GMT-0500 (Central Daylight Time),438784.9000000004,A,but,I,t,379,1,12612.400000000373,426172.5,8036,WL,A,9.0
3,43.76900005340576,learn,16230.999946594238,Mon Mar 24 2025 10:30:19 GMT-0500 (Central Daylight Time),438968.4000000004,A,butt,I,t,165,1,12795.900000000373,426172.5,8036,WL,A,9.0
3,43.98599982261658,learn,16014.000177383423,Mon Mar 24 2025 10:30:19 GMT-0500 (Central Daylight Time),439185.19999999925,A,butto,I,o,205,1,13012.699999999255,426172.5,8036,WL,A,9.0
3,44.30299997329712,learn,15697.00002670288,Mon Mar 24 2025 10:30:19 GMT-0500 (Central Daylight Time),439501.5999999996,A,button,I,n,300,1,13329.099999999627,426172.5,8036,WL,A,9.0
3,45.151999950408936,learn,14848.000049591064,Mon Mar 24 2025 10:30:19 GMT-0500 (Central Daylight Time),440351.19999999925,A,buttonenter,I,enter,840,1,14178.699999999255,426172.5,8036,WL,A,9.0
3,56.198999881744385,learn,3801.0001182556152,Mon Mar 24 2025 10:30:19 GMT-0500 (Central Daylight Time),451398.0,A,r,I,r,11038,1,11046.400000000373,440351.5999999996,8036,WL,A,10.0
3,57.46499991416931,learn,2535.0000858306885,Mon Mar 24 2025 10:30:19 GMT-0500 (Central Daylight Time),452664.0,A,,I,backspace,1254,1,12312.400000000373,440351.5999999996,8036,WL,A,10.0
3,60.013999938964844,learn,-13.99993896484375,Mon Mar 24 2025 10:30:19 GMT-0500 (Central Daylight Time),455213.2999999989,A,None,I,None,2544,1,14861.699999999255,440351.5999999996,8036,WL,A,10.0
4,1.2330000400543213,learn,58766.99995994568,Mon Mar 24 2025 10:30:19 GMT-0500 (Central Daylight Time),523092.0,A,g,I,g,1227,1,1232.5999999996275,521859.4000000004,8036,WL,A,1.0
4,1.6160001754760742,learn,58383.999824523926,Mon Mar 24 2025 10:30:19 GMT-0500 (Central Daylight Time),523475.0999999996,A,go,I,o,377,1,1615.699999999255,521859.4000000004,8036,WL,A,1.0
4,1.8819999694824219,learn,58118.00003051758,Mon Mar 24 2025 10:30:19 GMT-0500 (Central Daylight Time),523741.9000000004,A,gol,I,l,250,1,1882.5,521859.4000000004,8036,WL,A,1.0
4,2.182000160217285,learn,57817.999839782715,Mon Mar 24 2025 10:30:19 GMT-0500 (Central Daylight Time),524041.7999999989,A,gold,I,d,279,1,2182.39999999851,521859.4000000004,8036,WL,A,1.0
4,3.4650001525878906,learn,56534.99984741211,Mon Mar 24 2025 10:30:19 GMT-0500 (Central Daylight Time),525324.6999999993,A,goldenter,I,enter,1268,1,3465.2999999988824,521859.4000000004,8036,WL,A,1.0
4,4.582000017166138,learn,55417.99998283386,Mon Mar 24 2025 10:30:19 GMT-0500 (Central Daylight Time),526441.0999999996,A,m,I,m,1105,1,1116.0999999996275,525325.0,8036,WL,A,2.0
4,4.79800009727478,learn,55201.99990272522,Mon Mar 24 2025 10:30:19 GMT-0500 (Central Daylight Time),526657.5999999996,A,me,I,e,196,1,1332.5999999996275,525325.0,8036,WL,A,2.0
4,5.0980000495910645,learn,54901.999950408936,Mon Mar 24 2025 10:30:19 GMT-0500 (Central Daylight Time),526957.2999999989,A,mea,I,a,292,1,1632.2999999988824,525325.0,8036,WL,A,2.0
4,5.365000009536743,learn,54634.99999046326,Mon Mar 24 2025 10:30:19 GMT-0500 (Central Daylight Time),527224.0,A,meas,I,s,256,1,1899.0,525325.0,8036,WL,A,2.0
4,5.765000104904175,learn,54234.999895095825,Mon Mar 24 2025 10:30:19 GMT-0500 (Central Daylight Time),527624.0,A,measd,I,d,381,1,2299.0,525325.0,8036,WL,A,2.0
4,6.13100004196167,learn,53868.99995803833,Mon Mar 24 2025 10:30:19 GMT-0500 (Central Daylight Time),527990.5,A,measdo,I,o,357,1,2665.5,525325.0,8036,WL,A,2.0
4,6.914000034332275,learn,53085.999965667725,Mon Mar 24 2025 10:30:19 GMT-0500 (Central Daylight Time),528773.6999999993,A,measdow,I,w,775,1,3448.699999999255,525325.0,8036,WL,A,2.0
4,7.38100004196167,learn,52618.99995803833,Mon Mar 24 2025 10:30:19 GMT-0500 (Central Daylight Time),529240.0999999996,A,measdowenter,I,enter,447,1,3915.0999999996275,525325.0,8036,WL,A,2.0
4,8.246999979019165,learn,51753.000020980835,Mon Mar 24 2025 10:30:19 GMT-0500 (Central Daylight Time),530106.4000000004,A,c,I,c,845,1,866.0,529240.4000000004,8036,WL,A,3.0
4,8.496999979019165,learn,51503.000020980835,Mon Mar 24 2025 10:30:19 GMT-0500 (Central Daylight Time),530356.4000000004,A,ch,I,h,243,1,1116.0,529240.4000000004,8036,WL,A,3.0
4,8.746999979019165,learn,51253.000020980835,Mon Mar 24 2025 10:30:19 GMT-0500 (Central Daylight Time),530606.2999999989,A,chi,I,i,233,1,1365.8999999985099,529240.4000000004,8036,WL,A,3.0
4,8.996999979019165,learn,51003.000020980835,Mon Mar 24 2025 10:30:19 GMT-0500 (Central Daylight Time),530856.5,A,chin,I,n,231,1,1616.0999999996275,529240.4000000004,8036,WL,A,3.0
4,9.246999979019165,learn,50753.000020980835,Mon Mar 24 2025 10:30:19 GMT-0500 (Central Daylight Time),531106.1999999993,A,chinm,I,m,245,1,1865.7999999988824,529240.4000000004,8036,WL,A,3.0
4,9.563000202178955,learn,50436.999797821045,Mon Mar 24 2025 10:30:19 GMT-0500 (Central Daylight Time),531422.9000000004,A,chinme,I,e,307,1,2182.5,529240.4000000004,8036,WL,A,3.0
4,9.980000019073486,learn,50019.999980926514,Mon Mar 24 2025 10:30:19 GMT-0500 (Central Daylight Time),531839.1999999993,A,chinmey,I,y,398,1,2598.7999999988824,529240.4000000004,8036,WL,A,3.0
4,11.01200008392334,learn,48987.99991607666,Mon Mar 24 2025 10:30:19 GMT-0500 (Central Daylight Time),532872.1999999993,A,chinmeyenter,I,enter,1014,1,3631.7999999988824,529240.4000000004,8036,WL,A,3.0
4,11.828999996185303,learn,48171.0000038147,Mon Mar 24 2025 10:30:19 GMT-0500 (Central Daylight Time),533688.9000000004,A,b,I,b,805,1,816.4000000003725,532872.5,8036,WL,A,4.0
4,12.34500002861023,learn,47654.99997138977,Mon Mar 24 2025 10:30:19 GMT-0500 (Central Daylight Time),534205.1999999993,A,bo,I,o,508,1,1332.699999999255,532872.5,8036,WL,A,4.0
4,12.529000043869019,learn,47470.99995613098,Mon Mar 24 2025 10:30:19 GMT-0500 (Central Daylight Time),534388.4000000004,A,boo,I,o,176,1,1515.9000000003725,532872.5,8036,WL,A,4.0
4,12.778000116348267,learn,47221.99988365173,Mon Mar 24 2025 10:30:19 GMT-0500 (Central Daylight Time),534638.4000000004,A,book,I,k,233,1,1765.9000000003725,532872.5,8036,WL,A,4.0
4,13.42799997329712,learn,46572.00002670288,Mon Mar 24 2025 10:30:19 GMT-0500 (Central Daylight Time),535288.2999999989,A,bookenter,I,enter,639,1,2415.7999999988824,532872.5,8036,WL,A,4.0
4,14.211000204086304,learn,45788.999795913696,Mon Mar 24 2025 10:30:19 GMT-0500 (Central Daylight Time),536071.1999999993,A,f,I,f,764,1,782.5999999996275,535288.5999999996,8036,WL,A,5.0
4,14.42799997329712,learn,45572.00002670288,Mon Mar 24 2025 10:30:19 GMT-0500 (Central Daylight Time),536288.0999999996,A,fl,I,l,198,1,999.5,535288.5999999996,8036,WL,A,5.0
4,14.67799997329712,learn,45322.00002670288,Mon Mar 24 2025 10:30:19 GMT-0500 (Central Daylight Time),536537.9000000004,A,flo,I,o,237,1,1249.300000000745,535288.5999999996,8036,WL,A,5.0
4,14.91100001335144,learn,45088.99998664856,Mon Mar 24 2025 10:30:19 GMT-0500 (Central Daylight Time),536770.7999999989,A,flow,I,w,228,1,1482.199999999255,535288.5999999996,8036,WL,A,5.0
4,15.254000186920166,learn,44745.999813079834,Mon Mar 24 2025 10:30:19 GMT-0500 (Central Daylight Time),537114.4000000004,A,flowe,I,e,339,1,1825.800000000745,535288.5999999996,8036,WL,A,5.0
4,15.41100001335144,learn,44588.99998664856,Mon Mar 24 2025 10:30:19 GMT-0500 (Central Daylight Time),537270.7999999989,A,flower,I,r,138,1,1982.199999999255,535288.5999999996,8036,WL,A,5.0
4,16.344000101089478,learn,43655.99989891052,Mon Mar 24 2025 10:30:19 GMT-0500 (Central Daylight Time),538204.1999999993,A,flowerenter,I,enter,927,1,2915.5999999996275,535288.5999999996,8036,WL,A,5.0
4,17.06000018119812,learn,42939.99981880188,Mon Mar 24 2025 10:30:19 GMT-0500 (Central Daylight Time),538920.4000000004,A,t,I,t,697,1,715.9000000003725,538204.5,8036,WL,A,6.0
4,17.31000018119812,learn,42689.99981880188,Mon Mar 24 2025 10:30:19 GMT-0500 (Central Daylight Time),539170.1999999993,A,tr,I,r,237,1,965.6999999992549,538204.5,8036,WL,A,6.0
4,17.694000005722046,learn,42305.999994277954,Mon Mar 24 2025 10:30:19 GMT-0500 (Central Daylight Time),539553.6999999993,A,tra,I,a,371,1,1349.199999999255,538204.5,8036,WL,A,6.0
4,17.927000045776367,learn,42072.99995422363,Mon Mar 24 2025 10:30:19 GMT-0500 (Central Daylight Time),539786.9000000004,A,trai,I,i,220,1,1582.4000000003725,538204.5,8036,WL,A,6.0
4,18.193000078201294,learn,41806.999921798706,Mon Mar 24 2025 10:30:19 GMT-0500 (Central Daylight Time),540053.2999999989,A,train,I,n,250,1,1848.7999999988824,538204.5,8036,WL,A,6.0
4,19.4760000705719,learn,40523.9999294281,Mon Mar 24 2025 10:30:19 GMT-0500 (Central Daylight Time),541336.1999999993,A,trainenter,I,enter,1271,1,3131.699999999255,538204.5,8036,WL,A,6.0
4,23.907999992370605,learn,36092.000007629395,Mon Mar 24 2025 10:30:19 GMT-0500 (Central Daylight Time),545768.1999999993,A,c,I,c,4421,1,4431.5999999996275,541336.5999999996,8036,WL,A,7.0
4,24.27500009536743,learn,35724.99990463257,Mon Mar 24 2025 10:30:19 GMT-0500 (Central Daylight Time),546134.9000000004,A,ch,I,h,357,1,4798.300000000745,541336.5999999996,8036,WL,A,7.0
4,24.591000080108643,learn,35408.99991989136,Mon Mar 24 2025 10:30:19 GMT-0500 (Central Daylight Time),546451.0999999996,A,chi,I,i,310,1,5114.5,541336.5999999996,8036,WL,A,7.0
4,25.374000072479248,learn,34625.99992752075,Mon Mar 24 2025 10:30:19 GMT-0500 (Central Daylight Time),547234.4000000004,A,chim,I,m,770,1,5897.800000000745,541336.5999999996,8036,WL,A,7.0
4,25.641000032424927,learn,34358.99996757507,Mon Mar 24 2025 10:30:19 GMT-0500 (Central Daylight Time),547501.0999999996,A,chimn,I,n,251,1,6164.5,541336.5999999996,8036,WL,A,7.0
4,25.891000032424927,learn,34108.99996757507,Mon Mar 24 2025 10:30:19 GMT-0500 (Central Daylight Time),547751.0,A,chimne,I,e,240,1,6414.4000000003725,541336.5999999996,8036,WL,A,7.0
4,26.141000032424927,learn,33858.99996757507,Mon Mar 24 2025 10:30:19 GMT-0500 (Central Daylight Time),548001.0,A,chimney,I,y,239,1,6664.4000000003725,541336.5999999996,8036,WL,A,7.0
4,27.52400016784668,learn,32475.99983215332,Mon Mar 24 2025 10:30:19 GMT-0500 (Central Daylight Time),549383.7999999989,A,chimneyenter,I,enter,1372,1,8047.199999999255,541336.5999999996,8036,WL,A,7.0
4,29.27300000190735,learn,30726.99999809265,Mon Mar 24 2025 10:30:19 GMT-0500 (Central Daylight Time),551133.1999999993,A,r,I,r,1734,1,1749.0,549384.1999999993,8036,WL,A,8.0
4,29.59000015258789,learn,30409.99984741211,Mon Mar 24 2025 10:30:19 GMT-0500 (Central Daylight Time),551449.9000000004,A,ra,I,a,296,1,2065.7000000011176,549384.1999999993,8036,WL,A,8.0
4,29.92300009727478,learn,30076.99990272522,Mon Mar 24 2025 10:30:19 GMT-0500 (Central Daylight Time),551783.1999999993,A,rat,I,t,315,1,2399.0,549384.1999999993,8036,WL,A,8.0
4,30.073000192642212,learn,29926.999807357788,Mon Mar 24 2025 10:30:19 GMT-0500 (Central Daylight Time),551933.0,A,ratt,I,t,142,1,2548.800000000745,549384.1999999993,8036,WL,A,8.0
4,30.473000049591064,learn,29526.999950408936,Mon Mar 24 2025 10:30:19 GMT-0500 (Central Daylight Time),552333.0,A,rattt,I,t,392,1,2948.800000000745,549384.1999999993,8036,WL,A,8.0
4,30.956000089645386,learn,29043.999910354614,Mon Mar 24 2025 10:30:19 GMT-0500 (Central Daylight Time),552816.4000000004,A,ratttl,I,l,464,1,3432.2000000011176,549384.1999999993,8036,WL,A,8.0
4,31.17300009727478,learn,28826.99990272522,Mon Mar 24 2025 10:30:19 GMT-0500 (Central Daylight Time),553032.7999999989,A,ratttle,I,e,205,1,3648.5999999996275,549384.1999999993,8036,WL,A,8.0
4,32.206000089645386,learn,27793.999910354614,Mon Mar 24 2025 10:30:19 GMT-0500 (Central Daylight Time),554065.5999999996,A,ratttleenter,I,enter,1013,1,4681.4000000003725,549384.1999999993,8036,WL,A,8.0
4,41.253000020980835,learn,18746.999979019165,Mon Mar 24 2025 10:30:19 GMT-0500 (Central Daylight Time),563113.0,A,b,I,b,9036,1,9047.0,554066.0,8036,WL,A,9.0
4,41.55299997329712,learn,18447.00002670288,Mon Mar 24 2025 10:30:19 GMT-0500 (Central Daylight Time),563412.7999999989,A,bu,I,u,284,1,9346.799999998882,554066.0,8036,WL,A,9.0
4,41.95300006866455,learn,18046.99993133545,Mon Mar 24 2025 10:30:19 GMT-0500 (Central Daylight Time),563812.6999999993,A,but,I,t,385,1,9746.699999999255,554066.0,8036,WL,A,9.0
4,42.13600015640259,learn,17863.999843597412,Mon Mar 24 2025 10:30:19 GMT-0500 (Central Daylight Time),563996.0,A,butt,I,t,169,1,9930.0,554066.0,8036,WL,A,9.0
4,42.336000204086304,learn,17663.999795913696,Mon Mar 24 2025 10:30:19 GMT-0500 (Central Daylight Time),564196.0,A,butto,I,o,185,1,10130.0,554066.0,8036,WL,A,9.0
4,42.7020001411438,learn,17297.9998588562,Mon Mar 24 2025 10:30:19 GMT-0500 (Central Daylight Time),564562.1999999993,A,button,I,n,345,1,10496.199999999255,554066.0,8036,WL,A,9.0
4,43.86900019645691,learn,16130.99980354309,Mon Mar 24 2025 10:30:19 GMT-0500 (Central Daylight Time),565728.6999999993,A,buttonenter,I,enter,1146,1,11662.699999999255,554066.0,8036,WL,A,9.0
4,49.55000019073486,learn,10449.999809265137,Mon Mar 24 2025 10:30:19 GMT-0500 (Central Daylight Time),571410.4000000004,A,h,I,h,5660,1,5681.4000000003725,565729.0,8036,WL,A,10.0
4,49.717000007629395,learn,10282.999992370605,Mon Mar 24 2025 10:30:19 GMT-0500 (Central Daylight Time),571577.0,A,ha,I,a,155,1,5848.0,565729.0,8036,WL,A,10.0
4,50.032999992370605,learn,9967.000007629395,Mon Mar 24 2025 10:30:19 GMT-0500 (Central Daylight Time),571893.2999999989,A,har,I,r,300,1,6164.299999998882,565729.0,8036,WL,A,10.0
4,50.38499999046326,learn,9615.000009536743,Mon Mar 24 2025 10:30:19 GMT-0500 (Central Daylight Time),572244.5,A,harp,I,p,336,1,6515.5,565729.0,8036,WL,A,10.0
4,51.616000175476074,learn,8383.999824523926,Mon Mar 24 2025 10:30:19 GMT-0500 (Central Daylight Time),573476.1999999993,A,harpenter,I,enter,1217,1,7747.199999999255,565729.0,8036,WL,A,10.0
4,60.01400017738342,learn,-14.000177383422852,Mon Mar 24 2025 10:30:19 GMT-0500 (Central Daylight Time),581874.5,A,None,I,None,8393,1,8397.900000000373,573476.5999999996,8036,WL,A,11.0
5,1.2160000801086426,learn,60000.0,Mon Mar 24 2025 10:30:19 GMT-0500 (Central Daylight Time),655684.0999999996,A,b,I,b,1210,1,1216.300000000745,654467.7999999989,8036,WL,A,1.0
5,1.8819999694824219,learn,60000.0,Mon Mar 24 2025 10:30:19 GMT-0500 (Central Daylight Time),656350.4000000004,A,bo,I,o,649,1,1882.6000000014901,654467.7999999989,8036,WL,A,1.0
5,2.065999984741211,learn,60000.0,Mon Mar 24 2025 10:30:19 GMT-0500 (Central Daylight Time),656533.6999999993,A,boo,I,o,167,1,2065.9000000003725,654467.7999999989,8036,WL,A,1.0
5,2.2820000648498535,learn,60000.0,Mon Mar 24 2025 10:30:19 GMT-0500 (Central Daylight Time),656750.2999999989,A,book,I,k,207,1,2282.5,654467.7999999989,8036,WL,A,1.0
5,2.9819998741149902,learn,60000.0,Mon Mar 24 2025 10:30:19 GMT-0500 (Central Daylight Time),657450.1999999993,A,bookenter,I,enter,679,1,2982.4000000003725,654467.7999999989,8036,WL,A,1.0
5,3.499000072479248,learn,60000.0,Mon Mar 24 2025 10:30:19 GMT-0500 (Central Daylight Time),657966.5,A,a,I,a,507,1,515.9000000003725,657450.5999999996,8036,WL,A,2.0
5,3.815000057220459,learn,60000.0,Mon Mar 24 2025 10:30:19 GMT-0500 (Central Daylight Time),658283.0999999996,A,ap,I,p,303,1,832.5,657450.5999999996,8036,WL,A,2.0
5,3.997999906539917,learn,60000.0,Mon Mar 24 2025 10:30:19 GMT-0500 (Central Daylight Time),658466.2999999989,A,app,I,p,170,1,1015.6999999992549,657450.5999999996,8036,WL,A,2.0
5,4.2149999141693115,learn,60000.0,Mon Mar 24 2025 10:30:19 GMT-0500 (Central Daylight Time),658682.9000000004,A,appl,I,l,203,1,1232.300000000745,657450.5999999996,8036,WL,A,2.0
5,4.615999937057495,learn,60000.0,Mon Mar 24 2025 10:30:19 GMT-0500 (Central Daylight Time),659083.7999999989,A,applw,I,w,394,1,1633.199999999255,657450.5999999996,8036,WL,A,2.0
5,5.764999866485596,learn,60000.0,Mon Mar 24 2025 10:30:19 GMT-0500 (Central Daylight Time),660232.4000000004,A,appl,I,backspace,1137,1,2781.800000000745,657450.5999999996,8036,WL,A,2.0
5,6.164999961853027,learn,60000.0,Mon Mar 24 2025 10:30:19 GMT-0500 (Central Daylight Time),660632.2999999989,A,apple,I,e,381,1,3181.699999999255,657450.5999999996,8036,WL,A,2.0
5,7.21399998664856,learn,60000.0,Mon Mar 24 2025 10:30:19 GMT-0500 (Central Daylight Time),661682.1999999993,A,appleenter,I,enter,1029,1,4231.5999999996275,657450.5999999996,8036,WL,A,2.0
5,7.846999883651733,learn,60000.0,Mon Mar 24 2025 10:30:19 GMT-0500 (Central Daylight Time),662315.0,A,s,I,s,627,1,632.5,661682.5,8036,WL,A,3.0
5,8.147000074386597,learn,60000.0,Mon Mar 24 2025 10:30:19 GMT-0500 (Central Daylight Time),662615.1999999993,A,sa,I,a,283,1,932.6999999992549,661682.5,8036,WL,A,3.0
5,8.313999891281128,learn,60000.0,Mon Mar 24 2025 10:30:19 GMT-0500 (Central Daylight Time),662781.5999999996,A,sal,I,l,150,1,1099.0999999996275,661682.5,8036,WL,A,3.0
5,8.647000074386597,learn,60000.0,Mon Mar 24 2025 10:30:19 GMT-0500 (Central Daylight Time),663114.9000000004,A,salt,I,t,320,1,1432.4000000003725,661682.5,8036,WL,A,3.0
5,9.129999876022339,learn,60000.0,Mon Mar 24 2025 10:30:19 GMT-0500 (Central Daylight Time),663598.0999999996,A,saltenter,I,enter,466,1,1915.5999999996275,661682.5,8036,WL,A,3.0
5,10.04699993133545,learn,60000.0,Mon Mar 24 2025 10:30:19 GMT-0500 (Central Daylight Time),664514.7999999989,A,m,I,m,895,1,916.3999999985099,663598.4000000004,8036,WL,A,4.0
5,10.29699993133545,learn,60000.0,Mon Mar 24 2025 10:30:19 GMT-0500 (Central Daylight Time),664764.4000000004,A,me,I,e,234,1,1166.0,663598.4000000004,8036,WL,A,4.0
5,10.562999963760376,learn,60000.0,Mon Mar 24 2025 10:30:19 GMT-0500 (Central Daylight Time),665031.0,A,mea,I,a,257,1,1432.5999999996275,663598.4000000004,8036,WL,A,4.0
5,10.930000066757202,learn,60000.0,Mon Mar 24 2025 10:30:19 GMT-0500 (Central Daylight Time),665397.5,A,mead,I,d,358,1,1799.0999999996275,663598.4000000004,8036,WL,A,4.0
5,11.328999996185303,learn,60000.0,Mon Mar 24 2025 10:30:19 GMT-0500 (Central Daylight Time),665797.2999999989,A,meado,I,o,384,1,2198.89999999851,663598.4000000004,8036,WL,A,4.0
5,11.878999948501587,learn,60000.0,Mon Mar 24 2025 10:30:19 GMT-0500 (Central Daylight Time),666347.1999999993,A,meadow,I,w,536,1,2748.7999999988824,663598.4000000004,8036,WL,A,4.0
5,12.996000051498413,learn,60000.0,Mon Mar 24 2025 10:30:19 GMT-0500 (Central Daylight Time),667463.4000000004,A,meadowenter,I,enter,1106,1,3865.0,663598.4000000004,8036,WL,A,4.0
5,14.76200008392334,learn,60000.0,Mon Mar 24 2025 10:30:19 GMT-0500 (Central Daylight Time),669229.6999999993,A,b,I,b,1750,1,1766.0,667463.6999999993,8036,WL,A,5.0
5,15.279000043869019,learn,60000.0,Mon Mar 24 2025 10:30:19 GMT-0500 (Central Daylight Time),669746.5,A,bo,I,o,496,1,2282.800000000745,667463.6999999993,8036,WL,A,5.0
5,15.461999893188477,learn,60000.0,Mon Mar 24 2025 10:30:19 GMT-0500 (Central Daylight Time),669929.5999999996,A,boo,I,o,163,1,2465.9000000003725,667463.6999999993,8036,WL,A,5.0
5,15.67799997329712,learn,60000.0,Mon Mar 24 2025 10:30:19 GMT-0500 (Central Daylight Time),670146.2999999989,A,book,I,k,212,1,2682.5999999996275,667463.6999999993,8036,WL,A,5.0
5,17.378000020980835,learn,60000.0,Mon Mar 24 2025 10:30:19 GMT-0500 (Central Daylight Time),671845.5999999996,A,bookt,I,t,1691,1,4381.9000000003725,667463.6999999993,8036,WL,A,5.0
5,17.67799997329712,learn,60000.0,Mon Mar 24 2025 10:30:19 GMT-0500 (Central Daylight Time),672145.6999999993,A,booktr,I,r,280,1,4682.0,667463.6999999993,8036,WL,A,5.0
5,18.01099991798401,learn,60000.0,Mon Mar 24 2025 10:30:19 GMT-0500 (Central Daylight Time),672478.5999999996,A,booktra,I,a,316,1,5014.9000000003725,667463.6999999993,8036,WL,A,5.0
5,18.210999965667725,learn,60000.0,Mon Mar 24 2025 10:30:19 GMT-0500 (Central Daylight Time),672678.5999999996,A,booktrai,I,i,191,1,5214.9000000003725,667463.6999999993,8036,WL,A,5.0
5,18.460999965667725,learn,60000.0,Mon Mar 24 2025 10:30:19 GMT-0500 (Central Daylight Time),672928.5,A,booktrain,I,n,239,1,5464.800000000745,667463.6999999993,8036,WL,A,5.0
5,19.710000038146973,learn,60000.0,Mon Mar 24 2025 10:30:19 GMT-0500 (Central Daylight Time),674178.0,A,booktrai,I,backspace,1237,1,6714.300000000745,667463.6999999993,8036,WL,A,5.0
5,19.91000008583069,learn,60000.0,Mon Mar 24 2025 10:30:19 GMT-0500 (Central Daylight Time),674378.2999999989,A,booktra,I,backspace,195,1,6914.5999999996275,667463.6999999993,8036,WL,A,5.0
5,20.109999895095825,learn,60000.0,Mon Mar 24 2025 10:30:19 GMT-0500 (Central Daylight Time),674577.7999999989,A,booktr,I,backspace,179,1,7114.0999999996275,667463.6999999993,8036,WL,A,5.0
5,20.276999950408936,learn,60000.0,Mon Mar 24 2025 10:30:19 GMT-0500 (Central Daylight Time),674744.7999999989,A,bookt,I,backspace,148,1,7281.0999999996275,667463.6999999993,8036,WL,A,5.0
5,20.776999950408936,learn,60000.0,Mon Mar 24 2025 10:30:19 GMT-0500 (Central Daylight Time),675244.5,A,book,I,backspace,485,1,7780.800000000745,667463.6999999993,8036,WL,A,5.0
5,21.743000030517578,learn,60000.0,Mon Mar 24 2025 10:30:19 GMT-0500 (Central Daylight Time),676210.6999999993,A,bookenter,I,enter,960,1,8747.0,667463.6999999993,8036,WL,A,5.0
5,22.243000030517578,learn,60000.0,Mon Mar 24 2025 10:30:19 GMT-0500 (Central Daylight Time),676710.5999999996,A,t,I,t,483,1,499.59999999962747,676211.0,8036,WL,A,6.0
5,22.493000030517578,learn,60000.0,Mon Mar 24 2025 10:30:19 GMT-0500 (Central Daylight Time),676960.5999999996,A,tr,I,r,238,1,749.5999999996275,676211.0,8036,WL,A,6.0
5,22.776000022888184,learn,60000.0,Mon Mar 24 2025 10:30:19 GMT-0500 (Central Daylight Time),677243.9000000004,A,tra,I,a,277,1,1032.9000000003725,676211.0,8036,WL,A,6.0
5,22.9760000705719,learn,60000.0,Mon Mar 24 2025 10:30:19 GMT-0500 (Central Daylight Time),677443.7999999989,A,trai,I,i,193,1,1232.7999999988824,676211.0,8036,WL,A,6.0
5,23.243000030517578,learn,60000.0,Mon Mar 24 2025 10:30:19 GMT-0500 (Central Daylight Time),677710.2999999989,A,train,I,n,257,1,1499.2999999988824,676211.0,8036,WL,A,6.0
5,25.024999856948853,learn,60000.0,Mon Mar 24 2025 10:30:19 GMT-0500 (Central Daylight Time),679493.0999999996,A,trainenter,I,enter,1767,1,3282.0999999996275,676211.0,8036,WL,A,6.0
5,27.808000087738037,learn,60000.0,Mon Mar 24 2025 10:30:19 GMT-0500 (Central Daylight Time),682275.5999999996,A,l,I,l,2776,1,2782.0999999996275,679493.5,8036,WL,A,7.0
5,28.091000080108643,learn,60000.0,Mon Mar 24 2025 10:30:19 GMT-0500 (Central Daylight Time),682558.7999999989,A,lo,I,o,266,1,3065.2999999988824,679493.5,8036,WL,A,7.0
5,28.374000072479248,learn,60000.0,Mon Mar 24 2025 10:30:19 GMT-0500 (Central Daylight Time),682842.1999999993,A,log,I,g,279,1,3348.699999999255,679493.5,8036,WL,A,7.0
5,28.94099998474121,learn,60000.0,Mon Mar 24 2025 10:30:19 GMT-0500 (Central Daylight Time),683409.0,A,logenter,I,enter,547,1,3915.5,679493.5,8036,WL,A,7.0
5,29.874000072479248,learn,60000.0,Mon Mar 24 2025 10:30:19 GMT-0500 (Central Daylight Time),684341.5999999996,A,k,I,k,924,1,932.1999999992549,683409.4000000004,8036,WL,A,8.0
5,30.124000072479248,learn,60000.0,Mon Mar 24 2025 10:30:19 GMT-0500 (Central Daylight Time),684591.5,A,ke,I,e,232,1,1182.0999999996275,683409.4000000004,8036,WL,A,8.0
5,30.506999969482422,learn,60000.0,Mon Mar 24 2025 10:30:19 GMT-0500 (Central Daylight Time),684974.6999999993,A,key,I,y,374,1,1565.2999999988824,683409.4000000004,8036,WL,A,8.0
5,31.723000049591064,learn,60000.0,Mon Mar 24 2025 10:30:19 GMT-0500 (Central Daylight Time),686191.0999999996,A,keyenter,I,enter,1199,1,2781.699999999255,683409.4000000004,8036,WL,A,8.0
5,32.62400007247925,learn,60000.0,Mon Mar 24 2025 10:30:19 GMT-0500 (Central Daylight Time),687091.9000000004,A,r,I,r,894,1,900.4000000003725,686191.5,8036,WL,A,9.0
5,33.00600004196167,learn,60000.0,Mon Mar 24 2025 10:30:19 GMT-0500 (Central Daylight Time),687474.0,A,ru,I,u,369,1,1282.5,686191.5,8036,WL,A,9.0
5,33.25600004196167,learn,60000.0,Mon Mar 24 2025 10:30:19 GMT-0500 (Central Daylight Time),687724.0,A,rug,I,g,243,1,1532.5,686191.5,8036,WL,A,9.0
5,34.25600004196167,learn,60000.0,Mon Mar 24 2025 10:30:19 GMT-0500 (Central Daylight Time),688723.2999999989,A,rugenter,I,enter,993,1,2531.7999999988824,686191.5,8036,WL,A,9.0
5,37.13800001144409,learn,60000.0,Mon Mar 24 2025 10:30:19 GMT-0500 (Central Daylight Time),691606.0,A,b,I,b,2874,1,2882.4000000003725,688723.5999999996,8036,WL,A,10.0
5,37.40499997138977,learn,60000.0,Mon Mar 24 2025 10:30:19 GMT-0500 (Central Daylight Time),691872.5,A,bu,I,u,255,1,3148.9000000003725,688723.5999999996,8036,WL,A,10.0
5,37.937999963760376,learn,60000.0,Mon Mar 24 2025 10:30:19 GMT-0500 (Central Daylight Time),692405.7999999989,A,but,I,t,517,1,3682.199999999255,688723.5999999996,8036,WL,A,10.0
5,38.12100005149841,learn,60000.0,Mon Mar 24 2025 10:30:19 GMT-0500 (Central Daylight Time),692589.0999999996,A,butt,I,t,167,1,3865.5,688723.5999999996,8036,WL,A,10.0
5,38.33800005912781,learn,60000.0,Mon Mar 24 2025 10:30:19 GMT-0500 (Central Daylight Time),692805.6999999993,A,butto,I,o,200,1,4082.0999999996275,688723.5999999996,8036,WL,A,10.0
5,38.75399994850159,learn,60000.0,Mon Mar 24 2025 10:30:19 GMT-0500 (Central Daylight Time),693222.0999999996,A,button,I,n,408,1,4498.5,688723.5999999996,8036,WL,A,10.0
5,40.33699989318848,learn,60000.0,Mon Mar 24 2025 10:30:19 GMT-0500 (Central Daylight Time),694805.0,A,buttonenter,I,enter,1575,1,6081.4000000003725,688723.5999999996,8036,WL,A,10.0
5,48.18499994277954,learn,60000.0,Mon Mar 24 2025 10:30:19 GMT-0500 (Central Daylight Time),702652.5,A,s,I,s,7832,1,7847.200000001118,694805.2999999989,8036,WL,A,11.0
5,48.46799993515015,learn,60000.0,Mon Mar 24 2025 10:30:19 GMT-0500 (Central Daylight Time),702936.0,A,sa,I,a,272,1,8130.700000001118,694805.2999999989,8036,WL,A,11.0
5,48.66799998283386,learn,60000.0,Mon Mar 24 2025 10:30:19 GMT-0500 (Central Daylight Time),703135.7999999989,A,sal,I,l,189,1,8330.5,694805.2999999989,8036,WL,A,11.0
5,48.93400001525879,learn,60000.0,Mon Mar 24 2025 10:30:19 GMT-0500 (Central Daylight Time),703402.1999999993,A,salt,I,t,254,1,8596.900000000373,694805.2999999989,8036,WL,A,11.0
5,49.91700005531311,learn,60000.0,Mon Mar 24 2025 10:30:19 GMT-0500 (Central Daylight Time),704385.2999999989,A,saltenter,I,enter,971,1,9580.0,694805.2999999989,8036,WL,A,11.0
5,57.13199996948242,learn,60000.0,Mon Mar 24 2025 10:30:19 GMT-0500 (Central Daylight Time),711599.6999999993,A,k,I,k,7196,1,7214.0999999996275,704385.5999999996,8036,WL,A,12.0
5,57.348000049591064,learn,60000.0,Mon Mar 24 2025 10:30:19 GMT-0500 (Central Daylight Time),711816.1999999993,A,ke,I,e,197,1,7430.5999999996275,704385.5999999996,8036,WL,A,12.0
5,57.681999921798706,learn,60000.0,Mon Mar 24 2025 10:30:19 GMT-0500 (Central Daylight Time),712149.4000000004,A,key,I,y,325,1,7763.800000000745,704385.5999999996,8036,WL,A,12.0
5,58.64800000190735,learn,60000.0,Mon Mar 24 2025 10:30:19 GMT-0500 (Central Daylight Time),713115.9000000004,A,keyenter,I,enter,952,1,8730.300000000745,704385.5999999996,8036,WL,A,12.0
5,58.98099994659424,learn,60000.0,Mon Mar 24 2025 10:30:19 GMT-0500 (Central Daylight Time),713449.0999999996,A,g,I,g,321,1,332.80000000074506,713116.2999999989,8036,WL,A,13.0
5,59.263999938964844,learn,60000.0,Mon Mar 24 2025 10:30:19 GMT-0500 (Central Daylight Time),713732.4000000004,A,go,I,o,268,1,616.1000000014901,713116.2999999989,8036,WL,A,13.0
5,59.49799990653992,learn,60000.0,Mon Mar 24 2025 10:30:19 GMT-0500 (Central Daylight Time),713965.6999999993,A,gol,I,l,225,1,849.4000000003725,713116.2999999989,8036,WL,A,13.0
5,59.73099994659424,learn,60000.0,Mon Mar 24 2025 10:30:19 GMT-0500 (Central Daylight Time),714199.0999999996,A,gold,I,d,216,1,1082.800000000745,713116.2999999989,8036,WL,A,13.0
5,60.06399989128113,learn,60000.0,Mon Mar 24 2025 10:30:19 GMT-0500 (Central Daylight Time),714531.9000000004,A,goldenter,I,enter,326,1,1415.6000000014901,713116.2999999989,8036,WL,A,13.0
6,1.2339999675750732,distr,58766.00003242493,Mon Mar 24 2025 10:30:19 GMT-0500 (Central Daylight Time),782261.0999999996,B,c,I,c,1226,1,1233.199999999255,781027.9000000004,8036,WL,A,1.0
6,1.4670000076293945,distr,58532.999992370605,Mon Mar 24 2025 10:30:19 GMT-0500 (Central Daylight Time),782494.1999999993,B,co,I,o,223,1,1466.2999999988824,781027.9000000004,8036,WL,A,1.0
6,1.7829999923706055,distr,58217.000007629395,Mon Mar 24 2025 10:30:19 GMT-0500 (Central Daylight Time),782810.7999999989,B,cou,I,u,303,1,1782.8999999985099,781027.9000000004,8036,WL,A,1.0
6,2.000999927520752,distr,57999.00007247925,Mon Mar 24 2025 10:30:19 GMT-0500 (Central Daylight Time),783028.4000000004,B,coun,I,n,211,1,2000.5,781027.9000000004,8036,WL,A,1.0
6,2.2669999599456787,distr,57733.00004005432,Mon Mar 24 2025 10:30:19 GMT-0500 (Central Daylight Time),783294.0999999996,B,count,I,t,249,1,2266.199999999255,781027.9000000004,8036,WL,A,1.0
6,2.566999912261963,distr,57433.00008773804,Mon Mar 24 2025 10:30:19 GMT-0500 (Central Daylight Time),783593.7999999989,B,county,I,y,287,1,2565.89999999851,781027.9000000004,8036,WL,A,1.0
6,3.7330000400543213,distr,56266.99995994568,Mon Mar 24 2025 10:30:19 GMT-0500 (Central Daylight Time),784760.4000000004,B,countyenter,I,enter,1156,1,3732.5,781027.9000000004,8036,WL,A,1.0
6,6.3999998569488525,distr,53600.00014305115,Mon Mar 24 2025 10:30:19 GMT-0500 (Central Daylight Time),787426.9000000004,B,s,I,s,2662,1,2666.2000000011176,784760.6999999993,8036,WL,A,2.0
6,6.815000057220459,distr,53184.99994277954,Mon Mar 24 2025 10:30:19 GMT-0500 (Central Daylight Time),787842.5,B,se,I,e,410,1,3081.800000000745,784760.6999999993,8036,WL,A,2.0
6,7.0329999923706055,distr,52967.000007629395,Mon Mar 24 2025 10:30:19 GMT-0500 (Central Daylight Time),788060.2999999989,B,see,I,e,203,1,3299.5999999996275,784760.6999999993,8036,WL,A,2.0
6,7.297999858856201,distr,52702.0001411438,Mon Mar 24 2025 10:30:19 GMT-0500 (Central Daylight Time),788325.6999999993,B,seed,I,d,257,1,3565.0,784760.6999999993,8036,WL,A,2.0
6,8.447999954223633,distr,51552.00004577637,Mon Mar 24 2025 10:30:19 GMT-0500 (Central Daylight Time),789475.4000000004,B,seedenter,I,enter,1144,1,4714.700000001118,784760.6999999993,8036,WL,A,2.0
6,10.580999851226807,distr,49419.00014877319,Mon Mar 24 2025 10:30:19 GMT-0500 (Central Daylight Time),791608.0,B,g,I,g,2122,1,2132.300000000745,789475.6999999993,8036,WL,A,3.0
6,10.830999851226807,distr,49169.00014877319,Mon Mar 24 2025 10:30:19 GMT-0500 (Central Daylight Time),791858.0999999996,B,gr,I,r,237,1,2382.4000000003725,789475.6999999993,8036,WL,A,3.0
6,11.180999994277954,distr,48819.000005722046,Mon Mar 24 2025 10:30:19 GMT-0500 (Central Daylight Time),792208.0,B,gra,I,a,339,1,2732.300000000745,789475.6999999993,8036,WL,A,3.0
6,11.397000074386597,distr,48602.9999256134,Mon Mar 24 2025 10:30:19 GMT-0500 (Central Daylight Time),792424.4000000004,B,gran,I,n,197,1,2948.7000000011176,789475.6999999993,8036,WL,A,3.0
6,11.613999843597412,distr,48386.00015640259,Mon Mar 24 2025 10:30:19 GMT-0500 (Central Daylight Time),792641.0999999996,B,grant,I,t,197,1,3165.4000000003725,789475.6999999993,8036,WL,A,3.0
6,13.246999979019165,distr,46753.000020980835,Mon Mar 24 2025 10:30:19 GMT-0500 (Central Daylight Time),794274.0,B,grantenter,I,enter,1620,1,4798.300000000745,789475.6999999993,8036,WL,A,3.0
6,14.230000019073486,distr,45769.999980926514,Mon Mar 24 2025 10:30:19 GMT-0500 (Central Daylight Time),795256.9000000004,B,c,I,c,964,1,982.6000000014901,794274.2999999989,8036,WL,A,4.0
6,14.463000059127808,distr,45536.99994087219,Mon Mar 24 2025 10:30:19 GMT-0500 (Central Daylight Time),795490.1999999993,B,ch,I,h,228,1,1215.9000000003725,794274.2999999989,8036,WL,A,4.0
6,14.678999900817871,distr,45321.00009918213,Mon Mar 24 2025 10:30:19 GMT-0500 (Central Daylight Time),795706.5999999996,B,cha,I,a,211,1,1432.300000000745,794274.2999999989,8036,WL,A,4.0
6,15.088000059127808,distr,44911.99994087219,Mon Mar 24 2025 10:30:19 GMT-0500 (Central Daylight Time),796115.6999999993,B,chai,I,i,258,1,1841.4000000003725,794274.2999999989,8036,WL,A,4.0
6,15.098000049591064,distr,44901.999950408936,Mon Mar 24 2025 10:30:19 GMT-0500 (Central Daylight Time),796125.0999999996,B,chair,I,r,0,1,1850.800000000745,794274.2999999989,8036,WL,A,4.0
6,15.746000051498413,distr,44253.99994850159,Mon Mar 24 2025 10:30:19 GMT-0500 (Central Daylight Time),796773.0999999996,B,chairenter,I,enter,631,1,2498.800000000745,794274.2999999989,8036,WL,A,4.0
6,47.236000061035156,distr,12763.999938964844,Mon Mar 24 2025 10:30:19 GMT-0500 (Central Daylight Time),828263.0,B,enter,I,enter,31472,1,31489.599999999627,796773.4000000004,8036,WL,A,5.0
6,47.984999895095825,distr,12015.000104904175,Mon Mar 24 2025 10:30:19 GMT-0500 (Central Daylight Time),829012.7999999989,B,enter,I,enter,734,1,749.3999999985099,828263.4000000004,8036,WL,A,6.0
6,48.70199990272522,distr,11298.00009727478,Mon Mar 24 2025 10:30:19 GMT-0500 (Central Daylight Time),829729.4000000004,B,enter,I,enter,697,1,716.3000000007451,829013.0999999996,8036,WL,A,7.0
6,49.45199990272522,distr,10548.00009727478,Mon Mar 24 2025 10:30:19 GMT-0500 (Central Daylight Time),830479.1999999993,B,enter,I,enter,732,1,749.4000000003725,829729.7999999989,8036,WL,A,8.0
6,49.76799988746643,distr,10232.00011253357,Mon Mar 24 2025 10:30:19 GMT-0500 (Central Daylight Time),830795.5999999996,B,enter,I,enter,310,1,316.09999999962747,830479.5,8036,WL,A,9.0
6,49.984999895095825,distr,10015.000104904175,Mon Mar 24 2025 10:30:19 GMT-0500 (Central Daylight Time),831012.2999999989,B,enter,I,enter,210,1,216.2999999988824,830796.0,8036,WL,A,10.0
6,50.16799998283386,distr,9832.000017166138,Mon Mar 24 2025 10:30:19 GMT-0500 (Central Daylight Time),831195.4000000004,B,enter,I,enter,178,1,182.80000000074506,831012.5999999996,8036,WL,A,11.0
6,50.318000078201294,distr,9681.999921798706,Mon Mar 24 2025 10:30:19 GMT-0500 (Central Daylight Time),831345.5999999996,B,enter,I,enter,130,1,150.0,831195.5999999996,8036,WL,A,12.0
6,50.550999879837036,distr,9449.000120162964,Mon Mar 24 2025 10:30:19 GMT-0500 (Central Daylight Time),831578.6999999993,B,enter,I,enter,228,1,232.69999999925494,831346.0,8036,WL,A,13.0
6,50.818000078201294,distr,9181.999921798706,Mon Mar 24 2025 10:30:19 GMT-0500 (Central Daylight Time),831845.2999999989,B,enter,I,enter,259,1,266.3999999985099,831578.9000000004,8036,WL,A,14.0
6,54.299999952316284,distr,5700.000047683716,Mon Mar 24 2025 10:30:19 GMT-0500 (Central Daylight Time),835328.0,B,enter,I,enter,3472,1,3482.5,831845.5,8036,WL,A,15.0
7,1.433000087738037,immed,58566.99991226196,Mon Mar 24 2025 10:30:19 GMT-0500 (Central Daylight Time),860086.5,A,b,I,b,1416,1,1432.5999999996275,858653.9000000004,8036,WL,A,1.0
7,1.683000087738037,immed,58316.99991226196,Mon Mar 24 2025 10:30:19 GMT-0500 (Central Daylight Time),860336.5,A,bu,I,u,238,1,1682.5999999996275,858653.9000000004,8036,WL,A,1.0
7,2.067000150680542,immed,57932.99984931946,Mon Mar 24 2025 10:30:19 GMT-0500 (Central Daylight Time),860720.1999999993,A,but,I,t,365,1,2066.2999999988824,858653.9000000004,8036,WL,A,1.0
7,2.2660000324249268,immed,57733.99996757507,Mon Mar 24 2025 10:30:19 GMT-0500 (Central Daylight Time),860919.6999999993,A,butt,I,t,188,1,2265.7999999988824,858653.9000000004,8036,WL,A,1.0
7,2.4660000801086426,immed,57533.99991989136,Mon Mar 24 2025 10:30:19 GMT-0500 (Central Daylight Time),861119.5,A,butto,I,o,182,1,2465.5999999996275,858653.9000000004,8036,WL,A,1.0
7,2.7330000400543213,immed,57266.99995994568,Mon Mar 24 2025 10:30:19 GMT-0500 (Central Daylight Time),861386.1999999993,A,button,I,n,262,1,2732.2999999988824,858653.9000000004,8036,WL,A,1.0
7,4.148999929428101,immed,55851.0000705719,Mon Mar 24 2025 10:30:19 GMT-0500 (Central Daylight Time),862802.4000000004,A,buttonenter,I,enter,1411,1,4148.5,858653.9000000004,8036,WL,A,1.0
7,6.2820000648498535,immed,53717.99993515015,Mon Mar 24 2025 10:30:19 GMT-0500 (Central Daylight Time),864935.1999999993,A,b,I,b,2115,1,2132.5999999996275,862802.5999999996,8036,WL,A,2.0
7,6.765000104904175,immed,53234.999895095825,Mon Mar 24 2025 10:30:19 GMT-0500 (Central Daylight Time),865418.6999999993,A,bo,I,o,478,1,2616.0999999996275,862802.5999999996,8036,WL,A,2.0
7,6.930999994277954,immed,53069.000005722046,Mon Mar 24 2025 10:30:19 GMT-0500 (Central Daylight Time),865584.7999999989,A,boo,I,o,155,1,2782.199999999255,862802.5999999996,8036,WL,A,2.0
7,7.180999994277954,immed,52819.000005722046,Mon Mar 24 2025 10:30:19 GMT-0500 (Central Daylight Time),865834.9000000004,A,book,I,k,237,1,3032.300000000745,862802.5999999996,8036,WL,A,2.0
7,9.114000082015991,immed,50885.99991798401,Mon Mar 24 2025 10:30:19 GMT-0500 (Central Daylight Time),867767.5,A,bookenter,I,enter,1915,1,4964.9000000003725,862802.5999999996,8036,WL,A,2.0
7,9.71399998664856,immed,50286.00001335144,Mon Mar 24 2025 10:30:19 GMT-0500 (Central Daylight Time),868367.2999999989,A,t,I,t,590,1,599.5,867767.7999999989,8036,WL,A,3.0
7,9.930000066757202,immed,50069.9999332428,Mon Mar 24 2025 10:30:19 GMT-0500 (Central Daylight Time),868583.9000000004,A,tr,I,r,206,1,816.1000000014901,867767.7999999989,8036,WL,A,3.0
7,10.246999979019165,immed,49753.000020980835,Mon Mar 24 2025 10:30:19 GMT-0500 (Central Daylight Time),868900.5,A,tra,I,a,301,1,1132.7000000011176,867767.7999999989,8036,WL,A,3.0
7,10.430000066757202,immed,49569.9999332428,Mon Mar 24 2025 10:30:19 GMT-0500 (Central Daylight Time),869083.9000000004,A,trai,I,i,177,1,1316.1000000014901,867767.7999999989,8036,WL,A,3.0
7,10.680000066757202,immed,49319.9999332428,Mon Mar 24 2025 10:30:19 GMT-0500 (Central Daylight Time),869333.5999999996,A,train,I,n,241,1,1565.800000000745,867767.7999999989,8036,WL,A,3.0
7,11.86299991607666,immed,48137.00008392334,Mon Mar 24 2025 10:30:19 GMT-0500 (Central Daylight Time),870516.5,A,trainenter,I,enter,1168,1,2748.7000000011176,867767.7999999989,8036,WL,A,3.0
7,15.479000091552734,immed,44520.999908447266,Mon Mar 24 2025 10:30:19 GMT-0500 (Central Daylight Time),874132.2999999989,A,r,I,r,3601,1,3615.5,870516.7999999989,8036,WL,A,4.0
7,15.778000116348267,immed,44221.99988365173,Mon Mar 24 2025 10:30:19 GMT-0500 (Central Daylight Time),874432.0999999996,A,ru,I,u,281,1,3915.300000000745,870516.7999999989,8036,WL,A,4.0
7,15.996000051498413,immed,44003.99994850159,Mon Mar 24 2025 10:30:19 GMT-0500 (Central Daylight Time),874649.7999999989,A,rug,I,g,197,1,4133.0,870516.7999999989,8036,WL,A,4.0
7,16.82800006866455,immed,43171.99993133545,Mon Mar 24 2025 10:30:19 GMT-0500 (Central Daylight Time),875481.6999999993,A,rugenter,I,enter,819,1,4964.9000000003725,870516.7999999989,8036,WL,A,4.0
7,17.977999925613403,immed,42022.0000743866,Mon Mar 24 2025 10:30:19 GMT-0500 (Central Daylight Time),876631.2999999989,A,k,I,k,1132,1,1149.199999999255,875482.0999999996,8036,WL,A,5.0
7,18.460999965667725,immed,41539.000034332275,Mon Mar 24 2025 10:30:19 GMT-0500 (Central Daylight Time),877114.5,A,ke,I,e,478,1,1632.4000000003725,875482.0999999996,8036,WL,A,5.0
7,18.74399995803833,immed,41256.00004196167,Mon Mar 24 2025 10:30:19 GMT-0500 (Central Daylight Time),877397.6999999993,A,key,I,y,267,1,1915.5999999996275,875482.0999999996,8036,WL,A,5.0
7,19.76099991798401,immed,40239.00008201599,Mon Mar 24 2025 10:30:19 GMT-0500 (Central Daylight Time),878414.4000000004,A,keyenter,I,enter,1008,1,2932.300000000745,875482.0999999996,8036,WL,A,5.0
7,22.509999990463257,immed,37490.00000953674,Mon Mar 24 2025 10:30:19 GMT-0500 (Central Daylight Time),881163.0999999996,A,c,I,c,2743,1,2748.4000000003725,878414.6999999993,8036,WL,A,6.0
7,22.743000030517578,immed,37256.99996948242,Mon Mar 24 2025 10:30:19 GMT-0500 (Central Daylight Time),881396.5,A,ch,I,h,218,1,2981.800000000745,878414.6999999993,8036,WL,A,6.0
7,23.176000118255615,immed,36823.999881744385,Mon Mar 24 2025 10:30:19 GMT-0500 (Central Daylight Time),881829.7999999989,A,chi,I,i,425,1,3415.0999999996275,878414.6999999993,8036,WL,A,6.0
7,24.259000062942505,immed,35740.999937057495,Mon Mar 24 2025 10:30:19 GMT-0500 (Central Daylight Time),882913.0999999996,A,chim,I,m,1072,1,4498.4000000003725,878414.6999999993,8036,WL,A,6.0
7,24.575999975204468,immed,35424.00002479553,Mon Mar 24 2025 10:30:19 GMT-0500 (Central Daylight Time),883229.2999999989,A,chimn,I,n,308,1,4814.5999999996275,878414.6999999993,8036,WL,A,6.0
7,24.875999927520752,immed,35124.00007247925,Mon Mar 24 2025 10:30:19 GMT-0500 (Central Daylight Time),883529.1999999993,A,chimne,I,e,288,1,5114.5,878414.6999999993,8036,WL,A,6.0
7,25.125999927520752,immed,34874.00007247925,Mon Mar 24 2025 10:30:19 GMT-0500 (Central Daylight Time),883779.4000000004,A,chimney,I,y,236,1,5364.700000001118,878414.6999999993,8036,WL,A,6.0
7,26.29200005531311,immed,33707.99994468689,Mon Mar 24 2025 10:30:19 GMT-0500 (Central Daylight Time),884945.4000000004,A,chimneyenter,I,enter,1146,1,6530.700000001118,878414.6999999993,8036,WL,A,6.0
7,28.625,immed,31375.0,Mon Mar 24 2025 10:30:19 GMT-0500 (Central Daylight Time),887278.1999999993,A,b,I,b,2324,1,2332.5,884945.6999999993,8036,WL,A,7.0
7,28.874000072479248,immed,31125.999927520752,Mon Mar 24 2025 10:30:19 GMT-0500 (Central Daylight Time),887528.0999999996,A,bu,I,u,231,1,2582.4000000003725,884945.6999999993,8036,WL,A,7.0
7,29.20799994468689,immed,30792.00005531311,Mon Mar 24 2025 10:30:19 GMT-0500 (Central Daylight Time),887861.0999999996,A,but,I,t,317,1,2915.4000000003725,884945.6999999993,8036,WL,A,7.0
7,29.391000032424927,immed,30608.999967575073,Mon Mar 24 2025 10:30:19 GMT-0500 (Central Daylight Time),888044.5,A,butt,I,t,176,1,3098.800000000745,884945.6999999993,8036,WL,A,7.0
7,29.54100012779236,immed,30458.99987220764,Mon Mar 24 2025 10:30:19 GMT-0500 (Central Daylight Time),888194.6999999993,A,butto,I,o,129,1,3249.0,884945.6999999993,8036,WL,A,7.0
7,29.7739999294281,immed,30226.0000705719,Mon Mar 24 2025 10:30:19 GMT-0500 (Central Daylight Time),888427.9000000004,A,button,I,n,226,1,3482.2000000011176,884945.6999999993,8036,WL,A,7.0
7,30.841000080108643,immed,29158.999919891357,Mon Mar 24 2025 10:30:19 GMT-0500 (Central Daylight Time),889494.1999999993,A,buttonenter,I,enter,1050,1,4548.5,884945.6999999993,8036,WL,A,7.0
7,33.805999994277954,immed,26194.000005722046,Mon Mar 24 2025 10:30:19 GMT-0500 (Central Daylight Time),892460.0,A,f,I,f,2951,1,2965.4000000003725,889494.5999999996,8036,WL,A,8.0
7,34.055999994277954,immed,25944.000005722046,Mon Mar 24 2025 10:30:19 GMT-0500 (Central Daylight Time),892709.6999999993,A,fl,I,l,233,1,3215.0999999996275,889494.5999999996,8036,WL,A,8.0
7,34.32299995422363,immed,25677.000045776367,Mon Mar 24 2025 10:30:19 GMT-0500 (Central Daylight Time),892976.4000000004,A,flo,I,o,248,1,3481.800000000745,889494.5999999996,8036,WL,A,8.0
7,34.555999994277954,immed,25444.000005722046,Mon Mar 24 2025 10:30:19 GMT-0500 (Central Daylight Time),893209.7999999989,A,flow,I,w,213,1,3715.199999999255,889494.5999999996,8036,WL,A,8.0
7,34.7720000743866,immed,25227.999925613403,Mon Mar 24 2025 10:30:19 GMT-0500 (Central Daylight Time),893426.0999999996,A,flowe,I,e,204,1,3931.5,889494.5999999996,8036,WL,A,8.0
7,35.039000034332275,immed,24960.999965667725,Mon Mar 24 2025 10:30:19 GMT-0500 (Central Daylight Time),893692.7999999989,A,flower,I,r,259,1,4198.199999999255,889494.5999999996,8036,WL,A,8.0
7,36.15499997138977,immed,23845.00002861023,Mon Mar 24 2025 10:30:19 GMT-0500 (Central Daylight Time),894808.7999999989,A,flowerenter,I,enter,1105,1,5314.199999999255,889494.5999999996,8036,WL,A,8.0
7,37.8050000667572,immed,22194.999933242798,Mon Mar 24 2025 10:30:19 GMT-0500 (Central Daylight Time),896458.4000000004,A,t,I,t,1644,1,1649.300000000745,894809.0999999996,8036,WL,A,9.0
7,38.03800010681152,immed,21961.999893188477,Mon Mar 24 2025 10:30:19 GMT-0500 (Central Daylight Time),896692.0,A,tr,I,r,227,1,1882.9000000003725,894809.0999999996,8036,WL,A,9.0
7,39.08800005912781,immed,20911.999940872192,Mon Mar 24 2025 10:30:19 GMT-0500 (Central Daylight Time),897741.5999999996,A,tra,I,a,1034,1,2932.5,894809.0999999996,8036,WL,A,9.0
7,39.38700008392334,immed,20612.99991607666,Mon Mar 24 2025 10:30:19 GMT-0500 (Central Daylight Time),898041.2999999989,A,trai,I,i,279,1,3232.199999999255,894809.0999999996,8036,WL,A,9.0
7,39.62100005149841,immed,20378.999948501587,Mon Mar 24 2025 10:30:19 GMT-0500 (Central Daylight Time),898274.9000000004,A,train,I,n,220,1,3465.800000000745,894809.0999999996,8036,WL,A,9.0
7,40.88700008392334,immed,19112.99991607666,Mon Mar 24 2025 10:30:19 GMT-0500 (Central Daylight Time),899541.1999999993,A,trainenter,I,enter,1251,1,4732.0999999996275,894809.0999999996,8036,WL,A,9.0
7,45.13599991798401,immed,14864.000082015991,Mon Mar 24 2025 10:30:19 GMT-0500 (Central Daylight Time),903789.7999999989,A,k,I,k,4232,1,4248.299999998882,899541.5,8036,WL,A,10.0
7,45.335999965667725,immed,14664.000034332275,Mon Mar 24 2025 10:30:19 GMT-0500 (Central Daylight Time),903989.5,A,ke,I,e,191,1,4448.0,899541.5,8036,WL,A,10.0
7,45.66900014877319,immed,14330.999851226807,Mon Mar 24 2025 10:30:19 GMT-0500 (Central Daylight Time),904322.9000000004,A,key,I,y,312,1,4781.4000000003725,899541.5,8036,WL,A,10.0
7,46.71900010108948,immed,13280.999898910522,Mon Mar 24 2025 10:30:19 GMT-0500 (Central Daylight Time),905372.4000000004,A,keyenter,I,enter,1035,1,5830.9000000003725,899541.5,8036,WL,A,10.0
7,47.60199999809265,immed,12398.000001907349,Mon Mar 24 2025 10:30:19 GMT-0500 (Central Daylight Time),906255.5,A,g,I,g,873,1,882.7000000011176,905372.7999999989,8036,WL,A,11.0
7,47.818000078201294,immed,12181.999921798706,Mon Mar 24 2025 10:30:19 GMT-0500 (Central Daylight Time),906472.0999999996,A,go,I,o,206,1,1099.300000000745,905372.7999999989,8036,WL,A,11.0
7,48.051000118255615,immed,11948.999881744385,Mon Mar 24 2025 10:30:19 GMT-0500 (Central Daylight Time),906705.2999999989,A,gol,I,l,213,1,1332.5,905372.7999999989,8036,WL,A,11.0
7,48.30200004577637,immed,11697.999954223633,Mon Mar 24 2025 10:30:19 GMT-0500 (Central Daylight Time),906955.4000000004,A,gold,I,d,236,1,1582.6000000014901,905372.7999999989,8036,WL,A,11.0
7,48.901999950408936,immed,11098.000049591064,Mon Mar 24 2025 10:30:19 GMT-0500 (Central Daylight Time),907556.1999999993,A,goldenter,I,enter,594,1,2183.4000000003725,905372.7999999989,8036,WL,A,11.0
7,58.64800000190735,immed,1351.9999980926514,Mon Mar 24 2025 10:30:19 GMT-0500 (Central Daylight Time),917302.0999999996,A,l,I,l,9729,1,9745.5,907556.5999999996,8036,WL,A,12.0
7,58.86500000953674,immed,1134.9999904632568,Mon Mar 24 2025 10:30:19 GMT-0500 (Central Daylight Time),917518.5,A,lo,I,o,207,1,9961.900000000373,907556.5999999996,8036,WL,A,12.0
7,59.11500000953674,immed,884.9999904632568,Mon Mar 24 2025 10:30:19 GMT-0500 (Central Daylight Time),917768.4000000004,A,log,I,g,239,1,10211.800000000745,907556.5999999996,8036,WL,A,12.0
7,59.64800000190735,immed,351.99999809265137,Mon Mar 24 2025 10:30:19 GMT-0500 (Central Daylight Time),918301.6999999993,A,logenter,I,enter,525,1,10745.099999999627,907556.5999999996,8036,WL,A,12.0
7,60.015000104904175,immed,-15.000104904174805,Mon Mar 24 2025 10:30:19 GMT-0500 (Central Daylight Time),918668.4000000004,A,None,I,None,362,1,366.40000000037253,918302.0,8036,WL,A,13.0
