Q,Q1,Q2,Q3,Q4,acc_sum,block,block_c,correct,correct_response,datetime,endtime,project,response,response_time,row_sel,session_number,squiggle1,squiggle1x,squiggle1y,squiggle2,squiggle2x,squiggle2y,squiggle3,squiggle3x,squiggle3y,squiggle4,squiggle4x,squiggle4y,start_end,starttime,subject_id,target_congruent,task,task_vers,testsquiggle,testsquigglex,testsquiggley,time_practice_delay,time_practice_fixation,time_practice_stimuli,time_practice_study,time_test_delay,time_test_fixation,time_test_stimuli,time_test_study,trial
1,1,0,0,0,0,prac,1,0,z,Fri Feb 28 2025 18:48:40 GMT-0600 (Central Standard Time),184152.5,O,None,2011,1,1,116.bmp,-120,-120,117.bmp,120,-120,118.bmp,-120,120,119.bmp,120,120,10821.0,173331.5,7064,yes,SM,A,116.bmp,-120,-120,169510,163489,171529,165496,,,,,1
3,0,0,1,0,0,prac,1,0,m,Fri Feb 28 2025 18:48:40 GMT-0600 (Central Standard Time),194497.80000001192,O,z,1521,2,1,120.bmp,-120,-120,121.bmp,120,-120,122.bmp,-120,120,123.bmp,120,120,10337.0,184160.80000001192,7064,no,SM,A,123.bmp,-120,120,180340,174318,182357,176326,,,,,2
4,0,0,0,1,1,prac,1,1,m,Fri Feb 28 2025 18:48:40 GMT-0600 (Central Standard Time),204863.10000002384,O,m,1534,3,1,124.bmp,-120,-120,125.bmp,120,-120,126.bmp,-120,120,127.bmp,120,120,10360.199999988079,194502.90000003576,7064,no,SM,A,124.bmp,120,120,190687,184660,192704,186673,,,,,3
2,0,1,0,0,2,prac,1,1,z,Fri Feb 28 2025 18:48:40 GMT-0600 (Central Standard Time),215141.70000004768,O,z,1460,4,1,128.bmp,-120,-120,129.bmp,120,-120,130.bmp,-120,120,131.bmp,120,120,10272.800000011921,204868.90000003576,7064,yes,SM,A,129.bmp,120,-120,201051,195026,203068,197035,,,,,4
3,0,0,1,0,2,prac,1,0,z,Fri Feb 28 2025 18:48:40 GMT-0600 (Central Standard Time),225971.60000002384,O,None,2014,5,1,132.bmp,-120,-120,133.bmp,120,-120,134.bmp,-120,120,135.bmp,120,120,10821.399999976158,215150.20000004768,7064,yes,SM,A,134.bmp,-120,120,211330,205307,213347,207316,,,,,5
1,1,0,0,0,2,prac,1,0,m,Fri Feb 28 2025 18:48:40 GMT-0600 (Central Standard Time),236800.5,O,None,2014,6,1,136.bmp,-120,-120,137.bmp,120,-120,138.bmp,-120,120,139.bmp,120,120,10824.399999976158,225976.10000002384,7064,no,SM,A,139.bmp,-120,-120,222161,216133,224178,218145,,,,,6
2,0,1,0,0,3,prac,1,1,m,Fri Feb 28 2025 18:48:40 GMT-0600 (Central Standard Time),247531.10000002384,O,m,1905,7,1,140.bmp,-120,-120,141.bmp,120,-120,142.bmp,-120,120,143.bmp,120,120,10725.600000023842,236805.5,7064,no,SM,A,140.bmp,120,-120,232989,226963,235006,228975,,,,,7
4,0,0,0,1,3,prac,1,0,z,Fri Feb 28 2025 18:48:40 GMT-0600 (Central Standard Time),258362.40000003576,O,None,2017,8,1,144.bmp,-120,-120,145.bmp,120,-120,146.bmp,-120,120,147.bmp,120,120,10826.100000023842,247536.30000001192,7064,yes,SM,A,147.bmp,120,120,243721,237694,245736,239706,,,,,8
1,1,0,0,0,0,prac,2,0,z,Fri Feb 28 2025 18:48:40 GMT-0600 (Central Standard Time),273989.3000000119,O,None,2015,1,1,116.bmp,-120,-120,117.bmp,120,-120,118.bmp,-120,120,119.bmp,120,120,10825.399999976158,263163.90000003576,7064,yes,SM,A,116.bmp,-120,-120,259349,253321,261365,255334,,,,,1
3,0,0,1,0,1,prac,2,1,m,Fri Feb 28 2025 18:48:40 GMT-0600 (Central Standard Time),284604.0,O,m,1798,2,1,120.bmp,-120,-120,121.bmp,120,-120,122.bmp,-120,120,123.bmp,120,120,10610.0,273994.0,7064,no,SM,A,123.bmp,-120,120,270178,264151,272195,266163,,,,,2
4,0,0,0,1,2,prac,2,1,m,Fri Feb 28 2025 18:48:40 GMT-0600 (Central Standard Time),295332.7000000477,O,m,1927,3,1,124.bmp,-120,-120,125.bmp,120,-120,126.bmp,-120,120,127.bmp,120,120,10723.5,284609.2000000477,7064,no,SM,A,124.bmp,120,120,280776,274767,282792,276774,,,,,3
2,0,1,0,0,2,prac,2,0,z,Fri Feb 28 2025 18:48:40 GMT-0600 (Central Standard Time),306163.7000000477,O,None,2015,4,1,128.bmp,-120,-120,129.bmp,120,-120,130.bmp,-120,120,131.bmp,120,120,10825.100000023842,295338.60000002384,7064,yes,SM,A,129.bmp,120,-120,291521,285496,293538,287506,,,,,4
3,0,0,1,0,2,prac,2,0,z,Fri Feb 28 2025 18:48:40 GMT-0600 (Central Standard Time),316459.3000000119,O,m,1466,5,1,132.bmp,-120,-120,133.bmp,120,-120,134.bmp,-120,120,135.bmp,120,120,10289.899999976158,306169.40000003576,7064,yes,SM,A,134.bmp,-120,120,302353,296327,304368,298337,,,,,5
1,1,0,0,0,3,prac,2,1,m,Fri Feb 28 2025 18:48:40 GMT-0600 (Central Standard Time),326807.60000002384,O,m,1525,6,1,136.bmp,-120,-120,137.bmp,120,-120,138.bmp,-120,120,139.bmp,120,120,10344.800000011921,316462.8000000119,7064,no,SM,A,139.bmp,-120,-120,312649,306620,314666,308634,,,,,6
2,0,1,0,0,4,prac,2,1,m,Fri Feb 28 2025 18:48:40 GMT-0600 (Central Standard Time),337105.5,O,m,1465,7,1,140.bmp,-120,-120,141.bmp,120,-120,142.bmp,-120,120,143.bmp,120,120,10291.899999976158,326813.60000002384,7064,no,SM,A,140.bmp,120,-120,322996,316971,325013,318981,,,,,7
4,0,0,0,1,5,prac,2,1,z,Fri Feb 28 2025 18:48:40 GMT-0600 (Central Standard Time),347500.8000000119,O,z,1582,8,1,144.bmp,-120,-120,145.bmp,120,-120,146.bmp,-120,120,147.bmp,120,120,10391.199999988079,337109.60000002384,7064,yes,SM,A,147.bmp,120,120,333291,327267,335309,329278,,,,,8
4,0,0,0,1,1,test,1,1,m,Fri Feb 28 2025 18:48:40 GMT-0600 (Central Standard Time),377941.0,O,m,1616,1,1,148.bmp,-120,-120,149.bmp,120,-120,150.bmp,-120,120,143.bmp,120,120,9661.199999988079,368279.8000000119,7064,no,SM,A,150.bmp,120,120,333291,327267,335309,329278,364465.0,358437.0,366481.0,360449.0,1
2,0,1,0,0,1,test,1,0,m,Fri Feb 28 2025 18:48:40 GMT-0600 (Central Standard Time),388004.7000000477,O,None,2016,2,1,101.bmp,-120,-120,102.bmp,120,-120,103.bmp,-120,120,104.bmp,120,120,10059.900000035763,377944.8000000119,7064,no,SM,A,103.bmp,120,-120,333291,327267,335309,329278,374129.0,368102.0,376145.0,370115.0,2
1,1,0,0,0,2,test,1,1,z,Fri Feb 28 2025 18:48:40 GMT-0600 (Central Standard Time),397466.5,O,z,1405,3,1,105.bmp,-120,-120,106.bmp,120,-120,107.bmp,-120,120,108.bmp,120,120,9455.799999952316,388010.7000000477,7064,yes,SM,A,105.bmp,-120,-120,333291,327267,335309,329278,384192.0,378168.0,386209.0,380177.0,3
3,0,0,1,0,2,test,1,0,m,Fri Feb 28 2025 18:48:40 GMT-0600 (Central Standard Time),407412.2000000477,O,z,1884,4,1,109.bmp,-120,-120,110.bmp,120,-120,111.bmp,-120,120,112.bmp,120,120,9941.800000011921,397470.40000003576,7064,no,SM,A,109.bmp,-120,120,333291,327267,335309,329278,393656.0,387628.0,395674.0,389641.0,4
2,0,1,0,0,3,test,1,1,z,Fri Feb 28 2025 18:48:40 GMT-0600 (Central Standard Time),417410.5,O,z,1948,5,1,113.bmp,-120,-120,114.bmp,120,-120,115.bmp,-120,120,116.bmp,120,120,9996.099999964237,407414.40000003576,7064,yes,SM,A,114.bmp,120,-120,333291,327267,335309,329278,403602.0,397572.0,405619.0,399588.0,5
3,0,0,1,0,4,test,1,1,z,Fri Feb 28 2025 18:48:40 GMT-0600 (Central Standard Time),426940.2000000477,O,z,1478,6,1,117.bmp,-120,-120,118.bmp,120,-120,119.bmp,-120,120,120.bmp,120,120,9527.0,417413.2000000477,7064,yes,SM,A,119.bmp,-120,120,333291,327267,335309,329278,413600.0,407570.0,415617.0,409584.0,6
4,0,0,0,1,5,test,1,1,z,Fri Feb 28 2025 18:48:40 GMT-0600 (Central Standard Time),436307.10000002384,O,z,1309,7,1,121.bmp,-120,-120,122.bmp,120,-120,123.bmp,-120,120,124.bmp,120,120,9363.899999976158,426943.2000000477,7064,yes,SM,A,124.bmp,120,120,333291,327267,335309,329278,423129.0,417100.0,425146.0,419113.0,7
2,0,1,0,0,6,test,1,1,m,Fri Feb 28 2025 18:48:40 GMT-0600 (Central Standard Time),445951.90000003576,O,m,1584,8,1,125.bmp,-120,-120,126.bmp,120,-120,127.bmp,-120,120,128.bmp,120,120,9640.100000023842,436311.8000000119,7064,no,SM,A,125.bmp,120,-120,333291,327267,335309,329278,432493.0,426469.0,434511.0,428478.0,8
3,0,0,1,0,7,test,1,1,m,Fri Feb 28 2025 18:48:40 GMT-0600 (Central Standard Time),455815.5,O,m,1802,9,1,129.bmp,-120,-120,130.bmp,120,-120,131.bmp,-120,120,132.bmp,120,120,9860.299999952316,445955.2000000477,7064,no,SM,A,130.bmp,-120,120,333291,327267,335309,329278,442141.0,436112.0,444157.0,438128.0,9
4,0,0,0,1,7,test,1,0,z,Fri Feb 28 2025 18:48:40 GMT-0600 (Central Standard Time),465878.60000002384,O,None,2015,10,1,137.bmp,-120,-120,138.bmp,120,-120,139.bmp,-120,120,140.bmp,120,120,10059.0,455819.60000002384,7064,yes,SM,A,140.bmp,120,120,333291,327267,335309,329278,452004.0,445977.0,454021.0,447990.0,10
3,0,0,1,0,7,test,1,0,z,Fri Feb 28 2025 18:48:40 GMT-0600 (Central Standard Time),475942.90000003576,O,None,2017,11,1,133.bmp,-120,-120,134.bmp,120,-120,135.bmp,-120,120,136.bmp,120,120,10061.100000023842,465881.8000000119,7064,yes,SM,A,135.bmp,-120,120,333291,327267,335309,329278,462067.0,456039.0,464083.0,458053.0,11
2,0,1,0,0,8,test,1,1,m,Fri Feb 28 2025 18:48:40 GMT-0600 (Central Standard Time),485405.2000000477,O,m,1403,12,1,141.bmp,-120,-120,142.bmp,120,-120,143.bmp,-120,120,144.bmp,120,120,9458.900000035763,475946.3000000119,7064,no,SM,A,141.bmp,120,-120,333291,327267,335309,329278,472132.0,466104.0,474147.0,468117.0,12
3,0,0,1,0,9,test,1,1,m,Fri Feb 28 2025 18:48:40 GMT-0600 (Central Standard Time),495118.7000000477,O,m,1650,13,1,145.bmp,-120,-120,146.bmp,120,-120,147.bmp,-120,120,148.bmp,120,120,9709.700000047684,485409.0,7064,no,SM,A,146.bmp,-120,120,333291,327267,335309,329278,481594.0,475566.0,483612.0,477579.0,13
1,1,0,0,0,10,test,1,1,z,Fri Feb 28 2025 18:48:40 GMT-0600 (Central Standard Time),504883.7000000477,O,z,1705,14,1,149.bmp,-120,-120,150.bmp,120,-120,104.bmp,-120,120,101.bmp,120,120,9761.400000035763,495122.3000000119,7064,yes,SM,A,149.bmp,-120,-120,333291,327267,335309,329278,491309.0,485280.0,493325.0,487292.0,14
4,0,0,0,1,10,test,1,0,m,Fri Feb 28 2025 18:48:40 GMT-0600 (Central Standard Time),514512.90000003576,O,z,1590,15,1,110.bmp,-120,-120,111.bmp,120,-120,112.bmp,-120,120,113.bmp,120,120,9626.5,504886.40000003576,7064,no,SM,A,111.bmp,120,120,333291,327267,335309,329278,501071.0,495044.0,503072.0,497055.0,15
1,1,0,0,0,11,test,1,1,m,Fri Feb 28 2025 18:48:40 GMT-0600 (Central Standard Time),524010.0,O,m,1456,16,1,102.bmp,-120,-120,103.bmp,120,-120,104.bmp,-120,120,105.bmp,120,120,9493.5,514516.5,7064,no,SM,A,105.bmp,-120,-120,333291,327267,335309,329278,510702.0,504674.0,512704.0,506686.0,16
3,0,0,1,0,11,test,1,0,m,Fri Feb 28 2025 18:48:40 GMT-0600 (Central Standard Time),534073.4000000358,O,None,2013,17,1,122.bmp,-120,-120,123.bmp,120,-120,124.bmp,-120,120,125.bmp,120,120,10057.199999988079,524016.2000000477,7064,no,SM,A,122.bmp,-120,120,333291,327267,335309,329278,520200.0,514173.0,522217.0,516184.0,17
1,1,0,0,0,11,test,1,0,z,Fri Feb 28 2025 18:48:40 GMT-0600 (Central Standard Time),544138.5,O,None,2016,18,1,106.bmp,-120,-120,107.bmp,120,-120,108.bmp,-120,120,109.bmp,120,120,10060.699999988079,534077.8000000119,7064,yes,SM,A,106.bmp,-120,-120,333291,327267,335309,329278,530262.0,524235.0,532279.0,526247.0,18
2,0,1,0,0,12,test,1,1,z,Fri Feb 28 2025 18:48:40 GMT-0600 (Central Standard Time),553733.8000000119,O,z,1546,19,1,126.bmp,-120,-120,127.bmp,120,-120,128.bmp,-120,120,129.bmp,120,120,9584.0,544149.8000000119,7064,yes,SM,A,127.bmp,120,-120,333291,327267,335309,329278,540326.0,534307.0,542342.0,536312.0,19
3,0,0,1,0,13,test,1,1,z,Fri Feb 28 2025 18:48:40 GMT-0600 (Central Standard Time),563132.7000000477,O,z,1350,20,1,130.bmp,-120,-120,131.bmp,120,-120,132.bmp,-120,120,133.bmp,120,120,9393.800000011921,553738.9000000358,7064,yes,SM,A,132.bmp,-120,120,333291,327267,335309,329278,549924.0,543896.0,551939.0,545909.0,20
1,1,0,0,0,13,test,1,0,m,Fri Feb 28 2025 18:48:40 GMT-0600 (Central Standard Time),572962.0,O,z,1783,21,1,114.bmp,-120,-120,115.bmp,120,-120,116.bmp,-120,120,117.bmp,120,120,9825.599999964237,563136.4000000358,7064,no,SM,A,116.bmp,-120,-120,333291,327267,335309,329278,559320.0,553294.0,561336.0,555305.0,21
4,0,0,0,1,13,test,1,0,z,Fri Feb 28 2025 18:48:40 GMT-0600 (Central Standard Time),583025.2000000477,O,None,2015,22,1,118.bmp,-120,-120,119.bmp,120,-120,120.bmp,-120,120,121.bmp,120,120,10058.600000023842,572966.6000000238,7064,yes,SM,A,121.bmp,120,120,333291,327267,335309,329278,569152.0,563124.0,571167.0,565135.0,22
1,1,0,0,0,14,test,1,1,m,Fri Feb 28 2025 18:48:40 GMT-0600 (Central Standard Time),592788.5,O,m,1714,23,1,134.bmp,-120,-120,135.bmp,120,-120,136.bmp,-120,120,137.bmp,120,120,9758.599999964237,583029.9000000358,7064,no,SM,A,137.bmp,-120,-120,333291,327267,335309,329278,579215.0,573187.0,581231.0,575199.0,23
2,0,1,0,0,15,test,1,1,z,Fri Feb 28 2025 18:48:40 GMT-0600 (Central Standard Time),602152.3000000119,O,z,1302,24,1,142.bmp,-120,-120,143.bmp,120,-120,144.bmp,-120,120,145.bmp,120,120,9360.0,592792.3000000119,7064,yes,SM,A,143.bmp,120,-120,333291,327267,335309,329278,588977.0,582950.0,590993.0,584963.0,24
4,0,0,0,1,16,test,1,1,m,Fri Feb 28 2025 18:48:40 GMT-0600 (Central Standard Time),611683.2000000477,O,m,1464,25,1,146.bmp,-120,-120,147.bmp,120,-120,148.bmp,-120,120,149.bmp,120,120,9527.200000047684,602156.0,7064,no,SM,A,148.bmp,120,120,333291,327267,335309,329278,598340.0,592313.0,600359.0,594326.0,25
1,1,0,0,0,16,test,1,0,z,Fri Feb 28 2025 18:48:40 GMT-0600 (Central Standard Time),621746.2000000477,O,None,2015,26,1,138.bmp,-120,-120,139.bmp,120,-120,140.bmp,-120,120,141.bmp,120,120,10058.900000035763,611687.3000000119,7064,yes,SM,A,138.bmp,-120,-120,333291,327267,335309,329278,607872.0,601845.0,609888.0,603856.0,26
4,0,0,0,1,17,test,1,1,z,Fri Feb 28 2025 18:48:40 GMT-0600 (Central Standard Time),631342.2000000477,O,z,1544,27,1,150.bmp,-120,-120,111.bmp,120,-120,101.bmp,-120,120,102.bmp,120,120,9592.600000023842,621749.6000000238,7064,yes,SM,A,102.bmp,120,120,333291,327267,335309,329278,617935.0,611907.0,619951.0,613920.0,27
3,0,0,1,0,18,test,1,1,m,Fri Feb 28 2025 18:48:40 GMT-0600 (Central Standard Time),640922.7000000477,O,m,1524,28,1,103.bmp,-120,-120,104.bmp,120,-120,105.bmp,-120,120,106.bmp,120,120,9577.200000047684,631345.5,7064,no,SM,A,103.bmp,-120,120,333291,327267,335309,329278,627532.0,621503.0,629548.0,623517.0,28
2,0,1,0,0,19,test,1,1,z,Fri Feb 28 2025 18:48:40 GMT-0600 (Central Standard Time),650786.9000000358,O,z,1806,29,1,107.bmp,-120,-120,108.bmp,120,-120,109.bmp,-120,120,110.bmp,120,120,9860.600000023842,640926.3000000119,7064,yes,SM,A,108.bmp,120,-120,333291,327267,335309,329278,637113.0,631084.0,639129.0,633097.0,29
3,0,0,1,0,20,test,1,1,z,Fri Feb 28 2025 18:48:40 GMT-0600 (Central Standard Time),660083.5,O,z,1239,30,1,111.bmp,-120,-120,112.bmp,120,-120,113.bmp,-120,120,114.bmp,120,120,9292.5,650791.0,7064,yes,SM,A,113.bmp,-120,120,333291,327267,335309,329278,646975.0,640948.0,648992.0,642960.0,30
1,1,0,0,0,21,test,1,1,z,Fri Feb 28 2025 18:48:40 GMT-0600 (Central Standard Time),670013.5,O,z,1894,31,1,115.bmp,-120,-120,116.bmp,120,-120,117.bmp,-120,120,118.bmp,120,120,9926.799999952316,660086.7000000477,7064,yes,SM,A,115.bmp,-120,-120,333291,327267,335309,329278,656271.0,650244.0,658273.0,652257.0,31
2,0,1,0,0,22,test,1,1,m,Fri Feb 28 2025 18:48:40 GMT-0600 (Central Standard Time),679411.9000000358,O,m,1349,32,1,119.bmp,-120,-120,120.bmp,120,-120,121.bmp,-120,120,122.bmp,120,120,9394.199999988079,670017.7000000477,7064,no,SM,A,119.bmp,120,-120,333291,327267,335309,329278,666203.0,660175.0,668219.0,662188.0,32
4,0,0,0,1,22,test,1,0,z,Fri Feb 28 2025 18:48:40 GMT-0600 (Central Standard Time),689475.7000000477,O,None,2016,33,1,131.bmp,-120,-120,132.bmp,120,-120,133.bmp,-120,120,134.bmp,120,120,10060.0,679415.7000000477,7064,yes,SM,A,134.bmp,120,120,333291,327267,335309,329278,675600.0,669573.0,677617.0,671585.0,33
2,0,1,0,0,23,test,1,1,z,Fri Feb 28 2025 18:48:40 GMT-0600 (Central Standard Time),698973.0,O,z,1450,34,1,123.bmp,-120,-120,124.bmp,120,-120,125.bmp,-120,120,126.bmp,120,120,9492.5,689480.5,7064,yes,SM,A,124.bmp,120,-120,333291,327267,335309,329278,685663.0,679638.0,687680.0,681648.0,34
4,0,0,0,1,24,test,1,1,m,Fri Feb 28 2025 18:48:40 GMT-0600 (Central Standard Time),708684.3000000119,O,m,1664,35,1,127.bmp,-120,-120,128.bmp,120,-120,129.bmp,-120,120,130.bmp,120,120,9707.5,698976.8000000119,7064,no,SM,A,129.bmp,120,120,333291,327267,335309,329278,695159.0,689134.0,697176.0,691145.0,35
3,0,0,1,0,24,test,1,0,m,Fri Feb 28 2025 18:48:40 GMT-0600 (Central Standard Time),718234.5,O,z,1486,36,1,135.bmp,-120,-120,136.bmp,120,-120,137.bmp,-120,120,138.bmp,120,120,9546.899999976158,708687.6000000238,7064,no,SM,A,135.bmp,-120,120,333291,327267,335309,329278,704873.0,698845.0,706889.0,700858.0,36
1,1,0,0,0,25,test,1,1,m,Fri Feb 28 2025 18:48:40 GMT-0600 (Central Standard Time),727878.4000000358,O,m,1587,37,1,139.bmp,-120,-120,140.bmp,120,-120,141.bmp,-120,120,142.bmp,120,120,9640.600000023842,718237.8000000119,7064,no,SM,A,140.bmp,-120,-120,333291,327267,335309,329278,714420.0,708395.0,716435.0,710405.0,37
2,0,1,0,0,25,test,1,0,m,Fri Feb 28 2025 18:48:40 GMT-0600 (Central Standard Time),737941.9000000358,O,None,2014,38,1,143.bmp,-120,-120,144.bmp,120,-120,145.bmp,-120,120,146.bmp,120,120,10059.699999988079,727882.2000000477,7064,no,SM,A,145.bmp,120,-120,333291,327267,335309,329278,724068.0,718039.0,726085.0,720052.0,38
4,0,0,0,1,26,test,1,1,z,Fri Feb 28 2025 18:48:40 GMT-0600 (Central Standard Time),747723.2000000477,O,z,1716,39,1,147.bmp,-120,-120,148.bmp,120,-120,149.bmp,-120,120,150.bmp,120,120,9776.700000047684,737946.5,7064,yes,SM,A,150.bmp,120,120,333291,327267,335309,329278,734131.0,728104.0,736147.0,730116.0,39
3,0,0,1,0,27,test,1,1,m,Fri Feb 28 2025 18:48:40 GMT-0600 (Central Standard Time),757019.6000000238,O,m,1240,40,1,104.bmp,-120,-120,105.bmp,120,-120,106.bmp,-120,120,107.bmp,120,120,9292.5,747727.1000000238,7064,no,SM,A,105.bmp,-120,120,333291,327267,335309,329278,743911.0,737884.0,745927.0,739896.0,40
1,1,0,0,0,28,test,1,1,z,Fri Feb 28 2025 18:48:40 GMT-0600 (Central Standard Time),766650.2000000477,O,z,1575,41,1,108.bmp,-120,-120,109.bmp,120,-120,110.bmp,-120,120,111.bmp,120,120,9627.200000047684,757023.0,7064,yes,SM,A,108.bmp,-120,-120,333291,327267,335309,329278,753208.0,747180.0,755224.0,749193.0,41
4,0,0,0,1,28,test,1,0,z,Fri Feb 28 2025 18:48:40 GMT-0600 (Central Standard Time),776381.4000000358,O,m,1684,42,1,112.bmp,-120,-120,113.bmp,120,-120,114.bmp,-120,120,115.bmp,120,120,9726.400000035763,766655.0,7064,yes,SM,A,115.bmp,120,120,333291,327267,335309,329278,762837.0,756812.0,764854.0,758824.0,42
1,1,0,0,0,29,test,1,1,z,Fri Feb 28 2025 18:48:40 GMT-0600 (Central Standard Time),785992.9000000358,O,z,1549,43,1,116.bmp,-120,-120,117.bmp,120,-120,118.bmp,-120,120,119.bmp,120,120,9608.5,776384.4000000358,7064,yes,SM,A,116.bmp,-120,-120,333291,327267,335309,329278,772569.0,766542.0,774587.0,768554.0,43
4,0,0,0,1,30,test,1,1,m,Fri Feb 28 2025 18:48:40 GMT-0600 (Central Standard Time),795640.8000000119,O,m,1585,44,1,104.bmp,-120,-120,101.bmp,120,-120,102.bmp,-120,120,103.bmp,120,120,9645.399999976158,785995.4000000358,7064,no,SM,A,104.bmp,120,120,333291,327267,335309,329278,782183.0,776153.0,784197.0,778169.0,44
1,1,0,0,0,31,test,1,1,m,Fri Feb 28 2025 18:48:40 GMT-0600 (Central Standard Time),804921.7000000477,O,m,1224,45,1,128.bmp,-120,-120,129.bmp,120,-120,130.bmp,-120,120,131.bmp,120,120,9276.5,795645.2000000477,7064,no,SM,A,131.bmp,-120,-120,333291,327267,335309,329278,791831.0,785802.0,793847.0,787815.0,45
1,1,0,0,0,32,test,1,1,m,Fri Feb 28 2025 18:48:40 GMT-0600 (Central Standard Time),814467.1000000238,O,m,1488,46,1,120.bmp,-120,-120,121.bmp,120,-120,122.bmp,-120,120,123.bmp,120,120,9542.399999976158,804924.7000000477,7064,no,SM,A,121.bmp,-120,-120,333291,327267,335309,329278,801110.0,795082.0,803128.0,797094.0,46
3,0,0,1,0,32,test,1,0,z,Fri Feb 28 2025 18:48:40 GMT-0600 (Central Standard Time),824514.1000000238,O,None,2013,47,1,124.bmp,-120,-120,125.bmp,120,-120,126.bmp,-120,120,127.bmp,120,120,10042.899999976158,814471.2000000477,7064,yes,SM,A,126.bmp,-120,120,333291,327267,335309,329278,810656.0,804628.0,812658.0,806641.0,47
3,0,0,1,0,32,test,1,0,z,Fri Feb 28 2025 18:48:40 GMT-0600 (Central Standard Time),834577.5,O,None,2015,48,1,140.bmp,-120,-120,141.bmp,120,-120,142.bmp,-120,120,143.bmp,120,120,10060.0,824517.5,7064,yes,SM,A,142.bmp,-120,120,333291,327267,335309,329278,820703.0,814675.0,822720.0,816688.0,48
2,0,1,0,0,33,test,1,1,z,Fri Feb 28 2025 18:48:40 GMT-0600 (Central Standard Time),843941.7000000477,O,z,1304,49,1,136.bmp,-120,-120,137.bmp,120,-120,138.bmp,-120,120,139.bmp,120,120,9361.700000047684,834580.0,7064,yes,SM,A,137.bmp,120,-120,333291,327267,335309,329278,830768.0,824737.0,832782.0,826752.0,49
3,0,0,1,0,33,test,1,0,m,Fri Feb 28 2025 18:48:40 GMT-0600 (Central Standard Time),853705.0,O,z,1709,50,1,132.bmp,-120,-120,133.bmp,120,-120,134.bmp,-120,120,135.bmp,120,120,9759.299999952316,843945.7000000477,7064,no,SM,A,132.bmp,-120,120,333291,327267,335309,329278,840130.0,834103.0,842146.0,836114.0,50
2,0,1,0,0,34,test,1,1,z,Fri Feb 28 2025 18:48:40 GMT-0600 (Central Standard Time),863619.1000000238,O,z,1856,51,1,144.bmp,-120,-120,145.bmp,120,-120,146.bmp,-120,120,147.bmp,120,120,9910.699999988079,853708.4000000358,7064,yes,SM,A,145.bmp,120,-120,333291,327267,335309,329278,849894.0,843866.0,851911.0,845879.0,51
4,0,0,0,1,35,test,1,1,m,Fri Feb 28 2025 18:48:40 GMT-0600 (Central Standard Time),873199.6000000238,O,m,1526,52,1,148.bmp,-120,-120,149.bmp,120,-120,150.bmp,-120,120,131.bmp,120,120,9577.100000023842,863622.5,7064,no,SM,A,148.bmp,120,120,333291,327267,335309,329278,859808.0,853780.0,861825.0,855792.0,52
3,0,0,1,0,36,test,1,1,z,Fri Feb 28 2025 18:48:40 GMT-0600 (Central Standard Time),883212.6000000238,O,z,1955,53,1,101.bmp,-120,-120,102.bmp,120,-120,103.bmp,-120,120,104.bmp,120,120,10010.0,873202.6000000238,7064,yes,SM,A,103.bmp,-120,120,333291,327267,335309,329278,869386.0,863360.0,871404.0,865372.0,53
1,1,0,0,0,36,test,1,0,m,Fri Feb 28 2025 18:48:40 GMT-0600 (Central Standard Time),893275.5,O,None,2014,54,1,105.bmp,-120,-120,106.bmp,120,-120,107.bmp,-120,120,108.bmp,120,120,10060.299999952316,883215.2000000477,7064,no,SM,A,107.bmp,-120,-120,333291,327267,335309,329278,879401.0,873372.0,881418.0,875387.0,54
4,0,0,0,1,37,test,1,1,z,Fri Feb 28 2025 18:48:40 GMT-0600 (Central Standard Time),902908.0,O,z,1583,55,1,109.bmp,-120,-120,110.bmp,120,-120,111.bmp,-120,120,112.bmp,120,120,9624.899999976158,893283.1000000238,7064,yes,SM,A,112.bmp,120,120,333291,327267,335309,329278,889466.0,883440.0,891482.0,885449.0,55
2,0,1,0,0,38,test,1,1,m,Fri Feb 28 2025 18:48:40 GMT-0600 (Central Standard Time),912736.0,O,m,1775,56,1,113.bmp,-120,-120,114.bmp,120,-120,115.bmp,-120,120,116.bmp,120,120,9824.0,902912.0,7064,no,SM,A,113.bmp,120,-120,333291,327267,335309,329278,899096.0,893069.0,901112.0,895081.0,56
4,0,0,0,1,39,test,1,1,m,Fri Feb 28 2025 18:48:40 GMT-0600 (Central Standard Time),922484.4000000358,O,m,1700,57,1,117.bmp,-120,-120,118.bmp,120,-120,119.bmp,-120,120,120.bmp,120,120,9745.100000023842,912739.3000000119,7064,no,SM,A,118.bmp,120,120,333291,327267,335309,329278,908926.0,902897.0,910941.0,904911.0,57
3,0,0,1,0,39,test,1,0,z,Fri Feb 28 2025 18:48:40 GMT-0600 (Central Standard Time),931913.4000000358,O,m,1373,58,1,121.bmp,-120,-120,122.bmp,120,-120,123.bmp,-120,120,124.bmp,120,120,9424.900000035763,922488.5,7064,yes,SM,A,123.bmp,-120,120,333291,327267,335309,329278,918672.0,912646.0,920689.0,914657.0,58
2,0,1,0,0,40,test,1,1,m,Fri Feb 28 2025 18:48:40 GMT-0600 (Central Standard Time),941361.5,O,m,1391,59,1,125.bmp,-120,-120,126.bmp,120,-120,127.bmp,-120,120,128.bmp,120,120,9444.199999988079,931917.3000000119,7064,no,SM,A,128.bmp,120,-120,333291,327267,335309,329278,928103.0,922074.0,930120.0,924089.0,59
1,1,0,0,0,41,test,1,1,z,Fri Feb 28 2025 18:48:40 GMT-0600 (Central Standard Time),950823.2000000477,O,z,1408,60,1,129.bmp,-120,-120,130.bmp,120,-120,131.bmp,-120,120,132.bmp,120,120,9458.200000047684,941365.0,7064,yes,SM,A,129.bmp,-120,-120,333291,327267,335309,329278,937550.0,931522.0,939567.0,933535.0,60
2,0,1,0,0,42,test,1,1,z,Fri Feb 28 2025 18:48:40 GMT-0600 (Central Standard Time),960104.2000000477,O,z,1233,61,1,133.bmp,-120,-120,134.bmp,120,-120,135.bmp,-120,120,136.bmp,120,120,9277.5,950826.7000000477,7064,yes,SM,A,134.bmp,120,-120,333291,327267,335309,329278,947001.0,940984.0,949013.0,942998.0,61
4,0,0,0,1,42,test,1,0,z,Fri Feb 28 2025 18:48:40 GMT-0600 (Central Standard Time),970168.9000000358,O,None,2015,62,1,141.bmp,-120,-120,142.bmp,120,-120,143.bmp,-120,120,144.bmp,120,120,10061.0,960107.9000000358,7064,yes,SM,A,144.bmp,120,120,333291,327267,335309,329278,956295.0,950265.0,958311.0,952278.0,62
1,1,0,0,0,42,test,1,0,m,Fri Feb 28 2025 18:48:40 GMT-0600 (Central Standard Time),979265.1000000238,O,z,1041,63,1,145.bmp,-120,-120,146.bmp,120,-120,147.bmp,-120,120,148.bmp,120,120,9091.800000011921,970173.3000000119,7064,no,SM,A,145.bmp,-120,120,333291,327267,335309,329278,966358.0,960330.0,968374.0,962343.0,63
2,0,1,0,0,43,test,1,1,z,Fri Feb 28 2025 18:48:40 GMT-0600 (Central Standard Time),988713.5,O,z,1390,64,1,149.bmp,-120,-120,150.bmp,120,-120,112.bmp,-120,120,101.bmp,120,120,9445.5,979268.0,7064,yes,SM,A,150.bmp,120,-120,333291,327267,335309,329278,975454.0,969425.0,977473.0,971438.0,64
4,0,0,0,1,44,test,1,1,m,Fri Feb 28 2025 18:48:40 GMT-0600 (Central Standard Time),998227.2000000477,O,m,1466,65,1,102.bmp,-120,-120,103.bmp,120,-120,104.bmp,-120,120,105.bmp,120,120,9510.700000047684,988716.5,7064,no,SM,A,104.bmp,120,120,333291,327267,335309,329278,984900.0,978874.0,986918.0,980886.0,65
3,0,0,1,0,45,test,1,1,m,Fri Feb 28 2025 18:48:40 GMT-0600 (Central Standard Time),1007973.1000000238,O,m,1685,66,1,106.bmp,-120,-120,107.bmp,120,-120,108.bmp,-120,120,109.bmp,120,120,9741.600000023842,998231.5,7064,no,SM,A,109.bmp,-120,120,333291,327267,335309,329278,994416.0,988389.0,996433.0,990400.0,66
2,0,1,0,0,46,test,1,1,m,Fri Feb 28 2025 18:48:40 GMT-0600 (Central Standard Time),1017286.5,O,m,1268,67,1,137.bmp,-120,-120,138.bmp,120,-120,139.bmp,-120,120,140.bmp,120,120,9301.899999976158,1007984.6000000238,7064,no,SM,A,139.bmp,120,-120,333291,327267,335309,329278,1004144.0,998142.0,1006162.0,1000143.0,67
3,0,0,1,0,47,test,1,1,z,Fri Feb 28 2025 18:48:40 GMT-0600 (Central Standard Time),1027216.9000000358,O,z,1875,68,1,110.bmp,-120,-120,111.bmp,120,-120,112.bmp,-120,120,113.bmp,120,120,9926.100000023842,1017290.8000000119,7064,yes,SM,A,112.bmp,-120,120,333291,327267,335309,329278,1013476.0,1007448.0,1015492.0,1009460.0,68
1,1,0,0,0,47,test,1,0,m,Fri Feb 28 2025 18:48:40 GMT-0600 (Central Standard Time),1036630.1000000238,O,z,1360,69,1,114.bmp,-120,-120,115.bmp,120,-120,116.bmp,-120,120,117.bmp,120,120,9409.399999976158,1027220.7000000477,7064,no,SM,A,115.bmp,-120,-120,333291,327267,335309,329278,1023405.0,1017378.0,1025423.0,1019391.0,69
2,0,1,0,0,48,test,1,1,m,Fri Feb 28 2025 18:48:40 GMT-0600 (Central Standard Time),1046243.7000000477,O,m,1556,70,1,118.bmp,-120,-120,119.bmp,120,-120,120.bmp,-120,120,121.bmp,120,120,9610.300000011921,1036633.4000000358,7064,no,SM,A,120.bmp,120,-120,333291,327267,335309,329278,1032819.0,1026791.0,1034835.0,1028804.0,70
4,0,0,0,1,49,test,1,1,z,Fri Feb 28 2025 18:48:40 GMT-0600 (Central Standard Time),1055573.800000012,O,z,1295,71,1,122.bmp,-120,-120,123.bmp,120,-120,124.bmp,-120,120,125.bmp,120,120,9326.5,1046247.3000000119,7064,yes,SM,A,125.bmp,120,120,333291,327267,335309,329278,1042430.0,1036404.0,1044432.0,1038420.0,71
1,1,0,0,0,50,test,1,1,z,Fri Feb 28 2025 18:48:40 GMT-0600 (Central Standard Time),1065071.5,O,z,1435,72,1,126.bmp,-120,-120,127.bmp,120,-120,128.bmp,-120,120,129.bmp,120,120,9494.699999988079,1055576.800000012,7064,yes,SM,A,126.bmp,-120,-120,333291,327267,335309,329278,1051764.0,1045734.0,1053780.0,1047749.0,72
2,0,1,0,0,50,test,1,0,z,Fri Feb 28 2025 18:48:40 GMT-0600 (Central Standard Time),1075134.7000000477,O,None,2015,73,1,130.bmp,-120,-120,131.bmp,120,-120,132.bmp,-120,120,133.bmp,120,120,10059.600000023842,1065075.1000000238,7064,yes,SM,A,131.bmp,120,-120,333291,327267,335309,329278,1061260.0,1055232.0,1063277.0,1057245.0,73
4,0,0,0,1,51,test,1,1,m,Fri Feb 28 2025 18:48:40 GMT-0600 (Central Standard Time),1084513.0,O,m,1320,74,1,134.bmp,-120,-120,135.bmp,120,-120,136.bmp,-120,120,137.bmp,120,120,9373.199999988079,1075139.800000012,7064,no,SM,A,136.bmp,120,120,333291,327267,335309,329278,1071324.0,1065297.0,1073341.0,1067310.0,74
2,0,1,0,0,51,test,1,0,m,Fri Feb 28 2025 18:48:40 GMT-0600 (Central Standard Time),1094179.5,O,z,1600,75,1,138.bmp,-120,-120,139.bmp,120,-120,140.bmp,-120,120,141.bmp,120,120,9664.299999952316,1084515.2000000477,7064,no,SM,A,141.bmp,120,-120,333291,327267,335309,329278,1080704.0,1074672.0,1082721.0,1076688.0,75
1,1,0,0,0,52,test,1,1,z,Fri Feb 28 2025 18:48:40 GMT-0600 (Central Standard Time),1103843.800000012,O,z,1615,76,1,142.bmp,-120,-120,143.bmp,120,-120,144.bmp,-120,120,145.bmp,120,120,9660.699999988079,1094183.1000000238,7064,yes,SM,A,142.bmp,-120,-120,333291,327267,335309,329278,1090367.0,1084340.0,1092385.0,1086352.0,76
3,0,0,1,0,52,test,1,0,z,Fri Feb 28 2025 18:48:40 GMT-0600 (Central Standard Time),1113655.0,O,m,1758,77,1,150.bmp,-120,-120,111.bmp,120,-120,101.bmp,-120,120,102.bmp,120,120,9806.399999976158,1103848.6000000238,7064,yes,SM,A,101.bmp,-120,120,333291,327267,335309,329278,1100032.0,1094006.0,1102049.0,1096017.0,77
1,1,0,0,0,53,test,1,1,m,Fri Feb 28 2025 18:48:40 GMT-0600 (Central Standard Time),1123385.5,O,m,1667,78,1,146.bmp,-120,-120,147.bmp,120,-120,148.bmp,-120,120,149.bmp,120,120,9727.399999976158,1113658.1000000238,7064,no,SM,A,147.bmp,-120,-120,333291,327267,335309,329278,1109844.0,1103815.0,1111861.0,1105830.0,78
4,0,0,0,1,54,test,1,1,m,Fri Feb 28 2025 18:48:40 GMT-0600 (Central Standard Time),1133115.800000012,O,m,1671,79,1,107.bmp,-120,-120,108.bmp,120,-120,109.bmp,-120,120,110.bmp,120,120,9727.0,1123388.800000012,7064,no,SM,A,107.bmp,120,120,333291,327267,335309,329278,1119577.0,1113546.0,1121592.0,1115562.0,79
3,0,0,1,0,55,test,1,1,m,Fri Feb 28 2025 18:48:40 GMT-0600 (Central Standard Time),1142881.6000000238,O,m,1717,80,1,103.bmp,-120,-120,104.bmp,120,-120,105.bmp,-120,120,106.bmp,120,120,9763.300000011921,1133118.300000012,7064,no,SM,A,106.bmp,-120,120,333291,327267,335309,329278,1129304.0,1123276.0,1131306.0,1125289.0,80
