acc_sum,block_c,block_dur,condition,correct,correct_response,countdown,datetime,endtime,project,response,response_time,response_time_test1_response,response_time_test2_response,row_sel,same,session_number,start_end,starttime,stim1,stim2,subject_id,task,task_vers,time_test1,time_test2,trial
1,1,0.0,prac,1,z,30000.0,Mon Mar 10 2025 16:13:08 GMT-0500 (Central Daylight Time),47923.89999997616,O,z,3756,,,6,yes,1,5288.0,42635.89999997616,CSDBFPHXZ,CSDBFPHXZ,7076,LC,C,,,1
2,1,0.0,prac,1,z,30000.0,Mon Mar 10 2025 16:13:08 GMT-0500 (Central Daylight Time),50573.39999997616,O,z,1110,,,4,yes,1,2643.300000011921,47930.09999996424,RSM,RSM,7076,LC,C,,,2
3,1,0.0,prac,1,z,30000.0,Mon Mar 10 2025 16:13:08 GMT-0500 (Central Daylight Time),53887.19999998808,O,z,1781,,,2,yes,1,3306.800000011921,50580.39999997616,NBGFSM,NBGFSM,7076,LC,C,,,3
4,1,0.0,prac,1,m,30000.0,Mon Mar 10 2025 16:13:08 GMT-0500 (Central Daylight Time),58070.89999997616,O,m,2645,,,5,no,1,4179.300000011921,53891.59999996424,LNDPRSKQB,LNDPRSJQB,7076,LC,C,,,4
5,1,0.0,prac,1,m,30000.0,Mon Mar 10 2025 16:13:08 GMT-0500 (Central Daylight Time),62786.89999997616,O,m,3181,,,3,no,1,4710.800000011921,58076.09999996424,QHZXPC,QHZWPC,7076,LC,C,,,5
6,1,0.0,prac,1,m,30000.0,Mon Mar 10 2025 16:13:08 GMT-0500 (Central Daylight Time),65350.59999996424,O,m,1039,,,1,no,1,2556.099999964237,62794.5,RNV,FNV,7076,LC,C,,,6
1,1,1.8350000381469727,test,1,m,28164.999961853027,Mon Mar 10 2025 16:13:08 GMT-0500 (Central Daylight Time),76681.5,O,m,1822,1822,,1,no,1,1831.300000011921,74850.19999998808,HCF,RCF,7076,LC,C,72912,,1
2,1,4.401000022888184,test,1,m,25598.999977111816,Mon Mar 10 2025 16:13:08 GMT-0500 (Central Daylight Time),79247.09999996424,O,m,2556,2556,,2,no,1,2562.199999988079,76684.89999997616,QTPRJX,QTPNJX,7076,LC,C,74747,,2
3,1,7.133000135421753,test,1,m,22866.999864578247,Mon Mar 10 2025 16:13:08 GMT-0500 (Central Daylight Time),81979.29999995232,O,m,2728,2728,,3,no,1,2728.7999999523163,79250.5,MZDYGVGKQ,MZDYGLBKQ,7076,LC,C,77312,,3
4,1,8.299999952316284,test,1,m,21700.000047683716,Mon Mar 10 2025 16:13:08 GMT-0500 (Central Daylight Time),83146.29999995232,O,m,1155,1155,,4,no,1,1164.0,81982.29999995232,FQTNMK,JQTNMK,7076,LC,C,80044,,4
5,1,9.901000022888184,test,1,z,20098.999977111816,Mon Mar 10 2025 16:13:08 GMT-0500 (Central Daylight Time),84747.19999998808,O,z,1596,1596,,5,yes,1,1597.0,83150.19999998808,CLJ,CLJ,7076,LC,C,81212,,5
6,1,11.898000001907349,test,1,m,18101.99999809265,Mon Mar 10 2025 16:13:08 GMT-0500 (Central Daylight Time),86743.79999995232,O,m,1987,1987,,6,no,1,1993.5,84750.29999995232,JGDMNSVPW,JGZMNSVPW,7076,LC,C,82812,,6
7,1,14.680999994277954,test,1,z,15319.000005722046,Mon Mar 10 2025 16:13:08 GMT-0500 (Central Daylight Time),89527.39999997616,O,z,2766,2766,,7,yes,1,2779.800000011921,86747.59999996424,FPTVHKCBJ,FPTVHKCBJ,7076,LC,C,84809,,7
8,1,16.164999961853027,test,1,m,13835.000038146973,Mon Mar 10 2025 16:13:08 GMT-0500 (Central Daylight Time),91011.59999996424,O,m,1479,1479,,8,no,1,1480.0,89531.59999996424,XRPZBS,ZRPBDH,7076,LC,C,87593,,8
9,1,17.663000106811523,test,1,m,12336.999893188477,Mon Mar 10 2025 16:13:08 GMT-0500 (Central Daylight Time),92509.0,O,m,1490,1490,,9,no,1,1493.800000011921,91015.19999998808,ZSQ,ZSP,7076,LC,C,89077,,9
10,1,19.812999963760376,test,1,z,10187.000036239624,Mon Mar 10 2025 16:13:08 GMT-0500 (Central Daylight Time),94658.79999995232,O,z,2137,2137,,10,yes,1,2146.7999999523163,92512.0,MPZRXL,MPZRXL,7076,LC,C,90574,,10
11,1,21.34599995613098,test,1,m,8654.000043869019,Mon Mar 10 2025 16:13:08 GMT-0500 (Central Daylight Time),96192.5,O,m,1514,1514,,11,no,1,1529.800000011921,94662.69999998808,KJH,KRH,7076,LC,C,92724,,11
12,1,24.210000038146973,test,1,z,5789.999961853027,Mon Mar 10 2025 16:13:08 GMT-0500 (Central Daylight Time),99056.5,O,z,2852,2852,,12,yes,1,2860.0,96196.5,SMNHVTFCB,SMNHVTFCB,7076,LC,C,94258,,12
13,1,26.144999980926514,test,1,z,3855.0000190734863,Mon Mar 10 2025 16:13:08 GMT-0500 (Central Daylight Time),100991.0,O,z,1925,1925,,13,yes,1,1930.5,99060.5,KJWTQF,KJWTQF,7076,LC,C,97122,,13
14,1,28.594000101089478,test,1,z,1405.9998989105225,Mon Mar 10 2025 16:13:08 GMT-0500 (Central Daylight Time),103440.39999997616,O,z,2438,2438,,14,yes,1,2445.0,100995.39999997616,CHDKQGLMB,CHDKQGLMB,7076,LC,C,99057,,14
15,1,29.7260000705719,test,1,z,273.9999294281006,Mon Mar 10 2025 16:13:08 GMT-0500 (Central Daylight Time),104572.0,O,z,1115,1115,,15,yes,1,1127.0,103445.0,GHQ,GHQ,7076,LC,C,101507,,15
15,1,30.01099991798401,test,0,z,-10.999917984008789,Mon Mar 10 2025 16:13:08 GMT-0500 (Central Daylight Time),104856.69999998808,O,None,279,279,,16,yes,1,280.69999998807907,104576.0,GFVMRH,GFVMRH,7076,LC,C,102638,,16
1,2,3.013000011444092,test,1,z,26986.99998855591,Mon Mar 10 2025 16:13:08 GMT-0500 (Central Daylight Time),112118.79999995232,O,z,3005,,3005.0,1,yes,1,7542.799999952316,104576.0,PRDBZTYFN,PRDBZTYFN,7076,LC,C,,107171.0,1
2,2,4.5290000438690186,test,1,m,25470.99995613098,Mon Mar 10 2025 16:13:08 GMT-0500 (Central Daylight Time),113634.89999997616,O,m,1511,,1511.0,2,no,1,9058.899999976158,104576.0,NCWJDZ,NCMJDZ,7076,LC,C,,110184.0,2
3,2,5.745000123977661,test,1,m,24254.99987602234,Mon Mar 10 2025 16:13:08 GMT-0500 (Central Daylight Time),114851.09999996424,O,m,1203,,1203.0,3,no,1,10275.099999964237,104576.0,KHW,KBW,7076,LC,C,,111699.0,3
4,2,7.7250001430511475,test,1,m,22274.999856948853,Mon Mar 10 2025 16:13:08 GMT-0500 (Central Daylight Time),116831.39999997616,O,m,1970,,1970.0,4,no,1,12255.399999976158,104576.0,ZRBGMF,ZRBCMF,7076,LC,C,,112916.0,4
5,2,9.092000007629395,test,1,m,20907.999992370605,Mon Mar 10 2025 16:13:08 GMT-0500 (Central Daylight Time),118198.79999995232,O,m,1360,,1360.0,5,no,1,13622.799999952316,104576.0,BTH,BYH,7076,LC,C,,114895.0,5
6,2,12.24399995803833,test,1,z,17756.00004196167,Mon Mar 10 2025 16:13:08 GMT-0500 (Central Daylight Time),121350.29999995232,O,z,3139,,3139.0,6,yes,1,16774.299999952316,104576.0,XWKQRYCNZ,XWKQRYCNZ,7076,LC,C,,116268.0,6
7,2,14.759999990463257,test,1,z,15240.000009536743,Mon Mar 10 2025 16:13:08 GMT-0500 (Central Daylight Time),123866.5,O,z,2505,,2505.0,7,yes,1,19290.5,104576.0,HNPDLK,HNPDLK,7076,LC,C,,119415.0,7
8,2,17.108999967575073,test,1,m,12891.000032424927,Mon Mar 10 2025 16:13:08 GMT-0500 (Central Daylight Time),126215.39999997616,O,m,2339,,2339.0,8,no,1,21639.399999976158,104576.0,WMQTRSGLZ,WMQTRZGLZ,7076,LC,C,,121932.0,8
9,2,18.192000150680542,test,1,z,11807.999849319458,Mon Mar 10 2025 16:13:08 GMT-0500 (Central Daylight Time),127298.0,O,z,1070,,1070.0,9,yes,1,22722.0,104576.0,JPN,JPN,7076,LC,C,,124281.0,9
10,2,19.79100012779236,test,1,m,10208.999872207642,Mon Mar 10 2025 16:13:08 GMT-0500 (Central Daylight Time),128897.69999998808,O,m,1587,,1587.0,10,no,1,24321.69999998808,104576.0,QLXSVT,QLNSVT,7076,LC,C,,125364.0,10
10,2,23.67300009727478,test,0,z,6326.99990272522,Mon Mar 10 2025 16:13:08 GMT-0500 (Central Daylight Time),132779.29999995232,O,m,3876,,3876.0,11,yes,1,28203.299999952316,104576.0,YXHKZVFPB,YXHKZVFPD,7076,LC,C,,126963.0,11
11,2,25.19000005722046,test,1,z,4809.999942779541,Mon Mar 10 2025 16:13:08 GMT-0500 (Central Daylight Time),134296.39999997616,O,z,1506,,1506.0,12,yes,1,29720.399999976158,104576.0,RJZ,RJZ,7076,LC,C,,130845.0,12
12,2,28.388999938964844,test,1,z,1611.0000610351562,Mon Mar 10 2025 16:13:08 GMT-0500 (Central Daylight Time),137495.39999997616,O,z,3187,,3187.0,13,yes,1,32919.39999997616,104576.0,CLNPZD,CLNPZD,7076,LC,C,,132364.0,13
12,2,30.02300000190735,test,0,m,-23.000001907348633,Mon Mar 10 2025 16:13:08 GMT-0500 (Central Daylight Time),139129.0,O,None,1626,,1626.0,14,no,1,34553.0,104576.0,DCBPFHXYJ,DCBPFHLYJ,7076,LC,C,,135564.0,14
