acc_sum,block,block_c,change,condition,correct,correct_response,datetime,endtime,face,project,response,response_time,row_sel,session_number,start_end,starttime,subject_id,task,task_vers,trial
0,prac,1,,1-Back,,,Tue Nov 12 2024 09:30:14 GMT-0600 (Central Standard Time),,093_m_f_n_a.png,O,space,13013,1,1,,,7032,NNB,C,0
0,prac,1,0.0,1-Back,0,m,Tue Nov 12 2024 09:30:14 GMT-0600 (Central Standard Time),127995.59999990463,098_y_f_n_a.png,O,None,2009,2,1,2899.7000000476837,125095.89999985695,7032,NNB,C,1
0,prac,1,1.0,1-Back,0,z,Tue Nov 12 2024 09:30:14 GMT-0600 (Central Standard Time),129961.89999985695,098_y_f_n_a.png,O,m,1157,3,1,1936.7999999523163,128025.09999990463,7032,NNB,C,2
0,prac,1,0.0,1-Back,0,m,Tue Nov 12 2024 09:30:14 GMT-0600 (Central Standard Time),132894.0,059_o_m_n_a.png,O,None,2005,4,1,2904.9000000953674,129989.09999990463,7032,NNB,C,3
1,prac,1,0.0,1-Back,1,m,Tue Nov 12 2024 09:30:14 GMT-0600 (Central Standard Time),135610.09999990463,092_m_m_n_a.png,O,m,1797,5,1,2702.5999999046326,132907.5,7032,NNB,C,4
2,prac,1,1.0,1-Back,1,z,Tue Nov 12 2024 09:30:14 GMT-0600 (Central Standard Time),137542.59999990463,092_m_m_n_a.png,O,z,1136,6,1,1911.2999999523163,135631.29999995232,7032,NNB,C,5
3,prac,1,0.0,1-Back,1,m,Tue Nov 12 2024 09:30:14 GMT-0600 (Central Standard Time),139708.59999990463,130_o_f_n_a.png,O,m,1208,7,1,2135.7000000476837,137572.89999985695,7032,NNB,C,6
4,prac,1,0.0,1-Back,1,m,Tue Nov 12 2024 09:30:14 GMT-0600 (Central Standard Time),142257.69999980927,082_m_m_n_a.png,O,m,1613,8,1,2520.5,139737.19999980927,7032,NNB,C,7
5,prac,1,0.0,1-Back,1,m,Tue Nov 12 2024 09:30:14 GMT-0600 (Central Standard Time),144556.89999985695,093_m_f_n_a.png,O,m,1363,9,1,2270.7000000476837,142286.19999980927,7032,NNB,C,8
6,prac,1,1.0,1-Back,1,z,Tue Nov 12 2024 09:30:14 GMT-0600 (Central Standard Time),146239.5,093_m_f_n_a.png,O,z,883,10,1,1651.6000001430511,144587.89999985695,7032,NNB,C,9
7,prac,1,0.0,1-Back,1,m,Tue Nov 12 2024 09:30:14 GMT-0600 (Central Standard Time),148089.09999990463,059_o_m_n_a.png,O,m,934,11,1,1833.0999999046326,146256.0,7032,NNB,C,10
8,prac,1,0.0,1-Back,1,m,Tue Nov 12 2024 09:30:14 GMT-0600 (Central Standard Time),150088.59999990463,028_y_f_n_a.png,O,m,1060,12,1,1968.7999999523163,148119.79999995232,7032,NNB,C,11
0,test,1,0.0,1-Back,,,Tue Nov 12 2024 09:30:14 GMT-0600 (Central Standard Time),150088.59999990463,098_y_f_n_a.png,O,space,9752,1,1,1968.7999999523163,148119.79999995232,7032,NNB,C,0
1,test,1,0.0,1-Back,1,m,Tue Nov 12 2024 09:30:14 GMT-0600 (Central Standard Time),171714.5,006_m_f_n_a.png,O,m,1413,2,1,2458.5,169256.0,7032,NNB,C,1
2,test,1,0.0,1-Back,1,m,Tue Nov 12 2024 09:30:14 GMT-0600 (Central Standard Time),174297.19999980927,028_y_f_n_a.png,O,m,1540,3,1,2564.899999856949,171732.29999995232,7032,NNB,C,2
3,test,1,1.0,1-Back,1,z,Tue Nov 12 2024 09:30:14 GMT-0600 (Central Standard Time),176296.39999985695,028_y_f_n_a.png,O,z,949,4,1,1981.8999998569489,174314.5,7032,NNB,C,3
4,test,1,0.0,1-Back,1,m,Tue Nov 12 2024 09:30:14 GMT-0600 (Central Standard Time),178345.79999995232,006_m_f_n_a.png,O,m,1010,5,1,2031.1000001430511,176314.69999980927,7032,NNB,C,4
5,test,1,0.0,1-Back,1,m,Tue Nov 12 2024 09:30:14 GMT-0600 (Central Standard Time),180461.59999990463,059_o_m_n_a.png,O,m,1076,6,1,2098.5999999046326,178363.0,7032,NNB,C,5
6,test,1,1.0,1-Back,1,z,Tue Nov 12 2024 09:30:14 GMT-0600 (Central Standard Time),182411.0,059_o_m_n_a.png,O,z,913,7,1,1928.0,180483.0,7032,NNB,C,6
7,test,1,0.0,1-Back,1,m,Tue Nov 12 2024 09:30:14 GMT-0600 (Central Standard Time),184427.09999990463,092_m_m_n_a.png,O,m,979,8,1,1997.9000000953674,182429.19999980927,7032,NNB,C,7
8,test,1,0.0,1-Back,1,m,Tue Nov 12 2024 09:30:14 GMT-0600 (Central Standard Time),186376.29999995232,130_o_f_n_a.png,O,m,899,9,1,1930.5,184445.79999995232,7032,NNB,C,8
9,test,1,0.0,1-Back,1,m,Tue Nov 12 2024 09:30:14 GMT-0600 (Central Standard Time),188392.79999995232,092_m_m_n_a.png,O,m,982,10,1,1997.7000000476837,186395.09999990463,7032,NNB,C,9
10,test,1,0.0,1-Back,1,m,Tue Nov 12 2024 09:30:14 GMT-0600 (Central Standard Time),190291.79999995232,057_y_m_n_a.png,O,m,862,11,1,1880.4000000953674,188411.39999985695,7032,NNB,C,10
11,test,1,1.0,1-Back,1,z,Tue Nov 12 2024 09:30:14 GMT-0600 (Central Standard Time),192124.09999990463,057_y_m_n_a.png,O,z,795,12,1,1806.0,190318.09999990463,7032,NNB,C,11
12,test,1,0.0,1-Back,1,m,Tue Nov 12 2024 09:30:14 GMT-0600 (Central Standard Time),194273.39999985695,030_o_f_n_a.png,O,m,1114,13,1,2124.2000000476837,192149.19999980927,7032,NNB,C,12
13,test,1,1.0,1-Back,1,z,Tue Nov 12 2024 09:30:14 GMT-0600 (Central Standard Time),196239.79999995232,030_o_f_n_a.png,O,z,917,14,1,1948.1000001430511,194291.69999980927,7032,NNB,C,13
14,test,1,0.0,1-Back,1,m,Tue Nov 12 2024 09:30:14 GMT-0600 (Central Standard Time),198155.89999985695,031_y_m_n_a.png,O,m,878,15,1,1898.2999999523163,196257.59999990463,7032,NNB,C,14
15,test,1,0.0,1-Back,1,m,Tue Nov 12 2024 09:30:14 GMT-0600 (Central Standard Time),200138.09999990463,093_m_f_n_a.png,O,m,947,16,1,1965.5999999046326,198172.5,7032,NNB,C,15
16,test,1,0.0,1-Back,1,m,Tue Nov 12 2024 09:30:14 GMT-0600 (Central Standard Time),201971.09999990463,146_o_m_n_a.png,O,m,796,17,1,1803.0999999046326,200168.0,7032,NNB,C,16
17,test,1,0.0,1-Back,1,m,Tue Nov 12 2024 09:30:14 GMT-0600 (Central Standard Time),203887.19999980927,093_m_f_n_a.png,O,m,867,18,1,1899.0,201988.19999980927,7032,NNB,C,17
0,test,2,0.0,1-Back,,,Tue Nov 12 2024 09:30:14 GMT-0600 (Central Standard Time),203887.19999980927,092_m_m_n_a.png,O,space,2511,1,1,1899.0,201988.19999980927,7032,NNB,C,0
1,test,2,0.0,1-Back,1,m,Tue Nov 12 2024 09:30:14 GMT-0600 (Central Standard Time),211518.0,006_m_f_n_a.png,O,m,1868,2,1,2925.300000190735,208592.69999980927,7032,NNB,C,1
2,test,2,1.0,1-Back,1,z,Tue Nov 12 2024 09:30:14 GMT-0600 (Central Standard Time),213434.09999990463,006_m_f_n_a.png,O,z,874,3,1,1897.7000000476837,211536.39999985695,7032,NNB,C,2
3,test,2,0.0,1-Back,1,m,Tue Nov 12 2024 09:30:14 GMT-0600 (Central Standard Time),215600.09999990463,092_m_m_n_a.png,O,m,1116,4,1,2147.4000000953674,213452.69999980927,7032,NNB,C,3
4,test,2,0.0,1-Back,1,m,Tue Nov 12 2024 09:30:14 GMT-0600 (Central Standard Time),217449.09999990463,057_y_m_n_a.png,O,m,814,5,1,1825.5999999046326,215623.5,7032,NNB,C,4
5,test,2,0.0,1-Back,1,m,Tue Nov 12 2024 09:30:14 GMT-0600 (Central Standard Time),219282.09999990463,098_y_f_n_a.png,O,m,789,6,1,1815.7999999523163,217466.29999995232,7032,NNB,C,5
6,test,2,1.0,1-Back,1,z,Tue Nov 12 2024 09:30:14 GMT-0600 (Central Standard Time),221364.89999985695,098_y_f_n_a.png,O,z,1044,7,1,2064.7000000476837,219300.19999980927,7032,NNB,C,6
7,test,2,0.0,1-Back,1,m,Tue Nov 12 2024 09:30:14 GMT-0600 (Central Standard Time),223680.69999980927,057_y_m_n_a.png,O,m,1273,8,1,2291.5999999046326,221389.09999990463,7032,NNB,C,7
8,test,2,0.0,1-Back,1,m,Tue Nov 12 2024 09:30:14 GMT-0600 (Central Standard Time),225513.19999980927,030_o_f_n_a.png,O,m,789,9,1,1814.2999999523163,223698.89999985695,7032,NNB,C,8
9,test,2,0.0,1-Back,1,m,Tue Nov 12 2024 09:30:14 GMT-0600 (Central Standard Time),227396.19999980927,082_m_m_n_a.png,O,m,845,10,1,1863.7999999523163,225532.39999985695,7032,NNB,C,9
10,test,2,1.0,1-Back,1,z,Tue Nov 12 2024 09:30:14 GMT-0600 (Central Standard Time),229212.09999990463,082_m_m_n_a.png,O,z,770,11,1,1796.2999999523163,227415.79999995232,7032,NNB,C,10
11,test,2,0.0,1-Back,1,m,Tue Nov 12 2024 09:30:14 GMT-0600 (Central Standard Time),231028.29999995232,030_o_f_n_a.png,O,m,770,12,1,1797.7999999523163,229230.5,7032,NNB,C,11
12,test,2,0.0,1-Back,1,m,Tue Nov 12 2024 09:30:14 GMT-0600 (Central Standard Time),232860.89999985695,130_o_f_n_a.png,O,m,777,13,1,1800.7000000476837,231060.19999980927,7032,NNB,C,12
13,test,2,0.0,1-Back,1,m,Tue Nov 12 2024 09:30:14 GMT-0600 (Central Standard Time),234726.89999985695,059_o_m_n_a.png,O,m,817,14,1,1846.8999998569489,232880.0,7032,NNB,C,13
14,test,2,0.0,1-Back,1,m,Tue Nov 12 2024 09:30:14 GMT-0600 (Central Standard Time),236526.39999985695,146_o_m_n_a.png,O,m,759,15,1,1780.7000000476837,234745.69999980927,7032,NNB,C,14
15,test,2,1.0,1-Back,1,z,Tue Nov 12 2024 09:30:14 GMT-0600 (Central Standard Time),238359.19999980927,146_o_m_n_a.png,O,z,785,16,1,1814.1999998092651,236545.0,7032,NNB,C,15
16,test,2,0.0,1-Back,1,m,Tue Nov 12 2024 09:30:14 GMT-0600 (Central Standard Time),240158.59999990463,031_y_m_n_a.png,O,m,751,17,1,1776.0,238382.59999990463,7032,NNB,C,16
17,test,2,1.0,1-Back,1,z,Tue Nov 12 2024 09:30:14 GMT-0600 (Central Standard Time),242457.59999990463,031_y_m_n_a.png,O,z,1264,18,1,2280.5,240177.09999990463,7032,NNB,C,17
0,test,3,1.0,1-Back,,,Tue Nov 12 2024 09:30:14 GMT-0600 (Central Standard Time),242457.59999990463,028_y_f_n_a.png,O,space,1588,1,1,2280.5,240177.09999990463,7032,NNB,C,0
1,test,3,0.0,1-Back,1,m,Tue Nov 12 2024 09:30:14 GMT-0600 (Central Standard Time),248305.5,146_o_m_n_a.png,O,m,1064,1,1,2079.100000143051,246226.39999985695,7032,NNB,C,1
2,test,3,1.0,1-Back,1,z,Tue Nov 12 2024 09:30:14 GMT-0600 (Central Standard Time),250155.29999995232,146_o_m_n_a.png,O,z,812,1,1,1832.4000000953674,248322.89999985695,7032,NNB,C,2
3,test,3,0.0,1-Back,1,m,Tue Nov 12 2024 09:30:14 GMT-0600 (Central Standard Time),252554.5,093_m_f_n_a.png,O,m,1355,1,1,2377.100000143051,250177.39999985695,7032,NNB,C,3
4,test,3,1.0,1-Back,1,z,Tue Nov 12 2024 09:30:14 GMT-0600 (Central Standard Time),254353.79999995232,093_m_f_n_a.png,O,z,756,1,1,1780.7000000476837,252573.09999990463,7032,NNB,C,4
5,test,3,0.0,1-Back,1,m,Tue Nov 12 2024 09:30:14 GMT-0600 (Central Standard Time),256820.0,030_o_f_n_a.png,O,m,1420,1,1,2447.4000000953674,254372.59999990463,7032,NNB,C,5
6,test,3,0.0,1-Back,1,m,Tue Nov 12 2024 09:30:14 GMT-0600 (Central Standard Time),258619.39999985695,057_y_m_n_a.png,O,m,762,1,1,1779.5,256839.89999985695,7032,NNB,C,6
7,test,3,0.0,1-Back,1,m,Tue Nov 12 2024 09:30:14 GMT-0600 (Central Standard Time),260485.19999980927,030_o_f_n_a.png,O,m,818,1,1,1845.8999998569489,258639.29999995232,7032,NNB,C,7
8,test,3,0.0,1-Back,1,m,Tue Nov 12 2024 09:30:14 GMT-0600 (Central Standard Time),262484.59999990463,031_y_m_n_a.png,O,m,953,1,1,1974.5999999046326,260510.0,7032,NNB,C,8
9,test,3,1.0,1-Back,1,z,Tue Nov 12 2024 09:30:14 GMT-0600 (Central Standard Time),264300.69999980927,031_y_m_n_a.png,O,z,778,1,1,1797.8999998569489,262502.7999999523,7032,NNB,C,9
10,test,3,0.0,1-Back,1,m,Tue Nov 12 2024 09:30:14 GMT-0600 (Central Standard Time),266353.5,006_m_f_n_a.png,O,m,1019,1,1,2034.5,264319.0,7032,NNB,C,10
11,test,3,0.0,1-Back,1,m,Tue Nov 12 2024 09:30:14 GMT-0600 (Central Standard Time),268182.5,098_y_f_n_a.png,O,m,784,1,1,1809.4000000953674,266373.09999990463,7032,NNB,C,11
11,test,3,1.0,1-Back,0,z,Tue Nov 12 2024 09:30:14 GMT-0600 (Central Standard Time),270298.59999990463,098_y_f_n_a.png,O,m,1079,1,1,2096.5999999046326,268202.0,7032,NNB,C,12
12,test,3,0.0,1-Back,1,m,Tue Nov 12 2024 09:30:14 GMT-0600 (Central Standard Time),272148.0,006_m_f_n_a.png,O,m,813,1,1,1832.1000001430511,270315.89999985695,7032,NNB,C,13
13,test,3,0.0,1-Back,1,m,Tue Nov 12 2024 09:30:14 GMT-0600 (Central Standard Time),273947.39999985695,092_m_m_n_a.png,O,m,754,1,1,1775.3999998569489,272172.0,7032,NNB,C,14
14,test,3,1.0,1-Back,1,z,Tue Nov 12 2024 09:30:14 GMT-0600 (Central Standard Time),275729.89999985695,092_m_m_n_a.png,O,z,746,1,1,1763.3999998569489,273966.5,7032,NNB,C,15
15,test,3,0.0,1-Back,1,m,Tue Nov 12 2024 09:30:14 GMT-0600 (Central Standard Time),277679.59999990463,130_o_f_n_a.png,O,m,908,1,1,1934.4000000953674,275745.19999980927,7032,NNB,C,16
16,test,3,1.0,1-Back,1,z,Tue Nov 12 2024 09:30:14 GMT-0600 (Central Standard Time),279495.7999999523,130_o_f_n_a.png,O,z,767,1,1,1796.1000001430511,277699.69999980927,7032,NNB,C,17
0,test,4,1.0,1-Back,,,Tue Nov 12 2024 09:30:14 GMT-0600 (Central Standard Time),279495.7999999523,093_m_f_n_a.png,O,space,1486,1,1,1796.1000001430511,277699.69999980927,7032,NNB,C,0
1,test,4,0.0,1-Back,1,m,Tue Nov 12 2024 09:30:14 GMT-0600 (Central Standard Time),285377.0,146_o_m_n_a.png,O,m,1190,2,1,2211.7000000476837,283165.2999999523,7032,NNB,C,1
2,test,4,0.0,1-Back,1,m,Tue Nov 12 2024 09:30:14 GMT-0600 (Central Standard Time),287826.19999980927,093_m_f_n_a.png,O,m,1405,3,1,2431.0999999046326,285395.09999990463,7032,NNB,C,2
3,test,4,0.0,1-Back,1,m,Tue Nov 12 2024 09:30:14 GMT-0600 (Central Standard Time),289909.0,030_o_f_n_a.png,O,m,1036,4,1,2065.2000000476837,287843.7999999523,7032,NNB,C,3
4,test,4,1.0,1-Back,1,z,Tue Nov 12 2024 09:30:14 GMT-0600 (Central Standard Time),291758.2999999523,030_o_f_n_a.png,O,z,801,5,1,1824.7999999523163,289933.5,7032,NNB,C,4
5,test,4,0.0,1-Back,1,m,Tue Nov 12 2024 09:30:14 GMT-0600 (Central Standard Time),293641.09999990463,098_y_f_n_a.png,O,m,840,6,1,1865.5,291775.59999990463,7032,NNB,C,5
6,test,4,0.0,1-Back,1,m,Tue Nov 12 2024 09:30:14 GMT-0600 (Central Standard Time),295424.19999980927,057_y_m_n_a.png,O,m,750,7,1,1765.8999998569489,293658.2999999523,7032,NNB,C,6
7,test,4,1.0,1-Back,1,z,Tue Nov 12 2024 09:30:14 GMT-0600 (Central Standard Time),297173.09999990463,057_y_m_n_a.png,O,z,710,8,1,1728.9000000953674,295444.19999980927,7032,NNB,C,7
8,test,4,0.0,1-Back,1,m,Tue Nov 12 2024 09:30:14 GMT-0600 (Central Standard Time),298922.69999980927,098_y_f_n_a.png,O,m,705,9,1,1731.7999999523163,297190.89999985695,7032,NNB,C,8
9,test,4,0.0,1-Back,1,m,Tue Nov 12 2024 09:30:14 GMT-0600 (Central Standard Time),300622.0,082_m_m_n_a.png,O,m,660,10,1,1681.1000001430511,298940.89999985695,7032,NNB,C,9
10,test,4,1.0,1-Back,1,z,Tue Nov 12 2024 09:30:14 GMT-0600 (Central Standard Time),302421.59999990463,082_m_m_n_a.png,O,z,752,11,1,1780.9000000953674,300640.69999980927,7032,NNB,C,10
11,test,4,0.0,1-Back,1,m,Tue Nov 12 2024 09:30:14 GMT-0600 (Central Standard Time),304254.09999990463,130_o_f_n_a.png,O,m,784,12,1,1813.2000000476837,302440.89999985695,7032,NNB,C,11
12,test,4,0.0,1-Back,1,m,Tue Nov 12 2024 09:30:14 GMT-0600 (Central Standard Time),306053.69999980927,059_o_m_n_a.png,O,m,760,13,1,1774.2999999523163,304279.39999985695,7032,NNB,C,12
13,test,4,0.0,1-Back,1,m,Tue Nov 12 2024 09:30:14 GMT-0600 (Central Standard Time),308052.89999985695,130_o_f_n_a.png,O,m,961,14,1,1977.7000000476837,306075.19999980927,7032,NNB,C,13
14,test,4,0.0,1-Back,1,m,Tue Nov 12 2024 09:30:14 GMT-0600 (Central Standard Time),309852.2999999523,028_y_f_n_a.png,O,m,762,15,1,1779.7999999523163,308072.5,7032,NNB,C,14
15,test,4,1.0,1-Back,1,z,Tue Nov 12 2024 09:30:14 GMT-0600 (Central Standard Time),311618.19999980927,028_y_f_n_a.png,O,z,722,16,1,1747.5,309870.69999980927,7032,NNB,C,15
16,test,4,0.0,1-Back,1,m,Tue Nov 12 2024 09:30:14 GMT-0600 (Central Standard Time),314417.5,006_m_f_n_a.png,O,m,1756,17,1,2780.800000190735,311636.69999980927,7032,NNB,C,16
17,test,4,1.0,1-Back,1,z,Tue Nov 12 2024 09:30:14 GMT-0600 (Central Standard Time),316233.2999999523,006_m_f_n_a.png,O,z,782,18,1,1795.4000000953674,314437.89999985695,7032,NNB,C,17
0,test,5,1.0,1-Back,,,Tue Nov 12 2024 09:30:14 GMT-0600 (Central Standard Time),316233.2999999523,059_o_m_n_a.png,O,space,1445,1,1,1795.4000000953674,314437.89999985695,7032,NNB,C,0
1,test,5,1.0,1-Back,1,z,Tue Nov 12 2024 09:30:14 GMT-0600 (Central Standard Time),322165.19999980927,059_o_m_n_a.png,O,z,1269,2,1,2295.399999856949,319869.7999999523,7032,NNB,C,1
2,test,5,0.0,1-Back,1,m,Tue Nov 12 2024 09:30:14 GMT-0600 (Central Standard Time),324031.0,098_y_f_n_a.png,O,m,825,3,1,1846.8000001907349,322184.19999980927,7032,NNB,C,2
3,test,5,0.0,1-Back,1,m,Tue Nov 12 2024 09:30:14 GMT-0600 (Central Standard Time),325913.59999990463,057_y_m_n_a.png,O,m,822,4,1,1839.4000000953674,324074.19999980927,7032,NNB,C,3
4,test,5,0.0,1-Back,1,m,Tue Nov 12 2024 09:30:14 GMT-0600 (Central Standard Time),328029.7999999523,098_y_f_n_a.png,O,m,1068,5,1,2092.9000000953674,325936.89999985695,7032,NNB,C,4
5,test,5,0.0,1-Back,1,m,Tue Nov 12 2024 09:30:14 GMT-0600 (Central Standard Time),329979.0,092_m_m_n_a.png,O,m,913,6,1,1931.8000001907349,328047.19999980927,7032,NNB,C,5
6,test,5,1.0,1-Back,1,z,Tue Nov 12 2024 09:30:14 GMT-0600 (Central Standard Time),331761.5,092_m_m_n_a.png,O,z,747,7,1,1766.1000001430511,329995.39999985695,7032,NNB,C,6
7,test,5,0.0,1-Back,1,m,Tue Nov 12 2024 09:30:14 GMT-0600 (Central Standard Time),333644.69999980927,028_y_f_n_a.png,O,m,844,8,1,1866.7999999523163,331777.89999985695,7032,NNB,C,7
8,test,5,0.0,1-Back,1,m,Tue Nov 12 2024 09:30:14 GMT-0600 (Central Standard Time),335894.39999985695,031_y_m_n_a.png,O,m,1212,9,1,2230.2999999523163,333664.09999990463,7032,NNB,C,8
9,test,5,0.0,1-Back,1,m,Tue Nov 12 2024 09:30:14 GMT-0600 (Central Standard Time),337859.7999999523,028_y_f_n_a.png,O,m,920,10,1,1941.2999999523163,335918.5,7032,NNB,C,9
10,test,5,0.0,1-Back,1,m,Tue Nov 12 2024 09:30:14 GMT-0600 (Central Standard Time),339759.0,130_o_f_n_a.png,O,m,850,11,1,1878.2000000476837,337880.7999999523,7032,NNB,C,10
11,test,5,1.0,1-Back,1,z,Tue Nov 12 2024 09:30:14 GMT-0600 (Central Standard Time),341542.0,130_o_f_n_a.png,O,z,743,12,1,1757.8000001907349,339784.19999980927,7032,NNB,C,11
12,test,5,0.0,1-Back,1,m,Tue Nov 12 2024 09:30:14 GMT-0600 (Central Standard Time),343391.0,146_o_m_n_a.png,O,m,808,13,1,1831.8000001907349,341559.19999980927,7032,NNB,C,12
13,test,5,0.0,1-Back,1,m,Tue Nov 12 2024 09:30:14 GMT-0600 (Central Standard Time),345090.59999990463,093_m_f_n_a.png,O,m,655,14,1,1682.5,343408.09999990463,7032,NNB,C,13
14,test,5,1.0,1-Back,1,z,Tue Nov 12 2024 09:30:14 GMT-0600 (Central Standard Time),346890.19999980927,093_m_f_n_a.png,O,z,756,15,1,1782.6999998092651,345107.5,7032,NNB,C,14
15,test,5,0.0,1-Back,1,m,Tue Nov 12 2024 09:30:14 GMT-0600 (Central Standard Time),348739.39999985695,146_o_m_n_a.png,O,m,812,16,1,1832.8999998569489,346906.5,7032,NNB,C,15
16,test,5,0.0,1-Back,1,m,Tue Nov 12 2024 09:30:14 GMT-0600 (Central Standard Time),350422.5,006_m_f_n_a.png,O,m,635,17,1,1655.3000001907349,348767.19999980927,7032,NNB,C,16
17,test,5,0.0,1-Back,1,m,Tue Nov 12 2024 09:30:14 GMT-0600 (Central Standard Time),352138.09999990463,082_m_m_n_a.png,O,m,680,18,1,1698.0999999046326,350440.0,7032,NNB,C,17
0,prac,1,0.0,2-Back,,,Tue Nov 12 2024 09:30:14 GMT-0600 (Central Standard Time),352138.09999990463,031_y_m_n_a.png,O,space,6067,1,1,1698.0999999046326,350440.0,7032,NNB,C,0
0,prac,1,0.0,2-Back,,,Tue Nov 12 2024 09:30:14 GMT-0600 (Central Standard Time),352138.09999990463,006_m_f_n_a.png,O,space,6067,2,1,1698.0999999046326,350440.0,7032,NNB,C,0
1,prac,1,1.0,2-Back,1,m,Tue Nov 12 2024 09:30:14 GMT-0600 (Central Standard Time),463852.09999990463,146_o_m_n_a.png,O,m,1332,3,1,2254.2000000476837,461597.89999985695,7032,NNB,C,1
1,prac,1,0.0,2-Back,0,m,Tue Nov 12 2024 09:30:14 GMT-0600 (Central Standard Time),466701.09999990463,130_o_f_n_a.png,O,z,1794,4,1,2817.5999999046326,463883.5,7032,NNB,C,2
2,prac,1,0.0,2-Back,1,z,Tue Nov 12 2024 09:30:14 GMT-0600 (Central Standard Time),469216.7999999523,146_o_m_n_a.png,O,z,1570,5,1,2484.4000000953674,466732.39999985695,7032,NNB,C,3
2,prac,1,1.0,2-Back,0,z,Tue Nov 12 2024 09:30:14 GMT-0600 (Central Standard Time),471432.59999990463,130_o_f_n_a.png,O,m,1208,6,1,2169.7000000476837,469262.89999985695,7032,NNB,C,4
2,prac,1,0.0,2-Back,0,m,Tue Nov 12 2024 09:30:14 GMT-0600 (Central Standard Time),474414.89999985695,082_m_m_n_a.png,O,None,2002,7,1,2905.2999999523163,471509.59999990463,7032,NNB,C,5
2,prac,1,0.0,2-Back,0,m,Tue Nov 12 2024 09:30:14 GMT-0600 (Central Standard Time),477380.5,059_o_m_n_a.png,O,None,2013,8,1,2936.9000000953674,474443.59999990463,7032,NNB,C,6
3,prac,1,0.0,2-Back,1,m,Tue Nov 12 2024 09:30:14 GMT-0600 (Central Standard Time),480130.0,028_y_f_n_a.png,O,m,1809,9,1,2716.4000000953674,477413.59999990463,7032,NNB,C,7
4,prac,1,1.0,2-Back,1,z,Tue Nov 12 2024 09:30:14 GMT-0600 (Central Standard Time),482779.09999990463,059_o_m_n_a.png,O,z,1707,10,1,2612.7999999523163,480166.2999999523,7032,NNB,C,8
5,prac,1,0.0,2-Back,1,m,Tue Nov 12 2024 09:30:14 GMT-0600 (Central Standard Time),485577.89999985695,098_y_f_n_a.png,O,m,1856,11,1,2769.5999999046326,482808.2999999523,7032,NNB,C,9
6,prac,1,0.0,2-Back,1,m,Tue Nov 12 2024 09:30:14 GMT-0600 (Central Standard Time),487810.59999990463,082_m_m_n_a.png,O,m,1308,12,1,2205.0,485605.59999990463,7032,NNB,C,10
0,prac,2,0.0,2-Back,,,Tue Nov 12 2024 09:30:14 GMT-0600 (Central Standard Time),487810.59999990463,031_y_m_n_a.png,O,a,6543,1,1,2205.0,485605.59999990463,7032,NNB,C,0
0,prac,2,0.0,2-Back,,,Tue Nov 12 2024 09:30:14 GMT-0600 (Central Standard Time),487810.59999990463,006_m_f_n_a.png,O,a,6543,2,1,2205.0,485605.59999990463,7032,NNB,C,0
0,prac,2,1.0,2-Back,0,m,Tue Nov 12 2024 09:30:14 GMT-0600 (Central Standard Time),502771.5,146_o_m_n_a.png,O,None,2006,3,1,2921.5,499850.0,7032,NNB,C,1
0,prac,2,0.0,2-Back,0,m,Tue Nov 12 2024 09:30:14 GMT-0600 (Central Standard Time),505704.5,130_o_f_n_a.png,O,None,2012,4,1,2923.600000143051,502780.89999985695,7032,NNB,C,2
0,prac,2,0.0,2-Back,0,z,Tue Nov 12 2024 09:30:14 GMT-0600 (Central Standard Time),508502.69999980927,146_o_m_n_a.png,O,None,2005,5,1,2770.7999999523163,505731.89999985695,7032,NNB,C,3
0,prac,2,1.0,2-Back,0,z,Tue Nov 12 2024 09:30:14 GMT-0600 (Central Standard Time),511286.0,130_o_f_n_a.png,O,None,2009,6,1,2776.4000000953674,508509.59999990463,7032,NNB,C,4
0,prac,2,0.0,2-Back,0,m,Tue Nov 12 2024 09:30:14 GMT-0600 (Central Standard Time),514217.5,082_m_m_n_a.png,O,None,2009,7,1,2904.7000000476837,511312.7999999523,7032,NNB,C,5
0,prac,2,0.0,2-Back,0,m,Tue Nov 12 2024 09:30:14 GMT-0600 (Central Standard Time),517117.59999990463,059_o_m_n_a.png,O,None,2016,8,1,2893.7000000476837,514223.89999985695,7032,NNB,C,6
0,prac,2,0.0,2-Back,0,m,Tue Nov 12 2024 09:30:14 GMT-0600 (Central Standard Time),520066.5,028_y_f_n_a.png,O,None,2003,9,1,2921.4000000953674,517145.09999990463,7032,NNB,C,7
0,prac,2,1.0,2-Back,0,z,Tue Nov 12 2024 09:30:14 GMT-0600 (Central Standard Time),522882.19999980927,059_o_m_n_a.png,O,None,2016,10,1,2783.699999809265,520098.5,7032,NNB,C,8
0,prac,2,0.0,2-Back,0,m,Tue Nov 12 2024 09:30:14 GMT-0600 (Central Standard Time),525198.399999857,098_y_f_n_a.png,O,z,1377,11,1,2287.899999856949,522910.5,7032,NNB,C,9
1,prac,2,0.0,2-Back,1,m,Tue Nov 12 2024 09:30:14 GMT-0600 (Central Standard Time),527780.6999998093,082_m_m_n_a.png,O,m,1780,12,1,2555.5,525225.1999998093,7032,NNB,C,10
0,test,1,0.0,2-Back,,,Tue Nov 12 2024 09:30:14 GMT-0600 (Central Standard Time),527780.6999998093,057_y_m_n_a.png,O,space,17037,1,1,2555.5,525225.1999998093,7032,NNB,C,0
0,test,1,0.0,2-Back,,,Tue Nov 12 2024 09:30:14 GMT-0600 (Central Standard Time),527780.6999998093,057_y_m_n_a.png,O,space,17037,2,1,2555.5,525225.1999998093,7032,NNB,C,0
1,test,1,0.0,2-Back,1,m,Tue Nov 12 2024 09:30:14 GMT-0600 (Central Standard Time),573332.5,130_o_f_n_a.png,O,m,1428,3,1,2448.2000000476837,570884.2999999523,7032,NNB,C,1
2,test,1,0.0,2-Back,1,m,Tue Nov 12 2024 09:30:14 GMT-0600 (Central Standard Time),575448.7999999523,092_m_m_n_a.png,O,m,1079,4,1,2098.0,573350.7999999523,7032,NNB,C,2
3,test,1,1.0,2-Back,1,z,Tue Nov 12 2024 09:30:14 GMT-0600 (Central Standard Time),577331.1999998093,130_o_f_n_a.png,O,z,846,5,1,1865.5,575465.6999998093,7032,NNB,C,3
4,test,1,0.0,2-Back,1,m,Tue Nov 12 2024 09:30:14 GMT-0600 (Central Standard Time),579230.2999999523,098_y_f_n_a.png,O,m,859,6,1,1880.2999999523163,577350.0,7032,NNB,C,4
4,test,1,0.0,2-Back,0,m,Tue Nov 12 2024 09:30:14 GMT-0600 (Central Standard Time),581346.2999999523,092_m_m_n_a.png,O,z,1080,7,1,2095.7000000476837,579250.5999999046,7032,NNB,C,5
5,test,1,1.0,2-Back,1,z,Tue Nov 12 2024 09:30:14 GMT-0600 (Central Standard Time),583578.899999857,098_y_f_n_a.png,O,z,1196,8,1,2210.2000000476837,581368.6999998093,7032,NNB,C,6
6,test,1,0.0,2-Back,1,m,Tue Nov 12 2024 09:30:14 GMT-0600 (Central Standard Time),585711.5999999046,031_y_m_n_a.png,O,m,1075,9,1,2097.7999999523163,583613.7999999523,7032,NNB,C,7
7,test,1,0.0,2-Back,1,m,Tue Nov 12 2024 09:30:14 GMT-0600 (Central Standard Time),587710.899999857,030_o_f_n_a.png,O,m,959,10,1,1978.2000000476837,585732.6999998093,7032,NNB,C,8
8,test,1,1.0,2-Back,1,z,Tue Nov 12 2024 09:30:14 GMT-0600 (Central Standard Time),589760.2999999523,031_y_m_n_a.png,O,z,1007,11,1,2031.6000001430511,587728.6999998093,7032,NNB,C,9
8,test,1,0.0,2-Back,0,m,Tue Nov 12 2024 09:30:14 GMT-0600 (Central Standard Time),592142.899999857,006_m_f_n_a.png,O,z,1342,12,1,2364.7999999523163,589778.0999999046,7032,NNB,C,10
8,test,1,0.0,2-Back,0,m,Tue Nov 12 2024 09:30:14 GMT-0600 (Central Standard Time),594192.0999999046,006_m_f_n_a.png,O,z,1000,13,1,2027.0999999046326,592165.0,7032,NNB,C,11
9,test,1,0.0,2-Back,1,m,Tue Nov 12 2024 09:30:14 GMT-0600 (Central Standard Time),596340.5,146_o_m_n_a.png,O,m,1108,14,1,2130.600000143051,594209.899999857,7032,NNB,C,12
10,test,1,0.0,2-Back,1,m,Tue Nov 12 2024 09:30:14 GMT-0600 (Central Standard Time),598424.0999999046,030_o_f_n_a.png,O,m,1058,15,1,2080.0,596344.0999999046,7032,NNB,C,13
11,test,1,1.0,2-Back,1,z,Tue Nov 12 2024 09:30:14 GMT-0600 (Central Standard Time),600323.5999999046,146_o_m_n_a.png,O,z,854,16,1,1879.4000000953674,598444.1999998093,7032,NNB,C,14
12,test,1,0.0,2-Back,1,m,Tue Nov 12 2024 09:30:14 GMT-0600 (Central Standard Time),602306.1999998093,093_m_f_n_a.png,O,m,938,17,1,1963.2999999523163,600342.899999857,7032,NNB,C,15
13,test,1,0.0,2-Back,1,m,Tue Nov 12 2024 09:30:14 GMT-0600 (Central Standard Time),604405.1999998093,082_m_m_n_a.png,O,m,1060,18,1,2082.899999856949,602322.2999999523,7032,NNB,C,16
0,test,2,0.0,2-Back,,,Tue Nov 12 2024 09:30:14 GMT-0600 (Central Standard Time),604405.1999998093,082_m_m_n_a.png,O,space,4185,1,1,2082.899999856949,602322.2999999523,7032,NNB,C,0
0,test,2,0.0,2-Back,,,Tue Nov 12 2024 09:30:14 GMT-0600 (Central Standard Time),604405.1999998093,028_y_f_n_a.png,O,space,4185,2,1,2082.899999856949,602322.2999999523,7032,NNB,C,0
1,test,2,1.0,2-Back,1,z,Tue Nov 12 2024 09:30:14 GMT-0600 (Central Standard Time),616035.0999999046,082_m_m_n_a.png,O,z,1188,3,1,2213.5999999046326,613821.5,7032,NNB,C,1
2,test,2,0.0,2-Back,1,m,Tue Nov 12 2024 09:30:14 GMT-0600 (Central Standard Time),618001.1999998093,093_m_f_n_a.png,O,m,923,4,1,1947.0999999046326,616054.0999999046,7032,NNB,C,2
3,test,2,0.0,2-Back,1,m,Tue Nov 12 2024 09:30:14 GMT-0600 (Central Standard Time),619867.0,028_y_f_n_a.png,O,m,821,5,1,1847.6000001430511,618019.399999857,7032,NNB,C,3
4,test,2,0.0,2-Back,1,m,Tue Nov 12 2024 09:30:14 GMT-0600 (Central Standard Time),621699.6999998093,146_o_m_n_a.png,O,m,787,6,1,1814.8999998569489,619884.7999999523,7032,NNB,C,4
4,test,2,0.0,2-Back,0,m,Tue Nov 12 2024 09:30:14 GMT-0600 (Central Standard Time),623665.5,098_y_f_n_a.png,O,z,931,7,1,1944.6000001430511,621720.899999857,7032,NNB,C,5
5,test,2,1.0,2-Back,1,z,Tue Nov 12 2024 09:30:14 GMT-0600 (Central Standard Time),625848.399999857,146_o_m_n_a.png,O,z,1133,8,1,2164.7999999523163,623683.5999999046,7032,NNB,C,6
6,test,2,0.0,2-Back,1,m,Tue Nov 12 2024 09:30:14 GMT-0600 (Central Standard Time),627780.899999857,031_y_m_n_a.png,O,m,886,9,1,1915.7999999523163,625865.0999999046,7032,NNB,C,7
7,test,2,0.0,2-Back,1,m,Tue Nov 12 2024 09:30:14 GMT-0600 (Central Standard Time),629997.0,031_y_m_n_a.png,O,m,1177,10,1,2198.800000190735,627798.1999998093,7032,NNB,C,8
8,test,2,0.0,2-Back,1,m,Tue Nov 12 2024 09:30:14 GMT-0600 (Central Standard Time),632229.5999999046,006_m_f_n_a.png,O,m,1194,11,1,2214.7999999523163,630014.7999999523,7032,NNB,C,9
9,test,2,0.0,2-Back,1,m,Tue Nov 12 2024 09:30:14 GMT-0600 (Central Standard Time),634178.899999857,028_y_f_n_a.png,O,m,913,12,1,1924.5,632254.399999857,7032,NNB,C,10
10,test,2,1.0,2-Back,1,z,Tue Nov 12 2024 09:30:14 GMT-0600 (Central Standard Time),636744.7999999523,006_m_f_n_a.png,O,z,1540,13,1,2553.7999999523163,634191.0,7032,NNB,C,11
11,test,2,0.0,2-Back,1,m,Tue Nov 12 2024 09:30:14 GMT-0600 (Central Standard Time),638944.0,059_o_m_n_a.png,O,m,1149,14,1,2183.2000000476837,636760.7999999523,7032,NNB,C,12
12,test,2,0.0,2-Back,1,m,Tue Nov 12 2024 09:30:14 GMT-0600 (Central Standard Time),640893.399999857,059_o_m_n_a.png,O,m,910,15,1,1931.3999998569489,638962.0,7032,NNB,C,13
13,test,2,0.0,2-Back,1,m,Tue Nov 12 2024 09:30:14 GMT-0600 (Central Standard Time),642842.899999857,030_o_f_n_a.png,O,m,914,16,1,1929.2000000476837,640913.6999998093,7032,NNB,C,14
14,test,2,0.0,2-Back,1,m,Tue Nov 12 2024 09:30:14 GMT-0600 (Central Standard Time),644892.0999999046,092_m_m_n_a.png,O,m,1004,17,1,2028.4000000953674,642863.6999998093,7032,NNB,C,15
15,test,2,1.0,2-Back,1,z,Tue Nov 12 2024 09:30:14 GMT-0600 (Central Standard Time),646741.5,030_o_f_n_a.png,O,z,802,18,1,1831.7000000476837,644909.7999999523,7032,NNB,C,16
0,test,3,1.0,2-Back,,,Tue Nov 12 2024 09:30:14 GMT-0600 (Central Standard Time),646741.5,057_y_m_n_a.png,O,space,1681,1,1,1831.7000000476837,644909.7999999523,7032,NNB,C,0
0,test,3,1.0,2-Back,,,Tue Nov 12 2024 09:30:14 GMT-0600 (Central Standard Time),646741.5,057_y_m_n_a.png,O,space,1681,2,1,1831.7000000476837,644909.7999999523,7032,NNB,C,0
1,test,3,0.0,2-Back,1,m,Tue Nov 12 2024 09:30:14 GMT-0600 (Central Standard Time),655955.2999999523,030_o_f_n_a.png,O,m,1279,3,1,2293.0,653662.2999999523,7032,NNB,C,1
2,test,3,0.0,2-Back,1,m,Tue Nov 12 2024 09:30:14 GMT-0600 (Central Standard Time),658421.1999998093,082_m_m_n_a.png,O,m,1419,4,1,2442.0,655979.1999998093,7032,NNB,C,2
3,test,3,1.0,2-Back,1,z,Tue Nov 12 2024 09:30:14 GMT-0600 (Central Standard Time),660620.1999998093,030_o_f_n_a.png,O,z,1161,5,1,2179.2999999523163,658440.899999857,7032,NNB,C,3
4,test,3,0.0,2-Back,1,m,Tue Nov 12 2024 09:30:14 GMT-0600 (Central Standard Time),662636.0999999046,031_y_m_n_a.png,O,m,970,6,1,1997.4000000953674,660638.6999998093,7032,NNB,C,4
5,test,3,0.0,2-Back,1,m,Tue Nov 12 2024 09:30:14 GMT-0600 (Central Standard Time),664719.0,082_m_m_n_a.png,O,m,1035,7,1,2062.5,662656.5,7032,NNB,C,5
6,test,3,1.0,2-Back,1,z,Tue Nov 12 2024 09:30:14 GMT-0600 (Central Standard Time),666468.399999857,031_y_m_n_a.png,O,z,703,8,1,1727.5999999046326,664740.7999999523,7032,NNB,C,6
7,test,3,0.0,2-Back,1,m,Tue Nov 12 2024 09:30:14 GMT-0600 (Central Standard Time),668434.1999998093,028_y_f_n_a.png,O,m,930,9,1,1943.2999999523163,666490.899999857,7032,NNB,C,7
8,test,3,0.0,2-Back,1,m,Tue Nov 12 2024 09:30:14 GMT-0600 (Central Standard Time),670483.6999998093,092_m_m_n_a.png,O,m,1004,10,1,2030.8999998569489,668452.7999999523,7032,NNB,C,8
9,test,3,1.0,2-Back,1,z,Tue Nov 12 2024 09:30:14 GMT-0600 (Central Standard Time),672416.5999999046,028_y_f_n_a.png,O,z,883,11,1,1915.5999999046326,670501.0,7032,NNB,C,9
10,test,3,1.0,2-Back,1,z,Tue Nov 12 2024 09:30:14 GMT-0600 (Central Standard Time),674282.5,092_m_m_n_a.png,O,z,830,12,1,1848.1000001430511,672434.399999857,7032,NNB,C,10
11,test,3,0.0,2-Back,1,m,Tue Nov 12 2024 09:30:14 GMT-0600 (Central Standard Time),676181.7999999523,030_o_f_n_a.png,O,m,860,13,1,1874.4000000953674,674307.399999857,7032,NNB,C,11
12,test,3,0.0,2-Back,1,m,Tue Nov 12 2024 09:30:14 GMT-0600 (Central Standard Time),678314.1999998093,093_m_f_n_a.png,O,m,1088,14,1,2112.2999999523163,676201.899999857,7032,NNB,C,12
13,test,3,0.0,2-Back,1,m,Tue Nov 12 2024 09:30:14 GMT-0600 (Central Standard Time),680130.5,146_o_m_n_a.png,O,m,780,15,1,1801.0,678329.5,7032,NNB,C,13
14,test,3,1.0,2-Back,1,z,Tue Nov 12 2024 09:30:14 GMT-0600 (Central Standard Time),681813.1999998093,093_m_f_n_a.png,O,z,644,16,1,1664.5999999046326,680148.5999999046,7032,NNB,C,14
15,test,3,0.0,2-Back,1,m,Tue Nov 12 2024 09:30:14 GMT-0600 (Central Standard Time),683646.0999999046,130_o_f_n_a.png,O,m,793,17,1,1813.5999999046326,681832.5,7032,NNB,C,15
16,test,3,0.0,2-Back,1,m,Tue Nov 12 2024 09:30:14 GMT-0600 (Central Standard Time),685678.5999999046,130_o_f_n_a.png,O,m,985,18,1,2015.2000000476837,683663.399999857,7032,NNB,C,16
0,test,4,0.0,2-Back,,,Tue Nov 12 2024 09:30:14 GMT-0600 (Central Standard Time),685678.5999999046,059_o_m_n_a.png,O,space,1695,1,1,2015.2000000476837,683663.399999857,7032,NNB,C,0
0,test,4,0.0,2-Back,,,Tue Nov 12 2024 09:30:14 GMT-0600 (Central Standard Time),685678.5999999046,098_y_f_n_a.png,O,space,1695,2,1,2015.2000000476837,683663.399999857,7032,NNB,C,0
1,test,4,1.0,2-Back,1,z,Tue Nov 12 2024 09:30:14 GMT-0600 (Central Standard Time),694559.1999998093,059_o_m_n_a.png,O,z,809,3,1,1831.3999998569489,692727.7999999523,7032,NNB,C,1
2,test,4,1.0,2-Back,1,z,Tue Nov 12 2024 09:30:14 GMT-0600 (Central Standard Time),696491.7999999523,098_y_f_n_a.png,O,z,895,4,1,1911.2999999523163,694580.5,7032,NNB,C,2
3,test,4,0.0,2-Back,1,m,Tue Nov 12 2024 09:30:14 GMT-0600 (Central Standard Time),698424.5,030_o_f_n_a.png,O,m,890,5,1,1915.0,696509.5,7032,NNB,C,3
4,test,4,0.0,2-Back,1,m,Tue Nov 12 2024 09:30:14 GMT-0600 (Central Standard Time),700324.0,030_o_f_n_a.png,O,m,862,6,1,1882.3000001907349,698441.6999998093,7032,NNB,C,4
5,test,4,0.0,2-Back,1,m,Tue Nov 12 2024 09:30:14 GMT-0600 (Central Standard Time),702256.6999998093,006_m_f_n_a.png,O,m,891,7,1,1914.3999998569489,700342.2999999523,7032,NNB,C,5
6,test,4,0.0,2-Back,1,m,Tue Nov 12 2024 09:30:14 GMT-0600 (Central Standard Time),704288.7999999523,031_y_m_n_a.png,O,m,998,8,1,2012.9000000953674,702275.899999857,7032,NNB,C,6
7,test,4,1.0,2-Back,1,z,Tue Nov 12 2024 09:30:14 GMT-0600 (Central Standard Time),706155.1999998093,006_m_f_n_a.png,O,z,821,9,1,1845.0999999046326,704310.0999999046,7032,NNB,C,7
8,test,4,0.0,2-Back,1,m,Tue Nov 12 2024 09:30:14 GMT-0600 (Central Standard Time),708088.399999857,092_m_m_n_a.png,O,m,899,10,1,1915.7000000476837,706172.6999998093,7032,NNB,C,8
9,test,4,0.0,2-Back,1,m,Tue Nov 12 2024 09:30:14 GMT-0600 (Central Standard Time),710237.2999999523,031_y_m_n_a.png,O,m,1102,11,1,2133.5,708103.7999999523,7032,NNB,C,9
10,test,4,0.0,2-Back,1,m,Tue Nov 12 2024 09:30:14 GMT-0600 (Central Standard Time),713069.0999999046,130_o_f_n_a.png,O,m,1784,12,1,2814.5,710254.5999999046,7032,NNB,C,10
11,test,4,0.0,2-Back,1,m,Tue Nov 12 2024 09:30:14 GMT-0600 (Central Standard Time),715069.0,057_y_m_n_a.png,O,m,977,13,1,1989.2000000476837,713079.7999999523,7032,NNB,C,11
12,test,4,1.0,2-Back,1,z,Tue Nov 12 2024 09:30:14 GMT-0600 (Central Standard Time),716967.399999857,130_o_f_n_a.png,O,z,855,14,1,1876.2000000476837,715091.1999998093,7032,NNB,C,12
12,test,4,1.0,2-Back,0,z,Tue Nov 12 2024 09:30:14 GMT-0600 (Central Standard Time),719150.7999999523,057_y_m_n_a.png,O,m,1149,15,1,2179.4000000953674,716971.399999857,7032,NNB,C,13
13,test,4,0.0,2-Back,1,m,Tue Nov 12 2024 09:30:14 GMT-0600 (Central Standard Time),721783.5,082_m_m_n_a.png,O,m,1591,16,1,2614.2000000476837,719169.2999999523,7032,NNB,C,14
14,test,4,0.0,2-Back,1,m,Tue Nov 12 2024 09:30:14 GMT-0600 (Central Standard Time),724082.6999998093,093_m_f_n_a.png,O,m,1255,17,1,2281.0999999046326,721801.5999999046,7032,NNB,C,15
15,test,4,1.0,2-Back,1,z,Tue Nov 12 2024 09:30:14 GMT-0600 (Central Standard Time),725798.7999999523,082_m_m_n_a.png,O,z,668,18,1,1696.1000001430511,724102.6999998093,7032,NNB,C,16
0,test,5,1.0,2-Back,,,Tue Nov 12 2024 09:30:14 GMT-0600 (Central Standard Time),725798.7999999523,057_y_m_n_a.png,O,space,1504,1,1,1696.1000001430511,724102.6999998093,7032,NNB,C,0
0,test,5,1.0,2-Back,,,Tue Nov 12 2024 09:30:14 GMT-0600 (Central Standard Time),725798.7999999523,093_m_f_n_a.png,O,space,1504,2,1,1696.1000001430511,724102.6999998093,7032,NNB,C,0
1,test,5,1.0,2-Back,1,z,Tue Nov 12 2024 09:30:14 GMT-0600 (Central Standard Time),734462.6999998093,057_y_m_n_a.png,O,z,943,3,1,1963.0,732499.6999998093,7032,NNB,C,1
2,test,5,1.0,2-Back,1,z,Tue Nov 12 2024 09:30:14 GMT-0600 (Central Standard Time),736312.0,093_m_f_n_a.png,O,z,796,4,1,1827.4000000953674,734484.5999999046,7032,NNB,C,2
3,test,5,0.0,2-Back,1,m,Tue Nov 12 2024 09:30:14 GMT-0600 (Central Standard Time),738161.2999999523,130_o_f_n_a.png,O,m,815,5,1,1831.2999999523163,736330.0,7032,NNB,C,3
3,test,5,0.0,2-Back,0,m,Tue Nov 12 2024 09:30:14 GMT-0600 (Central Standard Time),740027.5,057_y_m_n_a.png,O,z,838,6,1,1859.4000000953674,738168.0999999046,7032,NNB,C,4
4,test,5,0.0,2-Back,1,m,Tue Nov 12 2024 09:30:14 GMT-0600 (Central Standard Time),742293.5,028_y_f_n_a.png,O,m,1227,7,1,2249.5,740044.0,7032,NNB,C,5
5,test,5,0.0,2-Back,1,m,Tue Nov 12 2024 09:30:14 GMT-0600 (Central Standard Time),744542.6999998093,130_o_f_n_a.png,O,m,1206,8,1,2232.0,742310.6999998093,7032,NNB,C,6
6,test,5,1.0,2-Back,1,z,Tue Nov 12 2024 09:30:14 GMT-0600 (Central Standard Time),746825.1999998093,028_y_f_n_a.png,O,z,1240,9,1,2267.5999999046326,744557.5999999046,7032,NNB,C,7
7,test,5,0.0,2-Back,1,m,Tue Nov 12 2024 09:30:14 GMT-0600 (Central Standard Time),748876.2999999523,146_o_m_n_a.png,O,m,1017,10,1,2033.7999999523163,746842.5,7032,NNB,C,8
8,test,5,0.0,2-Back,1,m,Tue Nov 12 2024 09:30:14 GMT-0600 (Central Standard Time),751723.7999999523,006_m_f_n_a.png,O,m,1812,11,1,2829.7999999523163,748894.0,7032,NNB,C,9
9,test,5,0.0,2-Back,1,m,Tue Nov 12 2024 09:30:14 GMT-0600 (Central Standard Time),753839.5999999046,092_m_m_n_a.png,O,m,1073,12,1,2099.2999999523163,751740.2999999523,7032,NNB,C,10
10,test,5,0.0,2-Back,1,m,Tue Nov 12 2024 09:30:14 GMT-0600 (Central Standard Time),755938.899999857,146_o_m_n_a.png,O,m,1054,13,1,2081.0999999046326,753857.7999999523,7032,NNB,C,11
11,test,5,1.0,2-Back,1,z,Tue Nov 12 2024 09:30:14 GMT-0600 (Central Standard Time),758188.0999999046,092_m_m_n_a.png,O,z,1211,14,1,2227.9000000953674,755960.1999998093,7032,NNB,C,12
12,test,5,0.0,2-Back,1,m,Tue Nov 12 2024 09:30:14 GMT-0600 (Central Standard Time),760337.0,098_y_f_n_a.png,O,m,1114,15,1,2129.0,758208.0,7032,NNB,C,13
13,test,5,0.0,2-Back,1,m,Tue Nov 12 2024 09:30:14 GMT-0600 (Central Standard Time),762420.0999999046,059_o_m_n_a.png,O,m,1037,16,1,2065.2000000476837,760354.899999857,7032,NNB,C,14
14,test,5,0.0,2-Back,1,m,Tue Nov 12 2024 09:30:14 GMT-0600 (Central Standard Time),764736.0,006_m_f_n_a.png,O,m,1266,17,1,2296.5,762439.5,7032,NNB,C,15
15,test,5,1.0,2-Back,1,z,Tue Nov 12 2024 09:30:14 GMT-0600 (Central Standard Time),766602.0,059_o_m_n_a.png,O,z,822,18,1,1848.5,764753.5,7032,NNB,C,16
