block_c,block_dur,condition,countdown,datetime,endtime,list,multichar_response,project,response,response_time,session_number,start_end,starttime,subject_id,task,task_vers,trial
,,,,Wed Apr 30 2025 13:29:05 GMT-0500 (Central Daylight Time),,,,O,space,855,1,,,7134,WL,C,
prac,,0,,Wed Apr 30 2025 13:29:05 GMT-0500 (Central Daylight Time),,NA,b,O,b,7725,1,,,7134,WL,C,1.0
prac,,0,,Wed Apr 30 2025 13:29:05 GMT-0500 (Central Daylight Time),,NA,bo,O,o,180,1,,,7134,WL,C,1.0
prac,,0,,Wed Apr 30 2025 13:29:05 GMT-0500 (Central Daylight Time),,NA,boo,O,o,196,1,,,7134,WL,C,1.0
prac,,0,,Wed Apr 30 2025 13:29:05 GMT-0500 (Central Daylight Time),,NA,boos,O,s,156,1,,,7134,WL,C,1.0
prac,,0,,Wed Apr 30 2025 13:29:05 GMT-0500 (Central Daylight Time),,NA,boost,O,t,182,1,,,7134,WL,C,1.0
prac,,0,,Wed Apr 30 2025 13:29:05 GMT-0500 (Central Daylight Time),,NA,boostenter,O,enter,700,1,,,7134,WL,C,1.0
1,4.434000015258789,learn,55565.99998474121,Wed Apr 30 2025 13:29:05 GMT-0500 (Central Daylight Time),209897.60000002384,A,t,O,t,4406,1,4432.5,205465.10000002384,7134,WL,C,1.0
1,4.580999851226807,learn,55419.00014877319,Wed Apr 30 2025 13:29:05 GMT-0500 (Central Daylight Time),210045.5,A,to,O,o,123,1,4580.399999976158,205465.10000002384,7134,WL,C,1.0
1,5.246999979019165,learn,54753.000020980835,Wed Apr 30 2025 13:29:05 GMT-0500 (Central Daylight Time),210711.5,A,tow,O,w,643,1,5246.399999976158,205465.10000002384,7134,WL,C,1.0
1,5.398000001907349,learn,54601.99999809265,Wed Apr 30 2025 13:29:05 GMT-0500 (Central Daylight Time),210862.20000004768,A,towe,O,e,129,1,5397.100000023842,205465.10000002384,7134,WL,C,1.0
1,5.562999963760376,learn,54437.000036239624,Wed Apr 30 2025 13:29:05 GMT-0500 (Central Daylight Time),211027.20000004768,A,tower,O,r,153,1,5562.100000023842,205465.10000002384,7134,WL,C,1.0
1,5.980000019073486,learn,54019.999980926514,Wed Apr 30 2025 13:29:05 GMT-0500 (Central Daylight Time),211443.70000004768,A,towerenter,O,enter,406,1,5978.600000023842,205465.10000002384,7134,WL,C,1.0
1,6.996000051498413,learn,53003.99994850159,Wed Apr 30 2025 13:29:05 GMT-0500 (Central Daylight Time),212460.10000002384,A,w,O,w,1003,1,1015.8999999761581,211444.20000004768,7134,WL,C,2.0
1,7.19599986076355,learn,52804.00013923645,Wed Apr 30 2025 13:29:05 GMT-0500 (Central Daylight Time),212660.0,A,wh,O,h,188,1,1215.7999999523163,211444.20000004768,7134,WL,C,2.0
1,7.396999835968018,learn,52603.00016403198,Wed Apr 30 2025 13:29:05 GMT-0500 (Central Daylight Time),212861.20000004768,A,whe,O,e,182,1,1417.0,211444.20000004768,7134,WL,C,2.0
1,7.579999923706055,learn,52420.000076293945,Wed Apr 30 2025 13:29:05 GMT-0500 (Central Daylight Time),213044.39999997616,A,whea,O,a,162,1,1600.1999999284744,211444.20000004768,7134,WL,C,2.0
1,7.744999885559082,learn,52255.00011444092,Wed Apr 30 2025 13:29:05 GMT-0500 (Central Daylight Time),213209.30000007153,A,wheat,O,t,154,1,1765.1000000238419,211444.20000004768,7134,WL,C,2.0
1,8.26199984550476,learn,51738.00015449524,Wed Apr 30 2025 13:29:05 GMT-0500 (Central Daylight Time),213726.39999997616,A,wheatenter,O,enter,500,1,2282.1999999284744,211444.20000004768,7134,WL,C,2.0
1,8.944999933242798,learn,51055.0000667572,Wed Apr 30 2025 13:29:05 GMT-0500 (Central Daylight Time),214408.80000007153,A,q,O,q,673,1,682.1000000238419,213726.70000004768,7134,WL,C,3.0
1,9.429999828338623,learn,50570.00017166138,Wed Apr 30 2025 13:29:05 GMT-0500 (Central Daylight Time),214894.5,A,qu,O,u,472,1,1167.7999999523163,213726.70000004768,7134,WL,C,3.0
1,9.61299991607666,learn,50387.00008392334,Wed Apr 30 2025 13:29:05 GMT-0500 (Central Daylight Time),215076.5,A,que,O,e,170,1,1349.7999999523163,213726.70000004768,7134,WL,C,3.0
1,9.79699993133545,learn,50203.00006866455,Wed Apr 30 2025 13:29:05 GMT-0500 (Central Daylight Time),215260.89999997616,A,quee,O,e,164,1,1534.1999999284744,213726.70000004768,7134,WL,C,3.0
1,10.029000043869019,learn,49970.99995613098,Wed Apr 30 2025 13:29:05 GMT-0500 (Central Daylight Time),215493.20000004768,A,queen,O,n,220,1,1766.5,213726.70000004768,7134,WL,C,3.0
1,10.44599986076355,learn,49554.00013923645,Wed Apr 30 2025 13:29:05 GMT-0500 (Central Daylight Time),215909.5,A,queenenter,O,enter,398,1,2182.7999999523163,213726.70000004768,7134,WL,C,3.0
1,16.177000045776367,learn,43822.99995422363,Wed Apr 30 2025 13:29:05 GMT-0500 (Central Daylight Time),221640.70000004768,A,b,O,b,5724,1,5730.800000071526,215909.89999997616,7134,WL,C,4.0
1,16.361000061035156,learn,43638.999938964844,Wed Apr 30 2025 13:29:05 GMT-0500 (Central Daylight Time),221824.5,A,bo,O,o,177,1,5914.600000023842,215909.89999997616,7134,WL,C,4.0
1,16.526999950408936,learn,43473.000049591064,Wed Apr 30 2025 13:29:05 GMT-0500 (Central Daylight Time),221991.30000007153,A,boy,O,y,144,1,6081.400000095367,215909.89999997616,7134,WL,C,4.0
1,16.927000045776367,learn,43072.99995422363,Wed Apr 30 2025 13:29:05 GMT-0500 (Central Daylight Time),222391.5,A,boyenter,O,enter,384,1,6481.600000023842,215909.89999997616,7134,WL,C,4.0
1,18.90999984741211,learn,41090.00015258789,Wed Apr 30 2025 13:29:05 GMT-0500 (Central Daylight Time),224374.10000002384,A,h,O,h,1969,1,1982.2000000476837,222391.89999997616,7134,WL,C,5.0
1,19.042999982833862,learn,40957.00001716614,Wed Apr 30 2025 13:29:05 GMT-0500 (Central Daylight Time),224507.0,A,ho,O,o,113,1,2115.100000023842,222391.89999997616,7134,WL,C,5.0
1,19.276000022888184,learn,40723.99997711182,Wed Apr 30 2025 13:29:05 GMT-0500 (Central Daylight Time),224740.20000004768,A,hom,O,m,212,1,2348.3000000715256,222391.89999997616,7134,WL,C,5.0
1,19.407999992370605,learn,40592.000007629395,Wed Apr 30 2025 13:29:05 GMT-0500 (Central Daylight Time),224872.39999997616,A,home,O,e,114,1,2480.5,222391.89999997616,7134,WL,C,5.0
1,19.677000045776367,learn,40322.99995422363,Wed Apr 30 2025 13:29:05 GMT-0500 (Central Daylight Time),225141.39999997616,A,homeenter,O,enter,257,1,2749.5,222391.89999997616,7134,WL,C,5.0
1,25.056999921798706,learn,34943.000078201294,Wed Apr 30 2025 13:29:05 GMT-0500 (Central Daylight Time),230520.80000007153,A,f,O,f,5362,1,5379.0,225141.80000007153,7134,WL,C,6.0
1,25.223999977111816,learn,34776.00002288818,Wed Apr 30 2025 13:29:05 GMT-0500 (Central Daylight Time),230688.10000002384,A,fl,O,l,152,1,5546.299999952316,225141.80000007153,7134,WL,C,6.0
1,25.323999881744385,learn,34676.000118255615,Wed Apr 30 2025 13:29:05 GMT-0500 (Central Daylight Time),230788.39999997616,A,fla,O,a,88,1,5646.599999904633,225141.80000007153,7134,WL,C,6.0
1,25.557999849319458,learn,34442.00015068054,Wed Apr 30 2025 13:29:05 GMT-0500 (Central Daylight Time),231021.60000002384,A,flag,O,g,221,1,5879.799999952316,225141.80000007153,7134,WL,C,6.0
1,25.875,learn,34125.0,Wed Apr 30 2025 13:29:05 GMT-0500 (Central Daylight Time),231338.89999997616,A,flagenter,O,enter,306,1,6197.099999904633,225141.80000007153,7134,WL,C,6.0
1,28.789999961853027,learn,31210.000038146973,Wed Apr 30 2025 13:29:05 GMT-0500 (Central Daylight Time),234254.5,A,c,O,c,2894,1,2915.2999999523163,231339.20000004768,7134,WL,C,7.0
1,28.955999851226807,learn,31044.000148773193,Wed Apr 30 2025 13:29:05 GMT-0500 (Central Daylight Time),234420.39999997616,A,ca,O,a,144,1,3081.1999999284744,231339.20000004768,7134,WL,C,7.0
1,29.207000017166138,learn,30792.999982833862,Wed Apr 30 2025 13:29:05 GMT-0500 (Central Daylight Time),234671.5,A,cat,O,t,235,1,3332.2999999523163,231339.20000004768,7134,WL,C,7.0
1,29.388999938964844,learn,30611.000061035156,Wed Apr 30 2025 13:29:05 GMT-0500 (Central Daylight Time),234853.39999997616,A,catt,O,t,159,1,3514.1999999284744,231339.20000004768,7134,WL,C,7.0
1,29.539999961853027,learn,30460.000038146973,Wed Apr 30 2025 13:29:05 GMT-0500 (Central Daylight Time),235003.5,A,cattl,O,l,131,1,3664.2999999523163,231339.20000004768,7134,WL,C,7.0
1,29.6729998588562,learn,30327.0001411438,Wed Apr 30 2025 13:29:05 GMT-0500 (Central Daylight Time),235137.0,A,cattle,O,e,113,1,3797.7999999523163,231339.20000004768,7134,WL,C,7.0
1,30.223000049591064,learn,29776.999950408936,Wed Apr 30 2025 13:29:05 GMT-0500 (Central Daylight Time),235687.20000004768,A,cattleenter,O,enter,535,1,4348.0,231339.20000004768,7134,WL,C,7.0
1,47.484999895095825,learn,12515.000104904175,Wed Apr 30 2025 13:29:05 GMT-0500 (Central Daylight Time),252949.5,A,enter,O,enter,17249,1,17261.899999976158,235687.60000002384,7134,WL,C,8.0
1,48.049999952316284,learn,11950.000047683716,Wed Apr 30 2025 13:29:05 GMT-0500 (Central Daylight Time),253514.20000004768,A,enter,O,enter,545,1,564.3000000715256,252949.89999997616,7134,WL,C,9.0
1,48.382999897003174,learn,11617.000102996826,Wed Apr 30 2025 13:29:05 GMT-0500 (Central Daylight Time),253846.89999997616,A,enter,O,enter,312,1,332.2999999523163,253514.60000002384,7134,WL,C,10.0
1,48.84999990463257,learn,11150.000095367432,Wed Apr 30 2025 13:29:05 GMT-0500 (Central Daylight Time),254314.5,A,enter,O,enter,449,1,467.1999999284744,253847.30000007153,7134,WL,C,11.0
1,49.299999952316284,learn,10700.000047683716,Wed Apr 30 2025 13:29:05 GMT-0500 (Central Daylight Time),254764.39999997616,A,enter,O,enter,436,1,449.5,254314.89999997616,7134,WL,C,12.0
1,49.79900002479553,learn,10200.999975204468,Wed Apr 30 2025 13:29:05 GMT-0500 (Central Daylight Time),255263.10000002384,A,enter,O,enter,483,1,498.39999997615814,254764.70000004768,7134,WL,C,13.0
1,50.1489999294281,learn,9851.0000705719,Wed Apr 30 2025 13:29:05 GMT-0500 (Central Daylight Time),255613.70000004768,A,enter,O,enter,337,1,350.2000000476837,255263.5,7134,WL,C,14.0
1,50.76699995994568,learn,9233.000040054321,Wed Apr 30 2025 13:29:05 GMT-0500 (Central Daylight Time),256231.80000007153,A,enter,O,enter,598,1,617.8000000715256,255614.0,7134,WL,C,15.0
2,1.000999927520752,learn,58999.00007247925,Wed Apr 30 2025 13:29:05 GMT-0500 (Central Daylight Time),327889.89999997616,A,t,O,t,991,1,1000.5,326889.39999997616,7134,WL,C,1.0
2,1.182999849319458,learn,58817.00015068054,Wed Apr 30 2025 13:29:05 GMT-0500 (Central Daylight Time),328071.39999997616,A,to,O,o,164,1,1182.0,326889.39999997616,7134,WL,C,1.0
2,1.3829998970031738,learn,58617.000102996826,Wed Apr 30 2025 13:29:05 GMT-0500 (Central Daylight Time),328272.2000000477,A,tow,O,w,186,1,1382.8000000715256,326889.39999997616,7134,WL,C,1.0
2,1.5499999523162842,learn,58450.000047683716,Wed Apr 30 2025 13:29:05 GMT-0500 (Central Daylight Time),328438.8000000715,A,towe,O,e,159,1,1549.4000000953674,326889.39999997616,7134,WL,C,1.0
2,1.684999942779541,learn,58315.00005722046,Wed Apr 30 2025 13:29:05 GMT-0500 (Central Daylight Time),328573.7000000477,A,tower,O,r,115,1,1684.3000000715256,326889.39999997616,7134,WL,C,1.0
2,2.1659998893737793,learn,57834.00011062622,Wed Apr 30 2025 13:29:05 GMT-0500 (Central Daylight Time),329054.60000002384,A,towerenter,O,enter,464,1,2165.2000000476837,326889.39999997616,7134,WL,C,1.0
2,2.6009998321533203,learn,57399.00016784668,Wed Apr 30 2025 13:29:05 GMT-0500 (Central Daylight Time),329489.60000002384,A,w,O,w,417,1,434.7999999523163,329054.8000000715,7134,WL,C,2.0
2,2.865999937057495,learn,57134.000062942505,Wed Apr 30 2025 13:29:05 GMT-0500 (Central Daylight Time),329755.2000000477,A,wh,O,h,254,1,700.3999999761581,329054.8000000715,7134,WL,C,2.0
2,2.9819998741149902,learn,57018.00012588501,Wed Apr 30 2025 13:29:05 GMT-0500 (Central Daylight Time),329871.0,A,whe,O,e,100,1,816.1999999284744,329054.8000000715,7134,WL,C,2.0
2,3.182999849319458,learn,56817.00015068054,Wed Apr 30 2025 13:29:05 GMT-0500 (Central Daylight Time),330071.5,A,whea,O,a,193,1,1016.6999999284744,329054.8000000715,7134,WL,C,2.0
2,3.3999998569488525,learn,56600.00014305115,Wed Apr 30 2025 13:29:05 GMT-0500 (Central Daylight Time),330288.5,A,wheat,O,t,200,1,1233.6999999284744,329054.8000000715,7134,WL,C,2.0
2,3.932999849319458,learn,56067.00015068054,Wed Apr 30 2025 13:29:05 GMT-0500 (Central Daylight Time),330821.8000000715,A,wheatenter,O,enter,520,1,1767.0,329054.8000000715,7134,WL,C,2.0
2,5.151000022888184,learn,54848.99997711182,Wed Apr 30 2025 13:29:05 GMT-0500 (Central Daylight Time),332040.0,A,q,O,q,1197,1,1217.8999999761581,330822.10000002384,7134,WL,C,3.0
2,5.316999912261963,learn,54683.00008773804,Wed Apr 30 2025 13:29:05 GMT-0500 (Central Daylight Time),332205.7000000477,A,qu,O,u,144,1,1383.6000000238419,330822.10000002384,7134,WL,C,3.0
2,5.401000022888184,learn,54598.99997711182,Wed Apr 30 2025 13:29:05 GMT-0500 (Central Daylight Time),332289.60000002384,A,que,O,e,72,1,1467.5,330822.10000002384,7134,WL,C,3.0
2,5.567999839782715,learn,54432.000160217285,Wed Apr 30 2025 13:29:05 GMT-0500 (Central Daylight Time),332456.3000000715,A,quee,O,e,161,1,1634.2000000476837,330822.10000002384,7134,WL,C,3.0
2,5.781999826431274,learn,54218.000173568726,Wed Apr 30 2025 13:29:05 GMT-0500 (Central Daylight Time),332670.8000000715,A,queen,O,n,199,1,1848.7000000476837,330822.10000002384,7134,WL,C,3.0
2,6.25,learn,53750.0,Wed Apr 30 2025 13:29:05 GMT-0500 (Central Daylight Time),333138.3000000715,A,queenenter,O,enter,449,1,2316.2000000476837,330822.10000002384,7134,WL,C,3.0
2,7.615000009536743,learn,52384.99999046326,Wed Apr 30 2025 13:29:05 GMT-0500 (Central Daylight Time),334504.10000002384,A,s,O,s,1357,1,1365.5,333138.60000002384,7134,WL,C,4.0
2,7.732999801635742,learn,52267.00019836426,Wed Apr 30 2025 13:29:05 GMT-0500 (Central Daylight Time),334621.5,A,su,O,u,105,1,1482.8999999761581,333138.60000002384,7134,WL,C,4.0
2,7.9670000076293945,learn,52032.999992370605,Wed Apr 30 2025 13:29:05 GMT-0500 (Central Daylight Time),334855.2000000477,A,sug,O,g,213,1,1716.6000000238419,333138.60000002384,7134,WL,C,4.0
2,8.08299994468689,learn,51917.00005531311,Wed Apr 30 2025 13:29:05 GMT-0500 (Central Daylight Time),334972.0,A,suga,O,a,93,1,1833.3999999761581,333138.60000002384,7134,WL,C,4.0
2,8.264999866485596,learn,51735.000133514404,Wed Apr 30 2025 13:29:05 GMT-0500 (Central Daylight Time),335154.0,A,sugar,O,r,173,1,2015.3999999761581,333138.60000002384,7134,WL,C,4.0
2,8.63099980354309,learn,51369.00019645691,Wed Apr 30 2025 13:29:05 GMT-0500 (Central Daylight Time),335519.5,A,sugarenter,O,enter,358,1,2380.899999976158,333138.60000002384,7134,WL,C,4.0
2,9.149999856948853,learn,50850.00014305115,Wed Apr 30 2025 13:29:05 GMT-0500 (Central Daylight Time),336038.7000000477,A,h,O,h,504,1,518.8999999761581,335519.8000000715,7134,WL,C,5.0
2,9.268999814987183,learn,50731.00018501282,Wed Apr 30 2025 13:29:05 GMT-0500 (Central Daylight Time),336157.39999997616,A,ho,O,o,97,1,637.5999999046326,335519.8000000715,7134,WL,C,5.0
2,9.498999834060669,learn,50501.00016593933,Wed Apr 30 2025 13:29:05 GMT-0500 (Central Daylight Time),336387.5,A,hom,O,m,210,1,867.6999999284744,335519.8000000715,7134,WL,C,5.0
2,9.615999937057495,learn,50384.000062942505,Wed Apr 30 2025 13:29:05 GMT-0500 (Central Daylight Time),336504.89999997616,A,home,O,e,95,1,985.0999999046326,335519.8000000715,7134,WL,C,5.0
2,10.014999866485596,learn,49985.000133514404,Wed Apr 30 2025 13:29:05 GMT-0500 (Central Daylight Time),336904.0,A,homeenter,O,enter,383,1,1384.1999999284744,335519.8000000715,7134,WL,C,5.0
2,10.832000017166138,learn,49167.99998283386,Wed Apr 30 2025 13:29:05 GMT-0500 (Central Daylight Time),337720.7000000477,A,b,O,b,811,1,816.5,336904.2000000477,7134,WL,C,6.0
2,10.997999906539917,learn,49002.00009346008,Wed Apr 30 2025 13:29:05 GMT-0500 (Central Daylight Time),337886.7000000477,A,bo,O,o,151,1,982.5,336904.2000000477,7134,WL,C,6.0
2,11.197999954223633,learn,48802.00004577637,Wed Apr 30 2025 13:29:05 GMT-0500 (Central Daylight Time),338086.8000000715,A,boy,O,y,179,1,1182.6000000238419,336904.2000000477,7134,WL,C,6.0
2,11.613999843597412,learn,48386.00015640259,Wed Apr 30 2025 13:29:05 GMT-0500 (Central Daylight Time),338503.0,A,boyenter,O,enter,400,1,1598.7999999523163,336904.2000000477,7134,WL,C,6.0
2,12.063999891281128,learn,47936.00010871887,Wed Apr 30 2025 13:29:05 GMT-0500 (Central Daylight Time),338953.10000002384,A,f,O,f,441,1,449.89999997615814,338503.2000000477,7134,WL,C,7.0
2,12.21399998664856,learn,47786.00001335144,Wed Apr 30 2025 13:29:05 GMT-0500 (Central Daylight Time),339102.60000002384,A,fl,O,l,143,1,599.3999999761581,338503.2000000477,7134,WL,C,7.0
2,12.313999891281128,learn,47686.00010871887,Wed Apr 30 2025 13:29:05 GMT-0500 (Central Daylight Time),339203.10000002384,A,fla,O,a,81,1,699.8999999761581,338503.2000000477,7134,WL,C,7.0
2,12.730999946594238,learn,47269.00005340576,Wed Apr 30 2025 13:29:05 GMT-0500 (Central Daylight Time),339620.2000000477,A,flag,O,g,399,1,1117.0,338503.2000000477,7134,WL,C,7.0
2,13.096999883651733,learn,46903.00011634827,Wed Apr 30 2025 13:29:05 GMT-0500 (Central Daylight Time),339985.89999997616,A,flagenter,O,enter,346,1,1482.6999999284744,338503.2000000477,7134,WL,C,7.0
2,13.680999994277954,learn,46319.000005722046,Wed Apr 30 2025 13:29:05 GMT-0500 (Central Daylight Time),340570.10000002384,A,n,O,n,566,1,583.8999999761581,339986.2000000477,7134,WL,C,8.0
2,13.77999997138977,learn,46220.00002861023,Wed Apr 30 2025 13:29:05 GMT-0500 (Central Daylight Time),340669.2000000477,A,na,O,a,85,1,683.0,339986.2000000477,7134,WL,C,8.0
2,13.980999946594238,learn,46019.00005340576,Wed Apr 30 2025 13:29:05 GMT-0500 (Central Daylight Time),340869.5,A,nai,O,i,186,1,883.2999999523163,339986.2000000477,7134,WL,C,8.0
2,14.21399998664856,learn,45786.00001335144,Wed Apr 30 2025 13:29:05 GMT-0500 (Central Daylight Time),341102.7000000477,A,nail,O,l,217,1,1116.5,339986.2000000477,7134,WL,C,8.0
2,14.595999956130981,learn,45404.00004386902,Wed Apr 30 2025 13:29:05 GMT-0500 (Central Daylight Time),341485.10000002384,A,nailenter,O,enter,361,1,1498.8999999761581,339986.2000000477,7134,WL,C,8.0
2,15.712999820709229,learn,44287.00017929077,Wed Apr 30 2025 13:29:05 GMT-0500 (Central Daylight Time),342602.0,A,l,O,l,1107,1,1116.5,341485.5,7134,WL,C,9.0
2,15.813999891281128,learn,44186.00010871887,Wed Apr 30 2025 13:29:05 GMT-0500 (Central Daylight Time),342702.7000000477,A,le,O,e,86,1,1217.2000000476837,341485.5,7134,WL,C,9.0
2,16.013000011444092,learn,43986.99998855591,Wed Apr 30 2025 13:29:05 GMT-0500 (Central Daylight Time),342902.10000002384,A,let,O,t,185,1,1416.6000000238419,341485.5,7134,WL,C,9.0
2,16.179999828338623,learn,43820.00017166138,Wed Apr 30 2025 13:29:05 GMT-0500 (Central Daylight Time),343068.89999997616,A,lett,O,t,145,1,1583.3999999761581,341485.5,7134,WL,C,9.0
2,16.29699993133545,learn,43703.00006866455,Wed Apr 30 2025 13:29:05 GMT-0500 (Central Daylight Time),343186.10000002384,A,lette,O,e,97,1,1700.6000000238419,341485.5,7134,WL,C,9.0
2,16.429999828338623,learn,43570.00017166138,Wed Apr 30 2025 13:29:05 GMT-0500 (Central Daylight Time),343319.0,A,letter,O,r,112,1,1833.5,341485.5,7134,WL,C,9.0
2,16.710999965667725,learn,43289.000034332275,Wed Apr 30 2025 13:29:05 GMT-0500 (Central Daylight Time),343600.0,A,letterenter,O,enter,261,1,2114.5,341485.5,7134,WL,C,9.0
2,17.980000019073486,learn,42019.999980926514,Wed Apr 30 2025 13:29:05 GMT-0500 (Central Daylight Time),344869.0,A,c,O,c,1249,1,1268.6999999284744,343600.3000000715,7134,WL,C,10.0
2,18.096999883651733,learn,41903.00011634827,Wed Apr 30 2025 13:29:05 GMT-0500 (Central Daylight Time),344985.3000000715,A,ca,O,a,112,1,1385.0,343600.3000000715,7134,WL,C,10.0
2,18.328999996185303,learn,41671.0000038147,Wed Apr 30 2025 13:29:05 GMT-0500 (Central Daylight Time),345218.39999997616,A,cat,O,t,214,1,1618.0999999046326,343600.3000000715,7134,WL,C,10.0
2,18.51199984550476,learn,41488.00015449524,Wed Apr 30 2025 13:29:05 GMT-0500 (Central Daylight Time),345401.0,A,catt,O,t,173,1,1800.6999999284744,343600.3000000715,7134,WL,C,10.0
2,18.69599986076355,learn,41304.00013923645,Wed Apr 30 2025 13:29:05 GMT-0500 (Central Daylight Time),345584.60000002384,A,cattl,O,l,167,1,1984.2999999523163,343600.3000000715,7134,WL,C,10.0
2,18.895999908447266,learn,41104.000091552734,Wed Apr 30 2025 13:29:05 GMT-0500 (Central Daylight Time),345784.89999997616,A,cattle,O,e,184,1,2184.5999999046326,343600.3000000715,7134,WL,C,10.0
2,19.26199984550476,learn,40738.00015449524,Wed Apr 30 2025 13:29:05 GMT-0500 (Central Daylight Time),346150.5,A,cattleenter,O,enter,350,1,2550.1999999284744,343600.3000000715,7134,WL,C,10.0
2,21.244999885559082,learn,38755.00011444092,Wed Apr 30 2025 13:29:05 GMT-0500 (Central Daylight Time),348133.60000002384,A,w,O,w,1963,1,1982.7999999523163,346150.8000000715,7134,WL,C,11.0
2,21.395999908447266,learn,38604.000091552734,Wed Apr 30 2025 13:29:05 GMT-0500 (Central Daylight Time),348284.5,A,wo,O,o,131,1,2133.6999999284744,346150.8000000715,7134,WL,C,11.0
2,21.494999885559082,learn,38505.00011444092,Wed Apr 30 2025 13:29:05 GMT-0500 (Central Daylight Time),348383.5,A,wor,O,r,82,1,2232.6999999284744,346150.8000000715,7134,WL,C,11.0
2,21.727999925613403,learn,38272.0000743866,Wed Apr 30 2025 13:29:05 GMT-0500 (Central Daylight Time),348616.60000002384,A,word,O,d,225,1,2465.7999999523163,346150.8000000715,7134,WL,C,11.0
2,21.960999965667725,learn,38039.000034332275,Wed Apr 30 2025 13:29:05 GMT-0500 (Central Daylight Time),348850.2000000477,A,wordenter,O,enter,215,1,2699.399999976158,346150.8000000715,7134,WL,C,11.0
2,29.993000030517578,learn,30006.999969482422,Wed Apr 30 2025 13:29:05 GMT-0500 (Central Daylight Time),356881.39999997616,A,c,O,c,8021,1,8031.0,348850.39999997616,7134,WL,C,12.0
2,30.108999967575073,learn,29891.000032424927,Wed Apr 30 2025 13:29:05 GMT-0500 (Central Daylight Time),356997.5,A,co,O,o,102,1,8147.100000023842,348850.39999997616,7134,WL,C,12.0
2,30.241999864578247,learn,29758.000135421753,Wed Apr 30 2025 13:29:05 GMT-0500 (Central Daylight Time),357131.10000002384,A,cor,O,r,114,1,8280.700000047684,348850.39999997616,7134,WL,C,12.0
2,30.441999912261963,learn,29558.000087738037,Wed Apr 30 2025 13:29:05 GMT-0500 (Central Daylight Time),357330.89999997616,A,corn,O,n,179,1,8480.5,348850.39999997616,7134,WL,C,12.0
2,30.875999927520752,learn,29124.000072479248,Wed Apr 30 2025 13:29:05 GMT-0500 (Central Daylight Time),357764.39999997616,A,cornenter,O,enter,420,1,8914.0,348850.39999997616,7134,WL,C,12.0
2,51.47000002861023,learn,8529.99997138977,Wed Apr 30 2025 13:29:05 GMT-0500 (Central Daylight Time),378359.0,A,f,O,f,20579,1,20594.399999976158,357764.60000002384,7134,WL,C,13.0
2,51.668999910354614,learn,8331.000089645386,Wed Apr 30 2025 13:29:05 GMT-0500 (Central Daylight Time),378557.89999997616,A,fl,O,l,182,1,20793.299999952316,357764.60000002384,7134,WL,C,13.0
2,51.75099992752075,learn,8249.000072479248,Wed Apr 30 2025 13:29:05 GMT-0500 (Central Daylight Time),378640.7000000477,A,fla,O,a,66,1,20876.100000023842,357764.60000002384,7134,WL,C,13.0
2,51.95199990272522,learn,8048.00009727478,Wed Apr 30 2025 13:29:05 GMT-0500 (Central Daylight Time),378840.8000000715,A,flag,O,g,178,1,21076.200000047684,357764.60000002384,7134,WL,C,13.0
2,52.26799988746643,learn,7732.000112533569,Wed Apr 30 2025 13:29:05 GMT-0500 (Central Daylight Time),379157.5,A,flagenter,O,enter,302,1,21392.899999976158,357764.60000002384,7134,WL,C,13.0
2,60.01699995994568,learn,-16.99995994567871,Wed Apr 30 2025 13:29:05 GMT-0500 (Central Daylight Time),386905.60000002384,A,None,O,None,7742,1,7747.799999952316,379157.8000000715,7134,WL,C,14.0
3,0.6490001678466797,learn,59350.99983215332,Wed Apr 30 2025 13:29:05 GMT-0500 (Central Daylight Time),456116.3000000715,A,t,O,t,625,1,648.8000000715256,455467.5,7134,WL,C,1.0
3,0.7990000247955322,learn,59200.99997520447,Wed Apr 30 2025 13:29:05 GMT-0500 (Central Daylight Time),456266.39999997616,A,to,O,o,140,1,798.8999999761581,455467.5,7134,WL,C,1.0
3,0.999000072479248,learn,59000.99992752075,Wed Apr 30 2025 13:29:05 GMT-0500 (Central Daylight Time),456466.39999997616,A,toe,O,e,190,1,998.8999999761581,455467.5,7134,WL,C,1.0
3,1.0830001831054688,learn,58916.99981689453,Wed Apr 30 2025 13:29:05 GMT-0500 (Central Daylight Time),456550.60000002384,A,toer,O,r,70,1,1083.1000000238419,455467.5,7134,WL,C,1.0
3,1.498000144958496,learn,58501.999855041504,Wed Apr 30 2025 13:29:05 GMT-0500 (Central Daylight Time),456965.0,A,toe,O,backspace,400,1,1497.5,455467.5,7134,WL,C,1.0
3,1.6990001201629639,learn,58300.999879837036,Wed Apr 30 2025 13:29:05 GMT-0500 (Central Daylight Time),457165.89999997616,A,to,O,backspace,186,1,1698.3999999761581,455467.5,7134,WL,C,1.0
3,1.815000057220459,learn,58184.99994277954,Wed Apr 30 2025 13:29:05 GMT-0500 (Central Daylight Time),457282.0,A,tow,O,w,108,1,1814.5,455467.5,7134,WL,C,1.0
3,1.9320001602172852,learn,58067.999839782715,Wed Apr 30 2025 13:29:05 GMT-0500 (Central Daylight Time),457398.89999997616,A,towe,O,e,101,1,1931.3999999761581,455467.5,7134,WL,C,1.0
3,2.0820000171661377,learn,57917.99998283386,Wed Apr 30 2025 13:29:05 GMT-0500 (Central Daylight Time),457549.7000000477,A,tower,O,r,137,1,2082.2000000476837,455467.5,7134,WL,C,1.0
3,2.5310001373291016,learn,57468.9998626709,Wed Apr 30 2025 13:29:05 GMT-0500 (Central Daylight Time),457998.7000000477,A,towerenter,O,enter,433,1,2531.2000000476837,455467.5,7134,WL,C,1.0
3,3.015000104904175,learn,56984.999895095825,Wed Apr 30 2025 13:29:05 GMT-0500 (Central Daylight Time),458482.60000002384,A,w,O,w,474,1,483.60000002384186,457999.0,7134,WL,C,2.0
3,3.198000192642212,learn,56801.99980735779,Wed Apr 30 2025 13:29:05 GMT-0500 (Central Daylight Time),458665.0,A,wh,O,h,165,1,666.0,457999.0,7134,WL,C,2.0
3,3.3320000171661377,learn,56667.99998283386,Wed Apr 30 2025 13:29:05 GMT-0500 (Central Daylight Time),458799.10000002384,A,wha,O,a,117,1,800.1000000238419,457999.0,7134,WL,C,2.0
3,3.864000082015991,learn,56135.99991798401,Wed Apr 30 2025 13:29:05 GMT-0500 (Central Daylight Time),459331.10000002384,A,wh,O,backspace,511,1,1332.1000000238419,457999.0,7134,WL,C,2.0
3,4.0320000648498535,learn,55967.99993515015,Wed Apr 30 2025 13:29:05 GMT-0500 (Central Daylight Time),459499.0,A,whe,O,e,158,1,1500.0,457999.0,7134,WL,C,2.0
3,4.1650002002716064,learn,55834.99979972839,Wed Apr 30 2025 13:29:05 GMT-0500 (Central Daylight Time),459632.39999997616,A,whea,O,a,117,1,1633.3999999761581,457999.0,7134,WL,C,2.0
3,4.314000129699707,learn,55685.99987030029,Wed Apr 30 2025 13:29:05 GMT-0500 (Central Daylight Time),459781.89999997616,A,wheat,O,t,136,1,1782.8999999761581,457999.0,7134,WL,C,2.0
3,4.680000066757202,learn,55319.9999332428,Wed Apr 30 2025 13:29:05 GMT-0500 (Central Daylight Time),460147.7000000477,A,wheatenter,O,enter,346,1,2148.7000000476837,457999.0,7134,WL,C,2.0
3,5.246999979019165,learn,54753.000020980835,Wed Apr 30 2025 13:29:05 GMT-0500 (Central Daylight Time),460714.5,A,q,O,q,556,1,566.3999999761581,460148.10000002384,7134,WL,C,3.0
3,5.447000026702881,learn,54552.99997329712,Wed Apr 30 2025 13:29:05 GMT-0500 (Central Daylight Time),460914.5,A,qu,O,u,190,1,766.3999999761581,460148.10000002384,7134,WL,C,3.0
3,5.564000129699707,learn,54435.99987030029,Wed Apr 30 2025 13:29:05 GMT-0500 (Central Daylight Time),461031.60000002384,A,que,O,e,102,1,883.5,460148.10000002384,7134,WL,C,3.0
3,5.746999979019165,learn,54253.000020980835,Wed Apr 30 2025 13:29:05 GMT-0500 (Central Daylight Time),461214.10000002384,A,quee,O,e,166,1,1066.0,460148.10000002384,7134,WL,C,3.0
3,5.981000185012817,learn,54018.99981498718,Wed Apr 30 2025 13:29:05 GMT-0500 (Central Daylight Time),461447.89999997616,A,queen,O,n,215,1,1299.7999999523163,460148.10000002384,7134,WL,C,3.0
3,6.330000162124634,learn,53669.999837875366,Wed Apr 30 2025 13:29:05 GMT-0500 (Central Daylight Time),461797.2000000477,A,queenenter,O,enter,336,1,1649.1000000238419,460148.10000002384,7134,WL,C,3.0
3,7.498000144958496,learn,52501.999855041504,Wed Apr 30 2025 13:29:05 GMT-0500 (Central Daylight Time),462965.0,A,s,O,s,1155,1,1167.5,461797.5,7134,WL,C,4.0
3,7.647000074386597,learn,52352.9999256134,Wed Apr 30 2025 13:29:05 GMT-0500 (Central Daylight Time),463114.10000002384,A,su,O,u,131,1,1316.6000000238419,461797.5,7134,WL,C,4.0
3,7.813000202178955,learn,52186.999797821045,Wed Apr 30 2025 13:29:05 GMT-0500 (Central Daylight Time),463280.7000000477,A,sug,O,g,149,1,1483.2000000476837,461797.5,7134,WL,C,4.0
3,7.913000106811523,learn,52086.99989318848,Wed Apr 30 2025 13:29:05 GMT-0500 (Central Daylight Time),463380.5,A,suga,O,a,77,1,1583.0,461797.5,7134,WL,C,4.0
3,8.114000082015991,learn,51885.99991798401,Wed Apr 30 2025 13:29:05 GMT-0500 (Central Daylight Time),463581.0,A,sugar,O,r,187,1,1783.5,461797.5,7134,WL,C,4.0
3,8.36300015449524,learn,51636.99984550476,Wed Apr 30 2025 13:29:05 GMT-0500 (Central Daylight Time),463830.60000002384,A,sugarenter,O,enter,235,1,2033.1000000238419,461797.5,7134,WL,C,4.0
3,8.77999997138977,learn,51220.00002861023,Wed Apr 30 2025 13:29:05 GMT-0500 (Central Daylight Time),464247.89999997616,A,h,O,h,397,1,417.09999990463257,463830.8000000715,7134,WL,C,5.0
3,8.86300015449524,learn,51136.99984550476,Wed Apr 30 2025 13:29:05 GMT-0500 (Central Daylight Time),464330.2000000477,A,ho,O,o,71,1,499.39999997615814,463830.8000000715,7134,WL,C,5.0
3,9.11300015449524,learn,50886.99984550476,Wed Apr 30 2025 13:29:05 GMT-0500 (Central Daylight Time),464580.39999997616,A,hom,O,m,228,1,749.5999999046326,463830.8000000715,7134,WL,C,5.0
3,9.212000131607056,learn,50787.999868392944,Wed Apr 30 2025 13:29:05 GMT-0500 (Central Daylight Time),464679.39999997616,A,home,O,e,92,1,848.5999999046326,463830.8000000715,7134,WL,C,5.0
3,9.76200008392334,learn,50237.99991607666,Wed Apr 30 2025 13:29:05 GMT-0500 (Central Daylight Time),465229.60000002384,A,homeenter,O,enter,537,1,1398.7999999523163,463830.8000000715,7134,WL,C,5.0
3,10.279000043869019,learn,49720.99995613098,Wed Apr 30 2025 13:29:05 GMT-0500 (Central Daylight Time),465746.5,A,b,O,b,507,1,516.6000000238419,465229.89999997616,7134,WL,C,6.0
3,10.462000131607056,learn,49537.999868392944,Wed Apr 30 2025 13:29:05 GMT-0500 (Central Daylight Time),465929.60000002384,A,bo,O,o,174,1,699.7000000476837,465229.89999997616,7134,WL,C,6.0
3,10.59600019454956,learn,49403.99980545044,Wed Apr 30 2025 13:29:05 GMT-0500 (Central Daylight Time),466063.7000000477,A,boy,O,y,119,1,833.8000000715256,465229.89999997616,7134,WL,C,6.0
3,11.013000011444092,learn,48986.99998855591,Wed Apr 30 2025 13:29:05 GMT-0500 (Central Daylight Time),466480.2000000477,A,boyenter,O,enter,400,1,1250.3000000715256,465229.89999997616,7134,WL,C,6.0
3,11.413000106811523,learn,48586.99989318848,Wed Apr 30 2025 13:29:05 GMT-0500 (Central Daylight Time),466880.3000000715,A,d,O,d,395,1,399.8000000715256,466480.5,7134,WL,C,7.0
3,11.578999996185303,learn,48421.0000038147,Wed Apr 30 2025 13:29:05 GMT-0500 (Central Daylight Time),467046.39999997616,A,do,O,o,145,1,565.8999999761581,466480.5,7134,WL,C,7.0
3,11.76200008392334,learn,48237.99991607666,Wed Apr 30 2025 13:29:05 GMT-0500 (Central Daylight Time),467229.60000002384,A,doc,O,c,163,1,749.1000000238419,466480.5,7134,WL,C,7.0
3,11.995000123977661,learn,48004.99987602234,Wed Apr 30 2025 13:29:05 GMT-0500 (Central Daylight Time),467462.39999997616,A,doct,O,t,219,1,981.8999999761581,466480.5,7134,WL,C,7.0
3,12.128000020980835,learn,47871.999979019165,Wed Apr 30 2025 13:29:05 GMT-0500 (Central Daylight Time),467595.60000002384,A,docto,O,o,121,1,1115.1000000238419,466480.5,7134,WL,C,7.0
3,12.26200008392334,learn,47737.99991607666,Wed Apr 30 2025 13:29:05 GMT-0500 (Central Daylight Time),467729.60000002384,A,doctor,O,r,112,1,1249.1000000238419,466480.5,7134,WL,C,7.0
3,12.532999992370605,learn,47467.000007629395,Wed Apr 30 2025 13:29:05 GMT-0500 (Central Daylight Time),468000.2000000477,A,doctorenter,O,enter,246,1,1519.7000000476837,466480.5,7134,WL,C,7.0
3,12.962000131607056,learn,47037.999868392944,Wed Apr 30 2025 13:29:05 GMT-0500 (Central Daylight Time),468429.7000000477,A,c,O,c,419,1,429.3000000715256,468000.39999997616,7134,WL,C,8.0
3,13.111000061035156,learn,46888.999938964844,Wed Apr 30 2025 13:29:05 GMT-0500 (Central Daylight Time),468578.39999997616,A,ca,O,a,137,1,578.0,468000.39999997616,7134,WL,C,8.0
3,13.295000076293945,learn,46704.999923706055,Wed Apr 30 2025 13:29:05 GMT-0500 (Central Daylight Time),468762.89999997616,A,cam,O,m,175,1,762.5,468000.39999997616,7134,WL,C,8.0
3,13.544000148773193,learn,46455.99985122681,Wed Apr 30 2025 13:29:05 GMT-0500 (Central Daylight Time),469011.8000000715,A,camp,O,p,229,1,1011.4000000953674,468000.39999997616,7134,WL,C,8.0
3,13.978000164031982,learn,46021.99983596802,Wed Apr 30 2025 13:29:05 GMT-0500 (Central Daylight Time),469444.89999997616,A,campenter,O,enter,412,1,1444.5,468000.39999997616,7134,WL,C,8.0
3,14.82800006866455,learn,45171.99993133545,Wed Apr 30 2025 13:29:05 GMT-0500 (Central Daylight Time),470295.7000000477,A,f,O,f,836,1,850.5,469445.2000000477,7134,WL,C,9.0
3,15.01200008392334,learn,44987.99991607666,Wed Apr 30 2025 13:29:05 GMT-0500 (Central Daylight Time),470479.8000000715,A,fl,O,l,167,1,1034.6000000238419,469445.2000000477,7134,WL,C,9.0
3,15.094000101089478,learn,44905.99989891052,Wed Apr 30 2025 13:29:05 GMT-0500 (Central Daylight Time),470561.5,A,fla,O,a,70,1,1116.2999999523163,469445.2000000477,7134,WL,C,9.0
3,15.34500002861023,learn,44654.99997138977,Wed Apr 30 2025 13:29:05 GMT-0500 (Central Daylight Time),470812.2000000477,A,flag,O,g,230,1,1367.0,469445.2000000477,7134,WL,C,9.0
3,15.74400019645691,learn,44255.99980354309,Wed Apr 30 2025 13:29:05 GMT-0500 (Central Daylight Time),471211.3000000715,A,flagenter,O,enter,379,1,1766.1000000238419,469445.2000000477,7134,WL,C,9.0
3,17.81000018119812,learn,42189.99981880188,Wed Apr 30 2025 13:29:05 GMT-0500 (Central Daylight Time),473277.39999997616,A,l,O,l,2045,1,2065.899999976158,471211.5,7134,WL,C,10.0
3,17.943000078201294,learn,42056.999921798706,Wed Apr 30 2025 13:29:05 GMT-0500 (Central Daylight Time),473410.7000000477,A,le,O,e,122,1,2199.2000000476837,471211.5,7134,WL,C,10.0
3,18.142000198364258,learn,41857.99980163574,Wed Apr 30 2025 13:29:05 GMT-0500 (Central Daylight Time),473609.7000000477,A,let,O,t,190,1,2398.2000000476837,471211.5,7134,WL,C,10.0
3,18.3270001411438,learn,41672.9998588562,Wed Apr 30 2025 13:29:05 GMT-0500 (Central Daylight Time),473794.7000000477,A,lett,O,t,166,1,2583.2000000476837,471211.5,7134,WL,C,10.0
3,18.444000005722046,learn,41555.999994277954,Wed Apr 30 2025 13:29:05 GMT-0500 (Central Daylight Time),473910.89999997616,A,lette,O,e,101,1,2699.399999976158,471211.5,7134,WL,C,10.0
3,18.5770001411438,learn,41422.9998588562,Wed Apr 30 2025 13:29:05 GMT-0500 (Central Daylight Time),474044.5,A,letter,O,r,112,1,2833.0,471211.5,7134,WL,C,10.0
3,19.009999990463257,learn,40990.00000953674,Wed Apr 30 2025 13:29:05 GMT-0500 (Central Daylight Time),474477.7000000477,A,letterenter,O,enter,411,1,3266.2000000476837,471211.5,7134,WL,C,10.0
3,20.77500009536743,learn,39224.99990463257,Wed Apr 30 2025 13:29:05 GMT-0500 (Central Daylight Time),476242.60000002384,A,c,O,c,1754,1,1764.7000000476837,474477.89999997616,7134,WL,C,11.0
3,20.942000150680542,learn,39057.99984931946,Wed Apr 30 2025 13:29:05 GMT-0500 (Central Daylight Time),476409.0,A,co,O,o,148,1,1931.1000000238419,474477.89999997616,7134,WL,C,11.0
3,21.06000018119812,learn,38939.99981880188,Wed Apr 30 2025 13:29:05 GMT-0500 (Central Daylight Time),476527.3000000715,A,cor,O,r,98,1,2049.4000000953674,474477.89999997616,7134,WL,C,11.0
3,21.27500009536743,learn,38724.99990463257,Wed Apr 30 2025 13:29:05 GMT-0500 (Central Daylight Time),476742.8000000715,A,corn,O,n,200,1,2264.9000000953674,474477.89999997616,7134,WL,C,11.0
3,21.70800018310547,learn,38291.99981689453,Wed Apr 30 2025 13:29:05 GMT-0500 (Central Daylight Time),477175.7000000477,A,cornenter,O,enter,416,1,2697.8000000715256,474477.89999997616,7134,WL,C,11.0
3,23.04200005531311,learn,36957.99994468689,Wed Apr 30 2025 13:29:05 GMT-0500 (Central Daylight Time),478509.10000002384,A,c,O,c,1312,1,1333.2000000476837,477175.89999997616,7134,WL,C,12.0
3,23.175000190734863,learn,36824.99980926514,Wed Apr 30 2025 13:29:05 GMT-0500 (Central Daylight Time),478642.0,A,ca,O,a,114,1,1466.1000000238419,477175.89999997616,7134,WL,C,12.0
3,23.44099998474121,learn,36559.00001525879,Wed Apr 30 2025 13:29:05 GMT-0500 (Central Daylight Time),478908.8000000715,A,cat,O,t,254,1,1732.9000000953674,477175.89999997616,7134,WL,C,12.0
3,23.591000080108643,learn,36408.99991989136,Wed Apr 30 2025 13:29:05 GMT-0500 (Central Daylight Time),479058.2000000477,A,catt,O,t,138,1,1882.3000000715256,477175.89999997616,7134,WL,C,12.0
3,23.758000135421753,learn,36241.99986457825,Wed Apr 30 2025 13:29:05 GMT-0500 (Central Daylight Time),479225.60000002384,A,cattl,O,l,149,1,2049.7000000476837,477175.89999997616,7134,WL,C,12.0
3,23.859000205993652,learn,36140.99979400635,Wed Apr 30 2025 13:29:05 GMT-0500 (Central Daylight Time),479326.39999997616,A,cattle,O,e,87,1,2150.5,477175.89999997616,7134,WL,C,12.0
3,24.19099998474121,learn,35809.00001525879,Wed Apr 30 2025 13:29:05 GMT-0500 (Central Daylight Time),479658.60000002384,A,cattleenter,O,enter,321,1,2482.7000000476837,477175.89999997616,7134,WL,C,12.0
3,24.723000049591064,learn,35276.999950408936,Wed Apr 30 2025 13:29:05 GMT-0500 (Central Daylight Time),480191.0,A,s,O,s,517,1,532.1000000238419,479658.89999997616,7134,WL,C,13.0
3,24.907999992370605,learn,35092.000007629395,Wed Apr 30 2025 13:29:05 GMT-0500 (Central Daylight Time),480375.5,A,sh,O,h,163,1,716.6000000238419,479658.89999997616,7134,WL,C,13.0
3,24.956000089645386,learn,35043.999910354614,Wed Apr 30 2025 13:29:05 GMT-0500 (Central Daylight Time),480424.0,A,sho,O,o,31,1,765.1000000238419,479658.89999997616,7134,WL,C,13.0
3,25.242000102996826,learn,34757.999897003174,Wed Apr 30 2025 13:29:05 GMT-0500 (Central Daylight Time),480709.3000000715,A,shor,O,r,271,1,1050.4000000953674,479658.89999997616,7134,WL,C,13.0
3,25.35800004005432,learn,34641.99995994568,Wed Apr 30 2025 13:29:05 GMT-0500 (Central Daylight Time),480826.2000000477,A,shore,O,e,100,1,1167.3000000715256,479658.89999997616,7134,WL,C,13.0
3,25.77300000190735,learn,34226.99999809265,Wed Apr 30 2025 13:29:05 GMT-0500 (Central Daylight Time),481241.10000002384,A,shoreenter,O,enter,405,1,1582.2000000476837,479658.89999997616,7134,WL,C,13.0
3,28.27400016784668,learn,31725.99983215332,Wed Apr 30 2025 13:29:05 GMT-0500 (Central Daylight Time),483742.2000000477,A,b,O,b,2496,1,2500.899999976158,481241.3000000715,7134,WL,C,14.0
3,28.4060001373291,learn,31593.9998626709,Wed Apr 30 2025 13:29:05 GMT-0500 (Central Daylight Time),483873.8000000715,A,bo,O,o,122,1,2632.5,481241.3000000715,7134,WL,C,14.0
3,28.640000104904175,learn,31359.999895095825,Wed Apr 30 2025 13:29:05 GMT-0500 (Central Daylight Time),484108.0,A,boy,O,y,213,1,2866.6999999284744,481241.3000000715,7134,WL,C,14.0
3,28.98900008201599,learn,31010.99991798401,Wed Apr 30 2025 13:29:05 GMT-0500 (Central Daylight Time),484456.60000002384,A,bo,O,backspace,332,1,3215.2999999523163,481241.3000000715,7134,WL,C,14.0
3,29.207000017166138,learn,30792.999982833862,Wed Apr 30 2025 13:29:05 GMT-0500 (Central Daylight Time),484674.39999997616,A,bod,O,d,209,1,3433.0999999046326,481241.3000000715,7134,WL,C,14.0
3,29.390000104904175,learn,30609.999895095825,Wed Apr 30 2025 13:29:05 GMT-0500 (Central Daylight Time),484857.39999997616,A,body,O,y,161,1,3616.0999999046326,481241.3000000715,7134,WL,C,14.0
3,29.789000034332275,learn,30210.999965667725,Wed Apr 30 2025 13:29:05 GMT-0500 (Central Daylight Time),485256.39999997616,A,bodyenter,O,enter,390,1,4015.0999999046326,481241.3000000715,7134,WL,C,14.0
3,30.705000162124634,learn,29294.999837875366,Wed Apr 30 2025 13:29:05 GMT-0500 (Central Daylight Time),486172.60000002384,A,n,O,n,903,1,915.8999999761581,485256.7000000477,7134,WL,C,15.0
3,30.82200002670288,learn,29177.99997329712,Wed Apr 30 2025 13:29:05 GMT-0500 (Central Daylight Time),486290.0,A,na,O,a,99,1,1033.2999999523163,485256.7000000477,7134,WL,C,15.0
3,30.973000049591064,learn,29026.999950408936,Wed Apr 30 2025 13:29:05 GMT-0500 (Central Daylight Time),486440.60000002384,A,nai,O,i,144,1,1183.8999999761581,485256.7000000477,7134,WL,C,15.0
3,31.17200016975403,learn,28827.99983024597,Wed Apr 30 2025 13:29:05 GMT-0500 (Central Daylight Time),486639.89999997616,A,nail,O,l,183,1,1383.1999999284744,485256.7000000477,7134,WL,C,15.0
3,31.723999977111816,learn,28276.000022888184,Wed Apr 30 2025 13:29:05 GMT-0500 (Central Daylight Time),487191.5,A,nailenter,O,enter,537,1,1934.7999999523163,485256.7000000477,7134,WL,C,15.0
4,0.6180000305175781,learn,59381.99996948242,Wed Apr 30 2025 13:29:05 GMT-0500 (Central Daylight Time),553287.0,A,t,O,t,593,1,617.1999999284744,552669.8000000715,7134,WL,C,1.0
4,0.8000001907348633,learn,59199.99980926514,Wed Apr 30 2025 13:29:05 GMT-0500 (Central Daylight Time),553468.7000000477,A,to,O,o,156,1,798.8999999761581,552669.8000000715,7134,WL,C,1.0
4,0.9840002059936523,learn,59015.99979400635,Wed Apr 30 2025 13:29:05 GMT-0500 (Central Daylight Time),553653.3000000715,A,tow,O,w,159,1,983.5,552669.8000000715,7134,WL,C,1.0
4,1.1500000953674316,learn,58849.99990463257,Wed Apr 30 2025 13:29:05 GMT-0500 (Central Daylight Time),553819.6000000238,A,towe,O,e,142,1,1149.7999999523163,552669.8000000715,7134,WL,C,1.0
4,1.2830002307891846,learn,58716.999769210815,Wed Apr 30 2025 13:29:05 GMT-0500 (Central Daylight Time),553952.3000000715,A,tower,O,r,123,1,1282.5,552669.8000000715,7134,WL,C,1.0
4,1.6500000953674316,learn,58349.99990463257,Wed Apr 30 2025 13:29:05 GMT-0500 (Central Daylight Time),554318.8999999762,A,towerenter,O,enter,349,1,1649.0999999046326,552669.8000000715,7134,WL,C,1.0
4,2.3500001430511475,learn,57649.99985694885,Wed Apr 30 2025 13:29:05 GMT-0500 (Central Daylight Time),555018.8999999762,A,w,O,w,689,1,699.7999999523163,554319.1000000238,7134,WL,C,2.0
4,2.7160000801086426,learn,57283.99991989136,Wed Apr 30 2025 13:29:05 GMT-0500 (Central Daylight Time),555385.2000000477,A,we,O,e,345,1,1066.1000000238419,554319.1000000238,7134,WL,C,2.0
4,3.116000175476074,learn,56883.999824523926,Wed Apr 30 2025 13:29:05 GMT-0500 (Central Daylight Time),555785.3000000715,A,w,O,backspace,392,1,1466.2000000476837,554319.1000000238,7134,WL,C,2.0
4,3.3990001678466797,learn,56600.99983215332,Wed Apr 30 2025 13:29:05 GMT-0500 (Central Daylight Time),556068.2000000477,A,wh,O,h,269,1,1749.1000000238419,554319.1000000238,7134,WL,C,2.0
4,3.4820001125335693,learn,56517.99988746643,Wed Apr 30 2025 13:29:05 GMT-0500 (Central Daylight Time),556151.2000000477,A,whe,O,e,66,1,1832.1000000238419,554319.1000000238,7134,WL,C,2.0
4,3.633000135421753,learn,56366.99986457825,Wed Apr 30 2025 13:29:05 GMT-0500 (Central Daylight Time),556301.6000000238,A,whea,O,a,129,1,1982.5,554319.1000000238,7134,WL,C,2.0
4,3.765000104904175,learn,56234.999895095825,Wed Apr 30 2025 13:29:05 GMT-0500 (Central Daylight Time),556434.5,A,wheat,O,t,111,1,2115.399999976158,554319.1000000238,7134,WL,C,2.0
4,4.148000001907349,learn,55851.99999809265,Wed Apr 30 2025 13:29:05 GMT-0500 (Central Daylight Time),556817.3999999762,A,wheatenter,O,enter,371,1,2498.2999999523163,554319.1000000238,7134,WL,C,2.0
4,4.715000152587891,learn,55284.99984741211,Wed Apr 30 2025 13:29:05 GMT-0500 (Central Daylight Time),557384.1000000238,A,q,O,q,546,1,566.5,556817.6000000238,7134,WL,C,3.0
4,4.865000009536743,learn,55134.99999046326,Wed Apr 30 2025 13:29:05 GMT-0500 (Central Daylight Time),557534.5,A,qu,O,u,136,1,716.8999999761581,556817.6000000238,7134,WL,C,3.0
4,4.981000185012817,learn,55018.99981498718,Wed Apr 30 2025 13:29:05 GMT-0500 (Central Daylight Time),557650.2000000477,A,que,O,e,103,1,832.6000000238419,556817.6000000238,7134,WL,C,3.0
4,5.148000001907349,learn,54851.99999809265,Wed Apr 30 2025 13:29:05 GMT-0500 (Central Daylight Time),557816.8999999762,A,quee,O,e,158,1,999.2999999523163,556817.6000000238,7134,WL,C,3.0
4,5.498000144958496,learn,54501.999855041504,Wed Apr 30 2025 13:29:05 GMT-0500 (Central Daylight Time),558167.3999999762,A,queen,O,n,336,1,1349.7999999523163,556817.6000000238,7134,WL,C,3.0
4,5.948000192642212,learn,54051.99980735779,Wed Apr 30 2025 13:29:05 GMT-0500 (Central Daylight Time),558616.6000000238,A,queenenter,O,enter,437,1,1799.0,556817.6000000238,7134,WL,C,3.0
4,6.466000080108643,learn,53533.99991989136,Wed Apr 30 2025 13:29:05 GMT-0500 (Central Daylight Time),559134.7000000477,A,s,O,s,496,1,517.8000000715256,558616.8999999762,7134,WL,C,4.0
4,6.581000089645386,learn,53418.999910354614,Wed Apr 30 2025 13:29:05 GMT-0500 (Central Daylight Time),559250.1000000238,A,su,O,u,108,1,633.2000000476837,558616.8999999762,7134,WL,C,4.0
4,6.8490002155303955,learn,53150.999784469604,Wed Apr 30 2025 13:29:05 GMT-0500 (Central Daylight Time),559517.7000000477,A,sug,O,g,245,1,900.8000000715256,558616.8999999762,7134,WL,C,4.0
4,6.92900013923645,learn,53070.99986076355,Wed Apr 30 2025 13:29:05 GMT-0500 (Central Daylight Time),559598.5,A,suga,O,a,61,1,981.6000000238419,558616.8999999762,7134,WL,C,4.0
4,7.115000009536743,learn,52884.99999046326,Wed Apr 30 2025 13:29:05 GMT-0500 (Central Daylight Time),559784.1000000238,A,sugar,O,r,168,1,1167.2000000476837,558616.8999999762,7134,WL,C,4.0
4,7.363000154495239,learn,52636.99984550476,Wed Apr 30 2025 13:29:05 GMT-0500 (Central Daylight Time),560032.5,A,sugarenter,O,enter,234,1,1415.6000000238419,558616.8999999762,7134,WL,C,4.0
4,8.265000104904175,learn,51734.999895095825,Wed Apr 30 2025 13:29:05 GMT-0500 (Central Daylight Time),560934.1000000238,A,h,O,h,880,1,901.2999999523163,560032.8000000715,7134,WL,C,5.0
4,8.331000089645386,learn,51668.999910354614,Wed Apr 30 2025 13:29:05 GMT-0500 (Central Daylight Time),561000.2000000477,A,ho,O,o,59,1,967.3999999761581,560032.8000000715,7134,WL,C,5.0
4,8.648000001907349,learn,51351.99999809265,Wed Apr 30 2025 13:29:05 GMT-0500 (Central Daylight Time),561317.0,A,hom,O,m,304,1,1284.1999999284744,560032.8000000715,7134,WL,C,5.0
4,8.763000011444092,learn,51236.99998855591,Wed Apr 30 2025 13:29:05 GMT-0500 (Central Daylight Time),561432.3999999762,A,home,O,e,105,1,1399.5999999046326,560032.8000000715,7134,WL,C,5.0
4,9.28000020980835,learn,50719.99979019165,Wed Apr 30 2025 13:29:05 GMT-0500 (Central Daylight Time),561948.7000000477,A,homeenter,O,enter,502,1,1915.8999999761581,560032.8000000715,7134,WL,C,5.0
4,10.248000144958496,learn,49751.999855041504,Wed Apr 30 2025 13:29:05 GMT-0500 (Central Daylight Time),562916.8000000715,A,b,O,b,956,1,967.9000000953674,561948.8999999762,7134,WL,C,6.0
4,10.380000114440918,learn,49619.99988555908,Wed Apr 30 2025 13:29:05 GMT-0500 (Central Daylight Time),563049.3999999762,A,bo,O,o,125,1,1100.5,561948.8999999762,7134,WL,C,6.0
4,10.53000020980835,learn,49469.99979019165,Wed Apr 30 2025 13:29:05 GMT-0500 (Central Daylight Time),563199.3000000715,A,boy,O,y,134,1,1250.4000000953674,561948.8999999762,7134,WL,C,6.0
4,11.03000020980835,learn,48969.99979019165,Wed Apr 30 2025 13:29:05 GMT-0500 (Central Daylight Time),563699.6000000238,A,boyenter,O,enter,480,1,1750.7000000476837,561948.8999999762,7134,WL,C,6.0
4,15.42900013923645,learn,44570.99986076355,Wed Apr 30 2025 13:29:05 GMT-0500 (Central Daylight Time),568097.8999999762,A,d,O,d,4380,1,4398.0,563699.8999999762,7134,WL,C,7.0
4,15.562000036239624,learn,44437.999963760376,Wed Apr 30 2025 13:29:05 GMT-0500 (Central Daylight Time),568231.3000000715,A,do,O,o,113,1,4531.400000095367,563699.8999999762,7134,WL,C,7.0
4,15.66100001335144,learn,44338.99998664856,Wed Apr 30 2025 13:29:05 GMT-0500 (Central Daylight Time),568329.8000000715,A,doc,O,c,88,1,4629.900000095367,563699.8999999762,7134,WL,C,7.0
4,15.895000219345093,learn,44104.99978065491,Wed Apr 30 2025 13:29:05 GMT-0500 (Central Daylight Time),568564.6000000238,A,doct,O,t,224,1,4864.700000047684,563699.8999999762,7134,WL,C,7.0
4,16.027000188827515,learn,43972.999811172485,Wed Apr 30 2025 13:29:05 GMT-0500 (Central Daylight Time),568696.6000000238,A,docto,O,o,121,1,4996.700000047684,563699.8999999762,7134,WL,C,7.0
4,16.177000045776367,learn,43822.99995422363,Wed Apr 30 2025 13:29:05 GMT-0500 (Central Daylight Time),568846.3999999762,A,doctor,O,r,128,1,5146.5,563699.8999999762,7134,WL,C,7.0
4,16.478000164031982,learn,43521.99983596802,Wed Apr 30 2025 13:29:05 GMT-0500 (Central Daylight Time),569146.8999999762,A,doctorenter,O,enter,283,1,5447.0,563699.8999999762,7134,WL,C,7.0
4,18.84500002861023,learn,41154.99997138977,Wed Apr 30 2025 13:29:05 GMT-0500 (Central Daylight Time),571513.8999999762,A,c,O,c,2349,1,2366.6999999284744,569147.2000000477,7134,WL,C,8.0
4,18.978000164031982,learn,41021.99983596802,Wed Apr 30 2025 13:29:05 GMT-0500 (Central Daylight Time),571647.0,A,ca,O,a,119,1,2499.7999999523163,569147.2000000477,7134,WL,C,8.0
4,19.093000173568726,learn,40906.999826431274,Wed Apr 30 2025 13:29:05 GMT-0500 (Central Daylight Time),571762.0,A,cam,O,m,105,1,2614.7999999523163,569147.2000000477,7134,WL,C,8.0
4,19.24400019645691,learn,40755.99980354309,Wed Apr 30 2025 13:29:05 GMT-0500 (Central Daylight Time),571912.8000000715,A,camp,O,p,132,1,2765.600000023842,569147.2000000477,7134,WL,C,8.0
4,19.610000133514404,learn,40389.999866485596,Wed Apr 30 2025 13:29:05 GMT-0500 (Central Daylight Time),572279.5,A,campenter,O,enter,347,1,3132.2999999523163,569147.2000000477,7134,WL,C,8.0
4,19.91200017929077,learn,40087.99982070923,Wed Apr 30 2025 13:29:05 GMT-0500 (Central Daylight Time),572580.6000000238,A,f,O,f,289,1,300.7999999523163,572279.8000000715,7134,WL,C,9.0
4,20.076000213623047,learn,39923.99978637695,Wed Apr 30 2025 13:29:05 GMT-0500 (Central Daylight Time),572745.1000000238,A,fl,O,l,154,1,465.2999999523163,572279.8000000715,7134,WL,C,9.0
4,20.193000078201294,learn,39806.999921798706,Wed Apr 30 2025 13:29:05 GMT-0500 (Central Daylight Time),572862.1000000238,A,fla,O,a,104,1,582.2999999523163,572279.8000000715,7134,WL,C,9.0
4,20.443000078201294,learn,39556.999921798706,Wed Apr 30 2025 13:29:05 GMT-0500 (Central Daylight Time),573112.3999999762,A,flag,O,g,236,1,832.5999999046326,572279.8000000715,7134,WL,C,9.0
4,20.89300012588501,learn,39106.99987411499,Wed Apr 30 2025 13:29:05 GMT-0500 (Central Daylight Time),573562.2000000477,A,flagenter,O,enter,440,1,1282.3999999761581,572279.8000000715,7134,WL,C,9.0
4,21.326000213623047,learn,38673.99978637695,Wed Apr 30 2025 13:29:05 GMT-0500 (Central Daylight Time),573995.1000000238,A,l,O,l,414,1,432.60000002384186,573562.5,7134,WL,C,10.0
4,21.4760000705719,learn,38523.9999294281,Wed Apr 30 2025 13:29:05 GMT-0500 (Central Daylight Time),574144.8000000715,A,le,O,e,132,1,582.3000000715256,573562.5,7134,WL,C,10.0
4,21.676000118255615,learn,38323.999881744385,Wed Apr 30 2025 13:29:05 GMT-0500 (Central Daylight Time),574344.6000000238,A,let,O,t,192,1,782.1000000238419,573562.5,7134,WL,C,10.0
4,21.843000173568726,learn,38156.999826431274,Wed Apr 30 2025 13:29:05 GMT-0500 (Central Daylight Time),574511.7000000477,A,lett,O,t,151,1,949.2000000476837,573562.5,7134,WL,C,10.0
4,21.960000038146973,learn,38039.99996185303,Wed Apr 30 2025 13:29:05 GMT-0500 (Central Daylight Time),574628.7000000477,A,lette,O,e,105,1,1066.2000000476837,573562.5,7134,WL,C,10.0
4,22.093000173568726,learn,37906.999826431274,Wed Apr 30 2025 13:29:05 GMT-0500 (Central Daylight Time),574761.8999999762,A,letter,O,r,123,1,1199.3999999761581,573562.5,7134,WL,C,10.0
4,22.443000078201294,learn,37556.999921798706,Wed Apr 30 2025 13:29:05 GMT-0500 (Central Daylight Time),575111.6000000238,A,letterenter,O,enter,334,1,1549.1000000238419,573562.5,7134,WL,C,10.0
4,25.475000143051147,learn,34524.99985694885,Wed Apr 30 2025 13:29:05 GMT-0500 (Central Daylight Time),578144.6000000238,A,c,O,c,3017,1,3032.7000000476837,575111.8999999762,7134,WL,C,11.0
4,25.62600016593933,learn,34373.99983406067,Wed Apr 30 2025 13:29:05 GMT-0500 (Central Daylight Time),578295.0,A,co,O,o,135,1,3183.100000023842,575111.8999999762,7134,WL,C,11.0
4,25.741000175476074,learn,34258.999824523926,Wed Apr 30 2025 13:29:05 GMT-0500 (Central Daylight Time),578409.6000000238,A,cor,O,r,104,1,3297.7000000476837,575111.8999999762,7134,WL,C,11.0
4,26.008000135421753,learn,33991.99986457825,Wed Apr 30 2025 13:29:05 GMT-0500 (Central Daylight Time),578677.3000000715,A,corn,O,n,247,1,3565.4000000953674,575111.8999999762,7134,WL,C,11.0
4,26.44000005722046,learn,33559.99994277954,Wed Apr 30 2025 13:29:05 GMT-0500 (Central Daylight Time),579109.3000000715,A,cornenter,O,enter,411,1,3997.4000000953674,575111.8999999762,7134,WL,C,11.0
4,27.990000009536743,learn,32009.999990463257,Wed Apr 30 2025 13:29:05 GMT-0500 (Central Daylight Time),580659.0,A,s,O,s,1540,1,1549.3999999761581,579109.6000000238,7134,WL,C,12.0
4,28.123000144958496,learn,31876.999855041504,Wed Apr 30 2025 13:29:05 GMT-0500 (Central Daylight Time),580792.6000000238,A,sh,O,h,126,1,1683.0,579109.6000000238,7134,WL,C,12.0
4,28.224000215530396,learn,31775.999784469604,Wed Apr 30 2025 13:29:05 GMT-0500 (Central Daylight Time),580893.3999999762,A,sho,O,o,88,1,1783.7999999523163,579109.6000000238,7134,WL,C,12.0
4,28.390000104904175,learn,31609.999895095825,Wed Apr 30 2025 13:29:05 GMT-0500 (Central Daylight Time),581058.7000000477,A,shor,O,r,155,1,1949.1000000238419,579109.6000000238,7134,WL,C,12.0
4,28.508000135421753,learn,31491.999864578247,Wed Apr 30 2025 13:29:05 GMT-0500 (Central Daylight Time),581177.0,A,shore,O,e,102,1,2067.399999976158,579109.6000000238,7134,WL,C,12.0
4,28.873000144958496,learn,31126.999855041504,Wed Apr 30 2025 13:29:05 GMT-0500 (Central Daylight Time),581542.5,A,shoreenter,O,enter,346,1,2432.899999976158,579109.6000000238,7134,WL,C,12.0
4,34.19000005722046,learn,25809.99994277954,Wed Apr 30 2025 13:29:05 GMT-0500 (Central Daylight Time),586859.3000000715,A,b,O,b,5297,1,5316.600000023842,581542.7000000477,7134,WL,C,13.0
4,34.32300019264221,learn,25676.999807357788,Wed Apr 30 2025 13:29:05 GMT-0500 (Central Daylight Time),586991.8999999762,A,bo,O,o,110,1,5449.199999928474,581542.7000000477,7134,WL,C,13.0
4,34.705000162124634,learn,25294.999837875366,Wed Apr 30 2025 13:29:05 GMT-0500 (Central Daylight Time),587374.6000000238,A,bod,O,d,360,1,5831.899999976158,581542.7000000477,7134,WL,C,13.0
4,34.855000019073486,learn,25144.999980926514,Wed Apr 30 2025 13:29:05 GMT-0500 (Central Daylight Time),587524.5,A,body,O,y,130,1,5981.799999952316,581542.7000000477,7134,WL,C,13.0
4,35.28800010681152,learn,24711.999893188477,Wed Apr 30 2025 13:29:05 GMT-0500 (Central Daylight Time),587956.7000000477,A,bodyenter,O,enter,414,1,6414.0,581542.7000000477,7134,WL,C,13.0
4,37.53700017929077,learn,22462.99982070923,Wed Apr 30 2025 13:29:05 GMT-0500 (Central Daylight Time),590206.3999999762,A,n,O,n,2235,1,2249.5,587956.8999999762,7134,WL,C,14.0
4,37.63700008392334,learn,22362.99991607666,Wed Apr 30 2025 13:29:05 GMT-0500 (Central Daylight Time),590306.3000000715,A,na,O,a,90,1,2349.4000000953674,587956.8999999762,7134,WL,C,14.0
4,37.82100009918213,learn,22178.99990081787,Wed Apr 30 2025 13:29:05 GMT-0500 (Central Daylight Time),590490.3999999762,A,nai,O,i,167,1,2533.5,587956.8999999762,7134,WL,C,14.0
4,38.021000146865845,learn,21978.999853134155,Wed Apr 30 2025 13:29:05 GMT-0500 (Central Daylight Time),590690.1000000238,A,nail,O,l,181,1,2733.2000000476837,587956.8999999762,7134,WL,C,14.0
4,38.40400004386902,learn,21595.99995613098,Wed Apr 30 2025 13:29:05 GMT-0500 (Central Daylight Time),591073.3999999762,A,nailenter,O,enter,366,1,3116.5,587956.8999999762,7134,WL,C,14.0
4,45.01800012588501,learn,14981.99987411499,Wed Apr 30 2025 13:29:05 GMT-0500 (Central Daylight Time),597687.3999999762,A,enter,O,enter,6599,1,6613.699999928474,591073.7000000477,7134,WL,C,15.0
5,1.81600022315979,learn,60000.0,Wed Apr 30 2025 13:29:05 GMT-0500 (Central Daylight Time),666383.6000000238,A,t,O,t,1793,1,1815.8999999761581,664567.7000000477,7134,WL,C,1.0
5,1.9490001201629639,learn,60000.0,Wed Apr 30 2025 13:29:05 GMT-0500 (Central Daylight Time),666516.8000000715,A,to,O,o,110,1,1949.1000000238419,664567.7000000477,7134,WL,C,1.0
5,2.3320000171661377,learn,60000.0,Wed Apr 30 2025 13:29:05 GMT-0500 (Central Daylight Time),666899.7000000477,A,tow,O,w,361,1,2332.0,664567.7000000477,7134,WL,C,1.0
5,2.4640002250671387,learn,60000.0,Wed Apr 30 2025 13:29:05 GMT-0500 (Central Daylight Time),667031.3999999762,A,towe,O,e,124,1,2463.6999999284744,664567.7000000477,7134,WL,C,1.0
5,2.632000207901001,learn,60000.0,Wed Apr 30 2025 13:29:05 GMT-0500 (Central Daylight Time),667199.8999999762,A,tower,O,r,150,1,2632.1999999284744,664567.7000000477,7134,WL,C,1.0
5,2.9640002250671387,learn,60000.0,Wed Apr 30 2025 13:29:05 GMT-0500 (Central Daylight Time),667532.1000000238,A,towerenter,O,enter,311,1,2964.399999976158,664567.7000000477,7134,WL,C,1.0
5,3.680999994277954,learn,60000.0,Wed Apr 30 2025 13:29:05 GMT-0500 (Central Daylight Time),668248.5,A,w,O,w,708,1,716.1000000238419,667532.3999999762,7134,WL,C,2.0
5,3.8480000495910645,learn,60000.0,Wed Apr 30 2025 13:29:05 GMT-0500 (Central Daylight Time),668415.7000000477,A,wh,O,h,151,1,883.3000000715256,667532.3999999762,7134,WL,C,2.0
5,3.997000217437744,learn,60000.0,Wed Apr 30 2025 13:29:05 GMT-0500 (Central Daylight Time),668565.0,A,whe,O,e,128,1,1032.6000000238419,667532.3999999762,7134,WL,C,2.0
5,4.13100004196167,learn,60000.0,Wed Apr 30 2025 13:29:05 GMT-0500 (Central Daylight Time),668698.5,A,whea,O,a,121,1,1166.1000000238419,667532.3999999762,7134,WL,C,2.0
5,4.331000089645386,learn,60000.0,Wed Apr 30 2025 13:29:05 GMT-0500 (Central Daylight Time),668898.7000000477,A,wheat,O,t,180,1,1366.3000000715256,667532.3999999762,7134,WL,C,2.0
5,4.747000217437744,learn,60000.0,Wed Apr 30 2025 13:29:05 GMT-0500 (Central Daylight Time),669314.7000000477,A,wheatenter,O,enter,403,1,1782.3000000715256,667532.3999999762,7134,WL,C,2.0
5,5.364000082015991,learn,60000.0,Wed Apr 30 2025 13:29:05 GMT-0500 (Central Daylight Time),669931.5,A,q,O,q,606,1,616.6000000238419,669314.8999999762,7134,WL,C,3.0
5,5.546000003814697,learn,60000.0,Wed Apr 30 2025 13:29:05 GMT-0500 (Central Daylight Time),670114.2000000477,A,qu,O,u,173,1,799.3000000715256,669314.8999999762,7134,WL,C,3.0
5,5.646000146865845,learn,60000.0,Wed Apr 30 2025 13:29:05 GMT-0500 (Central Daylight Time),670214.0,A,que,O,e,80,1,899.1000000238419,669314.8999999762,7134,WL,C,3.0
5,5.813000202178955,learn,60000.0,Wed Apr 30 2025 13:29:05 GMT-0500 (Central Daylight Time),670380.8999999762,A,quee,O,e,154,1,1066.0,669314.8999999762,7134,WL,C,3.0
5,5.997000217437744,learn,60000.0,Wed Apr 30 2025 13:29:05 GMT-0500 (Central Daylight Time),670565.2000000477,A,queen,O,n,171,1,1250.3000000715256,669314.8999999762,7134,WL,C,3.0
5,6.414000034332275,learn,60000.0,Wed Apr 30 2025 13:29:05 GMT-0500 (Central Daylight Time),670982.0,A,queenenter,O,enter,395,1,1667.1000000238419,669314.8999999762,7134,WL,C,3.0
5,7.330000162124634,learn,60000.0,Wed Apr 30 2025 13:29:05 GMT-0500 (Central Daylight Time),671897.8999999762,A,s,O,s,906,1,915.5999999046326,670982.3000000715,7134,WL,C,4.0
5,7.464000225067139,learn,60000.0,Wed Apr 30 2025 13:29:05 GMT-0500 (Central Daylight Time),672031.3000000715,A,su,O,u,111,1,1049.0,670982.3000000715,7134,WL,C,4.0
5,7.630000114440918,learn,60000.0,Wed Apr 30 2025 13:29:05 GMT-0500 (Central Daylight Time),672197.5,A,sug,O,g,144,1,1215.1999999284744,670982.3000000715,7134,WL,C,4.0
5,7.729000091552734,learn,60000.0,Wed Apr 30 2025 13:29:05 GMT-0500 (Central Daylight Time),672296.7000000477,A,suga,O,a,89,1,1314.3999999761581,670982.3000000715,7134,WL,C,4.0
5,7.896000146865845,learn,60000.0,Wed Apr 30 2025 13:29:05 GMT-0500 (Central Daylight Time),672463.7000000477,A,sugar,O,r,161,1,1481.3999999761581,670982.3000000715,7134,WL,C,4.0
5,8.163000106811523,learn,60000.0,Wed Apr 30 2025 13:29:05 GMT-0500 (Central Daylight Time),672730.8999999762,A,sugarenter,O,enter,248,1,1748.5999999046326,670982.3000000715,7134,WL,C,4.0
5,8.897000074386597,learn,60000.0,Wed Apr 30 2025 13:29:05 GMT-0500 (Central Daylight Time),673464.3999999762,A,h,O,h,728,1,733.1999999284744,672731.2000000477,7134,WL,C,5.0
5,8.995000123977661,learn,60000.0,Wed Apr 30 2025 13:29:05 GMT-0500 (Central Daylight Time),673562.7000000477,A,ho,O,o,77,1,831.5,672731.2000000477,7134,WL,C,5.0
5,9.246000051498413,learn,60000.0,Wed Apr 30 2025 13:29:05 GMT-0500 (Central Daylight Time),673814.2000000477,A,hom,O,m,228,1,1083.0,672731.2000000477,7134,WL,C,5.0
5,9.34600019454956,learn,60000.0,Wed Apr 30 2025 13:29:05 GMT-0500 (Central Daylight Time),673913.8999999762,A,home,O,e,88,1,1182.6999999284744,672731.2000000477,7134,WL,C,5.0
5,9.612000226974487,learn,60000.0,Wed Apr 30 2025 13:29:05 GMT-0500 (Central Daylight Time),674179.3000000715,A,homeenter,O,enter,246,1,1448.1000000238419,672731.2000000477,7134,WL,C,5.0
5,9.979000091552734,learn,60000.0,Wed Apr 30 2025 13:29:05 GMT-0500 (Central Daylight Time),674547.1000000238,A,b,O,b,349,1,367.60000002384186,674179.5,7134,WL,C,6.0
5,10.112000226974487,learn,60000.0,Wed Apr 30 2025 13:29:05 GMT-0500 (Central Daylight Time),674679.8000000715,A,bo,O,o,111,1,500.3000000715256,674179.5,7134,WL,C,6.0
5,10.229000091552734,learn,60000.0,Wed Apr 30 2025 13:29:05 GMT-0500 (Central Daylight Time),674796.8999999762,A,boy,O,y,96,1,617.3999999761581,674179.5,7134,WL,C,6.0
5,10.562000036239624,learn,60000.0,Wed Apr 30 2025 13:29:05 GMT-0500 (Central Daylight Time),675129.3000000715,A,boyenter,O,enter,322,1,949.8000000715256,674179.5,7134,WL,C,6.0
5,10.912000179290771,learn,60000.0,Wed Apr 30 2025 13:29:05 GMT-0500 (Central Daylight Time),675479.6000000238,A,d,O,d,336,1,350.0,675129.6000000238,7134,WL,C,7.0
5,11.045000076293945,learn,60000.0,Wed Apr 30 2025 13:29:05 GMT-0500 (Central Daylight Time),675613.3000000715,A,do,O,o,119,1,483.7000000476837,675129.6000000238,7134,WL,C,7.0
5,11.195000171661377,learn,60000.0,Wed Apr 30 2025 13:29:05 GMT-0500 (Central Daylight Time),675762.8000000715,A,doc,O,c,130,1,633.2000000476837,675129.6000000238,7134,WL,C,7.0
5,11.42900013923645,learn,60000.0,Wed Apr 30 2025 13:29:05 GMT-0500 (Central Daylight Time),675996.3000000715,A,doct,O,t,220,1,866.7000000476837,675129.6000000238,7134,WL,C,7.0
5,11.561000108718872,learn,60000.0,Wed Apr 30 2025 13:29:05 GMT-0500 (Central Daylight Time),676128.8000000715,A,docto,O,o,123,1,999.2000000476837,675129.6000000238,7134,WL,C,7.0
5,11.678000211715698,learn,60000.0,Wed Apr 30 2025 13:29:05 GMT-0500 (Central Daylight Time),676245.8000000715,A,doctor,O,r,97,1,1116.2000000476837,675129.6000000238,7134,WL,C,7.0
5,12.09500002861023,learn,60000.0,Wed Apr 30 2025 13:29:05 GMT-0500 (Central Daylight Time),676662.8999999762,A,doctorenter,O,enter,402,1,1533.2999999523163,675129.6000000238,7134,WL,C,7.0
5,13.67900013923645,learn,60000.0,Wed Apr 30 2025 13:29:05 GMT-0500 (Central Daylight Time),678246.3999999762,A,c,O,c,1563,1,1583.1999999284744,676663.2000000477,7134,WL,C,8.0
5,13.761000156402588,learn,60000.0,Wed Apr 30 2025 13:29:05 GMT-0500 (Central Daylight Time),678328.3000000715,A,ca,O,a,62,1,1665.1000000238419,676663.2000000477,7134,WL,C,8.0
5,13.912000179290771,learn,60000.0,Wed Apr 30 2025 13:29:05 GMT-0500 (Central Daylight Time),678479.3999999762,A,cam,O,m,130,1,1816.1999999284744,676663.2000000477,7134,WL,C,8.0
5,14.061000108718872,learn,60000.0,Wed Apr 30 2025 13:29:05 GMT-0500 (Central Daylight Time),678628.8000000715,A,camp,O,p,136,1,1965.6000000238419,676663.2000000477,7134,WL,C,8.0
5,14.460000038146973,learn,60000.0,Wed Apr 30 2025 13:29:05 GMT-0500 (Central Daylight Time),679027.8999999762,A,campenter,O,enter,379,1,2364.6999999284744,676663.2000000477,7134,WL,C,8.0
5,14.777000188827515,learn,60000.0,Wed Apr 30 2025 13:29:05 GMT-0500 (Central Daylight Time),679344.7000000477,A,f,O,f,299,1,316.5,679028.2000000477,7134,WL,C,9.0
5,14.943000078201294,learn,60000.0,Wed Apr 30 2025 13:29:05 GMT-0500 (Central Daylight Time),679510.3999999762,A,fl,O,l,150,1,482.1999999284744,679028.2000000477,7134,WL,C,9.0
5,15.094000101089478,learn,60000.0,Wed Apr 30 2025 13:29:05 GMT-0500 (Central Daylight Time),679661.3999999762,A,fla,O,a,137,1,633.1999999284744,679028.2000000477,7134,WL,C,9.0
5,15.36300015449524,learn,60000.0,Wed Apr 30 2025 13:29:05 GMT-0500 (Central Daylight Time),679930.7000000477,A,flag,O,g,248,1,902.5,679028.2000000477,7134,WL,C,9.0
5,15.659000158309937,learn,60000.0,Wed Apr 30 2025 13:29:05 GMT-0500 (Central Daylight Time),680227.1000000238,A,flagenter,O,enter,286,1,1198.8999999761581,679028.2000000477,7134,WL,C,9.0
5,16.04300022125244,learn,60000.0,Wed Apr 30 2025 13:29:05 GMT-0500 (Central Daylight Time),680610.8999999762,A,l,O,l,375,1,383.6999999284744,680227.2000000477,7134,WL,C,10.0
5,16.194000005722046,learn,60000.0,Wed Apr 30 2025 13:29:05 GMT-0500 (Central Daylight Time),680761.8000000715,A,le,O,e,141,1,534.6000000238419,680227.2000000477,7134,WL,C,10.0
5,16.39400005340576,learn,60000.0,Wed Apr 30 2025 13:29:05 GMT-0500 (Central Daylight Time),680961.3000000715,A,let,O,t,190,1,734.1000000238419,680227.2000000477,7134,WL,C,10.0
5,16.56000018119812,learn,60000.0,Wed Apr 30 2025 13:29:05 GMT-0500 (Central Daylight Time),681127.8999999762,A,lett,O,t,150,1,900.6999999284744,680227.2000000477,7134,WL,C,10.0
5,16.694000005722046,learn,60000.0,Wed Apr 30 2025 13:29:05 GMT-0500 (Central Daylight Time),681261.8999999762,A,lette,O,e,111,1,1034.6999999284744,680227.2000000477,7134,WL,C,10.0
5,16.8270001411438,learn,60000.0,Wed Apr 30 2025 13:29:05 GMT-0500 (Central Daylight Time),681394.3000000715,A,letter,O,r,121,1,1167.1000000238419,680227.2000000477,7134,WL,C,10.0
5,17.075000047683716,learn,60000.0,Wed Apr 30 2025 13:29:05 GMT-0500 (Central Daylight Time),681642.8000000715,A,letterenter,O,enter,237,1,1415.6000000238419,680227.2000000477,7134,WL,C,10.0
5,17.659000158309937,learn,60000.0,Wed Apr 30 2025 13:29:05 GMT-0500 (Central Daylight Time),682226.5,A,n,O,n,573,1,583.5,681643.0,7134,WL,C,11.0
5,17.79200005531311,learn,60000.0,Wed Apr 30 2025 13:29:05 GMT-0500 (Central Daylight Time),682359.5,A,na,O,a,118,1,716.5,681643.0,7134,WL,C,11.0
5,17.960000038146973,learn,60000.0,Wed Apr 30 2025 13:29:05 GMT-0500 (Central Daylight Time),682527.3000000715,A,nai,O,i,153,1,884.3000000715256,681643.0,7134,WL,C,11.0
5,18.175000190734863,learn,60000.0,Wed Apr 30 2025 13:29:05 GMT-0500 (Central Daylight Time),682743.0,A,nail,O,l,207,1,1100.0,681643.0,7134,WL,C,11.0
5,18.842000007629395,learn,60000.0,Wed Apr 30 2025 13:29:05 GMT-0500 (Central Daylight Time),683410.1000000238,A,nailenter,O,enter,659,1,1767.1000000238419,681643.0,7134,WL,C,11.0
5,25.27300000190735,learn,60000.0,Wed Apr 30 2025 13:29:05 GMT-0500 (Central Daylight Time),689840.8999999762,A,n,O,n,6422,1,6430.5,683410.3999999762,7134,WL,C,12.0
5,25.407000064849854,learn,60000.0,Wed Apr 30 2025 13:29:05 GMT-0500 (Central Daylight Time),689975.2000000477,A,na,O,a,112,1,6564.800000071526,683410.3999999762,7134,WL,C,12.0
5,25.623000144958496,learn,60000.0,Wed Apr 30 2025 13:29:05 GMT-0500 (Central Daylight Time),690190.7000000477,A,nai,O,i,200,1,6780.300000071526,683410.3999999762,7134,WL,C,12.0
5,25.824000120162964,learn,60000.0,Wed Apr 30 2025 13:29:05 GMT-0500 (Central Daylight Time),690391.8000000715,A,nail,O,l,179,1,6981.400000095367,683410.3999999762,7134,WL,C,12.0
5,28.055999994277954,learn,60000.0,Wed Apr 30 2025 13:29:05 GMT-0500 (Central Daylight Time),692623.7000000477,A,nailenter,O,enter,2222,1,9213.300000071526,683410.3999999762,7134,WL,C,12.0
5,28.35700011253357,learn,60000.0,Wed Apr 30 2025 13:29:05 GMT-0500 (Central Daylight Time),692924.6000000238,A,c,O,c,288,1,300.60000002384186,692624.0,7134,WL,C,13.0
5,28.757000207901,learn,60000.0,Wed Apr 30 2025 13:29:05 GMT-0500 (Central Daylight Time),693324.7000000477,A,ca,O,a,380,1,700.7000000476837,692624.0,7134,WL,C,13.0
5,29.007000207901,learn,60000.0,Wed Apr 30 2025 13:29:05 GMT-0500 (Central Daylight Time),693574.7000000477,A,cat,O,t,229,1,950.7000000476837,692624.0,7134,WL,C,13.0
5,29.1560001373291,learn,60000.0,Wed Apr 30 2025 13:29:05 GMT-0500 (Central Daylight Time),693723.7000000477,A,catt,O,t,137,1,1099.7000000476837,692624.0,7134,WL,C,13.0
5,29.323000192642212,learn,60000.0,Wed Apr 30 2025 13:29:05 GMT-0500 (Central Daylight Time),693890.3999999762,A,cattl,O,l,148,1,1266.3999999761581,692624.0,7134,WL,C,13.0
5,29.42300009727478,learn,60000.0,Wed Apr 30 2025 13:29:05 GMT-0500 (Central Daylight Time),693990.8000000715,A,cattle,O,e,79,1,1366.8000000715256,692624.0,7134,WL,C,13.0
5,29.92300009727478,learn,60000.0,Wed Apr 30 2025 13:29:05 GMT-0500 (Central Daylight Time),694490.7000000477,A,cattleenter,O,enter,488,1,1866.7000000476837,692624.0,7134,WL,C,13.0
5,30.872000217437744,learn,60000.0,Wed Apr 30 2025 13:29:05 GMT-0500 (Central Daylight Time),695439.8999999762,A,s,O,s,933,1,949.0,694490.8999999762,7134,WL,C,14.0
5,31.00600004196167,learn,60000.0,Wed Apr 30 2025 13:29:05 GMT-0500 (Central Daylight Time),695573.5,A,sh,O,h,119,1,1082.6000000238419,694490.8999999762,7134,WL,C,14.0
5,31.122000217437744,learn,60000.0,Wed Apr 30 2025 13:29:05 GMT-0500 (Central Daylight Time),695689.3000000715,A,sho,O,o,97,1,1198.4000000953674,694490.8999999762,7134,WL,C,14.0
5,31.255000114440918,learn,60000.0,Wed Apr 30 2025 13:29:05 GMT-0500 (Central Daylight Time),695823.0,A,shor,O,r,114,1,1332.1000000238419,694490.8999999762,7134,WL,C,14.0
5,31.373000144958496,learn,60000.0,Wed Apr 30 2025 13:29:05 GMT-0500 (Central Daylight Time),695941.0,A,shore,O,e,95,1,1450.1000000238419,694490.8999999762,7134,WL,C,14.0
5,31.753000020980835,learn,60000.0,Wed Apr 30 2025 13:29:05 GMT-0500 (Central Daylight Time),696321.1000000238,A,shoreenter,O,enter,367,1,1830.2000000476837,694490.8999999762,7134,WL,C,14.0
5,32.38900017738342,learn,60000.0,Wed Apr 30 2025 13:29:05 GMT-0500 (Central Daylight Time),696956.3999999762,A,b,O,b,617,1,635.0,696321.3999999762,7134,WL,C,15.0
5,32.58900022506714,learn,60000.0,Wed Apr 30 2025 13:29:05 GMT-0500 (Central Daylight Time),697156.3999999762,A,bo,O,o,177,1,835.0,696321.3999999762,7134,WL,C,15.0
5,32.83900022506714,learn,60000.0,Wed Apr 30 2025 13:29:05 GMT-0500 (Central Daylight Time),697406.8000000715,A,bod,O,d,228,1,1085.4000000953674,696321.3999999762,7134,WL,C,15.0
5,32.9539999961853,learn,60000.0,Wed Apr 30 2025 13:29:05 GMT-0500 (Central Daylight Time),697521.6000000238,A,body,O,y,103,1,1200.2000000476837,696321.3999999762,7134,WL,C,15.0
5,33.30400013923645,learn,60000.0,Wed Apr 30 2025 13:29:05 GMT-0500 (Central Daylight Time),697872.0,A,bodyenter,O,enter,333,1,1550.6000000238419,696321.3999999762,7134,WL,C,15.0
6,1.7179999351501465,distr,58282.00006484985,Wed Apr 30 2025 13:29:05 GMT-0500 (Central Daylight Time),768234.0,B,s,O,s,1706,1,1717.1000000238419,766516.8999999762,7134,WL,C,1.0
6,1.866999864578247,distr,58133.00013542175,Wed Apr 30 2025 13:29:05 GMT-0500 (Central Daylight Time),768383.1000000238,B,sk,O,k,130,1,1866.2000000476837,766516.8999999762,7134,WL,C,1.0
6,2.050999879837036,distr,57949.000120162964,Wed Apr 30 2025 13:29:05 GMT-0500 (Central Daylight Time),768566.8999999762,B,sky,O,y,160,1,2050.0,766516.8999999762,7134,WL,C,1.0
6,2.368000030517578,distr,57631.99996948242,Wed Apr 30 2025 13:29:05 GMT-0500 (Central Daylight Time),768883.6000000238,B,skyenter,O,enter,294,1,2366.7000000476837,766516.8999999762,7134,WL,C,1.0
6,2.7179999351501465,distr,57282.00006484985,Wed Apr 30 2025 13:29:05 GMT-0500 (Central Daylight Time),769234.1000000238,B,d,O,d,332,1,350.10000002384186,768884.0,7134,WL,C,2.0
6,2.8509998321533203,distr,57149.00016784668,Wed Apr 30 2025 13:29:05 GMT-0500 (Central Daylight Time),769366.8999999762,B,do,O,o,111,1,482.89999997615814,768884.0,7134,WL,C,2.0
6,3.066999912261963,distr,56933.00008773804,Wed Apr 30 2025 13:29:05 GMT-0500 (Central Daylight Time),769583.0,B,dol,O,l,194,1,699.0,768884.0,7134,WL,C,2.0
6,3.2170000076293945,distr,56782.999992370605,Wed Apr 30 2025 13:29:05 GMT-0500 (Central Daylight Time),769733.2000000477,B,doll,O,l,135,1,849.2000000476837,768884.0,7134,WL,C,2.0
6,3.2819998264312744,distr,56718.000173568726,Wed Apr 30 2025 13:29:05 GMT-0500 (Central Daylight Time),769798.5,B,dolla,O,a,44,1,914.5,768884.0,7134,WL,C,2.0
6,3.484999895095825,distr,56515.000104904175,Wed Apr 30 2025 13:29:05 GMT-0500 (Central Daylight Time),770001.3000000715,B,dollar,O,r,195,1,1117.3000000715256,768884.0,7134,WL,C,2.0
6,3.7669999599456787,distr,56233.00004005432,Wed Apr 30 2025 13:29:05 GMT-0500 (Central Daylight Time),770282.6000000238,B,dollarenter,O,enter,268,1,1398.6000000238419,768884.0,7134,WL,C,2.0
6,4.199999809265137,distr,55800.00019073486,Wed Apr 30 2025 13:29:05 GMT-0500 (Central Daylight Time),770716.5,B,m,O,m,422,1,433.6999999284744,770282.8000000715,7134,WL,C,3.0
6,4.348999977111816,distr,55651.00002288818,Wed Apr 30 2025 13:29:05 GMT-0500 (Central Daylight Time),770865.3999999762,B,mo,O,o,131,1,582.5999999046326,770282.8000000715,7134,WL,C,3.0
6,4.531999826431274,distr,55468.000173568726,Wed Apr 30 2025 13:29:05 GMT-0500 (Central Daylight Time),771048.0,B,mot,O,t,174,1,765.1999999284744,770282.8000000715,7134,WL,C,3.0
6,4.684000015258789,distr,55315.99998474121,Wed Apr 30 2025 13:29:05 GMT-0500 (Central Daylight Time),771199.8999999762,B,moth,O,h,133,1,917.0999999046326,770282.8000000715,7134,WL,C,3.0
6,4.748999834060669,distr,55251.00016593933,Wed Apr 30 2025 13:29:05 GMT-0500 (Central Daylight Time),771264.8999999762,B,mothe,O,e,46,1,982.0999999046326,770282.8000000715,7134,WL,C,3.0
6,4.848999977111816,distr,55151.00002288818,Wed Apr 30 2025 13:29:05 GMT-0500 (Central Daylight Time),771365.5,B,mother,O,r,81,1,1082.6999999284744,770282.8000000715,7134,WL,C,3.0
6,5.083999872207642,distr,54916.00012779236,Wed Apr 30 2025 13:29:05 GMT-0500 (Central Daylight Time),771600.1000000238,B,motherenter,O,enter,216,1,1317.2999999523163,770282.8000000715,7134,WL,C,3.0
6,6.482999801635742,distr,53517.00019836426,Wed Apr 30 2025 13:29:05 GMT-0500 (Central Daylight Time),772998.8000000715,B,m,O,m,1384,1,1398.5,771600.3000000715,7134,WL,C,4.0
6,6.582000017166138,distr,53417.99998283386,Wed Apr 30 2025 13:29:05 GMT-0500 (Central Daylight Time),773098.3000000715,B,me,O,e,80,1,1498.0,771600.3000000715,7134,WL,C,4.0
6,6.750999927520752,distr,53249.00007247925,Wed Apr 30 2025 13:29:05 GMT-0500 (Central Daylight Time),773266.8999999762,B,mea,O,a,149,1,1666.5999999046326,771600.3000000715,7134,WL,C,4.0
6,6.8999998569488525,distr,53100.00014305115,Wed Apr 30 2025 13:29:05 GMT-0500 (Central Daylight Time),773416.6000000238,B,meat,O,t,128,1,1816.2999999523163,771600.3000000715,7134,WL,C,4.0
6,7.197999954223633,distr,52802.00004577637,Wed Apr 30 2025 13:29:05 GMT-0500 (Central Daylight Time),773714.5,B,meatenter,O,enter,278,1,2114.1999999284744,771600.3000000715,7134,WL,C,4.0
6,8.680999994277954,distr,51319.000005722046,Wed Apr 30 2025 13:29:05 GMT-0500 (Central Daylight Time),775197.5,B,w,O,w,1470,1,1482.7999999523163,773714.7000000477,7134,WL,C,5.0
6,9.697999954223633,distr,50302.00004577637,Wed Apr 30 2025 13:29:05 GMT-0500 (Central Daylight Time),776213.8999999762,B,,O,backspace,1001,1,2499.1999999284744,773714.7000000477,7134,WL,C,5.0
6,9.898000001907349,distr,50101.99999809265,Wed Apr 30 2025 13:29:05 GMT-0500 (Central Daylight Time),776414.3999999762,B,c,O,c,186,1,2699.6999999284744,773714.7000000477,7134,WL,C,5.0
6,10.030999898910522,distr,49969.00010108948,Wed Apr 30 2025 13:29:05 GMT-0500 (Central Daylight Time),776547.2000000477,B,ch,O,h,114,1,2832.5,773714.7000000477,7134,WL,C,5.0
6,10.180999994277954,distr,49819.000005722046,Wed Apr 30 2025 13:29:05 GMT-0500 (Central Daylight Time),776697.2000000477,B,chr,O,r,131,1,2982.5,773714.7000000477,7134,WL,C,5.0
6,10.381999969482422,distr,49618.00003051758,Wed Apr 30 2025 13:29:05 GMT-0500 (Central Daylight Time),776898.3000000715,B,chri,O,i,182,1,3183.600000023842,773714.7000000477,7134,WL,C,5.0
6,10.632999897003174,distr,49367.000102996826,Wed Apr 30 2025 13:29:05 GMT-0500 (Central Daylight Time),777149.1000000238,B,chris,O,s,237,1,3434.399999976158,773714.7000000477,7134,WL,C,5.0
6,10.832000017166138,distr,49167.99998283386,Wed Apr 30 2025 13:29:05 GMT-0500 (Central Daylight Time),777348.3999999762,B,christ,O,t,187,1,3633.6999999284744,773714.7000000477,7134,WL,C,5.0
6,11.19599986076355,distr,48804.00013923645,Wed Apr 30 2025 13:29:05 GMT-0500 (Central Daylight Time),777712.6000000238,B,christm,O,m,345,1,3997.899999976158,773714.7000000477,7134,WL,C,5.0
6,11.33299994468689,distr,48667.00005531311,Wed Apr 30 2025 13:29:05 GMT-0500 (Central Daylight Time),777849.3999999762,B,christma,O,a,130,1,4134.699999928474,773714.7000000477,7134,WL,C,5.0
6,11.447999954223633,distr,48552.00004577637,Wed Apr 30 2025 13:29:05 GMT-0500 (Central Daylight Time),777963.7000000477,B,christmas,O,s,95,1,4249.0,773714.7000000477,7134,WL,C,5.0
6,11.796000003814697,distr,48203.9999961853,Wed Apr 30 2025 13:29:05 GMT-0500 (Central Daylight Time),778312.0,B,christmasenter,O,enter,330,1,4597.299999952316,773714.7000000477,7134,WL,C,5.0
6,13.230000019073486,distr,46769.999980926514,Wed Apr 30 2025 13:29:05 GMT-0500 (Central Daylight Time),779746.6000000238,B,w,O,w,1425,1,1434.2999999523163,778312.3000000715,7134,WL,C,6.0
6,13.363999843597412,distr,46636.00015640259,Wed Apr 30 2025 13:29:05 GMT-0500 (Central Daylight Time),779880.1000000238,B,wi,O,i,127,1,1567.7999999523163,778312.3000000715,7134,WL,C,6.0
6,13.562999963760376,distr,46437.000036239624,Wed Apr 30 2025 13:29:05 GMT-0500 (Central Daylight Time),780079.3999999762,B,wit,O,t,192,1,1767.0999999046326,778312.3000000715,7134,WL,C,6.0
6,14.013000011444092,distr,45986.99998855591,Wed Apr 30 2025 13:29:05 GMT-0500 (Central Daylight Time),780529.6000000238,B,wi,O,backspace,432,1,2217.2999999523163,778312.3000000715,7134,WL,C,6.0
6,14.27999997138977,distr,45720.00002861023,Wed Apr 30 2025 13:29:05 GMT-0500 (Central Daylight Time),780796.0,B,win,O,n,254,1,2483.6999999284744,778312.3000000715,7134,WL,C,6.0
6,14.36299991607666,distr,45637.00008392334,Wed Apr 30 2025 13:29:05 GMT-0500 (Central Daylight Time),780879.7000000477,B,wint,O,t,68,1,2567.399999976158,778312.3000000715,7134,WL,C,6.0
6,14.495999813079834,distr,45504.000186920166,Wed Apr 30 2025 13:29:05 GMT-0500 (Central Daylight Time),781012.3999999762,B,winte,O,e,118,1,2700.0999999046326,778312.3000000715,7134,WL,C,6.0
6,14.645999908447266,distr,45354.000091552734,Wed Apr 30 2025 13:29:05 GMT-0500 (Central Daylight Time),781162.3999999762,B,winter,O,r,131,1,2850.0999999046326,778312.3000000715,7134,WL,C,6.0
6,15.02999997138977,distr,44970.00002861023,Wed Apr 30 2025 13:29:05 GMT-0500 (Central Daylight Time),781546.3999999762,B,winterenter,O,enter,365,1,3234.0999999046326,778312.3000000715,7134,WL,C,6.0
6,37.15499997138977,distr,22845.00002861023,Wed Apr 30 2025 13:29:05 GMT-0500 (Central Daylight Time),803671.3999999762,B,enter,O,enter,22110,1,22124.599999904633,781546.8000000715,7134,WL,C,7.0
6,37.603999853134155,distr,22396.000146865845,Wed Apr 30 2025 13:29:05 GMT-0500 (Central Daylight Time),804120.6000000238,B,enter,O,enter,432,1,448.89999997615814,803671.7000000477,7134,WL,C,8.0
6,37.88800001144409,distr,22111.99998855591,Wed Apr 30 2025 13:29:05 GMT-0500 (Central Daylight Time),804404.8000000715,B,enter,O,enter,265,1,283.90000009536743,804120.8999999762,7134,WL,C,9.0
6,38.139999866485596,distr,21860.000133514404,Wed Apr 30 2025 13:29:05 GMT-0500 (Central Daylight Time),804656.0,B,enter,O,enter,231,1,250.89999997615814,804405.1000000238,7134,WL,C,10.0
6,38.38800001144409,distr,21611.99998855591,Wed Apr 30 2025 13:29:05 GMT-0500 (Central Daylight Time),804905.0,B,enter,O,enter,232,1,248.69999992847443,804656.3000000715,7134,WL,C,11.0
6,38.6710000038147,distr,21328.999996185303,Wed Apr 30 2025 13:29:05 GMT-0500 (Central Daylight Time),805187.6000000238,B,enter,O,enter,263,1,282.39999997615814,804905.2000000477,7134,WL,C,12.0
6,39.08699989318848,distr,20913.000106811523,Wed Apr 30 2025 13:29:05 GMT-0500 (Central Daylight Time),805603.2000000477,B,enter,O,enter,396,1,415.2000000476837,805188.0,7134,WL,C,13.0
6,39.4210000038147,distr,20578.999996185303,Wed Apr 30 2025 13:29:05 GMT-0500 (Central Daylight Time),805937.5,B,enter,O,enter,325,1,334.10000002384186,805603.3999999762,7134,WL,C,14.0
6,39.97199988365173,distr,20028.000116348267,Wed Apr 30 2025 13:29:05 GMT-0500 (Central Daylight Time),806488.5,B,enter,O,enter,530,1,550.6999999284744,805937.8000000715,7134,WL,C,15.0
7,3.932000160217285,immed,56067.999839782715,Wed Apr 30 2025 13:29:05 GMT-0500 (Central Daylight Time),813736.7000000477,A,t,O,t,3921,1,3931.7000000476837,809805.0,7134,WL,C,1.0
7,4.0980000495910645,immed,55901.999950408936,Wed Apr 30 2025 13:29:05 GMT-0500 (Central Daylight Time),813902.3999999762,A,to,O,o,144,1,4097.399999976158,809805.0,7134,WL,C,1.0
7,4.230999946594238,immed,55769.00005340576,Wed Apr 30 2025 13:29:05 GMT-0500 (Central Daylight Time),814035.6000000238,A,toe,O,e,112,1,4230.600000023842,809805.0,7134,WL,C,1.0
7,4.3480000495910645,immed,55651.999950408936,Wed Apr 30 2025 13:29:05 GMT-0500 (Central Daylight Time),814152.3000000715,A,toer,O,r,99,1,4347.300000071526,809805.0,7134,WL,C,1.0
7,5.748000144958496,immed,54251.999855041504,Wed Apr 30 2025 13:29:05 GMT-0500 (Central Daylight Time),815552.6000000238,A,toe,O,backspace,1383,1,5747.600000023842,809805.0,7134,WL,C,1.0
7,5.963000059127808,immed,54036.99994087219,Wed Apr 30 2025 13:29:05 GMT-0500 (Central Daylight Time),815767.8000000715,A,to,O,backspace,200,1,5962.800000071526,809805.0,7134,WL,C,1.0
7,6.081000089645386,immed,53918.999910354614,Wed Apr 30 2025 13:29:05 GMT-0500 (Central Daylight Time),815885.3000000715,A,tow,O,w,97,1,6080.300000071526,809805.0,7134,WL,C,1.0
7,6.197000026702881,immed,53802.99997329712,Wed Apr 30 2025 13:29:05 GMT-0500 (Central Daylight Time),816001.8999999762,A,towe,O,e,97,1,6196.899999976158,809805.0,7134,WL,C,1.0
7,6.613000154495239,immed,53386.99984550476,Wed Apr 30 2025 13:29:05 GMT-0500 (Central Daylight Time),816417.6000000238,A,tower,O,r,395,1,6612.600000023842,809805.0,7134,WL,C,1.0
7,6.980999946594238,immed,53019.00005340576,Wed Apr 30 2025 13:29:05 GMT-0500 (Central Daylight Time),816785.1000000238,A,towerenter,O,enter,358,1,6980.100000023842,809805.0,7134,WL,C,1.0
7,8.347000122070312,immed,51652.99987792969,Wed Apr 30 2025 13:29:05 GMT-0500 (Central Daylight Time),818151.6000000238,A,w,O,w,1352,1,1366.2000000476837,816785.3999999762,7134,WL,C,2.0
7,8.478000164031982,immed,51521.99983596802,Wed Apr 30 2025 13:29:05 GMT-0500 (Central Daylight Time),818282.5,A,wh,O,h,110,1,1497.1000000238419,816785.3999999762,7134,WL,C,2.0
7,8.595999956130981,immed,51404.00004386902,Wed Apr 30 2025 13:29:05 GMT-0500 (Central Daylight Time),818400.1000000238,A,whe,O,e,100,1,1614.7000000476837,816785.3999999762,7134,WL,C,2.0
7,8.796000003814697,immed,51203.9999961853,Wed Apr 30 2025 13:29:05 GMT-0500 (Central Daylight Time),818600.2000000477,A,whea,O,a,184,1,1814.8000000715256,816785.3999999762,7134,WL,C,2.0
7,8.92900013923645,immed,51070.99986076355,Wed Apr 30 2025 13:29:05 GMT-0500 (Central Daylight Time),818733.5,A,wheat,O,t,120,1,1948.1000000238419,816785.3999999762,7134,WL,C,2.0
7,9.594000101089478,immed,50405.99989891052,Wed Apr 30 2025 13:29:05 GMT-0500 (Central Daylight Time),819398.5,A,wheatenter,O,enter,651,1,2613.100000023842,816785.3999999762,7134,WL,C,2.0
7,10.147000074386597,immed,49852.9999256134,Wed Apr 30 2025 13:29:05 GMT-0500 (Central Daylight Time),819951.0,A,q,O,q,533,1,552.1999999284744,819398.8000000715,7134,WL,C,3.0
7,10.413000106811523,immed,49586.99989318848,Wed Apr 30 2025 13:29:05 GMT-0500 (Central Daylight Time),820217.3000000715,A,qu,O,u,258,1,818.5,819398.8000000715,7134,WL,C,3.0
7,10.478000164031982,immed,49521.99983596802,Wed Apr 30 2025 13:29:05 GMT-0500 (Central Daylight Time),820282.5,A,que,O,e,55,1,883.6999999284744,819398.8000000715,7134,WL,C,3.0
7,10.67799997329712,immed,49322.00002670288,Wed Apr 30 2025 13:29:05 GMT-0500 (Central Daylight Time),820482.6000000238,A,quee,O,e,191,1,1083.7999999523163,819398.8000000715,7134,WL,C,3.0
7,10.82800006866455,immed,49171.99993133545,Wed Apr 30 2025 13:29:05 GMT-0500 (Central Daylight Time),820632.1000000238,A,queen,O,n,132,1,1233.2999999523163,819398.8000000715,7134,WL,C,3.0
7,11.276999950408936,immed,48723.000049591064,Wed Apr 30 2025 13:29:05 GMT-0500 (Central Daylight Time),821081.3000000715,A,queenenter,O,enter,433,1,1682.5,819398.8000000715,7134,WL,C,3.0
7,12.946000099182129,immed,47053.99990081787,Wed Apr 30 2025 13:29:05 GMT-0500 (Central Daylight Time),822750.3000000715,A,s,O,s,1658,1,1668.8000000715256,821081.5,7134,WL,C,4.0
7,13.077000141143799,immed,46922.9998588562,Wed Apr 30 2025 13:29:05 GMT-0500 (Central Daylight Time),822881.8999999762,A,su,O,u,120,1,1800.3999999761581,821081.5,7134,WL,C,4.0
7,13.261000156402588,immed,46738.99984359741,Wed Apr 30 2025 13:29:05 GMT-0500 (Central Daylight Time),823065.8999999762,A,sug,O,g,173,1,1984.3999999761581,821081.5,7134,WL,C,4.0
7,13.394999980926514,immed,46605.000019073486,Wed Apr 30 2025 13:29:05 GMT-0500 (Central Daylight Time),823199.0,A,suga,O,a,117,1,2117.5,821081.5,7134,WL,C,4.0
7,13.59500002861023,immed,46404.99997138977,Wed Apr 30 2025 13:29:05 GMT-0500 (Central Daylight Time),823399.1000000238,A,sugar,O,r,184,1,2317.600000023842,821081.5,7134,WL,C,4.0
7,13.827000141143799,immed,46172.9998588562,Wed Apr 30 2025 13:29:05 GMT-0500 (Central Daylight Time),823631.8999999762,A,sugarenter,O,enter,224,1,2550.399999976158,821081.5,7134,WL,C,4.0
7,14.478000164031982,immed,45521.99983596802,Wed Apr 30 2025 13:29:05 GMT-0500 (Central Daylight Time),824282.7000000477,A,h,O,h,641,1,650.5,823632.2000000477,7134,WL,C,5.0
7,14.57800006866455,immed,45421.99993133545,Wed Apr 30 2025 13:29:05 GMT-0500 (Central Daylight Time),824382.5,A,ho,O,o,86,1,750.2999999523163,823632.2000000477,7134,WL,C,5.0
7,14.795000076293945,immed,45204.999923706055,Wed Apr 30 2025 13:29:05 GMT-0500 (Central Daylight Time),824599.8000000715,A,hom,O,m,196,1,967.6000000238419,823632.2000000477,7134,WL,C,5.0
7,14.877000093460083,immed,45122.99990653992,Wed Apr 30 2025 13:29:05 GMT-0500 (Central Daylight Time),824681.0,A,home,O,e,62,1,1048.7999999523163,823632.2000000477,7134,WL,C,5.0
7,15.17799997329712,immed,44822.00002670288,Wed Apr 30 2025 13:29:05 GMT-0500 (Central Daylight Time),824982.2000000477,A,homeenter,O,enter,284,1,1350.0,823632.2000000477,7134,WL,C,5.0
7,15.526999950408936,immed,44473.000049591064,Wed Apr 30 2025 13:29:05 GMT-0500 (Central Daylight Time),825331.8999999762,A,b,O,b,337,1,349.39999997615814,824982.5,7134,WL,C,6.0
7,15.660000085830688,immed,44339.99991416931,Wed Apr 30 2025 13:29:05 GMT-0500 (Central Daylight Time),825464.8000000715,A,bo,O,o,116,1,482.3000000715256,824982.5,7134,WL,C,6.0
7,15.778000116348267,immed,44221.99988365173,Wed Apr 30 2025 13:29:05 GMT-0500 (Central Daylight Time),825582.3000000715,A,boy,O,y,102,1,599.8000000715256,824982.5,7134,WL,C,6.0
7,16.22699999809265,immed,43773.00000190735,Wed Apr 30 2025 13:29:05 GMT-0500 (Central Daylight Time),826031.2000000477,A,boyenter,O,enter,443,1,1048.7000000476837,824982.5,7134,WL,C,6.0
7,18.04200005531311,immed,41957.99994468689,Wed Apr 30 2025 13:29:05 GMT-0500 (Central Daylight Time),827846.8000000715,A,d,O,d,1810,1,1815.4000000953674,826031.3999999762,7134,WL,C,7.0
7,18.210000038146973,immed,41789.99996185303,Wed Apr 30 2025 13:29:05 GMT-0500 (Central Daylight Time),828014.6000000238,A,do,O,o,155,1,1983.2000000476837,826031.3999999762,7134,WL,C,7.0
7,18.30999994277954,immed,41690.00005722046,Wed Apr 30 2025 13:29:05 GMT-0500 (Central Daylight Time),828114.3000000715,A,doc,O,c,81,1,2082.9000000953674,826031.3999999762,7134,WL,C,7.0
7,18.610000133514404,immed,41389.999866485596,Wed Apr 30 2025 13:29:05 GMT-0500 (Central Daylight Time),828414.3000000715,A,doct,O,t,284,1,2382.9000000953674,826031.3999999762,7134,WL,C,7.0
7,18.759000062942505,immed,41240.999937057495,Wed Apr 30 2025 13:29:05 GMT-0500 (Central Daylight Time),828563.8000000715,A,docto,O,o,137,1,2532.4000000953674,826031.3999999762,7134,WL,C,7.0
7,18.858999967575073,immed,41141.00003242493,Wed Apr 30 2025 13:29:05 GMT-0500 (Central Daylight Time),828663.8999999762,A,doctor,O,r,84,1,2632.5,826031.3999999762,7134,WL,C,7.0
7,19.194000005722046,immed,40805.999994277954,Wed Apr 30 2025 13:29:05 GMT-0500 (Central Daylight Time),828998.0,A,doctorenter,O,enter,319,1,2966.600000023842,826031.3999999762,7134,WL,C,7.0
7,21.176000118255615,immed,38823.999881744385,Wed Apr 30 2025 13:29:05 GMT-0500 (Central Daylight Time),830980.3999999762,A,c,O,c,1970,1,1982.0999999046326,828998.3000000715,7134,WL,C,8.0
7,21.325000047683716,immed,38674.999952316284,Wed Apr 30 2025 13:29:05 GMT-0500 (Central Daylight Time),831129.8999999762,A,ca,O,a,139,1,2131.5999999046326,828998.3000000715,7134,WL,C,8.0
7,21.45900011062622,immed,38540.99988937378,Wed Apr 30 2025 13:29:05 GMT-0500 (Central Daylight Time),831263.2000000477,A,cam,O,m,112,1,2264.899999976158,828998.3000000715,7134,WL,C,8.0
7,21.55900001525879,immed,38440.99998474121,Wed Apr 30 2025 13:29:05 GMT-0500 (Central Daylight Time),831363.0,A,camp,O,p,80,1,2364.6999999284744,828998.3000000715,7134,WL,C,8.0
7,21.942000150680542,immed,38057.99984931946,Wed Apr 30 2025 13:29:05 GMT-0500 (Central Daylight Time),831746.6000000238,A,campenter,O,enter,372,1,2748.2999999523163,828998.3000000715,7134,WL,C,8.0
7,22.41000008583069,immed,37589.99991416931,Wed Apr 30 2025 13:29:05 GMT-0500 (Central Daylight Time),832214.2000000477,A,f,O,f,446,1,467.5,831746.7000000477,7134,WL,C,9.0
7,22.54200005531311,immed,37457.99994468689,Wed Apr 30 2025 13:29:05 GMT-0500 (Central Daylight Time),832346.8999999762,A,fl,O,l,113,1,600.1999999284744,831746.7000000477,7134,WL,C,9.0
7,22.674999952316284,immed,37325.000047683716,Wed Apr 30 2025 13:29:05 GMT-0500 (Central Daylight Time),832480.0,A,fla,O,a,107,1,733.2999999523163,831746.7000000477,7134,WL,C,9.0
7,23.02500009536743,immed,36974.99990463257,Wed Apr 30 2025 13:29:05 GMT-0500 (Central Daylight Time),832829.5,A,flag,O,g,334,1,1082.7999999523163,831746.7000000477,7134,WL,C,9.0
7,23.592999935150146,immed,36407.00006484985,Wed Apr 30 2025 13:29:05 GMT-0500 (Central Daylight Time),833397.3999999762,A,flagl,O,l,544,1,1650.6999999284744,831746.7000000477,7134,WL,C,9.0
7,24.075000047683716,immed,35924.999952316284,Wed Apr 30 2025 13:29:05 GMT-0500 (Central Daylight Time),833879.2000000477,A,flag,O,backspace,459,1,2132.5,831746.7000000477,7134,WL,C,9.0
7,24.492000102996826,immed,35507.999897003174,Wed Apr 30 2025 13:29:05 GMT-0500 (Central Daylight Time),834296.2000000477,A,flagenter,O,enter,399,1,2549.5,831746.7000000477,7134,WL,C,9.0
7,24.975000143051147,immed,35024.99985694885,Wed Apr 30 2025 13:29:05 GMT-0500 (Central Daylight Time),834779.2000000477,A,l,O,l,464,1,482.7000000476837,834296.5,7134,WL,C,10.0
7,25.09000015258789,immed,34909.99984741211,Wed Apr 30 2025 13:29:05 GMT-0500 (Central Daylight Time),834894.6000000238,A,le,O,e,100,1,598.1000000238419,834296.5,7134,WL,C,10.0
7,25.27500009536743,immed,34724.99990463257,Wed Apr 30 2025 13:29:05 GMT-0500 (Central Daylight Time),835079.2000000477,A,let,O,t,169,1,782.7000000476837,834296.5,7134,WL,C,10.0
7,25.424999952316284,immed,34575.000047683716,Wed Apr 30 2025 13:29:05 GMT-0500 (Central Daylight Time),835229.8000000715,A,lett,O,t,137,1,933.3000000715256,834296.5,7134,WL,C,10.0
7,25.574000120162964,immed,34425.999879837036,Wed Apr 30 2025 13:29:05 GMT-0500 (Central Daylight Time),835378.8999999762,A,lette,O,e,130,1,1082.3999999761581,834296.5,7134,WL,C,10.0
7,25.723999977111816,immed,34276.00002288818,Wed Apr 30 2025 13:29:05 GMT-0500 (Central Daylight Time),835528.7000000477,A,letter,O,r,133,1,1232.2000000476837,834296.5,7134,WL,C,10.0
7,26.04100012779236,immed,33958.99987220764,Wed Apr 30 2025 13:29:05 GMT-0500 (Central Daylight Time),835845.6000000238,A,letterenter,O,enter,296,1,1549.1000000238419,834296.5,7134,WL,C,10.0
7,26.608999967575073,immed,33391.00003242493,Wed Apr 30 2025 13:29:05 GMT-0500 (Central Daylight Time),836413.6000000238,A,n,O,n,555,1,567.7000000476837,835845.8999999762,7134,WL,C,11.0
7,26.756999969482422,immed,33243.00003051758,Wed Apr 30 2025 13:29:05 GMT-0500 (Central Daylight Time),836561.3000000715,A,na,O,a,127,1,715.4000000953674,835845.8999999762,7134,WL,C,11.0
7,26.990999937057495,immed,33009.000062942505,Wed Apr 30 2025 13:29:05 GMT-0500 (Central Daylight Time),836795.3999999762,A,nai,O,i,214,1,949.5,835845.8999999762,7134,WL,C,11.0
7,27.223999977111816,immed,32776.00002288818,Wed Apr 30 2025 13:29:05 GMT-0500 (Central Daylight Time),837028.8000000715,A,nail,O,l,212,1,1182.9000000953674,835845.8999999762,7134,WL,C,11.0
7,27.723000049591064,immed,32276.999950408936,Wed Apr 30 2025 13:29:05 GMT-0500 (Central Daylight Time),837527.8999999762,A,nailenter,O,enter,482,1,1682.0,835845.8999999762,7134,WL,C,11.0
7,29.341000080108643,immed,30658.999919891357,Wed Apr 30 2025 13:29:05 GMT-0500 (Central Daylight Time),839145.1000000238,A,c,O,c,1600,1,1616.8999999761581,837528.2000000477,7134,WL,C,12.0
7,29.473000049591064,immed,30526.999950408936,Wed Apr 30 2025 13:29:05 GMT-0500 (Central Daylight Time),839277.3999999762,A,ca,O,a,112,1,1749.1999999284744,837528.2000000477,7134,WL,C,12.0
7,29.69000005722046,immed,30309.99994277954,Wed Apr 30 2025 13:29:05 GMT-0500 (Central Daylight Time),839493.8999999762,A,cat,O,t,202,1,1965.6999999284744,837528.2000000477,7134,WL,C,12.0
7,29.873000144958496,immed,30126.999855041504,Wed Apr 30 2025 13:29:05 GMT-0500 (Central Daylight Time),839677.8999999762,A,catt,O,t,165,1,2149.6999999284744,837528.2000000477,7134,WL,C,12.0
7,29.990000009536743,immed,30009.999990463257,Wed Apr 30 2025 13:29:05 GMT-0500 (Central Daylight Time),839794.6000000238,A,cattl,O,l,97,1,2266.399999976158,837528.2000000477,7134,WL,C,12.0
7,30.138999938964844,immed,29861.000061035156,Wed Apr 30 2025 13:29:05 GMT-0500 (Central Daylight Time),839943.3000000715,A,cattle,O,e,133,1,2415.100000023842,837528.2000000477,7134,WL,C,12.0
7,30.44000005722046,immed,29559.99994277954,Wed Apr 30 2025 13:29:05 GMT-0500 (Central Daylight Time),840245.2000000477,A,cattleenter,O,enter,280,1,2717.0,837528.2000000477,7134,WL,C,12.0
7,31.638999938964844,immed,28361.000061035156,Wed Apr 30 2025 13:29:05 GMT-0500 (Central Daylight Time),841443.5,A,s,O,s,1186,1,1198.0,840245.5,7134,WL,C,13.0
7,31.786999940872192,immed,28213.000059127808,Wed Apr 30 2025 13:29:05 GMT-0500 (Central Daylight Time),841592.1000000238,A,sh,O,h,140,1,1346.6000000238419,840245.5,7134,WL,C,13.0
7,31.871000051498413,immed,28128.999948501587,Wed Apr 30 2025 13:29:05 GMT-0500 (Central Daylight Time),841676.3000000715,A,sho,O,o,62,1,1430.8000000715256,840245.5,7134,WL,C,13.0
7,31.955000162124634,immed,28044.999837875366,Wed Apr 30 2025 13:29:05 GMT-0500 (Central Daylight Time),841760.3000000715,A,shor,O,r,76,1,1514.8000000715256,840245.5,7134,WL,C,13.0
7,32.0550000667572,immed,27944.999933242798,Wed Apr 30 2025 13:29:05 GMT-0500 (Central Daylight Time),841860.0,A,shore,O,e,86,1,1614.5,840245.5,7134,WL,C,13.0
7,33.05400013923645,immed,26945.99986076355,Wed Apr 30 2025 13:29:05 GMT-0500 (Central Daylight Time),842859.1000000238,A,shoreenter,O,enter,980,1,2613.600000023842,840245.5,7134,WL,C,13.0
7,34.104000091552734,immed,25895.999908447266,Wed Apr 30 2025 13:29:05 GMT-0500 (Central Daylight Time),843908.6000000238,A,b,O,b,1037,1,1049.2000000476837,842859.3999999762,7134,WL,C,14.0
7,34.25399994850159,immed,25746.000051498413,Wed Apr 30 2025 13:29:05 GMT-0500 (Central Daylight Time),844059.2000000477,A,bo,O,o,129,1,1199.8000000715256,842859.3999999762,7134,WL,C,14.0
7,34.58800005912781,immed,25411.999940872192,Wed Apr 30 2025 13:29:05 GMT-0500 (Central Daylight Time),844393.2000000477,A,bod,O,d,327,1,1533.8000000715256,842859.3999999762,7134,WL,C,14.0
7,34.76900005340576,immed,25230.99994659424,Wed Apr 30 2025 13:29:05 GMT-0500 (Central Daylight Time),844573.3999999762,A,body,O,y,173,1,1714.0,842859.3999999762,7134,WL,C,14.0
7,35.5220000743866,immed,24477.999925613403,Wed Apr 30 2025 13:29:05 GMT-0500 (Central Daylight Time),845326.7000000477,A,bodyenter,O,enter,731,1,2467.3000000715256,842859.3999999762,7134,WL,C,14.0
7,43.53500008583069,immed,16464.99991416931,Wed Apr 30 2025 13:29:05 GMT-0500 (Central Daylight Time),853339.3999999762,A,enter,O,enter,7994,1,8012.399999976158,845327.0,7134,WL,C,15.0
