acc_sum,block,block_c,change,condition,correct,correct_response,datetime,endtime,face,project,response,response_time,row_sel,session_number,start_end,starttime,subject_id,task,task_vers,trial
0,prac,1,,1-Back,,,Tue Nov 05 2024 16:19:10 GMT-0600 (Central Standard Time),,050_m_f_n_a.png,O,space,16770,1,1,,,7029,NNB,A,0
1,prac,1,0.0,1-Back,1,m,Tue Nov 05 2024 16:19:10 GMT-0600 (Central Standard Time),169392.0,063_y_f_n_a.png,O,m,751,2,1,1558.8000000000466,167833.19999999995,7029,NNB,A,1
2,prac,1,1.0,1-Back,1,z,Tue Nov 05 2024 16:19:10 GMT-0600 (Central Standard Time),171074.90000000014,063_y_f_n_a.png,O,z,905,3,1,1675.3000000000466,169399.6000000001,7029,NNB,A,2
3,prac,1,0.0,1-Back,1,m,Tue Nov 05 2024 16:19:10 GMT-0600 (Central Standard Time),172541.0,053_o_m_n_a.png,O,m,654,4,1,1458.8999999999069,171082.1000000001,7029,NNB,A,3
4,prac,1,0.0,1-Back,1,m,Tue Nov 05 2024 16:19:10 GMT-0600 (Central Standard Time),174573.69999999995,058_m_m_n_a.png,O,m,1219,5,1,2025.7999999998137,172547.90000000014,7029,NNB,A,4
5,prac,1,1.0,1-Back,1,z,Tue Nov 05 2024 16:19:10 GMT-0600 (Central Standard Time),176039.40000000014,058_m_m_n_a.png,O,z,675,6,1,1458.1000000000931,174581.30000000005,7029,NNB,A,5
6,prac,1,0.0,1-Back,1,m,Tue Nov 05 2024 16:19:10 GMT-0600 (Central Standard Time),177822.5,047_o_f_n_a.png,O,m,945,7,1,1775.8000000000466,176046.69999999995,7029,NNB,A,6
7,prac,1,0.0,1-Back,1,m,Tue Nov 05 2024 16:19:10 GMT-0600 (Central Standard Time),179388.5,045_m_m_n_a.png,O,m,756,8,1,1558.8000000000466,177829.69999999995,7029,NNB,A,7
8,prac,1,0.0,1-Back,1,m,Tue Nov 05 2024 16:19:10 GMT-0600 (Central Standard Time),180971.5,050_m_f_n_a.png,O,m,771,9,1,1575.5,179396.0,7029,NNB,A,8
9,prac,1,1.0,1-Back,1,z,Tue Nov 05 2024 16:19:10 GMT-0600 (Central Standard Time),182787.6000000001,050_m_f_n_a.png,O,z,1039,10,1,1808.6999999999534,180978.90000000014,7029,NNB,A,9
10,prac,1,0.0,1-Back,1,m,Tue Nov 05 2024 16:19:10 GMT-0600 (Central Standard Time),184253.80000000005,053_o_m_n_a.png,O,m,678,11,1,1458.8999999999069,182794.90000000014,7029,NNB,A,10
11,prac,1,0.0,1-Back,1,m,Tue Nov 05 2024 16:19:10 GMT-0600 (Central Standard Time),185769.90000000014,010_y_f_n_a.png,O,m,669,12,1,1507.1000000000931,184262.80000000005,7029,NNB,A,11
0,test,1,0.0,1-Back,,,Tue Nov 05 2024 16:19:10 GMT-0600 (Central Standard Time),185769.90000000014,063_y_f_n_a.png,O,space,16361,1,1,1507.1000000000931,184262.80000000005,7029,NNB,A,0
1,test,1,0.0,1-Back,1,m,Tue Nov 05 2024 16:19:10 GMT-0600 (Central Standard Time),212878.0,043_m_f_n_a.png,O,m,654,2,1,1675.8999999999069,211202.1000000001,7029,NNB,A,1
2,test,1,0.0,1-Back,1,m,Tue Nov 05 2024 16:19:10 GMT-0600 (Central Standard Time),214860.69999999995,010_y_f_n_a.png,O,m,953,3,1,1976.5,212884.19999999995,7029,NNB,A,2
3,test,1,1.0,1-Back,1,z,Tue Nov 05 2024 16:19:10 GMT-0600 (Central Standard Time),216443.6000000001,010_y_f_n_a.png,O,z,565,4,1,1576.5,214867.1000000001,7029,NNB,A,3
4,test,1,0.0,1-Back,1,m,Tue Nov 05 2024 16:19:10 GMT-0600 (Central Standard Time),218109.90000000014,043_m_f_n_a.png,O,m,637,5,1,1660.3000000000466,216449.6000000001,7029,NNB,A,4
5,test,1,0.0,1-Back,1,m,Tue Nov 05 2024 16:19:10 GMT-0600 (Central Standard Time),219742.5,053_o_m_n_a.png,O,m,612,6,1,1626.5,218116.0,7029,NNB,A,5
6,test,1,1.0,1-Back,1,z,Tue Nov 05 2024 16:19:10 GMT-0600 (Central Standard Time),221175.40000000014,053_o_m_n_a.png,O,z,402,7,1,1426.8000000000466,219748.6000000001,7029,NNB,A,6
7,test,1,0.0,1-Back,1,m,Tue Nov 05 2024 16:19:10 GMT-0600 (Central Standard Time),222724.90000000014,058_m_m_n_a.png,O,m,529,8,1,1543.1000000000931,221181.80000000005,7029,NNB,A,7
8,test,1,0.0,1-Back,1,m,Tue Nov 05 2024 16:19:10 GMT-0600 (Central Standard Time),224407.80000000005,047_o_f_n_a.png,O,m,651,9,1,1676.8000000000466,222731.0,7029,NNB,A,8
9,test,1,0.0,1-Back,1,m,Tue Nov 05 2024 16:19:10 GMT-0600 (Central Standard Time),226307.1000000001,058_m_m_n_a.png,O,m,882,10,1,1893.0,224414.1000000001,7029,NNB,A,9
10,test,1,0.0,1-Back,1,m,Tue Nov 05 2024 16:19:10 GMT-0600 (Central Standard Time),228023.30000000005,041_y_m_n_a.png,O,m,685,11,1,1710.3000000000466,226313.0,7029,NNB,A,10
11,test,1,1.0,1-Back,1,z,Tue Nov 05 2024 16:19:10 GMT-0600 (Central Standard Time),229489.5,041_y_m_n_a.png,O,z,449,12,1,1460.0999999998603,228029.40000000014,7029,NNB,A,11
12,test,1,0.0,1-Back,1,m,Tue Nov 05 2024 16:19:10 GMT-0600 (Central Standard Time),231138.80000000005,044_o_f_n_a.png,O,m,624,13,1,1643.1999999999534,229495.6000000001,7029,NNB,A,12
13,test,1,1.0,1-Back,1,z,Tue Nov 05 2024 16:19:10 GMT-0600 (Central Standard Time),232838.19999999995,044_o_f_n_a.png,O,z,669,14,1,1692.6999999999534,231145.5,7029,NNB,A,13
14,test,1,0.0,1-Back,1,m,Tue Nov 05 2024 16:19:10 GMT-0600 (Central Standard Time),234737.69999999995,008_y_m_n_a.png,O,m,882,15,1,1892.7999999998137,232844.90000000014,7029,NNB,A,14
15,test,1,0.0,1-Back,1,m,Tue Nov 05 2024 16:19:10 GMT-0600 (Central Standard Time),236420.59999999986,050_m_f_n_a.png,O,m,654,16,1,1677.0999999996275,234743.50000000023,7029,NNB,A,15
16,test,1,0.0,1-Back,1,m,Tue Nov 05 2024 16:19:10 GMT-0600 (Central Standard Time),238120.00000000023,046_o_m_n_a.png,O,m,677,17,1,1693.5,236426.50000000023,7029,NNB,A,16
17,test,1,0.0,1-Back,1,m,Tue Nov 05 2024 16:19:10 GMT-0600 (Central Standard Time),239836.19999999995,050_m_f_n_a.png,O,m,696,18,1,1709.8999999999069,238126.30000000005,7029,NNB,A,17
0,test,2,0.0,1-Back,,,Tue Nov 05 2024 16:19:10 GMT-0600 (Central Standard Time),239836.19999999995,058_m_m_n_a.png,O,space,4645,1,1,1709.8999999999069,238126.30000000005,7029,NNB,A,0
1,test,2,0.0,1-Back,1,m,Tue Nov 05 2024 16:19:10 GMT-0600 (Central Standard Time),249299.90000000014,043_m_f_n_a.png,O,m,1780,2,1,2792.7000000001863,246507.19999999995,7029,NNB,A,1
1,test,2,1.0,1-Back,0,z,Tue Nov 05 2024 16:19:10 GMT-0600 (Central Standard Time),251149.40000000014,043_m_f_n_a.png,O,m,829,3,1,1843.5,249305.90000000014,7029,NNB,A,2
2,test,2,0.0,1-Back,1,m,Tue Nov 05 2024 16:19:10 GMT-0600 (Central Standard Time),253299.69999999995,058_m_m_n_a.png,O,m,1131,4,1,2144.0,251155.69999999995,7029,NNB,A,3
3,test,2,0.0,1-Back,1,m,Tue Nov 05 2024 16:19:10 GMT-0600 (Central Standard Time),255114.59999999986,041_y_m_n_a.png,O,m,798,5,1,1808.6999999997206,253305.90000000014,7029,NNB,A,4
4,test,2,0.0,1-Back,1,m,Tue Nov 05 2024 16:19:10 GMT-0600 (Central Standard Time),257030.80000000005,063_y_f_n_a.png,O,m,895,6,1,1910.1000000000931,255120.69999999995,7029,NNB,A,5
5,test,2,1.0,1-Back,1,z,Tue Nov 05 2024 16:19:10 GMT-0600 (Central Standard Time),258580.30000000005,063_y_f_n_a.png,O,z,522,7,1,1543.5,257036.80000000005,7029,NNB,A,6
6,test,2,0.0,1-Back,1,m,Tue Nov 05 2024 16:19:10 GMT-0600 (Central Standard Time),260413.00000000023,041_y_m_n_a.png,O,m,812,8,1,1826.1000000000931,258586.90000000014,7029,NNB,A,7
7,test,2,0.0,1-Back,1,m,Tue Nov 05 2024 16:19:10 GMT-0600 (Central Standard Time),262262.40000000014,044_o_f_n_a.png,O,m,827,9,1,1843.0,260419.40000000014,7029,NNB,A,8
8,test,2,0.0,1-Back,1,m,Tue Nov 05 2024 16:19:10 GMT-0600 (Central Standard Time),264028.69999999995,045_m_m_n_a.png,O,m,746,10,1,1760.0,262268.69999999995,7029,NNB,A,9
9,test,2,1.0,1-Back,1,z,Tue Nov 05 2024 16:19:10 GMT-0600 (Central Standard Time),265711.40000000014,045_m_m_n_a.png,O,z,653,11,1,1676.8000000002794,264034.59999999986,7029,NNB,A,10
10,test,2,0.0,1-Back,1,m,Tue Nov 05 2024 16:19:10 GMT-0600 (Central Standard Time),267627.50000000023,044_o_f_n_a.png,O,m,897,12,1,1909.8000000002794,265717.69999999995,7029,NNB,A,11
11,test,2,0.0,1-Back,1,m,Tue Nov 05 2024 16:19:10 GMT-0600 (Central Standard Time),269310.09999999986,047_o_f_n_a.png,O,m,661,13,1,1676.2999999998137,267633.80000000005,7029,NNB,A,12
12,test,2,0.0,1-Back,1,m,Tue Nov 05 2024 16:19:10 GMT-0600 (Central Standard Time),271226.19999999995,053_o_m_n_a.png,O,m,898,14,1,1909.6999999997206,269316.50000000023,7029,NNB,A,13
13,test,2,0.0,1-Back,1,m,Tue Nov 05 2024 16:19:10 GMT-0600 (Central Standard Time),272976.00000000023,046_o_m_n_a.png,O,m,726,15,1,1743.5,271232.50000000023,7029,NNB,A,14
14,test,2,1.0,1-Back,1,z,Tue Nov 05 2024 16:19:10 GMT-0600 (Central Standard Time),274508.59999999986,046_o_m_n_a.png,O,z,504,16,1,1526.5,272982.09999999986,7029,NNB,A,15
15,test,2,0.0,1-Back,1,m,Tue Nov 05 2024 16:19:10 GMT-0600 (Central Standard Time),276024.80000000005,008_y_m_n_a.png,O,m,484,17,1,1510.2000000001863,274514.59999999986,7029,NNB,A,16
16,test,2,1.0,1-Back,1,z,Tue Nov 05 2024 16:19:10 GMT-0600 (Central Standard Time),277707.50000000023,008_y_m_n_a.png,O,z,655,18,1,1676.7000000001863,276030.80000000005,7029,NNB,A,17
0,test,3,1.0,1-Back,,,Tue Nov 05 2024 16:19:10 GMT-0600 (Central Standard Time),277707.50000000023,010_y_f_n_a.png,O,space,16229,1,1,1676.7000000001863,276030.80000000005,7029,NNB,A,0
1,test,3,0.0,1-Back,1,m,Tue Nov 05 2024 16:19:10 GMT-0600 (Central Standard Time),297684.69999999995,046_o_m_n_a.png,O,m,638,2,1,1659.6999999997206,296025.00000000023,7029,NNB,A,1
1,test,3,1.0,1-Back,0,z,Tue Nov 05 2024 16:19:10 GMT-0600 (Central Standard Time),299234.09999999986,046_o_m_n_a.png,O,m,533,3,1,1543.2999999998137,297690.80000000005,7029,NNB,A,2
2,test,3,0.0,1-Back,1,m,Tue Nov 05 2024 16:19:10 GMT-0600 (Central Standard Time),301050.30000000005,050_m_f_n_a.png,O,m,790,4,1,1810.5,299239.80000000005,7029,NNB,A,3
3,test,3,1.0,1-Back,1,z,Tue Nov 05 2024 16:19:10 GMT-0600 (Central Standard Time),302816.50000000023,050_m_f_n_a.png,O,z,734,5,1,1759.6000000000931,301056.90000000014,7029,NNB,A,4
4,test,3,0.0,1-Back,1,m,Tue Nov 05 2024 16:19:10 GMT-0600 (Central Standard Time),304432.69999999995,044_o_f_n_a.png,O,m,593,6,1,1609.8999999999069,302822.80000000005,7029,NNB,A,5
5,test,3,0.0,1-Back,1,m,Tue Nov 05 2024 16:19:10 GMT-0600 (Central Standard Time),306065.40000000014,041_y_m_n_a.png,O,m,609,7,1,1626.6000000000931,304438.80000000005,7029,NNB,A,6
6,test,3,0.0,1-Back,1,m,Tue Nov 05 2024 16:19:10 GMT-0600 (Central Standard Time),307881.69999999995,044_o_f_n_a.png,O,m,799,8,1,1810.0,306071.69999999995,7029,NNB,A,7
7,test,3,0.0,1-Back,1,m,Tue Nov 05 2024 16:19:10 GMT-0600 (Central Standard Time),309780.90000000014,008_y_m_n_a.png,O,m,879,9,1,1893.1000000000931,307887.80000000005,7029,NNB,A,8
8,test,3,1.0,1-Back,1,z,Tue Nov 05 2024 16:19:10 GMT-0600 (Central Standard Time),311397.00000000023,008_y_m_n_a.png,O,z,595,10,1,1609.4000000003725,309787.59999999986,7029,NNB,A,9
9,test,3,0.0,1-Back,1,m,Tue Nov 05 2024 16:19:10 GMT-0600 (Central Standard Time),313129.80000000005,043_m_f_n_a.png,O,m,715,11,1,1726.7000000001863,311403.09999999986,7029,NNB,A,10
10,test,3,0.0,1-Back,1,m,Tue Nov 05 2024 16:19:10 GMT-0600 (Central Standard Time),314745.90000000014,063_y_f_n_a.png,O,m,590,12,1,1610.0,313135.90000000014,7029,NNB,A,11
11,test,3,1.0,1-Back,1,z,Tue Nov 05 2024 16:19:10 GMT-0600 (Central Standard Time),316362.19999999995,063_y_f_n_a.png,O,z,590,13,1,1609.7999999998137,314752.40000000014,7029,NNB,A,12
12,test,3,0.0,1-Back,1,m,Tue Nov 05 2024 16:19:10 GMT-0600 (Central Standard Time),317978.19999999995,043_m_f_n_a.png,O,m,598,14,1,1609.2999999998137,316368.90000000014,7029,NNB,A,13
13,test,3,0.0,1-Back,1,m,Tue Nov 05 2024 16:19:10 GMT-0600 (Central Standard Time),319677.80000000005,058_m_m_n_a.png,O,m,670,15,1,1693.8999999999069,317983.90000000014,7029,NNB,A,14
14,test,3,1.0,1-Back,1,z,Tue Nov 05 2024 16:19:10 GMT-0600 (Central Standard Time),321360.50000000023,058_m_m_n_a.png,O,z,659,16,1,1675.9000000003725,319684.59999999986,7029,NNB,A,15
15,test,3,0.0,1-Back,1,m,Tue Nov 05 2024 16:19:10 GMT-0600 (Central Standard Time),323093.50000000023,047_o_f_n_a.png,O,m,657,17,1,1725.7000000001863,321367.80000000005,7029,NNB,A,16
16,test,3,1.0,1-Back,1,z,Tue Nov 05 2024 16:19:10 GMT-0600 (Central Standard Time),324742.80000000005,047_o_f_n_a.png,O,z,628,18,1,1643.2000000001863,323099.59999999986,7029,NNB,A,17
0,test,4,1.0,1-Back,,,Tue Nov 05 2024 16:19:10 GMT-0600 (Central Standard Time),324742.80000000005,050_m_f_n_a.png,O,space,1242,1,1,1643.2000000001863,323099.59999999986,7029,NNB,A,0
1,test,4,0.0,1-Back,1,m,Tue Nov 05 2024 16:19:10 GMT-0600 (Central Standard Time),329957.90000000014,046_o_m_n_a.png,O,m,920,2,1,1943.5,328014.40000000014,7029,NNB,A,1
2,test,4,0.0,1-Back,1,m,Tue Nov 05 2024 16:19:10 GMT-0600 (Central Standard Time),331857.40000000014,050_m_f_n_a.png,O,m,866,3,1,1893.3000000002794,329964.09999999986,7029,NNB,A,2
3,test,4,0.0,1-Back,1,m,Tue Nov 05 2024 16:19:10 GMT-0600 (Central Standard Time),333623.40000000014,044_o_f_n_a.png,O,m,735,4,1,1759.8999999999069,331863.50000000023,7029,NNB,A,3
4,test,4,1.0,1-Back,1,z,Tue Nov 05 2024 16:19:10 GMT-0600 (Central Standard Time),335072.80000000005,044_o_f_n_a.png,O,z,417,5,1,1442.8999999999069,333629.90000000014,7029,NNB,A,4
5,test,4,0.0,1-Back,1,m,Tue Nov 05 2024 16:19:10 GMT-0600 (Central Standard Time),336639.00000000023,063_y_f_n_a.png,O,m,543,6,1,1560.0,335079.00000000023,7029,NNB,A,5
6,test,4,0.0,1-Back,1,m,Tue Nov 05 2024 16:19:10 GMT-0600 (Central Standard Time),338255.30000000005,041_y_m_n_a.png,O,m,594,7,1,1610.2000000001863,336645.09999999986,7029,NNB,A,6
7,test,4,1.0,1-Back,1,z,Tue Nov 05 2024 16:19:10 GMT-0600 (Central Standard Time),339788.19999999995,041_y_m_n_a.png,O,z,514,8,1,1526.5,338261.69999999995,7029,NNB,A,7
8,test,4,0.0,1-Back,1,m,Tue Nov 05 2024 16:19:10 GMT-0600 (Central Standard Time),341320.80000000005,063_y_f_n_a.png,O,m,500,9,1,1526.2000000001863,339794.59999999986,7029,NNB,A,8
9,test,4,0.0,1-Back,1,m,Tue Nov 05 2024 16:19:10 GMT-0600 (Central Standard Time),343053.59999999986,045_m_m_n_a.png,O,m,703,10,1,1725.1999999997206,341328.40000000014,7029,NNB,A,9
10,test,4,1.0,1-Back,1,z,Tue Nov 05 2024 16:19:10 GMT-0600 (Central Standard Time),344570.00000000023,045_m_m_n_a.png,O,z,490,11,1,1510.2000000001863,343059.80000000005,7029,NNB,A,10
11,test,4,0.0,1-Back,1,m,Tue Nov 05 2024 16:19:10 GMT-0600 (Central Standard Time),346129.50000000023,047_o_f_n_a.png,O,m,542,12,1,1553.0,344576.50000000023,7029,NNB,A,11
12,test,4,0.0,1-Back,1,m,Tue Nov 05 2024 16:19:10 GMT-0600 (Central Standard Time),347769.19999999995,053_o_m_n_a.png,O,m,600,13,1,1629.3999999999069,346139.80000000005,7029,NNB,A,12
13,test,4,0.0,1-Back,1,m,Tue Nov 05 2024 16:19:10 GMT-0600 (Central Standard Time),349535.00000000023,047_o_f_n_a.png,O,m,743,14,1,1759.4000000003725,347775.59999999986,7029,NNB,A,13
14,test,4,0.0,1-Back,1,m,Tue Nov 05 2024 16:19:10 GMT-0600 (Central Standard Time),351235.59999999986,010_y_f_n_a.png,O,m,681,15,1,1694.0999999996275,349541.50000000023,7029,NNB,A,14
15,test,4,1.0,1-Back,1,z,Tue Nov 05 2024 16:19:10 GMT-0600 (Central Standard Time),352717.30000000005,010_y_f_n_a.png,O,z,454,16,1,1475.1000000000931,351242.19999999995,7029,NNB,A,15
16,test,4,0.0,1-Back,1,m,Tue Nov 05 2024 16:19:10 GMT-0600 (Central Standard Time),354283.69999999995,043_m_f_n_a.png,O,m,547,17,1,1559.6999999997206,352724.00000000023,7029,NNB,A,16
17,test,4,1.0,1-Back,1,z,Tue Nov 05 2024 16:19:10 GMT-0600 (Central Standard Time),355883.19999999995,043_m_f_n_a.png,O,z,581,18,1,1593.2999999998137,354289.90000000014,7029,NNB,A,17
0,test,5,1.0,1-Back,,,Tue Nov 05 2024 16:19:10 GMT-0600 (Central Standard Time),355883.19999999995,053_o_m_n_a.png,O,space,1205,1,1,1593.2999999998137,354289.90000000014,7029,NNB,A,0
1,test,5,1.0,1-Back,1,z,Tue Nov 05 2024 16:19:10 GMT-0600 (Central Standard Time),361064.69999999995,053_o_m_n_a.png,O,z,917,2,1,1943.1999999997206,359121.50000000023,7029,NNB,A,1
2,test,5,0.0,1-Back,1,m,Tue Nov 05 2024 16:19:10 GMT-0600 (Central Standard Time),362597.69999999995,063_y_f_n_a.png,O,m,511,3,1,1526.8999999999069,361070.80000000005,7029,NNB,A,2
3,test,5,0.0,1-Back,1,m,Tue Nov 05 2024 16:19:10 GMT-0600 (Central Standard Time),364130.40000000014,041_y_m_n_a.png,O,m,515,4,1,1526.6000000000931,362603.80000000005,7029,NNB,A,3
4,test,5,0.0,1-Back,1,m,Tue Nov 05 2024 16:19:10 GMT-0600 (Central Standard Time),365646.59999999986,063_y_f_n_a.png,O,m,486,5,1,1510.0999999996275,364136.50000000023,7029,NNB,A,4
5,test,5,0.0,1-Back,1,m,Tue Nov 05 2024 16:19:10 GMT-0600 (Central Standard Time),367296.19999999995,058_m_m_n_a.png,O,m,617,6,1,1643.6000000000931,365652.59999999986,7029,NNB,A,5
6,test,5,1.0,1-Back,1,z,Tue Nov 05 2024 16:19:10 GMT-0600 (Central Standard Time),368729.09999999986,058_m_m_n_a.png,O,z,400,7,1,1426.5999999996275,367302.50000000023,7029,NNB,A,6
7,test,5,0.0,1-Back,1,m,Tue Nov 05 2024 16:19:10 GMT-0600 (Central Standard Time),370261.90000000014,010_y_f_n_a.png,O,m,510,8,1,1526.2000000001863,368735.69999999995,7029,NNB,A,7
8,test,5,0.0,1-Back,1,m,Tue Nov 05 2024 16:19:10 GMT-0600 (Central Standard Time),371944.50000000023,008_y_m_n_a.png,O,m,651,9,1,1676.5,370268.00000000023,7029,NNB,A,8
9,test,5,0.0,1-Back,1,m,Tue Nov 05 2024 16:19:10 GMT-0600 (Central Standard Time),373527.59999999986,010_y_f_n_a.png,O,m,553,10,1,1576.6999999997206,371950.90000000014,7029,NNB,A,9
10,test,5,0.0,1-Back,1,m,Tue Nov 05 2024 16:19:10 GMT-0600 (Central Standard Time),375126.90000000014,047_o_f_n_a.png,O,m,578,11,1,1593.3999999999069,373533.50000000023,7029,NNB,A,10
11,test,5,1.0,1-Back,1,z,Tue Nov 05 2024 16:19:10 GMT-0600 (Central Standard Time),376677.69999999995,047_o_f_n_a.png,O,z,529,12,1,1543.7999999998137,375133.90000000014,7029,NNB,A,11
12,test,5,0.0,1-Back,1,m,Tue Nov 05 2024 16:19:10 GMT-0600 (Central Standard Time),378225.90000000014,046_o_m_n_a.png,O,m,517,13,1,1541.7000000001863,376684.19999999995,7029,NNB,A,12
13,test,5,0.0,1-Back,1,m,Tue Nov 05 2024 16:19:10 GMT-0600 (Central Standard Time),379975.59999999986,050_m_f_n_a.png,O,m,718,14,1,1743.1999999997206,378232.40000000014,7029,NNB,A,13
14,test,5,1.0,1-Back,1,z,Tue Nov 05 2024 16:19:10 GMT-0600 (Central Standard Time),381608.59999999986,050_m_f_n_a.png,O,z,609,15,1,1626.8999999999069,379981.69999999995,7029,NNB,A,14
15,test,5,0.0,1-Back,1,m,Tue Nov 05 2024 16:19:10 GMT-0600 (Central Standard Time),383291.30000000005,046_o_m_n_a.png,O,m,656,16,1,1676.5,381614.80000000005,7029,NNB,A,15
16,test,5,0.0,1-Back,1,m,Tue Nov 05 2024 16:19:10 GMT-0600 (Central Standard Time),385057.19999999995,043_m_f_n_a.png,O,m,733,17,1,1759.1999999997206,383298.00000000023,7029,NNB,A,16
17,test,5,0.0,1-Back,1,m,Tue Nov 05 2024 16:19:10 GMT-0600 (Central Standard Time),386823.30000000005,045_m_m_n_a.png,O,m,743,18,1,1759.7999999998137,385063.50000000023,7029,NNB,A,17
0,prac,1,0.0,2-Back,,,Tue Nov 05 2024 16:19:10 GMT-0600 (Central Standard Time),386823.30000000005,008_y_m_n_a.png,O,space,13209,1,1,1759.7999999998137,385063.50000000023,7029,NNB,A,0
0,prac,1,0.0,2-Back,,,Tue Nov 05 2024 16:19:10 GMT-0600 (Central Standard Time),386823.30000000005,043_m_f_n_a.png,O,space,13209,2,1,1759.7999999998137,385063.50000000023,7029,NNB,A,0
1,prac,1,1.0,2-Back,1,m,Tue Nov 05 2024 16:19:10 GMT-0600 (Central Standard Time),633662.3,046_o_m_n_a.png,O,m,1327,3,1,2124.600000000093,631537.7,7029,NNB,A,1
1,prac,1,0.0,2-Back,0,m,Tue Nov 05 2024 16:19:10 GMT-0600 (Central Standard Time),636511.4000000001,047_o_f_n_a.png,O,None,2012,4,1,2840.600000000093,633670.8,7029,NNB,A,2
2,prac,1,0.0,2-Back,1,z,Tue Nov 05 2024 16:19:10 GMT-0600 (Central Standard Time),639160.7,046_o_m_n_a.png,O,z,1865,5,1,2641.5,636519.2,7029,NNB,A,3
3,prac,1,1.0,2-Back,1,z,Tue Nov 05 2024 16:19:10 GMT-0600 (Central Standard Time),641693.2,047_o_f_n_a.png,O,z,1744,6,1,2524.2999999998137,639168.9000000001,7029,NNB,A,4
4,prac,1,0.0,2-Back,1,m,Tue Nov 05 2024 16:19:10 GMT-0600 (Central Standard Time),643609.3,045_m_m_n_a.png,O,m,1108,7,1,1907.8999999999069,641701.4000000001,7029,NNB,A,5
5,prac,1,0.0,2-Back,1,m,Tue Nov 05 2024 16:19:10 GMT-0600 (Central Standard Time),645393.2,053_o_m_n_a.png,O,m,974,8,1,1776.7999999998137,643616.4000000001,7029,NNB,A,6
6,prac,1,0.0,2-Back,1,m,Tue Nov 05 2024 16:19:10 GMT-0600 (Central Standard Time),647191.5000000002,010_y_f_n_a.png,O,m,960,9,1,1789.4000000003725,645402.0999999999,7029,NNB,A,7
7,prac,1,1.0,2-Back,1,z,Tue Nov 05 2024 16:19:10 GMT-0600 (Central Standard Time),649041.0999999999,053_o_m_n_a.png,O,z,1072,10,1,1840.5999999996275,647200.5000000002,7029,NNB,A,8
8,prac,1,0.0,2-Back,1,m,Tue Nov 05 2024 16:19:10 GMT-0600 (Central Standard Time),650890.3,063_y_f_n_a.png,O,m,1026,11,1,1838.6000000000931,649051.7,7029,NNB,A,9
8,prac,1,0.0,2-Back,0,m,Tue Nov 05 2024 16:19:10 GMT-0600 (Central Standard Time),653072.5999999999,045_m_m_n_a.png,O,z,1406,12,1,2173.6999999997206,650898.9000000001,7029,NNB,A,10
0,test,1,0.0,2-Back,,,Tue Nov 05 2024 16:19:10 GMT-0600 (Central Standard Time),653072.5999999999,041_y_m_n_a.png,O,space,5550,1,1,2173.6999999997206,650898.9000000001,7029,NNB,A,0
0,test,1,0.0,2-Back,,,Tue Nov 05 2024 16:19:10 GMT-0600 (Central Standard Time),653072.5999999999,041_y_m_n_a.png,O,space,5550,2,1,2173.6999999997206,650898.9000000001,7029,NNB,A,0
1,test,1,0.0,2-Back,1,m,Tue Nov 05 2024 16:19:10 GMT-0600 (Central Standard Time),680231.2,047_o_f_n_a.png,O,m,1085,3,1,2108.2999999998137,678122.9000000001,7029,NNB,A,1
2,test,1,0.0,2-Back,1,m,Tue Nov 05 2024 16:19:10 GMT-0600 (Central Standard Time),682380.5999999999,058_m_m_n_a.png,O,m,1128,4,1,2143.0,680237.5999999999,7029,NNB,A,2
3,test,1,1.0,2-Back,1,z,Tue Nov 05 2024 16:19:10 GMT-0600 (Central Standard Time),684596.5999999999,047_o_f_n_a.png,O,z,1196,5,1,2209.7999999998137,682386.8,7029,NNB,A,3
4,test,1,0.0,2-Back,1,m,Tue Nov 05 2024 16:19:10 GMT-0600 (Central Standard Time),686345.9000000001,063_y_f_n_a.png,O,m,732,6,1,1742.8000000002794,684603.0999999999,7029,NNB,A,4
4,test,1,0.0,2-Back,0,m,Tue Nov 05 2024 16:19:10 GMT-0600 (Central Standard Time),688412.0000000002,058_m_m_n_a.png,O,z,1038,7,1,2059.4000000003725,686352.5999999999,7029,NNB,A,5
5,test,1,1.0,2-Back,1,z,Tue Nov 05 2024 16:19:10 GMT-0600 (Central Standard Time),690977.8,063_y_f_n_a.png,O,z,1533,8,1,2559.399999999907,688418.4000000001,7029,NNB,A,6
6,test,1,0.0,2-Back,1,m,Tue Nov 05 2024 16:19:10 GMT-0600 (Central Standard Time),692993.7,008_y_m_n_a.png,O,m,991,9,1,2009.6999999997206,690984.0000000002,7029,NNB,A,7
7,test,1,0.0,2-Back,1,m,Tue Nov 05 2024 16:19:10 GMT-0600 (Central Standard Time),694909.9000000001,044_o_f_n_a.png,O,m,894,10,1,1909.3999999999069,693000.5000000002,7029,NNB,A,8
8,test,1,1.0,2-Back,1,z,Tue Nov 05 2024 16:19:10 GMT-0600 (Central Standard Time),697159.0000000002,008_y_m_n_a.png,O,z,1226,11,1,2242.4000000003725,694916.5999999999,7029,NNB,A,9
9,test,1,0.0,2-Back,1,m,Tue Nov 05 2024 16:19:10 GMT-0600 (Central Standard Time),699294.4000000001,043_m_f_n_a.png,O,m,1105,12,1,2129.2000000001863,697165.2,7029,NNB,A,10
10,test,1,0.0,2-Back,1,m,Tue Nov 05 2024 16:19:10 GMT-0600 (Central Standard Time),701957.8,043_m_f_n_a.png,O,m,1644,13,1,2655.899999999907,699301.9000000001,7029,NNB,A,11
10,test,1,0.0,2-Back,0,m,Tue Nov 05 2024 16:19:10 GMT-0600 (Central Standard Time),704323.5999999999,046_o_m_n_a.png,O,z,1346,14,1,2359.2999999998137,701964.3,7029,NNB,A,12
10,test,1,0.0,2-Back,0,m,Tue Nov 05 2024 16:19:10 GMT-0600 (Central Standard Time),706822.8,044_o_f_n_a.png,O,z,1478,15,1,2493.2000000001863,704329.5999999999,7029,NNB,A,13
11,test,1,1.0,2-Back,1,z,Tue Nov 05 2024 16:19:10 GMT-0600 (Central Standard Time),709122.0999999999,046_o_m_n_a.png,O,z,1274,16,1,2293.1999999997206,706828.9000000001,7029,NNB,A,14
12,test,1,0.0,2-Back,1,m,Tue Nov 05 2024 16:19:10 GMT-0600 (Central Standard Time),711671.4000000001,050_m_f_n_a.png,O,m,1518,17,1,2542.899999999907,709128.5000000002,7029,NNB,A,15
13,test,1,0.0,2-Back,1,m,Tue Nov 05 2024 16:19:10 GMT-0600 (Central Standard Time),713703.9000000001,045_m_m_n_a.png,O,m,1009,18,1,2026.2000000001863,711677.7,7029,NNB,A,16
0,test,2,0.0,2-Back,,,Tue Nov 05 2024 16:19:10 GMT-0600 (Central Standard Time),713703.9000000001,045_m_m_n_a.png,O,space,1177,1,1,2026.2000000001863,711677.7,7029,NNB,A,0
0,test,2,0.0,2-Back,,,Tue Nov 05 2024 16:19:10 GMT-0600 (Central Standard Time),713703.9000000001,010_y_f_n_a.png,O,space,1177,2,1,2026.2000000001863,711677.7,7029,NNB,A,0
1,test,2,1.0,2-Back,1,z,Tue Nov 05 2024 16:19:10 GMT-0600 (Central Standard Time),721718.3,045_m_m_n_a.png,O,z,703,3,1,1726.3999999999069,719991.9000000001,7029,NNB,A,1
2,test,2,0.0,2-Back,1,m,Tue Nov 05 2024 16:19:10 GMT-0600 (Central Standard Time),723700.8,050_m_f_n_a.png,O,m,877,4,1,1976.3999999999069,721724.4000000001,7029,NNB,A,2
2,test,2,0.0,2-Back,0,m,Tue Nov 05 2024 16:19:10 GMT-0600 (Central Standard Time),725900.3,010_y_f_n_a.png,O,z,1171,5,1,2193.399999999907,723706.9000000001,7029,NNB,A,3
3,test,2,0.0,2-Back,1,m,Tue Nov 05 2024 16:19:10 GMT-0600 (Central Standard Time),727899.5000000002,046_o_m_n_a.png,O,m,972,6,1,1992.1000000000931,725907.4000000001,7029,NNB,A,4
4,test,2,0.0,2-Back,1,m,Tue Nov 05 2024 16:19:10 GMT-0600 (Central Standard Time),730032.3,063_y_f_n_a.png,O,m,1101,7,1,2126.2000000001863,727906.0999999999,7029,NNB,A,5
5,test,2,1.0,2-Back,1,z,Tue Nov 05 2024 16:19:10 GMT-0600 (Central Standard Time),732131.5000000002,046_o_m_n_a.png,O,z,1080,8,1,2092.600000000093,730038.9000000001,7029,NNB,A,6
5,test,2,0.0,2-Back,0,m,Tue Nov 05 2024 16:19:10 GMT-0600 (Central Standard Time),735164.0999999999,008_y_m_n_a.png,O,None,2016,9,1,3025.5999999996275,732138.5000000002,7029,NNB,A,7
6,test,2,0.0,2-Back,1,m,Tue Nov 05 2024 16:19:10 GMT-0600 (Central Standard Time),737146.7,008_y_m_n_a.png,O,m,958,10,1,1975.7999999998137,735170.9000000001,7029,NNB,A,8
7,test,2,0.0,2-Back,1,m,Tue Nov 05 2024 16:19:10 GMT-0600 (Central Standard Time),739246.0000000002,043_m_f_n_a.png,O,m,1069,11,1,2092.7000000001863,737153.3,7029,NNB,A,9
7,test,2,0.0,2-Back,0,m,Tue Nov 05 2024 16:19:10 GMT-0600 (Central Standard Time),741211.9000000001,010_y_f_n_a.png,O,z,939,12,1,1959.2000000001863,739252.7,7029,NNB,A,10
8,test,2,1.0,2-Back,1,z,Tue Nov 05 2024 16:19:10 GMT-0600 (Central Standard Time),743328.0000000002,043_m_f_n_a.png,O,z,1093,13,1,2109.600000000093,741218.4000000001,7029,NNB,A,11
9,test,2,0.0,2-Back,1,m,Tue Nov 05 2024 16:19:10 GMT-0600 (Central Standard Time),745111.0000000002,053_o_m_n_a.png,O,m,752,14,1,1775.9000000003725,743335.0999999999,7029,NNB,A,12
9,test,2,0.0,2-Back,0,m,Tue Nov 05 2024 16:19:10 GMT-0600 (Central Standard Time),747293.5999999999,053_o_m_n_a.png,O,z,1074,15,1,2175.7999999998137,745117.8,7029,NNB,A,13
10,test,2,0.0,2-Back,1,m,Tue Nov 05 2024 16:19:10 GMT-0600 (Central Standard Time),749393.0000000002,044_o_f_n_a.png,O,m,1076,16,1,2092.600000000093,747300.4000000001,7029,NNB,A,14
11,test,2,0.0,2-Back,1,m,Tue Nov 05 2024 16:19:10 GMT-0600 (Central Standard Time),751325.5000000002,058_m_m_n_a.png,O,m,912,17,1,1926.5,749399.0000000002,7029,NNB,A,15
12,test,2,1.0,2-Back,1,z,Tue Nov 05 2024 16:19:10 GMT-0600 (Central Standard Time),753075.0000000002,044_o_f_n_a.png,O,z,731,18,1,1742.7000000001863,751332.3,7029,NNB,A,16
0,test,3,1.0,2-Back,,,Tue Nov 05 2024 16:19:10 GMT-0600 (Central Standard Time),753075.0000000002,041_y_m_n_a.png,O,space,6286,1,1,1742.7000000001863,751332.3,7029,NNB,A,0
0,test,3,1.0,2-Back,,,Tue Nov 05 2024 16:19:10 GMT-0600 (Central Standard Time),753075.0000000002,041_y_m_n_a.png,O,space,6286,2,1,1742.7000000001863,751332.3,7029,NNB,A,0
1,test,3,0.0,2-Back,1,m,Tue Nov 05 2024 16:19:10 GMT-0600 (Central Standard Time),766304.3,044_o_f_n_a.png,O,m,818,3,1,1843.0,764461.3,7029,NNB,A,1
2,test,3,0.0,2-Back,1,m,Tue Nov 05 2024 16:19:10 GMT-0600 (Central Standard Time),768753.7,045_m_m_n_a.png,O,m,1416,4,1,2442.7999999998137,766310.9000000001,7029,NNB,A,2
3,test,3,1.0,2-Back,1,z,Tue Nov 05 2024 16:19:10 GMT-0600 (Central Standard Time),770952.5999999999,044_o_f_n_a.png,O,z,1048,5,1,2192.2999999998137,768760.3,7029,NNB,A,3
4,test,3,0.0,2-Back,1,m,Tue Nov 05 2024 16:19:10 GMT-0600 (Central Standard Time),772818.7,008_y_m_n_a.png,O,m,848,6,1,1859.7999999998137,770958.9000000001,7029,NNB,A,4
4,test,3,0.0,2-Back,0,m,Tue Nov 05 2024 16:19:10 GMT-0600 (Central Standard Time),774768.3,045_m_m_n_a.png,O,z,926,7,1,1942.7000000001863,772825.5999999999,7029,NNB,A,5
5,test,3,1.0,2-Back,1,z,Tue Nov 05 2024 16:19:10 GMT-0600 (Central Standard Time),776917.5999999999,008_y_m_n_a.png,O,z,1120,8,1,2142.7999999998137,774774.8,7029,NNB,A,6
6,test,3,0.0,2-Back,1,m,Tue Nov 05 2024 16:19:10 GMT-0600 (Central Standard Time),778816.9000000001,010_y_f_n_a.png,O,m,867,9,1,1892.6000000000931,776924.3,7029,NNB,A,7
6,test,3,0.0,2-Back,0,m,Tue Nov 05 2024 16:19:10 GMT-0600 (Central Standard Time),780832.9000000001,058_m_m_n_a.png,O,z,991,10,1,2009.1000000000931,778823.8,7029,NNB,A,8
6,test,3,1.0,2-Back,0,z,Tue Nov 05 2024 16:19:10 GMT-0600 (Central Standard Time),782665.9000000001,010_y_f_n_a.png,O,m,800,11,1,1826.8000000002794,780839.0999999999,7029,NNB,A,9
7,test,3,1.0,2-Back,1,z,Tue Nov 05 2024 16:19:10 GMT-0600 (Central Standard Time),784664.9000000001,058_m_m_n_a.png,O,z,975,12,1,1992.6000000000931,782672.3,7029,NNB,A,10
8,test,3,0.0,2-Back,1,m,Tue Nov 05 2024 16:19:10 GMT-0600 (Central Standard Time),787164.3,044_o_f_n_a.png,O,m,1479,13,1,2492.899999999907,784671.4000000001,7029,NNB,A,11
9,test,3,0.0,2-Back,1,m,Tue Nov 05 2024 16:19:10 GMT-0600 (Central Standard Time),789896.5999999999,050_m_f_n_a.png,O,m,1708,14,1,2725.7999999998137,787170.8,7029,NNB,A,12
10,test,3,0.0,2-Back,1,m,Tue Nov 05 2024 16:19:10 GMT-0600 (Central Standard Time),792046.2,046_o_m_n_a.png,O,m,1129,15,1,2142.100000000093,789904.0999999999,7029,NNB,A,13
11,test,3,1.0,2-Back,1,z,Tue Nov 05 2024 16:19:10 GMT-0600 (Central Standard Time),794111.9000000001,050_m_f_n_a.png,O,z,1041,16,1,2059.2000000001863,792052.7,7029,NNB,A,14
12,test,3,0.0,2-Back,1,m,Tue Nov 05 2024 16:19:10 GMT-0600 (Central Standard Time),796278.0000000002,047_o_f_n_a.png,O,m,1145,17,1,2159.5,794118.5000000002,7029,NNB,A,15
13,test,3,0.0,2-Back,1,m,Tue Nov 05 2024 16:19:10 GMT-0600 (Central Standard Time),798877.4000000001,047_o_f_n_a.png,O,m,1571,18,1,2592.8000000002794,796284.5999999999,7029,NNB,A,16
0,test,4,0.0,2-Back,,,Tue Nov 05 2024 16:19:10 GMT-0600 (Central Standard Time),798877.4000000001,053_o_m_n_a.png,O,space,1940,1,1,2592.8000000002794,796284.5999999999,7029,NNB,A,0
0,test,4,0.0,2-Back,,,Tue Nov 05 2024 16:19:10 GMT-0600 (Central Standard Time),798877.4000000001,063_y_f_n_a.png,O,space,1940,2,1,2592.8000000002794,796284.5999999999,7029,NNB,A,0
1,test,4,1.0,2-Back,1,z,Tue Nov 05 2024 16:19:10 GMT-0600 (Central Standard Time),807841.0000000002,053_o_m_n_a.png,O,z,892,3,1,1909.1000000000931,805931.9000000001,7029,NNB,A,1
2,test,4,1.0,2-Back,1,z,Tue Nov 05 2024 16:19:10 GMT-0600 (Central Standard Time),810257.0000000002,063_y_f_n_a.png,O,z,1392,4,1,2409.9000000003725,807847.0999999999,7029,NNB,A,2
3,test,4,0.0,2-Back,1,m,Tue Nov 05 2024 16:19:10 GMT-0600 (Central Standard Time),812239.7,044_o_f_n_a.png,O,m,959,5,1,1976.1000000000931,810263.5999999999,7029,NNB,A,3
4,test,4,0.0,2-Back,1,m,Tue Nov 05 2024 16:19:10 GMT-0600 (Central Standard Time),814522.4000000001,044_o_f_n_a.png,O,m,1257,6,1,2276.2000000001863,812246.2,7029,NNB,A,4
5,test,4,0.0,2-Back,1,m,Tue Nov 05 2024 16:19:10 GMT-0600 (Central Standard Time),816488.4000000001,043_m_f_n_a.png,O,m,943,7,1,1959.3000000002794,814529.0999999999,7029,NNB,A,5
6,test,4,0.0,2-Back,1,m,Tue Nov 05 2024 16:19:10 GMT-0600 (Central Standard Time),818654.5999999999,008_y_m_n_a.png,O,m,1137,8,1,2160.0,816494.5999999999,7029,NNB,A,6
7,test,4,1.0,2-Back,1,z,Tue Nov 05 2024 16:19:10 GMT-0600 (Central Standard Time),820453.8,043_m_f_n_a.png,O,z,778,9,1,1793.1000000000931,818660.7,7029,NNB,A,7
8,test,4,0.0,2-Back,1,m,Tue Nov 05 2024 16:19:10 GMT-0600 (Central Standard Time),822853.0000000002,058_m_m_n_a.png,O,m,1371,10,1,2392.0,820461.0000000002,7029,NNB,A,8
8,test,4,0.0,2-Back,0,m,Tue Nov 05 2024 16:19:10 GMT-0600 (Central Standard Time),824952.4000000001,008_y_m_n_a.png,O,z,1076,11,1,2093.100000000093,822859.3,7029,NNB,A,9
8,test,4,0.0,2-Back,0,m,Tue Nov 05 2024 16:19:10 GMT-0600 (Central Standard Time),827035.0000000002,047_o_f_n_a.png,O,z,1056,12,1,2075.8000000002794,824959.2,7029,NNB,A,10
9,test,4,0.0,2-Back,1,m,Tue Nov 05 2024 16:19:10 GMT-0600 (Central Standard Time),829017.9000000001,041_y_m_n_a.png,O,m,966,13,1,1976.3999999999069,827041.5000000002,7029,NNB,A,11
9,test,4,1.0,2-Back,0,z,Tue Nov 05 2024 16:19:10 GMT-0600 (Central Standard Time),830983.8,047_o_f_n_a.png,O,m,934,14,1,1959.6000000000931,829024.2,7029,NNB,A,12
10,test,4,1.0,2-Back,1,z,Tue Nov 05 2024 16:19:10 GMT-0600 (Central Standard Time),833066.2,041_y_m_n_a.png,O,z,1065,15,1,2076.2999999998137,830989.9000000001,7029,NNB,A,13
10,test,4,0.0,2-Back,0,m,Tue Nov 05 2024 16:19:10 GMT-0600 (Central Standard Time),836099.0000000002,045_m_m_n_a.png,O,None,2016,16,1,3026.5,833072.5000000002,7029,NNB,A,14
10,test,4,0.0,2-Back,0,m,Tue Nov 05 2024 16:19:10 GMT-0600 (Central Standard Time),839131.2,050_m_f_n_a.png,O,None,2015,17,1,3025.5,836105.7,7029,NNB,A,15
10,test,4,1.0,2-Back,0,z,Tue Nov 05 2024 16:19:10 GMT-0600 (Central Standard Time),841063.8,045_m_m_n_a.png,O,m,901,18,1,1925.5,839138.3,7029,NNB,A,16
0,test,5,1.0,2-Back,,,Tue Nov 05 2024 16:19:10 GMT-0600 (Central Standard Time),841063.8,041_y_m_n_a.png,O,space,1498,1,1,1925.5,839138.3,7029,NNB,A,0
0,test,5,1.0,2-Back,,,Tue Nov 05 2024 16:19:10 GMT-0600 (Central Standard Time),841063.8,050_m_f_n_a.png,O,space,1498,2,1,1925.5,839138.3,7029,NNB,A,0
1,test,5,1.0,2-Back,1,z,Tue Nov 05 2024 16:19:10 GMT-0600 (Central Standard Time),849927.9000000001,041_y_m_n_a.png,O,z,1293,3,1,2309.5,847618.4000000001,7029,NNB,A,1
2,test,5,1.0,2-Back,1,z,Tue Nov 05 2024 16:19:10 GMT-0600 (Central Standard Time),851977.3,050_m_f_n_a.png,O,z,1016,4,1,2042.7000000001863,849934.5999999999,7029,NNB,A,2
3,test,5,0.0,2-Back,1,m,Tue Nov 05 2024 16:19:10 GMT-0600 (Central Standard Time),854009.9000000001,047_o_f_n_a.png,O,m,1007,5,1,2026.3999999999069,851983.5000000002,7029,NNB,A,3
3,test,5,0.0,2-Back,0,m,Tue Nov 05 2024 16:19:10 GMT-0600 (Central Standard Time),856325.8,041_y_m_n_a.png,O,z,1294,6,1,2309.0,854016.8,7029,NNB,A,4
4,test,5,0.0,2-Back,1,m,Tue Nov 05 2024 16:19:10 GMT-0600 (Central Standard Time),858341.7,010_y_f_n_a.png,O,m,987,7,1,2009.5,856332.2,7029,NNB,A,5
4,test,5,0.0,2-Back,0,m,Tue Nov 05 2024 16:19:10 GMT-0600 (Central Standard Time),860291.5000000002,047_o_f_n_a.png,O,z,931,8,1,1943.3000000002794,858348.2,7029,NNB,A,6
5,test,5,1.0,2-Back,1,z,Tue Nov 05 2024 16:19:10 GMT-0600 (Central Standard Time),862690.3,010_y_f_n_a.png,O,z,1381,9,1,2392.600000000093,860297.7,7029,NNB,A,7
6,test,5,0.0,2-Back,1,m,Tue Nov 05 2024 16:19:10 GMT-0600 (Central Standard Time),864806.5999999999,046_o_m_n_a.png,O,m,1086,10,1,2109.899999999907,862696.7,7029,NNB,A,8
7,test,5,0.0,2-Back,1,m,Tue Nov 05 2024 16:19:10 GMT-0600 (Central Standard Time),866805.9000000001,043_m_f_n_a.png,O,m,970,11,1,1992.5,864813.4000000001,7029,NNB,A,9
8,test,5,0.0,2-Back,1,m,Tue Nov 05 2024 16:19:10 GMT-0600 (Central Standard Time),868805.4000000001,058_m_m_n_a.png,O,m,970,12,1,1992.8000000002794,866812.5999999999,7029,NNB,A,10
8,test,5,0.0,2-Back,0,m,Tue Nov 05 2024 16:19:10 GMT-0600 (Central Standard Time),870654.5999999999,046_o_m_n_a.png,O,z,827,13,1,1842.6999999997206,868811.9000000001,7029,NNB,A,11
9,test,5,1.0,2-Back,1,z,Tue Nov 05 2024 16:19:10 GMT-0600 (Central Standard Time),873070.4000000001,058_m_m_n_a.png,O,z,1386,14,1,2409.399999999907,870661.0000000002,7029,NNB,A,12
10,test,5,0.0,2-Back,1,m,Tue Nov 05 2024 16:19:10 GMT-0600 (Central Standard Time),874870.2,063_y_f_n_a.png,O,m,779,15,1,1792.7999999998137,873077.4000000001,7029,NNB,A,13
10,test,5,0.0,2-Back,0,m,Tue Nov 05 2024 16:19:10 GMT-0600 (Central Standard Time),877902.5000000002,053_o_m_n_a.png,O,None,2015,16,1,3025.600000000093,874876.9000000001,7029,NNB,A,14
10,test,5,0.0,2-Back,0,m,Tue Nov 05 2024 16:19:10 GMT-0600 (Central Standard Time),880051.5000000002,043_m_f_n_a.png,O,z,1130,17,1,2142.600000000093,877908.9000000001,7029,NNB,A,15
11,test,5,1.0,2-Back,1,z,Tue Nov 05 2024 16:19:10 GMT-0600 (Central Standard Time),882417.5999999999,053_o_m_n_a.png,O,z,1342,18,1,2359.5,880058.0999999999,7029,NNB,A,16
