block_c,block_dur,condition,countdown,datetime,endtime,list,multichar_response,project,response,response_time,session_number,start_end,starttime,subject_id,task,task_vers,trial
,,,,Mon Jan 27 2025 18:06:48 GMT-0600 (Central Standard Time),,,,O,space,1668,1,,,7041,WL,B,
prac,,0,,Mon Jan 27 2025 18:06:48 GMT-0600 (Central Standard Time),,NA,b,O,b,3951,1,,,7041,WL,B,1.0
prac,,0,,Mon Jan 27 2025 18:06:48 GMT-0600 (Central Standard Time),,NA,bo,O,o,251,1,,,7041,WL,B,1.0
prac,,0,,Mon Jan 27 2025 18:06:48 GMT-0600 (Central Standard Time),,NA,boo,O,o,154,1,,,7041,WL,B,1.0
prac,,0,,Mon Jan 27 2025 18:06:48 GMT-0600 (Central Standard Time),,NA,boos,O,s,196,1,,,7041,WL,B,1.0
prac,,0,,Mon Jan 27 2025 18:06:48 GMT-0600 (Central Standard Time),,NA,boost,O,t,211,1,,,7041,WL,B,1.0
prac,,0,,Mon Jan 27 2025 18:06:48 GMT-0600 (Central Standard Time),,NA,boostenter,O,enter,1122,1,,,7041,WL,B,1.0
1,1.3829998970031738,learn,58617.000102996826,Mon Jan 27 2025 18:06:48 GMT-0600 (Central Standard Time),139663.3999999985,A,s,O,s,1371,1,1382.800000000745,138280.59999999776,7041,WL,B,1.0
1,1.565999984741211,learn,58434.00001525879,Mon Jan 27 2025 18:06:48 GMT-0600 (Central Standard Time),139846.69999999925,A,st,O,t,164,1,1566.1000000014901,138280.59999999776,7041,WL,B,1.0
1,1.815999984741211,learn,58184.00001525879,Mon Jan 27 2025 18:06:48 GMT-0600 (Central Standard Time),140096.5,A,str,O,r,237,1,1815.9000000022352,138280.59999999776,7041,WL,B,1.0
1,2.115999937057495,learn,57884.000062942505,Mon Jan 27 2025 18:06:48 GMT-0600 (Central Standard Time),140396.3999999985,A,stre,O,e,284,1,2115.800000000745,138280.59999999776,7041,WL,B,1.0
1,2.3329999446868896,learn,57667.00005531311,Mon Jan 27 2025 18:06:48 GMT-0600 (Central Standard Time),140613.19999999925,A,stree,O,e,200,1,2332.60000000149,138280.59999999776,7041,WL,B,1.0
1,2.5319998264312744,learn,57468.000173568726,Mon Jan 27 2025 18:06:48 GMT-0600 (Central Standard Time),140813.0,A,street,O,t,183,1,2532.400000002235,138280.59999999776,7041,WL,B,1.0
1,7.230999946594238,learn,52769.00005340576,Mon Jan 27 2025 18:06:48 GMT-0600 (Central Standard Time),145511.59999999776,A,streetenter,O,enter,4679,1,7231.0,138280.59999999776,7041,WL,B,1.0
1,7.947000026702881,learn,52052.99997329712,Mon Jan 27 2025 18:06:48 GMT-0600 (Central Standard Time),146228.0,A,g,O,g,699,1,715.6999999992549,145512.30000000075,7041,WL,B,2.0
1,8.246999979019165,learn,51753.000020980835,Mon Jan 27 2025 18:06:48 GMT-0600 (Central Standard Time),146528.0,A,gr,O,r,288,1,1015.6999999992549,145512.30000000075,7041,WL,B,2.0
1,8.746999979019165,learn,51253.000020980835,Mon Jan 27 2025 18:06:48 GMT-0600 (Central Standard Time),147027.59999999776,A,gra,O,a,476,1,1515.2999999970198,145512.30000000075,7041,WL,B,2.0
1,9.246999979019165,learn,50753.000020980835,Mon Jan 27 2025 18:06:48 GMT-0600 (Central Standard Time),147527.5,A,gras,O,s,480,1,2015.199999999255,145512.30000000075,7041,WL,B,2.0
1,9.613999843597412,learn,50386.00015640259,Mon Jan 27 2025 18:06:48 GMT-0600 (Central Standard Time),147894.3999999985,A,grass,O,s,348,1,2382.099999997765,145512.30000000075,7041,WL,B,2.0
1,10.496999979019165,learn,49503.000020980835,Mon Jan 27 2025 18:06:48 GMT-0600 (Central Standard Time),148777.19999999925,A,grassenter,O,enter,870,1,3264.89999999851,145512.30000000075,7041,WL,B,2.0
1,10.962999820709229,learn,49037.00017929077,Mon Jan 27 2025 18:06:48 GMT-0600 (Central Standard Time),149243.69999999925,A,d,O,d,452,1,466.0,148777.69999999925,7041,WL,B,3.0
1,11.230000019073486,learn,48769.999980926514,Mon Jan 27 2025 18:06:48 GMT-0600 (Central Standard Time),149510.30000000075,A,do,O,o,248,1,732.6000000014901,148777.69999999925,7041,WL,B,3.0
1,11.412999868392944,learn,48587.000131607056,Mon Jan 27 2025 18:06:48 GMT-0600 (Central Standard Time),149693.59999999776,A,doo,O,o,166,1,915.8999999985099,148777.69999999925,7041,WL,B,3.0
1,11.562999963760376,learn,48437.000036239624,Mon Jan 27 2025 18:06:48 GMT-0600 (Central Standard Time),149843.5,A,door,O,r,135,1,1065.800000000745,148777.69999999925,7041,WL,B,3.0
1,11.962999820709229,learn,48037.00017929077,Mon Jan 27 2025 18:06:48 GMT-0600 (Central Standard Time),150243.30000000075,A,doorenter,O,enter,377,1,1465.6000000014901,148777.69999999925,7041,WL,B,3.0
1,12.546000003814697,learn,47453.9999961853,Mon Jan 27 2025 18:06:48 GMT-0600 (Central Standard Time),150826.59999999776,A,a,O,a,569,1,582.8999999985099,150243.69999999925,7041,WL,B,4.0
1,12.962999820709229,learn,47037.00017929077,Mon Jan 27 2025 18:06:48 GMT-0600 (Central Standard Time),151243.19999999925,A,ar,O,r,402,1,999.5,150243.69999999925,7041,WL,B,4.0
1,13.395999908447266,learn,46604.000091552734,Mon Jan 27 2025 18:06:48 GMT-0600 (Central Standard Time),151676.3999999985,A,arm,O,m,409,1,1432.699999999255,150243.69999999925,7041,WL,B,4.0
1,13.911999940872192,learn,46088.00005912781,Mon Jan 27 2025 18:06:48 GMT-0600 (Central Standard Time),152192.8999999985,A,armenter,O,enter,504,1,1949.199999999255,150243.69999999925,7041,WL,B,4.0
1,14.544999837875366,learn,45455.000162124634,Mon Jan 27 2025 18:06:48 GMT-0600 (Central Standard Time),152825.8999999985,A,w,O,w,619,1,632.5,152193.3999999985,7041,WL,B,5.0
1,14.76199984550476,learn,45238.00015449524,Mon Jan 27 2025 18:06:48 GMT-0600 (Central Standard Time),153042.3999999985,A,wi,O,i,202,1,849.0,152193.3999999985,7041,WL,B,5.0
1,14.994999885559082,learn,45005.00011444092,Mon Jan 27 2025 18:06:48 GMT-0600 (Central Standard Time),153275.80000000075,A,wif,O,f,210,1,1082.4000000022352,152193.3999999985,7041,WL,B,5.0
1,15.244999885559082,learn,44755.00011444092,Mon Jan 27 2025 18:06:48 GMT-0600 (Central Standard Time),153525.80000000075,A,wife,O,e,240,1,1332.4000000022352,152193.3999999985,7041,WL,B,5.0
1,15.561999797821045,learn,44438.000202178955,Mon Jan 27 2025 18:06:48 GMT-0600 (Central Standard Time),153842.09999999776,A,wifeenter,O,enter,302,1,1648.699999999255,152193.3999999985,7041,WL,B,5.0
1,15.961999893188477,learn,44038.00010681152,Mon Jan 27 2025 18:06:48 GMT-0600 (Central Standard Time),154242.19999999925,A,s,O,s,378,1,399.69999999925494,153842.5,7041,WL,B,6.0
1,16.378000020980835,learn,43621.999979019165,Mon Jan 27 2025 18:06:48 GMT-0600 (Central Standard Time),154658.59999999776,A,st,O,t,394,1,816.0999999977648,153842.5,7041,WL,B,6.0
1,16.76099991798401,learn,43239.00008201599,Mon Jan 27 2025 18:06:48 GMT-0600 (Central Standard Time),155041.8999999985,A,sta,O,a,362,1,1199.3999999985099,153842.5,7041,WL,B,6.0
1,17.17799997329712,learn,42822.00002670288,Mon Jan 27 2025 18:06:48 GMT-0600 (Central Standard Time),155458.30000000075,A,star,O,r,395,1,1615.800000000745,153842.5,7041,WL,B,6.0
1,17.67899990081787,learn,42321.00009918213,Mon Jan 27 2025 18:06:48 GMT-0600 (Central Standard Time),155959.3999999985,A,starenter,O,enter,482,1,2116.89999999851,153842.5,7041,WL,B,6.0
1,18.24399995803833,learn,41756.00004196167,Mon Jan 27 2025 18:06:48 GMT-0600 (Central Standard Time),156524.80000000075,A,p,O,p,549,1,564.9000000022352,155959.8999999985,7041,WL,B,7.0
1,18.560999870300293,learn,41439.00012969971,Mon Jan 27 2025 18:06:48 GMT-0600 (Central Standard Time),156841.30000000075,A,pu,O,u,304,1,881.4000000022352,155959.8999999985,7041,WL,B,7.0
1,18.810999870300293,learn,41189.00012969971,Mon Jan 27 2025 18:06:48 GMT-0600 (Central Standard Time),157091.19999999925,A,pup,O,p,226,1,1131.300000000745,155959.8999999985,7041,WL,B,7.0
1,19.143999814987183,learn,40856.00018501282,Mon Jan 27 2025 18:06:48 GMT-0600 (Central Standard Time),157424.3999999985,A,pupi,O,i,321,1,1464.5,155959.8999999985,7041,WL,B,7.0
1,19.444000005722046,learn,40555.999994277954,Mon Jan 27 2025 18:06:48 GMT-0600 (Central Standard Time),157724.59999999776,A,pupil,O,l,284,1,1764.699999999255,155959.8999999985,7041,WL,B,7.0
1,19.893999814987183,learn,40106.00018501282,Mon Jan 27 2025 18:06:48 GMT-0600 (Central Standard Time),158174.3999999985,A,pupilenter,O,enter,440,1,2214.5,155959.8999999985,7041,WL,B,7.0
1,23.158999919891357,learn,36841.00008010864,Mon Jan 27 2025 18:06:48 GMT-0600 (Central Standard Time),161439.8999999985,A,w,O,w,3254,1,3265.0,158174.8999999985,7041,WL,B,8.0
1,23.325999975204468,learn,36674.00002479553,Mon Jan 27 2025 18:06:48 GMT-0600 (Central Standard Time),161606.3999999985,A,wi,O,i,148,1,3431.5,158174.8999999985,7041,WL,B,8.0
1,23.442999839782715,learn,36557.000160217285,Mon Jan 27 2025 18:06:48 GMT-0600 (Central Standard Time),161723.09999999776,A,win,O,n,101,1,3548.199999999255,158174.8999999985,7041,WL,B,8.0
1,23.875999927520752,learn,36124.00007247925,Mon Jan 27 2025 18:06:48 GMT-0600 (Central Standard Time),162156.30000000075,A,wind,O,d,410,1,3981.400000002235,158174.8999999985,7041,WL,B,8.0
1,24.05900001525879,learn,35940.99998474121,Mon Jan 27 2025 18:06:48 GMT-0600 (Central Standard Time),162339.80000000075,A,windo,O,o,160,1,4164.900000002235,158174.8999999985,7041,WL,B,8.0
1,24.325999975204468,learn,35674.00002479553,Mon Jan 27 2025 18:06:48 GMT-0600 (Central Standard Time),162606.09999999776,A,window,O,w,248,1,4431.199999999255,158174.8999999985,7041,WL,B,8.0
1,24.89199995994568,learn,35108.00004005432,Mon Jan 27 2025 18:06:48 GMT-0600 (Central Standard Time),163172.59999999776,A,windowenter,O,enter,550,1,4997.699999999255,158174.8999999985,7041,WL,B,8.0
1,25.424999952316284,learn,34575.000047683716,Mon Jan 27 2025 18:06:48 GMT-0600 (Central Standard Time),163705.80000000075,A,s,O,s,512,1,532.8000000007451,163173.0,7041,WL,B,9.0
1,26.007999897003174,learn,33992.000102996826,Mon Jan 27 2025 18:06:48 GMT-0600 (Central Standard Time),164289.0,A,st,O,t,571,1,1116.0,163173.0,7041,WL,B,9.0
1,26.174999952316284,learn,33825.000047683716,Mon Jan 27 2025 18:06:48 GMT-0600 (Central Standard Time),164455.59999999776,A,sta,O,a,155,1,1282.5999999977648,163173.0,7041,WL,B,9.0
1,26.375,learn,33625.0,Mon Jan 27 2025 18:06:48 GMT-0600 (Central Standard Time),164655.59999999776,A,star,O,r,189,1,1482.5999999977648,163173.0,7041,WL,B,9.0
1,27.04199981689453,learn,32958.00018310547,Mon Jan 27 2025 18:06:48 GMT-0600 (Central Standard Time),165322.09999999776,A,starenter,O,enter,645,1,2149.099999997765,163173.0,7041,WL,B,9.0
1,44.05199980735779,learn,15948.000192642212,Mon Jan 27 2025 18:06:48 GMT-0600 (Central Standard Time),182333.09999999776,A,enter,O,enter,17002,1,17010.599999997765,165322.5,7041,WL,B,10.0
1,46.567999839782715,learn,13432.000160217285,Mon Jan 27 2025 18:06:48 GMT-0600 (Central Standard Time),184849.09999999776,A,enter,O,enter,2504,1,2515.699999999255,182333.3999999985,7041,WL,B,11.0
1,46.93499994277954,learn,13065.000057220459,Mon Jan 27 2025 18:06:48 GMT-0600 (Central Standard Time),185215.8999999985,A,enter,O,enter,347,1,366.3999999985099,184849.5,7041,WL,B,12.0
1,47.317999839782715,learn,12682.000160217285,Mon Jan 27 2025 18:06:48 GMT-0600 (Central Standard Time),185599.0,A,enter,O,enter,364,1,382.69999999925494,185216.30000000075,7041,WL,B,13.0
1,47.66699981689453,learn,12333.000183105469,Mon Jan 27 2025 18:06:48 GMT-0600 (Central Standard Time),185948.80000000075,A,enter,O,enter,342,1,349.5,185599.30000000075,7041,WL,B,14.0
1,48.11699986457825,learn,11883.000135421753,Mon Jan 27 2025 18:06:48 GMT-0600 (Central Standard Time),186398.69999999925,A,enter,O,enter,440,1,449.6000000014901,185949.09999999776,7041,WL,B,15.0
2,1.2000000476837158,learn,58799.999952316284,Mon Jan 27 2025 18:06:48 GMT-0600 (Central Standard Time),256227.0,A,c,O,c,1178,1,1199.5,255027.5,7041,WL,B,1.0
2,1.4160001277923584,learn,58583.99987220764,Mon Jan 27 2025 18:06:48 GMT-0600 (Central Standard Time),256443.5,A,ci,O,i,201,1,1416.0,255027.5,7041,WL,B,1.0
2,1.75,learn,58250.0,Mon Jan 27 2025 18:06:48 GMT-0600 (Central Standard Time),256776.69999999925,A,cit,O,t,322,1,1749.199999999255,255027.5,7041,WL,B,1.0
2,1.883000135421753,learn,58116.99986457825,Mon Jan 27 2025 18:06:48 GMT-0600 (Central Standard Time),256910.19999999925,A,city,O,y,124,1,1882.699999999255,255027.5,7041,WL,B,1.0
2,2.815999984741211,learn,57184.00001525879,Mon Jan 27 2025 18:06:48 GMT-0600 (Central Standard Time),257843.19999999925,A,cityenter,O,enter,911,1,2815.699999999255,255027.5,7041,WL,B,1.0
2,3.3320000171661377,learn,56667.99998283386,Mon Jan 27 2025 18:06:48 GMT-0600 (Central Standard Time),258359.3999999985,A,c,O,c,505,1,515.6999999992549,257843.69999999925,7041,WL,B,2.0
2,3.6489999294281006,learn,56351.0000705719,Mon Jan 27 2025 18:06:48 GMT-0600 (Central Standard Time),258676.19999999925,A,ca,O,a,301,1,832.5,257843.69999999925,7041,WL,B,2.0
2,3.815999984741211,learn,56184.00001525879,Mon Jan 27 2025 18:06:48 GMT-0600 (Central Standard Time),258842.80000000075,A,cab,O,b,153,1,999.1000000014901,257843.69999999925,7041,WL,B,2.0
2,4.082000017166138,learn,55917.99998283386,Mon Jan 27 2025 18:06:48 GMT-0600 (Central Standard Time),259109.09999999776,A,cabi,O,i,258,1,1265.3999999985099,257843.69999999925,7041,WL,B,2.0
2,4.365999937057495,learn,55634.000062942505,Mon Jan 27 2025 18:06:48 GMT-0600 (Central Standard Time),259392.69999999925,A,cabin,O,n,264,1,1549.0,257843.69999999925,7041,WL,B,2.0
2,5.177000045776367,learn,54822.99995422363,Mon Jan 27 2025 18:06:48 GMT-0600 (Central Standard Time),260204.30000000075,A,cabinenter,O,enter,657,1,2360.60000000149,257843.69999999925,7041,WL,B,2.0
2,6.381999969482422,learn,53618.00003051758,Mon Jan 27 2025 18:06:48 GMT-0600 (Central Standard Time),261408.80000000075,A,p,O,p,1190,1,1204.2000000029802,260204.59999999776,7041,WL,B,3.0
2,6.71399998664856,learn,53286.00001335144,Mon Jan 27 2025 18:06:48 GMT-0600 (Central Standard Time),261741.3999999985,A,pu,O,u,324,1,1536.800000000745,260204.59999999776,7041,WL,B,3.0
2,6.930999994277954,learn,53069.000005722046,Mon Jan 27 2025 18:06:48 GMT-0600 (Central Standard Time),261958.30000000075,A,pup,O,p,206,1,1753.7000000029802,260204.59999999776,7041,WL,B,3.0
2,7.3480000495910645,learn,52651.999950408936,Mon Jan 27 2025 18:06:48 GMT-0600 (Central Standard Time),262375.09999999776,A,pupi,O,i,406,1,2170.5,260204.59999999776,7041,WL,B,3.0
2,7.615999937057495,learn,52384.000062942505,Mon Jan 27 2025 18:06:48 GMT-0600 (Central Standard Time),262642.80000000075,A,pupil,O,l,253,1,2438.2000000029802,260204.59999999776,7041,WL,B,3.0
2,8.098000049591064,learn,51901.999950408936,Mon Jan 27 2025 18:06:48 GMT-0600 (Central Standard Time),263124.80000000075,A,pupilenter,O,enter,465,1,2920.2000000029802,260204.59999999776,7041,WL,B,3.0
2,8.781000137329102,learn,51218.9998626709,Mon Jan 27 2025 18:06:48 GMT-0600 (Central Standard Time),263807.80000000075,A,f,O,f,672,1,682.7000000029802,263125.09999999776,7041,WL,B,4.0
2,9.081000089645386,learn,50918.999910354614,Mon Jan 27 2025 18:06:48 GMT-0600 (Central Standard Time),264108.09999999776,A,fi,O,i,285,1,983.0,263125.09999999776,7041,WL,B,4.0
2,9.230999946594238,learn,50769.00005340576,Mon Jan 27 2025 18:06:48 GMT-0600 (Central Standard Time),264257.8999999985,A,fir,O,r,136,1,1132.800000000745,263125.09999999776,7041,WL,B,4.0
2,9.513999938964844,learn,50486.000061035156,Mon Jan 27 2025 18:06:48 GMT-0600 (Central Standard Time),264541.09999999776,A,fire,O,e,267,1,1416.0,263125.09999999776,7041,WL,B,4.0
2,9.730000019073486,learn,50269.999980926514,Mon Jan 27 2025 18:06:48 GMT-0600 (Central Standard Time),264757.5,A,fireenter,O,enter,200,1,1632.4000000022352,263125.09999999776,7041,WL,B,4.0
2,10.564000129699707,learn,49435.99987030029,Mon Jan 27 2025 18:06:48 GMT-0600 (Central Standard Time),265590.59999999776,A,p,O,p,823,1,832.7999999970198,264757.80000000075,7041,WL,B,5.0
2,10.897000074386597,learn,49102.9999256134,Mon Jan 27 2025 18:06:48 GMT-0600 (Central Standard Time),265923.80000000075,A,pi,O,i,310,1,1166.0,264757.80000000075,7041,WL,B,5.0
2,11.163000106811523,learn,48836.99989318848,Mon Jan 27 2025 18:06:48 GMT-0600 (Central Standard Time),266190.5,A,pip,O,p,249,1,1432.699999999255,264757.80000000075,7041,WL,B,5.0
2,12.013000011444092,learn,47986.99998855591,Mon Jan 27 2025 18:06:48 GMT-0600 (Central Standard Time),267040.30000000075,A,pipe,O,e,831,1,2282.5,264757.80000000075,7041,WL,B,5.0
2,13.11299991607666,learn,46887.00008392334,Mon Jan 27 2025 18:06:48 GMT-0600 (Central Standard Time),268139.8999999985,A,pipeenter,O,enter,1085,1,3382.099999997765,264757.80000000075,7041,WL,B,5.0
2,15.01200008392334,learn,44987.99991607666,Mon Jan 27 2025 18:06:48 GMT-0600 (Central Standard Time),270039.30000000075,A,s,O,s,1881,1,1899.1000000014901,268140.19999999925,7041,WL,B,6.0
2,15.194999933242798,learn,44805.0000667572,Mon Jan 27 2025 18:06:48 GMT-0600 (Central Standard Time),270222.3999999985,A,sk,O,k,173,1,2082.199999999255,268140.19999999925,7041,WL,B,6.0
2,15.444999933242798,learn,44555.0000667572,Mon Jan 27 2025 18:06:48 GMT-0600 (Central Standard Time),270472.5,A,ski,O,i,230,1,2332.300000000745,268140.19999999925,7041,WL,B,6.0
2,15.661999940872192,learn,44338.00005912781,Mon Jan 27 2025 18:06:48 GMT-0600 (Central Standard Time),270689.19999999925,A,skin,O,n,196,1,2549.0,268140.19999999925,7041,WL,B,6.0
2,16.111999988555908,learn,43888.00001144409,Mon Jan 27 2025 18:06:48 GMT-0600 (Central Standard Time),271138.8999999985,A,skinenter,O,enter,428,1,2998.699999999255,268140.19999999925,7041,WL,B,6.0
2,16.528000116348267,learn,43471.99988365173,Mon Jan 27 2025 18:06:48 GMT-0600 (Central Standard Time),271555.3999999985,A,d,O,d,393,1,416.0999999977648,271139.30000000075,7041,WL,B,7.0
2,16.76200008392334,learn,43237.99991607666,Mon Jan 27 2025 18:06:48 GMT-0600 (Central Standard Time),271789.09999999776,A,do,O,o,217,1,649.7999999970198,271139.30000000075,7041,WL,B,7.0
2,16.962000131607056,learn,43037.999868392944,Mon Jan 27 2025 18:06:48 GMT-0600 (Central Standard Time),271988.8999999985,A,doo,O,o,177,1,849.5999999977648,271139.30000000075,7041,WL,B,7.0
2,17.09500002861023,learn,42904.99997138977,Mon Jan 27 2025 18:06:48 GMT-0600 (Central Standard Time),272122.09999999776,A,door,O,r,112,1,982.7999999970198,271139.30000000075,7041,WL,B,7.0
2,17.477999925613403,learn,42522.0000743866,Mon Jan 27 2025 18:06:48 GMT-0600 (Central Standard Time),272505.30000000075,A,doorenter,O,enter,370,1,1366.0,271139.30000000075,7041,WL,B,7.0
2,18.128000020980835,learn,41871.999979019165,Mon Jan 27 2025 18:06:48 GMT-0600 (Central Standard Time),273155.0,A,g,O,g,636,1,649.3000000007451,272505.69999999925,7041,WL,B,8.0
2,18.378000020980835,learn,41621.999979019165,Mon Jan 27 2025 18:06:48 GMT-0600 (Central Standard Time),273404.69999999925,A,gr,O,r,242,1,899.0,272505.69999999925,7041,WL,B,8.0
2,18.628000020980835,learn,41371.999979019165,Mon Jan 27 2025 18:06:48 GMT-0600 (Central Standard Time),273655.0,A,gra,O,a,240,1,1149.300000000745,272505.69999999925,7041,WL,B,8.0
2,18.99399995803833,learn,41006.00004196167,Mon Jan 27 2025 18:06:48 GMT-0600 (Central Standard Time),274021.30000000075,A,gras,O,s,349,1,1515.6000000014901,272505.69999999925,7041,WL,B,8.0
2,19.22699999809265,learn,40773.00000190735,Mon Jan 27 2025 18:06:48 GMT-0600 (Central Standard Time),274254.5,A,grass,O,s,224,1,1748.800000000745,272505.69999999925,7041,WL,B,8.0
2,19.51099991798401,learn,40489.00008201599,Mon Jan 27 2025 18:06:48 GMT-0600 (Central Standard Time),274538.0,A,grassenter,O,enter,270,1,2032.300000000745,272505.69999999925,7041,WL,B,8.0
2,21.693000078201294,learn,38306.999921798706,Mon Jan 27 2025 18:06:48 GMT-0600 (Central Standard Time),276720.3999999985,A,d,O,d,2171,1,2182.099999997765,274538.30000000075,7041,WL,B,9.0
2,21.89300012588501,learn,38106.99987411499,Mon Jan 27 2025 18:06:48 GMT-0600 (Central Standard Time),276920.3999999985,A,do,O,o,188,1,2382.099999997765,274538.30000000075,7041,WL,B,9.0
2,22.092999935150146,learn,37907.00006484985,Mon Jan 27 2025 18:06:48 GMT-0600 (Central Standard Time),277120.19999999925,A,doo,O,o,188,1,2581.89999999851,274538.30000000075,7041,WL,B,9.0
2,22.2260000705719,learn,37773.9999294281,Mon Jan 27 2025 18:06:48 GMT-0600 (Central Standard Time),277253.5,A,door,O,r,116,1,2715.199999999255,274538.30000000075,7041,WL,B,9.0
2,22.55999994277954,learn,37440.00005722046,Mon Jan 27 2025 18:06:48 GMT-0600 (Central Standard Time),277586.8999999985,A,doorenter,O,enter,319,1,3048.599999997765,274538.30000000075,7041,WL,B,9.0
2,23.009999990463257,learn,36990.00000953674,Mon Jan 27 2025 18:06:48 GMT-0600 (Central Standard Time),278036.59999999776,A,a,O,a,434,1,449.3999999985099,277587.19999999925,7041,WL,B,10.0
2,23.360000133514404,learn,36639.999866485596,Mon Jan 27 2025 18:06:48 GMT-0600 (Central Standard Time),278386.5,A,ar,O,r,328,1,799.3000000007451,277587.19999999925,7041,WL,B,10.0
2,23.610000133514404,learn,36389.999866485596,Mon Jan 27 2025 18:06:48 GMT-0600 (Central Standard Time),278636.59999999776,A,arm,O,m,234,1,1049.3999999985099,277587.19999999925,7041,WL,B,10.0
2,23.926000118255615,learn,36073.999881744385,Mon Jan 27 2025 18:06:48 GMT-0600 (Central Standard Time),278953.19999999925,A,armenter,O,enter,304,1,1366.0,277587.19999999925,7041,WL,B,10.0
2,24.342000007629395,learn,35657.999992370605,Mon Jan 27 2025 18:06:48 GMT-0600 (Central Standard Time),279369.30000000075,A,s,O,s,404,1,415.70000000298023,278953.59999999776,7041,WL,B,11.0
2,24.608999967575073,learn,35391.00003242493,Mon Jan 27 2025 18:06:48 GMT-0600 (Central Standard Time),279636.19999999925,A,st,O,t,251,1,682.6000000014901,278953.59999999776,7041,WL,B,11.0
2,24.842000007629395,learn,35157.999992370605,Mon Jan 27 2025 18:06:48 GMT-0600 (Central Standard Time),279869.3999999985,A,sta,O,a,225,1,915.8000000007451,278953.59999999776,7041,WL,B,11.0
2,25.026000022888184,learn,34973.99997711182,Mon Jan 27 2025 18:06:48 GMT-0600 (Central Standard Time),280053.0,A,star,O,r,167,1,1099.4000000022352,278953.59999999776,7041,WL,B,11.0
2,25.408999919891357,learn,34591.00008010864,Mon Jan 27 2025 18:06:48 GMT-0600 (Central Standard Time),280436.09999999776,A,starenter,O,enter,367,1,1482.5,278953.59999999776,7041,WL,B,11.0
2,31.256999969482422,learn,28743.000030517578,Mon Jan 27 2025 18:06:48 GMT-0600 (Central Standard Time),286284.0,A,f,O,f,5833,1,5847.60000000149,280436.3999999985,7041,WL,B,12.0
2,31.539999961853027,learn,28460.000038146973,Mon Jan 27 2025 18:06:48 GMT-0600 (Central Standard Time),286567.30000000075,A,fi,O,i,264,1,6130.900000002235,280436.3999999985,7041,WL,B,12.0
2,31.624000072479248,learn,28375.999927520752,Mon Jan 27 2025 18:06:48 GMT-0600 (Central Standard Time),286650.69999999925,A,fir,O,r,69,1,6214.300000000745,280436.3999999985,7041,WL,B,12.0
2,31.85700011253357,learn,28142.99988746643,Mon Jan 27 2025 18:06:48 GMT-0600 (Central Standard Time),286884.0,A,fire,O,e,210,1,6447.60000000149,280436.3999999985,7041,WL,B,12.0
2,32.056999921798706,learn,27943.000078201294,Mon Jan 27 2025 18:06:48 GMT-0600 (Central Standard Time),287084.0,A,fireenter,O,enter,176,1,6647.60000000149,280436.3999999985,7041,WL,B,12.0
2,41.07100009918213,learn,18928.99990081787,Mon Jan 27 2025 18:06:48 GMT-0600 (Central Standard Time),296097.59999999776,A,enter,O,enter,9001,1,9013.29999999702,287084.30000000075,7041,WL,B,13.0
2,41.4210000038147,learn,18578.999996185303,Mon Jan 27 2025 18:06:48 GMT-0600 (Central Standard Time),296447.59999999776,A,enter,O,enter,331,1,349.69999999925494,296097.8999999985,7041,WL,B,14.0
2,41.80400013923645,learn,18195.99986076355,Mon Jan 27 2025 18:06:48 GMT-0600 (Central Standard Time),296830.8999999985,A,enter,O,enter,366,1,383.0,296447.8999999985,7041,WL,B,15.0
3,1.2990000247955322,learn,58700.99997520447,Mon Jan 27 2025 18:06:48 GMT-0600 (Central Standard Time),366575.69999999925,A,c,O,c,1280,1,1299.0,365276.69999999925,7041,WL,B,1.0
3,1.4660000801086426,learn,58533.99991989136,Mon Jan 27 2025 18:06:48 GMT-0600 (Central Standard Time),366742.3999999985,A,cl,O,l,149,1,1465.699999999255,365276.69999999925,7041,WL,B,1.0
3,1.7660000324249268,learn,58233.99996757507,Mon Jan 27 2025 18:06:48 GMT-0600 (Central Standard Time),367042.09999999776,A,clo,O,o,278,1,1765.3999999985099,365276.69999999925,7041,WL,B,1.0
3,1.999000072479248,learn,58000.99992752075,Mon Jan 27 2025 18:06:48 GMT-0600 (Central Standard Time),367275.59999999776,A,cloc,O,c,219,1,1998.8999999985099,365276.69999999925,7041,WL,B,1.0
3,2.1660001277923584,learn,57833.99987220764,Mon Jan 27 2025 18:06:48 GMT-0600 (Central Standard Time),367442.30000000075,A,clock,O,k,153,1,2165.60000000149,365276.69999999925,7041,WL,B,1.0
3,2.7990000247955322,learn,57200.99997520447,Mon Jan 27 2025 18:06:48 GMT-0600 (Central Standard Time),368075.3999999985,A,clockenter,O,enter,610,1,2798.699999999255,365276.69999999925,7041,WL,B,1.0
3,3.315000057220459,learn,56684.99994277954,Mon Jan 27 2025 18:06:48 GMT-0600 (Central Standard Time),368591.5,A,s,O,s,506,1,515.6999999992549,368075.80000000075,7041,WL,B,2.0
3,3.632000207901001,learn,56367.999792099,Mon Jan 27 2025 18:06:48 GMT-0600 (Central Standard Time),368908.5,A,st,O,t,293,1,832.6999999992549,368075.80000000075,7041,WL,B,2.0
3,3.8990001678466797,learn,56100.99983215332,Mon Jan 27 2025 18:06:48 GMT-0600 (Central Standard Time),369175.09999999776,A,str,O,r,247,1,1099.2999999970198,368075.80000000075,7041,WL,B,2.0
3,4.199000120162964,learn,55800.999879837036,Mon Jan 27 2025 18:06:48 GMT-0600 (Central Standard Time),369475.0,A,stre,O,e,277,1,1399.199999999255,368075.80000000075,7041,WL,B,2.0
3,4.432000160217285,learn,55567.999839782715,Mon Jan 27 2025 18:06:48 GMT-0600 (Central Standard Time),369708.09999999776,A,stree,O,e,210,1,1632.2999999970198,368075.80000000075,7041,WL,B,2.0
3,4.6650002002716064,learn,55334.99979972839,Mon Jan 27 2025 18:06:48 GMT-0600 (Central Standard Time),369941.30000000075,A,street,O,t,216,1,1865.5,368075.80000000075,7041,WL,B,2.0
3,4.948000192642212,learn,55051.99980735779,Mon Jan 27 2025 18:06:48 GMT-0600 (Central Standard Time),370224.5,A,streetenter,O,enter,271,1,2148.699999999255,368075.80000000075,7041,WL,B,2.0
3,5.531000137329102,learn,54468.9998626709,Mon Jan 27 2025 18:06:48 GMT-0600 (Central Standard Time),370807.69999999925,A,w,O,w,565,1,582.8000000007451,370224.8999999985,7041,WL,B,3.0
3,5.715000152587891,learn,54284.99984741211,Mon Jan 27 2025 18:06:48 GMT-0600 (Central Standard Time),370991.09999999776,A,wi,O,i,165,1,766.1999999992549,370224.8999999985,7041,WL,B,3.0
3,5.931000232696533,learn,54068.99976730347,Mon Jan 27 2025 18:06:48 GMT-0600 (Central Standard Time),371207.59999999776,A,wif,O,f,206,1,982.6999999992549,370224.8999999985,7041,WL,B,3.0
3,6.215000152587891,learn,53784.99984741211,Mon Jan 27 2025 18:06:48 GMT-0600 (Central Standard Time),371490.8999999985,A,wife,O,e,261,1,1266.0,370224.8999999985,7041,WL,B,3.0
3,6.448000192642212,learn,53551.99980735779,Mon Jan 27 2025 18:06:48 GMT-0600 (Central Standard Time),371724.19999999925,A,wifeenter,O,enter,210,1,1499.300000000745,370224.8999999985,7041,WL,B,3.0
3,6.748000144958496,learn,53251.999855041504,Mon Jan 27 2025 18:06:48 GMT-0600 (Central Standard Time),372024.0,A,a,O,a,288,1,299.5,371724.5,7041,WL,B,4.0
3,7.031000137329102,learn,52968.9998626709,Mon Jan 27 2025 18:06:48 GMT-0600 (Central Standard Time),372307.3999999985,A,ar,O,r,268,1,582.8999999985099,371724.5,7041,WL,B,4.0
3,7.514000177383423,learn,52485.99982261658,Mon Jan 27 2025 18:06:48 GMT-0600 (Central Standard Time),372790.3999999985,A,arm,O,m,474,1,1065.8999999985099,371724.5,7041,WL,B,4.0
3,7.997000217437744,learn,52002.999782562256,Mon Jan 27 2025 18:06:48 GMT-0600 (Central Standard Time),373273.80000000075,A,armenter,O,enter,470,1,1549.300000000745,371724.5,7041,WL,B,4.0
3,8.514000177383423,learn,51485.99982261658,Mon Jan 27 2025 18:06:48 GMT-0600 (Central Standard Time),373790.09999999776,A,c,O,c,507,1,515.8999999985099,373274.19999999925,7041,WL,B,5.0
3,8.797000169754028,learn,51202.99983024597,Mon Jan 27 2025 18:06:48 GMT-0600 (Central Standard Time),374073.3999999985,A,ca,O,a,271,1,799.1999999992549,373274.19999999925,7041,WL,B,5.0
3,9.247000217437744,learn,50752.999782562256,Mon Jan 27 2025 18:06:48 GMT-0600 (Central Standard Time),374523.3999999985,A,cab,O,b,435,1,1249.199999999255,373274.19999999925,7041,WL,B,5.0
3,9.630000114440918,learn,50369.99988555908,Mon Jan 27 2025 18:06:48 GMT-0600 (Central Standard Time),374906.3999999985,A,cabi,O,i,370,1,1632.199999999255,373274.19999999925,7041,WL,B,5.0
3,9.813000202178955,learn,50186.999797821045,Mon Jan 27 2025 18:06:48 GMT-0600 (Central Standard Time),375089.69999999925,A,cabin,O,n,170,1,1815.5,373274.19999999925,7041,WL,B,5.0
3,10.396000146865845,learn,49603.999853134155,Mon Jan 27 2025 18:06:48 GMT-0600 (Central Standard Time),375672.8999999985,A,cabinenter,O,enter,571,1,2398.699999999255,373274.19999999925,7041,WL,B,5.0
3,11.130000114440918,learn,48869.99988555908,Mon Jan 27 2025 18:06:48 GMT-0600 (Central Standard Time),376406.09999999776,A,l,O,l,716,1,732.7999999970198,375673.30000000075,7041,WL,B,6.0
3,11.296000003814697,learn,48703.9999961853,Mon Jan 27 2025 18:06:48 GMT-0600 (Central Standard Time),376572.80000000075,A,la,O,a,144,1,899.5,375673.30000000075,7041,WL,B,6.0
3,11.546000003814697,learn,48453.9999961853,Mon Jan 27 2025 18:06:48 GMT-0600 (Central Standard Time),376822.59999999776,A,lak,O,k,239,1,1149.2999999970198,375673.30000000075,7041,WL,B,6.0
3,11.746000051498413,learn,48253.99994850159,Mon Jan 27 2025 18:06:48 GMT-0600 (Central Standard Time),377022.59999999776,A,lake,O,e,190,1,1349.2999999970198,375673.30000000075,7041,WL,B,6.0
3,12.063000202178955,learn,47936.999797821045,Mon Jan 27 2025 18:06:48 GMT-0600 (Central Standard Time),377339.09999999776,A,lakeenter,O,enter,302,1,1665.7999999970198,375673.30000000075,7041,WL,B,6.0
3,12.629000186920166,learn,47370.999813079834,Mon Jan 27 2025 18:06:48 GMT-0600 (Central Standard Time),377905.30000000075,A,p,O,p,554,1,565.8000000007451,377339.5,7041,WL,B,7.0
3,12.896000146865845,learn,47103.999853134155,Mon Jan 27 2025 18:06:48 GMT-0600 (Central Standard Time),378172.30000000075,A,pe,O,e,251,1,832.8000000007451,377339.5,7041,WL,B,7.0
3,13.979000091552734,learn,46020.999908447266,Mon Jan 27 2025 18:06:48 GMT-0600 (Central Standard Time),379255.19999999925,A,p,O,backspace,1073,1,1915.699999999255,377339.5,7041,WL,B,7.0
3,14.945000171661377,learn,45054.99982833862,Mon Jan 27 2025 18:06:48 GMT-0600 (Central Standard Time),380221.30000000075,A,pi,O,i,957,1,2881.800000000745,377339.5,7041,WL,B,7.0
3,15.612000226974487,learn,44387.99977302551,Mon Jan 27 2025 18:06:48 GMT-0600 (Central Standard Time),380887.8999999985,A,pip,O,p,647,1,3548.39999999851,377339.5,7041,WL,B,7.0
3,15.84500002861023,learn,44154.99997138977,Mon Jan 27 2025 18:06:48 GMT-0600 (Central Standard Time),381121.19999999925,A,pipe,O,e,221,1,3781.699999999255,377339.5,7041,WL,B,7.0
3,16.261000156402588,learn,43738.99984359741,Mon Jan 27 2025 18:06:48 GMT-0600 (Central Standard Time),381537.69999999925,A,pipeenter,O,enter,404,1,4198.199999999255,377339.5,7041,WL,B,7.0
3,16.927000045776367,learn,43072.99995422363,Mon Jan 27 2025 18:06:48 GMT-0600 (Central Standard Time),382203.80000000075,A,s,O,s,643,1,665.8000000007451,381538.0,7041,WL,B,8.0
3,17.14400005340576,learn,42855.99994659424,Mon Jan 27 2025 18:06:48 GMT-0600 (Central Standard Time),382420.69999999925,A,sk,O,k,209,1,882.6999999992549,381538.0,7041,WL,B,8.0
3,17.378000020980835,learn,42621.999979019165,Mon Jan 27 2025 18:06:48 GMT-0600 (Central Standard Time),382654.0,A,ski,O,i,217,1,1116.0,381538.0,7041,WL,B,8.0
3,17.64400005340576,learn,42355.99994659424,Mon Jan 27 2025 18:06:48 GMT-0600 (Central Standard Time),382920.69999999925,A,skin,O,n,247,1,1382.699999999255,381538.0,7041,WL,B,8.0
3,18.194000005722046,learn,41805.999994277954,Mon Jan 27 2025 18:06:48 GMT-0600 (Central Standard Time),383470.3999999985,A,skinenter,O,enter,531,1,1932.3999999985099,381538.0,7041,WL,B,8.0
3,19.41000008583069,learn,40589.99991416931,Mon Jan 27 2025 18:06:48 GMT-0600 (Central Standard Time),384686.69999999925,A,s,O,s,1206,1,1215.8999999985099,383470.80000000075,7041,WL,B,9.0
3,19.89400005340576,learn,40105.99994659424,Mon Jan 27 2025 18:06:48 GMT-0600 (Central Standard Time),385170.0,A,st,O,t,470,1,1699.199999999255,383470.80000000075,7041,WL,B,9.0
3,20.0770001411438,learn,39922.9998588562,Mon Jan 27 2025 18:06:48 GMT-0600 (Central Standard Time),385353.5,A,sta,O,a,163,1,1882.699999999255,383470.80000000075,7041,WL,B,9.0
3,20.22699999809265,learn,39773.00000190735,Mon Jan 27 2025 18:06:48 GMT-0600 (Central Standard Time),385503.09999999776,A,star,O,r,139,1,2032.2999999970198,383470.80000000075,7041,WL,B,9.0
3,20.89300012588501,learn,39106.99987411499,Mon Jan 27 2025 18:06:48 GMT-0600 (Central Standard Time),386169.59999999776,A,starenter,O,enter,654,1,2698.7999999970198,383470.80000000075,7041,WL,B,9.0
3,23.026000022888184,learn,36973.99997711182,Mon Jan 27 2025 18:06:48 GMT-0600 (Central Standard Time),388302.09999999776,A,p,O,p,2124,1,2132.199999999255,386169.8999999985,7041,WL,B,10.0
3,23.30900001525879,learn,36690.99998474121,Mon Jan 27 2025 18:06:48 GMT-0600 (Central Standard Time),388585.5,A,pu,O,u,270,1,2415.60000000149,386169.8999999985,7041,WL,B,10.0
3,23.526000022888184,learn,36473.99997711182,Mon Jan 27 2025 18:06:48 GMT-0600 (Central Standard Time),388802.19999999925,A,pup,O,p,195,1,2632.300000000745,386169.8999999985,7041,WL,B,10.0
3,23.826000213623047,learn,36173.99978637695,Mon Jan 27 2025 18:06:48 GMT-0600 (Central Standard Time),389102.0,A,pupi,O,i,282,1,2932.10000000149,386169.8999999985,7041,WL,B,10.0
3,24.20900011062622,learn,35790.99988937378,Mon Jan 27 2025 18:06:48 GMT-0600 (Central Standard Time),389485.09999999776,A,pupil,O,l,375,1,3315.199999999255,386169.8999999985,7041,WL,B,10.0
3,24.70900011062622,learn,35290.99988937378,Mon Jan 27 2025 18:06:48 GMT-0600 (Central Standard Time),389985.19999999925,A,pupilenter,O,enter,480,1,3815.300000000745,386169.8999999985,7041,WL,B,10.0
3,27.091000080108643,learn,32908.99991989136,Mon Jan 27 2025 18:06:48 GMT-0600 (Central Standard Time),392367.59999999776,A,f,O,f,2372,1,2382.099999997765,389985.5,7041,WL,B,11.0
3,27.35800004005432,learn,32641.99995994568,Mon Jan 27 2025 18:06:48 GMT-0600 (Central Standard Time),392634.3999999985,A,fu,O,u,253,1,2648.89999999851,389985.5,7041,WL,B,11.0
3,27.54100012779236,learn,32458.99987220764,Mon Jan 27 2025 18:06:48 GMT-0600 (Central Standard Time),392817.5,A,fur,O,r,170,1,2832.0,389985.5,7041,WL,B,11.0
3,27.758000135421753,learn,32241.999864578247,Mon Jan 27 2025 18:06:48 GMT-0600 (Central Standard Time),393034.30000000075,A,fure,O,e,203,1,3048.800000000745,389985.5,7041,WL,B,11.0
3,28.54100012779236,learn,31458.99987220764,Mon Jan 27 2025 18:06:48 GMT-0600 (Central Standard Time),393817.09999999776,A,fur,O,backspace,770,1,3831.599999997765,389985.5,7041,WL,B,11.0
3,28.741000175476074,learn,31258.999824523926,Mon Jan 27 2025 18:06:48 GMT-0600 (Central Standard Time),394017.09999999776,A,fu,O,backspace,188,1,4031.599999997765,389985.5,7041,WL,B,11.0
3,28.907000064849854,learn,31092.999935150146,Mon Jan 27 2025 18:06:48 GMT-0600 (Central Standard Time),394183.80000000075,A,f,O,backspace,156,1,4198.300000000745,389985.5,7041,WL,B,11.0
3,29.79100012779236,learn,30208.99987220764,Mon Jan 27 2025 18:06:48 GMT-0600 (Central Standard Time),395066.8999999985,A,fi,O,i,869,1,5081.39999999851,389985.5,7041,WL,B,11.0
3,30.04100012779236,learn,29958.99987220764,Mon Jan 27 2025 18:06:48 GMT-0600 (Central Standard Time),395316.8999999985,A,fir,O,r,226,1,5331.39999999851,389985.5,7041,WL,B,11.0
3,30.290000200271606,learn,29709.999799728394,Mon Jan 27 2025 18:06:48 GMT-0600 (Central Standard Time),395566.69999999925,A,fire,O,e,232,1,5581.199999999255,389985.5,7041,WL,B,11.0
3,30.77400016784668,learn,29225.99983215332,Mon Jan 27 2025 18:06:48 GMT-0600 (Central Standard Time),396050.0,A,fireenter,O,enter,470,1,6064.5,389985.5,7041,WL,B,11.0
3,40.53700017929077,learn,19462.99982070923,Mon Jan 27 2025 18:06:48 GMT-0600 (Central Standard Time),405813.59999999776,A,f,O,f,9747,1,9763.39999999851,396050.19999999925,7041,WL,B,12.0
3,40.837000131607056,learn,19162.999868392944,Mon Jan 27 2025 18:06:48 GMT-0600 (Central Standard Time),406113.30000000075,A,fi,O,i,278,1,10063.10000000149,396050.19999999925,7041,WL,B,12.0
3,40.920000076293945,learn,19079.999923706055,Mon Jan 27 2025 18:06:48 GMT-0600 (Central Standard Time),406196.59999999776,A,fir,O,r,68,1,10146.39999999851,396050.19999999925,7041,WL,B,12.0
3,41.20400023460388,learn,18795.999765396118,Mon Jan 27 2025 18:06:48 GMT-0600 (Central Standard Time),406480.09999999776,A,fire,O,e,264,1,10429.89999999851,396050.19999999925,7041,WL,B,12.0
3,41.503000020980835,learn,18496.999979019165,Mon Jan 27 2025 18:06:48 GMT-0600 (Central Standard Time),406779.80000000075,A,fireenter,O,enter,277,1,10729.60000000149,396050.19999999925,7041,WL,B,12.0
3,45.50200009346008,learn,14497.999906539917,Mon Jan 27 2025 18:06:48 GMT-0600 (Central Standard Time),410778.59999999776,A,s,O,s,3977,1,3998.39999999851,406780.19999999925,7041,WL,B,13.0
3,45.9520001411438,learn,14047.999858856201,Mon Jan 27 2025 18:06:48 GMT-0600 (Central Standard Time),411228.3999999985,A,st,O,t,434,1,4448.199999999255,406780.19999999925,7041,WL,B,13.0
3,46.2020001411438,learn,13797.999858856201,Mon Jan 27 2025 18:06:48 GMT-0600 (Central Standard Time),411478.30000000075,A,str,O,r,232,1,4698.10000000149,406780.19999999925,7041,WL,B,13.0
3,46.46900010108948,learn,13530.999898910522,Mon Jan 27 2025 18:06:48 GMT-0600 (Central Standard Time),411744.8999999985,A,stre,O,e,247,1,4964.699999999255,406780.19999999925,7041,WL,B,13.0
3,46.7020001411438,learn,13297.999858856201,Mon Jan 27 2025 18:06:48 GMT-0600 (Central Standard Time),411978.0,A,stree,O,e,213,1,5197.800000000745,406780.19999999925,7041,WL,B,13.0
3,46.91800022125244,learn,13081.999778747559,Mon Jan 27 2025 18:06:48 GMT-0600 (Central Standard Time),412194.69999999925,A,street,O,t,203,1,5414.5,406780.19999999925,7041,WL,B,13.0
3,47.152000188827515,learn,12847.999811172485,Mon Jan 27 2025 18:06:48 GMT-0600 (Central Standard Time),412428.3999999985,A,streetenter,O,enter,211,1,5648.199999999255,406780.19999999925,7041,WL,B,13.0
3,47.635000228881836,learn,12364.999771118164,Mon Jan 27 2025 18:06:48 GMT-0600 (Central Standard Time),412911.19999999925,A,g,O,g,473,1,482.5,412428.69999999925,7041,WL,B,14.0
3,47.885000228881836,learn,12114.999771118164,Mon Jan 27 2025 18:06:48 GMT-0600 (Central Standard Time),413161.3999999985,A,gr,O,r,237,1,732.6999999992549,412428.69999999925,7041,WL,B,14.0
3,48.18500018119812,learn,11814.99981880188,Mon Jan 27 2025 18:06:48 GMT-0600 (Central Standard Time),413461.09999999776,A,gra,O,a,283,1,1032.3999999985099,412428.69999999925,7041,WL,B,14.0
3,48.51800012588501,learn,11481.99987411499,Mon Jan 27 2025 18:06:48 GMT-0600 (Central Standard Time),413794.30000000075,A,gras,O,s,312,1,1365.6000000014901,412428.69999999925,7041,WL,B,14.0
3,48.73400020599365,learn,11265.999794006348,Mon Jan 27 2025 18:06:48 GMT-0600 (Central Standard Time),414010.59999999776,A,grass,O,s,204,1,1581.8999999985099,412428.69999999925,7041,WL,B,14.0
3,48.968000173568726,learn,11031.999826431274,Mon Jan 27 2025 18:06:48 GMT-0600 (Central Standard Time),414244.5,A,grassenter,O,enter,226,1,1815.800000000745,412428.69999999925,7041,WL,B,14.0
3,51.31700015068054,learn,8682.999849319458,Mon Jan 27 2025 18:06:48 GMT-0600 (Central Standard Time),416593.30000000075,A,enter,O,enter,2337,1,2348.60000000149,414244.69999999925,7041,WL,B,15.0
4,1.1159999370574951,learn,58884.000062942505,Mon Jan 27 2025 18:06:48 GMT-0600 (Central Standard Time),485438.5,A,s,O,s,1098,1,1115.9000000022352,484322.59999999776,7041,WL,B,1.0
4,1.6489999294281006,learn,58351.0000705719,Mon Jan 27 2025 18:06:48 GMT-0600 (Central Standard Time),485971.69999999925,A,st,O,t,518,1,1649.1000000014901,484322.59999999776,7041,WL,B,1.0
4,1.9830000400543213,learn,58016.99995994568,Mon Jan 27 2025 18:06:48 GMT-0600 (Central Standard Time),486305.19999999925,A,str,O,r,321,1,1982.6000000014901,484322.59999999776,7041,WL,B,1.0
4,2.3320000171661377,learn,57667.99998283386,Mon Jan 27 2025 18:06:48 GMT-0600 (Central Standard Time),486654.8999999985,A,stre,O,e,339,1,2332.300000000745,484322.59999999776,7041,WL,B,1.0
4,2.5820000171661377,learn,57417.99998283386,Mon Jan 27 2025 18:06:48 GMT-0600 (Central Standard Time),486904.69999999925,A,stree,O,e,230,1,2582.10000000149,484322.59999999776,7041,WL,B,1.0
4,2.865999937057495,learn,57134.000062942505,Mon Jan 27 2025 18:06:48 GMT-0600 (Central Standard Time),487188.0,A,street,O,t,268,1,2865.400000002235,484322.59999999776,7041,WL,B,1.0
4,3.5820000171661377,learn,56417.99998283386,Mon Jan 27 2025 18:06:48 GMT-0600 (Central Standard Time),487904.30000000075,A,streetenter,O,enter,696,1,3581.7000000029802,484322.59999999776,7041,WL,B,1.0
4,4.199000120162964,learn,55800.999879837036,Mon Jan 27 2025 18:06:48 GMT-0600 (Central Standard Time),488521.0,A,g,O,g,597,1,616.5,487904.5,7041,WL,B,2.0
4,4.431999921798706,learn,55568.000078201294,Mon Jan 27 2025 18:06:48 GMT-0600 (Central Standard Time),488754.19999999925,A,gr,O,r,219,1,849.6999999992549,487904.5,7041,WL,B,2.0
4,4.697999954223633,learn,55302.00004577637,Mon Jan 27 2025 18:06:48 GMT-0600 (Central Standard Time),489020.59999999776,A,gra,O,a,259,1,1116.0999999977648,487904.5,7041,WL,B,2.0
4,5.398000001907349,learn,54601.99999809265,Mon Jan 27 2025 18:06:48 GMT-0600 (Central Standard Time),489720.3999999985,A,gras,O,s,688,1,1815.8999999985099,487904.5,7041,WL,B,2.0
4,5.648000001907349,learn,54351.99999809265,Mon Jan 27 2025 18:06:48 GMT-0600 (Central Standard Time),489970.5,A,grass,O,s,236,1,2066.0,487904.5,7041,WL,B,2.0
4,6.031000137329102,learn,53968.9998626709,Mon Jan 27 2025 18:06:48 GMT-0600 (Central Standard Time),490353.69999999925,A,grassenter,O,enter,370,1,2449.199999999255,487904.5,7041,WL,B,2.0
4,6.831000089645386,learn,53168.999910354614,Mon Jan 27 2025 18:06:48 GMT-0600 (Central Standard Time),491153.3999999985,A,d,O,d,787,1,799.3000000007451,490354.09999999776,7041,WL,B,3.0
4,7.031000137329102,learn,52968.9998626709,Mon Jan 27 2025 18:06:48 GMT-0600 (Central Standard Time),491353.5,A,do,O,o,180,1,999.4000000022352,490354.09999999776,7041,WL,B,3.0
4,7.180999994277954,learn,52819.000005722046,Mon Jan 27 2025 18:06:48 GMT-0600 (Central Standard Time),491503.30000000075,A,doo,O,o,139,1,1149.2000000029802,490354.09999999776,7041,WL,B,3.0
4,7.314000129699707,learn,52685.99987030029,Mon Jan 27 2025 18:06:48 GMT-0600 (Central Standard Time),491636.5,A,door,O,r,125,1,1282.4000000022352,490354.09999999776,7041,WL,B,3.0
4,7.763999938964844,learn,52236.000061035156,Mon Jan 27 2025 18:06:48 GMT-0600 (Central Standard Time),492086.59999999776,A,doorenter,O,enter,433,1,1732.5,490354.09999999776,7041,WL,B,3.0
4,8.21399998664856,learn,51786.00001335144,Mon Jan 27 2025 18:06:48 GMT-0600 (Central Standard Time),492536.30000000075,A,a,O,a,437,1,449.20000000298023,492087.09999999776,7041,WL,B,4.0
4,8.46399998664856,learn,51536.00001335144,Mon Jan 27 2025 18:06:48 GMT-0600 (Central Standard Time),492786.3999999985,A,ar,O,r,229,1,699.3000000007451,492087.09999999776,7041,WL,B,4.0
4,8.77999997138977,learn,51220.00002861023,Mon Jan 27 2025 18:06:48 GMT-0600 (Central Standard Time),493102.80000000075,A,arm,O,m,307,1,1015.7000000029802,492087.09999999776,7041,WL,B,4.0
4,9.147000074386597,learn,50852.9999256134,Mon Jan 27 2025 18:06:48 GMT-0600 (Central Standard Time),493469.30000000075,A,armenter,O,enter,358,1,1382.2000000029802,492087.09999999776,7041,WL,B,4.0
4,9.746999979019165,learn,50253.000020980835,Mon Jan 27 2025 18:06:48 GMT-0600 (Central Standard Time),494069.19999999925,A,w,O,w,584,1,599.6999999992549,493469.5,7041,WL,B,5.0
4,9.94700002670288,learn,50052.99997329712,Mon Jan 27 2025 18:06:48 GMT-0600 (Central Standard Time),494269.19999999925,A,wi,O,i,183,1,799.6999999992549,493469.5,7041,WL,B,5.0
4,10.180000066757202,learn,49819.9999332428,Mon Jan 27 2025 18:06:48 GMT-0600 (Central Standard Time),494502.59999999776,A,wif,O,f,215,1,1033.0999999977648,493469.5,7041,WL,B,5.0
4,10.480000019073486,learn,49519.999980926514,Mon Jan 27 2025 18:06:48 GMT-0600 (Central Standard Time),494802.5,A,wife,O,e,286,1,1333.0,493469.5,7041,WL,B,5.0
4,10.663000106811523,learn,49336.99989318848,Mon Jan 27 2025 18:06:48 GMT-0600 (Central Standard Time),494985.80000000075,A,wifeenter,O,enter,170,1,1516.300000000745,493469.5,7041,WL,B,5.0
4,11.430999994277954,learn,48569.000005722046,Mon Jan 27 2025 18:06:48 GMT-0600 (Central Standard Time),495753.09999999776,A,s,O,s,747,1,767.0999999977648,494986.0,7041,WL,B,6.0
4,12.713000059127808,learn,47286.99994087219,Mon Jan 27 2025 18:06:48 GMT-0600 (Central Standard Time),497035.0,A,,O,backspace,1260,1,2049.0,494986.0,7041,WL,B,6.0
4,13.029000043869019,learn,46970.99995613098,Mon Jan 27 2025 18:06:48 GMT-0600 (Central Standard Time),497351.5,A,w,O,w,299,1,2365.5,494986.0,7041,WL,B,6.0
4,13.345999956130981,learn,46654.00004386902,Mon Jan 27 2025 18:06:48 GMT-0600 (Central Standard Time),497668.09999999776,A,wi,O,i,301,1,2682.099999997765,494986.0,7041,WL,B,6.0
4,13.562000036239624,learn,46437.999963760376,Mon Jan 27 2025 18:06:48 GMT-0600 (Central Standard Time),497884.80000000075,A,win,O,n,194,1,2898.800000000745,494986.0,7041,WL,B,6.0
4,13.911999940872192,learn,46088.00005912781,Mon Jan 27 2025 18:06:48 GMT-0600 (Central Standard Time),498234.59999999776,A,wind,O,d,336,1,3248.599999997765,494986.0,7041,WL,B,6.0
4,14.09500002861023,learn,45904.99997138977,Mon Jan 27 2025 18:06:48 GMT-0600 (Central Standard Time),498417.80000000075,A,windo,O,o,170,1,3431.800000000745,494986.0,7041,WL,B,6.0
4,14.312000036239624,learn,45687.999963760376,Mon Jan 27 2025 18:06:48 GMT-0600 (Central Standard Time),498634.5,A,window,O,w,203,1,3648.5,494986.0,7041,WL,B,6.0
4,14.729000091552734,learn,45270.999908447266,Mon Jan 27 2025 18:06:48 GMT-0600 (Central Standard Time),499051.19999999925,A,windowenter,O,enter,402,1,4065.199999999255,494986.0,7041,WL,B,6.0
4,15.227999925613403,learn,44772.0000743866,Mon Jan 27 2025 18:06:48 GMT-0600 (Central Standard Time),499550.80000000075,A,c,O,c,482,1,499.4000000022352,499051.3999999985,7041,WL,B,7.0
4,15.51200008392334,learn,44487.99991607666,Mon Jan 27 2025 18:06:48 GMT-0600 (Central Standard Time),499834.09999999776,A,ci,O,i,262,1,782.6999999992549,499051.3999999985,7041,WL,B,7.0
4,15.745000123977661,learn,44254.99987602234,Mon Jan 27 2025 18:06:48 GMT-0600 (Central Standard Time),500067.3999999985,A,cit,O,t,219,1,1016.0,499051.3999999985,7041,WL,B,7.0
4,15.878000020980835,learn,44121.999979019165,Mon Jan 27 2025 18:06:48 GMT-0600 (Central Standard Time),500200.59999999776,A,city,O,y,121,1,1149.199999999255,499051.3999999985,7041,WL,B,7.0
4,16.42799997329712,learn,43572.00002670288,Mon Jan 27 2025 18:06:48 GMT-0600 (Central Standard Time),500750.3999999985,A,cityenter,O,enter,533,1,1699.0,499051.3999999985,7041,WL,B,7.0
4,17.07800006866455,learn,42921.99993133545,Mon Jan 27 2025 18:06:48 GMT-0600 (Central Standard Time),501400.30000000075,A,l,O,l,631,1,649.5,500750.80000000075,7041,WL,B,8.0
4,17.34500002861023,learn,42654.99997138977,Mon Jan 27 2025 18:06:48 GMT-0600 (Central Standard Time),501667.0,A,la,O,a,252,1,916.1999999992549,500750.80000000075,7041,WL,B,8.0
4,17.511000156402588,learn,42488.99984359741,Mon Jan 27 2025 18:06:48 GMT-0600 (Central Standard Time),501833.59999999776,A,lak,O,k,146,1,1082.7999999970198,500750.80000000075,7041,WL,B,8.0
4,17.74399995803833,learn,42256.00004196167,Mon Jan 27 2025 18:06:48 GMT-0600 (Central Standard Time),502066.59999999776,A,lake,O,e,211,1,1315.7999999970198,500750.80000000075,7041,WL,B,8.0
4,18.07800006866455,learn,41921.99993133545,Mon Jan 27 2025 18:06:48 GMT-0600 (Central Standard Time),502400.0,A,lakeenter,O,enter,324,1,1649.199999999255,500750.80000000075,7041,WL,B,8.0
4,18.594000101089478,learn,41405.99989891052,Mon Jan 27 2025 18:06:48 GMT-0600 (Central Standard Time),502916.5,A,p,O,p,501,1,516.1999999992549,502400.30000000075,7041,WL,B,9.0
4,19.30999994277954,learn,40690.00005722046,Mon Jan 27 2025 18:06:48 GMT-0600 (Central Standard Time),503632.69999999925,A,pi,O,i,704,1,1232.3999999985099,502400.30000000075,7041,WL,B,9.0
4,19.80999994277954,learn,40190.00005722046,Mon Jan 27 2025 18:06:48 GMT-0600 (Central Standard Time),504132.3999999985,A,pip,O,p,477,1,1732.0999999977648,502400.30000000075,7041,WL,B,9.0
4,19.99399995803833,learn,40006.00004196167,Mon Jan 27 2025 18:06:48 GMT-0600 (Central Standard Time),504316.0,A,pipe,O,e,169,1,1915.699999999255,502400.30000000075,7041,WL,B,9.0
4,20.292999982833862,learn,39707.00001716614,Mon Jan 27 2025 18:06:48 GMT-0600 (Central Standard Time),504615.8999999985,A,pipeenter,O,enter,281,1,2215.599999997765,502400.30000000075,7041,WL,B,9.0
4,20.877000093460083,learn,39122.99990653992,Mon Jan 27 2025 18:06:48 GMT-0600 (Central Standard Time),505199.09999999776,A,p,O,p,573,1,583.0,504616.09999999776,7041,WL,B,10.0
4,21.16000008583069,learn,38839.99991416931,Mon Jan 27 2025 18:06:48 GMT-0600 (Central Standard Time),505482.30000000075,A,pu,O,u,262,1,866.2000000029802,504616.09999999776,7041,WL,B,10.0
4,21.41000008583069,learn,38589.99991416931,Mon Jan 27 2025 18:06:48 GMT-0600 (Central Standard Time),505732.19999999925,A,pup,O,p,226,1,1116.1000000014901,504616.09999999776,7041,WL,B,10.0
4,21.743000030517578,learn,38256.99996948242,Mon Jan 27 2025 18:06:48 GMT-0600 (Central Standard Time),506065.59999999776,A,pupi,O,i,321,1,1449.5,504616.09999999776,7041,WL,B,10.0
4,22.05999994277954,learn,37940.00005722046,Mon Jan 27 2025 18:06:48 GMT-0600 (Central Standard Time),506382.09999999776,A,pupil,O,l,299,1,1766.0,504616.09999999776,7041,WL,B,10.0
4,22.693000078201294,learn,37306.999921798706,Mon Jan 27 2025 18:06:48 GMT-0600 (Central Standard Time),507015.30000000075,A,pupilenter,O,enter,623,1,2399.2000000029802,504616.09999999776,7041,WL,B,10.0
4,24.342000007629395,learn,35657.999992370605,Mon Jan 27 2025 18:06:48 GMT-0600 (Central Standard Time),508664.59999999776,A,c,O,c,1630,1,1648.8999999985099,507015.69999999925,7041,WL,B,11.0
4,24.509000062942505,learn,35490.999937057495,Mon Jan 27 2025 18:06:48 GMT-0600 (Central Standard Time),508831.3999999985,A,cl,O,l,148,1,1815.699999999255,507015.69999999925,7041,WL,B,11.0
4,24.742000102996826,learn,35257.999897003174,Mon Jan 27 2025 18:06:48 GMT-0600 (Central Standard Time),509064.5,A,clo,O,o,222,1,2048.800000000745,507015.69999999925,7041,WL,B,11.0
4,24.975000143051147,learn,35024.99985694885,Mon Jan 27 2025 18:06:48 GMT-0600 (Central Standard Time),509297.80000000075,A,cloc,O,c,220,1,2282.10000000149,507015.69999999925,7041,WL,B,11.0
4,25.159000158309937,learn,34840.99984169006,Mon Jan 27 2025 18:06:48 GMT-0600 (Central Standard Time),509481.19999999925,A,clock,O,k,171,1,2465.5,507015.69999999925,7041,WL,B,11.0
4,25.659000158309937,learn,34340.99984169006,Mon Jan 27 2025 18:06:48 GMT-0600 (Central Standard Time),509981.19999999925,A,clockenter,O,enter,476,1,2965.5,507015.69999999925,7041,WL,B,11.0
4,29.157000064849854,learn,30842.999935150146,Mon Jan 27 2025 18:06:48 GMT-0600 (Central Standard Time),513479.69999999925,A,c,O,c,3488,1,3498.10000000149,509981.59999999776,7041,WL,B,12.0
4,29.44000005722046,learn,30559.99994277954,Mon Jan 27 2025 18:06:48 GMT-0600 (Central Standard Time),513763.0,A,ca,O,a,269,1,3781.400000002235,509981.59999999776,7041,WL,B,12.0
4,29.657000064849854,learn,30342.999935150146,Mon Jan 27 2025 18:06:48 GMT-0600 (Central Standard Time),513979.69999999925,A,cab,O,b,194,1,3998.10000000149,509981.59999999776,7041,WL,B,12.0
4,29.874000072479248,learn,30125.999927520752,Mon Jan 27 2025 18:06:48 GMT-0600 (Central Standard Time),514196.30000000075,A,cabi,O,i,201,1,4214.70000000298,509981.59999999776,7041,WL,B,12.0
4,30.10700011253357,learn,29892.99988746643,Mon Jan 27 2025 18:06:48 GMT-0600 (Central Standard Time),514429.3999999985,A,cabin,O,n,225,1,4447.800000000745,509981.59999999776,7041,WL,B,12.0
4,30.574000120162964,learn,29425.999879837036,Mon Jan 27 2025 18:06:48 GMT-0600 (Central Standard Time),514896.19999999925,A,cabinenter,O,enter,447,1,4914.60000000149,509981.59999999776,7041,WL,B,12.0
4,33.18900012969971,learn,26810.999870300293,Mon Jan 27 2025 18:06:48 GMT-0600 (Central Standard Time),517511.8999999985,A,l,O,l,2605,1,2615.39999999851,514896.5,7041,WL,B,13.0
4,33.35599994659424,learn,26644.00005340576,Mon Jan 27 2025 18:06:48 GMT-0600 (Central Standard Time),517678.5,A,la,O,a,149,1,2782.0,514896.5,7041,WL,B,13.0
4,33.57299995422363,learn,26427.000045776367,Mon Jan 27 2025 18:06:48 GMT-0600 (Central Standard Time),517895.19999999925,A,lak,O,k,198,1,2998.699999999255,514896.5,7041,WL,B,13.0
4,33.73900008201599,learn,26260.99991798401,Mon Jan 27 2025 18:06:48 GMT-0600 (Central Standard Time),518061.69999999925,A,lake,O,e,158,1,3165.199999999255,514896.5,7041,WL,B,13.0
4,33.97200012207031,learn,26027.999877929688,Mon Jan 27 2025 18:06:48 GMT-0600 (Central Standard Time),518294.8999999985,A,lakeenter,O,enter,223,1,3398.39999999851,514896.5,7041,WL,B,13.0
4,35.454999923706055,learn,24545.000076293945,Mon Jan 27 2025 18:06:48 GMT-0600 (Central Standard Time),519777.8999999985,A,s,O,s,1462,1,1482.699999999255,518295.19999999925,7041,WL,B,14.0
4,35.621999979019165,learn,24378.000020980835,Mon Jan 27 2025 18:06:48 GMT-0600 (Central Standard Time),519944.5,A,sk,O,k,147,1,1649.300000000745,518295.19999999925,7041,WL,B,14.0
4,35.83899998664856,learn,24161.00001335144,Mon Jan 27 2025 18:06:48 GMT-0600 (Central Standard Time),520161.09999999776,A,ski,O,i,204,1,1865.8999999985099,518295.19999999925,7041,WL,B,14.0
4,36.0220000743866,learn,23977.999925613403,Mon Jan 27 2025 18:06:48 GMT-0600 (Central Standard Time),520344.19999999925,A,skin,O,n,163,1,2049.0,518295.19999999925,7041,WL,B,14.0
4,36.38800001144409,learn,23611.99998855591,Mon Jan 27 2025 18:06:48 GMT-0600 (Central Standard Time),520710.8999999985,A,skinenter,O,enter,356,1,2415.699999999255,518295.19999999925,7041,WL,B,14.0
4,37.521000146865845,learn,22478.999853134155,Mon Jan 27 2025 18:06:48 GMT-0600 (Central Standard Time),521843.69999999925,A,enter,O,enter,1110,1,1132.5,520711.19999999925,7041,WL,B,15.0
5,1.1000001430511475,learn,60000.0,Mon Jan 27 2025 18:06:48 GMT-0600 (Central Standard Time),590039.5,A,s,O,s,1090,1,1099.9000000022352,588939.5999999978,7041,WL,B,1.0
5,1.5500001907348633,learn,60000.0,Mon Jan 27 2025 18:06:48 GMT-0600 (Central Standard Time),590489.1999999993,A,st,O,t,437,1,1549.6000000014901,588939.5999999978,7041,WL,B,1.0
5,1.8500001430511475,learn,60000.0,Mon Jan 27 2025 18:06:48 GMT-0600 (Central Standard Time),590789.0,A,str,O,r,284,1,1849.4000000022352,588939.5999999978,7041,WL,B,1.0
5,2.067000150680542,learn,60000.0,Mon Jan 27 2025 18:06:48 GMT-0600 (Central Standard Time),591005.8999999985,A,stre,O,e,200,1,2066.300000000745,588939.5999999978,7041,WL,B,1.0
5,2.3500001430511475,learn,60000.0,Mon Jan 27 2025 18:06:48 GMT-0600 (Central Standard Time),591289.0,A,stree,O,e,271,1,2349.400000002235,588939.5999999978,7041,WL,B,1.0
5,2.633000135421753,learn,60000.0,Mon Jan 27 2025 18:06:48 GMT-0600 (Central Standard Time),591572.0,A,street,O,t,259,1,2632.400000002235,588939.5999999978,7041,WL,B,1.0
5,3.565999984741211,learn,60000.0,Mon Jan 27 2025 18:06:48 GMT-0600 (Central Standard Time),592505.0999999978,A,streetenter,O,enter,921,1,3565.5,588939.5999999978,7041,WL,B,1.0
5,4.815999984741211,learn,60000.0,Mon Jan 27 2025 18:06:48 GMT-0600 (Central Standard Time),593754.8000000007,A,g,O,g,1236,1,1249.300000000745,592505.5,7041,WL,B,2.0
5,5.232000112533569,learn,60000.0,Mon Jan 27 2025 18:06:48 GMT-0600 (Central Standard Time),594171.3999999985,A,gr,O,r,402,1,1665.8999999985099,592505.5,7041,WL,B,2.0
5,5.499000072479248,learn,60000.0,Mon Jan 27 2025 18:06:48 GMT-0600 (Central Standard Time),594437.8999999985,A,gra,O,a,258,1,1932.3999999985099,592505.5,7041,WL,B,2.0
5,5.800000190734863,learn,60000.0,Mon Jan 27 2025 18:06:48 GMT-0600 (Central Standard Time),594739.0,A,gras,O,s,279,1,2233.5,592505.5,7041,WL,B,2.0
5,6.049000024795532,learn,60000.0,Mon Jan 27 2025 18:06:48 GMT-0600 (Central Standard Time),594987.5999999978,A,grass,O,s,226,1,2482.099999997765,592505.5,7041,WL,B,2.0
5,6.249000072479248,learn,60000.0,Mon Jan 27 2025 18:06:48 GMT-0600 (Central Standard Time),595187.8000000007,A,grassenter,O,enter,178,1,2682.300000000745,592505.5,7041,WL,B,2.0
5,7.215000152587891,learn,60000.0,Mon Jan 27 2025 18:06:48 GMT-0600 (Central Standard Time),596154.1999999993,A,d,O,d,953,1,966.1000000014901,595188.0999999978,7041,WL,B,3.0
5,7.482000112533569,learn,60000.0,Mon Jan 27 2025 18:06:48 GMT-0600 (Central Standard Time),596420.5,A,do,O,o,251,1,1232.4000000022352,595188.0999999978,7041,WL,B,3.0
5,7.6650002002716064,learn,60000.0,Mon Jan 27 2025 18:06:48 GMT-0600 (Central Standard Time),596603.6999999993,A,doo,O,o,160,1,1415.6000000014901,595188.0999999978,7041,WL,B,3.0
5,7.79800009727478,learn,60000.0,Mon Jan 27 2025 18:06:48 GMT-0600 (Central Standard Time),596737.0,A,door,O,r,113,1,1548.9000000022352,595188.0999999978,7041,WL,B,3.0
5,8.081000089645386,learn,60000.0,Mon Jan 27 2025 18:06:48 GMT-0600 (Central Standard Time),597020.3000000007,A,doorenter,O,enter,259,1,1832.2000000029802,595188.0999999978,7041,WL,B,3.0
5,8.498000144958496,learn,60000.0,Mon Jan 27 2025 18:06:48 GMT-0600 (Central Standard Time),597437.0,A,a,O,a,393,1,416.30000000074506,597020.6999999993,7041,WL,B,4.0
5,8.79800009727478,learn,60000.0,Mon Jan 27 2025 18:06:48 GMT-0600 (Central Standard Time),597736.8000000007,A,ar,O,r,287,1,716.1000000014901,597020.6999999993,7041,WL,B,4.0
5,9.04800009727478,learn,60000.0,Mon Jan 27 2025 18:06:48 GMT-0600 (Central Standard Time),597986.8000000007,A,arm,O,m,229,1,966.1000000014901,597020.6999999993,7041,WL,B,4.0
5,9.46399998664856,learn,60000.0,Mon Jan 27 2025 18:06:48 GMT-0600 (Central Standard Time),598403.3000000007,A,armenter,O,enter,394,1,1382.6000000014901,597020.6999999993,7041,WL,B,4.0
5,10.580000162124634,learn,60000.0,Mon Jan 27 2025 18:06:48 GMT-0600 (Central Standard Time),599519.5999999978,A,s,O,s,1098,1,1116.0,598403.5999999978,7041,WL,B,5.0
5,10.913000106811523,learn,60000.0,Mon Jan 27 2025 18:06:48 GMT-0600 (Central Standard Time),599853.0,A,st,O,t,309,1,1449.4000000022352,598403.5999999978,7041,WL,B,5.0
5,11.19700002670288,learn,60000.0,Mon Jan 27 2025 18:06:48 GMT-0600 (Central Standard Time),600136.1999999993,A,sta,O,a,272,1,1732.6000000014901,598403.5999999978,7041,WL,B,5.0
5,11.263000011444092,learn,60000.0,Mon Jan 27 2025 18:06:48 GMT-0600 (Central Standard Time),600202.8000000007,A,stas,O,s,52,1,1799.2000000029802,598403.5999999978,7041,WL,B,5.0
5,11.330000162124634,learn,60000.0,Mon Jan 27 2025 18:06:48 GMT-0600 (Central Standard Time),600269.3999999985,A,stasr,O,r,51,1,1865.800000000745,598403.5999999978,7041,WL,B,5.0
5,12.11300015449524,learn,60000.0,Mon Jan 27 2025 18:06:48 GMT-0600 (Central Standard Time),601052.5,A,stasrenter,O,enter,759,1,2648.900000002235,598403.5999999978,7041,WL,B,5.0
5,13.463000059127808,learn,60000.0,Mon Jan 27 2025 18:06:48 GMT-0600 (Central Standard Time),602402.0999999978,A,w,O,w,1336,1,1349.199999999255,601052.8999999985,7041,WL,B,6.0
5,13.879000186920166,learn,60000.0,Mon Jan 27 2025 18:06:48 GMT-0600 (Central Standard Time),602818.5999999978,A,wi,O,i,395,1,1765.699999999255,601052.8999999985,7041,WL,B,6.0
5,14.029000043869019,learn,60000.0,Mon Jan 27 2025 18:06:48 GMT-0600 (Central Standard Time),602968.5999999978,A,wif,O,f,138,1,1915.699999999255,601052.8999999985,7041,WL,B,6.0
5,14.379000186920166,learn,60000.0,Mon Jan 27 2025 18:06:48 GMT-0600 (Central Standard Time),603318.3000000007,A,wife,O,e,332,1,2265.400000002235,601052.8999999985,7041,WL,B,6.0
5,14.61300015449524,learn,60000.0,Mon Jan 27 2025 18:06:48 GMT-0600 (Central Standard Time),603552.8000000007,A,wifeenter,O,enter,222,1,2499.900000002235,601052.8999999985,7041,WL,B,6.0
5,15.09500002861023,learn,60000.0,Mon Jan 27 2025 18:06:48 GMT-0600 (Central Standard Time),604034.8999999985,A,w,O,w,468,1,481.8999999985099,603553.0,7041,WL,B,7.0
5,15.295000076293945,learn,60000.0,Mon Jan 27 2025 18:06:48 GMT-0600 (Central Standard Time),604234.6999999993,A,wi,O,i,178,1,681.6999999992549,603553.0,7041,WL,B,7.0
5,15.445000171661377,learn,60000.0,Mon Jan 27 2025 18:06:48 GMT-0600 (Central Standard Time),604384.8000000007,A,win,O,n,138,1,831.8000000007451,603553.0,7041,WL,B,7.0
5,15.695000171661377,learn,60000.0,Mon Jan 27 2025 18:06:48 GMT-0600 (Central Standard Time),604634.5,A,wind,O,d,228,1,1081.5,603553.0,7041,WL,B,7.0
5,15.828999996185303,learn,60000.0,Mon Jan 27 2025 18:06:48 GMT-0600 (Central Standard Time),604768.0999999978,A,windo,O,o,122,1,1215.0999999977648,603553.0,7041,WL,B,7.0
5,16.028000116348267,learn,60000.0,Mon Jan 27 2025 18:06:48 GMT-0600 (Central Standard Time),604968.0,A,window,O,w,181,1,1415.0,603553.0,7041,WL,B,7.0
5,16.4280002117157,learn,60000.0,Mon Jan 27 2025 18:06:48 GMT-0600 (Central Standard Time),605367.6999999993,A,windowenter,O,enter,388,1,1814.699999999255,603553.0,7041,WL,B,7.0
5,17.1780002117157,learn,60000.0,Mon Jan 27 2025 18:06:48 GMT-0600 (Central Standard Time),606117.5,A,l,O,l,734,1,749.4000000022352,605368.0999999978,7041,WL,B,8.0
5,17.34500002861023,learn,60000.0,Mon Jan 27 2025 18:06:48 GMT-0600 (Central Standard Time),606284.1999999993,A,la,O,a,143,1,916.1000000014901,605368.0999999978,7041,WL,B,8.0
5,17.64400005340576,learn,60000.0,Mon Jan 27 2025 18:06:48 GMT-0600 (Central Standard Time),606583.8999999985,A,lak,O,k,288,1,1215.800000000745,605368.0999999978,7041,WL,B,8.0
5,17.811000108718872,learn,60000.0,Mon Jan 27 2025 18:06:48 GMT-0600 (Central Standard Time),606750.6999999993,A,lake,O,e,157,1,1382.6000000014901,605368.0999999978,7041,WL,B,8.0
5,19.777000188827515,learn,60000.0,Mon Jan 27 2025 18:06:48 GMT-0600 (Central Standard Time),608716.8999999985,A,lakeenter,O,enter,1950,1,3348.800000000745,605368.0999999978,7041,WL,B,8.0
5,20.277000188827515,learn,60000.0,Mon Jan 27 2025 18:06:48 GMT-0600 (Central Standard Time),609216.6999999993,A,p,O,p,480,1,499.5,608717.1999999993,7041,WL,B,9.0
5,20.777000188827515,learn,60000.0,Mon Jan 27 2025 18:06:48 GMT-0600 (Central Standard Time),609716.5,A,pu,O,u,476,1,999.3000000007451,608717.1999999993,7041,WL,B,9.0
5,21.06000018119812,learn,60000.0,Mon Jan 27 2025 18:06:48 GMT-0600 (Central Standard Time),609999.5999999978,A,pup,O,p,272,1,1282.3999999985099,608717.1999999993,7041,WL,B,9.0
5,21.5770001411438,learn,60000.0,Mon Jan 27 2025 18:06:48 GMT-0600 (Central Standard Time),610516.3000000007,A,pupi,O,i,493,1,1799.1000000014901,608717.1999999993,7041,WL,B,9.0
5,21.81000018119812,learn,60000.0,Mon Jan 27 2025 18:06:48 GMT-0600 (Central Standard Time),610749.3000000007,A,pupil,O,l,225,1,2032.1000000014901,608717.1999999993,7041,WL,B,9.0
5,22.593000173568726,learn,60000.0,Mon Jan 27 2025 18:06:48 GMT-0600 (Central Standard Time),611532.6999999993,A,pupilenter,O,enter,760,1,2815.5,608717.1999999993,7041,WL,B,9.0
5,23.14300012588501,learn,60000.0,Mon Jan 27 2025 18:06:48 GMT-0600 (Central Standard Time),612082.3999999985,A,c,O,c,529,1,549.5,611532.8999999985,7041,WL,B,10.0
5,23.326000213623047,learn,60000.0,Mon Jan 27 2025 18:06:48 GMT-0600 (Central Standard Time),612265.5999999978,A,ci,O,i,163,1,732.6999999992549,611532.8999999985,7041,WL,B,10.0
5,23.54300022125244,learn,60000.0,Mon Jan 27 2025 18:06:48 GMT-0600 (Central Standard Time),612482.1999999993,A,cit,O,t,204,1,949.3000000007451,611532.8999999985,7041,WL,B,10.0
5,23.70900011062622,learn,60000.0,Mon Jan 27 2025 18:06:48 GMT-0600 (Central Standard Time),612648.8000000007,A,city,O,y,155,1,1115.9000000022352,611532.8999999985,7041,WL,B,10.0
5,24.384999990463257,learn,60000.0,Mon Jan 27 2025 18:06:48 GMT-0600 (Central Standard Time),613324.6999999993,A,cityenter,O,enter,668,1,1791.800000000745,611532.8999999985,7041,WL,B,10.0
5,24.70900011062622,learn,60000.0,Mon Jan 27 2025 18:06:48 GMT-0600 (Central Standard Time),613648.5,A,c,O,c,310,1,323.6000000014901,613324.8999999985,7041,WL,B,11.0
5,24.9760000705719,learn,60000.0,Mon Jan 27 2025 18:06:48 GMT-0600 (Central Standard Time),613915.0,A,ca,O,a,252,1,590.1000000014901,613324.8999999985,7041,WL,B,11.0
5,25.142000198364258,learn,60000.0,Mon Jan 27 2025 18:06:48 GMT-0600 (Central Standard Time),614081.6999999993,A,cab,O,b,146,1,756.8000000007451,613324.8999999985,7041,WL,B,11.0
5,25.392000198364258,learn,60000.0,Mon Jan 27 2025 18:06:48 GMT-0600 (Central Standard Time),614331.5999999978,A,cabi,O,i,235,1,1006.6999999992549,613324.8999999985,7041,WL,B,11.0
5,25.55900001525879,learn,60000.0,Mon Jan 27 2025 18:06:48 GMT-0600 (Central Standard Time),614498.3999999985,A,cabin,O,n,153,1,1173.5,613324.8999999985,7041,WL,B,11.0
5,26.359000205993652,learn,60000.0,Mon Jan 27 2025 18:06:48 GMT-0600 (Central Standard Time),615298.0,A,cabinenter,O,enter,778,1,1973.1000000014901,613324.8999999985,7041,WL,B,11.0
5,26.60800004005432,learn,60000.0,Mon Jan 27 2025 18:06:48 GMT-0600 (Central Standard Time),615547.8000000007,A,s,O,s,235,1,249.40000000223517,615298.3999999985,7041,WL,B,12.0
5,28.675000190734863,learn,60000.0,Mon Jan 27 2025 18:06:48 GMT-0600 (Central Standard Time),617614.0999999978,A,sk,O,k,2049,1,2315.699999999255,615298.3999999985,7041,WL,B,12.0
5,28.874000072479248,learn,60000.0,Mon Jan 27 2025 18:06:48 GMT-0600 (Central Standard Time),617814.0,A,ski,O,i,182,1,2515.60000000149,615298.3999999985,7041,WL,B,12.0
5,29.04100012779236,learn,60000.0,Mon Jan 27 2025 18:06:48 GMT-0600 (Central Standard Time),617980.3999999985,A,skin,O,n,143,1,2682.0,615298.3999999985,7041,WL,B,12.0
5,29.491000175476074,learn,60000.0,Mon Jan 27 2025 18:06:48 GMT-0600 (Central Standard Time),618430.0999999978,A,skinenter,O,enter,441,1,3131.699999999255,615298.3999999985,7041,WL,B,12.0
5,29.890000104904175,learn,60000.0,Mon Jan 27 2025 18:06:48 GMT-0600 (Central Standard Time),618830.0,A,f,O,f,383,1,399.69999999925494,618430.3000000007,7041,WL,B,13.0
5,30.174000024795532,learn,60000.0,Mon Jan 27 2025 18:06:48 GMT-0600 (Central Standard Time),619113.5,A,fi,O,i,271,1,683.1999999992549,618430.3000000007,7041,WL,B,13.0
5,30.324000120162964,learn,60000.0,Mon Jan 27 2025 18:06:48 GMT-0600 (Central Standard Time),619263.3000000007,A,fir,O,r,131,1,833.0,618430.3000000007,7041,WL,B,13.0
5,30.507000207901,learn,60000.0,Mon Jan 27 2025 18:06:48 GMT-0600 (Central Standard Time),619446.6999999993,A,fire,O,e,165,1,1016.3999999985099,618430.3000000007,7041,WL,B,13.0
5,30.841000080108643,learn,60000.0,Mon Jan 27 2025 18:06:48 GMT-0600 (Central Standard Time),619780.0999999978,A,fireenter,O,enter,310,1,1349.7999999970198,618430.3000000007,7041,WL,B,13.0
5,32.24000000953674,learn,60000.0,Mon Jan 27 2025 18:06:48 GMT-0600 (Central Standard Time),621179.3000000007,A,p,O,p,1384,1,1398.9000000022352,619780.3999999985,7041,WL,B,14.0
5,32.540000200271606,learn,60000.0,Mon Jan 27 2025 18:06:48 GMT-0600 (Central Standard Time),621479.3999999985,A,pi,O,i,281,1,1699.0,619780.3999999985,7041,WL,B,14.0
5,32.74000000953674,learn,60000.0,Mon Jan 27 2025 18:06:48 GMT-0600 (Central Standard Time),621679.3000000007,A,pip,O,p,190,1,1898.9000000022352,619780.3999999985,7041,WL,B,14.0
5,32.956000089645386,learn,60000.0,Mon Jan 27 2025 18:06:48 GMT-0600 (Central Standard Time),621895.8999999985,A,pipe,O,e,206,1,2115.5,619780.3999999985,7041,WL,B,14.0
5,33.68900012969971,learn,60000.0,Mon Jan 27 2025 18:06:48 GMT-0600 (Central Standard Time),622628.8000000007,A,pipeenter,O,enter,725,1,2848.400000002235,619780.3999999985,7041,WL,B,14.0
5,39.33800005912781,learn,60000.0,Mon Jan 27 2025 18:06:48 GMT-0600 (Central Standard Time),628277.0,A,enter,O,enter,5641,1,5648.0,622629.0,7041,WL,B,15.0
6,1.1990001201629639,distr,58800.999879837036,Mon Jan 27 2025 18:06:48 GMT-0600 (Central Standard Time),706019.8000000007,B,b,O,b,1176,1,1198.6000000014901,704821.1999999993,7041,WL,B,1.0
6,1.3650000095367432,distr,58634.99999046326,Mon Jan 27 2025 18:06:48 GMT-0600 (Central Standard Time),706186.3999999985,B,ba,O,a,152,1,1365.199999999255,704821.1999999993,7041,WL,B,1.0
6,1.5820000171661377,distr,58417.99998283386,Mon Jan 27 2025 18:06:48 GMT-0600 (Central Standard Time),706402.5999999978,B,bab,O,b,195,1,1581.3999999985099,704821.1999999993,7041,WL,B,1.0
6,1.9479999542236328,distr,58052.00004577637,Mon Jan 27 2025 18:06:48 GMT-0600 (Central Standard Time),706769.3999999985,B,baby,O,y,355,1,1948.199999999255,704821.1999999993,7041,WL,B,1.0
6,2.697999954223633,distr,57302.00004577637,Mon Jan 27 2025 18:06:48 GMT-0600 (Central Standard Time),707519.1999999993,B,babyenter,O,enter,734,1,2698.0,704821.1999999993,7041,WL,B,1.0
6,3.248000144958496,distr,56751.999855041504,Mon Jan 27 2025 18:06:48 GMT-0600 (Central Standard Time),708069.0999999978,B,o,O,o,525,1,549.5999999977648,707519.5,7041,WL,B,2.0
6,3.5310001373291016,distr,56468.9998626709,Mon Jan 27 2025 18:06:48 GMT-0600 (Central Standard Time),708352.3000000007,B,oc,O,c,264,1,832.8000000007451,707519.5,7041,WL,B,2.0
6,3.814000129699707,distr,56185.99987030029,Mon Jan 27 2025 18:06:48 GMT-0600 (Central Standard Time),708635.3999999985,B,oce,O,e,268,1,1115.8999999985099,707519.5,7041,WL,B,2.0
6,4.114000082015991,distr,55885.99991798401,Mon Jan 27 2025 18:06:48 GMT-0600 (Central Standard Time),708935.3999999985,B,ocea,O,a,289,1,1415.8999999985099,707519.5,7041,WL,B,2.0
6,4.281000137329102,distr,55718.9998626709,Mon Jan 27 2025 18:06:48 GMT-0600 (Central Standard Time),709102.0999999978,B,ocean,O,n,149,1,1582.5999999977648,707519.5,7041,WL,B,2.0
6,4.697999954223633,distr,55302.00004577637,Mon Jan 27 2025 18:06:48 GMT-0600 (Central Standard Time),709518.5,B,oceanenter,O,enter,407,1,1999.0,707519.5,7041,WL,B,2.0
6,5.264000177383423,distr,54735.99982261658,Mon Jan 27 2025 18:06:48 GMT-0600 (Central Standard Time),710084.8999999985,B,p,O,p,559,1,566.0999999977648,709518.8000000007,7041,WL,B,3.0
6,5.414000034332275,distr,54585.999965667725,Mon Jan 27 2025 18:06:48 GMT-0600 (Central Standard Time),710234.8999999985,B,pa,O,a,129,1,716.0999999977648,709518.8000000007,7041,WL,B,3.0
6,5.680000066757202,distr,54319.9999332428,Mon Jan 27 2025 18:06:48 GMT-0600 (Central Standard Time),710501.3000000007,B,pal,O,l,258,1,982.5,709518.8000000007,7041,WL,B,3.0
6,5.864000082015991,distr,54135.99991798401,Mon Jan 27 2025 18:06:48 GMT-0600 (Central Standard Time),710684.8999999985,B,pala,O,a,168,1,1166.0999999977648,709518.8000000007,7041,WL,B,3.0
6,6.330000162124634,distr,53669.999837875366,Mon Jan 27 2025 18:06:48 GMT-0600 (Central Standard Time),711151.1999999993,B,palac,O,c,456,1,1632.3999999985099,709518.8000000007,7041,WL,B,3.0
6,6.680000066757202,distr,53319.9999332428,Mon Jan 27 2025 18:06:48 GMT-0600 (Central Standard Time),711501.0,B,palace,O,e,342,1,1982.199999999255,709518.8000000007,7041,WL,B,3.0
6,7.0299999713897705,distr,52970.00002861023,Mon Jan 27 2025 18:06:48 GMT-0600 (Central Standard Time),711851.3999999985,B,palaceenter,O,enter,328,1,2332.599999997765,709518.8000000007,7041,WL,B,3.0
6,8.413000106811523,distr,51586.99989318848,Mon Jan 27 2025 18:06:48 GMT-0600 (Central Standard Time),713234.0,B,b,O,b,1369,1,1382.300000000745,711851.6999999993,7041,WL,B,4.0
6,8.562999963760376,distr,51437.000036239624,Mon Jan 27 2025 18:06:48 GMT-0600 (Central Standard Time),713383.8999999985,B,ba,O,a,131,1,1532.199999999255,711851.6999999993,7041,WL,B,4.0
6,8.963000059127808,distr,51036.99994087219,Mon Jan 27 2025 18:06:48 GMT-0600 (Central Standard Time),713783.8000000007,B,bay,O,y,389,1,1932.1000000014901,711851.6999999993,7041,WL,B,4.0
6,9.529000043869019,distr,50470.99995613098,Mon Jan 27 2025 18:06:48 GMT-0600 (Central Standard Time),714350.3999999985,B,ba,O,backspace,558,1,2498.699999999255,711851.6999999993,7041,WL,B,4.0
6,10.029000043869019,distr,49970.99995613098,Mon Jan 27 2025 18:06:48 GMT-0600 (Central Standard Time),714850.3000000007,B,bab,O,b,487,1,2998.60000000149,711851.6999999993,7041,WL,B,4.0
6,10.396000146865845,distr,49603.999853134155,Mon Jan 27 2025 18:06:48 GMT-0600 (Central Standard Time),715217.0,B,baby,O,y,355,1,3365.300000000745,711851.6999999993,7041,WL,B,4.0
6,11.42900013923645,distr,48570.99986076355,Mon Jan 27 2025 18:06:48 GMT-0600 (Central Standard Time),716249.6999999993,B,babyenter,O,enter,1012,1,4398.0,711851.6999999993,7041,WL,B,4.0
6,13.561000108718872,distr,46438.99989128113,Mon Jan 27 2025 18:06:48 GMT-0600 (Central Standard Time),718382.3999999985,B,s,O,s,2123,1,2132.300000000745,716250.0999999978,7041,WL,B,5.0
6,13.976999998092651,distr,46023.00000190735,Mon Jan 27 2025 18:06:48 GMT-0600 (Central Standard Time),718798.8999999985,B,st,O,t,398,1,2548.800000000745,716250.0999999978,7041,WL,B,5.0
6,14.194000005722046,distr,45805.999994277954,Mon Jan 27 2025 18:06:48 GMT-0600 (Central Standard Time),719015.5,B,sto,O,o,199,1,2765.400000002235,716250.0999999978,7041,WL,B,5.0
6,14.394000053405762,distr,45605.99994659424,Mon Jan 27 2025 18:06:48 GMT-0600 (Central Standard Time),719215.5,B,stor,O,r,182,1,2965.400000002235,716250.0999999978,7041,WL,B,5.0
6,14.827000141143799,distr,45172.9998588562,Mon Jan 27 2025 18:06:48 GMT-0600 (Central Standard Time),719648.8000000007,B,storm,O,m,421,1,3398.7000000029802,716250.0999999978,7041,WL,B,5.0
6,15.460999965667725,distr,44539.000034332275,Mon Jan 27 2025 18:06:48 GMT-0600 (Central Standard Time),720282.0,B,stormenter,O,enter,620,1,4031.900000002235,716250.0999999978,7041,WL,B,5.0
6,15.944000005722046,distr,44055.999994277954,Mon Jan 27 2025 18:06:48 GMT-0600 (Central Standard Time),720765.0999999978,B,c,O,c,466,1,482.79999999701977,720282.3000000007,7041,WL,B,6.0
6,16.259999990463257,distr,43740.00000953674,Mon Jan 27 2025 18:06:48 GMT-0600 (Central Standard Time),721081.5999999978,B,ce,O,e,304,1,799.2999999970198,720282.3000000007,7041,WL,B,6.0
6,16.427000045776367,distr,43572.99995422363,Mon Jan 27 2025 18:06:48 GMT-0600 (Central Standard Time),721248.0999999978,B,cel,O,l,147,1,965.7999999970198,720282.3000000007,7041,WL,B,6.0
6,16.610000133514404,distr,43389.999866485596,Mon Jan 27 2025 18:06:48 GMT-0600 (Central Standard Time),721431.3999999985,B,cell,O,l,164,1,1149.0999999977648,720282.3000000007,7041,WL,B,6.0
6,17.0770001411438,distr,42922.9998588562,Mon Jan 27 2025 18:06:48 GMT-0600 (Central Standard Time),721898.0999999978,B,cellenter,O,enter,445,1,1615.7999999970198,720282.3000000007,7041,WL,B,6.0
6,29.50600004196167,distr,30493.99995803833,Mon Jan 27 2025 18:06:48 GMT-0600 (Central Standard Time),734327.5,B,c,O,c,12419,1,12429.0,721898.5,7041,WL,B,7.0
6,29.822999954223633,distr,30177.000045776367,Mon Jan 27 2025 18:06:48 GMT-0600 (Central Standard Time),734644.0,B,co,O,o,300,1,12745.5,721898.5,7041,WL,B,7.0
6,29.972000122070312,distr,30027.999877929688,Mon Jan 27 2025 18:06:48 GMT-0600 (Central Standard Time),734793.8000000007,B,coi,O,i,137,1,12895.300000000745,721898.5,7041,WL,B,7.0
6,30.305999994277954,distr,29694.000005722046,Mon Jan 27 2025 18:06:48 GMT-0600 (Central Standard Time),735127.1999999993,B,coin,O,n,324,1,13228.699999999255,721898.5,7041,WL,B,7.0
6,30.32200002670288,distr,29677.99997329712,Mon Jan 27 2025 18:06:48 GMT-0600 (Central Standard Time),735143.8999999985,B,coinb,O,b,1,1,13245.39999999851,721898.5,7041,WL,B,7.0
6,31.48900008201599,distr,28510.99991798401,Mon Jan 27 2025 18:06:48 GMT-0600 (Central Standard Time),736310.1999999993,B,coin,O,backspace,1158,1,14411.699999999255,721898.5,7041,WL,B,7.0
6,32.121999979019165,distr,27878.000020980835,Mon Jan 27 2025 18:06:48 GMT-0600 (Central Standard Time),736943.0,B,coinenter,O,enter,623,1,15044.5,721898.5,7041,WL,B,7.0
6,37.62000012397766,distr,22379.99987602234,Mon Jan 27 2025 18:06:48 GMT-0600 (Central Standard Time),742441.6999999993,B,enter,O,enter,5479,1,5498.39999999851,736943.3000000007,7041,WL,B,8.0
6,38.003000020980835,distr,21996.999979019165,Mon Jan 27 2025 18:06:48 GMT-0600 (Central Standard Time),742824.8000000007,B,enter,O,enter,371,1,382.70000000298023,742442.0999999978,7041,WL,B,9.0
6,38.30299997329712,distr,21697.00002670288,Mon Jan 27 2025 18:06:48 GMT-0600 (Central Standard Time),743124.6999999993,B,enter,O,enter,293,1,299.5,742825.1999999993,7041,WL,B,10.0
6,38.57000017166138,distr,21429.999828338623,Mon Jan 27 2025 18:06:48 GMT-0600 (Central Standard Time),743391.5,B,enter,O,enter,249,1,266.5,743125.0,7041,WL,B,11.0
6,38.80299997329712,distr,21197.00002670288,Mon Jan 27 2025 18:06:48 GMT-0600 (Central Standard Time),743624.3000000007,B,enter,O,enter,222,1,232.40000000223517,743391.8999999985,7041,WL,B,12.0
6,39.03600001335144,distr,20963.99998664856,Mon Jan 27 2025 18:06:48 GMT-0600 (Central Standard Time),743857.3999999985,B,enter,O,enter,213,1,232.69999999925494,743624.6999999993,7041,WL,B,13.0
6,39.68600010871887,distr,20313.999891281128,Mon Jan 27 2025 18:06:48 GMT-0600 (Central Standard Time),744507.5,B,enter,O,enter,627,1,649.8000000007451,743857.6999999993,7041,WL,B,14.0
6,40.32100009918213,distr,19678.99990081787,Mon Jan 27 2025 18:06:48 GMT-0600 (Central Standard Time),745141.8999999985,B,enter,O,enter,617,1,634.0,744507.8999999985,7041,WL,B,15.0
7,2.815999984741211,immed,57184.00001525879,Mon Jan 27 2025 18:06:48 GMT-0600 (Central Standard Time),760152.6999999993,A,s,O,s,2804,1,2815.60000000149,757337.0999999978,7041,WL,B,1.0
7,3.2159998416900635,immed,56784.00015830994,Mon Jan 27 2025 18:06:48 GMT-0600 (Central Standard Time),760552.5,A,st,O,t,380,1,3215.400000002235,757337.0999999978,7041,WL,B,1.0
7,3.4830000400543213,immed,56516.99995994568,Mon Jan 27 2025 18:06:48 GMT-0600 (Central Standard Time),760819.3999999985,A,str,O,r,244,1,3482.300000000745,757337.0999999978,7041,WL,B,1.0
7,3.749000072479248,immed,56250.99992752075,Mon Jan 27 2025 18:06:48 GMT-0600 (Central Standard Time),761085.6999999993,A,stre,O,e,258,1,3748.60000000149,757337.0999999978,7041,WL,B,1.0
7,3.9659998416900635,immed,56034.00015830994,Mon Jan 27 2025 18:06:48 GMT-0600 (Central Standard Time),761302.3999999985,A,stree,O,e,207,1,3965.300000000745,757337.0999999978,7041,WL,B,1.0
7,4.198999881744385,immed,55801.000118255615,Mon Jan 27 2025 18:06:48 GMT-0600 (Central Standard Time),761535.5,A,street,O,t,215,1,4198.400000002235,757337.0999999978,7041,WL,B,1.0
7,4.5320000648498535,immed,55467.99993515015,Mon Jan 27 2025 18:06:48 GMT-0600 (Central Standard Time),761868.6999999993,A,streetenter,O,enter,310,1,4531.60000000149,757337.0999999978,7041,WL,B,1.0
7,5.5320000648498535,immed,54467.99993515015,Mon Jan 27 2025 18:06:48 GMT-0600 (Central Standard Time),762868.5999999978,A,g,O,g,992,1,999.5999999977648,761869.0,7041,WL,B,2.0
7,5.815000057220459,immed,54184.99994277954,Mon Jan 27 2025 18:06:48 GMT-0600 (Central Standard Time),763151.5999999978,A,gr,O,r,265,1,1282.5999999977648,761869.0,7041,WL,B,2.0
7,6.082000017166138,immed,53917.99998283386,Mon Jan 27 2025 18:06:48 GMT-0600 (Central Standard Time),763418.3999999985,A,gra,O,a,253,1,1549.3999999985099,761869.0,7041,WL,B,2.0
7,6.381999969482422,immed,53618.00003051758,Mon Jan 27 2025 18:06:48 GMT-0600 (Central Standard Time),763718.3999999985,A,gras,O,s,291,1,1849.3999999985099,761869.0,7041,WL,B,2.0
7,6.5980000495910645,immed,53401.999950408936,Mon Jan 27 2025 18:06:48 GMT-0600 (Central Standard Time),763934.8000000007,A,grass,O,s,207,1,2065.800000000745,761869.0,7041,WL,B,2.0
7,6.797999858856201,immed,53202.0001411438,Mon Jan 27 2025 18:06:48 GMT-0600 (Central Standard Time),764134.6999999993,A,grassenter,O,enter,190,1,2265.699999999255,761869.0,7041,WL,B,2.0
7,7.315000057220459,immed,52684.99994277954,Mon Jan 27 2025 18:06:48 GMT-0600 (Central Standard Time),764651.5,A,d,O,d,503,1,516.4000000022352,764135.0999999978,7041,WL,B,3.0
7,7.549000024795532,immed,52450.99997520447,Mon Jan 27 2025 18:06:48 GMT-0600 (Central Standard Time),764885.0,A,do,O,o,224,1,749.9000000022352,764135.0999999978,7041,WL,B,3.0
7,7.730999946594238,immed,52269.00005340576,Mon Jan 27 2025 18:06:48 GMT-0600 (Central Standard Time),765067.8000000007,A,doo,O,o,160,1,932.7000000029802,764135.0999999978,7041,WL,B,3.0
7,7.88100004196167,immed,52118.99995803833,Mon Jan 27 2025 18:06:48 GMT-0600 (Central Standard Time),765217.5999999978,A,door,O,r,137,1,1082.5,764135.0999999978,7041,WL,B,3.0
7,8.197999954223633,immed,51802.00004577637,Mon Jan 27 2025 18:06:48 GMT-0600 (Central Standard Time),765534.3999999985,A,doorenter,O,enter,307,1,1399.300000000745,764135.0999999978,7041,WL,B,3.0
7,8.648000001907349,immed,51351.99999809265,Mon Jan 27 2025 18:06:48 GMT-0600 (Central Standard Time),765984.3000000007,A,a,O,a,431,1,449.6000000014901,765534.6999999993,7041,WL,B,4.0
7,8.947999954223633,immed,51052.00004577637,Mon Jan 27 2025 18:06:48 GMT-0600 (Central Standard Time),766284.0999999978,A,ar,O,r,285,1,749.3999999985099,765534.6999999993,7041,WL,B,4.0
7,9.263999938964844,immed,50736.000061035156,Mon Jan 27 2025 18:06:48 GMT-0600 (Central Standard Time),766600.5999999978,A,arm,O,m,305,1,1065.8999999985099,765534.6999999993,7041,WL,B,4.0
7,9.664000034332275,immed,50335.999965667725,Mon Jan 27 2025 18:06:48 GMT-0600 (Central Standard Time),767000.5999999978,A,armenter,O,enter,381,1,1465.8999999985099,765534.6999999993,7041,WL,B,4.0
7,9.980999946594238,immed,50019.00005340576,Mon Jan 27 2025 18:06:48 GMT-0600 (Central Standard Time),767317.1999999993,A,s,O,s,294,1,316.3999999985099,767000.8000000007,7041,WL,B,5.0
7,10.38100004196167,immed,49618.99995803833,Mon Jan 27 2025 18:06:48 GMT-0600 (Central Standard Time),767716.8999999985,A,st,O,t,391,1,716.0999999977648,767000.8000000007,7041,WL,B,5.0
7,10.680000066757202,immed,49319.9999332428,Mon Jan 27 2025 18:06:48 GMT-0600 (Central Standard Time),768016.8000000007,A,sta,O,a,280,1,1016.0,767000.8000000007,7041,WL,B,5.0
7,10.846999883651733,immed,49153.00011634827,Mon Jan 27 2025 18:06:48 GMT-0600 (Central Standard Time),768183.6999999993,A,star,O,r,148,1,1182.8999999985099,767000.8000000007,7041,WL,B,5.0
7,11.230000019073486,immed,48769.999980926514,Mon Jan 27 2025 18:06:48 GMT-0600 (Central Standard Time),768566.6999999993,A,starenter,O,enter,373,1,1565.8999999985099,767000.8000000007,7041,WL,B,5.0
7,12.062999963760376,immed,47937.000036239624,Mon Jan 27 2025 18:06:48 GMT-0600 (Central Standard Time),769399.8000000007,A,w,O,w,822,1,832.6000000014901,768567.1999999993,7041,WL,B,6.0
7,12.29699993133545,immed,47703.00006866455,Mon Jan 27 2025 18:06:48 GMT-0600 (Central Standard Time),769633.0999999978,A,wi,O,i,213,1,1065.8999999985099,768567.1999999993,7041,WL,B,6.0
7,12.513000011444092,immed,47486.99998855591,Mon Jan 27 2025 18:06:48 GMT-0600 (Central Standard Time),769849.5999999978,A,wif,O,f,204,1,1282.3999999985099,768567.1999999993,7041,WL,B,6.0
7,12.77999997138977,immed,47220.00002861023,Mon Jan 27 2025 18:06:48 GMT-0600 (Central Standard Time),770116.5,A,wife,O,e,243,1,1549.300000000745,768567.1999999993,7041,WL,B,6.0
7,12.94700002670288,immed,47052.99997329712,Mon Jan 27 2025 18:06:48 GMT-0600 (Central Standard Time),770283.1999999993,A,wifeenter,O,enter,153,1,1716.0,768567.1999999993,7041,WL,B,6.0
7,13.246000051498413,immed,46753.99994850159,Mon Jan 27 2025 18:06:48 GMT-0600 (Central Standard Time),770582.6999999993,A,w,O,w,290,1,299.1000000014901,770283.5999999978,7041,WL,B,7.0
7,13.52999997138977,immed,46470.00002861023,Mon Jan 27 2025 18:06:48 GMT-0600 (Central Standard Time),770866.0,A,wi,O,i,262,1,582.4000000022352,770283.5999999978,7041,WL,B,7.0
7,13.662999868392944,immed,46337.000131607056,Mon Jan 27 2025 18:06:48 GMT-0600 (Central Standard Time),770999.5,A,win,O,n,124,1,715.9000000022352,770283.5999999978,7041,WL,B,7.0
7,13.878999948501587,immed,46121.00005149841,Mon Jan 27 2025 18:06:48 GMT-0600 (Central Standard Time),771215.8999999985,A,wind,O,d,197,1,932.3000000007451,770283.5999999978,7041,WL,B,7.0
7,14.078999996185303,immed,45921.0000038147,Mon Jan 27 2025 18:06:48 GMT-0600 (Central Standard Time),771415.8000000007,A,windo,O,o,189,1,1132.2000000029802,770283.5999999978,7041,WL,B,7.0
7,14.312999963760376,immed,45687.000036239624,Mon Jan 27 2025 18:06:48 GMT-0600 (Central Standard Time),771649.0999999978,A,window,O,w,213,1,1365.5,770283.5999999978,7041,WL,B,7.0
7,14.728999853134155,immed,45271.000146865845,Mon Jan 27 2025 18:06:48 GMT-0600 (Central Standard Time),772065.5999999978,A,windowenter,O,enter,404,1,1782.0,770283.5999999978,7041,WL,B,7.0
7,15.328999996185303,immed,44671.0000038147,Mon Jan 27 2025 18:06:48 GMT-0600 (Central Standard Time),772665.3000000007,A,p,O,p,580,1,599.4000000022352,772065.8999999985,7041,WL,B,8.0
7,15.746000051498413,immed,44253.99994850159,Mon Jan 27 2025 18:06:48 GMT-0600 (Central Standard Time),773082.0,A,pi,O,i,403,1,1016.1000000014901,772065.8999999985,7041,WL,B,8.0
7,16.046000003814697,immed,43953.9999961853,Mon Jan 27 2025 18:06:48 GMT-0600 (Central Standard Time),773382.0,A,pip,O,p,291,1,1316.1000000014901,772065.8999999985,7041,WL,B,8.0
7,16.394999980926514,immed,43605.000019073486,Mon Jan 27 2025 18:06:48 GMT-0600 (Central Standard Time),773731.5999999978,A,pipe,O,e,335,1,1665.699999999255,772065.8999999985,7041,WL,B,8.0
7,17.144999980926514,immed,42855.000019073486,Mon Jan 27 2025 18:06:48 GMT-0600 (Central Standard Time),774481.5999999978,A,pipeenter,O,enter,729,1,2415.699999999255,772065.8999999985,7041,WL,B,8.0
7,17.694999933242798,immed,42305.0000667572,Mon Jan 27 2025 18:06:48 GMT-0600 (Central Standard Time),775031.3999999985,A,s,O,s,539,1,549.3999999985099,774482.0,7041,WL,B,9.0
7,18.26199984550476,immed,41738.00015449524,Mon Jan 27 2025 18:06:48 GMT-0600 (Central Standard Time),775597.8999999985,A,sk,O,k,557,1,1115.8999999985099,774482.0,7041,WL,B,9.0
7,18.494999885559082,immed,41505.00011444092,Mon Jan 27 2025 18:06:48 GMT-0600 (Central Standard Time),775831.0999999978,A,ski,O,i,223,1,1349.0999999977648,774482.0,7041,WL,B,9.0
7,18.64400005340576,immed,41355.99994659424,Mon Jan 27 2025 18:06:48 GMT-0600 (Central Standard Time),775980.8999999985,A,skin,O,n,142,1,1498.8999999985099,774482.0,7041,WL,B,9.0
7,19.16100001335144,immed,40838.99998664856,Mon Jan 27 2025 18:06:48 GMT-0600 (Central Standard Time),776497.5,A,skinenter,O,enter,496,1,2015.5,774482.0,7041,WL,B,9.0
7,19.74399995803833,immed,40256.00004196167,Mon Jan 27 2025 18:06:48 GMT-0600 (Central Standard Time),777080.5,A,c,O,c,564,1,582.6999999992549,776497.8000000007,7041,WL,B,10.0
7,20.060999870300293,immed,39939.00012969971,Mon Jan 27 2025 18:06:48 GMT-0600 (Central Standard Time),777397.3999999985,A,ci,O,i,301,1,899.5999999977648,776497.8000000007,7041,WL,B,10.0
7,20.276999950408936,immed,39723.000049591064,Mon Jan 27 2025 18:06:48 GMT-0600 (Central Standard Time),777613.8000000007,A,cit,O,t,200,1,1116.0,776497.8000000007,7041,WL,B,10.0
7,20.460999965667725,immed,39539.000034332275,Mon Jan 27 2025 18:06:48 GMT-0600 (Central Standard Time),777797.0999999978,A,city,O,y,160,1,1299.2999999970198,776497.8000000007,7041,WL,B,10.0
7,20.90999984741211,immed,39090.00015258789,Mon Jan 27 2025 18:06:48 GMT-0600 (Central Standard Time),778246.8000000007,A,cityenter,O,enter,432,1,1749.0,776497.8000000007,7041,WL,B,10.0
7,21.40999984741211,immed,38590.00015258789,Mon Jan 27 2025 18:06:48 GMT-0600 (Central Standard Time),778746.8000000007,A,l,O,l,484,1,499.80000000074506,778247.0,7041,WL,B,11.0
7,21.927000045776367,immed,38072.99995422363,Mon Jan 27 2025 18:06:48 GMT-0600 (Central Standard Time),779263.3000000007,A,la,O,a,498,1,1016.3000000007451,778247.0,7041,WL,B,11.0
7,22.126999855041504,immed,37873.000144958496,Mon Jan 27 2025 18:06:48 GMT-0600 (Central Standard Time),779463.3000000007,A,lak,O,k,183,1,1216.300000000745,778247.0,7041,WL,B,11.0
7,22.359999895095825,immed,37640.000104904175,Mon Jan 27 2025 18:06:48 GMT-0600 (Central Standard Time),779696.6999999993,A,lake,O,e,222,1,1449.699999999255,778247.0,7041,WL,B,11.0
7,22.710000038146973,immed,37289.99996185303,Mon Jan 27 2025 18:06:48 GMT-0600 (Central Standard Time),780046.5999999978,A,lakeenter,O,enter,333,1,1799.5999999977648,778247.0,7041,WL,B,11.0
7,23.64299988746643,immed,36357.00011253357,Mon Jan 27 2025 18:06:48 GMT-0600 (Central Standard Time),780979.5,A,c,O,c,918,1,932.6999999992549,780046.8000000007,7041,WL,B,12.0
7,23.89400005340576,immed,36105.99994659424,Mon Jan 27 2025 18:06:48 GMT-0600 (Central Standard Time),781230.5,A,ca,O,a,241,1,1183.699999999255,780046.8000000007,7041,WL,B,12.0
7,24.175999879837036,immed,35824.000120162964,Mon Jan 27 2025 18:06:48 GMT-0600 (Central Standard Time),781512.5,A,cab,O,b,262,1,1465.699999999255,780046.8000000007,7041,WL,B,12.0
7,24.47499990463257,immed,35525.00009536743,Mon Jan 27 2025 18:06:48 GMT-0600 (Central Standard Time),781812.0999999978,A,cabi,O,i,285,1,1765.2999999970198,780046.8000000007,7041,WL,B,12.0
7,24.691999912261963,immed,35308.00008773804,Mon Jan 27 2025 18:06:48 GMT-0600 (Central Standard Time),782028.8999999985,A,cabin,O,n,210,1,1982.0999999977648,780046.8000000007,7041,WL,B,12.0
7,25.007999897003174,immed,34992.000102996826,Mon Jan 27 2025 18:06:48 GMT-0600 (Central Standard Time),782345.3000000007,A,cabinenter,O,enter,303,1,2298.5,780046.8000000007,7041,WL,B,12.0
7,32.37299990653992,immed,27627.000093460083,Mon Jan 27 2025 18:06:48 GMT-0600 (Central Standard Time),789709.6999999993,A,w,O,w,7357,1,7364.199999999255,782345.5,7041,WL,B,13.0
7,32.52300000190735,immed,27476.99999809265,Mon Jan 27 2025 18:06:48 GMT-0600 (Central Standard Time),789859.6999999993,A,wi,O,i,128,1,7514.199999999255,782345.5,7041,WL,B,13.0
7,32.62299990653992,immed,27377.000093460083,Mon Jan 27 2025 18:06:48 GMT-0600 (Central Standard Time),789959.5,A,win,O,n,89,1,7614.0,782345.5,7041,WL,B,13.0
7,32.83899998664856,immed,27161.00001335144,Mon Jan 27 2025 18:06:48 GMT-0600 (Central Standard Time),790176.1999999993,A,wind,O,d,197,1,7830.699999999255,782345.5,7041,WL,B,13.0
7,32.98899984359741,immed,27011.000156402588,Mon Jan 27 2025 18:06:48 GMT-0600 (Central Standard Time),790326.3000000007,A,windo,O,o,141,1,7980.800000000745,782345.5,7041,WL,B,13.0
7,33.18899989128113,immed,26811.000108718872,Mon Jan 27 2025 18:06:48 GMT-0600 (Central Standard Time),790526.1999999993,A,window,O,w,191,1,8180.699999999255,782345.5,7041,WL,B,13.0
7,33.539000034332275,immed,26460.999965667725,Mon Jan 27 2025 18:06:48 GMT-0600 (Central Standard Time),790876.1999999993,A,windowenter,O,enter,327,1,8530.699999999255,782345.5,7041,WL,B,13.0
7,36.687999963760376,immed,23312.000036239624,Mon Jan 27 2025 18:06:48 GMT-0600 (Central Standard Time),794025.0999999978,A,f,O,f,3129,1,3148.599999997765,790876.5,7041,WL,B,14.0
7,36.88800001144409,immed,23111.99998855591,Mon Jan 27 2025 18:06:48 GMT-0600 (Central Standard Time),794225.0,A,fi,O,i,188,1,3348.5,790876.5,7041,WL,B,14.0
7,37.07099986076355,immed,22929.00013923645,Mon Jan 27 2025 18:06:48 GMT-0600 (Central Standard Time),794408.1999999993,A,fir,O,r,164,1,3531.699999999255,790876.5,7041,WL,B,14.0
7,37.287999868392944,immed,22712.000131607056,Mon Jan 27 2025 18:06:48 GMT-0600 (Central Standard Time),794624.8999999985,A,fire,O,e,199,1,3748.39999999851,790876.5,7041,WL,B,14.0
7,37.437999963760376,immed,22562.000036239624,Mon Jan 27 2025 18:06:48 GMT-0600 (Central Standard Time),794774.8000000007,A,fireenter,O,enter,140,1,3898.300000000745,790876.5,7041,WL,B,14.0
7,40.770999908447266,immed,19229.000091552734,Mon Jan 27 2025 18:06:48 GMT-0600 (Central Standard Time),798107.5999999978,A,enter,O,enter,3310,1,3332.599999997765,794775.0,7041,WL,B,15.0
