acc_sum,block,block_c,condition,correct,correct_response,datetime,endtime,flanker,jitter,project,response,response_test_buffer_response,response_test_target_response,response_time,response_time_test_buffer_response,response_time_test_target_response,row_sel,session_number,start_end,starttime,subject_id,target,task,task_vers,time_test_buffer,time_test_buffer_response,time_test_constants,time_test_flanker,time_test_jitter,time_test_logger,time_test_target,time_test_target_response,time_test_variables,trial
1,prac,1,inc,1,z,Mon Oct 28 2024 15:25:20 GMT-0400 (Eastern Daylight Time),140514.2999997139,film,900,I,z,,,923,,,14,1,3122.9000000953674,137391.39999961853,9004,hate,AF,B,,,,,,,,,,1
2,prac,1,inc,1,m,Mon Oct 28 2024 15:25:20 GMT-0400 (Eastern Daylight Time),143647.69999980927,hate,1100,I,m,,,743,,,4,1,3121.800000190735,140525.89999961853,9004,film,AF,B,,,,,,,,,,2
3,prac,1,con,1,z,Mon Oct 28 2024 15:25:20 GMT-0400 (Eastern Daylight Time),146697.39999961853,love,1000,I,z,,,733,,,11,1,3040.3999996185303,143657.0,9004,love,AF,B,,,,,,,,,,3
4,prac,1,inc,1,m,Mon Oct 28 2024 15:25:20 GMT-0400 (Eastern Daylight Time),149497.5,kind,900,I,m,,,583,,,2,1,2790.9000000953674,146706.59999990463,9004,rock,AF,B,,,,,,,,,,4
5,prac,1,con,1,z,Mon Oct 28 2024 15:25:20 GMT-0400 (Eastern Daylight Time),152264.09999990463,brutal,800,I,z,,,650,,,13,1,2757.0,149507.09999990463,9004,brutal,AF,B,,,,,,,,,,5
6,prac,1,con,1,m,Mon Oct 28 2024 15:25:20 GMT-0400 (Eastern Daylight Time),155230.7999997139,bell,1000,I,m,,,661,,,3,1,2956.0999999046326,152274.69999980927,9004,bell,AF,B,,,,,,,,,,6
7,prac,1,inc,1,m,Mon Oct 28 2024 15:25:20 GMT-0400 (Eastern Daylight Time),158197.5,elated,900,I,m,,,753,,,6,1,2957.9000000953674,155239.59999990463,9004,napkin,AF,B,,,,,,,,,,7
8,prac,1,con,1,z,Mon Oct 28 2024 15:25:20 GMT-0400 (Eastern Daylight Time),161197.5,rage,1000,I,z,,,696,,,15,1,2989.300000190735,158208.19999980927,9004,rage,AF,B,,,,,,,,,,8
9,prac,1,con,1,z,Mon Oct 28 2024 15:25:20 GMT-0400 (Eastern Daylight Time),164430.59999990463,elated,800,I,z,,,1127,,,9,1,3224.300000190735,161206.2999997139,9004,elated,AF,B,,,,,,,,,,9
10,prac,1,inc,1,m,Mon Oct 28 2024 15:25:20 GMT-0400 (Eastern Daylight Time),167580.7999997139,brutal,1100,I,m,,,744,,,8,1,3140.5,164440.2999997139,9004,window,AF,B,,,,,,,,,,10
11,prac,1,inc,1,z,Mon Oct 28 2024 15:25:20 GMT-0400 (Eastern Daylight Time),170747.59999990463,window,1100,I,z,,,763,,,16,1,3154.2000002861023,167593.39999961853,9004,temper,AF,B,,,,,,,,,,11
12,prac,1,inc,1,z,Mon Oct 28 2024 15:25:20 GMT-0400 (Eastern Daylight Time),173680.89999961853,rock,900,I,z,,,726,,,10,1,2923.2999997138977,170757.59999990463,9004,kind,AF,B,,,,,,,,,,12
13,prac,1,con,1,m,Mon Oct 28 2024 15:25:20 GMT-0400 (Eastern Daylight Time),176714.19999980927,jacket,800,I,m,,,915,,,5,1,3024.300000190735,173689.89999961853,9004,jacket,AF,B,,,,,,,,,,13
14,prac,1,con,1,m,Mon Oct 28 2024 15:25:20 GMT-0400 (Eastern Daylight Time),179880.7999997139,step,800,I,m,,,1049,,,1,1,3156.9000000953674,176723.89999961853,9004,step,AF,B,,,,,,,,,,14
15,prac,1,inc,1,z,Mon Oct 28 2024 15:25:20 GMT-0400 (Eastern Daylight Time),183130.69999980927,napkin,1100,I,z,,,847,,,12,1,3240.9000000953674,179889.7999997139,9004,friend,AF,B,,,,,,,,,,15
16,prac,1,con,1,m,Mon Oct 28 2024 15:25:20 GMT-0400 (Eastern Daylight Time),186064.09999990463,remote,1000,I,m,,,625,,,7,1,2924.300000190735,183139.7999997139,9004,remote,AF,B,,,,,,,,,,16
1,test,1,inc,1,m,Mon Oct 28 2024 15:25:20 GMT-0400 (Eastern Daylight Time),202997.59999990463,friend,1100,I,m,m,None,706,506.0,200.0,112,1,2341.5999999046326,200656.0,9004,napkin,AF,B,198445,198445,196620,197729,196620,198962,198245,198245,198961,1
2,test,1,con,1,m,Mon Oct 28 2024 15:25:20 GMT-0400 (Eastern Daylight Time),204897.5,window,800,I,m,m,None,559,360.0,199.0,121,1,1888.6000003814697,203008.89999961853,9004,window,AF,B,200495,200495,198973,199779,198973,200862,200295,200295,200861,2
3,test,1,con,1,z,Mon Oct 28 2024 15:25:20 GMT-0400 (Eastern Daylight Time),206914.09999990463,hate,1000,I,z,z,None,476,276.0,200.0,43,1,2006.7000002861023,204907.39999961853,9004,hate,AF,B,202595,202595,200871,201878,200872,202878,202395,202395,202878,3
4,test,1,con,1,m,Mon Oct 28 2024 15:25:20 GMT-0400 (Eastern Daylight Time),209180.69999980927,napkin,1000,I,m,m,None,730,531.0,199.0,107,1,2257.199999809265,206923.5,9004,napkin,AF,B,204612,204612,202888,203895,202888,205145,204412,204412,205145,4
5,test,1,inc,1,m,Mon Oct 28 2024 15:25:20 GMT-0400 (Eastern Daylight Time),211314.09999990463,kind,900,I,m,m,None,691,492.0,199.0,94,1,2124.0999999046326,209190.0,9004,film,AF,B,206779,206779,205154,206062,205154,207278,206579,206579,207278,5
6,test,1,con,1,m,Mon Oct 28 2024 15:25:20 GMT-0400 (Eastern Daylight Time),213697.39999961853,bell,1100,I,m,m,None,742,543.0,199.0,84,1,2374.5,211322.89999961853,9004,bell,AF,B,209112,209112,207287,208395,207287,209662,208912,208912,209661,6
7,test,1,inc,1,m,Mon Oct 28 2024 15:25:20 GMT-0400 (Eastern Daylight Time),215814.0,kind,900,I,m,m,None,672,472.0,200.0,78,1,2105.1000003814697,213708.89999961853,9004,rock,AF,B,211295,211295,209673,210579,209673,211778,211095,211095,211778,7
8,test,1,con,1,m,Mon Oct 28 2024 15:25:20 GMT-0400 (Eastern Daylight Time),218064.09999990463,jacket,1000,I,m,m,None,710,511.0,199.0,99,1,2241.0999999046326,215823.0,9004,jacket,AF,B,213512,213512,211787,212795,211787,214028,213312,213312,214028,8
9,test,1,inc,1,m,Mon Oct 28 2024 15:25:20 GMT-0400 (Eastern Daylight Time),220447.39999961853,friend,1100,I,m,m,None,744,545.0,199.0,104,1,2374.7999997138977,218072.59999990463,9004,jacket,AF,B,215862,215862,214037,215145,214037,216412,215662,215662,216411,9
10,test,1,inc,1,z,Mon Oct 28 2024 15:25:20 GMT-0400 (Eastern Daylight Time),222497.2999997139,step,800,I,z,z,None,709,510.0,199.0,21,1,2041.2999997138977,220456.0,9004,love,AF,B,217945,217945,216420,217229,216420,218462,217745,217745,218461,10
11,test,1,con,1,m,Mon Oct 28 2024 15:25:20 GMT-0400 (Eastern Daylight Time),224747.39999961853,film,1100,I,m,m,None,600,400.0,200.0,92,1,2240.0999999046326,222507.2999997139,9004,film,AF,B,220295,220295,218471,219578,218472,220712,220094,220095,220711,11
12,test,1,con,1,z,Mon Oct 28 2024 15:25:20 GMT-0400 (Eastern Daylight Time),226914.09999990463,friend,900,I,z,z,None,725,526.0,199.0,26,1,2157.300000190735,224756.7999997139,9004,friend,AF,B,222345,222345,220721,221628,220721,222878,222145,222145,222878,12
13,test,1,inc,1,z,Mon Oct 28 2024 15:25:20 GMT-0400 (Eastern Daylight Time),229047.39999961853,napkin,900,I,z,z,None,686,487.0,199.0,38,1,2124.0999999046326,226923.2999997139,9004,brutal,AF,B,224512,224512,222887,223795,222888,225012,224312,224312,225011,13
14,test,1,inc,1,m,Mon Oct 28 2024 15:25:20 GMT-0400 (Eastern Daylight Time),231213.89999961853,love,1000,I,m,m,None,630,430.0,200.0,87,1,2157.3999996185303,229056.5,9004,bell,AF,B,226745,226745,225021,226029,225021,227178,226545,226545,227178,14
15,test,1,con,1,m,Mon Oct 28 2024 15:25:20 GMT-0400 (Eastern Daylight Time),233447.39999961853,film,800,I,m,m,None,886,687.0,199.0,89,1,2223.8999996185303,231223.5,9004,film,AF,B,228712,228712,227188,227995,227188,229411,228512,228512,229411,15
16,test,1,inc,1,z,Mon Oct 28 2024 15:25:20 GMT-0400 (Eastern Daylight Time),235547.2999997139,rock,900,I,z,z,None,666,466.0,200.0,46,1,2090.699999809265,233456.59999990463,9004,hate,AF,B,231045,231045,229421,230329,229421,231511,230845,230845,231511,16
17,test,1,con,1,z,Mon Oct 28 2024 15:25:20 GMT-0400 (Eastern Daylight Time),237580.69999980927,brutal,800,I,z,z,None,698,498.0,200.0,33,1,2025.3000001907349,235555.39999961853,9004,brutal,AF,B,233045,233045,231519,232329,231520,233545,232845,232845,233545,17
18,test,1,con,1,m,Mon Oct 28 2024 15:25:20 GMT-0400 (Eastern Daylight Time),239497.39999961853,jacket,800,I,m,m,None,566,367.0,199.0,97,1,1908.2999997138977,237589.09999990463,9004,jacket,AF,B,235079,235079,233553,234362,233553,235462,234879,234879,235461,18
19,test,1,inc,1,z,Mon Oct 28 2024 15:25:20 GMT-0400 (Eastern Daylight Time),241814.09999990463,bell,1000,I,z,z,None,772,572.0,200.0,15,1,2308.2000002861023,239505.89999961853,9004,kind,AF,B,237195,237195,235470,236479,235470,237778,236995,236995,237778,19
20,test,1,con,1,m,Mon Oct 28 2024 15:25:20 GMT-0400 (Eastern Daylight Time),243947.39999961853,remote,900,I,m,m,None,698,499.0,199.0,114,1,2124.3999996185303,241823.0,9004,remote,AF,B,239412,239412,237787,238695,237787,239912,239212,239212,239911,20
21,test,1,con,1,z,Mon Oct 28 2024 15:25:20 GMT-0400 (Eastern Daylight Time),246097.5,temper,800,I,z,z,None,809,609.0,200.0,57,1,2141.800000190735,243955.69999980927,9004,temper,AF,B,241446,241446,239920,240729,239920,242062,241245,241245,242061,21
22,test,1,con,1,z,Mon Oct 28 2024 15:25:20 GMT-0400 (Eastern Daylight Time),248314.09999990463,elated,1000,I,z,z,None,667,467.0,200.0,3,1,2205.7000002861023,246108.39999961853,9004,elated,AF,B,243795,243795,242072,243079,242073,244278,243595,243595,244278,22
23,test,1,inc,1,m,Mon Oct 28 2024 15:25:20 GMT-0400 (Eastern Daylight Time),250297.2999997139,elated,800,I,m,m,None,633,434.0,199.0,109,1,1974.1999998092651,248323.09999990463,9004,napkin,AF,B,245812,245812,244287,245095,244288,246261,245612,245612,246261,23
24,test,1,inc,1,m,Mon Oct 28 2024 15:25:20 GMT-0400 (Eastern Daylight Time),252314.09999990463,elated,800,I,m,m,None,667,467.0,200.0,117,1,2007.5999999046326,250306.5,9004,remote,AF,B,247795,247795,246271,247078,246271,248278,247595,247595,248278,24
25,test,1,con,1,z,Mon Oct 28 2024 15:25:20 GMT-0400 (Eastern Daylight Time),254114.09999990463,friend,800,I,z,z,None,458,259.0,199.0,25,1,1791.3000001907349,252322.7999997139,9004,friend,AF,B,249812,249812,248287,249095,248287,250078,249612,249612,250078,25
26,test,1,inc,1,z,Mon Oct 28 2024 15:25:20 GMT-0400 (Eastern Daylight Time),256147.39999961853,jacket,800,I,z,z,None,705,491.0,214.0,61,1,2024.1999998092651,254123.19999980927,9004,temper,AF,B,251612,251612,250087,250895,250088,252112,251397,251397,252111,26
27,test,1,inc,1,m,Mon Oct 28 2024 15:25:20 GMT-0400 (Eastern Daylight Time),258214.09999990463,rage,800,I,m,m,None,722,522.0,200.0,69,1,2056.0999999046326,256158.0,9004,step,AF,B,253645,253645,252122,252929,252122,254178,253445,253445,254178,27
28,test,1,inc,1,z,Mon Oct 28 2024 15:25:20 GMT-0400 (Eastern Daylight Time),260364.59999990463,bell,1000,I,z,z,None,614,415.0,199.0,23,1,2139.4000000953674,258225.19999980927,9004,love,AF,B,255912,255912,254189,255195,254190,256329,255712,255712,256329,28
29,test,1,con,1,z,Mon Oct 28 2024 15:25:20 GMT-0400 (Eastern Daylight Time),262513.7999997139,temper,900,I,z,z,None,708,509.0,199.0,58,1,2140.0999999046326,260373.69999980927,9004,temper,AF,B,257962,257962,256338,257245,256338,258478,257762,257762,258478,29
30,test,1,inc,1,z,Mon Oct 28 2024 15:25:20 GMT-0400 (Eastern Daylight Time),264464.09999990463,jacket,800,I,z,z,None,610,411.0,199.0,37,1,1942.0,262522.09999990463,9004,brutal,AF,B,260012,260012,258486,259295,258487,260428,259812,259812,260428,30
31,test,1,con,1,z,Mon Oct 28 2024 15:25:20 GMT-0400 (Eastern Daylight Time),266747.09999990463,rage,1100,I,z,z,None,648,449.0,199.0,52,1,2274.4000000953674,264472.69999980927,9004,rage,AF,B,262262,262262,260437,261545,260437,262711,262062,262062,262711,31
32,test,1,con,1,m,Mon Oct 28 2024 15:25:20 GMT-0400 (Eastern Daylight Time),268880.59999990463,bell,1000,I,m,m,None,594,394.0,200.0,83,1,2125.5999999046326,266755.0,9004,bell,AF,B,264445,264445,262719,263728,262720,264845,264245,264245,264845,32
33,test,1,con,1,z,Mon Oct 28 2024 15:25:20 GMT-0400 (Eastern Daylight Time),271214.09999990463,kind,1100,I,z,z,None,695,496.0,199.0,12,1,2325.0,268889.09999990463,9004,kind,AF,B,266679,266679,264853,265962,264853,267178,266479,266479,267178,33
34,test,1,inc,1,m,Mon Oct 28 2024 15:25:20 GMT-0400 (Eastern Daylight Time),273680.69999980927,friend,1100,I,m,m,None,826,627.0,199.0,120,1,2456.0,271224.69999980927,9004,remote,AF,B,269012,269012,267189,268295,267189,269645,268812,268812,269645,34
35,test,1,con,1,m,Mon Oct 28 2024 15:25:20 GMT-0400 (Eastern Daylight Time),276247.5,rock,1000,I,m,m,None,1019,820.0,199.0,75,1,2557.800000190735,273689.69999980927,9004,rock,AF,B,271379,271379,269654,270662,269654,272212,271179,271179,272211,35
36,test,1,inc,1,z,Mon Oct 28 2024 15:25:20 GMT-0400 (Eastern Daylight Time),278330.69999980927,rock,900,I,z,z,None,634,434.0,200.0,14,1,2074.5999999046326,276256.09999990463,9004,kind,AF,B,273845,273845,272220,273129,272221,274295,273645,273645,274295,36
37,test,1,con,1,m,Mon Oct 28 2024 15:25:20 GMT-0400 (Eastern Daylight Time),280414.09999990463,bell,800,I,m,m,None,746,547.0,199.0,81,1,2072.300000190735,278341.7999997139,9004,bell,AF,B,275828,275828,274306,275112,274306,276378,275629,275629,276378,37
38,test,1,inc,1,z,Mon Oct 28 2024 15:25:20 GMT-0400 (Eastern Daylight Time),282714.09999990463,window,1100,I,z,z,None,650,451.0,199.0,64,1,2287.0,280427.09999990463,9004,temper,AF,B,278212,278212,276391,277495,276391,278678,278012,278012,278678,38
39,test,1,inc,1,m,Mon Oct 28 2024 15:25:20 GMT-0400 (Eastern Daylight Time),285030.19999980927,hate,1100,I,m,m,None,671,471.0,200.0,72,1,2307.9000000953674,282722.2999997139,9004,step,AF,B,280511,280511,278686,279795,278687,280994,280311,280311,280994,39
40,test,1,con,1,z,Mon Oct 28 2024 15:25:20 GMT-0400 (Eastern Daylight Time),286847.2999997139,love,800,I,z,z,None,477,278.0,199.0,17,1,1811.1999998092651,285036.09999990463,9004,love,AF,B,282529,282529,281000,281812,281000,282812,282329,282329,282811,40
41,test,1,inc,1,m,Mon Oct 28 2024 15:25:20 GMT-0400 (Eastern Daylight Time),289230.7999997139,love,1000,I,m,m,None,845,645.0,200.0,71,1,2372.9000000953674,286857.89999961853,9004,step,AF,B,284545,284546,282822,283829,282822,285195,284345,284345,285195,41
42,test,1,con,1,m,Mon Oct 28 2024 15:25:20 GMT-0400 (Eastern Daylight Time),291730.89999961853,napkin,1100,I,m,m,None,857,658.0,199.0,108,1,2490.2999997138977,289240.59999990463,9004,napkin,AF,B,287029,287029,285205,286312,285205,287695,286829,286829,287695,42
43,test,1,inc,1,m,Mon Oct 28 2024 15:25:20 GMT-0400 (Eastern Daylight Time),293847.39999961853,elated,800,I,m,m,None,770,571.0,199.0,125,1,2108.0,291739.39999961853,9004,window,AF,B,289228,289228,287703,288512,287704,289812,289029,289029,289811,43
44,test,1,inc,1,z,Mon Oct 28 2024 15:25:20 GMT-0400 (Eastern Daylight Time),295997.39999961853,rock,900,I,z,z,None,714,514.0,200.0,54,1,2141.2999997138977,293856.09999990463,9004,rage,AF,B,291445,291445,289820,290728,289821,291961,291245,291245,291961,44
45,test,1,inc,1,m,Mon Oct 28 2024 15:25:20 GMT-0400 (Eastern Daylight Time),298214.19999980927,temper,1000,I,m,m,None,672,472.0,200.0,127,1,2208.4000000953674,296005.7999997139,9004,window,AF,B,293695,293695,291970,292979,291970,294178,293495,293495,294178,45
46,test,1,inc,1,m,Mon Oct 28 2024 15:25:20 GMT-0400 (Eastern Daylight Time),300580.69999980927,hate,1100,I,m,m,None,722,523.0,199.0,96,1,2358.199999809265,298222.5,9004,film,AF,B,296012,296012,294187,295295,294187,296545,295812,295812,296545,46
47,test,1,con,1,z,Mon Oct 28 2024 15:25:20 GMT-0400 (Eastern Daylight Time),302647.59999990463,rage,900,I,z,z,None,619,420.0,199.0,50,1,2056.9000000953674,300590.69999980927,9004,rage,AF,B,298178,298179,296555,297462,296555,298612,297979,297979,298612,47
48,test,1,con,1,m,Mon Oct 28 2024 15:25:20 GMT-0400 (Eastern Daylight Time),304480.69999980927,step,800,I,m,m,None,494,294.0,200.0,65,1,1824.5999999046326,302656.09999990463,9004,step,AF,B,300145,300145,298620,299429,298620,300445,299945,299945,300445,48
49,test,1,con,1,z,Mon Oct 28 2024 15:25:20 GMT-0400 (Eastern Daylight Time),306597.39999961853,love,1000,I,z,z,None,571,372.0,199.0,19,1,2107.5,304489.89999961853,9004,love,AF,B,302179,302179,300454,301462,300454,302562,301979,301979,302561,49
50,test,1,inc,1,z,Mon Oct 28 2024 15:25:20 GMT-0400 (Eastern Daylight Time),308847.5,film,1100,I,z,z,None,612,412.0,200.0,48,1,2241.4000000953674,306606.09999990463,9004,hate,AF,B,304395,304395,302570,303678,302570,304812,304195,304195,304811,50
51,test,1,con,1,m,Mon Oct 28 2024 15:25:20 GMT-0400 (Eastern Daylight Time),310897.5,remote,800,I,m,m,None,710,510.0,200.0,113,1,2040.5,308857.0,9004,remote,AF,B,306345,306345,304821,305628,304821,306862,306145,306145,306861,51
52,test,1,inc,1,z,Mon Oct 28 2024 15:25:20 GMT-0400 (Eastern Daylight Time),313364.09999990463,bell,1000,I,z,z,None,923,723.0,200.0,47,1,2456.300000190735,310907.7999997139,9004,hate,AF,B,308595,308596,306872,307878,306872,309328,308395,308395,309328,52
53,test,1,inc,1,m,Mon Oct 28 2024 15:25:20 GMT-0400 (Eastern Daylight Time),315347.5,rage,800,I,m,m,None,639,440.0,199.0,85,1,1974.8000001907349,313372.69999980927,9004,bell,AF,B,310862,310862,309337,310145,309337,311312,310662,310662,311311,53
54,test,1,con,1,z,Mon Oct 28 2024 15:25:20 GMT-0400 (Eastern Daylight Time),317430.69999980927,kind,800,I,z,z,None,738,538.0,200.0,9,1,2069.800000190735,315360.89999961853,9004,kind,AF,B,312845,312845,311325,312128,311326,313395,312645,312645,313395,54
55,test,1,inc,1,m,Mon Oct 28 2024 15:25:20 GMT-0400 (Eastern Daylight Time),319746.7999997139,friend,1100,I,m,m,None,672,473.0,199.0,128,1,2307.9000000953674,317438.89999961853,9004,window,AF,B,315229,315229,313403,314512,313403,315711,315028,315029,315711,55
56,test,1,con,1,z,Mon Oct 28 2024 15:25:20 GMT-0400 (Eastern Daylight Time),321797.2999997139,rage,800,I,z,z,None,706,506.0,200.0,49,1,2045.1999998092651,319752.09999990463,9004,rage,AF,B,317245,317245,315716,316529,315716,317761,317045,317045,317761,56
57,test,1,con,1,m,Mon Oct 28 2024 15:25:20 GMT-0400 (Eastern Daylight Time),323897.39999961853,bell,900,I,m,m,None,651,451.0,200.0,82,1,2091.5,321805.89999961853,9004,bell,AF,B,319395,319395,317770,318679,317770,319861,319195,319195,319861,57
58,test,1,con,1,m,Mon Oct 28 2024 15:25:20 GMT-0400 (Eastern Daylight Time),326197.5,jacket,1100,I,m,m,None,656,456.0,200.0,100,1,2291.1000003814697,323906.39999961853,9004,jacket,AF,B,321695,321695,319870,320979,319871,322162,321495,321495,322161,58
59,test,1,con,1,z,Mon Oct 28 2024 15:25:20 GMT-0400 (Eastern Daylight Time),328014.09999990463,brutal,900,I,z,z,None,380,180.0,200.0,34,1,1807.9000000953674,326206.19999980927,9004,brutal,AF,B,323795,323795,322170,323079,322171,323978,323595,323595,323978,59
60,test,1,inc,1,z,Mon Oct 28 2024 15:25:20 GMT-0400 (Eastern Daylight Time),330180.59999990463,remote,1000,I,z,z,None,622,423.0,199.0,7,1,2157.7000002861023,328022.89999961853,9004,elated,AF,B,325712,325712,323987,324995,323987,326145,325512,325512,326145,60
61,test,1,inc,1,z,Mon Oct 28 2024 15:25:20 GMT-0400 (Eastern Daylight Time),332547.39999961853,film,1100,I,z,z,None,723,524.0,199.0,16,1,2355.7999997138977,330191.59999990463,9004,kind,AF,B,327979,327979,326156,327262,326156,328512,327779,327779,328511,61
62,test,1,con,1,z,Mon Oct 28 2024 15:25:20 GMT-0400 (Eastern Daylight Time),334547.5,hate,800,I,z,z,None,658,458.0,200.0,41,1,1990.8000001907349,332556.69999980927,9004,hate,AF,B,330045,330045,328521,329328,328521,330512,329845,329845,330512,62
63,test,1,inc,1,m,Mon Oct 28 2024 15:25:20 GMT-0400 (Eastern Daylight Time),336747.2999997139,love,1000,I,m,m,None,666,466.0,200.0,79,1,2191.5,334555.7999997139,9004,rock,AF,B,332245,332245,330520,331528,330520,332711,332045,332045,332711,63
64,test,1,inc,1,m,Mon Oct 28 2024 15:25:20 GMT-0400 (Eastern Daylight Time),339347.5,temper,1000,I,m,m,None,1058,858.0,200.0,119,1,2589.6000003814697,336757.89999961853,9004,remote,AF,B,334445,334445,332722,333729,332722,335312,334245,334245,335312,64
65,test,1,con,1,z,Mon Oct 28 2024 15:25:20 GMT-0400 (Eastern Daylight Time),341330.69999980927,love,900,I,z,z,None,542,342.0,200.0,18,1,1974.8000001907349,339355.89999961853,9004,love,AF,B,336945,336945,335320,336228,335320,337295,336745,336745,337295,65
66,test,1,inc,1,z,Mon Oct 28 2024 15:25:20 GMT-0400 (Eastern Daylight Time),343597.5,window,1100,I,z,z,None,630,431.0,199.0,40,1,2258.1000003814697,341339.39999961853,9004,brutal,AF,B,339128,339128,337303,338412,337304,339562,338929,338929,339561,66
67,test,1,inc,1,z,Mon Oct 28 2024 15:25:20 GMT-0400 (Eastern Daylight Time),345480.7999997139,jacket,800,I,z,z,None,536,336.0,200.0,5,1,1872.6999998092651,343608.09999990463,9004,elated,AF,B,341095,341095,339572,340379,339572,341445,340895,340895,341445,67
68,test,1,inc,1,m,Mon Oct 28 2024 15:25:20 GMT-0400 (Eastern Daylight Time),347530.7999997139,elated,800,I,m,m,None,699,500.0,199.0,101,1,2041.7999997138977,345489.0,9004,jacket,AF,B,342979,342979,341453,342262,341453,343495,342779,342779,343495,68
69,test,1,con,1,m,Mon Oct 28 2024 15:25:20 GMT-0400 (Eastern Daylight Time),349664.09999990463,window,1000,I,m,m,None,593,394.0,199.0,123,1,2124.7000002861023,347539.39999961853,9004,window,AF,B,345229,345229,343503,344512,343504,345628,345029,345029,345628,69
70,test,1,inc,1,z,Mon Oct 28 2024 15:25:20 GMT-0400 (Eastern Daylight Time),351614.09999990463,step,800,I,z,z,None,612,413.0,199.0,45,1,1941.0,349673.09999990463,9004,hate,AF,B,347162,347162,345637,346445,345637,347578,346962,346962,347578,70
71,test,1,inc,1,z,Mon Oct 28 2024 15:25:20 GMT-0400 (Eastern Daylight Time),353847.59999990463,remote,1000,I,z,z,None,686,487.0,199.0,31,1,2224.7000002861023,351622.89999961853,9004,friend,AF,B,349312,349312,347587,348595,347587,349812,349112,349112,349811,71
72,test,1,con,1,z,Mon Oct 28 2024 15:25:20 GMT-0400 (Eastern Daylight Time),356164.19999980927,kind,1000,I,z,z,None,774,574.0,200.0,11,1,2308.0,353856.19999980927,9004,kind,AF,B,351545,351545,349820,350829,349821,352128,351345,351345,352128,72
73,test,1,con,1,m,Mon Oct 28 2024 15:25:20 GMT-0400 (Eastern Daylight Time),358347.2999997139,remote,1100,I,m,m,None,548,349.0,199.0,116,1,2174.5999999046326,356172.69999980927,9004,remote,AF,B,353962,353962,352137,353245,352137,354311,353762,353762,354311,73
74,test,1,inc,1,z,Mon Oct 28 2024 15:25:20 GMT-0400 (Eastern Daylight Time),360314.19999980927,step,800,I,z,z,None,617,418.0,199.0,53,1,1953.0,358361.19999980927,9004,rage,AF,B,355845,355845,354325,355129,354326,356278,355645,355646,356278,74
75,test,1,inc,1,z,Mon Oct 28 2024 15:25:20 GMT-0400 (Eastern Daylight Time),362330.59999990463,step,800,I,z,z,None,665,466.0,199.0,13,1,2008.3000001907349,360322.2999997139,9004,kind,AF,B,357812,357812,356286,357095,356287,358295,357612,357612,358295,75
76,test,1,inc,1,m,Mon Oct 28 2024 15:25:20 GMT-0400 (Eastern Daylight Time),364380.59999990463,rage,800,I,m,m,None,713,514.0,199.0,77,1,2042.7000002861023,362337.89999961853,9004,rock,AF,B,359829,359829,358302,359112,358302,360345,359629,359629,360345,76
77,test,1,con,1,z,Mon Oct 28 2024 15:25:20 GMT-0400 (Eastern Daylight Time),366514.19999980927,kind,900,I,z,z,None,691,492.0,199.0,10,1,2122.699999809265,364391.5,9004,kind,AF,B,361979,361979,360356,361262,360356,362478,361779,361779,362478,77
78,test,1,inc,1,m,Mon Oct 28 2024 15:25:20 GMT-0400 (Eastern Daylight Time),368597.59999990463,kind,900,I,m,m,None,638,439.0,199.0,70,1,2074.9000000953674,366522.69999980927,9004,step,AF,B,364112,364112,362487,363395,362487,364562,363912,363912,364562,78
79,test,1,inc,1,m,Mon Oct 28 2024 15:25:20 GMT-0400 (Eastern Daylight Time),370747.59999990463,rage,800,I,m,m,None,799,599.0,200.0,93,1,2141.300000190735,368606.2999997139,9004,film,AF,B,366095,366096,364570,365379,364571,366712,365895,365895,366712,79
80,test,1,inc,1,z,Mon Oct 28 2024 15:25:20 GMT-0400 (Eastern Daylight Time),373147.5,window,1100,I,z,z,None,765,565.0,200.0,8,1,2391.4000000953674,370756.09999990463,9004,elated,AF,B,368546,368546,366720,367829,366720,369112,368345,368345,369111,80
81,test,1,con,1,z,Mon Oct 28 2024 15:25:20 GMT-0400 (Eastern Daylight Time),375531.0,rage,1000,I,z,z,None,833,633.0,200.0,51,1,2375.300000190735,373155.69999980927,9004,rage,AF,B,370845,370846,369120,370129,369120,371495,370645,370645,371495,81
82,test,1,inc,1,m,Mon Oct 28 2024 15:25:20 GMT-0400 (Eastern Daylight Time),377630.69999980927,brutal,900,I,m,m,None,661,462.0,199.0,118,1,2089.0,375541.69999980927,9004,remote,AF,B,373129,373129,371506,372412,371506,373595,372929,372929,373595,82
83,test,1,con,1,z,Mon Oct 28 2024 15:25:20 GMT-0400 (Eastern Daylight Time),380580.69999980927,brutal,1000,I,z,z,None,1405,1206.0,199.0,35,1,2941.300000190735,377639.39999961853,9004,brutal,AF,B,375329,375329,373603,374612,373604,376545,375129,375129,376545,83
84,test,1,con,1,z,Mon Oct 28 2024 15:25:20 GMT-0400 (Eastern Daylight Time),382447.59999990463,elated,800,I,z,z,None,527,328.0,199.0,1,1,1856.5999999046326,380591.0,9004,elated,AF,B,378079,378079,376555,377362,376555,378412,377879,377879,378412,84
85,test,1,inc,1,m,Mon Oct 28 2024 15:25:20 GMT-0400 (Eastern Daylight Time),384647.39999961853,kind,900,I,m,m,None,753,553.0,200.0,86,1,2190.5,382456.89999961853,9004,bell,AF,B,380046,380046,378421,379329,378421,380612,379845,379845,380611,85
86,test,1,inc,1,z,Mon Oct 28 2024 15:25:20 GMT-0400 (Eastern Daylight Time),386880.19999980927,film,1100,I,z,z,None,592,393.0,199.0,56,1,2224.4000000953674,384655.7999997139,9004,rage,AF,B,382445,382445,380620,381729,380620,382844,382245,382245,382844,86
87,test,1,inc,1,z,Mon Oct 28 2024 15:25:20 GMT-0400 (Eastern Daylight Time),389097.5,film,1100,I,z,z,None,567,368.0,199.0,24,1,2211.5,386886.0,9004,love,AF,B,384679,384679,382850,383962,382850,385062,384479,384479,385062,87
88,test,1,con,1,m,Mon Oct 28 2024 15:25:20 GMT-0400 (Eastern Daylight Time),391380.89999961853,step,1100,I,m,m,None,640,440.0,200.0,68,1,2275.0999999046326,389105.7999997139,9004,step,AF,B,386895,386895,385070,386179,385070,387345,386695,386695,387345,88
89,test,1,con,1,z,Mon Oct 28 2024 15:25:20 GMT-0400 (Eastern Daylight Time),393614.19999980927,temper,1000,I,z,z,None,695,496.0,199.0,59,1,2225.0,391389.19999980927,9004,temper,AF,B,389079,389079,387353,388362,387353,389578,388879,388879,389578,89
90,test,1,inc,1,z,Mon Oct 28 2024 15:25:20 GMT-0400 (Eastern Daylight Time),395597.5,napkin,900,I,z,z,None,546,347.0,199.0,6,1,1975.3000001907349,393622.19999980927,9004,elated,AF,B,391212,391212,389586,390495,389587,391562,391012,391012,391561,90
91,test,1,con,1,z,Mon Oct 28 2024 15:25:20 GMT-0400 (Eastern Daylight Time),397847.59999990463,temper,1100,I,z,z,None,603,403.0,200.0,60,1,2241.7000002861023,395605.89999961853,9004,temper,AF,B,393395,393396,391570,392679,391570,393812,393195,393195,393812,91
92,test,1,inc,1,z,Mon Oct 28 2024 15:25:20 GMT-0400 (Eastern Daylight Time),400280.7999997139,window,1100,I,z,z,None,785,585.0,200.0,32,1,2424.4000000953674,397856.39999961853,9004,friend,AF,B,395645,395646,393820,394928,393821,396245,395445,395445,396245,92
93,test,1,inc,1,z,Mon Oct 28 2024 15:25:20 GMT-0400 (Eastern Daylight Time),402380.89999961853,napkin,900,I,z,z,None,663,464.0,199.0,62,1,2091.2999997138977,400289.59999990463,9004,temper,AF,B,397879,397879,396254,397162,396254,398345,397679,397679,398345,93
94,test,1,inc,1,z,Mon Oct 28 2024 15:25:20 GMT-0400 (Eastern Daylight Time),404380.69999980927,napkin,900,I,z,z,None,563,364.0,199.0,30,1,1991.3000001907349,402389.39999961853,9004,friend,AF,B,399979,399979,398353,399261,398354,400345,399779,399779,400345,94
95,test,1,inc,1,m,Mon Oct 28 2024 15:25:20 GMT-0400 (Eastern Daylight Time),406646.89999961853,temper,1000,I,m,m,None,719,519.0,200.0,103,1,2257.7999997138977,404389.09999990463,9004,jacket,AF,B,402079,402079,400353,401362,400353,402611,401878,401878,402611,95
96,test,1,inc,1,m,Mon Oct 28 2024 15:25:20 GMT-0400 (Eastern Daylight Time),408897.69999980927,hate,1100,I,m,m,None,609,409.0,200.0,80,1,2245.300000190735,406652.39999961853,9004,rock,AF,B,404445,404446,402616,403729,402617,404862,404245,404245,404862,96
97,test,1,inc,1,z,Mon Oct 28 2024 15:25:20 GMT-0400 (Eastern Daylight Time),410847.5,jacket,800,I,z,z,None,612,412.0,200.0,29,1,1940.9000000953674,408906.59999990463,9004,friend,AF,B,406395,406395,404871,405678,404871,406812,406195,406195,406812,97
98,test,1,con,1,z,Mon Oct 28 2024 15:25:20 GMT-0400 (Eastern Daylight Time),413147.2999997139,hate,1100,I,z,z,None,666,466.0,200.0,44,1,2291.5,410855.7999997139,9004,hate,AF,B,408645,408645,406820,407929,406820,409111,408445,408445,409111,98
99,test,1,con,1,m,Mon Oct 28 2024 15:25:20 GMT-0400 (Eastern Daylight Time),415380.89999961853,film,1000,I,m,m,None,689,489.0,200.0,91,1,2226.3999996185303,413154.5,9004,film,AF,B,410846,410846,409119,410129,409119,411345,410645,410645,411345,99
100,test,1,con,1,z,Mon Oct 28 2024 15:25:20 GMT-0400 (Eastern Daylight Time),417764.09999990463,brutal,1100,I,z,z,None,739,540.0,199.0,36,1,2374.9000000953674,415389.19999980927,9004,brutal,AF,B,413179,413179,411353,412462,411354,413728,412979,412979,413728,100
101,test,1,inc,1,m,Mon Oct 28 2024 15:25:20 GMT-0400 (Eastern Daylight Time),419947.2999997139,brutal,900,I,m,m,None,748,549.0,199.0,126,1,2174.699999809265,417772.59999990463,9004,window,AF,B,415362,415362,413737,414645,413737,415911,415162,415162,415911,101
102,test,1,con,1,m,Mon Oct 28 2024 15:25:20 GMT-0400 (Eastern Daylight Time),422080.7999997139,jacket,900,I,m,m,None,693,493.0,200.0,98,1,2125.4000000953674,419955.39999961853,9004,jacket,AF,B,417545,417546,415919,416829,415920,418045,417345,417345,418045,102
103,test,1,con,1,z,Mon Oct 28 2024 15:25:20 GMT-0400 (Eastern Daylight Time),424047.59999990463,hate,900,I,z,z,None,528,329.0,199.0,42,1,1958.5999999046326,422089.0,9004,hate,AF,B,419678,419678,418053,418962,418053,420012,419479,419479,420012,103
104,test,1,inc,1,m,Mon Oct 28 2024 15:25:20 GMT-0400 (Eastern Daylight Time),426180.89999961853,brutal,900,I,m,m,None,688,489.0,199.0,102,1,2124.699999809265,424056.19999980927,9004,jacket,AF,B,421645,421646,420020,420929,420021,422145,421446,421446,422145,104
105,test,1,con,1,m,Mon Oct 28 2024 15:25:20 GMT-0400 (Eastern Daylight Time),428530.89999961853,window,1100,I,m,m,None,707,508.0,199.0,124,1,2341.3999996185303,426189.5,9004,window,AF,B,423979,423979,422154,423262,422154,424495,423779,423779,424495,105
106,test,1,con,1,z,Mon Oct 28 2024 15:25:20 GMT-0400 (Eastern Daylight Time),430880.89999961853,friend,1000,I,z,z,None,809,610.0,199.0,27,1,2341.699999809265,428539.19999980927,9004,friend,AF,B,426229,426229,424503,425512,424504,426845,426029,426029,426845,106
107,test,1,con,1,z,Mon Oct 28 2024 15:25:20 GMT-0400 (Eastern Daylight Time),433147.59999990463,friend,1100,I,z,z,None,615,416.0,199.0,28,1,2258.4000000953674,430889.19999980927,9004,friend,AF,B,428679,428679,426853,427962,426854,429112,428479,428479,429112,107
108,test,1,con,1,m,Mon Oct 28 2024 15:25:20 GMT-0400 (Eastern Daylight Time),435164.0,window,900,I,m,m,None,580,381.0,199.0,122,1,2005.7000002861023,433158.2999997139,9004,window,AF,B,430746,430746,429122,430029,429123,431128,430545,430546,431128,108
109,test,1,con,1,m,Mon Oct 28 2024 15:25:20 GMT-0400 (Eastern Daylight Time),437264.19999980927,napkin,800,I,m,m,None,761,561.0,200.0,105,1,2091.699999809265,435172.5,9004,napkin,AF,B,432662,432662,431137,431945,431137,433228,432462,432462,433228,109
110,test,1,inc,1,z,Mon Oct 28 2024 15:25:20 GMT-0400 (Eastern Daylight Time),439464.2999997139,bell,1000,I,z,z,None,652,451.0,201.0,55,1,2190.4000000953674,437273.89999961853,9004,rage,AF,B,434964,434964,433238,434245,433238,435428,434762,434762,435428,110
111,test,1,con,1,m,Mon Oct 28 2024 15:25:20 GMT-0400 (Eastern Daylight Time),442230.7999997139,film,900,I,m,m,None,1320,1121.0,199.0,90,1,2758.0999999046326,439472.69999980927,9004,film,AF,B,437062,437062,435437,436345,435437,438195,436862,436862,438195,111
112,test,1,con,1,m,Mon Oct 28 2024 15:25:20 GMT-0400 (Eastern Daylight Time),444297.5,step,900,I,m,m,None,617,418.0,199.0,66,1,2057.4000000953674,442240.09999990463,9004,step,AF,B,439829,439829,438204,439112,438204,440262,439629,439629,440261,112
113,test,1,con,1,m,Mon Oct 28 2024 15:25:20 GMT-0400 (Eastern Daylight Time),446447.59999990463,rock,1100,I,m,m,None,511,312.0,199.0,76,1,2141.4000000953674,444306.19999980927,9004,rock,AF,B,442095,442095,440270,441379,440271,442412,441895,441896,442412,113
114,test,1,con,1,m,Mon Oct 28 2024 15:25:20 GMT-0400 (Eastern Daylight Time),448531.0,remote,1000,I,m,m,None,541,341.0,200.0,115,1,2074.800000190735,446456.19999980927,9004,remote,AF,B,444146,444146,442420,443429,442421,444495,443945,443945,444495,114
115,test,1,con,1,z,Mon Oct 28 2024 15:25:20 GMT-0400 (Eastern Daylight Time),450564.19999980927,elated,900,I,z,z,None,590,391.0,199.0,2,1,2024.6999998092651,448539.5,9004,elated,AF,B,446128,446128,444504,445412,444504,446528,445929,445929,446528,115
116,test,1,inc,1,m,Mon Oct 28 2024 15:25:20 GMT-0400 (Eastern Daylight Time),452680.19999980927,brutal,900,I,m,m,None,669,469.0,200.0,110,1,2106.5999999046326,450573.59999990463,9004,napkin,AF,B,448161,448161,446538,447445,446538,448644,447961,447961,448644,116
117,test,1,inc,1,m,Mon Oct 28 2024 15:25:20 GMT-0400 (Eastern Daylight Time),454830.7999997139,temper,1000,I,m,m,None,611,412.0,199.0,111,1,2144.5999999046326,452686.19999980927,9004,napkin,AF,B,450379,450379,448650,449662,448651,450795,450179,450179,450795,117
118,test,1,con,1,m,Mon Oct 28 2024 15:25:20 GMT-0400 (Eastern Daylight Time),456747.39999961853,rock,800,I,m,m,None,581,382.0,199.0,73,1,1907.5,454839.89999961853,9004,rock,AF,B,452329,452329,450804,451612,450804,452712,452129,452129,452711,118
119,test,1,inc,1,m,Mon Oct 28 2024 15:25:20 GMT-0400 (Eastern Daylight Time),458980.89999961853,love,1000,I,m,m,None,689,489.0,200.0,95,1,2225.5,456755.39999961853,9004,film,AF,B,454445,454445,452719,453729,452720,454945,454245,454245,454945,119
120,test,1,con,1,m,Mon Oct 28 2024 15:25:20 GMT-0400 (Eastern Daylight Time),460930.89999961853,napkin,900,I,m,m,None,507,308.0,199.0,106,1,1939.5,458991.39999961853,9004,napkin,AF,B,456579,456579,454955,455862,454956,456895,456379,456379,456895,120
121,test,1,inc,1,z,Mon Oct 28 2024 15:25:20 GMT-0400 (Eastern Daylight Time),462964.2999997139,rock,900,I,z,z,None,589,390.0,199.0,22,1,2025.1999998092651,460939.09999990463,9004,love,AF,B,458529,458529,456903,457812,456903,458928,458329,458329,458928,121
122,test,1,con,1,m,Mon Oct 28 2024 15:25:20 GMT-0400 (Eastern Daylight Time),465130.89999961853,step,1000,I,m,m,None,617,417.0,200.0,67,1,2156.0999999046326,462974.7999997139,9004,step,AF,B,460662,460662,458939,459946,458939,461095,460462,460462,461095,122
123,test,1,inc,1,m,Mon Oct 28 2024 15:25:20 GMT-0400 (Eastern Daylight Time),467481.0,hate,1100,I,m,m,None,701,502.0,199.0,88,1,2341.9000000953674,465139.09999990463,9004,bell,AF,B,462929,462929,461103,462212,461103,463445,462729,462729,463445,123
124,test,1,con,1,m,Mon Oct 28 2024 15:25:20 GMT-0400 (Eastern Daylight Time),469764.19999980927,rock,900,I,m,m,None,839,640.0,199.0,74,1,2273.699999809265,467490.5,9004,rock,AF,B,465078,465079,463455,464362,463455,465728,464878,464879,465728,124
125,test,1,inc,1,z,Mon Oct 28 2024 15:25:20 GMT-0400 (Eastern Daylight Time),472014.19999980927,remote,1000,I,z,z,None,713,513.0,200.0,63,1,2241.0,469773.19999980927,9004,temper,AF,B,467462,467462,465737,466745,465738,467978,467262,467262,467978,125
126,test,1,con,1,z,Mon Oct 28 2024 15:25:20 GMT-0400 (Eastern Daylight Time),474130.7999997139,love,1100,I,z,z,None,475,275.0,200.0,20,1,2107.9000000953674,472022.89999961853,9004,love,AF,B,469812,469812,467987,469095,467987,470095,469612,469612,470095,126
127,test,1,con,1,z,Mon Oct 28 2024 15:25:20 GMT-0400 (Eastern Daylight Time),476997.69999980927,elated,1100,I,z,z,None,1221,1022.0,199.0,4,1,2857.5999999046326,474140.09999990463,9004,elated,AF,B,471929,471929,470104,471212,470104,472962,471729,471729,472962,127
128,test,1,inc,1,z,Mon Oct 28 2024 15:25:20 GMT-0400 (Eastern Daylight Time),479180.89999961853,remote,1000,I,z,z,None,648,448.0,200.0,39,1,2172.8999996185303,477008.0,9004,brutal,AF,B,474695,474695,472972,473979,472972,475145,474495,474495,475145,128
