Number,acc_sum,block,block_c,block_cond,con_img,correct,correct_response,datetime,endtime,jitter,project,response,response_time,row_sel,session_number,start_end,starttime,subject_id,task,task_vers,trial
7,1,prac,1,A,circle.png,1,m,Fri Feb 28 2025 09:30:46 GMT-0600 (Central Standard Time),117809.30000001192,1700,O,m,1284,6,1,3772.699999988079,114036.60000002384,7069,NTS,B,1
7,2,prac,1,A,circle.png,1,m,Fri Feb 28 2025 09:30:46 GMT-0600 (Central Standard Time),121021.70000004768,1700,O,m,727,6,1,3205.0,117816.70000004768,7069,NTS,B,2
2,3,prac,1,A,circle.png,1,z,Fri Feb 28 2025 09:30:46 GMT-0600 (Central Standard Time),124490.20000004768,2000,O,z,677,2,1,3455.600000023842,121034.60000002384,7069,NTS,B,3
8,4,prac,1,A,circle.png,1,m,Fri Feb 28 2025 09:30:46 GMT-0600 (Central Standard Time),127722.0,1600,O,m,843,7,1,3223.599999964237,124498.40000003576,7069,NTS,B,4
6,5,prac,1,A,circle.png,1,m,Fri Feb 28 2025 09:30:46 GMT-0600 (Central Standard Time),131305.30000001192,1900,O,m,909,5,1,3576.599999964237,127728.70000004768,7069,NTS,B,5
1,6,prac,1,A,circle.png,1,z,Fri Feb 28 2025 09:30:46 GMT-0600 (Central Standard Time),133773.0,1000,O,z,692,1,1,2460.199999988079,131312.80000001192,7069,NTS,B,6
1,7,prac,1,A,circle.png,1,z,Fri Feb 28 2025 09:30:46 GMT-0600 (Central Standard Time),136270.5,1000,O,z,705,1,1,2490.399999976158,133780.10000002384,7069,NTS,B,7
3,8,prac,1,A,circle.png,1,z,Fri Feb 28 2025 09:30:46 GMT-0600 (Central Standard Time),139117.80000001192,1200,O,z,864,3,1,2839.199999988079,136278.60000002384,7069,NTS,B,8
3,9,prac,1,A,circle.png,1,z,Fri Feb 28 2025 09:30:46 GMT-0600 (Central Standard Time),141685.60000002384,1200,O,z,572,3,1,2560.300000011921,139125.30000001192,7069,NTS,B,9
9,10,prac,1,A,circle.png,1,m,Fri Feb 28 2025 09:30:46 GMT-0600 (Central Standard Time),144668.70000004768,1500,O,m,699,8,1,2977.0,141691.70000004768,7069,NTS,B,10
4,11,prac,1,A,circle.png,1,z,Fri Feb 28 2025 09:30:46 GMT-0600 (Central Standard Time),147550.80000001192,1400,O,z,705,4,1,2875.0,144675.80000001192,7069,NTS,B,11
4,12,prac,1,A,circle.png,1,z,Fri Feb 28 2025 09:30:46 GMT-0600 (Central Standard Time),150615.70000004768,1400,O,z,893,4,1,3057.7000000476837,147558.0,7069,NTS,B,12
3,0,prac,1,B,triangle.png,0,z,Fri Feb 28 2025 09:30:46 GMT-0600 (Central Standard Time),195531.70000004768,1600,O,None,1517,3,1,3893.5,191638.20000004768,7069,NTS,B,1
6,0,prac,1,B,triangle.png,0,m,Fri Feb 28 2025 09:30:46 GMT-0600 (Central Standard Time),198815.20000004768,1000,O,None,1501,5,1,3278.5,195536.70000004768,7069,NTS,B,2
1,0,prac,1,B,triangle.png,0,z,Fri Feb 28 2025 09:30:46 GMT-0600 (Central Standard Time),203014.5,1900,O,None,1514,1,1,4195.099999964237,198819.40000003576,7069,NTS,B,3
7,1,prac,1,B,triangle.png,1,z,Fri Feb 28 2025 09:30:46 GMT-0600 (Central Standard Time),206496.90000003576,2000,O,z,685,6,1,3474.900000035763,203022.0,7069,NTS,B,4
9,2,prac,1,B,triangle.png,1,z,Fri Feb 28 2025 09:30:46 GMT-0600 (Central Standard Time),209497.60000002384,1400,O,z,817,8,1,2992.0,206505.60000002384,7069,NTS,B,5
8,3,prac,1,B,triangle.png,1,m,Fri Feb 28 2025 09:30:46 GMT-0600 (Central Standard Time),212280.0,1200,O,m,787,7,1,2775.599999964237,209504.40000003576,7069,NTS,B,6
2,4,prac,1,B,triangle.png,1,m,Fri Feb 28 2025 09:30:46 GMT-0600 (Central Standard Time),215661.80000001192,1700,O,m,887,2,1,3373.899999976158,212287.90000003576,7069,NTS,B,7
4,5,prac,1,B,triangle.png,1,m,Fri Feb 28 2025 09:30:46 GMT-0600 (Central Standard Time),218626.80000001192,1500,O,m,666,4,1,2957.899999976158,215668.90000003576,7069,NTS,B,8
7,6,prac,1,B,triangle.png,1,z,Fri Feb 28 2025 09:30:46 GMT-0600 (Central Standard Time),222109.0,2000,O,z,700,6,1,3476.2999999523163,218632.70000004768,7069,NTS,B,9
6,7,prac,1,B,triangle.png,1,m,Fri Feb 28 2025 09:30:46 GMT-0600 (Central Standard Time),225124.60000002384,1000,O,m,1223,5,1,3008.300000011921,222116.30000001192,7069,NTS,B,10
1,8,prac,1,B,triangle.png,1,z,Fri Feb 28 2025 09:30:46 GMT-0600 (Central Standard Time),228889.90000003576,1900,O,z,1076,1,1,3757.199999988079,225132.70000004768,7069,NTS,B,11
2,9,prac,1,B,triangle.png,1,m,Fri Feb 28 2025 09:30:46 GMT-0600 (Central Standard Time),232206.20000004768,1700,O,m,815,2,1,3310.100000023842,228896.10000002384,7069,NTS,B,12
3,1,test,1,A,circle.png,1,z,Fri Feb 28 2025 09:30:46 GMT-0600 (Central Standard Time),267461.90000003576,1200,O,z,912,3,1,2127.800000011921,265334.10000002384,7069,NTS,B,1
9,2,test,1,A,circle.png,1,m,Fri Feb 28 2025 09:30:46 GMT-0600 (Central Standard Time),269543.5,1500,O,m,565,8,1,2075.0,267468.5,7069,NTS,B,2
6,3,test,1,A,circle.png,1,m,Fri Feb 28 2025 09:30:46 GMT-0600 (Central Standard Time),272309.5,1900,O,m,847,5,1,2761.2999999523163,269548.2000000477,7069,NTS,B,3
7,4,test,1,A,circle.png,1,m,Fri Feb 28 2025 09:30:46 GMT-0600 (Central Standard Time),274776.40000003576,1700,O,m,733,6,1,2462.0,272314.40000003576,7069,NTS,B,4
8,5,test,1,A,circle.png,1,m,Fri Feb 28 2025 09:30:46 GMT-0600 (Central Standard Time),277024.5,1600,O,m,630,7,1,2240.5,274784.0,7069,NTS,B,5
9,6,test,1,A,circle.png,1,m,Fri Feb 28 2025 09:30:46 GMT-0600 (Central Standard Time),279074.40000003576,1500,O,m,517,8,1,2043.300000011921,277031.10000002384,7069,NTS,B,6
1,7,test,1,A,circle.png,1,z,Fri Feb 28 2025 09:30:46 GMT-0600 (Central Standard Time),280674.40000003576,1000,O,z,567,1,1,1592.300000011921,279082.10000002384,7069,NTS,B,7
9,8,test,1,A,circle.png,1,m,Fri Feb 28 2025 09:30:46 GMT-0600 (Central Standard Time),282924.0,1500,O,m,719,8,1,2243.7999999523163,280680.2000000477,7069,NTS,B,8
4,9,test,1,A,circle.png,1,z,Fri Feb 28 2025 09:30:46 GMT-0600 (Central Standard Time),285024.3000000119,1400,O,z,685,4,1,2093.0,282931.3000000119,7069,NTS,B,9
1,10,test,1,A,circle.png,1,z,Fri Feb 28 2025 09:30:46 GMT-0600 (Central Standard Time),286806.90000003576,1000,O,z,749,1,1,1775.699999988079,285031.2000000477,7069,NTS,B,10
7,11,test,1,A,circle.png,1,m,Fri Feb 28 2025 09:30:46 GMT-0600 (Central Standard Time),289354.3000000119,1700,O,m,828,6,1,2542.399999976158,286811.90000003576,7069,NTS,B,11
1,12,test,1,A,circle.png,1,z,Fri Feb 28 2025 09:30:46 GMT-0600 (Central Standard Time),291021.5,1000,O,z,632,1,1,1659.3999999761581,289362.10000002384,7069,NTS,B,12
3,13,test,1,A,circle.png,1,z,Fri Feb 28 2025 09:30:46 GMT-0600 (Central Standard Time),293003.90000003576,1200,O,z,751,3,1,1975.800000011921,291028.10000002384,7069,NTS,B,13
7,14,test,1,A,circle.png,1,m,Fri Feb 28 2025 09:30:46 GMT-0600 (Central Standard Time),295686.8000000119,1700,O,m,955,6,1,2676.300000011921,293010.5,7069,NTS,B,14
2,15,test,1,A,circle.png,1,z,Fri Feb 28 2025 09:30:46 GMT-0600 (Central Standard Time),298485.10000002384,2000,O,z,767,2,1,2790.5,295694.60000002384,7069,NTS,B,15
6,16,test,1,A,circle.png,1,m,Fri Feb 28 2025 09:30:46 GMT-0600 (Central Standard Time),301134.0,1900,O,m,716,5,1,2644.2999999523163,298489.7000000477,7069,NTS,B,16
8,17,test,1,A,circle.png,1,m,Fri Feb 28 2025 09:30:46 GMT-0600 (Central Standard Time),303535.0,1600,O,m,784,7,1,2393.399999976158,301141.60000002384,7069,NTS,B,17
2,18,test,1,A,circle.png,1,z,Fri Feb 28 2025 09:30:46 GMT-0600 (Central Standard Time),306282.0,2000,O,z,726,2,1,2742.0,303540.0,7069,NTS,B,18
6,19,test,1,A,circle.png,1,m,Fri Feb 28 2025 09:30:46 GMT-0600 (Central Standard Time),308982.60000002384,1900,O,m,775,5,1,2696.300000011921,306286.3000000119,7069,NTS,B,19
9,20,test,1,A,circle.png,1,m,Fri Feb 28 2025 09:30:46 GMT-0600 (Central Standard Time),311264.2000000477,1500,O,m,749,8,1,2277.300000011921,308986.90000003576,7069,NTS,B,20
8,21,test,1,A,circle.png,1,m,Fri Feb 28 2025 09:30:46 GMT-0600 (Central Standard Time),313601.90000003576,1600,O,m,705,7,1,2331.300000011921,311270.60000002384,7069,NTS,B,21
8,22,test,1,A,circle.png,1,m,Fri Feb 28 2025 09:30:46 GMT-0600 (Central Standard Time),315795.2000000477,1600,O,m,576,7,1,2190.7000000476837,313604.5,7069,NTS,B,22
2,23,test,1,A,circle.png,1,z,Fri Feb 28 2025 09:30:46 GMT-0600 (Central Standard Time),318478.60000002384,2000,O,z,661,2,1,2679.5,315799.10000002384,7069,NTS,B,23
4,24,test,1,A,circle.png,1,z,Fri Feb 28 2025 09:30:46 GMT-0600 (Central Standard Time),320694.3000000119,1400,O,z,797,4,1,2212.800000011921,318481.5,7069,NTS,B,24
6,1,test,1,B,triangle.png,1,m,Fri Feb 28 2025 09:30:46 GMT-0600 (Central Standard Time),345685.7000000477,1000,O,m,655,5,1,1677.2000000476837,344008.5,7069,NTS,B,1
8,2,test,1,B,triangle.png,1,m,Fri Feb 28 2025 09:30:46 GMT-0600 (Central Standard Time),347651.5,1200,O,m,742,7,1,1961.699999988079,345689.8000000119,7069,NTS,B,2
6,3,test,1,B,triangle.png,1,m,Fri Feb 28 2025 09:30:46 GMT-0600 (Central Standard Time),349819.0,1500,O,m,645,13,1,2163.7999999523163,347655.2000000477,7069,NTS,B,3
2,4,test,1,B,triangle.png,1,m,Fri Feb 28 2025 09:30:46 GMT-0600 (Central Standard Time),352285.40000003576,1700,O,m,749,2,1,2462.100000023842,349823.3000000119,7069,NTS,B,4
3,5,test,1,B,triangle.png,1,z,Fri Feb 28 2025 09:30:46 GMT-0600 (Central Standard Time),354449.90000003576,1600,O,z,535,3,1,2159.699999988079,352290.2000000477,7069,NTS,B,5
4,6,test,1,B,triangle.png,1,m,Fri Feb 28 2025 09:30:46 GMT-0600 (Central Standard Time),356065.10000002384,1000,O,m,594,12,1,1611.300000011921,354453.8000000119,7069,NTS,B,6
2,7,test,1,B,triangle.png,1,m,Fri Feb 28 2025 09:30:46 GMT-0600 (Central Standard Time),358448.5,1200,O,m,1152,10,1,2380.099999964237,356068.40000003576,7069,NTS,B,7
9,8,test,1,B,triangle.png,1,z,Fri Feb 28 2025 09:30:46 GMT-0600 (Central Standard Time),360750.5,1400,O,z,874,8,1,2298.699999988079,358451.8000000119,7069,NTS,B,8
1,9,test,1,B,triangle.png,1,z,Fri Feb 28 2025 09:30:46 GMT-0600 (Central Standard Time),362847.3000000119,1400,O,z,671,9,1,2093.099999964237,360754.2000000477,7069,NTS,B,9
7,10,test,1,B,triangle.png,1,z,Fri Feb 28 2025 09:30:46 GMT-0600 (Central Standard Time),365630.10000002384,2000,O,z,749,6,1,2777.800000011921,362852.3000000119,7069,NTS,B,10
8,11,test,1,B,triangle.png,1,m,Fri Feb 28 2025 09:30:46 GMT-0600 (Central Standard Time),367579.10000002384,1200,O,m,719,7,1,1943.800000011921,365635.3000000119,7069,NTS,B,11
4,12,test,1,B,triangle.png,1,m,Fri Feb 28 2025 09:30:46 GMT-0600 (Central Standard Time),369979.10000002384,1500,O,m,878,4,1,2395.5,367583.60000002384,7069,NTS,B,12
8,13,test,1,B,triangle.png,1,m,Fri Feb 28 2025 09:30:46 GMT-0600 (Central Standard Time),372377.90000003576,1700,O,m,677,15,1,2394.199999988079,369983.7000000477,7069,NTS,B,13
3,14,test,1,B,triangle.png,1,z,Fri Feb 28 2025 09:30:46 GMT-0600 (Central Standard Time),375109.90000003576,2000,O,z,707,11,1,2726.699999988079,372383.2000000477,7069,NTS,B,14
6,15,test,1,B,triangle.png,1,m,Fri Feb 28 2025 09:30:46 GMT-0600 (Central Standard Time),377375.8000000119,1500,O,m,738,13,1,2261.599999964237,375114.2000000477,7069,NTS,B,15
1,16,test,1,B,triangle.png,1,z,Fri Feb 28 2025 09:30:46 GMT-0600 (Central Standard Time),379525.2000000477,1400,O,z,724,9,1,2145.0,377380.2000000477,7069,NTS,B,16
7,17,test,1,B,triangle.png,1,z,Fri Feb 28 2025 09:30:46 GMT-0600 (Central Standard Time),382224.0,1600,O,z,1072,14,1,2694.199999988079,379529.8000000119,7069,NTS,B,17
1,18,test,1,B,triangle.png,1,z,Fri Feb 28 2025 09:30:46 GMT-0600 (Central Standard Time),384906.7000000477,1900,O,z,762,1,1,2677.5,382229.2000000477,7069,NTS,B,18
8,19,test,1,B,triangle.png,1,m,Fri Feb 28 2025 09:30:46 GMT-0600 (Central Standard Time),387272.5,1700,O,m,645,15,1,2361.7999999523163,384910.7000000477,7069,NTS,B,19
9,20,test,1,B,triangle.png,1,z,Fri Feb 28 2025 09:30:46 GMT-0600 (Central Standard Time),390039.8000000119,1900,O,z,849,16,1,2762.899999976158,387276.90000003576,7069,NTS,B,20
9,21,test,1,B,triangle.png,1,z,Fri Feb 28 2025 09:30:46 GMT-0600 (Central Standard Time),393170.0,1900,O,z,1201,16,1,3125.2999999523163,390044.7000000477,7069,NTS,B,21
7,22,test,1,B,triangle.png,1,z,Fri Feb 28 2025 09:30:46 GMT-0600 (Central Standard Time),395421.0,1600,O,z,622,14,1,2244.699999988079,393176.3000000119,7069,NTS,B,22
2,23,test,1,B,triangle.png,1,m,Fri Feb 28 2025 09:30:46 GMT-0600 (Central Standard Time),397903.2000000477,1700,O,m,751,2,1,2478.600000023842,395424.60000002384,7069,NTS,B,23
6,24,test,1,B,triangle.png,1,m,Fri Feb 28 2025 09:30:46 GMT-0600 (Central Standard Time),399688.60000002384,1000,O,m,767,5,1,1778.3999999761581,397910.2000000477,7069,NTS,B,24
6,1,prac,1,C,circle.png,1,m,Fri Feb 28 2025 09:30:46 GMT-0600 (Central Standard Time),495539.10000002384,2000,O,m,917,5,1,3691.5,491847.60000002384,7069,NTS,B,1
3,2,prac,1,C,triangle.png,1,z,Fri Feb 28 2025 09:30:46 GMT-0600 (Central Standard Time),498903.90000003576,1500,O,z,1069,3,1,3358.300000011921,495545.60000002384,7069,NTS,B,2
4,2,prac,1,C,circle.png,0,z,Fri Feb 28 2025 09:30:46 GMT-0600 (Central Standard Time),501507.60000002384,1000,O,m,820,4,1,2595.300000011921,498912.3000000119,7069,NTS,B,3
1,3,prac,1,C,circle.png,1,z,Fri Feb 28 2025 09:30:46 GMT-0600 (Central Standard Time),505401.5,1700,O,z,1399,1,1,3890.199999988079,501511.3000000119,7069,NTS,B,4
8,3,prac,1,C,triangle.png,0,m,Fri Feb 28 2025 09:30:46 GMT-0600 (Central Standard Time),509101.3000000119,1400,O,None,1517,7,1,3692.5,505408.8000000119,7069,NTS,B,5
1,4,prac,1,C,circle.png,1,z,Fri Feb 28 2025 09:30:46 GMT-0600 (Central Standard Time),512852.10000002384,1700,O,z,1267,1,1,3743.100000023842,509109.0,7069,NTS,B,6
9,4,prac,1,C,circle.png,0,m,Fri Feb 28 2025 09:30:46 GMT-0600 (Central Standard Time),517047.60000002384,1900,O,None,1516,8,1,4190.100000023842,512857.5,7069,NTS,B,7
8,4,prac,1,C,triangle.png,0,m,Fri Feb 28 2025 09:30:46 GMT-0600 (Central Standard Time),520747.3000000119,1400,O,None,1514,7,1,3689.800000011921,517057.5,7069,NTS,B,8
7,5,prac,1,C,triangle.png,1,z,Fri Feb 28 2025 09:30:46 GMT-0600 (Central Standard Time),523695.2000000477,1200,O,z,960,6,1,2938.100000023842,520757.10000002384,7069,NTS,B,9
2,6,prac,1,C,triangle.png,1,m,Fri Feb 28 2025 09:30:46 GMT-0600 (Central Standard Time),527445.9000000358,1600,O,m,1355,2,1,3747.100000023842,523698.8000000119,7069,NTS,B,10
6,7,prac,1,C,circle.png,1,m,Fri Feb 28 2025 09:30:46 GMT-0600 (Central Standard Time),531176.4000000358,2000,O,m,936,5,1,3721.5,527454.9000000358,7069,NTS,B,11
2,7,prac,1,C,triangle.png,0,m,Fri Feb 28 2025 09:30:46 GMT-0600 (Central Standard Time),534642.6000000238,1600,O,z,1082,2,1,3452.600000023842,531190.0,7069,NTS,B,12
9,1,prac,2,C,circle.png,1,m,Fri Feb 28 2025 09:30:46 GMT-0600 (Central Standard Time),545340.2000000477,1900,O,m,1431,8,1,4125.0,541215.2000000477,7069,NTS,B,1
2,2,prac,2,C,triangle.png,1,m,Fri Feb 28 2025 09:30:46 GMT-0600 (Central Standard Time),548889.0,1600,O,m,1168,2,1,3542.699999988079,545346.3000000119,7069,NTS,B,2
3,3,prac,2,C,triangle.png,1,z,Fri Feb 28 2025 09:30:46 GMT-0600 (Central Standard Time),552587.4000000358,1500,O,z,1408,3,1,3691.699999988079,548895.7000000477,7069,NTS,B,3
6,4,prac,2,C,circle.png,1,m,Fri Feb 28 2025 09:30:46 GMT-0600 (Central Standard Time),556302.7000000477,2000,O,m,931,5,1,3708.800000011921,552593.9000000358,7069,NTS,B,4
7,5,prac,2,C,triangle.png,1,z,Fri Feb 28 2025 09:30:46 GMT-0600 (Central Standard Time),559635.0,1200,O,z,1348,6,1,3325.599999964237,556309.4000000358,7069,NTS,B,5
1,6,prac,2,C,circle.png,1,z,Fri Feb 28 2025 09:30:46 GMT-0600 (Central Standard Time),563584.1000000238,1700,O,z,1477,1,1,3942.300000011921,559641.8000000119,7069,NTS,B,6
7,7,prac,2,C,triangle.png,1,z,Fri Feb 28 2025 09:30:46 GMT-0600 (Central Standard Time),566999.5,1200,O,z,1421,6,1,3408.099999964237,563591.4000000358,7069,NTS,B,7
6,8,prac,2,C,circle.png,1,m,Fri Feb 28 2025 09:30:46 GMT-0600 (Central Standard Time),570748.3000000119,2000,O,m,966,5,1,3743.899999976158,567004.4000000358,7069,NTS,B,8
4,9,prac,2,C,circle.png,1,z,Fri Feb 28 2025 09:30:46 GMT-0600 (Central Standard Time),573364.8000000119,1000,O,z,830,4,1,2607.5,570757.3000000119,7069,NTS,B,9
4,10,prac,2,C,circle.png,1,z,Fri Feb 28 2025 09:30:46 GMT-0600 (Central Standard Time),576464.0,1000,O,z,1304,4,1,3092.0,573372.0,7069,NTS,B,10
8,10,prac,2,C,triangle.png,0,m,Fri Feb 28 2025 09:30:46 GMT-0600 (Central Standard Time),580160.8000000119,1400,O,None,1515,7,1,3688.300000011921,576472.5,7069,NTS,B,11
2,11,prac,2,C,triangle.png,1,m,Fri Feb 28 2025 09:30:46 GMT-0600 (Central Standard Time),583477.6000000238,1600,O,m,921,2,1,3310.399999976158,580167.2000000477,7069,NTS,B,12
6,1,test,1,C,triangle.png,1,m,Fri Feb 28 2025 09:30:46 GMT-0600 (Central Standard Time),610286.4000000358,1000,O,m,1299,13,1,2312.5,607973.9000000358,7069,NTS,B,1
3,2,test,1,C,circle.png,1,z,Fri Feb 28 2025 09:30:46 GMT-0600 (Central Standard Time),613333.6000000238,1600,O,z,1424,11,1,3041.100000023842,610292.5,7069,NTS,B,2
7,2,test,1,C,triangle.png,0,z,Fri Feb 28 2025 09:30:46 GMT-0600 (Central Standard Time),616533.9000000358,1700,O,m,1474,22,1,3195.699999988079,613338.2000000477,7069,NTS,B,3
1,3,test,1,C,triangle.png,1,z,Fri Feb 28 2025 09:30:46 GMT-0600 (Central Standard Time),619463.7000000477,1900,O,z,1003,9,1,2925.900000035763,616537.8000000119,7069,NTS,B,4
4,4,test,1,C,triangle.png,1,m,Fri Feb 28 2025 09:30:46 GMT-0600 (Central Standard Time),622131.1000000238,1500,O,m,1142,20,1,2662.899999976158,619468.2000000477,7069,NTS,B,5
3,5,test,1,C,triangle.png,1,z,Fri Feb 28 2025 09:30:46 GMT-0600 (Central Standard Time),624647.4000000358,1200,O,z,1288,3,1,2510.600000023842,622136.8000000119,7069,NTS,B,6
4,6,test,1,C,triangle.png,1,m,Fri Feb 28 2025 09:30:46 GMT-0600 (Central Standard Time),627031.0,1500,O,m,866,12,1,2374.5,624656.5,7069,NTS,B,7
4,7,test,1,C,circle.png,1,z,Fri Feb 28 2025 09:30:46 GMT-0600 (Central Standard Time),629261.6000000238,1400,O,z,807,4,1,2225.600000023842,627036.0,7069,NTS,B,8
8,8,test,1,C,triangle.png,1,m,Fri Feb 28 2025 09:30:46 GMT-0600 (Central Standard Time),631812.6000000238,1600,O,m,926,23,1,2547.5,629265.1000000238,7069,NTS,B,9
9,8,test,1,C,circle.png,0,m,Fri Feb 28 2025 09:30:46 GMT-0600 (Central Standard Time),634845.5,1500,O,None,1517,24,1,3027.7999999523163,631817.7000000477,7069,NTS,B,10
9,9,test,1,C,circle.png,1,m,Fri Feb 28 2025 09:30:46 GMT-0600 (Central Standard Time),637360.1000000238,1500,O,m,997,8,1,2508.5,634851.6000000238,7069,NTS,B,11
8,10,test,1,C,circle.png,1,m,Fri Feb 28 2025 09:30:46 GMT-0600 (Central Standard Time),639893.4000000358,1200,O,m,1308,15,1,2521.600000023842,637371.8000000119,7069,NTS,B,12
6,11,test,1,C,circle.png,1,m,Fri Feb 28 2025 09:30:46 GMT-0600 (Central Standard Time),642692.3000000119,1900,O,m,877,5,1,2793.199999988079,639899.1000000238,7069,NTS,B,13
3,11,test,1,C,circle.png,0,z,Fri Feb 28 2025 09:30:46 GMT-0600 (Central Standard Time),645441.1000000238,1600,O,m,1122,19,1,2744.5,642696.6000000238,7069,NTS,B,14
6,12,test,1,C,circle.png,1,m,Fri Feb 28 2025 09:30:46 GMT-0600 (Central Standard Time),648323.0,1900,O,m,958,21,1,2876.0,645447.0,7069,NTS,B,15
7,13,test,1,C,triangle.png,1,z,Fri Feb 28 2025 09:30:46 GMT-0600 (Central Standard Time),651089.7000000477,1700,O,z,1033,6,1,2762.300000011921,648327.4000000358,7069,NTS,B,16
2,13,test,1,C,circle.png,0,z,Fri Feb 28 2025 09:30:46 GMT-0600 (Central Standard Time),654005.4000000358,1700,O,m,1190,18,1,2910.400000035763,651095.0,7069,NTS,B,17
2,14,test,1,C,triangle.png,1,m,Fri Feb 28 2025 09:30:46 GMT-0600 (Central Standard Time),657238.5,2000,O,m,1199,2,1,3228.199999988079,654010.3000000119,7069,NTS,B,18
2,15,test,1,C,circle.png,1,z,Fri Feb 28 2025 09:30:46 GMT-0600 (Central Standard Time),660103.8000000119,1700,O,z,1151,10,1,2859.599999964237,657244.2000000477,7069,NTS,B,19
9,16,test,1,C,triangle.png,1,z,Fri Feb 28 2025 09:30:46 GMT-0600 (Central Standard Time),662902.2000000477,1400,O,z,1373,16,1,2791.7000000476837,660110.5,7069,NTS,B,20
1,17,test,1,C,circle.png,1,z,Fri Feb 28 2025 09:30:46 GMT-0600 (Central Standard Time),664984.5,1000,O,z,1061,1,1,2074.7999999523163,662909.7000000477,7069,NTS,B,21
7,17,test,1,C,circle.png,0,m,Fri Feb 28 2025 09:30:46 GMT-0600 (Central Standard Time),668284.2000000477,2000,O,z,1267,14,1,3294.900000035763,664989.3000000119,7069,NTS,B,22
8,18,test,1,C,triangle.png,1,m,Fri Feb 28 2025 09:30:46 GMT-0600 (Central Standard Time),671265.0,1600,O,m,1360,7,1,2975.7999999523163,668289.2000000477,7069,NTS,B,23
1,19,test,1,C,triangle.png,1,z,Fri Feb 28 2025 09:30:46 GMT-0600 (Central Standard Time),674599.4000000358,1900,O,z,1415,17,1,3330.199999988079,671269.2000000477,7069,NTS,B,24
8,0,test,2,C,triangle.png,0,m,Fri Feb 28 2025 09:30:46 GMT-0600 (Central Standard Time),685078.2000000477,1600,O,z,1038,7,1,2661.900000035763,682416.3000000119,7069,NTS,B,1
1,1,test,2,C,triangle.png,1,z,Fri Feb 28 2025 09:30:46 GMT-0600 (Central Standard Time),687960.1000000238,1900,O,z,963,9,1,2877.800000011921,685082.3000000119,7069,NTS,B,2
9,2,test,2,C,triangle.png,1,z,Fri Feb 28 2025 09:30:46 GMT-0600 (Central Standard Time),690558.7000000477,1400,O,z,1177,16,1,2594.100000023842,687964.6000000238,7069,NTS,B,3
7,2,test,2,C,circle.png,0,m,Fri Feb 28 2025 09:30:46 GMT-0600 (Central Standard Time),694093.0,2000,O,None,1516,14,1,3528.5,690564.5,7069,NTS,B,4
2,3,test,2,C,circle.png,1,z,Fri Feb 28 2025 09:30:46 GMT-0600 (Central Standard Time),697140.7000000477,1700,O,z,1324,10,1,3043.2000000476837,694097.5,7069,NTS,B,5
2,4,test,2,C,triangle.png,1,m,Fri Feb 28 2025 09:30:46 GMT-0600 (Central Standard Time),700473.9000000358,2000,O,m,1303,2,1,3328.699999988079,697145.2000000477,7069,NTS,B,6
6,4,test,2,C,circle.png,0,m,Fri Feb 28 2025 09:30:46 GMT-0600 (Central Standard Time),703904.9000000358,1900,O,None,1515,5,1,3421.800000011921,700483.1000000238,7069,NTS,B,7
4,5,test,2,C,circle.png,1,z,Fri Feb 28 2025 09:30:46 GMT-0600 (Central Standard Time),706587.5,1400,O,z,1251,4,1,2675.899999976158,703911.6000000238,7069,NTS,B,8
9,5,test,2,C,triangle.png,0,z,Fri Feb 28 2025 09:30:46 GMT-0600 (Central Standard Time),709337.2000000477,1400,O,m,1319,24,1,2743.900000035763,706593.3000000119,7069,NTS,B,9
4,6,test,2,C,triangle.png,1,m,Fri Feb 28 2025 09:30:46 GMT-0600 (Central Standard Time),712218.9000000358,1500,O,m,1351,12,1,2876.699999988079,709342.2000000477,7069,NTS,B,10
1,7,test,2,C,circle.png,1,z,Fri Feb 28 2025 09:30:46 GMT-0600 (Central Standard Time),714702.8000000119,1000,O,z,1465,1,1,2477.5,712225.3000000119,7069,NTS,B,11
6,8,test,2,C,triangle.png,1,m,Fri Feb 28 2025 09:30:46 GMT-0600 (Central Standard Time),717217.7000000477,1000,O,m,1492,13,1,2509.300000011921,714708.4000000358,7069,NTS,B,12
9,9,test,2,C,circle.png,1,m,Fri Feb 28 2025 09:30:46 GMT-0600 (Central Standard Time),720034.3000000119,1500,O,m,1287,8,1,2813.099999964237,717221.2000000477,7069,NTS,B,13
8,10,test,2,C,circle.png,1,m,Fri Feb 28 2025 09:30:46 GMT-0600 (Central Standard Time),722702.4000000358,1200,O,m,1451,23,1,2663.0,720039.4000000358,7069,NTS,B,14
3,11,test,2,C,circle.png,1,z,Fri Feb 28 2025 09:30:46 GMT-0600 (Central Standard Time),725114.8000000119,1600,O,z,784,11,1,2408.699999988079,722706.1000000238,7069,NTS,B,15
7,12,test,2,C,triangle.png,1,z,Fri Feb 28 2025 09:30:46 GMT-0600 (Central Standard Time),728263.4000000358,1700,O,z,1430,6,1,3143.699999988079,725119.7000000477,7069,NTS,B,16
3,13,test,2,C,circle.png,1,z,Fri Feb 28 2025 09:30:46 GMT-0600 (Central Standard Time),730965.9000000358,1600,O,z,1084,19,1,2696.5,728269.4000000358,7069,NTS,B,17
7,13,test,2,C,circle.png,0,m,Fri Feb 28 2025 09:30:46 GMT-0600 (Central Standard Time),734012.6000000238,2000,O,z,1026,22,1,3041.399999976158,730971.2000000477,7069,NTS,B,18
6,13,test,2,C,triangle.png,0,m,Fri Feb 28 2025 09:30:46 GMT-0600 (Central Standard Time),736530.8000000119,1000,O,None,1502,21,1,2513.699999988079,734017.1000000238,7069,NTS,B,19
8,14,test,2,C,circle.png,1,m,Fri Feb 28 2025 09:30:46 GMT-0600 (Central Standard Time),739027.6000000238,1200,O,m,1277,15,1,2493.600000023842,736534.0,7069,NTS,B,20
3,15,test,2,C,triangle.png,1,z,Fri Feb 28 2025 09:30:46 GMT-0600 (Central Standard Time),741244.2000000477,1200,O,z,983,3,1,2212.0,739032.2000000477,7069,NTS,B,21
2,15,test,2,C,circle.png,0,z,Fri Feb 28 2025 09:30:46 GMT-0600 (Central Standard Time),744042.9000000358,1700,O,m,1067,18,1,2793.699999988079,741249.2000000477,7069,NTS,B,22
1,16,test,2,C,triangle.png,1,z,Fri Feb 28 2025 09:30:46 GMT-0600 (Central Standard Time),747291.3000000119,1900,O,z,1317,17,1,3243.599999964237,744047.7000000477,7069,NTS,B,23
4,17,test,2,C,triangle.png,1,m,Fri Feb 28 2025 09:30:46 GMT-0600 (Central Standard Time),749958.7000000477,1500,O,m,1150,20,1,2662.2000000476837,747296.5,7069,NTS,B,24
8,1,test,3,C,triangle.png,1,m,Fri Feb 28 2025 09:30:46 GMT-0600 (Central Standard Time),771118.3000000119,1600,O,m,905,23,1,2528.599999964237,768589.7000000477,7069,NTS,B,1
1,2,test,3,C,circle.png,1,z,Fri Feb 28 2025 09:30:46 GMT-0600 (Central Standard Time),773250.4000000358,1000,O,z,1103,1,1,2129.0,771121.4000000358,7069,NTS,B,2
4,3,test,3,C,circle.png,1,z,Fri Feb 28 2025 09:30:46 GMT-0600 (Central Standard Time),775864.7000000477,1400,O,z,1195,4,1,2610.400000035763,773254.3000000119,7069,NTS,B,3
7,4,test,3,C,circle.png,1,m,Fri Feb 28 2025 09:30:46 GMT-0600 (Central Standard Time),779184.3000000119,2000,O,m,1300,14,1,3315.399999976158,775868.9000000358,7069,NTS,B,4
2,5,test,3,C,triangle.png,1,m,Fri Feb 28 2025 09:30:46 GMT-0600 (Central Standard Time),782565.3000000119,2000,O,m,1365,2,1,3375.5,779189.8000000119,7069,NTS,B,5
6,6,test,3,C,triangle.png,1,m,Fri Feb 28 2025 09:30:46 GMT-0600 (Central Standard Time),784330.4000000358,1000,O,m,738,13,1,1759.6000000238419,782570.8000000119,7069,NTS,B,6
7,7,test,3,C,triangle.png,1,z,Fri Feb 28 2025 09:30:46 GMT-0600 (Central Standard Time),786831.0,1700,O,z,775,22,1,2492.599999964237,784338.4000000358,7069,NTS,B,7
4,8,test,3,C,triangle.png,1,m,Fri Feb 28 2025 09:30:46 GMT-0600 (Central Standard Time),789311.2000000477,1500,O,m,956,12,1,2475.2000000476837,786836.0,7069,NTS,B,8
6,9,test,3,C,circle.png,1,m,Fri Feb 28 2025 09:30:46 GMT-0600 (Central Standard Time),792010.9000000358,1900,O,m,769,5,1,2695.100000023842,789315.8000000119,7069,NTS,B,9
2,10,test,3,C,circle.png,1,z,Fri Feb 28 2025 09:30:46 GMT-0600 (Central Standard Time),794976.2000000477,1700,O,z,1237,10,1,2961.0,792015.2000000477,7069,NTS,B,10
8,11,test,3,C,circle.png,1,m,Fri Feb 28 2025 09:30:46 GMT-0600 (Central Standard Time),797008.2000000477,1200,O,m,803,15,1,2026.2000000476837,794982.0,7069,NTS,B,11
4,12,test,3,C,circle.png,1,z,Fri Feb 28 2025 09:30:46 GMT-0600 (Central Standard Time),799490.9000000358,1400,O,z,1050,20,1,2478.699999988079,797012.2000000477,7069,NTS,B,12
2,13,test,3,C,triangle.png,1,m,Fri Feb 28 2025 09:30:46 GMT-0600 (Central Standard Time),802524.0,2000,O,m,1000,18,1,3027.099999964237,799496.9000000358,7069,NTS,B,13
9,13,test,3,C,circle.png,0,m,Fri Feb 28 2025 09:30:46 GMT-0600 (Central Standard Time),805440.5,1500,O,z,1399,8,1,2911.599999964237,802528.9000000358,7069,NTS,B,14
6,13,test,3,C,circle.png,0,m,Fri Feb 28 2025 09:30:46 GMT-0600 (Central Standard Time),808872.8000000119,1900,O,None,1517,21,1,3424.699999988079,805448.1000000238,7069,NTS,B,15
1,14,test,3,C,circle.png,1,z,Fri Feb 28 2025 09:30:46 GMT-0600 (Central Standard Time),810721.5,1000,O,z,829,17,1,1840.5999999642372,808880.9000000358,7069,NTS,B,16
3,15,test,3,C,triangle.png,1,z,Fri Feb 28 2025 09:30:46 GMT-0600 (Central Standard Time),813403.0,1200,O,z,1458,3,1,2677.399999976158,810725.6000000238,7069,NTS,B,17
9,16,test,3,C,circle.png,1,m,Fri Feb 28 2025 09:30:46 GMT-0600 (Central Standard Time),816253.8000000119,1500,O,m,1333,24,1,2846.0,813407.8000000119,7069,NTS,B,18
9,17,test,3,C,triangle.png,1,z,Fri Feb 28 2025 09:30:46 GMT-0600 (Central Standard Time),819070.6000000238,1400,O,z,1400,16,1,2812.699999988079,816257.9000000358,7069,NTS,B,19
3,17,test,3,C,circle.png,0,z,Fri Feb 28 2025 09:30:46 GMT-0600 (Central Standard Time),822017.7000000477,1600,O,m,1328,11,1,2943.300000011921,819074.4000000358,7069,NTS,B,20
8,18,test,3,C,triangle.png,1,m,Fri Feb 28 2025 09:30:46 GMT-0600 (Central Standard Time),824584.1000000238,1600,O,m,949,7,1,2561.600000023842,822022.5,7069,NTS,B,21
3,19,test,3,C,triangle.png,1,z,Fri Feb 28 2025 09:30:46 GMT-0600 (Central Standard Time),826782.6000000238,1200,O,z,972,19,1,2193.899999976158,824588.7000000477,7069,NTS,B,22
1,20,test,3,C,triangle.png,1,z,Fri Feb 28 2025 09:30:46 GMT-0600 (Central Standard Time),829531.8000000119,1900,O,z,817,9,1,2745.300000011921,826786.5,7069,NTS,B,23
7,21,test,3,C,triangle.png,1,z,Fri Feb 28 2025 09:30:46 GMT-0600 (Central Standard Time),832214.3000000119,1700,O,z,956,6,1,2677.300000011921,829537.0,7069,NTS,B,24
7,1,test,4,C,triangle.png,1,z,Fri Feb 28 2025 09:30:46 GMT-0600 (Central Standard Time),840895.9000000358,1700,O,z,989,6,1,2710.600000023842,838185.3000000119,7069,NTS,B,1
2,1,test,4,C,circle.png,0,z,Fri Feb 28 2025 09:30:46 GMT-0600 (Central Standard Time),844127.6000000238,1700,O,None,1516,10,1,3226.800000011921,840900.8000000119,7069,NTS,B,2
2,1,test,4,C,triangle.png,0,m,Fri Feb 28 2025 09:30:46 GMT-0600 (Central Standard Time),847209.4000000358,2000,O,z,1053,2,1,3075.0,844134.4000000358,7069,NTS,B,3
3,2,test,4,C,circle.png,1,z,Fri Feb 28 2025 09:30:46 GMT-0600 (Central Standard Time),850092.9000000358,1600,O,z,1266,11,1,2878.800000011921,847214.1000000238,7069,NTS,B,4
9,3,test,4,C,circle.png,1,m,Fri Feb 28 2025 09:30:46 GMT-0600 (Central Standard Time),852474.5,1500,O,m,859,8,1,2376.699999988079,850097.8000000119,7069,NTS,B,5
9,4,test,4,C,circle.png,1,m,Fri Feb 28 2025 09:30:46 GMT-0600 (Central Standard Time),854606.1000000238,1500,O,m,605,24,1,2127.600000023842,852478.5,7069,NTS,B,6
4,5,test,4,C,triangle.png,1,m,Fri Feb 28 2025 09:30:46 GMT-0600 (Central Standard Time),857306.4000000358,1500,O,m,1169,12,1,2691.100000023842,854615.3000000119,7069,NTS,B,7
1,6,test,4,C,triangle.png,1,z,Fri Feb 28 2025 09:30:46 GMT-0600 (Central Standard Time),860139.8000000119,1900,O,z,907,9,1,2829.199999988079,857310.6000000238,7069,NTS,B,8
8,7,test,4,C,circle.png,1,m,Fri Feb 28 2025 09:30:46 GMT-0600 (Central Standard Time),862355.9000000358,1200,O,m,984,15,1,2210.699999988079,860145.2000000477,7069,NTS,B,9
6,8,test,4,C,triangle.png,1,m,Fri Feb 28 2025 09:30:46 GMT-0600 (Central Standard Time),864720.4000000358,1000,O,m,1346,13,1,2359.800000011921,862360.6000000238,7069,NTS,B,10
9,8,test,4,C,triangle.png,0,z,Fri Feb 28 2025 09:30:46 GMT-0600 (Central Standard Time),867652.6000000238,1400,O,None,1514,16,1,2928.5,864724.1000000238,7069,NTS,B,11
8,9,test,4,C,triangle.png,1,m,Fri Feb 28 2025 09:30:46 GMT-0600 (Central Standard Time),870285.9000000358,1600,O,m,1007,23,1,2628.100000023842,867657.8000000119,7069,NTS,B,12
7,10,test,4,C,triangle.png,1,z,Fri Feb 28 2025 09:30:46 GMT-0600 (Central Standard Time),873001.3000000119,1700,O,z,994,22,1,2708.099999964237,870293.2000000477,7069,NTS,B,13
4,11,test,4,C,circle.png,1,z,Fri Feb 28 2025 09:30:46 GMT-0600 (Central Standard Time),875334.7000000477,1400,O,z,906,4,1,2330.400000035763,873004.3000000119,7069,NTS,B,14
7,11,test,4,C,circle.png,0,m,Fri Feb 28 2025 09:30:46 GMT-0600 (Central Standard Time),878701.7000000477,2000,O,z,1350,14,1,3360.2000000476837,875341.5,7069,NTS,B,15
6,12,test,4,C,circle.png,1,m,Fri Feb 28 2025 09:30:46 GMT-0600 (Central Standard Time),882015.1000000238,1900,O,m,1396,5,1,3304.899999976158,878710.2000000477,7069,NTS,B,16
1,13,test,4,C,circle.png,1,z,Fri Feb 28 2025 09:30:46 GMT-0600 (Central Standard Time),883764.8000000119,1000,O,z,730,1,1,1741.800000011921,882023.0,7069,NTS,B,17
6,14,test,4,C,circle.png,1,m,Fri Feb 28 2025 09:30:46 GMT-0600 (Central Standard Time),886497.6000000238,1900,O,m,805,21,1,2725.399999976158,883772.2000000477,7069,NTS,B,18
4,14,test,4,C,circle.png,0,z,Fri Feb 28 2025 09:30:46 GMT-0600 (Central Standard Time),888812.8000000119,1400,O,m,890,20,1,2307.5,886505.3000000119,7069,NTS,B,19
3,15,test,4,C,triangle.png,1,z,Fri Feb 28 2025 09:30:46 GMT-0600 (Central Standard Time),890864.1000000238,1200,O,z,833,19,1,2045.800000011921,888818.3000000119,7069,NTS,B,20
1,15,test,4,C,circle.png,0,z,Fri Feb 28 2025 09:30:46 GMT-0600 (Central Standard Time),892911.7000000477,1000,O,m,1029,17,1,2042.7000000476837,890869.0,7069,NTS,B,21
8,16,test,4,C,triangle.png,1,m,Fri Feb 28 2025 09:30:46 GMT-0600 (Central Standard Time),895977.5,1600,O,m,1443,7,1,3056.599999964237,892920.9000000358,7069,NTS,B,22
2,17,test,4,C,triangle.png,1,m,Fri Feb 28 2025 09:30:46 GMT-0600 (Central Standard Time),899142.1000000238,2000,O,m,1146,18,1,3159.300000011921,895982.8000000119,7069,NTS,B,23
3,18,test,4,C,triangle.png,1,z,Fri Feb 28 2025 09:30:46 GMT-0600 (Central Standard Time),901143.0,1200,O,z,773,3,1,1996.2999999523163,899146.7000000477,7069,NTS,B,24
