acc_sum,block,block_c,change,condition,correct,correct_response,datetime,endtime,face,project,response,response_time,row_sel,session_number,start_end,starttime,subject_id,task,task_vers,trial
0,prac,1,,1-Back,,,Wed Apr 16 2025 18:09:03 GMT-0500 (Central Daylight Time),,005_o_f_d_a.png,O,space,5554,1,1,,,7131,VNB,B,0
0,prac,1,0.0,1-Back,0,m,Wed Apr 16 2025 18:09:03 GMT-0500 (Central Daylight Time),125984.0,020_y_f_n_a.png,O,None,2008,2,1,2897.5,123086.5,7131,VNB,B,1
1,prac,1,0.0,1-Back,1,m,Wed Apr 16 2025 18:09:03 GMT-0500 (Central Daylight Time),128233.69999998808,007_m_m_h_a.png,O,m,1274,3,1,2215.199999988079,126018.5,7131,VNB,B,2
2,prac,1,0.0,1-Back,1,m,Wed Apr 16 2025 18:09:03 GMT-0500 (Central Daylight Time),131098.90000003576,016_y_m_d_a.png,O,m,1901,4,1,2829.5,128269.40000003576,7131,VNB,B,3
2,prac,1,0.0,1-Back,0,m,Wed Apr 16 2025 18:09:03 GMT-0500 (Central Daylight Time),134064.10000002384,005_o_f_n_a.png,O,None,2013,5,1,2934.400000035763,131129.69999998808,7131,VNB,B,4
3,prac,1,1.0,1-Back,1,z,Wed Apr 16 2025 18:09:03 GMT-0500 (Central Daylight Time),136647.30000001192,016_y_m_n_a.png,O,z,1646,6,1,2565.199999988079,134082.10000002384,7131,VNB,B,5
4,prac,1,0.0,1-Back,1,m,Wed Apr 16 2025 18:09:03 GMT-0500 (Central Daylight Time),138698.0,004_o_m_h_a.png,O,m,1113,7,1,2009.8999999761581,136688.10000002384,7131,VNB,B,6
5,prac,1,0.0,1-Back,1,m,Wed Apr 16 2025 18:09:03 GMT-0500 (Central Daylight Time),140695.60000002384,011_m_f_d_a.png,O,m,1036,8,1,1960.1000000238419,138735.5,7131,VNB,B,7
5,prac,1,1.0,1-Back,0,z,Wed Apr 16 2025 18:09:03 GMT-0500 (Central Daylight Time),142627.40000003576,020_y_f_d_a.png,O,m,1007,9,1,1905.0,140722.40000003576,7131,VNB,B,8
6,prac,1,0.0,1-Back,1,m,Wed Apr 16 2025 18:09:03 GMT-0500 (Central Daylight Time),144927.80000001192,007_m_m_n_a.png,O,m,1369,10,1,2290.399999976158,142637.40000003576,7131,VNB,B,9
7,prac,1,0.0,1-Back,1,m,Wed Apr 16 2025 18:09:03 GMT-0500 (Central Daylight Time),147177.40000003576,005_o_f_h_a.png,O,m,1287,11,1,2211.900000035763,144965.5,7131,VNB,B,10
7,prac,1,0.0,1-Back,0,m,Wed Apr 16 2025 18:09:03 GMT-0500 (Central Daylight Time),149426.30000001192,016_y_m_d_a.png,O,z,1266,12,1,2203.800000011921,147222.5,7131,VNB,B,11
0,prac,2,0.0,1-Back,,,Wed Apr 16 2025 18:09:03 GMT-0500 (Central Daylight Time),149426.30000001192,005_o_f_d_a.png,O,a,10671,1,1,2203.800000011921,147222.5,7131,VNB,B,0
1,prac,2,0.0,1-Back,1,m,Wed Apr 16 2025 18:09:03 GMT-0500 (Central Daylight Time),165570.80000001192,020_y_f_n_a.png,O,m,1483,2,1,2382.600000023842,163188.19999998808,7131,VNB,B,1
2,prac,2,0.0,1-Back,1,m,Wed Apr 16 2025 18:09:03 GMT-0500 (Central Daylight Time),167570.5,007_m_m_h_a.png,O,m,1041,3,1,1961.0999999642372,165609.40000003576,7131,VNB,B,2
2,prac,2,0.0,1-Back,0,m,Wed Apr 16 2025 18:09:03 GMT-0500 (Central Daylight Time),169419.40000003576,016_y_m_d_a.png,O,z,1044,4,1,1820.800000011921,167598.60000002384,7131,VNB,B,3
3,prac,2,0.0,1-Back,1,m,Wed Apr 16 2025 18:09:03 GMT-0500 (Central Daylight Time),172034.5,005_o_f_n_a.png,O,m,1667,5,1,2580.300000011921,169454.19999998808,7131,VNB,B,4
3,prac,2,1.0,1-Back,0,z,Wed Apr 16 2025 18:09:03 GMT-0500 (Central Daylight Time),174734.40000003576,016_y_m_n_a.png,O,m,1758,6,1,2688.5,172045.90000003576,7131,VNB,B,5
3,prac,2,0.0,1-Back,0,m,Wed Apr 16 2025 18:09:03 GMT-0500 (Central Daylight Time),177667.0,004_o_m_h_a.png,O,None,2013,7,1,2899.5,174767.5,7131,VNB,B,6
4,prac,2,0.0,1-Back,1,m,Wed Apr 16 2025 18:09:03 GMT-0500 (Central Daylight Time),179749.5,011_m_f_d_a.png,O,m,1124,8,1,2045.8999999761581,177703.60000002384,7131,VNB,B,7
4,prac,2,1.0,1-Back,0,z,Wed Apr 16 2025 18:09:03 GMT-0500 (Central Daylight Time),182165.5,020_y_f_d_a.png,O,m,1480,9,1,2386.599999964237,179778.90000003576,7131,VNB,B,8
4,prac,2,0.0,1-Back,0,m,Wed Apr 16 2025 18:09:03 GMT-0500 (Central Daylight Time),185130.30000001192,007_m_m_n_a.png,O,None,2011,10,1,2926.0,182204.30000001192,7131,VNB,B,9
5,prac,2,0.0,1-Back,1,m,Wed Apr 16 2025 18:09:03 GMT-0500 (Central Daylight Time),187946.0,005_o_f_h_a.png,O,m,1895,11,1,2805.599999964237,185140.40000003576,7131,VNB,B,10
6,prac,2,0.0,1-Back,1,m,Wed Apr 16 2025 18:09:03 GMT-0500 (Central Daylight Time),190496.10000002384,016_y_m_d_a.png,O,m,1593,12,1,2541.199999988079,187954.90000003576,7131,VNB,B,11
0,test,1,0.0,1-Back,,,Wed Apr 16 2025 18:09:03 GMT-0500 (Central Daylight Time),190496.10000002384,020_y_f_d_a.png,O,space,8900,1,1,2541.199999988079,187954.90000003576,7131,VNB,B,0
1,test,1,0.0,1-Back,1,m,Wed Apr 16 2025 18:09:03 GMT-0500 (Central Daylight Time),211489.40000003576,011_m_f_n_a.png,O,m,1241,2,1,2254.800000011921,209234.60000002384,7131,VNB,B,1
2,test,1,0.0,1-Back,1,m,Wed Apr 16 2025 18:09:03 GMT-0500 (Central Daylight Time),213589.0,004_o_m_h_a.png,O,m,1048,3,1,2065.399999976158,211523.60000002384,7131,VNB,B,2
3,test,1,1.0,1-Back,1,z,Wed Apr 16 2025 18:09:03 GMT-0500 (Central Daylight Time),215721.19999998808,007_m_m_h_a.png,O,z,1085,4,1,2109.399999976158,213611.80000001192,7131,VNB,B,3
4,test,1,0.0,1-Back,1,m,Wed Apr 16 2025 18:09:03 GMT-0500 (Central Daylight Time),217720.40000003576,005_o_f_n_a.png,O,m,952,5,1,1973.9000000357628,215746.5,7131,VNB,B,4
4,test,1,0.0,1-Back,0,m,Wed Apr 16 2025 18:09:03 GMT-0500 (Central Daylight Time),220369.40000003576,016_y_m_d_a.png,O,z,1593,6,1,2612.300000011921,217757.10000002384,7131,VNB,B,5
5,test,1,1.0,1-Back,1,z,Wed Apr 16 2025 18:09:03 GMT-0500 (Central Daylight Time),223168.5,011_m_f_d_a.png,O,z,1752,7,1,2771.699999988079,220396.80000001192,7131,VNB,B,6
6,test,1,0.0,1-Back,1,m,Wed Apr 16 2025 18:09:03 GMT-0500 (Central Daylight Time),225868.5,020_y_f_h_a.png,O,m,1648,8,1,2665.699999988079,223202.80000001192,7131,VNB,B,7
7,test,1,0.0,1-Back,1,m,Wed Apr 16 2025 18:09:03 GMT-0500 (Central Daylight Time),228233.60000002384,004_o_m_n_a.png,O,m,1326,9,1,2341.100000023842,225892.5,7131,VNB,B,8
8,test,1,0.0,1-Back,1,m,Wed Apr 16 2025 18:09:03 GMT-0500 (Central Daylight Time),230882.5,016_y_m_h_a.png,O,m,1608,10,1,2625.199999988079,228257.30000001192,7131,VNB,B,9
9,test,1,0.0,1-Back,1,m,Wed Apr 16 2025 18:09:03 GMT-0500 (Central Daylight Time),233598.40000003576,004_o_m_d_a.png,O,m,1671,11,1,2693.100000023842,230905.30000001192,7131,VNB,B,10
10,test,1,1.0,1-Back,1,z,Wed Apr 16 2025 18:09:03 GMT-0500 (Central Daylight Time),236497.60000002384,005_o_f_d_a.png,O,z,1851,12,1,2873.100000023842,233624.5,7131,VNB,B,11
11,test,1,0.0,1-Back,1,m,Wed Apr 16 2025 18:09:03 GMT-0500 (Central Daylight Time),238946.90000003576,007_m_m_n_a.png,O,m,1383,13,1,2419.400000035763,236527.5,7131,VNB,B,12
12,test,1,1.0,1-Back,1,z,Wed Apr 16 2025 18:09:03 GMT-0500 (Central Daylight Time),241229.5,020_y_f_n_a.png,O,z,1231,14,1,2246.399999976158,238983.10000002384,7131,VNB,B,13
13,test,1,0.0,1-Back,1,m,Wed Apr 16 2025 18:09:03 GMT-0500 (Central Daylight Time),243212.10000002384,011_m_f_h_a.png,O,m,940,15,1,1958.699999988079,241253.40000003576,7131,VNB,B,14
14,test,1,0.0,1-Back,1,m,Wed Apr 16 2025 18:09:03 GMT-0500 (Central Daylight Time),245744.60000002384,007_m_m_d_a.png,O,m,1477,16,1,2500.800000011921,243243.80000001192,7131,VNB,B,15
14,test,1,0.0,1-Back,0,m,Wed Apr 16 2025 18:09:03 GMT-0500 (Central Daylight Time),248543.69999998808,016_y_m_n_a.png,O,z,1761,17,1,2771.2999999523163,245772.40000003576,7131,VNB,B,16
15,test,1,0.0,1-Back,1,m,Wed Apr 16 2025 18:09:03 GMT-0500 (Central Daylight Time),250626.60000002384,005_o_f_h_a.png,O,m,1034,18,1,2059.800000011921,248566.80000001192,7131,VNB,B,17
0,test,2,0.0,1-Back,,,Wed Apr 16 2025 18:09:03 GMT-0500 (Central Daylight Time),250626.60000002384,016_y_m_n_a.png,O,space,1311,1,1,2059.800000011921,248566.80000001192,7131,VNB,B,0
1,test,2,0.0,1-Back,1,m,Wed Apr 16 2025 18:09:03 GMT-0500 (Central Daylight Time),256040.40000003576,020_y_f_h_a.png,O,m,1016,2,1,2046.2000000476837,253994.19999998808,7131,VNB,B,1
2,test,2,1.0,1-Back,1,m,Wed Apr 16 2025 18:09:03 GMT-0500 (Central Daylight Time),258140.5,004_o_m_n_a.png,O,m,1073,3,1,2094.599999964237,256045.90000003576,7131,VNB,B,2
3,test,2,0.0,1-Back,1,m,Wed Apr 16 2025 18:09:03 GMT-0500 (Central Daylight Time),260306.69999998808,011_m_f_d_a.png,O,m,1117,4,1,2141.2999999523163,258165.40000003576,7131,VNB,B,3
3,test,2,0.0,1-Back,0,z,Wed Apr 16 2025 18:09:03 GMT-0500 (Central Daylight Time),263373.3000000119,007_m_m_d_a.png,O,None,2015,5,1,3034.399999976158,260338.90000003576,7131,VNB,B,4
4,test,2,0.0,1-Back,1,m,Wed Apr 16 2025 18:09:03 GMT-0500 (Central Daylight Time),265338.10000002384,016_y_m_h_a.png,O,m,901,6,1,1932.0,263406.10000002384,7131,VNB,B,5
5,test,2,1.0,1-Back,1,z,Wed Apr 16 2025 18:09:03 GMT-0500 (Central Daylight Time),267420.60000002384,005_o_f_h_a.png,O,z,1039,7,1,2054.400000035763,265366.1999999881,7131,VNB,B,6
6,test,2,0.0,1-Back,1,m,Wed Apr 16 2025 18:09:03 GMT-0500 (Central Daylight Time),269770.0,011_m_f_n_a.png,O,m,1292,8,1,2320.599999964237,267449.40000003576,7131,VNB,B,7
7,test,2,0.0,1-Back,1,m,Wed Apr 16 2025 18:09:03 GMT-0500 (Central Daylight Time),272702.10000002384,020_y_f_d_a.png,O,m,1895,9,1,2902.199999988079,269799.90000003576,7131,VNB,B,8
8,test,2,0.0,1-Back,1,m,Wed Apr 16 2025 18:09:03 GMT-0500 (Central Daylight Time),274768.40000003576,007_m_m_n_a.png,O,m,1011,10,1,2031.7000000476837,272736.6999999881,7131,VNB,B,9
9,test,2,1.0,1-Back,1,m,Wed Apr 16 2025 18:09:03 GMT-0500 (Central Daylight Time),276817.60000002384,011_m_f_h_a.png,O,m,984,11,1,2017.699999988079,274799.90000003576,7131,VNB,B,10
10,test,2,0.0,1-Back,1,z,Wed Apr 16 2025 18:09:03 GMT-0500 (Central Daylight Time),278849.6999999881,004_o_m_h_a.png,O,z,974,12,1,1997.5,276852.1999999881,7131,VNB,B,11
11,test,2,0.0,1-Back,1,m,Wed Apr 16 2025 18:09:03 GMT-0500 (Central Daylight Time),281065.6999999881,016_y_m_d_a.png,O,m,1190,13,1,2211.0,278854.6999999881,7131,VNB,B,12
12,test,2,0.0,1-Back,1,m,Wed Apr 16 2025 18:09:03 GMT-0500 (Central Daylight Time),283465.3000000119,005_o_f_n_a.png,O,m,1368,14,1,2384.600000023842,281080.6999999881,7131,VNB,B,13
13,test,2,0.0,1-Back,1,z,Wed Apr 16 2025 18:09:03 GMT-0500 (Central Daylight Time),285748.10000002384,020_y_f_n_a.png,O,z,1233,15,1,2254.300000011921,283493.8000000119,7131,VNB,B,14
14,test,2,1.0,1-Back,1,m,Wed Apr 16 2025 18:09:03 GMT-0500 (Central Daylight Time),287730.90000003576,007_m_m_h_a.png,O,m,933,16,1,1952.800000011921,285778.10000002384,7131,VNB,B,15
15,test,2,0.0,1-Back,1,m,Wed Apr 16 2025 18:09:03 GMT-0500 (Central Daylight Time),289696.8000000119,005_o_f_d_a.png,O,m,943,17,1,1951.699999988079,287745.10000002384,7131,VNB,B,16
16,test,2,1.0,1-Back,1,z,Wed Apr 16 2025 18:09:03 GMT-0500 (Central Daylight Time),291896.0,004_o_m_d_a.png,O,z,1161,18,1,2171.399999976158,289724.60000002384,7131,VNB,B,17
0,test,3,1.0,1-Back,,,Wed Apr 16 2025 18:09:03 GMT-0500 (Central Daylight Time),291896.0,005_o_f_h_a.png,O,space,1210,1,1,2171.399999976158,289724.60000002384,7131,VNB,B,0
1,test,3,0.0,1-Back,1,m,Wed Apr 16 2025 18:09:03 GMT-0500 (Central Daylight Time),297627.6999999881,011_m_f_d_a.png,O,m,1290,2,1,2304.099999964237,295323.60000002384,7131,VNB,B,1
2,test,3,1.0,1-Back,1,m,Wed Apr 16 2025 18:09:03 GMT-0500 (Central Daylight Time),299910.1999999881,007_m_m_n_a.png,O,m,1221,3,1,2249.699999988079,297660.5,7131,VNB,B,2
3,test,3,0.0,1-Back,1,z,Wed Apr 16 2025 18:09:03 GMT-0500 (Central Daylight Time),302009.40000003576,005_o_f_n_a.png,O,z,1051,4,1,2068.5,299940.90000003576,7131,VNB,B,3
4,test,3,1.0,1-Back,1,m,Wed Apr 16 2025 18:09:03 GMT-0500 (Central Daylight Time),304025.5,004_o_m_d_a.png,O,m,959,5,1,1988.5999999642372,302036.90000003576,7131,VNB,B,4
5,test,3,0.0,1-Back,1,m,Wed Apr 16 2025 18:09:03 GMT-0500 (Central Daylight Time),306291.40000003576,020_y_f_h_a.png,O,m,1207,6,1,2233.0,304058.40000003576,7131,VNB,B,5
6,test,3,0.0,1-Back,1,z,Wed Apr 16 2025 18:09:03 GMT-0500 (Central Daylight Time),308190.5,016_y_m_h_a.png,O,z,863,7,1,1872.0999999642372,306318.40000003576,7131,VNB,B,6
7,test,3,0.0,1-Back,1,m,Wed Apr 16 2025 18:09:03 GMT-0500 (Central Daylight Time),310256.90000003576,011_m_f_n_a.png,O,m,1010,8,1,2035.1000000238419,308221.8000000119,7131,VNB,B,7
8,test,3,0.0,1-Back,1,m,Wed Apr 16 2025 18:09:03 GMT-0500 (Central Daylight Time),313122.5,020_y_f_d_a.png,O,m,1810,9,1,2834.899999976158,310287.60000002384,7131,VNB,B,8
9,test,3,1.0,1-Back,1,m,Wed Apr 16 2025 18:09:03 GMT-0500 (Central Daylight Time),315821.60000002384,004_o_m_n_a.png,O,m,1638,10,1,2669.900000035763,313151.6999999881,7131,VNB,B,9
10,test,3,0.0,1-Back,1,m,Wed Apr 16 2025 18:09:03 GMT-0500 (Central Daylight Time),317954.10000002384,007_m_m_h_a.png,O,m,1091,11,1,2108.100000023842,315846.0,7131,VNB,B,10
11,test,3,0.0,1-Back,1,z,Wed Apr 16 2025 18:09:03 GMT-0500 (Central Daylight Time),320086.8000000119,011_m_f_h_a.png,O,z,1088,12,1,2104.600000023842,317982.1999999881,7131,VNB,B,11
12,test,3,1.0,1-Back,1,m,Wed Apr 16 2025 18:09:03 GMT-0500 (Central Daylight Time),322252.60000002384,005_o_f_d_a.png,O,m,1122,13,1,2142.699999988079,320109.90000003576,7131,VNB,B,12
13,test,3,0.0,1-Back,1,z,Wed Apr 16 2025 18:09:03 GMT-0500 (Central Daylight Time),324367.8000000119,007_m_m_d_a.png,O,z,1059,14,1,2089.5,322278.3000000119,7131,VNB,B,13
14,test,3,0.0,1-Back,1,m,Wed Apr 16 2025 18:09:03 GMT-0500 (Central Daylight Time),326601.5,016_y_m_n_a.png,O,m,1210,15,1,2227.300000011921,324374.1999999881,7131,VNB,B,14
15,test,3,1.0,1-Back,1,m,Wed Apr 16 2025 18:09:03 GMT-0500 (Central Daylight Time),328783.90000003576,004_o_m_h_a.png,O,m,1144,16,1,2156.400000035763,326627.5,7131,VNB,B,15
16,test,3,0.0,1-Back,1,m,Wed Apr 16 2025 18:09:03 GMT-0500 (Central Daylight Time),331165.90000003576,016_y_m_d_a.png,O,m,1338,17,1,2355.600000023842,328810.3000000119,7131,VNB,B,16
17,test,3,1.0,1-Back,1,m,Wed Apr 16 2025 18:09:03 GMT-0500 (Central Daylight Time),333148.1999999881,020_y_f_n_a.png,O,m,964,18,1,1967.8999999761581,331180.3000000119,7131,VNB,B,17
0,test,4,1.0,1-Back,,,Wed Apr 16 2025 18:09:03 GMT-0500 (Central Daylight Time),333148.1999999881,007_m_m_d_a.png,O,space,1542,1,1,1967.8999999761581,331180.3000000119,7131,VNB,B,0
1,test,4,0.0,1-Back,1,z,Wed Apr 16 2025 18:09:03 GMT-0500 (Central Daylight Time),339213.0,004_o_m_d_a.png,O,z,1462,2,1,2478.099999964237,336734.90000003576,7131,VNB,B,1
2,test,4,0.0,1-Back,1,m,Wed Apr 16 2025 18:09:03 GMT-0500 (Central Daylight Time),341430.0,016_y_m_h_a.png,O,m,1188,3,1,2211.899999976158,339218.10000002384,7131,VNB,B,2
3,test,4,0.0,1-Back,1,m,Wed Apr 16 2025 18:09:03 GMT-0500 (Central Daylight Time),344128.8000000119,011_m_f_n_a.png,O,m,1652,4,1,2669.199999988079,341459.60000002384,7131,VNB,B,3
4,test,4,1.0,1-Back,1,m,Wed Apr 16 2025 18:09:03 GMT-0500 (Central Daylight Time),346078.0,005_o_f_h_a.png,O,m,912,5,1,1919.3999999761581,344158.60000002384,7131,VNB,B,4
4,test,4,0.0,1-Back,0,m,Wed Apr 16 2025 18:09:03 GMT-0500 (Central Daylight Time),349127.6999999881,007_m_m_n_a.png,O,None,2016,6,1,3020.399999976158,346107.3000000119,7131,VNB,B,5
5,test,4,0.0,1-Back,1,m,Wed Apr 16 2025 18:09:03 GMT-0500 (Central Daylight Time),351609.90000003576,016_y_m_d_a.png,O,m,1442,7,1,2456.800000011921,349153.10000002384,7131,VNB,B,6
6,test,4,1.0,1-Back,1,z,Wed Apr 16 2025 18:09:03 GMT-0500 (Central Daylight Time),353825.60000002384,020_y_f_d_a.png,O,z,1176,8,1,2185.400000035763,351640.1999999881,7131,VNB,B,7
7,test,4,0.0,1-Back,1,m,Wed Apr 16 2025 18:09:03 GMT-0500 (Central Daylight Time),355691.90000003576,011_m_f_h_a.png,O,m,807,9,1,1833.7000000476837,353858.1999999881,7131,VNB,B,8
8,test,4,0.0,1-Back,1,z,Wed Apr 16 2025 18:09:03 GMT-0500 (Central Daylight Time),357874.3000000119,004_o_m_h_a.png,O,z,1134,10,1,2153.300000011921,355721.0,7131,VNB,B,9
9,test,4,1.0,1-Back,1,m,Wed Apr 16 2025 18:09:03 GMT-0500 (Central Daylight Time),359873.6999999881,005_o_f_n_a.png,O,m,953,11,1,1980.3999999761581,357893.3000000119,7131,VNB,B,10
10,test,4,0.0,1-Back,1,m,Wed Apr 16 2025 18:09:03 GMT-0500 (Central Daylight Time),361773.60000002384,011_m_f_d_a.png,O,m,848,12,1,1866.300000011921,359907.3000000119,7131,VNB,B,11
11,test,4,0.0,1-Back,1,m,Wed Apr 16 2025 18:09:03 GMT-0500 (Central Daylight Time),363872.3000000119,020_y_f_n_a.png,O,m,1044,13,1,2067.300000011921,361805.0,7131,VNB,B,12
12,test,4,0.0,1-Back,1,m,Wed Apr 16 2025 18:09:03 GMT-0500 (Central Daylight Time),366704.90000003576,005_o_f_d_a.png,O,m,1768,14,1,2801.400000035763,363903.5,7131,VNB,B,13
13,test,4,0.0,1-Back,1,m,Wed Apr 16 2025 18:09:03 GMT-0500 (Central Daylight Time),369054.3000000119,020_y_f_h_a.png,O,m,1304,15,1,2327.399999976158,366726.90000003576,7131,VNB,B,14
14,test,4,1.0,1-Back,1,z,Wed Apr 16 2025 18:09:03 GMT-0500 (Central Daylight Time),371069.6999999881,007_m_m_h_a.png,O,z,979,16,1,1994.8999999761581,369074.8000000119,7131,VNB,B,15
15,test,4,0.0,1-Back,1,m,Wed Apr 16 2025 18:09:03 GMT-0500 (Central Daylight Time),373119.40000003576,004_o_m_n_a.png,O,m,1012,17,1,2022.6000000238419,371096.8000000119,7131,VNB,B,16
16,test,4,1.0,1-Back,1,z,Wed Apr 16 2025 18:09:03 GMT-0500 (Central Daylight Time),375085.8000000119,016_y_m_n_a.png,O,z,905,18,1,1933.5,373152.3000000119,7131,VNB,B,17
0,test,5,1.0,1-Back,,,Wed Apr 16 2025 18:09:03 GMT-0500 (Central Daylight Time),375085.8000000119,004_o_m_n_a.png,O,space,1380,1,1,1933.5,373152.3000000119,7131,VNB,B,0
1,test,5,1.0,1-Back,1,m,Wed Apr 16 2025 18:09:03 GMT-0500 (Central Daylight Time),380650.0,005_o_f_h_a.png,O,m,1108,2,1,2131.199999988079,378518.8000000119,7131,VNB,B,1
2,test,5,0.0,1-Back,1,m,Wed Apr 16 2025 18:09:03 GMT-0500 (Central Daylight Time),383215.1999999881,016_y_m_d_a.png,O,m,1518,3,1,2536.2999999523163,380678.90000003576,7131,VNB,B,2
3,test,5,0.0,1-Back,1,z,Wed Apr 16 2025 18:09:03 GMT-0500 (Central Daylight Time),385299.10000002384,004_o_m_d_a.png,O,z,1058,4,1,2078.800000011921,383220.3000000119,7131,VNB,B,3
4,test,5,0.0,1-Back,1,m,Wed Apr 16 2025 18:09:03 GMT-0500 (Central Daylight Time),387464.90000003576,011_m_f_h_a.png,O,m,1127,5,1,2135.0,385329.90000003576,7131,VNB,B,4
5,test,5,0.0,1-Back,1,m,Wed Apr 16 2025 18:09:03 GMT-0500 (Central Daylight Time),389814.10000002384,020_y_f_n_a.png,O,m,1245,6,1,2324.699999988079,387489.40000003576,7131,VNB,B,5
6,test,5,1.0,1-Back,1,z,Wed Apr 16 2025 18:09:03 GMT-0500 (Central Daylight Time),391979.6999999881,005_o_f_n_a.png,O,z,1116,7,1,2141.0,389838.6999999881,7131,VNB,B,6
7,test,5,0.0,1-Back,1,m,Wed Apr 16 2025 18:09:03 GMT-0500 (Central Daylight Time),393762.8000000119,011_m_f_d_a.png,O,m,742,8,1,1755.699999988079,392007.10000002384,7131,VNB,B,7
8,test,5,0.0,1-Back,1,m,Wed Apr 16 2025 18:09:03 GMT-0500 (Central Daylight Time),396495.1999999881,016_y_m_h_a.png,O,m,1687,9,1,2704.099999964237,393791.10000002384,7131,VNB,B,8
9,test,5,0.0,1-Back,1,m,Wed Apr 16 2025 18:09:03 GMT-0500 (Central Daylight Time),398677.6999999881,020_y_f_d_a.png,O,m,1148,10,1,2156.899999976158,396520.8000000119,7131,VNB,B,9
10,test,5,0.0,1-Back,1,m,Wed Apr 16 2025 18:09:03 GMT-0500 (Central Daylight Time),400710.40000003576,007_m_m_n_a.png,O,m,972,11,1,1999.9000000357628,398710.5,7131,VNB,B,10
11,test,5,1.0,1-Back,1,z,Wed Apr 16 2025 18:09:03 GMT-0500 (Central Daylight Time),402676.5,011_m_f_n_a.png,O,z,906,12,1,1931.8999999761581,400744.60000002384,7131,VNB,B,11
12,test,5,0.0,1-Back,1,m,Wed Apr 16 2025 18:09:03 GMT-0500 (Central Daylight Time),404808.90000003576,004_o_m_h_a.png,O,m,1085,13,1,2105.800000011921,402703.10000002384,7131,VNB,B,12
12,test,5,0.0,1-Back,0,z,Wed Apr 16 2025 18:09:03 GMT-0500 (Central Daylight Time),407108.3000000119,007_m_m_h_a.png,O,m,1257,14,1,2272.899999976158,404835.40000003576,7131,VNB,B,13
13,test,5,1.0,1-Back,1,m,Wed Apr 16 2025 18:09:03 GMT-0500 (Central Daylight Time),409207.6999999881,005_o_f_d_a.png,O,m,1053,15,1,2069.199999988079,407138.5,7131,VNB,B,14
13,test,5,0.0,1-Back,0,m,Wed Apr 16 2025 18:09:03 GMT-0500 (Central Daylight Time),412273.5,016_y_m_n_a.png,O,None,2014,16,1,3035.199999988079,409238.3000000119,7131,VNB,B,15
14,test,5,0.0,1-Back,1,m,Wed Apr 16 2025 18:09:03 GMT-0500 (Central Daylight Time),414288.90000003576,020_y_f_h_a.png,O,m,980,17,1,1989.800000011921,412299.10000002384,7131,VNB,B,16
15,test,5,0.0,1-Back,1,m,Wed Apr 16 2025 18:09:03 GMT-0500 (Central Daylight Time),416206.10000002384,007_m_m_d_a.png,O,m,881,18,1,1890.699999988079,414315.40000003576,7131,VNB,B,17
0,prac,1,0.0,2-Back,,,Wed Apr 16 2025 18:09:03 GMT-0500 (Central Daylight Time),416206.10000002384,011_m_f_n_a.png,O,space,1364,1,1,1890.699999988079,414315.40000003576,7131,VNB,B,0
0,prac,1,0.0,2-Back,,,Wed Apr 16 2025 18:09:03 GMT-0500 (Central Daylight Time),416206.10000002384,005_o_f_h_a.png,O,space,1364,2,1,1890.699999988079,414315.40000003576,7131,VNB,B,0
1,prac,1,0.0,2-Back,1,m,Wed Apr 16 2025 18:09:03 GMT-0500 (Central Daylight Time),500744.8000000119,004_o_m_d_a.png,O,m,1632,3,1,2543.800000011921,498201.0,7131,VNB,B,1
1,prac,1,1.0,2-Back,0,z,Wed Apr 16 2025 18:09:03 GMT-0500 (Central Daylight Time),503726.60000002384,007_m_m_h_a.png,O,None,2010,4,1,2941.300000011921,500785.3000000119,7131,VNB,B,2
2,prac,1,0.0,2-Back,1,m,Wed Apr 16 2025 18:09:03 GMT-0500 (Central Daylight Time),505975.5,020_y_f_n_a.png,O,m,1297,5,1,2207.899999976158,503767.60000002384,7131,VNB,B,3
3,prac,1,1.0,2-Back,1,z,Wed Apr 16 2025 18:09:03 GMT-0500 (Central Daylight Time),508025.1999999881,004_o_m_h_a.png,O,z,1129,6,1,2031.7999999523163,505993.40000003576,7131,VNB,B,4
4,prac,1,1.0,2-Back,1,z,Wed Apr 16 2025 18:09:03 GMT-0500 (Central Daylight Time),510341.90000003576,016_y_m_n_a.png,O,z,1325,7,1,2276.400000035763,508065.5,7131,VNB,B,5
5,prac,1,0.0,2-Back,1,m,Wed Apr 16 2025 18:09:03 GMT-0500 (Central Daylight Time),512490.5,011_m_f_d_a.png,O,m,1184,8,1,2113.899999976158,510376.60000002384,7131,VNB,B,6
5,prac,1,0.0,2-Back,0,m,Wed Apr 16 2025 18:09:03 GMT-0500 (Central Daylight Time),515472.6999999881,005_o_f_d_a.png,O,None,2016,9,1,2941.899999976158,512530.8000000119,7131,VNB,B,7
6,prac,1,0.0,2-Back,1,m,Wed Apr 16 2025 18:09:03 GMT-0500 (Central Daylight Time),517525.6999999881,007_m_m_h_a.png,O,m,1080,10,1,2014.8999999761581,515510.8000000119,7131,VNB,B,8
7,prac,1,1.0,2-Back,1,z,Wed Apr 16 2025 18:09:03 GMT-0500 (Central Daylight Time),519454.1999999881,020_y_f_d_a.png,O,z,989,11,1,1905.5999999642372,517548.60000002384,7131,VNB,B,9
8,prac,1,0.0,2-Back,1,m,Wed Apr 16 2025 18:09:03 GMT-0500 (Central Daylight Time),521621.0,004_o_m_n_a.png,O,m,1223,12,1,2152.699999988079,519468.3000000119,7131,VNB,B,10
0,test,1,0.0,2-Back,,,Wed Apr 16 2025 18:09:03 GMT-0500 (Central Daylight Time),521621.0,016_y_m_h_a.png,O,space,5583,1,1,2152.699999988079,519468.3000000119,7131,VNB,B,0
0,test,1,0.0,2-Back,,,Wed Apr 16 2025 18:09:03 GMT-0500 (Central Daylight Time),521621.0,005_o_f_n_a.png,O,space,5583,2,1,2152.699999988079,519468.3000000119,7131,VNB,B,0
1,test,1,0.0,2-Back,1,z,Wed Apr 16 2025 18:09:03 GMT-0500 (Central Daylight Time),540414.6999999881,004_o_m_h_a.png,O,z,788,3,1,1815.5999999642372,538599.1000000238,7131,VNB,B,1
2,test,1,0.0,2-Back,1,m,Wed Apr 16 2025 18:09:03 GMT-0500 (Central Daylight Time),542864.0,011_m_f_d_a.png,O,m,1394,4,1,2414.5,540449.5,7131,VNB,B,2
2,test,1,1.0,2-Back,0,m,Wed Apr 16 2025 18:09:03 GMT-0500 (Central Daylight Time),545479.6000000238,016_y_m_n_a.png,O,z,1579,5,1,2587.300000011921,542892.3000000119,7131,VNB,B,3
3,test,1,0.0,2-Back,1,z,Wed Apr 16 2025 18:09:03 GMT-0500 (Central Daylight Time),548029.9000000358,020_y_f_d_a.png,O,z,1515,6,1,2525.100000023842,545504.8000000119,7131,VNB,B,4
4,test,1,0.0,2-Back,1,m,Wed Apr 16 2025 18:09:03 GMT-0500 (Central Daylight Time),550061.4000000358,007_m_m_h_a.png,O,m,989,7,1,2006.300000011921,548055.1000000238,7131,VNB,B,5
5,test,1,1.0,2-Back,1,m,Wed Apr 16 2025 18:09:03 GMT-0500 (Central Daylight Time),552544.0,020_y_f_n_a.png,O,m,1436,8,1,2453.5,550090.5,7131,VNB,B,6
6,test,1,0.0,2-Back,1,z,Wed Apr 16 2025 18:09:03 GMT-0500 (Central Daylight Time),554709.6999999881,005_o_f_h_a.png,O,z,1113,9,1,2135.199999988079,552574.5,7131,VNB,B,7
7,test,1,0.0,2-Back,1,m,Wed Apr 16 2025 18:09:03 GMT-0500 (Central Daylight Time),557293.1999999881,004_o_m_d_a.png,O,m,1548,10,1,2558.7999999523163,554734.4000000358,7131,VNB,B,8
7,test,1,1.0,2-Back,0,m,Wed Apr 16 2025 18:09:03 GMT-0500 (Central Daylight Time),560191.6000000238,007_m_m_d_a.png,O,z,1854,11,1,2874.199999988079,557317.4000000358,7131,VNB,B,9
8,test,1,0.0,2-Back,1,m,Wed Apr 16 2025 18:09:03 GMT-0500 (Central Daylight Time),563090.5,011_m_f_n_a.png,O,m,1858,12,1,2869.399999976158,560221.1000000238,7131,VNB,B,10
8,test,1,0.0,2-Back,0,m,Wed Apr 16 2025 18:09:03 GMT-0500 (Central Daylight Time),566172.6999999881,020_y_f_h_a.png,O,None,2015,13,1,3021.699999988079,563151.0,7131,VNB,B,11
9,test,1,0.0,2-Back,1,z,Wed Apr 16 2025 18:09:03 GMT-0500 (Central Daylight Time),569055.3000000119,007_m_m_n_a.png,O,z,1837,14,1,2854.199999988079,566201.1000000238,7131,VNB,B,12
10,test,1,0.0,2-Back,1,m,Wed Apr 16 2025 18:09:03 GMT-0500 (Central Daylight Time),571487.9000000358,016_y_m_d_a.png,O,m,1387,15,1,2406.400000035763,569081.5,7131,VNB,B,13
11,test,1,1.0,2-Back,1,m,Wed Apr 16 2025 18:09:03 GMT-0500 (Central Daylight Time),574370.1999999881,011_m_f_h_a.png,O,m,1834,16,1,2856.7999999523163,571513.4000000358,7131,VNB,B,14
12,test,1,0.0,2-Back,1,z,Wed Apr 16 2025 18:09:03 GMT-0500 (Central Daylight Time),576019.6000000238,005_o_f_d_a.png,O,z,599,17,1,1622.300000011921,574397.3000000119,7131,VNB,B,15
13,test,1,0.0,2-Back,1,m,Wed Apr 16 2025 18:09:03 GMT-0500 (Central Daylight Time),578168.6000000238,004_o_m_n_a.png,O,m,1110,18,1,2124.0,576044.6000000238,7131,VNB,B,16
0,test,2,0.0,2-Back,,,Wed Apr 16 2025 18:09:03 GMT-0500 (Central Daylight Time),578168.6000000238,007_m_m_h_a.png,O,space,3184,1,1,2124.0,576044.6000000238,7131,VNB,B,0
0,test,2,0.0,2-Back,,,Wed Apr 16 2025 18:09:03 GMT-0500 (Central Daylight Time),578168.6000000238,020_y_f_n_a.png,O,space,3184,2,1,2124.0,576044.6000000238,7131,VNB,B,0
1,test,2,1.0,2-Back,1,z,Wed Apr 16 2025 18:09:03 GMT-0500 (Central Daylight Time),589065.1000000238,005_o_f_h_a.png,O,z,1276,3,1,2284.100000023842,586781.0,7131,VNB,B,1
2,test,2,0.0,2-Back,1,m,Wed Apr 16 2025 18:09:03 GMT-0500 (Central Daylight Time),591030.9000000358,004_o_m_d_a.png,O,m,929,4,1,1936.6000000238419,589094.3000000119,7131,VNB,B,2
2,test,2,0.0,2-Back,0,m,Wed Apr 16 2025 18:09:03 GMT-0500 (Central Daylight Time),594097.0,011_m_f_d_a.png,O,None,2014,5,1,3035.5,591061.5,7131,VNB,B,3
3,test,2,0.0,2-Back,1,m,Wed Apr 16 2025 18:09:03 GMT-0500 (Central Daylight Time),596179.6999999881,016_y_m_h_a.png,O,m,1023,6,1,2048.7999999523163,594130.9000000358,7131,VNB,B,4
4,test,2,0.0,2-Back,1,m,Wed Apr 16 2025 18:09:03 GMT-0500 (Central Daylight Time),598412.1000000238,005_o_f_n_a.png,O,m,1182,7,1,2203.199999988079,596208.9000000358,7131,VNB,B,5
5,test,2,1.0,2-Back,1,z,Wed Apr 16 2025 18:09:03 GMT-0500 (Central Daylight Time),600928.0,004_o_m_h_a.png,O,z,1469,8,1,2486.899999976158,598441.1000000238,7131,VNB,B,6
6,test,2,0.0,2-Back,1,m,Wed Apr 16 2025 18:09:03 GMT-0500 (Central Daylight Time),603910.8000000119,020_y_f_d_a.png,O,m,1937,9,1,2959.600000023842,600951.1999999881,7131,VNB,B,7
6,test,2,0.0,2-Back,0,m,Wed Apr 16 2025 18:09:03 GMT-0500 (Central Daylight Time),606442.8000000119,016_y_m_d_a.png,O,z,1491,10,1,2503.399999976158,603939.4000000358,7131,VNB,B,8
7,test,2,0.0,2-Back,1,m,Wed Apr 16 2025 18:09:03 GMT-0500 (Central Daylight Time),609058.4000000358,007_m_m_n_a.png,O,m,1575,11,1,2591.7000000476837,606466.6999999881,7131,VNB,B,9
8,test,2,0.0,2-Back,1,m,Wed Apr 16 2025 18:09:03 GMT-0500 (Central Daylight Time),612090.1000000238,011_m_f_h_a.png,O,m,1982,12,1,3008.400000035763,609081.6999999881,7131,VNB,B,10
9,test,2,1.0,2-Back,1,z,Wed Apr 16 2025 18:09:03 GMT-0500 (Central Daylight Time),615056.6000000238,004_o_m_n_a.png,O,z,1943,13,1,2961.300000011921,612095.3000000119,7131,VNB,B,11
10,test,2,0.0,2-Back,1,m,Wed Apr 16 2025 18:09:03 GMT-0500 (Central Daylight Time),617705.0,005_o_f_d_a.png,O,m,1607,14,1,2619.699999988079,615085.3000000119,7131,VNB,B,12
10,test,2,0.0,2-Back,0,m,Wed Apr 16 2025 18:09:03 GMT-0500 (Central Daylight Time),619754.5,020_y_f_h_a.png,O,z,1015,15,1,2044.0,617710.5,7131,VNB,B,13
11,test,2,0.0,2-Back,1,z,Wed Apr 16 2025 18:09:03 GMT-0500 (Central Daylight Time),622220.1999999881,007_m_m_d_a.png,O,z,1437,16,1,2461.199999988079,619759.0,7131,VNB,B,14
12,test,2,0.0,2-Back,1,m,Wed Apr 16 2025 18:09:03 GMT-0500 (Central Daylight Time),625170.1000000238,016_y_m_n_a.png,O,m,1917,17,1,2940.300000011921,622229.8000000119,7131,VNB,B,15
12,test,2,1.0,2-Back,0,m,Wed Apr 16 2025 18:09:03 GMT-0500 (Central Daylight Time),628219.1000000238,011_m_f_n_a.png,O,None,2014,18,1,3031.699999988079,625187.4000000358,7131,VNB,B,16
0,test,3,1.0,2-Back,,,Wed Apr 16 2025 18:09:03 GMT-0500 (Central Daylight Time),628219.1000000238,004_o_m_n_a.png,O,space,4320,1,1,3031.699999988079,625187.4000000358,7131,VNB,B,0
0,test,3,1.0,2-Back,,,Wed Apr 16 2025 18:09:03 GMT-0500 (Central Daylight Time),628219.1000000238,005_o_f_d_a.png,O,space,4320,2,1,3031.699999988079,625187.4000000358,7131,VNB,B,0
1,test,3,0.0,2-Back,1,m,Wed Apr 16 2025 18:09:03 GMT-0500 (Central Daylight Time),640680.6999999881,020_y_f_h_a.png,O,m,1733,3,1,2750.599999964237,637930.1000000238,7131,VNB,B,1
1,test,3,0.0,2-Back,0,z,Wed Apr 16 2025 18:09:03 GMT-0500 (Central Daylight Time),643713.9000000358,011_m_f_d_a.png,O,None,2014,4,1,3028.300000011921,640685.6000000238,7131,VNB,B,2
2,test,3,1.0,2-Back,1,m,Wed Apr 16 2025 18:09:03 GMT-0500 (Central Daylight Time),646546.4000000358,016_y_m_n_a.png,O,m,1776,5,1,2800.2000000476837,643746.1999999881,7131,VNB,B,3
3,test,3,0.0,2-Back,1,m,Wed Apr 16 2025 18:09:03 GMT-0500 (Central Daylight Time),648613.1999999881,004_o_m_h_a.png,O,m,1031,6,1,2041.0,646572.1999999881,7131,VNB,B,4
4,test,3,0.0,2-Back,1,z,Wed Apr 16 2025 18:09:03 GMT-0500 (Central Daylight Time),650661.8000000119,020_y_f_n_a.png,O,z,989,7,1,2019.0,648642.8000000119,7131,VNB,B,5
5,test,3,1.0,2-Back,1,m,Wed Apr 16 2025 18:09:03 GMT-0500 (Central Daylight Time),652911.1999999881,007_m_m_d_a.png,O,m,1204,8,1,2221.699999988079,650689.5,7131,VNB,B,6
5,test,3,0.0,2-Back,0,m,Wed Apr 16 2025 18:09:03 GMT-0500 (Central Daylight Time),655993.4000000358,016_y_m_d_a.png,O,None,2016,9,1,3033.0,652960.4000000358,7131,VNB,B,7
6,test,3,0.0,2-Back,1,m,Wed Apr 16 2025 18:09:03 GMT-0500 (Central Daylight Time),658676.1000000238,005_o_f_h_a.png,O,m,1632,10,1,2654.0,656022.1000000238,7131,VNB,B,8
6,test,3,1.0,2-Back,0,m,Wed Apr 16 2025 18:09:03 GMT-0500 (Central Daylight Time),661641.6000000238,011_m_f_n_a.png,O,z,1903,11,1,2935.900000035763,658705.6999999881,7131,VNB,B,9
6,test,3,1.0,2-Back,0,z,Wed Apr 16 2025 18:09:03 GMT-0500 (Central Daylight Time),664690.4000000358,007_m_m_h_a.png,O,None,2014,12,1,3027.7000000476837,661662.6999999881,7131,VNB,B,10
7,test,3,0.0,2-Back,1,m,Wed Apr 16 2025 18:09:03 GMT-0500 (Central Daylight Time),667473.0,020_y_f_d_a.png,O,m,1736,13,1,2755.0,664718.0,7131,VNB,B,11
8,test,3,0.0,2-Back,1,m,Wed Apr 16 2025 18:09:03 GMT-0500 (Central Daylight Time),670288.6999999881,005_o_f_n_a.png,O,m,1761,14,1,2782.0,667506.6999999881,7131,VNB,B,12
8,test,3,0.0,2-Back,0,z,Wed Apr 16 2025 18:09:03 GMT-0500 (Central Daylight Time),673338.0,004_o_m_d_a.png,O,None,2015,15,1,3022.899999976158,670315.1000000238,7131,VNB,B,13
9,test,3,1.0,2-Back,1,m,Wed Apr 16 2025 18:09:03 GMT-0500 (Central Daylight Time),675935.9000000358,011_m_f_h_a.png,O,m,1558,16,1,2572.7000000476837,673363.1999999881,7131,VNB,B,14
10,test,3,0.0,2-Back,1,m,Wed Apr 16 2025 18:09:03 GMT-0500 (Central Daylight Time),678453.0,007_m_m_n_a.png,O,m,1482,17,1,2512.0,675941.0,7131,VNB,B,15
10,test,3,0.0,2-Back,0,z,Wed Apr 16 2025 18:09:03 GMT-0500 (Central Daylight Time),681485.1000000238,016_y_m_h_a.png,O,m,1981,18,1,3007.100000023842,678478.0,7131,VNB,B,16
0,test,4,0.0,2-Back,,,Wed Apr 16 2025 18:09:03 GMT-0500 (Central Daylight Time),681485.1000000238,011_m_f_n_a.png,O,space,1265,1,1,3007.100000023842,678478.0,7131,VNB,B,0
0,test,4,0.0,2-Back,,,Wed Apr 16 2025 18:09:03 GMT-0500 (Central Daylight Time),681485.1000000238,004_o_m_n_a.png,O,space,1265,2,1,3007.100000023842,678478.0,7131,VNB,B,0
0,test,4,1.0,2-Back,0,m,Wed Apr 16 2025 18:09:03 GMT-0500 (Central Daylight Time),691165.1999999881,016_y_m_h_a.png,O,None,2014,3,1,3032.2999999523163,688132.9000000358,7131,VNB,B,1
1,test,4,1.0,2-Back,1,m,Wed Apr 16 2025 18:09:03 GMT-0500 (Central Daylight Time),693964.1000000238,005_o_f_d_a.png,O,m,1768,4,1,2788.300000011921,691175.8000000119,7131,VNB,B,2
2,test,4,0.0,2-Back,1,z,Wed Apr 16 2025 18:09:03 GMT-0500 (Central Daylight Time),696246.8000000119,004_o_m_h_a.png,O,z,1243,5,1,2253.399999976158,693993.4000000358,7131,VNB,B,3
2,test,4,0.0,2-Back,0,m,Wed Apr 16 2025 18:09:03 GMT-0500 (Central Daylight Time),699295.6999999881,007_m_m_n_a.png,O,None,2015,6,1,3022.899999976158,696272.8000000119,7131,VNB,B,4
3,test,4,0.0,2-Back,1,m,Wed Apr 16 2025 18:09:03 GMT-0500 (Central Daylight Time),701895.1000000238,011_m_f_d_a.png,O,m,1538,7,1,2564.699999988079,699330.4000000358,7131,VNB,B,5
3,test,4,0.0,2-Back,0,z,Wed Apr 16 2025 18:09:03 GMT-0500 (Central Daylight Time),704360.9000000358,020_y_f_n_a.png,O,m,1420,8,1,2437.800000011921,701923.1000000238,7131,VNB,B,6
4,test,4,1.0,2-Back,1,m,Wed Apr 16 2025 18:09:03 GMT-0500 (Central Daylight Time),707043.3000000119,005_o_f_h_a.png,O,m,1642,9,1,2659.100000023842,704384.1999999881,7131,VNB,B,7
5,test,4,0.0,2-Back,1,m,Wed Apr 16 2025 18:09:03 GMT-0500 (Central Daylight Time),709724.6999999881,007_m_m_h_a.png,O,m,1645,10,1,2654.399999976158,707070.3000000119,7131,VNB,B,8
6,test,4,0.0,2-Back,1,m,Wed Apr 16 2025 18:09:03 GMT-0500 (Central Daylight Time),711774.6000000238,020_y_f_d_a.png,O,m,1028,11,1,2045.5,709729.1000000238,7131,VNB,B,9
7,test,4,0.0,2-Back,1,m,Wed Apr 16 2025 18:09:03 GMT-0500 (Central Daylight Time),714640.4000000358,016_y_m_n_a.png,O,m,1827,12,1,2834.600000023842,711805.8000000119,7131,VNB,B,10
7,test,4,0.0,2-Back,0,z,Wed Apr 16 2025 18:09:03 GMT-0500 (Central Daylight Time),717623.0,004_o_m_d_a.png,O,m,1937,13,1,2957.0,714666.0,7131,VNB,B,11
7,test,4,1.0,2-Back,0,m,Wed Apr 16 2025 18:09:03 GMT-0500 (Central Daylight Time),720689.0,011_m_f_h_a.png,O,None,2015,14,1,3034.899999976158,717654.1000000238,7131,VNB,B,12
7,test,4,1.0,2-Back,0,m,Wed Apr 16 2025 18:09:03 GMT-0500 (Central Daylight Time),723737.8000000119,020_y_f_h_a.png,O,None,2014,15,1,3019.300000011921,720718.5,7131,VNB,B,13
8,test,4,0.0,2-Back,1,m,Wed Apr 16 2025 18:09:03 GMT-0500 (Central Daylight Time),725790.5,005_o_f_n_a.png,O,m,1001,16,1,2024.300000011921,723766.1999999881,7131,VNB,B,14
8,test,4,0.0,2-Back,0,m,Wed Apr 16 2025 18:09:03 GMT-0500 (Central Daylight Time),728836.3000000119,016_y_m_d_a.png,O,None,2015,17,1,3019.399999976158,725816.9000000358,7131,VNB,B,15
8,test,4,1.0,2-Back,0,m,Wed Apr 16 2025 18:09:03 GMT-0500 (Central Daylight Time),731818.5,007_m_m_d_a.png,O,z,1942,18,1,2954.800000011921,728863.6999999881,7131,VNB,B,16
0,test,5,1.0,2-Back,,,Wed Apr 16 2025 18:09:03 GMT-0500 (Central Daylight Time),731818.5,020_y_f_d_a.png,O,space,942,1,1,2954.800000011921,728863.6999999881,7131,VNB,B,0
0,test,5,1.0,2-Back,,,Wed Apr 16 2025 18:09:03 GMT-0500 (Central Daylight Time),731818.5,005_o_f_h_a.png,O,space,942,2,1,2954.800000011921,728863.6999999881,7131,VNB,B,0
0,test,5,1.0,2-Back,0,z,Wed Apr 16 2025 18:09:03 GMT-0500 (Central Daylight Time),741181.3000000119,004_o_m_d_a.png,O,None,2013,3,1,3030.300000011921,738151.0,7131,VNB,B,1
1,test,5,1.0,2-Back,1,m,Wed Apr 16 2025 18:09:03 GMT-0500 (Central Daylight Time),743963.5,011_m_f_n_a.png,O,m,1744,4,1,2777.399999976158,741186.1000000238,7131,VNB,B,2
2,test,5,0.0,2-Back,1,m,Wed Apr 16 2025 18:09:03 GMT-0500 (Central Daylight Time),746014.1999999881,007_m_m_h_a.png,O,m,1016,5,1,2044.7999999523163,743969.4000000358,7131,VNB,B,3
2,test,5,0.0,2-Back,0,z,Wed Apr 16 2025 18:09:03 GMT-0500 (Central Daylight Time),748596.3000000119,020_y_f_n_a.png,O,m,1530,6,1,2554.5,746041.8000000119,7131,VNB,B,4
2,test,5,0.0,2-Back,0,m,Wed Apr 16 2025 18:09:03 GMT-0500 (Central Daylight Time),751646.6999999881,005_o_f_d_a.png,O,None,2015,7,1,3028.2999999523163,748618.4000000358,7131,VNB,B,5
2,test,5,0.0,2-Back,0,m,Wed Apr 16 2025 18:09:03 GMT-0500 (Central Daylight Time),754711.3000000119,004_o_m_h_a.png,O,None,2014,8,1,3034.199999988079,751677.1000000238,7131,VNB,B,6
2,test,5,1.0,2-Back,0,z,Wed Apr 16 2025 18:09:03 GMT-0500 (Central Daylight Time),757760.1999999881,011_m_f_d_a.png,O,None,2014,9,1,3019.699999988079,754740.5,7131,VNB,B,7
2,test,5,0.0,2-Back,0,m,Wed Apr 16 2025 18:09:03 GMT-0500 (Central Daylight Time),760808.8000000119,016_y_m_n_a.png,O,None,2015,10,1,3023.899999976158,757784.9000000358,7131,VNB,B,8
3,test,5,0.0,2-Back,1,m,Wed Apr 16 2025 18:09:03 GMT-0500 (Central Daylight Time),763491.5,007_m_m_n_a.png,O,m,1633,11,1,2659.699999988079,760831.8000000119,7131,VNB,B,9
4,test,5,0.0,2-Back,1,m,Wed Apr 16 2025 18:09:03 GMT-0500 (Central Daylight Time),765740.6999999881,020_y_f_h_a.png,O,m,1190,12,1,2218.2999999523163,763522.4000000358,7131,VNB,B,10
4,test,5,0.0,2-Back,0,m,Wed Apr 16 2025 18:09:03 GMT-0500 (Central Daylight Time),768806.5,016_y_m_d_a.png,O,None,2014,13,1,3030.699999988079,765775.8000000119,7131,VNB,B,11
5,test,5,1.0,2-Back,1,z,Wed Apr 16 2025 18:09:03 GMT-0500 (Central Daylight Time),770389.5,011_m_f_h_a.png,O,z,533,14,1,1551.199999988079,768838.3000000119,7131,VNB,B,12
5,test,5,0.0,2-Back,0,m,Wed Apr 16 2025 18:09:03 GMT-0500 (Central Daylight Time),773441.8000000119,004_o_m_n_a.png,O,None,2015,15,1,3022.300000011921,770419.5,7131,VNB,B,13
6,test,5,0.0,2-Back,1,m,Wed Apr 16 2025 18:09:03 GMT-0500 (Central Daylight Time),775737.5,007_m_m_d_a.png,O,m,1243,16,1,2266.300000011921,773471.1999999881,7131,VNB,B,14
7,test,5,0.0,2-Back,1,z,Wed Apr 16 2025 18:09:03 GMT-0500 (Central Daylight Time),777802.4000000358,005_o_f_n_a.png,O,z,1023,17,1,2039.800000011921,775762.6000000238,7131,VNB,B,15
7,test,5,1.0,2-Back,0,m,Wed Apr 16 2025 18:09:03 GMT-0500 (Central Daylight Time),780835.6000000238,016_y_m_h_a.png,O,None,2014,18,1,3029.0,777806.6000000238,7131,VNB,B,16
