acc_sum,block,block_c,block_cond,con_img,correct,correct_response,datetime,endtime,face,jitter,line,project,response,response_time,row_sel,session_number,start_end,starttime,subject_id,task,task_vers,trial
1,prac,1,A,haborder.png,1,m,Mon Feb 24 2025 13:50:36 GMT-0600 (Central Standard Time),55308.10000000009,CFD-BM-015-017-HC.jpg,1700,solid,O,m,1421,1,1,3915.399999999907,51392.700000000186,7063,ATS,B,1
2,prac,1,A,haborder.png,1,z,Mon Feb 24 2025 13:50:36 GMT-0600 (Central Standard Time),57774.299999999814,CFD-BF-051-043-A.jpg,1000,solid,O,z,678,4,1,6381.5999999996275,51392.700000000186,7063,ATS,B,2
3,prac,1,A,haborder.png,1,z,Mon Feb 24 2025 13:50:36 GMT-0600 (Central Standard Time),60256.60000000009,CFD-WF-013-015-A.jpg,1000,solid,O,z,682,12,1,8863.899999999907,51392.700000000186,7063,ATS,B,3
4,prac,1,A,haborder.png,1,z,Mon Feb 24 2025 13:50:36 GMT-0600 (Central Standard Time),63589.10000000009,CFD-WM-009-009-A.jpg,1900,solid,O,z,637,8,1,12196.399999999907,51392.700000000186,7063,ATS,B,4
5,prac,1,A,haborder.png,1,m,Mon Feb 24 2025 13:50:36 GMT-0600 (Central Standard Time),66421.6000000001,CFD-BM-020-024-HC.jpg,1500,solid,O,m,545,3,1,15028.899999999907,51392.700000000186,7063,ATS,B,5
6,prac,1,A,haborder.png,1,m,Mon Feb 24 2025 13:50:36 GMT-0600 (Central Standard Time),69886.8999999999,CFD-BF-035-007-HC.jpg,2000,solid,O,m,677,5,1,18494.19999999972,51392.700000000186,7063,ATS,B,6
7,prac,1,A,haborder.png,1,z,Mon Feb 24 2025 13:50:36 GMT-0600 (Central Standard Time),72885.8999999999,CFD-BM-037-041-A.jpg,1600,solid,O,z,611,2,1,21493.19999999972,51392.700000000186,7063,ATS,B,7
8,prac,1,A,haborder.png,1,m,Mon Feb 24 2025 13:50:36 GMT-0600 (Central Standard Time),76001.70000000019,CFD-WM-012-007-HC.jpg,1700,solid,O,m,625,9,1,24609.0,51392.700000000186,7063,ATS,B,8
9,prac,1,A,haborder.png,1,m,Mon Feb 24 2025 13:50:36 GMT-0600 (Central Standard Time),78800.8999999999,CFD-WM-011-006-HC.jpg,1400,solid,O,m,609,7,1,27408.19999999972,51392.700000000186,7063,ATS,B,9
10,prac,1,A,haborder.png,1,z,Mon Feb 24 2025 13:50:36 GMT-0600 (Central Standard Time),81533.1000000001,CFD-BF-050-012-A.jpg,1200,solid,O,z,746,6,1,30140.399999999907,51392.700000000186,7063,ATS,B,10
11,prac,1,A,haborder.png,1,z,Mon Feb 24 2025 13:50:36 GMT-0600 (Central Standard Time),84549.29999999981,CFD-WF-026-008-A.jpg,1600,solid,O,z,621,10,1,33156.59999999963,51392.700000000186,7063,ATS,B,11
12,prac,1,A,haborder.png,1,m,Mon Feb 24 2025 13:50:36 GMT-0600 (Central Standard Time),87631.29999999981,CFD-WF-011-006-HC.jpg,1500,solid,O,m,785,11,1,36238.59999999963,51392.700000000186,7063,ATS,B,12
0,prac,1,B,mfborder.png,0,m,Mon Feb 24 2025 13:50:36 GMT-0600 (Central Standard Time),115622.3999999999,CFD-WM-037-060-A.jpg,1200,dash,O,None,1515,6,1,3498.899999999907,112123.5,7063,ATS,B,1
1,prac,1,B,mfborder.png,1,m,Mon Feb 24 2025 13:50:36 GMT-0600 (Central Standard Time),119854.6000000001,CFD-BM-037-041-A.jpg,2000,dash,O,m,1444,5,1,7731.100000000093,112123.5,7063,ATS,B,2
1,prac,1,B,mfborder.png,0,z,Mon Feb 24 2025 13:50:36 GMT-0600 (Central Standard Time),124053.20000000019,CFD-WF-027-007-HC.jpg,1900,dash,O,None,1516,8,1,11929.700000000186,112123.5,7063,ATS,B,3
2,prac,1,B,mfborder.png,1,z,Mon Feb 24 2025 13:50:36 GMT-0600 (Central Standard Time),127368.79999999981,CFD-WF-026-008-A.jpg,1500,dash,O,z,1025,11,1,15245.299999999814,112123.5,7063,ATS,B,4
3,prac,1,B,mfborder.png,1,m,Mon Feb 24 2025 13:50:36 GMT-0600 (Central Standard Time),130734.70000000019,CFD-WM-012-007-HC.jpg,1600,dash,O,m,977,10,1,18611.200000000186,112123.5,7063,ATS,B,5
3,prac,1,B,mfborder.png,0,m,Mon Feb 24 2025 13:50:36 GMT-0600 (Central Standard Time),134316.8999999999,CFD-WM-009-009-A.jpg,1700,dash,O,z,1088,9,1,22193.399999999907,112123.5,7063,ATS,B,6
3,prac,1,B,mfborder.png,0,z,Mon Feb 24 2025 13:50:36 GMT-0600 (Central Standard Time),137232.5,CFD-WF-011-006-HC.jpg,1000,dash,O,m,1125,12,1,25109.0,112123.5,7063,ATS,B,7
4,prac,1,B,mfborder.png,1,m,Mon Feb 24 2025 13:50:36 GMT-0600 (Central Standard Time),140564.7999999998,CFD-BM-020-024-HC.jpg,1700,dash,O,m,838,1,1,28441.299999999814,112123.5,7063,ATS,B,8
4,prac,1,B,mfborder.png,0,z,Mon Feb 24 2025 13:50:36 GMT-0600 (Central Standard Time),144263.6000000001,CFD-BF-035-007-HC.jpg,1400,dash,O,None,1515,7,1,32140.100000000093,112123.5,7063,ATS,B,9
4,prac,1,B,mfborder.png,0,z,Mon Feb 24 2025 13:50:36 GMT-0600 (Central Standard Time),147529.3999999999,CFD-BF-051-043-A.jpg,1000,dash,O,m,1465,4,1,35405.89999999991,112123.5,7063,ATS,B,10
5,prac,1,B,mfborder.png,1,z,Mon Feb 24 2025 13:50:36 GMT-0600 (Central Standard Time),150911.3999999999,CFD-BF-027-013-HC.jpg,1500,dash,O,z,1085,3,1,38787.89999999991,112123.5,7063,ATS,B,11
6,prac,1,B,mfborder.png,1,m,Mon Feb 24 2025 13:50:36 GMT-0600 (Central Standard Time),154193.7999999998,CFD-BM-041-048-A.jpg,1600,dash,O,m,891,2,1,42070.299999999814,112123.5,7063,ATS,B,12
1,prac,2,B,mfborder.png,1,m,Mon Feb 24 2025 13:50:36 GMT-0600 (Central Standard Time),165523.7000000002,CFD-WM-009-009-A.jpg,1700,dash,O,m,1122,9,1,53400.200000000186,112123.5,7063,ATS,B,1
2,prac,2,B,mfborder.png,1,z,Mon Feb 24 2025 13:50:36 GMT-0600 (Central Standard Time),168955.8999999999,CFD-WF-027-007-HC.jpg,1900,dash,O,z,747,8,1,56832.39999999991,112123.5,7063,ATS,B,2
3,prac,2,B,mfborder.png,1,m,Mon Feb 24 2025 13:50:36 GMT-0600 (Central Standard Time),172021.2999999998,CFD-BM-020-024-HC.jpg,1700,dash,O,m,578,1,1,59897.799999999814,112123.5,7063,ATS,B,3
4,prac,2,B,mfborder.png,1,z,Mon Feb 24 2025 13:50:36 GMT-0600 (Central Standard Time),174554.1000000001,CFD-BF-051-043-A.jpg,1000,dash,O,z,747,4,1,62430.60000000009,112123.5,7063,ATS,B,4
5,prac,2,B,mfborder.png,1,z,Mon Feb 24 2025 13:50:36 GMT-0600 (Central Standard Time),177853.2000000002,CFD-BF-027-013-HC.jpg,1500,dash,O,z,1012,3,1,65729.70000000019,112123.5,7063,ATS,B,5
6,prac,2,B,mfborder.png,1,z,Mon Feb 24 2025 13:50:36 GMT-0600 (Central Standard Time),180502.3999999999,CFD-WF-011-006-HC.jpg,1000,dash,O,z,853,12,1,68378.8999999999,112123.5,7063,ATS,B,6
7,prac,2,B,mfborder.png,1,m,Mon Feb 24 2025 13:50:36 GMT-0600 (Central Standard Time),184001.1000000001,CFD-BM-037-041-A.jpg,2000,dash,O,m,699,5,1,71877.6000000001,112123.5,7063,ATS,B,7
8,prac,2,B,mfborder.png,1,m,Mon Feb 24 2025 13:50:36 GMT-0600 (Central Standard Time),187151.2999999998,CFD-BM-041-048-A.jpg,1600,dash,O,m,753,2,1,75027.79999999981,112123.5,7063,ATS,B,8
9,prac,2,B,mfborder.png,1,z,Mon Feb 24 2025 13:50:36 GMT-0600 (Central Standard Time),190749.1000000001,CFD-BF-035-007-HC.jpg,1400,dash,O,z,1404,7,1,78625.6000000001,112123.5,7063,ATS,B,9
10,prac,2,B,mfborder.png,1,m,Mon Feb 24 2025 13:50:36 GMT-0600 (Central Standard Time),193515.8999999999,CFD-WM-037-060-A.jpg,1200,dash,O,m,789,6,1,81392.3999999999,112123.5,7063,ATS,B,10
11,prac,2,B,mfborder.png,1,z,Mon Feb 24 2025 13:50:36 GMT-0600 (Central Standard Time),196647.3999999999,CFD-WF-026-008-A.jpg,1500,dash,O,z,836,11,1,84523.8999999999,112123.5,7063,ATS,B,11
12,prac,2,B,mfborder.png,1,m,Mon Feb 24 2025 13:50:36 GMT-0600 (Central Standard Time),199629.3999999999,CFD-WM-012-007-HC.jpg,1600,dash,O,m,595,10,1,87505.8999999999,112123.5,7063,ATS,B,12
1,test,1,A,haborder.png,1,m,Mon Feb 24 2025 13:50:36 GMT-0600 (Central Standard Time),225271.5,CFD-BM-020-024-HC.jpg,1500,solid,O,m,650,3,1,2182.399999999907,223089.1000000001,7063,ATS,B,1
2,test,1,A,haborder.png,1,z,Mon Feb 24 2025 13:50:36 GMT-0600 (Central Standard Time),226954.3999999999,CFD-WF-013-015-A.jpg,1000,solid,O,z,659,12,1,3865.2999999998137,223089.1000000001,7063,ATS,B,2
3,test,1,A,haborder.png,1,m,Mon Feb 24 2025 13:50:36 GMT-0600 (Central Standard Time),228970.5,CFD-WM-011-006-HC.jpg,1400,solid,O,m,584,7,1,5881.399999999907,223089.1000000001,7063,ATS,B,3
4,test,1,A,haborder.png,1,z,Mon Feb 24 2025 13:50:36 GMT-0600 (Central Standard Time),231353.0,CFD-BM-037-041-A.jpg,1600,solid,O,z,751,2,1,8263.899999999907,223089.1000000001,7063,ATS,B,4
5,test,1,A,haborder.png,1,z,Mon Feb 24 2025 13:50:36 GMT-0600 (Central Standard Time),233252.3999999999,CFD-BF-050-012-A.jpg,1200,solid,O,z,681,6,1,10163.299999999814,223089.1000000001,7063,ATS,B,5
6,test,1,A,haborder.png,1,m,Mon Feb 24 2025 13:50:36 GMT-0600 (Central Standard Time),235918.2000000002,CFD-BF-035-007-HC.jpg,2000,solid,O,m,646,5,1,12829.100000000093,223089.1000000001,7063,ATS,B,6
7,test,1,A,haborder.png,1,z,Mon Feb 24 2025 13:50:36 GMT-0600 (Central Standard Time),238217.6000000001,CFD-WF-026-008-A.jpg,1600,solid,O,z,668,10,1,15128.5,223089.1000000001,7063,ATS,B,7
8,test,1,A,haborder.png,1,z,Mon Feb 24 2025 13:50:36 GMT-0600 (Central Standard Time),240416.7999999998,CFD-WF-026-008-A.jpg,1600,solid,O,z,577,10,1,17327.69999999972,223089.1000000001,7063,ATS,B,8
9,test,1,A,haborder.png,1,m,Mon Feb 24 2025 13:50:36 GMT-0600 (Central Standard Time),242536.2000000002,CFD-WF-011-006-HC.jpg,1500,solid,O,m,597,11,1,19447.100000000093,223089.1000000001,7063,ATS,B,9
10,test,1,A,haborder.png,1,m,Mon Feb 24 2025 13:50:36 GMT-0600 (Central Standard Time),244882.0,CFD-WM-012-007-HC.jpg,1700,solid,O,m,618,9,1,21792.899999999907,223089.1000000001,7063,ATS,B,10
11,test,1,A,haborder.png,1,z,Mon Feb 24 2025 13:50:36 GMT-0600 (Central Standard Time),246564.8999999999,CFD-WF-013-015-A.jpg,1000,solid,O,z,664,12,1,23475.799999999814,223089.1000000001,7063,ATS,B,11
12,test,1,A,haborder.png,1,m,Mon Feb 24 2025 13:50:36 GMT-0600 (Central Standard Time),249563.8999999999,CFD-BF-035-007-HC.jpg,2000,solid,O,m,982,5,1,26474.799999999814,223089.1000000001,7063,ATS,B,12
13,test,1,A,haborder.png,1,z,Mon Feb 24 2025 13:50:36 GMT-0600 (Central Standard Time),251364.2000000002,CFD-BF-051-043-A.jpg,1000,solid,O,z,782,4,1,28275.100000000093,223089.1000000001,7063,ATS,B,13
14,test,1,A,haborder.png,1,m,Mon Feb 24 2025 13:50:36 GMT-0600 (Central Standard Time),253462.6000000001,CFD-WM-011-006-HC.jpg,1400,solid,O,m,679,7,1,30373.5,223089.1000000001,7063,ATS,B,14
15,test,1,A,haborder.png,1,z,Mon Feb 24 2025 13:50:36 GMT-0600 (Central Standard Time),255728.6000000001,CFD-BM-037-041-A.jpg,1600,solid,O,z,635,2,1,32639.5,223089.1000000001,7063,ATS,B,15
16,test,1,A,haborder.png,1,m,Mon Feb 24 2025 13:50:36 GMT-0600 (Central Standard Time),257877.8999999999,CFD-BM-020-024-HC.jpg,1500,solid,O,m,622,3,1,34788.799999999814,223089.1000000001,7063,ATS,B,16
17,test,1,A,haborder.png,1,m,Mon Feb 24 2025 13:50:36 GMT-0600 (Central Standard Time),260377.1000000001,CFD-BM-015-017-HC.jpg,1700,solid,O,m,768,1,1,37288.0,223089.1000000001,7063,ATS,B,17
18,test,1,A,haborder.png,1,z,Mon Feb 24 2025 13:50:36 GMT-0600 (Central Standard Time),262876.5,CFD-WM-009-009-A.jpg,1900,solid,O,z,573,8,1,39787.39999999991,223089.1000000001,7063,ATS,B,18
19,test,1,A,haborder.png,1,m,Mon Feb 24 2025 13:50:36 GMT-0600 (Central Standard Time),265159.1000000001,CFD-WM-012-007-HC.jpg,1700,solid,O,m,562,9,1,42070.0,223089.1000000001,7063,ATS,B,19
20,test,1,A,haborder.png,1,z,Mon Feb 24 2025 13:50:36 GMT-0600 (Central Standard Time),266808.6000000001,CFD-BF-051-043-A.jpg,1000,solid,O,z,619,4,1,43719.5,223089.1000000001,7063,ATS,B,20
21,test,1,A,haborder.png,1,z,Mon Feb 24 2025 13:50:36 GMT-0600 (Central Standard Time),269507.8999999999,CFD-WM-009-009-A.jpg,1900,solid,O,z,774,8,1,46418.799999999814,223089.1000000001,7063,ATS,B,21
22,test,1,A,haborder.png,1,m,Mon Feb 24 2025 13:50:36 GMT-0600 (Central Standard Time),271690.1000000001,CFD-WF-011-006-HC.jpg,1500,solid,O,m,650,11,1,48601.0,223089.1000000001,7063,ATS,B,22
23,test,1,A,haborder.png,1,m,Mon Feb 24 2025 13:50:36 GMT-0600 (Central Standard Time),274223.1000000001,CFD-BM-015-017-HC.jpg,1700,solid,O,m,812,1,1,51134.0,223089.1000000001,7063,ATS,B,23
24,test,1,A,haborder.png,1,z,Mon Feb 24 2025 13:50:36 GMT-0600 (Central Standard Time),276106.0,CFD-BF-050-012-A.jpg,1200,solid,O,z,651,6,1,53016.89999999991,223089.1000000001,7063,ATS,B,24
1,test,1,B,mfborder.png,1,z,Mon Feb 24 2025 13:50:36 GMT-0600 (Central Standard Time),292867.1000000001,CFD-BF-051-043-A.jpg,1000,dash,O,z,1171,4,1,2199.5,290667.6000000001,7063,ATS,B,1
2,test,1,B,mfborder.png,1,z,Mon Feb 24 2025 13:50:36 GMT-0600 (Central Standard Time),294716.6000000001,CFD-WF-011-006-HC.jpg,1000,dash,O,z,820,12,1,4049.0,290667.6000000001,7063,ATS,B,2
3,test,1,B,mfborder.png,1,z,Mon Feb 24 2025 13:50:36 GMT-0600 (Central Standard Time),296465.7000000002,CFD-WF-011-006-HC.jpg,1000,dash,O,z,726,12,1,5798.100000000093,290667.6000000001,7063,ATS,B,3
4,test,1,B,mfborder.png,1,z,Mon Feb 24 2025 13:50:36 GMT-0600 (Central Standard Time),298733.0,CFD-BF-027-013-HC.jpg,1500,dash,O,z,748,3,1,8065.399999999907,290667.6000000001,7063,ATS,B,4
5,test,1,B,mfborder.png,1,m,Mon Feb 24 2025 13:50:36 GMT-0600 (Central Standard Time),300997.8999999999,CFD-WM-012-007-HC.jpg,1600,dash,O,m,646,10,1,10330.299999999814,290667.6000000001,7063,ATS,B,5
6,test,1,B,mfborder.png,1,m,Mon Feb 24 2025 13:50:36 GMT-0600 (Central Standard Time),303297.3999999999,CFD-BM-020-024-HC.jpg,1700,dash,O,m,576,1,1,12629.799999999814,290667.6000000001,7063,ATS,B,6
7,test,1,B,mfborder.png,1,m,Mon Feb 24 2025 13:50:36 GMT-0600 (Central Standard Time),305591.0,CFD-WM-012-007-HC.jpg,1600,dash,O,m,660,10,1,14923.399999999907,290667.6000000001,7063,ATS,B,7
8,test,1,B,mfborder.png,1,z,Mon Feb 24 2025 13:50:36 GMT-0600 (Central Standard Time),307679.1000000001,CFD-BF-027-013-HC.jpg,1500,dash,O,z,578,3,1,17011.5,290667.6000000001,7063,ATS,B,8
9,test,1,B,mfborder.png,1,m,Mon Feb 24 2025 13:50:36 GMT-0600 (Central Standard Time),309846.2000000002,CFD-WM-037-060-A.jpg,1200,dash,O,m,947,6,1,19178.600000000093,290667.6000000001,7063,ATS,B,9
10,test,1,B,mfborder.png,1,m,Mon Feb 24 2025 13:50:36 GMT-0600 (Central Standard Time),312144.3999999999,CFD-BM-041-048-A.jpg,1600,dash,O,m,665,2,1,21476.799999999814,290667.6000000001,7063,ATS,B,10
11,test,1,B,mfborder.png,1,z,Mon Feb 24 2025 13:50:36 GMT-0600 (Central Standard Time),314859.8999999999,CFD-WF-027-007-HC.jpg,1900,dash,O,z,788,8,1,24192.299999999814,290667.6000000001,7063,ATS,B,11
12,test,1,B,mfborder.png,1,z,Mon Feb 24 2025 13:50:36 GMT-0600 (Central Standard Time),317009.6000000001,CFD-WF-026-008-A.jpg,1500,dash,O,z,617,11,1,26342.0,290667.6000000001,7063,ATS,B,12
13,test,1,B,mfborder.png,1,m,Mon Feb 24 2025 13:50:36 GMT-0600 (Central Standard Time),319275.7999999998,CFD-BM-041-048-A.jpg,1600,dash,O,m,629,2,1,28608.19999999972,290667.6000000001,7063,ATS,B,13
14,test,1,B,mfborder.png,1,z,Mon Feb 24 2025 13:50:36 GMT-0600 (Central Standard Time),321424.7000000002,CFD-WF-026-008-A.jpg,1500,dash,O,z,627,11,1,30757.100000000093,290667.6000000001,7063,ATS,B,14
15,test,1,B,mfborder.png,1,m,Mon Feb 24 2025 13:50:36 GMT-0600 (Central Standard Time),324057.2999999998,CFD-BM-037-041-A.jpg,2000,dash,O,m,602,5,1,33389.69999999972,290667.6000000001,7063,ATS,B,15
16,test,1,B,mfborder.png,1,z,Mon Feb 24 2025 13:50:36 GMT-0600 (Central Standard Time),326623.3999999999,CFD-WF-027-007-HC.jpg,1900,dash,O,z,645,8,1,35955.799999999814,290667.6000000001,7063,ATS,B,16
17,test,1,B,mfborder.png,1,m,Mon Feb 24 2025 13:50:36 GMT-0600 (Central Standard Time),328439.2999999998,CFD-WM-037-060-A.jpg,1200,dash,O,m,595,6,1,37771.69999999972,290667.6000000001,7063,ATS,B,17
18,test,1,B,mfborder.png,1,m,Mon Feb 24 2025 13:50:36 GMT-0600 (Central Standard Time),330788.7999999998,CFD-WM-009-009-A.jpg,1700,dash,O,m,623,9,1,40121.19999999972,290667.6000000001,7063,ATS,B,18
19,test,1,B,mfborder.png,1,m,Mon Feb 24 2025 13:50:36 GMT-0600 (Central Standard Time),333387.7999999998,CFD-BM-037-041-A.jpg,2000,dash,O,m,574,5,1,42720.19999999972,290667.6000000001,7063,ATS,B,19
19,test,1,B,mfborder.png,0,z,Mon Feb 24 2025 13:50:36 GMT-0600 (Central Standard Time),336320.5,CFD-BF-035-007-HC.jpg,1400,dash,O,None,1515,7,1,45652.89999999991,290667.6000000001,7063,ATS,B,20
20,test,1,B,mfborder.png,1,z,Mon Feb 24 2025 13:50:36 GMT-0600 (Central Standard Time),338019.7999999998,CFD-BF-051-043-A.jpg,1000,dash,O,z,674,4,1,47352.19999999972,290667.6000000001,7063,ATS,B,21
21,test,1,B,mfborder.png,1,m,Mon Feb 24 2025 13:50:36 GMT-0600 (Central Standard Time),340452.2000000002,CFD-WM-009-009-A.jpg,1700,dash,O,m,706,9,1,49784.60000000009,290667.6000000001,7063,ATS,B,22
22,test,1,B,mfborder.png,1,m,Mon Feb 24 2025 13:50:36 GMT-0600 (Central Standard Time),342834.8999999999,CFD-BM-020-024-HC.jpg,1700,dash,O,m,650,1,1,52167.299999999814,290667.6000000001,7063,ATS,B,23
23,test,1,B,mfborder.png,1,z,Mon Feb 24 2025 13:50:36 GMT-0600 (Central Standard Time),344950.8999999999,CFD-BF-035-007-HC.jpg,1400,dash,O,z,687,7,1,54283.299999999814,290667.6000000001,7063,ATS,B,24
1,10,1,C,haborder.png,1,m,Mon Feb 24 2025 13:50:36 GMT-0600 (Central Standard Time),390687.8999999999,CFD-BM-020-024-HC.jpg,1500,solid,O,m,906,prac,1,3182.399999999907,387505.5,7063,ATS,B,1
2,12,1,C,haborder.png,1,m,Mon Feb 24 2025 13:50:36 GMT-0600 (Central Standard Time),393919.2000000002,CFD-WM-011-006-HC.jpg,1400,solid,O,m,1044,prac,1,6413.700000000186,387505.5,7063,ATS,B,2
3,8,1,C,haborder.png,1,z,Mon Feb 24 2025 13:50:36 GMT-0600 (Central Standard Time),397301.2000000002,CFD-BF-050-012-A.jpg,1700,solid,O,z,888,prac,1,9795.700000000186,387505.5,7063,ATS,B,3
3,3,1,C,mfborder.png,0,z,Mon Feb 24 2025 13:50:36 GMT-0600 (Central Standard Time),399900.2999999998,CFD-BF-035-007-HC.jpg,1000,dash,O,m,813,prac,1,12394.799999999814,387505.5,7063,ATS,B,4
3,11,1,C,haborder.png,0,m,Mon Feb 24 2025 13:50:36 GMT-0600 (Central Standard Time),403199.2999999998,CFD-WM-011-006-HC.jpg,1000,dash,O,None,1516,prac,1,15693.799999999814,387505.5,7063,ATS,B,5
4,7,1,C,haborder.png,1,z,Mon Feb 24 2025 13:50:36 GMT-0600 (Central Standard Time),406714.8999999999,CFD-BF-051-043-A.jpg,1900,dash,O,z,823,prac,1,19209.399999999907,387505.5,7063,ATS,B,6
4,5,1,C,mfborder.png,0,m,Mon Feb 24 2025 13:50:36 GMT-0600 (Central Standard Time),410213.7999999998,CFD-BM-037-041-A.jpg,1200,dash,O,None,1515,prac,1,22708.299999999814,387505.5,7063,ATS,B,7
4,1,1,C,mfborder.png,0,z,Mon Feb 24 2025 13:50:36 GMT-0600 (Central Standard Time),413263.1000000001,CFD-WF-011-006-HC.jpg,1600,dash,O,m,661,prac,1,25757.600000000093,387505.5,7063,ATS,B,8
5,2,1,C,mfborder.png,1,z,Mon Feb 24 2025 13:50:36 GMT-0600 (Central Standard Time),416528.3999999999,CFD-WF-013-015-A.jpg,1500,solid,O,z,967,prac,1,29022.899999999907,387505.5,7063,ATS,B,9
6,4,1,C,mfborder.png,1,m,Mon Feb 24 2025 13:50:36 GMT-0600 (Central Standard Time),420094.1000000001,CFD-BM-015-017-HC.jpg,2000,solid,O,m,778,prac,1,32588.600000000093,387505.5,7063,ATS,B,10
7,9,1,C,haborder.png,1,z,Mon Feb 24 2025 13:50:36 GMT-0600 (Central Standard Time),423476.6000000001,CFD-WF-026-008-A.jpg,1600,dash,O,z,996,prac,1,35971.10000000009,387505.5,7063,ATS,B,11
8,6,1,C,mfborder.png,1,m,Mon Feb 24 2025 13:50:36 GMT-0600 (Central Standard Time),426792.0,CFD-WM-009-009-A.jpg,1700,solid,O,m,826,prac,1,39286.5,387505.5,7063,ATS,B,12
1,7,2,C,haborder.png,1,z,Mon Feb 24 2025 13:50:36 GMT-0600 (Central Standard Time),439971.2000000002,CFD-BF-051-043-A.jpg,1900,dash,O,z,1339,prac,1,52465.700000000186,387505.5,7063,ATS,B,1
1,2,2,C,mfborder.png,0,z,Mon Feb 24 2025 13:50:36 GMT-0600 (Central Standard Time),443670.0,CFD-WF-013-015-A.jpg,1500,solid,O,m,1411,prac,1,56164.5,387505.5,7063,ATS,B,2
2,1,2,C,mfborder.png,1,z,Mon Feb 24 2025 13:50:36 GMT-0600 (Central Standard Time),447002.2999999998,CFD-WF-011-006-HC.jpg,1600,dash,O,z,948,prac,1,59496.799999999814,387505.5,7063,ATS,B,3
3,4,2,C,mfborder.png,1,m,Mon Feb 24 2025 13:50:36 GMT-0600 (Central Standard Time),450551.2999999998,CFD-BM-015-017-HC.jpg,2000,solid,O,m,760,prac,1,63045.799999999814,387505.5,7063,ATS,B,4
3,3,2,C,mfborder.png,0,z,Mon Feb 24 2025 13:50:36 GMT-0600 (Central Standard Time),453050.5,CFD-BF-035-007-HC.jpg,1000,dash,O,m,715,prac,1,65545.0,387505.5,7063,ATS,B,5
3,5,2,C,mfborder.png,0,m,Mon Feb 24 2025 13:50:36 GMT-0600 (Central Standard Time),456049.3999999999,CFD-BM-037-041-A.jpg,1200,dash,O,z,1000,prac,1,68543.8999999999,387505.5,7063,ATS,B,6
4,10,2,C,haborder.png,1,m,Mon Feb 24 2025 13:50:36 GMT-0600 (Central Standard Time),459349.7000000002,CFD-BM-020-024-HC.jpg,1500,solid,O,m,1005,prac,1,71844.20000000019,387505.5,7063,ATS,B,7
5,12,2,C,haborder.png,1,m,Mon Feb 24 2025 13:50:36 GMT-0600 (Central Standard Time),462197.6000000001,CFD-WM-011-006-HC.jpg,1400,solid,O,m,662,prac,1,74692.1000000001,387505.5,7063,ATS,B,8
6,9,2,C,haborder.png,1,z,Mon Feb 24 2025 13:50:36 GMT-0600 (Central Standard Time),465496.6000000001,CFD-WF-026-008-A.jpg,1600,dash,O,z,901,prac,1,77991.1000000001,387505.5,7063,ATS,B,9
7,11,2,C,haborder.png,1,m,Mon Feb 24 2025 13:50:36 GMT-0600 (Central Standard Time),468045.8999999999,CFD-WM-011-006-HC.jpg,1000,dash,O,m,754,prac,1,80540.3999999999,387505.5,7063,ATS,B,10
7,6,2,C,mfborder.png,0,m,Mon Feb 24 2025 13:50:36 GMT-0600 (Central Standard Time),471961.3999999999,CFD-WM-009-009-A.jpg,1700,solid,O,z,1417,prac,1,84455.8999999999,387505.5,7063,ATS,B,11
8,8,2,C,haborder.png,1,z,Mon Feb 24 2025 13:50:36 GMT-0600 (Central Standard Time),475410.2999999998,CFD-BF-050-012-A.jpg,1700,solid,O,z,957,prac,1,87904.79999999981,387505.5,7063,ATS,B,12
1,test,1,C,mfborder.png,1,z,Mon Feb 24 2025 13:50:36 GMT-0600 (Central Standard Time),535891.3999999999,CFD-BF-027-013-HC.jpg,1700,dash,O,z,782,1,1,2499.2999999998137,533392.1000000001,7063,ATS,B,1
1,test,1,C,haborder.png,0,m,Mon Feb 24 2025 13:50:36 GMT-0600 (Central Standard Time),538424.0,CFD-WF-011-006-HC.jpg,1000,solid,O,None,1512,12,1,5031.899999999907,533392.1000000001,7063,ATS,B,2
2,test,1,C,haborder.png,1,z,Mon Feb 24 2025 13:50:36 GMT-0600 (Central Standard Time),541008.2999999998,CFD-BM-041-048-A.jpg,1700,solid,O,z,855,9,1,7616.199999999721,533392.1000000001,7063,ATS,B,3
2,test,1,C,mfborder.png,0,m,Mon Feb 24 2025 13:50:36 GMT-0600 (Central Standard Time),544538.7000000002,CFD-WM-037-060-A.jpg,2000,dash,O,None,1516,5,1,11146.600000000093,533392.1000000001,7063,ATS,B,4
2,test,1,C,haborder.png,0,z,Mon Feb 24 2025 13:50:36 GMT-0600 (Central Standard Time),547354.2000000002,CFD-WM-009-009-A.jpg,1400,solid,O,m,1384,7,1,13962.100000000093,533392.1000000001,7063,ATS,B,5
2,test,1,C,haborder.png,0,m,Mon Feb 24 2025 13:50:36 GMT-0600 (Central Standard Time),550487.0,CFD-BF-035-007-HC.jpg,1600,solid,O,None,1516,10,1,17094.899999999907,533392.1000000001,7063,ATS,B,6
2,test,1,C,mfborder.png,0,m,Mon Feb 24 2025 13:50:36 GMT-0600 (Central Standard Time),553019.2999999998,CFD-WM-012-007-HC.jpg,1000,dash,O,None,1515,4,1,19627.19999999972,533392.1000000001,7063,ATS,B,7
2,test,1,C,haborder.png,0,m,Mon Feb 24 2025 13:50:36 GMT-0600 (Central Standard Time),556018.2999999998,CFD-WF-027-007-HC.jpg,1500,solid,O,z,1475,11,1,22626.19999999972,533392.1000000001,7063,ATS,B,8
3,test,1,C,mfborder.png,1,z,Mon Feb 24 2025 13:50:36 GMT-0600 (Central Standard Time),558685.2000000002,CFD-WF-026-008-A.jpg,1500,dash,O,z,1136,3,1,25293.100000000093,533392.1000000001,7063,ATS,B,9
3,test,1,C,haborder.png,0,z,Mon Feb 24 2025 13:50:36 GMT-0600 (Central Standard Time),561666.3999999999,CFD-BM-041-048-A.jpg,1700,solid,O,m,1258,9,1,28274.299999999814,533392.1000000001,7063,ATS,B,10
3,test,1,C,mfborder.png,0,z,Mon Feb 24 2025 13:50:36 GMT-0600 (Central Standard Time),564682.2000000002,CFD-BF-051-043-A.jpg,1600,dash,O,m,1384,2,1,31290.100000000093,533392.1000000001,7063,ATS,B,11
3,test,1,C,haborder.png,0,z,Mon Feb 24 2025 13:50:36 GMT-0600 (Central Standard Time),567747.8999999999,CFD-BM-037-041-A.jpg,1900,solid,O,m,1133,8,1,34355.799999999814,533392.1000000001,7063,ATS,B,12
4,test,1,C,mfborder.png,1,z,Mon Feb 24 2025 13:50:36 GMT-0600 (Central Standard Time),570380.7000000002,CFD-BF-027-013-HC.jpg,1700,dash,O,z,907,1,1,36988.60000000009,533392.1000000001,7063,ATS,B,13
4,test,1,C,mfborder.png,0,m,Mon Feb 24 2025 13:50:36 GMT-0600 (Central Standard Time),572913.1000000001,CFD-WM-012-007-HC.jpg,1000,dash,O,None,1516,4,1,39521.0,533392.1000000001,7063,ATS,B,14
4,test,1,C,haborder.png,0,z,Mon Feb 24 2025 13:50:36 GMT-0600 (Central Standard Time),575762.2000000002,CFD-BM-037-041-A.jpg,1900,solid,O,m,917,8,1,42370.10000000009,533392.1000000001,7063,ATS,B,15
5,test,1,C,mfborder.png,1,m,Mon Feb 24 2025 13:50:36 GMT-0600 (Central Standard Time),578211.3999999999,CFD-BM-020-024-HC.jpg,1200,dash,O,m,1232,6,1,44819.299999999814,533392.1000000001,7063,ATS,B,16
5,test,1,C,haborder.png,0,m,Mon Feb 24 2025 13:50:36 GMT-0600 (Central Standard Time),580827.2000000002,CFD-BF-035-007-HC.jpg,1600,solid,O,z,983,10,1,47435.10000000009,533392.1000000001,7063,ATS,B,17
5,test,1,C,haborder.png,0,z,Mon Feb 24 2025 13:50:36 GMT-0600 (Central Standard Time),583509.6000000001,CFD-WM-009-009-A.jpg,1400,solid,O,m,1263,7,1,50117.5,533392.1000000001,7063,ATS,B,18
5,test,1,C,mfborder.png,0,z,Mon Feb 24 2025 13:50:36 GMT-0600 (Central Standard Time),586541.7999999998,CFD-WF-026-008-A.jpg,1500,dash,O,None,1516,3,1,53149.69999999972,533392.1000000001,7063,ATS,B,19
6,test,1,C,mfborder.png,1,z,Mon Feb 24 2025 13:50:36 GMT-0600 (Central Standard Time),589440.7000000002,CFD-BF-051-043-A.jpg,1600,dash,O,z,1277,2,1,56048.60000000009,533392.1000000001,7063,ATS,B,20
7,test,1,C,haborder.png,1,m,Mon Feb 24 2025 13:50:36 GMT-0600 (Central Standard Time),591690.6000000001,CFD-WF-011-006-HC.jpg,1000,solid,O,m,1217,12,1,58298.5,533392.1000000001,7063,ATS,B,21
7,test,1,C,mfborder.png,0,m,Mon Feb 24 2025 13:50:36 GMT-0600 (Central Standard Time),594422.7999999998,CFD-BM-020-024-HC.jpg,1200,dash,O,None,1516,6,1,61030.69999999972,533392.1000000001,7063,ATS,B,22
7,test,1,C,mfborder.png,0,m,Mon Feb 24 2025 13:50:36 GMT-0600 (Central Standard Time),597955.2000000002,CFD-WM-037-060-A.jpg,2000,dash,O,None,1515,5,1,64563.10000000009,533392.1000000001,7063,ATS,B,23
7,test,1,C,haborder.png,0,m,Mon Feb 24 2025 13:50:36 GMT-0600 (Central Standard Time),600537.7000000002,CFD-WF-027-007-HC.jpg,1500,solid,O,z,1051,11,1,67145.6000000001,533392.1000000001,7063,ATS,B,24
1,test,2,C,mfborder.png,1,m,Mon Feb 24 2025 13:50:36 GMT-0600 (Central Standard Time),630095.1000000001,CFD-WM-009-009-A.jpg,1200,dash,O,m,758,6,1,1982.7000000001863,628112.3999999999,7063,ATS,B,1
2,test,2,C,haborder.png,1,z,Mon Feb 24 2025 13:50:36 GMT-0600 (Central Standard Time),632527.3999999999,CFD-BF-051-043-A.jpg,1400,solid,O,z,1007,7,1,4415.0,628112.3999999999,7063,ATS,B,2
2,test,2,C,mfborder.png,0,z,Mon Feb 24 2025 13:50:36 GMT-0600 (Central Standard Time),635659.8999999999,CFD-WF-013-015-A.jpg,1600,dash,O,None,1516,2,1,7547.5,628112.3999999999,7063,ATS,B,3
2,test,2,C,haborder.png,0,m,Mon Feb 24 2025 13:50:36 GMT-0600 (Central Standard Time),638692.3999999999,CFD-WM-011-006-HC.jpg,1500,solid,O,None,1516,11,1,10580.0,628112.3999999999,7063,ATS,B,4
2,test,2,C,mfborder.png,0,m,Mon Feb 24 2025 13:50:36 GMT-0600 (Central Standard Time),642224.6000000001,CFD-BM-037-041-A.jpg,2000,dash,O,None,1516,5,1,14112.200000000186,628112.3999999999,7063,ATS,B,5
3,test,2,C,mfborder.png,1,m,Mon Feb 24 2025 13:50:36 GMT-0600 (Central Standard Time),644023.8999999999,CFD-BM-015-017-HC.jpg,1000,dash,O,m,770,4,1,15911.5,628112.3999999999,7063,ATS,B,6
4,test,2,C,haborder.png,1,z,Mon Feb 24 2025 13:50:36 GMT-0600 (Central Standard Time),646589.7000000002,CFD-WF-026-008-A.jpg,1700,solid,O,z,838,9,1,18477.30000000028,628112.3999999999,7063,ATS,B,7
5,test,2,C,mfborder.png,1,m,Mon Feb 24 2025 13:50:36 GMT-0600 (Central Standard Time),648755.6000000001,CFD-BM-015-017-HC.jpg,1000,dash,O,m,1148,4,1,20643.200000000186,628112.3999999999,7063,ATS,B,8
6,test,2,C,haborder.png,1,z,Mon Feb 24 2025 13:50:36 GMT-0600 (Central Standard Time),651888.2000000002,CFD-BF-050-012-A.jpg,1900,solid,O,z,1203,8,1,23775.80000000028,628112.3999999999,7063,ATS,B,9
7,test,2,C,haborder.png,1,m,Mon Feb 24 2025 13:50:36 GMT-0600 (Central Standard Time),654987.1000000001,CFD-BM-020-024-HC.jpg,1600,solid,O,m,1474,10,1,26874.700000000186,628112.3999999999,7063,ATS,B,10
8,test,2,C,haborder.png,1,m,Mon Feb 24 2025 13:50:36 GMT-0600 (Central Standard Time),656886.5,CFD-WM-011-006-HC.jpg,1000,solid,O,m,878,12,1,28774.100000000093,628112.3999999999,7063,ATS,B,11
8,test,2,C,mfborder.png,0,m,Mon Feb 24 2025 13:50:36 GMT-0600 (Central Standard Time),660402.2000000002,CFD-BM-037-041-A.jpg,2000,dash,O,z,1492,5,1,32289.80000000028,628112.3999999999,7063,ATS,B,12
9,test,2,C,mfborder.png,1,z,Mon Feb 24 2025 13:50:36 GMT-0600 (Central Standard Time),663417.8999999999,CFD-BF-035-007-HC.jpg,1500,dash,O,z,1492,3,1,35305.5,628112.3999999999,7063,ATS,B,13
9,test,2,C,haborder.png,0,z,Mon Feb 24 2025 13:50:36 GMT-0600 (Central Standard Time),666383.3999999999,CFD-WF-026-008-A.jpg,1700,solid,O,m,1245,9,1,38271.0,628112.3999999999,7063,ATS,B,14
9,test,2,C,mfborder.png,0,z,Mon Feb 24 2025 13:50:36 GMT-0600 (Central Standard Time),669416.3999999999,CFD-BF-035-007-HC.jpg,1500,dash,O,None,1512,3,1,41304.0,628112.3999999999,7063,ATS,B,15
10,test,2,C,mfborder.png,1,z,Mon Feb 24 2025 13:50:36 GMT-0600 (Central Standard Time),672281.7999999998,CFD-WF-011-006-HC.jpg,1700,dash,O,z,1143,1,1,44169.39999999991,628112.3999999999,7063,ATS,B,16
11,test,2,C,mfborder.png,1,z,Mon Feb 24 2025 13:50:36 GMT-0600 (Central Standard Time),674764.3999999999,CFD-WF-013-015-A.jpg,1600,dash,O,z,865,2,1,46652.0,628112.3999999999,7063,ATS,B,17
12,test,2,C,mfborder.png,1,z,Mon Feb 24 2025 13:50:36 GMT-0600 (Central Standard Time),677363.2999999998,CFD-WF-011-006-HC.jpg,1700,dash,O,z,882,1,1,49250.89999999991,628112.3999999999,7063,ATS,B,18
12,test,2,C,haborder.png,0,m,Mon Feb 24 2025 13:50:36 GMT-0600 (Central Standard Time),680495.7999999998,CFD-BM-020-024-HC.jpg,1600,solid,O,None,1516,10,1,52383.39999999991,628112.3999999999,7063,ATS,B,19
13,test,2,C,haborder.png,1,m,Mon Feb 24 2025 13:50:36 GMT-0600 (Central Standard Time),682878.2999999998,CFD-WM-011-006-HC.jpg,1500,solid,O,m,797,11,1,54765.89999999991,628112.3999999999,7063,ATS,B,20
14,test,2,C,haborder.png,1,z,Mon Feb 24 2025 13:50:36 GMT-0600 (Central Standard Time),685677.3999999999,CFD-BF-051-043-A.jpg,1400,solid,O,z,1380,7,1,57565.0,628112.3999999999,7063,ATS,B,21
15,test,2,C,mfborder.png,1,m,Mon Feb 24 2025 13:50:36 GMT-0600 (Central Standard Time),688393.6000000001,CFD-WM-009-009-A.jpg,1200,dash,O,m,1485,6,1,60281.200000000186,628112.3999999999,7063,ATS,B,22
16,test,2,C,haborder.png,1,m,Mon Feb 24 2025 13:50:36 GMT-0600 (Central Standard Time),690510.7000000002,CFD-WM-011-006-HC.jpg,1000,solid,O,m,1088,12,1,62398.30000000028,628112.3999999999,7063,ATS,B,23
16,test,2,C,haborder.png,0,z,Mon Feb 24 2025 13:50:36 GMT-0600 (Central Standard Time),693941.7999999998,CFD-BF-050-012-A.jpg,1900,solid,O,None,1516,8,1,65829.3999999999,628112.3999999999,7063,ATS,B,24
1,test,3,C,mfborder.png,1,m,Mon Feb 24 2025 13:50:36 GMT-0600 (Central Standard Time),708337.5,CFD-BM-020-024-HC.jpg,1200,dash,O,m,673,6,1,1899.6000000000931,706437.8999999999,7063,ATS,B,1
2,test,3,C,haborder.png,1,m,Mon Feb 24 2025 13:50:36 GMT-0600 (Central Standard Time),711286.5,CFD-WF-027-007-HC.jpg,1500,solid,O,m,1425,11,1,4848.600000000093,706437.8999999999,7063,ATS,B,2
3,test,3,C,mfborder.png,1,z,Mon Feb 24 2025 13:50:36 GMT-0600 (Central Standard Time),714435.5,CFD-BF-027-013-HC.jpg,1700,dash,O,z,1432,1,1,7997.600000000093,706437.8999999999,7063,ATS,B,3
4,test,3,C,mfborder.png,1,m,Mon Feb 24 2025 13:50:36 GMT-0600 (Central Standard Time),716568.0,CFD-BM-020-024-HC.jpg,1200,dash,O,m,903,6,1,10130.100000000093,706437.8999999999,7063,ATS,B,4
5,test,3,C,haborder.png,1,m,Mon Feb 24 2025 13:50:36 GMT-0600 (Central Standard Time),719167.2000000002,CFD-WF-027-007-HC.jpg,1500,solid,O,m,1071,11,1,12729.30000000028,706437.8999999999,7063,ATS,B,5
5,test,3,C,mfborder.png,0,m,Mon Feb 24 2025 13:50:36 GMT-0600 (Central Standard Time),721700.1000000001,CFD-WM-012-007-HC.jpg,1000,dash,O,None,1516,4,1,15262.200000000186,706437.8999999999,7063,ATS,B,6
6,test,3,C,mfborder.png,1,z,Mon Feb 24 2025 13:50:36 GMT-0600 (Central Standard Time),724115.6000000001,CFD-WF-026-008-A.jpg,1500,dash,O,z,898,3,1,17677.700000000186,706437.8999999999,7063,ATS,B,7
6,test,3,C,mfborder.png,0,m,Mon Feb 24 2025 13:50:36 GMT-0600 (Central Standard Time),727547.7999999998,CFD-WM-037-060-A.jpg,2000,dash,O,z,1414,5,1,21109.899999999907,706437.8999999999,7063,ATS,B,8
6,test,3,C,haborder.png,0,z,Mon Feb 24 2025 13:50:36 GMT-0600 (Central Standard Time),730747.3999999999,CFD-BM-037-041-A.jpg,1900,solid,O,m,1274,8,1,24309.5,706437.8999999999,7063,ATS,B,9
6,test,3,C,mfborder.png,0,z,Mon Feb 24 2025 13:50:36 GMT-0600 (Central Standard Time),733879.2999999998,CFD-BF-051-043-A.jpg,1600,dash,O,None,1515,2,1,27441.399999999907,706437.8999999999,7063,ATS,B,10
7,test,3,C,haborder.png,1,m,Mon Feb 24 2025 13:50:36 GMT-0600 (Central Standard Time),736295.2000000002,CFD-BF-035-007-HC.jpg,1600,solid,O,m,787,10,1,29857.30000000028,706437.8999999999,7063,ATS,B,11
7,test,3,C,haborder.png,0,z,Mon Feb 24 2025 13:50:36 GMT-0600 (Central Standard Time),739261.0,CFD-BM-041-048-A.jpg,1700,solid,O,m,1239,9,1,32823.10000000009,706437.8999999999,7063,ATS,B,12
7,test,3,C,haborder.png,0,m,Mon Feb 24 2025 13:50:36 GMT-0600 (Central Standard Time),741693.5,CFD-WF-011-006-HC.jpg,1000,solid,O,z,1413,12,1,35255.60000000009,706437.8999999999,7063,ATS,B,13
7,test,3,C,haborder.png,0,z,Mon Feb 24 2025 13:50:36 GMT-0600 (Central Standard Time),744626.1000000001,CFD-WM-009-009-A.jpg,1400,solid,O,None,1516,7,1,38188.200000000186,706437.8999999999,7063,ATS,B,14
8,test,3,C,haborder.png,1,m,Mon Feb 24 2025 13:50:36 GMT-0600 (Central Standard Time),747541.7000000002,CFD-BF-035-007-HC.jpg,1600,solid,O,m,1296,10,1,41103.80000000028,706437.8999999999,7063,ATS,B,15
9,test,3,C,mfborder.png,1,m,Mon Feb 24 2025 13:50:36 GMT-0600 (Central Standard Time),750040.8999999999,CFD-WM-012-007-HC.jpg,1000,dash,O,m,1467,4,1,43603.0,706437.8999999999,7063,ATS,B,16
10,test,3,C,mfborder.png,1,z,Mon Feb 24 2025 13:50:36 GMT-0600 (Central Standard Time),752456.7999999998,CFD-BF-051-043-A.jpg,1600,dash,O,z,785,2,1,46018.89999999991,706437.8999999999,7063,ATS,B,17
11,test,3,C,mfborder.png,1,z,Mon Feb 24 2025 13:50:36 GMT-0600 (Central Standard Time),754939.3999999999,CFD-WF-026-008-A.jpg,1500,dash,O,z,957,3,1,48501.5,706437.8999999999,7063,ATS,B,18
12,test,3,C,mfborder.png,1,m,Mon Feb 24 2025 13:50:36 GMT-0600 (Central Standard Time),757688.7999999998,CFD-WM-037-060-A.jpg,2000,dash,O,m,719,5,1,51250.89999999991,706437.8999999999,7063,ATS,B,19
13,test,3,C,haborder.png,1,z,Mon Feb 24 2025 13:50:36 GMT-0600 (Central Standard Time),760237.7000000002,CFD-WM-009-009-A.jpg,1400,solid,O,z,1130,7,1,53799.80000000028,706437.8999999999,7063,ATS,B,20
14,test,3,C,haborder.png,1,m,Mon Feb 24 2025 13:50:36 GMT-0600 (Central Standard Time),762204.8999999999,CFD-WF-011-006-HC.jpg,1000,solid,O,m,948,12,1,55767.0,706437.8999999999,7063,ATS,B,21
15,test,3,C,haborder.png,1,z,Mon Feb 24 2025 13:50:36 GMT-0600 (Central Standard Time),764769.6000000001,CFD-BM-041-048-A.jpg,1700,solid,O,z,835,9,1,58331.700000000186,706437.8999999999,7063,ATS,B,22
16,test,3,C,mfborder.png,1,z,Mon Feb 24 2025 13:50:36 GMT-0600 (Central Standard Time),767552.2000000002,CFD-BF-027-013-HC.jpg,1700,dash,O,z,1061,1,1,61114.30000000028,706437.8999999999,7063,ATS,B,23
16,test,3,C,haborder.png,0,z,Mon Feb 24 2025 13:50:36 GMT-0600 (Central Standard Time),770351.3999999999,CFD-BM-037-041-A.jpg,1900,solid,O,m,870,8,1,63913.5,706437.8999999999,7063,ATS,B,24
0,test,4,C,mfborder.png,0,m,Mon Feb 24 2025 13:50:36 GMT-0600 (Central Standard Time),778198.8999999999,CFD-BM-037-041-A.jpg,2000,dash,O,z,1337,5,1,3365.600000000093,774833.2999999998,7063,ATS,B,1
0,test,4,C,mfborder.png,0,z,Mon Feb 24 2025 13:50:36 GMT-0600 (Central Standard Time),781231.3999999999,CFD-BF-035-007-HC.jpg,1500,dash,O,None,1512,3,1,6398.100000000093,774833.2999999998,7063,ATS,B,2
0,test,4,C,haborder.png,0,z,Mon Feb 24 2025 13:50:36 GMT-0600 (Central Standard Time),784663.5,CFD-BF-050-012-A.jpg,1900,solid,O,None,1515,8,1,9830.200000000186,774833.2999999998,7063,ATS,B,3
1,test,4,C,mfborder.png,1,m,Mon Feb 24 2025 13:50:36 GMT-0600 (Central Standard Time),787329.3999999999,CFD-WM-009-009-A.jpg,1200,dash,O,m,1443,6,1,12496.100000000093,774833.2999999998,7063,ATS,B,4
1,test,4,C,haborder.png,0,m,Mon Feb 24 2025 13:50:36 GMT-0600 (Central Standard Time),790011.8999999999,CFD-BM-020-024-HC.jpg,1600,solid,O,z,1066,10,1,15178.600000000093,774833.2999999998,7063,ATS,B,5
2,test,4,C,mfborder.png,1,z,Mon Feb 24 2025 13:50:36 GMT-0600 (Central Standard Time),792928.7000000002,CFD-WF-011-006-HC.jpg,1700,dash,O,z,1187,1,1,18095.400000000373,774833.2999999998,7063,ATS,B,6
3,test,4,C,haborder.png,1,z,Mon Feb 24 2025 13:50:36 GMT-0600 (Central Standard Time),796143.0,CFD-BF-050-012-A.jpg,1900,solid,O,z,1295,8,1,21309.700000000186,774833.2999999998,7063,ATS,B,7
4,test,4,C,mfborder.png,1,m,Mon Feb 24 2025 13:50:36 GMT-0600 (Central Standard Time),797892.2999999998,CFD-BM-015-017-HC.jpg,1000,dash,O,m,723,4,1,23059.0,774833.2999999998,7063,ATS,B,8
5,test,4,C,mfborder.png,1,z,Mon Feb 24 2025 13:50:36 GMT-0600 (Central Standard Time),800358.2999999998,CFD-WF-013-015-A.jpg,1600,dash,O,z,838,2,1,25525.0,774833.2999999998,7063,ATS,B,9
5,test,4,C,haborder.png,0,m,Mon Feb 24 2025 13:50:36 GMT-0600 (Central Standard Time),803390.7999999998,CFD-WM-011-006-HC.jpg,1500,solid,O,None,1516,11,1,28557.5,774833.2999999998,7063,ATS,B,10
6,test,4,C,haborder.png,1,m,Mon Feb 24 2025 13:50:36 GMT-0600 (Central Standard Time),805823.1000000001,CFD-BM-020-024-HC.jpg,1600,solid,O,m,812,10,1,30989.80000000028,774833.2999999998,7063,ATS,B,11
7,test,4,C,mfborder.png,1,z,Mon Feb 24 2025 13:50:36 GMT-0600 (Central Standard Time),808655.8999999999,CFD-BF-035-007-HC.jpg,1500,dash,O,z,1303,3,1,33822.60000000009,774833.2999999998,7063,ATS,B,12
7,test,4,C,haborder.png,0,z,Mon Feb 24 2025 13:50:36 GMT-0600 (Central Standard Time),811888.6000000001,CFD-WF-026-008-A.jpg,1700,solid,O,None,1515,9,1,37055.30000000028,774833.2999999998,7063,ATS,B,13
8,test,4,C,mfborder.png,1,m,Mon Feb 24 2025 13:50:36 GMT-0600 (Central Standard Time),814071.1000000001,CFD-BM-015-017-HC.jpg,1000,dash,O,m,1162,4,1,39237.80000000028,774833.2999999998,7063,ATS,B,14
9,test,4,C,mfborder.png,1,m,Mon Feb 24 2025 13:50:36 GMT-0600 (Central Standard Time),816203.7000000002,CFD-WM-009-009-A.jpg,1200,dash,O,m,904,6,1,41370.40000000037,774833.2999999998,7063,ATS,B,15
10,test,4,C,mfborder.png,1,z,Mon Feb 24 2025 13:50:36 GMT-0600 (Central Standard Time),818769.7000000002,CFD-WF-011-006-HC.jpg,1700,dash,O,z,835,1,1,43936.40000000037,774833.2999999998,7063,ATS,B,16
11,test,4,C,haborder.png,1,z,Mon Feb 24 2025 13:50:36 GMT-0600 (Central Standard Time),821551.8999999999,CFD-BF-051-043-A.jpg,1400,solid,O,z,1361,7,1,46718.60000000009,774833.2999999998,7063,ATS,B,17
12,test,4,C,haborder.png,1,m,Mon Feb 24 2025 13:50:36 GMT-0600 (Central Standard Time),823304.8999999999,CFD-WM-011-006-HC.jpg,1000,solid,O,m,732,12,1,48471.60000000009,774833.2999999998,7063,ATS,B,18
13,test,4,C,haborder.png,1,z,Mon Feb 24 2025 13:50:36 GMT-0600 (Central Standard Time),825700.3999999999,CFD-BF-051-043-A.jpg,1400,solid,O,z,981,7,1,50867.10000000009,774833.2999999998,7063,ATS,B,19
14,test,4,C,haborder.png,1,m,Mon Feb 24 2025 13:50:36 GMT-0600 (Central Standard Time),828086.7999999998,CFD-WM-011-006-HC.jpg,1500,solid,O,m,866,11,1,53253.5,774833.2999999998,7063,ATS,B,20
15,test,4,C,haborder.png,1,z,Mon Feb 24 2025 13:50:36 GMT-0600 (Central Standard Time),830965.7000000002,CFD-WF-026-008-A.jpg,1700,solid,O,z,1163,9,1,56132.40000000037,774833.2999999998,7063,ATS,B,21
16,test,4,C,haborder.png,1,m,Mon Feb 24 2025 13:50:36 GMT-0600 (Central Standard Time),833031.6000000001,CFD-WM-011-006-HC.jpg,1000,solid,O,m,1036,12,1,58198.30000000028,774833.2999999998,7063,ATS,B,22
16,test,4,C,mfborder.png,0,m,Mon Feb 24 2025 13:50:36 GMT-0600 (Central Standard Time),835914.2000000002,CFD-BM-037-041-A.jpg,2000,dash,O,z,859,5,1,61080.90000000037,774833.2999999998,7063,ATS,B,23
17,test,4,C,mfborder.png,1,z,Mon Feb 24 2025 13:50:36 GMT-0600 (Central Standard Time),838480.0,CFD-WF-013-015-A.jpg,1600,dash,O,z,944,2,1,63646.700000000186,774833.2999999998,7063,ATS,B,24
