acc_sum,block,block_c,block_cond,con_img,correct,correct_response,datetime,endtime,face,jitter,line,project,response,response_time,row_sel,session_number,start_end,starttime,subject_id,task,task_vers,trial
0,prac,1,A,haborder.png,0,m,Fri Feb 07 2025 13:05:33 GMT-0600 (Central Standard Time),54949.79999999702,CFD-BF-019-004-HC.jpg,2000,solid,O,None,1514,5,1,4298.29999999702,50651.5,7046,ATS,C,1
1,prac,1,A,haborder.png,1,z,Fri Feb 07 2025 13:05:33 GMT-0600 (Central Standard Time),57782.39999999851,CFD-BF-002-018-A.jpg,1200,solid,O,z,833,6,1,7130.89999999851,50651.5,7046,ATS,C,2
2,prac,1,A,haborder.png,1,z,Fri Feb 07 2025 13:05:33 GMT-0600 (Central Standard Time),61614.5,CFD-WM-036-018-A.jpg,1900,solid,O,z,1131,8,1,10963.0,50651.5,7046,ATS,C,3
3,prac,1,A,haborder.png,1,m,Fri Feb 07 2025 13:05:33 GMT-0600 (Central Standard Time),64630.29999999702,CFD-WF-013-009-HC.jpg,1500,solid,O,m,716,11,1,13978.79999999702,50651.5,7046,ATS,C,4
4,prac,1,A,haborder.png,1,m,Fri Feb 07 2025 13:05:33 GMT-0600 (Central Standard Time),67446.39999999851,CFD-WM-028-005-HC.jpg,1400,solid,O,m,624,7,1,16794.89999999851,50651.5,7046,ATS,C,5
5,prac,1,A,haborder.png,1,z,Fri Feb 07 2025 13:05:33 GMT-0600 (Central Standard Time),69895.29999999702,CFD-WF-023-013-A.jpg,1000,solid,O,z,625,12,1,19243.79999999702,50651.5,7046,ATS,C,6
6,prac,1,A,haborder.png,1,z,Fri Feb 07 2025 13:05:33 GMT-0600 (Central Standard Time),73094.39999999851,CFD-BM-043-014-A.jpg,1600,solid,O,z,800,2,1,22442.89999999851,50651.5,7046,ATS,C,7
7,prac,1,A,haborder.png,1,m,Fri Feb 07 2025 13:05:33 GMT-0600 (Central Standard Time),75993.5,CFD-BM-022-004-HC.jpg,1500,solid,O,m,613,3,1,25342.0,50651.5,7046,ATS,C,8
8,prac,1,A,haborder.png,1,z,Fri Feb 07 2025 13:05:33 GMT-0600 (Central Standard Time),79042.60000000149,CFD-WF-037-016-A.jpg,1600,solid,O,z,662,10,1,28391.10000000149,50651.5,7046,ATS,C,9
9,prac,1,A,haborder.png,1,m,Fri Feb 07 2025 13:05:33 GMT-0600 (Central Standard Time),82224.70000000298,CFD-WM-035-036-HC.jpg,1700,solid,O,m,689,9,1,31573.20000000298,50651.5,7046,ATS,C,10
10,prac,1,A,haborder.png,1,m,Fri Feb 07 2025 13:05:33 GMT-0600 (Central Standard Time),85290.60000000149,CFD-BM-034-035-HC.jpg,1700,solid,O,m,578,1,1,34639.10000000149,50651.5,7046,ATS,C,11
11,prac,1,A,haborder.png,1,z,Fri Feb 07 2025 13:05:33 GMT-0600 (Central Standard Time),87723.20000000298,CFD-BF-031-020-A.jpg,1000,solid,O,z,644,4,1,37071.70000000298,50651.5,7046,ATS,C,12
1,prac,1,B,mfborder.png,1,m,Fri Feb 07 2025 13:05:33 GMT-0600 (Central Standard Time),121562.29999999702,CFD-BM-043-014-A.jpg,2000,5,O,m,586,dash,1,3382.1999999955297,118180.10000000149,7046,ATS,C,1
2,prac,1,B,mfborder.png,1,z,Fri Feb 07 2025 13:05:33 GMT-0600 (Central Standard Time),123861.60000000149,CFD-BF-031-020-A.jpg,1000,4,O,z,501,dash,1,5681.5,118180.10000000149,7046,ATS,C,2
3,prac,1,B,mfborder.png,1,z,Fri Feb 07 2025 13:05:33 GMT-0600 (Central Standard Time),126810.70000000298,CFD-BF-019-004-HC.jpg,1400,7,O,z,753,dash,1,8630.60000000149,118180.10000000149,7046,ATS,C,3
4,prac,1,B,mfborder.png,1,m,Fri Feb 07 2025 13:05:33 GMT-0600 (Central Standard Time),129309.89999999851,CFD-WM-034-040-A.jpg,1200,6,O,m,500,dash,1,11129.79999999702,118180.10000000149,7046,ATS,C,4
5,prac,1,B,mfborder.png,1,z,Fri Feb 07 2025 13:05:33 GMT-0600 (Central Standard Time),131842.3999999985,CFD-WF-013-009-HC.jpg,1000,12,O,z,737,dash,1,13662.29999999702,118180.10000000149,7046,ATS,C,5
6,prac,1,B,mfborder.png,1,z,Fri Feb 07 2025 13:05:33 GMT-0600 (Central Standard Time),135091.1000000015,CFD-WF-037-016-A.jpg,1500,11,O,z,952,dash,1,16911.0,118180.10000000149,7046,ATS,C,6
7,prac,1,B,mfborder.png,1,m,Fri Feb 07 2025 13:05:33 GMT-0600 (Central Standard Time),138224.0,CFD-WM-036-018-A.jpg,1700,9,O,m,639,dash,1,20043.89999999851,118180.10000000149,7046,ATS,C,7
8,prac,1,B,mfborder.png,1,m,Fri Feb 07 2025 13:05:33 GMT-0600 (Central Standard Time),141189.70000000298,CFD-BM-022-004-HC.jpg,1700,1,O,m,475,dash,1,23009.60000000149,118180.10000000149,7046,ATS,C,8
9,prac,1,B,mfborder.png,1,z,Fri Feb 07 2025 13:05:33 GMT-0600 (Central Standard Time),144688.70000000298,CFD-WF-001-010-HC.jpg,1900,8,O,z,805,dash,1,26508.60000000149,118180.10000000149,7046,ATS,C,9
10,prac,1,B,mfborder.png,1,m,Fri Feb 07 2025 13:05:33 GMT-0600 (Central Standard Time),147587.8999999985,CFD-WM-035-036-HC.jpg,1600,10,O,m,510,dash,1,29407.79999999702,118180.10000000149,7046,ATS,C,10
11,prac,1,B,mfborder.png,1,m,Fri Feb 07 2025 13:05:33 GMT-0600 (Central Standard Time),150786.70000000298,CFD-BM-021-026-A.jpg,1600,2,O,m,803,dash,1,32606.60000000149,118180.10000000149,7046,ATS,C,11
12,prac,1,B,mfborder.png,1,z,Fri Feb 07 2025 13:05:33 GMT-0600 (Central Standard Time),153752.5,CFD-BF-042-031-HC.jpg,1500,3,O,z,672,dash,1,35572.39999999851,118180.10000000149,7046,ATS,C,12
1,test,1,A,haborder.png,1,m,Fri Feb 07 2025 13:05:33 GMT-0600 (Central Standard Time),173879.3999999985,CFD-WF-013-009-HC.jpg,1500,solid,O,m,1075,11,1,2599.1999999955297,171280.20000000298,7046,ATS,C,1
2,test,1,A,haborder.png,1,z,Fri Feb 07 2025 13:05:33 GMT-0600 (Central Standard Time),175595.6000000015,CFD-WF-023-013-A.jpg,1000,solid,O,z,695,12,1,4315.39999999851,171280.20000000298,7046,ATS,C,2
3,test,1,A,haborder.png,1,m,Fri Feb 07 2025 13:05:33 GMT-0600 (Central Standard Time),177944.79999999702,CFD-BM-034-035-HC.jpg,1700,solid,O,m,624,1,1,6664.5999999940395,171280.20000000298,7046,ATS,C,3
4,test,1,A,haborder.png,1,m,Fri Feb 07 2025 13:05:33 GMT-0600 (Central Standard Time),180044.20000000298,CFD-BM-022-004-HC.jpg,1500,solid,O,m,570,3,1,8764.0,171280.20000000298,7046,ATS,C,4
5,test,1,A,haborder.png,1,m,Fri Feb 07 2025 13:05:33 GMT-0600 (Central Standard Time),182211.20000000298,CFD-WF-013-009-HC.jpg,1500,solid,O,m,647,11,1,10931.0,171280.20000000298,7046,ATS,C,5
6,test,1,A,haborder.png,1,m,Fri Feb 07 2025 13:05:33 GMT-0600 (Central Standard Time),184209.70000000298,CFD-WM-028-005-HC.jpg,1400,solid,O,m,565,7,1,12929.5,171280.20000000298,7046,ATS,C,6
7,test,1,A,haborder.png,1,z,Fri Feb 07 2025 13:05:33 GMT-0600 (Central Standard Time),186222.20000000298,CFD-BF-002-018-A.jpg,1200,solid,O,z,794,6,1,14942.0,171280.20000000298,7046,ATS,C,7
8,test,1,A,haborder.png,1,z,Fri Feb 07 2025 13:05:33 GMT-0600 (Central Standard Time),188591.3999999985,CFD-BM-043-014-A.jpg,1600,solid,O,z,733,2,1,17311.19999999553,171280.20000000298,7046,ATS,C,8
9,test,1,A,haborder.png,1,m,Fri Feb 07 2025 13:05:33 GMT-0600 (Central Standard Time),190541.0,CFD-WM-028-005-HC.jpg,1400,solid,O,m,519,7,1,19260.79999999702,171280.20000000298,7046,ATS,C,9
10,test,1,A,haborder.png,1,z,Fri Feb 07 2025 13:05:33 GMT-0600 (Central Standard Time),192323.70000000298,CFD-WF-023-013-A.jpg,1000,solid,O,z,762,12,1,21043.5,171280.20000000298,7046,ATS,C,10
11,test,1,A,haborder.png,1,z,Fri Feb 07 2025 13:05:33 GMT-0600 (Central Standard Time),195222.70000000298,CFD-WM-036-018-A.jpg,1900,solid,O,z,967,8,1,23942.5,171280.20000000298,7046,ATS,C,11
12,test,1,A,haborder.png,1,z,Fri Feb 07 2025 13:05:33 GMT-0600 (Central Standard Time),197488.8999999985,CFD-BM-043-014-A.jpg,1600,solid,O,z,632,2,1,26208.69999999553,171280.20000000298,7046,ATS,C,12
13,test,1,A,haborder.png,1,z,Fri Feb 07 2025 13:05:33 GMT-0600 (Central Standard Time),199154.8999999985,CFD-BF-031-020-A.jpg,1000,solid,O,z,638,4,1,27874.69999999553,171280.20000000298,7046,ATS,C,13
14,test,1,A,haborder.png,1,m,Fri Feb 07 2025 13:05:33 GMT-0600 (Central Standard Time),201753.79999999702,CFD-BF-019-004-HC.jpg,2000,solid,O,m,580,5,1,30473.59999999404,171280.20000000298,7046,ATS,C,14
15,test,1,A,haborder.png,1,m,Fri Feb 07 2025 13:05:33 GMT-0600 (Central Standard Time),204569.79999999702,CFD-BF-019-004-HC.jpg,2000,solid,O,m,789,5,1,33289.59999999404,171280.20000000298,7046,ATS,C,15
16,test,1,A,haborder.png,1,z,Fri Feb 07 2025 13:05:33 GMT-0600 (Central Standard Time),206969.29999999702,CFD-WF-037-016-A.jpg,1600,solid,O,z,761,10,1,35689.09999999404,171280.20000000298,7046,ATS,C,16
17,test,1,A,haborder.png,1,z,Fri Feb 07 2025 13:05:33 GMT-0600 (Central Standard Time),209118.29999999702,CFD-BF-002-018-A.jpg,1200,solid,O,z,917,6,1,37838.09999999404,171280.20000000298,7046,ATS,C,17
18,test,1,A,haborder.png,1,m,Fri Feb 07 2025 13:05:33 GMT-0600 (Central Standard Time),211451.1000000015,CFD-WM-035-036-HC.jpg,1700,solid,O,m,605,9,1,40170.89999999851,171280.20000000298,7046,ATS,C,18
19,test,1,A,haborder.png,1,z,Fri Feb 07 2025 13:05:33 GMT-0600 (Central Standard Time),213900.3999999985,CFD-WF-037-016-A.jpg,1600,solid,O,z,820,10,1,42620.19999999553,171280.20000000298,7046,ATS,C,19
20,test,1,A,haborder.png,1,m,Fri Feb 07 2025 13:05:33 GMT-0600 (Central Standard Time),216066.1000000015,CFD-BM-022-004-HC.jpg,1500,solid,O,m,646,3,1,44785.89999999851,171280.20000000298,7046,ATS,C,20
21,test,1,A,haborder.png,1,z,Fri Feb 07 2025 13:05:33 GMT-0600 (Central Standard Time),218998.6000000015,CFD-WM-036-018-A.jpg,1900,solid,O,z,1001,8,1,47718.39999999851,171280.20000000298,7046,ATS,C,21
22,test,1,A,haborder.png,1,m,Fri Feb 07 2025 13:05:33 GMT-0600 (Central Standard Time),221547.8999999985,CFD-WM-035-036-HC.jpg,1700,solid,O,m,820,9,1,50267.69999999553,171280.20000000298,7046,ATS,C,22
23,test,1,A,haborder.png,1,m,Fri Feb 07 2025 13:05:33 GMT-0600 (Central Standard Time),224380.3999999985,CFD-BM-034-035-HC.jpg,1700,solid,O,m,1111,1,1,53100.19999999553,171280.20000000298,7046,ATS,C,23
24,test,1,A,haborder.png,1,z,Fri Feb 07 2025 13:05:33 GMT-0600 (Central Standard Time),226413.0,CFD-BF-031-020-A.jpg,1000,solid,O,z,1001,4,1,55132.79999999702,171280.20000000298,7046,ATS,C,24
1,test,1,B,mfborder.png,1,z,Fri Feb 07 2025 13:05:33 GMT-0600 (Central Standard Time),239492.3999999985,CFD-WF-001-010-HC.jpg,1900,dash,O,z,666,8,1,2599.39999999851,236893.0,7046,ATS,C,1
2,test,1,B,mfborder.png,1,m,Fri Feb 07 2025 13:05:33 GMT-0600 (Central Standard Time),242191.29999999702,CFD-BM-022-004-HC.jpg,1700,dash,O,m,975,1,1,5298.29999999702,236893.0,7046,ATS,C,2
3,test,1,B,mfborder.png,1,m,Fri Feb 07 2025 13:05:33 GMT-0600 (Central Standard Time),244190.79999999702,CFD-WM-034-040-A.jpg,1200,dash,O,m,775,6,1,7297.79999999702,236893.0,7046,ATS,C,3
4,test,1,B,mfborder.png,1,z,Fri Feb 07 2025 13:05:33 GMT-0600 (Central Standard Time),246023.5,CFD-WF-013-009-HC.jpg,1000,dash,O,z,800,12,1,9130.5,236893.0,7046,ATS,C,4
5,test,1,B,mfborder.png,1,z,Fri Feb 07 2025 13:05:33 GMT-0600 (Central Standard Time),248472.8999999985,CFD-WF-037-016-A.jpg,1500,dash,O,z,915,11,1,11579.89999999851,236893.0,7046,ATS,C,5
5,test,1,B,mfborder.png,0,z,Fri Feb 07 2025 13:05:33 GMT-0600 (Central Standard Time),250805.29999999702,CFD-BF-042-031-HC.jpg,1500,dash,O,m,811,3,1,13912.29999999702,236893.0,7046,ATS,C,6
6,test,1,B,mfborder.png,1,m,Fri Feb 07 2025 13:05:33 GMT-0600 (Central Standard Time),253088.0,CFD-BM-021-026-A.jpg,1600,dash,O,m,649,2,1,16195.0,236893.0,7046,ATS,C,7
7,test,1,B,mfborder.png,1,m,Fri Feb 07 2025 13:05:33 GMT-0600 (Central Standard Time),255720.5,CFD-BM-043-014-A.jpg,2000,dash,O,m,599,5,1,18827.5,236893.0,7046,ATS,C,8
8,test,1,B,mfborder.png,1,z,Fri Feb 07 2025 13:05:33 GMT-0600 (Central Standard Time),258419.8999999985,CFD-WF-001-010-HC.jpg,1900,dash,O,z,770,8,1,21526.89999999851,236893.0,7046,ATS,C,9
9,test,1,B,mfborder.png,1,m,Fri Feb 07 2025 13:05:33 GMT-0600 (Central Standard Time),260169.20000000298,CFD-WM-034-040-A.jpg,1200,dash,O,m,523,6,1,23276.20000000298,236893.0,7046,ATS,C,10
10,test,1,B,mfborder.png,1,m,Fri Feb 07 2025 13:05:33 GMT-0600 (Central Standard Time),262202.0,CFD-WM-035-036-HC.jpg,1600,dash,O,m,398,10,1,25309.0,236893.0,7046,ATS,C,11
11,test,1,B,mfborder.png,1,m,Fri Feb 07 2025 13:05:33 GMT-0600 (Central Standard Time),264385.700000003,CFD-WM-035-036-HC.jpg,1600,dash,O,m,557,10,1,27492.70000000298,236893.0,7046,ATS,C,12
12,test,1,B,mfborder.png,1,z,Fri Feb 07 2025 13:05:33 GMT-0600 (Central Standard Time),266120.8999999985,CFD-BF-031-020-A.jpg,1000,dash,O,z,702,4,1,29227.89999999851,236893.0,7046,ATS,C,13
12,test,1,B,mfborder.png,0,m,Fri Feb 07 2025 13:05:33 GMT-0600 (Central Standard Time),268699.799999997,CFD-WM-036-018-A.jpg,1700,dash,O,z,861,9,1,31806.79999999702,236893.0,7046,ATS,C,14
13,test,1,B,mfborder.png,1,z,Fri Feb 07 2025 13:05:33 GMT-0600 (Central Standard Time),270515.8999999985,CFD-BF-031-020-A.jpg,1000,dash,O,z,787,4,1,33622.89999999851,236893.0,7046,ATS,C,15
14,test,1,B,mfborder.png,1,z,Fri Feb 07 2025 13:05:33 GMT-0600 (Central Standard Time),272432.0,CFD-WF-013-009-HC.jpg,1000,dash,O,z,891,12,1,35539.0,236893.0,7046,ATS,C,16
15,test,1,B,mfborder.png,1,m,Fri Feb 07 2025 13:05:33 GMT-0600 (Central Standard Time),274997.8999999985,CFD-BM-043-014-A.jpg,2000,dash,O,m,535,5,1,38104.89999999851,236893.0,7046,ATS,C,17
16,test,1,B,mfborder.png,1,m,Fri Feb 07 2025 13:05:33 GMT-0600 (Central Standard Time),277230.700000003,CFD-BM-022-004-HC.jpg,1700,dash,O,m,501,1,1,40337.70000000298,236893.0,7046,ATS,C,18
17,test,1,B,mfborder.png,1,z,Fri Feb 07 2025 13:05:33 GMT-0600 (Central Standard Time),279813.1000000015,CFD-WF-037-016-A.jpg,1500,dash,O,z,1060,11,1,42920.10000000149,236893.0,7046,ATS,C,19
18,test,1,B,mfborder.png,1,z,Fri Feb 07 2025 13:05:33 GMT-0600 (Central Standard Time),282145.6000000015,CFD-BF-019-004-HC.jpg,1400,dash,O,z,906,7,1,45252.60000000149,236893.0,7046,ATS,C,20
18,test,1,B,mfborder.png,0,m,Fri Feb 07 2025 13:05:33 GMT-0600 (Central Standard Time),284845.0,CFD-WM-036-018-A.jpg,1700,dash,O,z,969,9,1,47952.0,236893.0,7046,ATS,C,21
19,test,1,B,mfborder.png,1,m,Fri Feb 07 2025 13:05:33 GMT-0600 (Central Standard Time),287010.799999997,CFD-BM-021-026-A.jpg,1600,dash,O,m,538,2,1,50117.79999999702,236893.0,7046,ATS,C,22
20,test,1,B,mfborder.png,1,z,Fri Feb 07 2025 13:05:33 GMT-0600 (Central Standard Time),289243.299999997,CFD-BF-019-004-HC.jpg,1400,dash,O,z,811,7,1,52350.29999999702,236893.0,7046,ATS,C,23
21,test,1,B,mfborder.png,1,z,Fri Feb 07 2025 13:05:33 GMT-0600 (Central Standard Time),291409.299999997,CFD-BF-042-031-HC.jpg,1500,dash,O,z,632,3,1,54516.29999999702,236893.0,7046,ATS,C,24
1,prac,1,C,haborder.png,1,z,Fri Feb 07 2025 13:05:33 GMT-0600 (Central Standard Time),324732.200000003,CFD-WF-037-016-A.jpg,1600,dash,O,z,843,3,1,3232.10000000149,321500.1000000015,7046,ATS,C,1
2,prac,1,C,haborder.png,1,m,Fri Feb 07 2025 13:05:33 GMT-0600 (Central Standard Time),327588.8999999985,CFD-WM-028-005-HC.jpg,1000,dash,O,m,1034,3,1,6088.79999999702,321500.1000000015,7046,ATS,C,2
3,prac,1,C,mfborder.png,1,m,Fri Feb 07 2025 13:05:33 GMT-0600 (Central Standard Time),331080.3999999985,CFD-BM-034-035-HC.jpg,2000,solid,O,m,698,3,1,9580.29999999702,321500.1000000015,7046,ATS,C,3
4,prac,1,C,mfborder.png,1,m,Fri Feb 07 2025 13:05:33 GMT-0600 (Central Standard Time),334213.8999999985,CFD-BM-043-014-A.jpg,1200,dash,O,m,1142,3,1,12713.79999999702,321500.1000000015,7046,ATS,C,4
5,prac,1,C,mfborder.png,1,z,Fri Feb 07 2025 13:05:33 GMT-0600 (Central Standard Time),336895.1000000015,CFD-BF-019-004-HC.jpg,1000,dash,O,z,882,3,1,15395.0,321500.1000000015,7046,ATS,C,5
6,prac,1,C,haborder.png,1,z,Fri Feb 07 2025 13:05:33 GMT-0600 (Central Standard Time),340494.200000003,CFD-BF-031-020-A.jpg,1900,dash,O,z,909,3,1,18994.10000000149,321500.1000000015,7046,ATS,C,6
7,prac,1,C,mfborder.png,1,z,Fri Feb 07 2025 13:05:33 GMT-0600 (Central Standard Time),344043.0,CFD-WF-013-009-HC.jpg,1600,dash,O,z,1153,3,1,22542.89999999851,321500.1000000015,7046,ATS,C,7
8,prac,1,C,haborder.png,1,m,Fri Feb 07 2025 13:05:33 GMT-0600 (Central Standard Time),347159.0,CFD-BM-022-004-HC.jpg,1500,solid,O,m,815,3,1,25658.89999999851,321500.1000000015,7046,ATS,C,8
9,prac,1,C,haborder.png,1,z,Fri Feb 07 2025 13:05:33 GMT-0600 (Central Standard Time),350989.1000000015,CFD-BF-002-018-A.jpg,1700,solid,O,z,1300,3,1,29489.0,321500.1000000015,7046,ATS,C,9
10,prac,1,C,haborder.png,1,m,Fri Feb 07 2025 13:05:33 GMT-0600 (Central Standard Time),354273.200000003,CFD-WM-028-005-HC.jpg,1400,solid,O,m,1087,3,1,32773.10000000149,321500.1000000015,7046,ATS,C,10
11,prac,1,C,mfborder.png,1,z,Fri Feb 07 2025 13:05:33 GMT-0600 (Central Standard Time),357539.0,CFD-WF-023-013-A.jpg,1500,solid,O,z,977,3,1,36038.89999999851,321500.1000000015,7046,ATS,C,11
11,prac,1,C,mfborder.png,0,m,Fri Feb 07 2025 13:05:33 GMT-0600 (Central Standard Time),361537.6000000015,CFD-WM-036-018-A.jpg,1700,solid,O,None,1514,3,1,40037.5,321500.1000000015,7046,ATS,C,12
1,test,1,C,mfborder.png,1,z,Fri Feb 07 2025 13:05:33 GMT-0600 (Central Standard Time),378698.8999999985,CFD-WF-037-016-A.jpg,1500,dash,O,z,896,3,1,2416.1999999955297,376282.700000003,7046,ATS,C,1
2,test,1,C,haborder.png,1,m,Fri Feb 07 2025 13:05:33 GMT-0600 (Central Standard Time),380631.5,CFD-WF-013-009-HC.jpg,1000,solid,O,m,900,12,1,4348.79999999702,376282.700000003,7046,ATS,C,2
3,test,1,C,mfborder.png,1,m,Fri Feb 07 2025 13:05:33 GMT-0600 (Central Standard Time),382614.1000000015,CFD-BM-022-004-HC.jpg,1200,dash,O,m,751,6,1,6331.39999999851,376282.700000003,7046,ATS,C,3
4,test,1,C,haborder.png,1,z,Fri Feb 07 2025 13:05:33 GMT-0600 (Central Standard Time),385280.0,CFD-BM-021-026-A.jpg,1700,solid,O,z,940,9,1,8997.29999999702,376282.700000003,7046,ATS,C,4
4,test,1,C,mfborder.png,0,z,Fri Feb 07 2025 13:05:33 GMT-0600 (Central Standard Time),388412.6000000015,CFD-BF-031-020-A.jpg,1600,dash,O,None,1510,2,1,12129.89999999851,376282.700000003,7046,ATS,C,5
5,test,1,C,mfborder.png,1,z,Fri Feb 07 2025 13:05:33 GMT-0600 (Central Standard Time),390845.0,CFD-BF-042-031-HC.jpg,1700,dash,O,z,710,1,1,14562.29999999702,376282.700000003,7046,ATS,C,6
6,test,1,C,haborder.png,1,z,Fri Feb 07 2025 13:05:33 GMT-0600 (Central Standard Time),393127.6000000015,CFD-WM-036-018-A.jpg,1400,solid,O,z,846,7,1,16844.89999999851,376282.700000003,7046,ATS,C,7
7,test,1,C,haborder.png,1,m,Fri Feb 07 2025 13:05:33 GMT-0600 (Central Standard Time),394977.299999997,CFD-WF-013-009-HC.jpg,1000,solid,O,m,815,12,1,18694.59999999404,376282.700000003,7046,ATS,C,8
7,test,1,C,haborder.png,0,z,Fri Feb 07 2025 13:05:33 GMT-0600 (Central Standard Time),397576.0,CFD-BM-043-014-A.jpg,1900,solid,O,m,665,8,1,21293.29999999702,376282.700000003,7046,ATS,C,9
8,test,1,C,mfborder.png,1,m,Fri Feb 07 2025 13:05:33 GMT-0600 (Central Standard Time),399692.5,CFD-WM-035-036-HC.jpg,1000,dash,O,m,1087,4,1,23409.79999999702,376282.700000003,7046,ATS,C,10
8,test,1,C,haborder.png,0,m,Fri Feb 07 2025 13:05:33 GMT-0600 (Central Standard Time),402641.1000000015,CFD-WF-001-010-HC.jpg,1500,solid,O,z,1415,11,1,26358.39999999851,376282.700000003,7046,ATS,C,11
8,test,1,C,mfborder.png,0,z,Fri Feb 07 2025 13:05:33 GMT-0600 (Central Standard Time),405677.6000000015,CFD-WF-037-016-A.jpg,1500,dash,O,None,1514,3,1,29394.89999999851,376282.700000003,7046,ATS,C,12
8,test,1,C,haborder.png,0,z,Fri Feb 07 2025 13:05:33 GMT-0600 (Central Standard Time),408506.0,CFD-BM-043-014-A.jpg,1900,solid,O,m,913,8,1,32223.29999999702,376282.700000003,7046,ATS,C,13
9,test,1,C,mfborder.png,1,m,Fri Feb 07 2025 13:05:33 GMT-0600 (Central Standard Time),410388.8999999985,CFD-BM-022-004-HC.jpg,1200,dash,O,m,661,6,1,34106.19999999553,376282.700000003,7046,ATS,C,14
10,test,1,C,haborder.png,1,m,Fri Feb 07 2025 13:05:33 GMT-0600 (Central Standard Time),412938.200000003,CFD-BF-019-004-HC.jpg,1600,solid,O,m,931,10,1,36655.5,376282.700000003,7046,ATS,C,15
11,test,1,C,haborder.png,1,m,Fri Feb 07 2025 13:05:33 GMT-0600 (Central Standard Time),415787.3999999985,CFD-WF-001-010-HC.jpg,1500,solid,O,m,1317,11,1,39504.69999999553,376282.700000003,7046,ATS,C,16
12,test,1,C,mfborder.png,1,z,Fri Feb 07 2025 13:05:33 GMT-0600 (Central Standard Time),418319.6000000015,CFD-BF-031-020-A.jpg,1600,dash,O,z,908,2,1,42036.89999999851,376282.700000003,7046,ATS,C,17
13,test,1,C,mfborder.png,1,m,Fri Feb 07 2025 13:05:33 GMT-0600 (Central Standard Time),421002.299999997,CFD-WM-034-040-A.jpg,2000,dash,O,m,651,5,1,44719.59999999404,376282.700000003,7046,ATS,C,18
14,test,1,C,mfborder.png,1,m,Fri Feb 07 2025 13:05:33 GMT-0600 (Central Standard Time),422785.8999999985,CFD-WM-035-036-HC.jpg,1000,dash,O,m,765,4,1,46503.19999999553,376282.700000003,7046,ATS,C,19
15,test,1,C,haborder.png,1,z,Fri Feb 07 2025 13:05:33 GMT-0600 (Central Standard Time),425467.5,CFD-BM-021-026-A.jpg,1700,solid,O,z,952,9,1,49184.79999999702,376282.700000003,7046,ATS,C,20
16,test,1,C,haborder.png,1,m,Fri Feb 07 2025 13:05:33 GMT-0600 (Central Standard Time),428083.3999999985,CFD-BF-019-004-HC.jpg,1600,solid,O,m,987,10,1,51800.69999999553,376282.700000003,7046,ATS,C,21
16,test,1,C,mfborder.png,0,z,Fri Feb 07 2025 13:05:33 GMT-0600 (Central Standard Time),430999.200000003,CFD-BF-042-031-HC.jpg,1700,dash,O,m,1183,1,1,54716.5,376282.700000003,7046,ATS,C,22
16,test,1,C,mfborder.png,0,m,Fri Feb 07 2025 13:05:33 GMT-0600 (Central Standard Time),434231.5,CFD-WM-034-040-A.jpg,2000,dash,O,z,1200,5,1,57948.79999999702,376282.700000003,7046,ATS,C,23
17,test,1,C,haborder.png,1,z,Fri Feb 07 2025 13:05:33 GMT-0600 (Central Standard Time),436647.299999997,CFD-WM-036-018-A.jpg,1400,solid,O,z,979,7,1,60364.59999999404,376282.700000003,7046,ATS,C,24
1,test,2,C,mfborder.png,1,m,Fri Feb 07 2025 13:05:33 GMT-0600 (Central Standard Time),442262.5,CFD-BM-043-014-A.jpg,2000,dash,O,m,818,5,1,2849.2000000029802,439413.299999997,7046,ATS,C,1
2,test,2,C,mfborder.png,1,m,Fri Feb 07 2025 13:05:33 GMT-0600 (Central Standard Time),444128.3999999985,CFD-WM-036-018-A.jpg,1200,dash,O,m,629,6,1,4715.10000000149,439413.299999997,7046,ATS,C,2
3,test,2,C,mfborder.png,1,z,Fri Feb 07 2025 13:05:33 GMT-0600 (Central Standard Time),446560.700000003,CFD-WF-023-013-A.jpg,1600,dash,O,z,807,2,1,7147.4000000059605,439413.299999997,7046,ATS,C,3
4,test,2,C,haborder.png,1,m,Fri Feb 07 2025 13:05:33 GMT-0600 (Central Standard Time),448877.0,CFD-BM-022-004-HC.jpg,1600,solid,O,m,695,10,1,9463.70000000298,439413.299999997,7046,ATS,C,4
5,test,2,C,haborder.png,1,z,Fri Feb 07 2025 13:05:33 GMT-0600 (Central Standard Time),451992.5,CFD-BF-002-018-A.jpg,1900,solid,O,z,1182,8,1,12579.20000000298,439413.299999997,7046,ATS,C,5
6,test,2,C,haborder.png,1,z,Fri Feb 07 2025 13:05:33 GMT-0600 (Central Standard Time),454491.6000000015,CFD-WF-037-016-A.jpg,1700,solid,O,z,771,9,1,15078.30000000447,439413.299999997,7046,ATS,C,6
7,test,2,C,haborder.png,1,z,Fri Feb 07 2025 13:05:33 GMT-0600 (Central Standard Time),456641.299999997,CFD-BF-031-020-A.jpg,1400,solid,O,z,720,7,1,17228.0,439413.299999997,7046,ATS,C,7
7,test,2,C,mfborder.png,0,z,Fri Feb 07 2025 13:05:33 GMT-0600 (Central Standard Time),458973.5,CFD-BF-019-004-HC.jpg,1500,dash,O,m,802,3,1,19560.20000000298,439413.299999997,7046,ATS,C,8
8,test,2,C,haborder.png,1,m,Fri Feb 07 2025 13:05:33 GMT-0600 (Central Standard Time),461622.799999997,CFD-WM-028-005-HC.jpg,1500,solid,O,m,1125,11,1,22209.5,439413.299999997,7046,ATS,C,9
9,test,2,C,haborder.png,1,z,Fri Feb 07 2025 13:05:33 GMT-0600 (Central Standard Time),464405.3999999985,CFD-WF-037-016-A.jpg,1700,solid,O,z,1060,9,1,24992.10000000149,439413.299999997,7046,ATS,C,10
10,test,2,C,haborder.png,1,m,Fri Feb 07 2025 13:05:33 GMT-0600 (Central Standard Time),466288.1000000015,CFD-WM-028-005-HC.jpg,1000,solid,O,m,849,12,1,26874.80000000447,439413.299999997,7046,ATS,C,11
11,test,2,C,mfborder.png,1,m,Fri Feb 07 2025 13:05:33 GMT-0600 (Central Standard Time),468370.6000000015,CFD-WM-036-018-A.jpg,1200,dash,O,m,859,6,1,28957.30000000447,439413.299999997,7046,ATS,C,12
11,test,2,C,mfborder.png,0,z,Fri Feb 07 2025 13:05:33 GMT-0600 (Central Standard Time),470753.3999999985,CFD-WF-023-013-A.jpg,1600,dash,O,m,756,2,1,31340.10000000149,439413.299999997,7046,ATS,C,13
12,test,2,C,mfborder.png,1,m,Fri Feb 07 2025 13:05:33 GMT-0600 (Central Standard Time),472352.8999999985,CFD-BM-034-035-HC.jpg,1000,dash,O,m,565,4,1,32939.60000000149,439413.299999997,7046,ATS,C,14
13,test,2,C,haborder.png,1,m,Fri Feb 07 2025 13:05:33 GMT-0600 (Central Standard Time),474618.700000003,CFD-BM-022-004-HC.jpg,1600,solid,O,m,638,10,1,35205.40000000596,439413.299999997,7046,ATS,C,15
14,test,2,C,haborder.png,1,m,Fri Feb 07 2025 13:05:33 GMT-0600 (Central Standard Time),476368.3999999985,CFD-WM-028-005-HC.jpg,1000,solid,O,m,719,12,1,36955.10000000149,439413.299999997,7046,ATS,C,16
15,test,2,C,haborder.png,1,m,Fri Feb 07 2025 13:05:33 GMT-0600 (Central Standard Time),478650.799999997,CFD-WM-028-005-HC.jpg,1500,solid,O,m,754,11,1,39237.5,439413.299999997,7046,ATS,C,17
16,test,2,C,mfborder.png,1,m,Fri Feb 07 2025 13:05:33 GMT-0600 (Central Standard Time),480783.799999997,CFD-BM-034-035-HC.jpg,1000,dash,O,m,1108,4,1,41370.5,439413.299999997,7046,ATS,C,18
17,test,2,C,mfborder.png,1,z,Fri Feb 07 2025 13:05:33 GMT-0600 (Central Standard Time),483366.200000003,CFD-WF-013-009-HC.jpg,1700,dash,O,z,859,1,1,43952.90000000596,439413.299999997,7046,ATS,C,19
18,test,2,C,haborder.png,1,z,Fri Feb 07 2025 13:05:33 GMT-0600 (Central Standard Time),486448.3999999985,CFD-BF-002-018-A.jpg,1900,solid,O,z,1153,8,1,47035.10000000149,439413.299999997,7046,ATS,C,20
19,test,2,C,mfborder.png,1,m,Fri Feb 07 2025 13:05:33 GMT-0600 (Central Standard Time),489164.5,CFD-BM-043-014-A.jpg,2000,dash,O,m,686,5,1,49751.20000000298,439413.299999997,7046,ATS,C,21
20,test,2,C,haborder.png,1,z,Fri Feb 07 2025 13:05:33 GMT-0600 (Central Standard Time),491397.0,CFD-BF-031-020-A.jpg,1400,solid,O,z,807,7,1,51983.70000000298,439413.299999997,7046,ATS,C,22
21,test,2,C,mfborder.png,1,z,Fri Feb 07 2025 13:05:33 GMT-0600 (Central Standard Time),493929.3999999985,CFD-BF-019-004-HC.jpg,1500,dash,O,z,1006,3,1,54516.10000000149,439413.299999997,7046,ATS,C,23
22,test,2,C,mfborder.png,1,z,Fri Feb 07 2025 13:05:33 GMT-0600 (Central Standard Time),496628.3999999985,CFD-WF-013-009-HC.jpg,1700,dash,O,z,977,1,1,57215.10000000149,439413.299999997,7046,ATS,C,24
0,test,3,C,haborder.png,0,m,Fri Feb 07 2025 13:05:33 GMT-0600 (Central Standard Time),505142.5,CFD-BF-019-004-HC.jpg,1600,solid,O,z,922,10,1,2549.0,502593.5,7046,ATS,C,1
1,test,3,C,haborder.png,1,m,Fri Feb 07 2025 13:05:33 GMT-0600 (Central Standard Time),507692.0,CFD-WF-001-010-HC.jpg,1500,solid,O,m,1020,11,1,5098.5,502593.5,7046,ATS,C,2
2,test,3,C,haborder.png,1,z,Fri Feb 07 2025 13:05:33 GMT-0600 (Central Standard Time),509957.8999999985,CFD-WM-036-018-A.jpg,1400,solid,O,z,835,7,1,7364.39999999851,502593.5,7046,ATS,C,3
3,test,3,C,haborder.png,1,z,Fri Feb 07 2025 13:05:33 GMT-0600 (Central Standard Time),512857.1000000015,CFD-BM-043-014-A.jpg,1900,solid,O,z,965,8,1,10263.60000000149,502593.5,7046,ATS,C,4
4,test,3,C,mfborder.png,1,z,Fri Feb 07 2025 13:05:33 GMT-0600 (Central Standard Time),515389.6000000015,CFD-BF-031-020-A.jpg,1600,dash,O,z,902,2,1,12796.10000000149,502593.5,7046,ATS,C,5
5,test,3,C,haborder.png,1,z,Fri Feb 07 2025 13:05:33 GMT-0600 (Central Standard Time),518221.799999997,CFD-BM-043-014-A.jpg,1900,solid,O,z,910,8,1,15628.29999999702,502593.5,7046,ATS,C,6
6,test,3,C,haborder.png,1,m,Fri Feb 07 2025 13:05:33 GMT-0600 (Central Standard Time),520354.700000003,CFD-WF-013-009-HC.jpg,1000,solid,O,m,1105,12,1,17761.20000000298,502593.5,7046,ATS,C,7
7,test,3,C,haborder.png,1,m,Fri Feb 07 2025 13:05:33 GMT-0600 (Central Standard Time),522054.200000003,CFD-WF-013-009-HC.jpg,1000,solid,O,m,672,12,1,19460.70000000298,502593.5,7046,ATS,C,8
8,test,3,C,mfborder.png,1,m,Fri Feb 07 2025 13:05:33 GMT-0600 (Central Standard Time),523986.700000003,CFD-WM-035-036-HC.jpg,1000,dash,O,m,914,4,1,21393.20000000298,502593.5,7046,ATS,C,9
9,test,3,C,mfborder.png,1,z,Fri Feb 07 2025 13:05:33 GMT-0600 (Central Standard Time),526252.6000000015,CFD-BF-031-020-A.jpg,1600,dash,O,z,636,2,1,23659.10000000149,502593.5,7046,ATS,C,10
10,test,3,C,mfborder.png,1,z,Fri Feb 07 2025 13:05:33 GMT-0600 (Central Standard Time),528568.5,CFD-BF-042-031-HC.jpg,1700,dash,O,z,578,1,1,25975.0,502593.5,7046,ATS,C,11
11,test,3,C,mfborder.png,1,z,Fri Feb 07 2025 13:05:33 GMT-0600 (Central Standard Time),530701.200000003,CFD-WF-037-016-A.jpg,1500,dash,O,z,602,3,1,28107.70000000298,502593.5,7046,ATS,C,12
12,test,3,C,haborder.png,1,m,Fri Feb 07 2025 13:05:33 GMT-0600 (Central Standard Time),533017.3999999985,CFD-WF-001-010-HC.jpg,1500,solid,O,m,789,11,1,30423.89999999851,502593.5,7046,ATS,C,13
13,test,3,C,mfborder.png,1,m,Fri Feb 07 2025 13:05:33 GMT-0600 (Central Standard Time),535083.200000003,CFD-BM-022-004-HC.jpg,1200,dash,O,m,838,6,1,32489.70000000298,502593.5,7046,ATS,C,14
14,test,3,C,mfborder.png,1,m,Fri Feb 07 2025 13:05:33 GMT-0600 (Central Standard Time),536732.6000000015,CFD-WM-035-036-HC.jpg,1000,dash,O,m,620,4,1,34139.10000000149,502593.5,7046,ATS,C,15
15,test,3,C,mfborder.png,1,m,Fri Feb 07 2025 13:05:33 GMT-0600 (Central Standard Time),538532.299999997,CFD-BM-022-004-HC.jpg,1200,dash,O,m,570,6,1,35938.79999999702,502593.5,7046,ATS,C,16
16,test,3,C,haborder.png,1,m,Fri Feb 07 2025 13:05:33 GMT-0600 (Central Standard Time),540998.200000003,CFD-BF-019-004-HC.jpg,1600,solid,O,m,835,10,1,38404.70000000298,502593.5,7046,ATS,C,17
17,test,3,C,mfborder.png,1,z,Fri Feb 07 2025 13:05:33 GMT-0600 (Central Standard Time),543230.6000000015,CFD-WF-037-016-A.jpg,1500,dash,O,z,701,3,1,40637.10000000149,502593.5,7046,ATS,C,18
18,test,3,C,mfborder.png,1,m,Fri Feb 07 2025 13:05:33 GMT-0600 (Central Standard Time),545913.0,CFD-WM-034-040-A.jpg,2000,dash,O,m,656,5,1,43319.5,502593.5,7046,ATS,C,19
19,test,3,C,mfborder.png,1,m,Fri Feb 07 2025 13:05:33 GMT-0600 (Central Standard Time),548529.299999997,CFD-WM-034-040-A.jpg,2000,dash,O,m,582,5,1,45935.79999999702,502593.5,7046,ATS,C,20
19,test,3,C,haborder.png,0,z,Fri Feb 07 2025 13:05:33 GMT-0600 (Central Standard Time),550944.8999999985,CFD-BM-021-026-A.jpg,1700,solid,O,m,690,9,1,48351.39999999851,502593.5,7046,ATS,C,21
20,test,3,C,haborder.png,1,z,Fri Feb 07 2025 13:05:33 GMT-0600 (Central Standard Time),553411.0,CFD-BM-021-026-A.jpg,1700,solid,O,z,737,9,1,50817.5,502593.5,7046,ATS,C,22
20,test,3,C,mfborder.png,0,z,Fri Feb 07 2025 13:05:33 GMT-0600 (Central Standard Time),555826.6000000015,CFD-BF-042-031-HC.jpg,1700,dash,O,m,688,1,1,53233.10000000149,502593.5,7046,ATS,C,23
21,test,3,C,haborder.png,1,z,Fri Feb 07 2025 13:05:33 GMT-0600 (Central Standard Time),558226.0,CFD-WM-036-018-A.jpg,1400,solid,O,z,980,7,1,55632.5,502593.5,7046,ATS,C,24
1,test,4,C,haborder.png,1,z,Fri Feb 07 2025 13:05:33 GMT-0600 (Central Standard Time),563274.8999999985,CFD-BF-031-020-A.jpg,1400,solid,O,z,855,7,1,2283.10000000149,560991.799999997,7046,ATS,C,1
2,test,4,C,mfborder.png,1,m,Fri Feb 07 2025 13:05:33 GMT-0600 (Central Standard Time),565857.0,CFD-BM-043-014-A.jpg,2000,dash,O,m,557,5,1,4865.20000000298,560991.799999997,7046,ATS,C,2
3,test,4,C,haborder.png,1,z,Fri Feb 07 2025 13:05:33 GMT-0600 (Central Standard Time),568306.0,CFD-WF-037-016-A.jpg,1700,solid,O,z,731,9,1,7314.20000000298,560991.799999997,7046,ATS,C,3
4,test,4,C,haborder.png,1,m,Fri Feb 07 2025 13:05:33 GMT-0600 (Central Standard Time),570105.6000000015,CFD-WM-028-005-HC.jpg,1000,solid,O,m,772,12,1,9113.80000000447,560991.799999997,7046,ATS,C,4
5,test,4,C,haborder.png,1,z,Fri Feb 07 2025 13:05:33 GMT-0600 (Central Standard Time),572821.6000000015,CFD-BF-002-018-A.jpg,1900,solid,O,z,793,8,1,11829.80000000447,560991.799999997,7046,ATS,C,5
6,test,4,C,mfborder.png,1,m,Fri Feb 07 2025 13:05:33 GMT-0600 (Central Standard Time),574490.799999997,CFD-BM-034-035-HC.jpg,1000,dash,O,m,641,4,1,13499.0,560991.799999997,7046,ATS,C,6
7,test,4,C,mfborder.png,1,m,Fri Feb 07 2025 13:05:33 GMT-0600 (Central Standard Time),577086.700000003,CFD-BM-043-014-A.jpg,2000,dash,O,m,577,5,1,16094.90000000596,560991.799999997,7046,ATS,C,7
8,test,4,C,mfborder.png,1,z,Fri Feb 07 2025 13:05:33 GMT-0600 (Central Standard Time),579635.8999999985,CFD-WF-013-009-HC.jpg,1700,dash,O,z,821,1,1,18644.10000000149,560991.799999997,7046,ATS,C,8
9,test,4,C,haborder.png,1,z,Fri Feb 07 2025 13:05:33 GMT-0600 (Central Standard Time),581901.8999999985,CFD-BF-031-020-A.jpg,1400,solid,O,z,844,7,1,20910.10000000149,560991.799999997,7046,ATS,C,9
10,test,4,C,mfborder.png,1,z,Fri Feb 07 2025 13:05:33 GMT-0600 (Central Standard Time),584319.0,CFD-WF-023-013-A.jpg,1600,dash,O,z,785,2,1,23327.20000000298,560991.799999997,7046,ATS,C,10
11,test,4,C,mfborder.png,1,m,Fri Feb 07 2025 13:05:33 GMT-0600 (Central Standard Time),586167.299999997,CFD-WM-036-018-A.jpg,1200,dash,O,m,625,6,1,25175.5,560991.799999997,7046,ATS,C,11
12,test,4,C,mfborder.png,1,z,Fri Feb 07 2025 13:05:33 GMT-0600 (Central Standard Time),588400.1000000015,CFD-BF-019-004-HC.jpg,1500,dash,O,z,708,3,1,27408.30000000447,560991.799999997,7046,ATS,C,12
13,test,4,C,mfborder.png,1,z,Fri Feb 07 2025 13:05:33 GMT-0600 (Central Standard Time),591065.799999997,CFD-WF-013-009-HC.jpg,1700,dash,O,z,947,1,1,30074.0,560991.799999997,7046,ATS,C,13
14,test,4,C,haborder.png,1,m,Fri Feb 07 2025 13:05:33 GMT-0600 (Central Standard Time),593131.6000000015,CFD-WM-028-005-HC.jpg,1500,solid,O,m,537,11,1,32139.80000000447,560991.799999997,7046,ATS,C,14
15,test,4,C,haborder.png,1,m,Fri Feb 07 2025 13:05:33 GMT-0600 (Central Standard Time),594747.799999997,CFD-WM-028-005-HC.jpg,1000,solid,O,m,583,12,1,33756.0,560991.799999997,7046,ATS,C,15
16,test,4,C,haborder.png,1,m,Fri Feb 07 2025 13:05:33 GMT-0600 (Central Standard Time),597080.6000000015,CFD-BM-022-004-HC.jpg,1600,solid,O,m,707,10,1,36088.80000000447,560991.799999997,7046,ATS,C,16
17,test,4,C,haborder.png,1,m,Fri Feb 07 2025 13:05:33 GMT-0600 (Central Standard Time),599213.200000003,CFD-WM-028-005-HC.jpg,1500,solid,O,m,602,11,1,38221.40000000596,560991.799999997,7046,ATS,C,17
18,test,4,C,haborder.png,1,z,Fri Feb 07 2025 13:05:33 GMT-0600 (Central Standard Time),601762.200000003,CFD-WF-037-016-A.jpg,1700,solid,O,z,830,9,1,40770.40000000596,560991.799999997,7046,ATS,C,18
19,test,4,C,haborder.png,1,z,Fri Feb 07 2025 13:05:33 GMT-0600 (Central Standard Time),604361.799999997,CFD-BF-002-018-A.jpg,1900,solid,O,z,665,8,1,43370.0,560991.799999997,7046,ATS,C,19
20,test,4,C,mfborder.png,1,z,Fri Feb 07 2025 13:05:33 GMT-0600 (Central Standard Time),606560.8999999985,CFD-WF-023-013-A.jpg,1600,dash,O,z,569,2,1,45569.10000000149,560991.799999997,7046,ATS,C,20
21,test,4,C,mfborder.png,1,m,Fri Feb 07 2025 13:05:33 GMT-0600 (Central Standard Time),608143.700000003,CFD-BM-034-035-HC.jpg,1000,dash,O,m,557,4,1,47151.90000000596,560991.799999997,7046,ATS,C,21
22,test,4,C,mfborder.png,1,z,Fri Feb 07 2025 13:05:33 GMT-0600 (Central Standard Time),610675.8999999985,CFD-BF-019-004-HC.jpg,1500,dash,O,z,1012,3,1,49684.10000000149,560991.799999997,7046,ATS,C,22
23,test,4,C,haborder.png,1,m,Fri Feb 07 2025 13:05:33 GMT-0600 (Central Standard Time),613092.200000003,CFD-BM-022-004-HC.jpg,1600,solid,O,m,795,10,1,52100.40000000596,560991.799999997,7046,ATS,C,23
24,test,4,C,mfborder.png,1,m,Fri Feb 07 2025 13:05:33 GMT-0600 (Central Standard Time),615541.200000003,CFD-WM-036-018-A.jpg,1200,dash,O,m,1218,6,1,54549.40000000596,560991.799999997,7046,ATS,C,24
