acc_sum,block,block_c,change,condition,correct,correct_response,datetime,endtime,face,project,response,response_time,row_sel,session_number,start_end,starttime,subject_id,task,task_vers,trial
0,prac,1,,1-Back,,,Wed Oct 02 2024 17:52:12 GMT-0500 (Central Daylight Time),,124_o_f_d_a.png,O,space,7517,1,1,,,7021,VNB,A,0
1,prac,1,0.0,1-Back,1,m,Wed Oct 02 2024 17:52:12 GMT-0500 (Central Daylight Time),114826.90000009537,071_y_f_n_a.png,O,m,1623,2,1,2456.2000000476837,112370.70000004768,7021,VNB,A,1
2,prac,1,0.0,1-Back,1,m,Wed Oct 02 2024 17:52:12 GMT-0500 (Central Daylight Time),117309.5,165_m_m_h_a.png,O,m,1625,3,1,2450.5,114859.0,7021,VNB,A,2
3,prac,1,0.0,1-Back,1,m,Wed Oct 02 2024 17:52:12 GMT-0500 (Central Daylight Time),119558.70000004768,109_y_m_d_a.png,O,m,1395,4,1,2225.7999999523163,117332.90000009537,7021,VNB,A,3
4,prac,1,0.0,1-Back,1,m,Wed Oct 02 2024 17:52:12 GMT-0500 (Central Daylight Time),121608.90000009537,124_o_f_n_a.png,O,m,1148,5,1,2013.3000000715256,119595.60000002384,7021,VNB,A,4
5,prac,1,1.0,1-Back,1,z,Wed Oct 02 2024 17:52:12 GMT-0500 (Central Daylight Time),123723.80000007153,109_y_m_n_a.png,O,z,1241,6,1,2084.7000000476837,121639.10000002384,7021,VNB,A,5
6,prac,1,0.0,1-Back,1,m,Wed Oct 02 2024 17:52:12 GMT-0500 (Central Daylight Time),125839.80000007153,039_o_m_h_a.png,O,m,1239,7,1,2074.399999976158,123765.40000009537,7021,VNB,A,6
7,prac,1,0.0,1-Back,1,m,Wed Oct 02 2024 17:52:12 GMT-0500 (Central Daylight Time),127889.30000007153,139_m_f_d_a.png,O,m,1189,8,1,2019.1000000238419,125870.20000004768,7021,VNB,A,7
8,prac,1,1.0,1-Back,1,z,Wed Oct 02 2024 17:52:12 GMT-0500 (Central Daylight Time),129855.20000004768,071_y_f_d_a.png,O,z,1101,9,1,1939.8999999761581,127915.30000007153,7021,VNB,A,8
9,prac,1,0.0,1-Back,1,m,Wed Oct 02 2024 17:52:12 GMT-0500 (Central Daylight Time),131921.20000004768,165_m_m_n_a.png,O,m,1209,10,1,2032.6000000238419,129888.60000002384,7021,VNB,A,9
10,prac,1,0.0,1-Back,1,m,Wed Oct 02 2024 17:52:12 GMT-0500 (Central Daylight Time),134103.90000009537,124_o_f_h_a.png,O,m,1293,11,1,2147.0,131956.90000009537,7021,VNB,A,10
11,prac,1,0.0,1-Back,1,m,Wed Oct 02 2024 17:52:12 GMT-0500 (Central Daylight Time),136036.5,109_y_m_d_a.png,O,m,1137,12,1,1904.8999999761581,134131.60000002384,7021,VNB,A,11
0,test,1,0.0,1-Back,,,Wed Oct 02 2024 17:52:12 GMT-0500 (Central Daylight Time),136036.5,071_y_f_d_a.png,O,space,11042,1,1,1904.8999999761581,134131.60000002384,7021,VNB,A,0
1,test,1,0.0,1-Back,1,m,Wed Oct 02 2024 17:52:12 GMT-0500 (Central Daylight Time),159628.80000007153,139_m_f_n_a.png,O,m,1232,2,1,2264.3000000715256,157364.5,7021,VNB,A,1
2,test,1,0.0,1-Back,1,m,Wed Oct 02 2024 17:52:12 GMT-0500 (Central Daylight Time),161728.0,039_o_m_h_a.png,O,m,1062,3,1,2074.5999999046326,159653.40000009537,7021,VNB,A,2
3,test,1,1.0,1-Back,1,z,Wed Oct 02 2024 17:52:12 GMT-0500 (Central Daylight Time),163760.5,165_m_m_h_a.png,O,z,995,4,1,2008.8999999761581,161751.60000002384,7021,VNB,A,3
4,test,1,0.0,1-Back,1,m,Wed Oct 02 2024 17:52:12 GMT-0500 (Central Daylight Time),165759.90000009537,124_o_f_n_a.png,O,m,962,5,1,1972.0,163787.90000009537,7021,VNB,A,4
5,test,1,0.0,1-Back,1,m,Wed Oct 02 2024 17:52:12 GMT-0500 (Central Daylight Time),167875.80000007153,109_y_m_d_a.png,O,m,1058,6,1,2081.899999976158,165793.90000009537,7021,VNB,A,5
6,test,1,1.0,1-Back,1,z,Wed Oct 02 2024 17:52:12 GMT-0500 (Central Daylight Time),169925.0,139_m_f_d_a.png,O,z,1014,7,1,2023.3999999761581,167901.60000002384,7021,VNB,A,6
7,test,1,0.0,1-Back,1,m,Wed Oct 02 2024 17:52:12 GMT-0500 (Central Daylight Time),172007.90000009537,071_y_f_h_a.png,O,m,1038,8,1,2051.5,169956.40000009537,7021,VNB,A,7
8,test,1,0.0,1-Back,1,m,Wed Oct 02 2024 17:52:12 GMT-0500 (Central Daylight Time),174007.30000007153,039_o_m_n_a.png,O,m,954,9,1,1968.5,172038.80000007153,7021,VNB,A,8
9,test,1,0.0,1-Back,1,m,Wed Oct 02 2024 17:52:12 GMT-0500 (Central Daylight Time),176273.10000002384,109_y_m_h_a.png,O,m,1211,10,1,2232.100000023842,174041.0,7021,VNB,A,9
10,test,1,0.0,1-Back,1,m,Wed Oct 02 2024 17:52:12 GMT-0500 (Central Daylight Time),178371.80000007153,039_o_m_d_a.png,O,m,1056,11,1,2072.5,176299.30000007153,7021,VNB,A,10
11,test,1,1.0,1-Back,1,z,Wed Oct 02 2024 17:52:12 GMT-0500 (Central Daylight Time),180421.70000004768,124_o_f_d_a.png,O,z,1023,12,1,2040.2999999523163,178381.40000009537,7021,VNB,A,11
12,test,1,0.0,1-Back,1,m,Wed Oct 02 2024 17:52:12 GMT-0500 (Central Daylight Time),182354.20000004768,165_m_m_n_a.png,O,m,893,13,1,1907.1000000238419,180447.10000002384,7021,VNB,A,12
13,test,1,1.0,1-Back,1,z,Wed Oct 02 2024 17:52:12 GMT-0500 (Central Daylight Time),184553.10000002384,071_y_f_n_a.png,O,z,1151,14,1,2179.7999999523163,182373.30000007153,7021,VNB,A,13
14,test,1,0.0,1-Back,1,m,Wed Oct 02 2024 17:52:12 GMT-0500 (Central Daylight Time),186752.5,139_m_f_h_a.png,O,m,1169,15,1,2189.6999999284744,184562.80000007153,7021,VNB,A,14
15,test,1,0.0,1-Back,1,m,Wed Oct 02 2024 17:52:12 GMT-0500 (Central Daylight Time),188801.90000009537,165_m_m_d_a.png,O,m,1017,16,1,2039.7000000476837,186762.20000004768,7021,VNB,A,15
16,test,1,0.0,1-Back,1,m,Wed Oct 02 2024 17:52:12 GMT-0500 (Central Daylight Time),190851.70000004768,109_y_m_n_a.png,O,m,1025,17,1,2037.3999999761581,188814.30000007153,7021,VNB,A,16
17,test,1,0.0,1-Back,1,m,Wed Oct 02 2024 17:52:12 GMT-0500 (Central Daylight Time),192850.90000009537,124_o_f_h_a.png,O,m,959,18,1,1972.4000000953674,190878.5,7021,VNB,A,17
0,test,2,0.0,1-Back,,,Wed Oct 02 2024 17:52:12 GMT-0500 (Central Daylight Time),192850.90000009537,109_y_m_n_a.png,O,space,1567,1,1,1972.4000000953674,190878.5,7021,VNB,A,0
1,test,2,0.0,1-Back,1,m,Wed Oct 02 2024 17:52:12 GMT-0500 (Central Daylight Time),198565.70000004768,071_y_f_h_a.png,O,m,1064,2,1,2082.399999976158,196483.30000007153,7021,VNB,A,1
2,test,2,1.0,1-Back,1,m,Wed Oct 02 2024 17:52:12 GMT-0500 (Central Daylight Time),200465.20000004768,039_o_m_n_a.png,O,m,853,3,1,1875.1000000238419,198590.10000002384,7021,VNB,A,2
3,test,2,0.0,1-Back,1,m,Wed Oct 02 2024 17:52:12 GMT-0500 (Central Daylight Time),202364.0,139_m_f_d_a.png,O,m,848,4,1,1867.0999999046326,200496.90000009537,7021,VNB,A,3
4,test,2,0.0,1-Back,1,z,Wed Oct 02 2024 17:52:12 GMT-0500 (Central Daylight Time),204430.5,165_m_m_d_a.png,O,z,1038,5,1,2054.5999999046326,202375.90000009537,7021,VNB,A,4
5,test,2,0.0,1-Back,1,m,Wed Oct 02 2024 17:52:12 GMT-0500 (Central Daylight Time),206513.10000002384,109_y_m_h_a.png,O,m,1036,6,1,2056.2999999523163,204456.80000007153,7021,VNB,A,5
6,test,2,1.0,1-Back,1,z,Wed Oct 02 2024 17:52:12 GMT-0500 (Central Daylight Time),208564.0,124_o_f_h_a.png,O,z,984,7,1,2018.7999999523163,206545.20000004768,7021,VNB,A,6
7,test,2,0.0,1-Back,1,m,Wed Oct 02 2024 17:52:12 GMT-0500 (Central Daylight Time),210445.20000004768,139_m_f_n_a.png,O,m,831,8,1,1850.0,208595.20000004768,7021,VNB,A,7
8,test,2,0.0,1-Back,1,m,Wed Oct 02 2024 17:52:12 GMT-0500 (Central Daylight Time),212794.5,071_y_f_d_a.png,O,m,1309,9,1,2318.1999999284744,210476.30000007153,7021,VNB,A,8
9,test,2,0.0,1-Back,1,m,Wed Oct 02 2024 17:52:12 GMT-0500 (Central Daylight Time),214860.5,165_m_m_n_a.png,O,m,1024,10,1,2035.7999999523163,212824.70000004768,7021,VNB,A,9
10,test,2,1.0,1-Back,1,m,Wed Oct 02 2024 17:52:12 GMT-0500 (Central Daylight Time),216892.80000007153,139_m_f_h_a.png,O,m,990,11,1,2002.2000000476837,214890.60000002384,7021,VNB,A,10
11,test,2,0.0,1-Back,1,z,Wed Oct 02 2024 17:52:12 GMT-0500 (Central Daylight Time),219208.70000004768,039_o_m_h_a.png,O,z,1277,12,1,2295.2000000476837,216913.5,7021,VNB,A,11
12,test,2,0.0,1-Back,1,m,Wed Oct 02 2024 17:52:12 GMT-0500 (Central Daylight Time),221108.20000004768,109_y_m_d_a.png,O,m,849,13,1,1879.1000000238419,219229.10000002384,7021,VNB,A,12
13,test,2,0.0,1-Back,1,m,Wed Oct 02 2024 17:52:12 GMT-0500 (Central Daylight Time),223541.0,124_o_f_n_a.png,O,m,1398,14,1,2406.899999976158,221134.10000002384,7021,VNB,A,13
14,test,2,0.0,1-Back,1,z,Wed Oct 02 2024 17:52:12 GMT-0500 (Central Daylight Time),226023.20000004768,071_y_f_n_a.png,O,z,1445,15,1,2454.399999976158,223568.80000007153,7021,VNB,A,14
15,test,2,1.0,1-Back,1,m,Wed Oct 02 2024 17:52:12 GMT-0500 (Central Daylight Time),227989.40000009537,165_m_m_h_a.png,O,m,923,16,1,1936.0,226053.40000009537,7021,VNB,A,15
16,test,2,0.0,1-Back,1,m,Wed Oct 02 2024 17:52:12 GMT-0500 (Central Daylight Time),230122.10000002384,124_o_f_d_a.png,O,m,1068,17,1,2100.6999999284744,228021.40000009537,7021,VNB,A,16
17,test,2,1.0,1-Back,1,z,Wed Oct 02 2024 17:52:12 GMT-0500 (Central Daylight Time),232354.80000007153,039_o_m_d_a.png,O,z,1168,18,1,2201.0,230153.80000007153,7021,VNB,A,17
0,test,3,1.0,1-Back,,,Wed Oct 02 2024 17:52:12 GMT-0500 (Central Daylight Time),232354.80000007153,124_o_f_h_a.png,O,space,1743,1,1,2201.0,230153.80000007153,7021,VNB,A,0
1,test,3,0.0,1-Back,1,m,Wed Oct 02 2024 17:52:12 GMT-0500 (Central Daylight Time),238119.40000009537,139_m_f_d_a.png,O,m,837,2,1,1867.2000000476837,236252.20000004768,7021,VNB,A,1
2,test,3,1.0,1-Back,1,m,Wed Oct 02 2024 17:52:12 GMT-0500 (Central Daylight Time),239985.0,165_m_m_n_a.png,O,m,827,3,1,1839.6999999284744,238145.30000007153,7021,VNB,A,2
3,test,3,0.0,1-Back,1,z,Wed Oct 02 2024 17:52:12 GMT-0500 (Central Daylight Time),242234.60000002384,124_o_f_n_a.png,O,z,1200,4,1,2232.0,240002.60000002384,7021,VNB,A,3
4,test,3,1.0,1-Back,1,m,Wed Oct 02 2024 17:52:12 GMT-0500 (Central Daylight Time),244084.30000007153,039_o_m_d_a.png,O,m,799,5,1,1831.0,242253.30000007153,7021,VNB,A,4
5,test,3,0.0,1-Back,1,m,Wed Oct 02 2024 17:52:12 GMT-0500 (Central Daylight Time),246382.90000009537,071_y_f_h_a.png,O,m,1253,6,1,2268.2000000476837,244114.70000004768,7021,VNB,A,5
6,test,3,0.0,1-Back,1,z,Wed Oct 02 2024 17:52:12 GMT-0500 (Central Daylight Time),248332.80000007153,109_y_m_h_a.png,O,z,925,7,1,1938.6000000238419,246394.20000004768,7021,VNB,A,6
7,test,3,0.0,1-Back,1,m,Wed Oct 02 2024 17:52:12 GMT-0500 (Central Daylight Time),250265.5,139_m_f_n_a.png,O,m,869,8,1,1897.0999999046326,248368.40000009537,7021,VNB,A,7
8,test,3,0.0,1-Back,1,m,Wed Oct 02 2024 17:52:12 GMT-0500 (Central Daylight Time),252314.90000009537,071_y_f_d_a.png,O,m,1001,9,1,2021.7000000476837,250293.20000004768,7021,VNB,A,8
9,test,3,1.0,1-Back,1,m,Wed Oct 02 2024 17:52:12 GMT-0500 (Central Daylight Time),254197.5,039_o_m_n_a.png,O,m,832,10,1,1849.5,252348.0,7021,VNB,A,9
10,test,3,0.0,1-Back,1,m,Wed Oct 02 2024 17:52:12 GMT-0500 (Central Daylight Time),256263.60000002384,165_m_m_h_a.png,O,m,1021,11,1,2038.5,254225.10000002384,7021,VNB,A,10
11,test,3,0.0,1-Back,1,z,Wed Oct 02 2024 17:52:12 GMT-0500 (Central Daylight Time),258129.5,139_m_f_h_a.png,O,z,827,12,1,1837.3999999761581,256292.10000002384,7021,VNB,A,11
12,test,3,1.0,1-Back,1,m,Wed Oct 02 2024 17:52:12 GMT-0500 (Central Daylight Time),260028.20000004768,124_o_f_d_a.png,O,m,865,13,1,1870.3999999761581,258157.80000007153,7021,VNB,A,12
13,test,3,0.0,1-Back,1,z,Wed Oct 02 2024 17:52:12 GMT-0500 (Central Daylight Time),262061.60000002384,165_m_m_d_a.png,O,z,1006,14,1,2024.2999999523163,260037.30000007153,7021,VNB,A,13
14,test,3,0.0,1-Back,1,m,Wed Oct 02 2024 17:52:12 GMT-0500 (Central Daylight Time),264044.3000000715,109_y_m_n_a.png,O,m,932,15,1,1957.2000000476837,262087.10000002384,7021,VNB,A,14
15,test,3,1.0,1-Back,1,m,Wed Oct 02 2024 17:52:12 GMT-0500 (Central Daylight Time),266010.5,039_o_m_h_a.png,O,m,909,16,1,1934.2999999523163,264076.2000000477,7021,VNB,A,15
16,test,3,0.0,1-Back,1,m,Wed Oct 02 2024 17:52:12 GMT-0500 (Central Daylight Time),267992.90000009537,109_y_m_d_a.png,O,m,944,17,1,1951.3000000715256,266041.60000002384,7021,VNB,A,16
17,test,3,1.0,1-Back,1,m,Wed Oct 02 2024 17:52:12 GMT-0500 (Central Daylight Time),270858.8000000715,071_y_f_n_a.png,O,m,1817,18,1,2836.399999976158,268022.40000009537,7021,VNB,A,17
0,test,4,1.0,1-Back,,,Wed Oct 02 2024 17:52:12 GMT-0500 (Central Daylight Time),270858.8000000715,165_m_m_d_a.png,O,space,1599,1,1,2836.399999976158,268022.40000009537,7021,VNB,A,0
1,test,4,0.0,1-Back,1,z,Wed Oct 02 2024 17:52:12 GMT-0500 (Central Daylight Time),276906.3000000715,039_o_m_d_a.png,O,z,1359,2,1,2380.8000000715256,274525.5,7021,VNB,A,1
2,test,4,0.0,1-Back,1,m,Wed Oct 02 2024 17:52:12 GMT-0500 (Central Daylight Time),278789.60000002384,109_y_m_h_a.png,O,m,856,3,1,1867.6999999284744,276921.90000009537,7021,VNB,A,2
3,test,4,0.0,1-Back,1,m,Wed Oct 02 2024 17:52:12 GMT-0500 (Central Daylight Time),280772.2000000477,139_m_f_n_a.png,O,m,933,4,1,1951.6000000238419,278820.60000002384,7021,VNB,A,3
4,test,4,1.0,1-Back,1,m,Wed Oct 02 2024 17:52:12 GMT-0500 (Central Daylight Time),282888.10000002384,124_o_f_h_a.png,O,m,1070,5,1,2086.2999999523163,280801.8000000715,7021,VNB,A,4
5,test,4,0.0,1-Back,1,m,Wed Oct 02 2024 17:52:12 GMT-0500 (Central Daylight Time),285037.40000009537,165_m_m_n_a.png,O,m,1090,6,1,2110.5,282926.90000009537,7021,VNB,A,5
6,test,4,0.0,1-Back,1,m,Wed Oct 02 2024 17:52:12 GMT-0500 (Central Daylight Time),287086.7000000477,109_y_m_d_a.png,O,m,1006,7,1,2022.1000000238419,285064.60000002384,7021,VNB,A,6
7,test,4,1.0,1-Back,1,z,Wed Oct 02 2024 17:52:12 GMT-0500 (Central Daylight Time),289186.2000000477,071_y_f_d_a.png,O,z,1035,8,1,2067.7000000476837,287118.5,7021,VNB,A,7
8,test,4,0.0,1-Back,1,m,Wed Oct 02 2024 17:52:12 GMT-0500 (Central Daylight Time),291101.5,139_m_f_h_a.png,O,m,871,9,1,1887.8999999761581,289213.60000002384,7021,VNB,A,8
9,test,4,0.0,1-Back,1,z,Wed Oct 02 2024 17:52:12 GMT-0500 (Central Daylight Time),293184.2000000477,039_o_m_h_a.png,O,z,1060,10,1,2073.0,291111.2000000477,7021,VNB,A,9
10,test,4,1.0,1-Back,1,m,Wed Oct 02 2024 17:52:12 GMT-0500 (Central Daylight Time),295084.2000000477,124_o_f_n_a.png,O,m,875,11,1,1886.8999999761581,293197.3000000715,7021,VNB,A,10
11,test,4,0.0,1-Back,1,m,Wed Oct 02 2024 17:52:12 GMT-0500 (Central Daylight Time),297117.10000002384,139_m_f_d_a.png,O,m,983,12,1,2004.6000000238419,295112.5,7021,VNB,A,11
12,test,4,0.0,1-Back,1,m,Wed Oct 02 2024 17:52:12 GMT-0500 (Central Daylight Time),299132.10000002384,071_y_f_n_a.png,O,m,956,13,1,1980.5,297151.60000002384,7021,VNB,A,12
13,test,4,0.0,1-Back,1,m,Wed Oct 02 2024 17:52:12 GMT-0500 (Central Daylight Time),301265.0,124_o_f_d_a.png,O,m,1109,14,1,2123.5,299141.5,7021,VNB,A,13
14,test,4,0.0,1-Back,1,m,Wed Oct 02 2024 17:52:12 GMT-0500 (Central Daylight Time),303198.10000002384,071_y_f_h_a.png,O,m,889,15,1,1911.6000000238419,301286.5,7021,VNB,A,14
15,test,4,1.0,1-Back,1,z,Wed Oct 02 2024 17:52:12 GMT-0500 (Central Daylight Time),305230.7000000477,165_m_m_h_a.png,O,z,981,16,1,1998.3999999761581,303232.3000000715,7021,VNB,A,15
16,test,4,0.0,1-Back,1,m,Wed Oct 02 2024 17:52:12 GMT-0500 (Central Daylight Time),307046.90000009537,039_o_m_n_a.png,O,m,772,17,1,1790.9000000953674,305256.0,7021,VNB,A,16
17,test,4,1.0,1-Back,1,z,Wed Oct 02 2024 17:52:12 GMT-0500 (Central Daylight Time),309112.3000000715,109_y_m_n_a.png,O,z,1027,18,1,2034.5,307077.8000000715,7021,VNB,A,17
0,test,5,1.0,1-Back,,,Wed Oct 02 2024 17:52:12 GMT-0500 (Central Daylight Time),309112.3000000715,039_o_m_n_a.png,O,space,1612,1,1,2034.5,307077.8000000715,7021,VNB,A,0
1,test,5,1.0,1-Back,1,m,Wed Oct 02 2024 17:52:12 GMT-0500 (Central Daylight Time),314794.3000000715,124_o_f_h_a.png,O,m,984,2,1,2012.7000000476837,312781.60000002384,7021,VNB,A,1
2,test,5,0.0,1-Back,1,m,Wed Oct 02 2024 17:52:12 GMT-0500 (Central Daylight Time),316843.7000000477,109_y_m_d_a.png,O,m,1000,3,1,2019.0,314824.7000000477,7021,VNB,A,2
3,test,5,0.0,1-Back,1,z,Wed Oct 02 2024 17:52:12 GMT-0500 (Central Daylight Time),318675.8000000715,039_o_m_d_a.png,O,z,790,4,1,1806.5,316869.3000000715,7021,VNB,A,3
4,test,5,0.0,1-Back,1,m,Wed Oct 02 2024 17:52:12 GMT-0500 (Central Daylight Time),320575.5,139_m_f_h_a.png,O,m,880,5,1,1887.7999999523163,318687.7000000477,7021,VNB,A,4
5,test,5,0.0,1-Back,1,m,Wed Oct 02 2024 17:52:12 GMT-0500 (Central Daylight Time),322991.90000009537,071_y_f_n_a.png,O,m,1362,6,1,2382.7000000476837,320609.2000000477,7021,VNB,A,5
6,test,5,1.0,1-Back,1,z,Wed Oct 02 2024 17:52:12 GMT-0500 (Central Daylight Time),325025.8000000715,124_o_f_n_a.png,O,z,986,7,1,2008.3999999761581,323017.40000009537,7021,VNB,A,6
7,test,5,0.0,1-Back,1,m,Wed Oct 02 2024 17:52:12 GMT-0500 (Central Daylight Time),327023.40000009537,139_m_f_d_a.png,O,m,954,8,1,1969.8000000715256,325053.60000002384,7021,VNB,A,7
8,test,5,0.0,1-Back,1,m,Wed Oct 02 2024 17:52:12 GMT-0500 (Central Daylight Time),328973.10000002384,109_y_m_h_a.png,O,m,915,9,1,1924.3999999761581,327048.7000000477,7021,VNB,A,8
9,test,5,0.0,1-Back,1,m,Wed Oct 02 2024 17:52:12 GMT-0500 (Central Daylight Time),331055.60000002384,071_y_f_d_a.png,O,m,1021,10,1,2049.2999999523163,329006.3000000715,7021,VNB,A,9
10,test,5,0.0,1-Back,1,m,Wed Oct 02 2024 17:52:12 GMT-0500 (Central Daylight Time),334054.60000002384,165_m_m_n_a.png,O,m,1963,11,1,2971.100000023842,331083.5,7021,VNB,A,10
11,test,5,1.0,1-Back,1,z,Wed Oct 02 2024 17:52:12 GMT-0500 (Central Daylight Time),336120.7000000477,139_m_f_n_a.png,O,z,1028,12,1,2036.1000000238419,334084.60000002384,7021,VNB,A,11
12,test,5,0.0,1-Back,1,m,Wed Oct 02 2024 17:52:12 GMT-0500 (Central Daylight Time),337953.40000009537,039_o_m_h_a.png,O,m,794,13,1,1801.4000000953674,336152.0,7021,VNB,A,12
13,test,5,0.0,1-Back,1,z,Wed Oct 02 2024 17:52:12 GMT-0500 (Central Daylight Time),340036.0,165_m_m_h_a.png,O,z,1041,14,1,2054.0,337982.0,7021,VNB,A,13
14,test,5,1.0,1-Back,1,m,Wed Oct 02 2024 17:52:12 GMT-0500 (Central Daylight Time),341968.3000000715,124_o_f_d_a.png,O,m,886,15,1,1908.3999999761581,340059.90000009537,7021,VNB,A,14
15,test,5,0.0,1-Back,1,m,Wed Oct 02 2024 17:52:12 GMT-0500 (Central Daylight Time),343951.5,109_y_m_n_a.png,O,m,946,16,1,1965.1999999284744,341986.3000000715,7021,VNB,A,15
16,test,5,0.0,1-Back,1,m,Wed Oct 02 2024 17:52:12 GMT-0500 (Central Daylight Time),346100.60000002384,071_y_f_h_a.png,O,m,1107,17,1,2118.100000023842,343982.5,7021,VNB,A,16
17,test,5,0.0,1-Back,1,m,Wed Oct 02 2024 17:52:12 GMT-0500 (Central Daylight Time),348083.40000009537,165_m_m_d_a.png,O,m,942,18,1,1955.9000000953674,346127.5,7021,VNB,A,17
0,prac,1,0.0,2-Back,,,Wed Oct 02 2024 17:52:12 GMT-0500 (Central Daylight Time),348083.40000009537,139_m_f_n_a.png,O,space,9972,1,1,1955.9000000953674,346127.5,7021,VNB,A,0
0,prac,1,0.0,2-Back,,,Wed Oct 02 2024 17:52:12 GMT-0500 (Central Daylight Time),348083.40000009537,124_o_f_h_a.png,O,space,9972,2,1,1955.9000000953674,346127.5,7021,VNB,A,0
1,prac,1,0.0,2-Back,1,m,Wed Oct 02 2024 17:52:12 GMT-0500 (Central Daylight Time),447583.8000000715,039_o_m_d_a.png,O,m,1139,3,1,1984.8999999761581,445598.90000009537,7021,VNB,A,1
2,prac,1,1.0,2-Back,1,z,Wed Oct 02 2024 17:52:12 GMT-0500 (Central Daylight Time),449449.7000000477,165_m_m_h_a.png,O,z,1007,4,1,1849.2999999523163,447600.40000009537,7021,VNB,A,2
3,prac,1,0.0,2-Back,1,m,Wed Oct 02 2024 17:52:12 GMT-0500 (Central Daylight Time),451349.60000002384,071_y_f_n_a.png,O,m,1044,5,1,1886.3999999761581,449463.2000000477,7021,VNB,A,3
4,prac,1,1.0,2-Back,1,z,Wed Oct 02 2024 17:52:12 GMT-0500 (Central Daylight Time),453548.2000000477,039_o_m_h_a.png,O,z,1314,6,1,2160.5,451387.7000000477,7021,VNB,A,4
4,prac,1,1.0,2-Back,0,z,Wed Oct 02 2024 17:52:12 GMT-0500 (Central Daylight Time),455414.90000009537,109_y_m_n_a.png,O,m,968,7,1,1854.6000000238419,453560.3000000715,7021,VNB,A,5
5,prac,1,0.0,2-Back,1,m,Wed Oct 02 2024 17:52:12 GMT-0500 (Central Daylight Time),457464.3000000715,139_m_f_d_a.png,O,m,1166,8,1,2023.0,455441.3000000715,7021,VNB,A,6
6,prac,1,0.0,2-Back,1,m,Wed Oct 02 2024 17:52:12 GMT-0500 (Central Daylight Time),459996.8000000715,124_o_f_d_a.png,O,m,1522,9,1,2491.600000023842,457505.2000000477,7021,VNB,A,7
7,prac,1,0.0,2-Back,1,m,Wed Oct 02 2024 17:52:12 GMT-0500 (Central Daylight Time),462246.0,165_m_m_h_a.png,O,m,1218,10,1,2218.6999999284744,460027.3000000715,7021,VNB,A,8
8,prac,1,1.0,2-Back,1,z,Wed Oct 02 2024 17:52:12 GMT-0500 (Central Daylight Time),464344.8000000715,071_y_f_d_a.png,O,z,1221,11,1,2068.100000023842,462276.7000000477,7021,VNB,A,9
9,prac,1,0.0,2-Back,1,m,Wed Oct 02 2024 17:52:12 GMT-0500 (Central Daylight Time),467127.8000000715,039_o_m_n_a.png,O,m,1876,12,1,2769.3000000715256,464358.5,7021,VNB,A,10
0,test,1,0.0,2-Back,,,Wed Oct 02 2024 17:52:12 GMT-0500 (Central Daylight Time),467127.8000000715,109_y_m_h_a.png,O,space,11131,1,1,2769.3000000715256,464358.5,7021,VNB,A,0
0,test,1,0.0,2-Back,,,Wed Oct 02 2024 17:52:12 GMT-0500 (Central Daylight Time),467127.8000000715,124_o_f_n_a.png,O,space,11131,2,1,2769.3000000715256,464358.5,7021,VNB,A,0
1,test,1,0.0,2-Back,1,z,Wed Oct 02 2024 17:52:12 GMT-0500 (Central Daylight Time),492402.3000000715,039_o_m_h_a.png,O,z,1167,3,1,2196.2000000476837,490206.10000002384,7021,VNB,A,1
2,test,1,0.0,2-Back,1,m,Wed Oct 02 2024 17:52:12 GMT-0500 (Central Daylight Time),494352.0,139_m_f_d_a.png,O,m,921,4,1,1937.5,492414.5,7021,VNB,A,2
3,test,1,1.0,2-Back,1,m,Wed Oct 02 2024 17:52:12 GMT-0500 (Central Daylight Time),496934.5,109_y_m_n_a.png,O,m,1539,5,1,2554.2999999523163,494380.2000000477,7021,VNB,A,3
4,test,1,0.0,2-Back,1,z,Wed Oct 02 2024 17:52:12 GMT-0500 (Central Daylight Time),498950.5,071_y_f_d_a.png,O,z,980,6,1,1987.6999999284744,496962.8000000715,7021,VNB,A,4
5,test,1,0.0,2-Back,1,m,Wed Oct 02 2024 17:52:12 GMT-0500 (Central Daylight Time),501465.8000000715,165_m_m_h_a.png,O,m,1450,7,1,2482.8000000715256,498983.0,7021,VNB,A,5
6,test,1,1.0,2-Back,1,m,Wed Oct 02 2024 17:52:12 GMT-0500 (Central Daylight Time),503798.5,071_y_f_n_a.png,O,m,1288,8,1,2310.5999999046326,501487.90000009537,7021,VNB,A,6
7,test,1,0.0,2-Back,1,z,Wed Oct 02 2024 17:52:12 GMT-0500 (Central Daylight Time),505631.60000002384,124_o_f_h_a.png,O,z,804,9,1,1818.6000000238419,503813.0,7021,VNB,A,7
8,test,1,0.0,2-Back,1,m,Wed Oct 02 2024 17:52:12 GMT-0500 (Central Daylight Time),507630.8000000715,039_o_m_d_a.png,O,m,955,10,1,1970.2000000476837,505660.60000002384,7021,VNB,A,8
9,test,1,1.0,2-Back,1,m,Wed Oct 02 2024 17:52:12 GMT-0500 (Central Daylight Time),509980.10000002384,165_m_m_d_a.png,O,m,1300,11,1,2327.7999999523163,507652.3000000715,7021,VNB,A,9
10,test,1,0.0,2-Back,1,m,Wed Oct 02 2024 17:52:12 GMT-0500 (Central Daylight Time),512195.90000009537,139_m_f_n_a.png,O,m,1167,12,1,2189.7000000476837,510006.2000000477,7021,VNB,A,10
11,test,1,0.0,2-Back,1,m,Wed Oct 02 2024 17:52:12 GMT-0500 (Central Daylight Time),514295.60000002384,071_y_f_h_a.png,O,m,1062,13,1,2068.2999999523163,512227.3000000715,7021,VNB,A,11
12,test,1,0.0,2-Back,1,z,Wed Oct 02 2024 17:52:12 GMT-0500 (Central Daylight Time),516311.40000009537,165_m_m_n_a.png,O,z,979,14,1,1984.3000000715256,514327.10000002384,7021,VNB,A,12
13,test,1,0.0,2-Back,1,m,Wed Oct 02 2024 17:52:12 GMT-0500 (Central Daylight Time),518343.8000000715,109_y_m_d_a.png,O,m,987,15,1,2003.7000000476837,516340.10000002384,7021,VNB,A,13
14,test,1,1.0,2-Back,1,m,Wed Oct 02 2024 17:52:12 GMT-0500 (Central Daylight Time),520959.90000009537,139_m_f_h_a.png,O,m,1578,16,1,2595.7000000476837,518364.2000000477,7021,VNB,A,14
15,test,1,0.0,2-Back,1,z,Wed Oct 02 2024 17:52:12 GMT-0500 (Central Daylight Time),522942.5,124_o_f_d_a.png,O,z,938,17,1,1956.7999999523163,520985.7000000477,7021,VNB,A,15
16,test,1,0.0,2-Back,1,m,Wed Oct 02 2024 17:52:12 GMT-0500 (Central Daylight Time),525008.0,039_o_m_n_a.png,O,m,1019,18,1,2039.2999999523163,522968.7000000477,7021,VNB,A,16
0,test,2,0.0,2-Back,,,Wed Oct 02 2024 17:52:12 GMT-0500 (Central Daylight Time),525008.0,165_m_m_h_a.png,O,space,1554,1,1,2039.2999999523163,522968.7000000477,7021,VNB,A,0
0,test,2,0.0,2-Back,,,Wed Oct 02 2024 17:52:12 GMT-0500 (Central Daylight Time),525008.0,071_y_f_n_a.png,O,space,1554,2,1,2039.2999999523163,522968.7000000477,7021,VNB,A,0
1,test,2,1.0,2-Back,1,z,Wed Oct 02 2024 17:52:12 GMT-0500 (Central Daylight Time),533688.7000000477,124_o_f_h_a.png,O,z,961,3,1,1981.2999999523163,531707.4000000954,7021,VNB,A,1
2,test,2,0.0,2-Back,1,m,Wed Oct 02 2024 17:52:12 GMT-0500 (Central Daylight Time),535755.2000000477,039_o_m_d_a.png,O,m,1018,4,1,2050.2000000476837,533705.0,7021,VNB,A,2
3,test,2,0.0,2-Back,1,m,Wed Oct 02 2024 17:52:12 GMT-0500 (Central Daylight Time),537904.4000000954,139_m_f_d_a.png,O,m,1087,5,1,2111.100000023842,535793.3000000715,7021,VNB,A,3
4,test,2,0.0,2-Back,1,m,Wed Oct 02 2024 17:52:12 GMT-0500 (Central Daylight Time),540270.4000000954,109_y_m_h_a.png,O,m,1323,6,1,2334.8000000715256,537935.6000000238,7021,VNB,A,4
5,test,2,0.0,2-Back,1,m,Wed Oct 02 2024 17:52:12 GMT-0500 (Central Daylight Time),542302.9000000954,124_o_f_n_a.png,O,m,972,7,1,1999.9000000953674,540303.0,7021,VNB,A,5
6,test,2,1.0,2-Back,1,z,Wed Oct 02 2024 17:52:12 GMT-0500 (Central Daylight Time),544285.6000000238,039_o_m_h_a.png,O,z,925,8,1,1947.1000000238419,542338.5,7021,VNB,A,6
7,test,2,0.0,2-Back,1,m,Wed Oct 02 2024 17:52:12 GMT-0500 (Central Daylight Time),546318.2000000477,071_y_f_d_a.png,O,m,972,9,1,1995.3999999761581,544322.8000000715,7021,VNB,A,7
8,test,2,0.0,2-Back,1,m,Wed Oct 02 2024 17:52:12 GMT-0500 (Central Daylight Time),548533.9000000954,109_y_m_d_a.png,O,m,1173,10,1,2193.7000000476837,546340.2000000477,7021,VNB,A,8
9,test,2,0.0,2-Back,1,m,Wed Oct 02 2024 17:52:12 GMT-0500 (Central Daylight Time),550783.5,165_m_m_n_a.png,O,m,1212,11,1,2233.2999999523163,548550.2000000477,7021,VNB,A,9
10,test,2,0.0,2-Back,1,m,Wed Oct 02 2024 17:52:12 GMT-0500 (Central Daylight Time),552665.9000000954,139_m_f_h_a.png,O,m,844,12,1,1858.6000000238419,550807.3000000715,7021,VNB,A,10
11,test,2,1.0,2-Back,1,z,Wed Oct 02 2024 17:52:12 GMT-0500 (Central Daylight Time),554715.1000000238,039_o_m_n_a.png,O,z,1008,13,1,2027.6999999284744,552687.4000000954,7021,VNB,A,11
12,test,2,0.0,2-Back,1,m,Wed Oct 02 2024 17:52:12 GMT-0500 (Central Daylight Time),556781.2000000477,124_o_f_d_a.png,O,m,1032,14,1,2049.899999976158,554731.3000000715,7021,VNB,A,12
13,test,2,0.0,2-Back,1,m,Wed Oct 02 2024 17:52:12 GMT-0500 (Central Daylight Time),559164.1000000238,071_y_f_h_a.png,O,m,1333,15,1,2355.6999999284744,556808.4000000954,7021,VNB,A,13
14,test,2,0.0,2-Back,1,z,Wed Oct 02 2024 17:52:12 GMT-0500 (Central Daylight Time),561096.8000000715,165_m_m_d_a.png,O,z,870,16,1,1896.1000000238419,559200.7000000477,7021,VNB,A,14
15,test,2,0.0,2-Back,1,m,Wed Oct 02 2024 17:52:12 GMT-0500 (Central Daylight Time),563079.3000000715,109_y_m_n_a.png,O,m,938,17,1,1954.8000000715256,561124.5,7021,VNB,A,15
16,test,2,1.0,2-Back,1,m,Wed Oct 02 2024 17:52:12 GMT-0500 (Central Daylight Time),565229.3000000715,139_m_f_n_a.png,O,m,1116,18,1,2124.100000023842,563105.2000000477,7021,VNB,A,16
0,test,3,1.0,2-Back,,,Wed Oct 02 2024 17:52:12 GMT-0500 (Central Daylight Time),565229.3000000715,039_o_m_n_a.png,O,space,1565,1,1,2124.100000023842,563105.2000000477,7021,VNB,A,0
0,test,3,1.0,2-Back,,,Wed Oct 02 2024 17:52:12 GMT-0500 (Central Daylight Time),565229.3000000715,124_o_f_d_a.png,O,space,1565,2,1,2124.100000023842,563105.2000000477,7021,VNB,A,0
1,test,3,0.0,2-Back,1,m,Wed Oct 02 2024 17:52:12 GMT-0500 (Central Daylight Time),574159.3000000715,071_y_f_h_a.png,O,m,1040,3,1,2062.8000000715256,572096.5,7021,VNB,A,1
2,test,3,0.0,2-Back,1,z,Wed Oct 02 2024 17:52:12 GMT-0500 (Central Daylight Time),576058.6000000238,139_m_f_d_a.png,O,z,862,4,1,1868.6000000238419,574190.0,7021,VNB,A,2
3,test,3,1.0,2-Back,1,m,Wed Oct 02 2024 17:52:12 GMT-0500 (Central Daylight Time),578074.6000000238,109_y_m_n_a.png,O,m,969,5,1,1987.3999999761581,576087.2000000477,7021,VNB,A,3
4,test,3,0.0,2-Back,1,m,Wed Oct 02 2024 17:52:12 GMT-0500 (Central Daylight Time),580207.1000000238,039_o_m_h_a.png,O,m,1071,6,1,2098.2999999523163,578108.8000000715,7021,VNB,A,4
5,test,3,0.0,2-Back,1,z,Wed Oct 02 2024 17:52:12 GMT-0500 (Central Daylight Time),582289.9000000954,071_y_f_n_a.png,O,z,1026,7,1,2047.8000000715256,580242.1000000238,7021,VNB,A,5
6,test,3,1.0,2-Back,1,m,Wed Oct 02 2024 17:52:12 GMT-0500 (Central Daylight Time),584472.4000000954,165_m_m_d_a.png,O,m,1122,8,1,2150.8000000715256,582321.6000000238,7021,VNB,A,6
7,test,3,0.0,2-Back,1,m,Wed Oct 02 2024 17:52:12 GMT-0500 (Central Daylight Time),586622.0,109_y_m_d_a.png,O,m,1075,9,1,2087.899999976158,584534.1000000238,7021,VNB,A,7
8,test,3,0.0,2-Back,1,m,Wed Oct 02 2024 17:52:12 GMT-0500 (Central Daylight Time),588837.5,124_o_f_h_a.png,O,m,1174,10,1,2185.0,586652.5,7021,VNB,A,8
9,test,3,1.0,2-Back,1,m,Wed Oct 02 2024 17:52:12 GMT-0500 (Central Daylight Time),590870.3000000715,139_m_f_n_a.png,O,m,981,11,1,1991.0,588879.3000000715,7021,VNB,A,9
10,test,3,1.0,2-Back,1,z,Wed Oct 02 2024 17:52:12 GMT-0500 (Central Daylight Time),592769.7000000477,165_m_m_h_a.png,O,z,852,12,1,1870.1000000238419,590899.6000000238,7021,VNB,A,10
11,test,3,0.0,2-Back,1,m,Wed Oct 02 2024 17:52:12 GMT-0500 (Central Daylight Time),594785.0,071_y_f_d_a.png,O,m,959,13,1,1981.7999999523163,592803.2000000477,7021,VNB,A,11
12,test,3,0.0,2-Back,1,m,Wed Oct 02 2024 17:52:12 GMT-0500 (Central Daylight Time),596884.5,124_o_f_n_a.png,O,m,1072,14,1,2089.899999976158,594794.6000000238,7021,VNB,A,12
13,test,3,0.0,2-Back,1,z,Wed Oct 02 2024 17:52:12 GMT-0500 (Central Daylight Time),599017.2000000477,039_o_m_d_a.png,O,z,1109,15,1,2120.7000000476837,596896.5,7021,VNB,A,13
14,test,3,1.0,2-Back,1,m,Wed Oct 02 2024 17:52:12 GMT-0500 (Central Daylight Time),601000.1000000238,139_m_f_h_a.png,O,m,962,16,1,1968.3999999761581,599031.7000000477,7021,VNB,A,14
15,test,3,0.0,2-Back,1,m,Wed Oct 02 2024 17:52:12 GMT-0500 (Central Daylight Time),603149.3000000715,165_m_m_n_a.png,O,m,1115,17,1,2126.5,601022.8000000715,7021,VNB,A,15
16,test,3,0.0,2-Back,1,z,Wed Oct 02 2024 17:52:12 GMT-0500 (Central Daylight Time),604965.5,109_y_m_h_a.png,O,z,756,18,1,1782.8999999761581,603182.6000000238,7021,VNB,A,16
0,test,4,0.0,2-Back,,,Wed Oct 02 2024 17:52:12 GMT-0500 (Central Daylight Time),604965.5,139_m_f_n_a.png,O,space,1694,1,1,1782.8999999761581,603182.6000000238,7021,VNB,A,0
0,test,4,0.0,2-Back,,,Wed Oct 02 2024 17:52:12 GMT-0500 (Central Daylight Time),604965.5,039_o_m_n_a.png,O,space,1694,2,1,1782.8999999761581,603182.6000000238,7021,VNB,A,0
1,test,4,1.0,2-Back,1,m,Wed Oct 02 2024 17:52:12 GMT-0500 (Central Daylight Time),613962.3000000715,109_y_m_h_a.png,O,m,1118,3,1,2138.7000000476837,611823.6000000238,7021,VNB,A,1
2,test,4,1.0,2-Back,1,m,Wed Oct 02 2024 17:52:12 GMT-0500 (Central Daylight Time),615995.4000000954,124_o_f_d_a.png,O,m,977,4,1,1994.3000000715256,614001.1000000238,7021,VNB,A,2
3,test,4,0.0,2-Back,1,z,Wed Oct 02 2024 17:52:12 GMT-0500 (Central Daylight Time),617844.8000000715,039_o_m_h_a.png,O,z,767,5,1,1797.2000000476837,616047.6000000238,7021,VNB,A,3
4,test,4,0.0,2-Back,1,m,Wed Oct 02 2024 17:52:12 GMT-0500 (Central Daylight Time),619977.4000000954,165_m_m_n_a.png,O,m,1094,6,1,2105.0,617872.4000000954,7021,VNB,A,4
5,test,4,0.0,2-Back,1,m,Wed Oct 02 2024 17:52:12 GMT-0500 (Central Daylight Time),622076.8000000715,139_m_f_d_a.png,O,m,1050,7,1,2073.5,620003.3000000715,7021,VNB,A,5
6,test,4,0.0,2-Back,1,z,Wed Oct 02 2024 17:52:12 GMT-0500 (Central Daylight Time),624359.6000000238,071_y_f_n_a.png,O,z,1225,8,1,2256.2999999523163,622103.3000000715,7021,VNB,A,6
7,test,4,1.0,2-Back,1,m,Wed Oct 02 2024 17:52:12 GMT-0500 (Central Daylight Time),626425.2000000477,124_o_f_h_a.png,O,m,1019,9,1,2036.2000000476837,624389.0,7021,VNB,A,7
8,test,4,0.0,2-Back,1,m,Wed Oct 02 2024 17:52:12 GMT-0500 (Central Daylight Time),628641.3000000715,165_m_m_h_a.png,O,m,1177,10,1,2189.899999976158,626451.4000000954,7021,VNB,A,8
8,test,4,0.0,2-Back,0,m,Wed Oct 02 2024 17:52:12 GMT-0500 (Central Daylight Time),630707.0,071_y_f_d_a.png,O,z,1001,11,1,2027.5,628679.5,7021,VNB,A,9
9,test,4,0.0,2-Back,1,m,Wed Oct 02 2024 17:52:12 GMT-0500 (Central Daylight Time),633622.9000000954,109_y_m_n_a.png,O,m,1872,12,1,2894.2000000476837,630728.7000000477,7021,VNB,A,10
10,test,4,0.0,2-Back,1,z,Wed Oct 02 2024 17:52:12 GMT-0500 (Central Daylight Time),636071.5,039_o_m_d_a.png,O,z,1394,13,1,2410.1999999284744,633661.3000000715,7021,VNB,A,11
11,test,4,1.0,2-Back,1,m,Wed Oct 02 2024 17:52:12 GMT-0500 (Central Daylight Time),638038.2000000477,139_m_f_h_a.png,O,m,948,14,1,1955.1000000238419,636083.1000000238,7021,VNB,A,12
12,test,4,1.0,2-Back,1,m,Wed Oct 02 2024 17:52:12 GMT-0500 (Central Daylight Time),640037.2000000477,071_y_f_h_a.png,O,m,938,15,1,1965.7000000476837,638071.5,7021,VNB,A,13
13,test,4,0.0,2-Back,1,m,Wed Oct 02 2024 17:52:12 GMT-0500 (Central Daylight Time),642353.0,124_o_f_n_a.png,O,m,1252,16,1,2279.0,640074.0,7021,VNB,A,14
14,test,4,0.0,2-Back,1,m,Wed Oct 02 2024 17:52:12 GMT-0500 (Central Daylight Time),644402.4000000954,109_y_m_d_a.png,O,m,1001,17,1,2033.2000000476837,642369.2000000477,7021,VNB,A,15
15,test,4,1.0,2-Back,1,m,Wed Oct 02 2024 17:52:12 GMT-0500 (Central Daylight Time),646468.7000000477,165_m_m_d_a.png,O,m,1017,18,1,2044.7999999523163,644423.9000000954,7021,VNB,A,16
0,test,5,1.0,2-Back,,,Wed Oct 02 2024 17:52:12 GMT-0500 (Central Daylight Time),646468.7000000477,071_y_f_d_a.png,O,space,1486,1,1,2044.7999999523163,644423.9000000954,7021,VNB,A,0
0,test,5,1.0,2-Back,,,Wed Oct 02 2024 17:52:12 GMT-0500 (Central Daylight Time),646468.7000000477,124_o_f_h_a.png,O,space,1486,2,1,2044.7999999523163,644423.9000000954,7021,VNB,A,0
1,test,5,1.0,2-Back,1,z,Wed Oct 02 2024 17:52:12 GMT-0500 (Central Daylight Time),655632.5,039_o_m_d_a.png,O,z,1545,3,1,2555.0,653077.5,7021,VNB,A,1
2,test,5,1.0,2-Back,1,m,Wed Oct 02 2024 17:52:12 GMT-0500 (Central Daylight Time),657731.6000000238,139_m_f_n_a.png,O,m,1059,4,1,2072.100000023842,655659.5,7021,VNB,A,2
3,test,5,0.0,2-Back,1,m,Wed Oct 02 2024 17:52:12 GMT-0500 (Central Daylight Time),659964.3000000715,165_m_m_h_a.png,O,m,1183,5,1,2205.0,657759.3000000715,7021,VNB,A,3
3,test,5,0.0,2-Back,0,z,Wed Oct 02 2024 17:52:12 GMT-0500 (Central Daylight Time),663030.4000000954,071_y_f_n_a.png,O,None,2015,6,1,3031.9000000953674,659998.5,7021,VNB,A,4
4,test,5,0.0,2-Back,1,m,Wed Oct 02 2024 17:52:12 GMT-0500 (Central Daylight Time),665345.8000000715,124_o_f_d_a.png,O,m,1252,7,1,2283.3000000715256,663062.5,7021,VNB,A,5
4,test,5,0.0,2-Back,0,m,Wed Oct 02 2024 17:52:12 GMT-0500 (Central Daylight Time),667195.4000000954,039_o_m_h_a.png,O,z,800,8,1,1819.9000000953674,665375.5,7021,VNB,A,6
5,test,5,1.0,2-Back,1,z,Wed Oct 02 2024 17:52:12 GMT-0500 (Central Daylight Time),669344.5,139_m_f_d_a.png,O,z,1088,9,1,2112.5999999046326,667231.9000000954,7021,VNB,A,7
6,test,5,0.0,2-Back,1,m,Wed Oct 02 2024 17:52:12 GMT-0500 (Central Daylight Time),671327.2000000477,109_y_m_n_a.png,O,m,922,10,1,1949.1000000238419,669378.1000000238,7021,VNB,A,8
7,test,5,0.0,2-Back,1,m,Wed Oct 02 2024 17:52:12 GMT-0500 (Central Daylight Time),673443.2000000477,165_m_m_n_a.png,O,m,1050,11,1,2082.7999999523163,671360.4000000954,7021,VNB,A,9
8,test,5,0.0,2-Back,1,m,Wed Oct 02 2024 17:52:12 GMT-0500 (Central Daylight Time),675592.4000000954,071_y_f_h_a.png,O,m,1103,12,1,2118.8000000715256,673473.6000000238,7021,VNB,A,10
9,test,5,0.0,2-Back,1,m,Wed Oct 02 2024 17:52:12 GMT-0500 (Central Daylight Time),677608.5,109_y_m_d_a.png,O,m,961,13,1,1976.8999999761581,675631.6000000238,7021,VNB,A,11
10,test,5,1.0,2-Back,1,z,Wed Oct 02 2024 17:52:12 GMT-0500 (Central Daylight Time),679524.4000000954,139_m_f_h_a.png,O,z,858,14,1,1882.5,677641.9000000954,7021,VNB,A,12
11,test,5,0.0,2-Back,1,m,Wed Oct 02 2024 17:52:12 GMT-0500 (Central Daylight Time),681390.6000000238,039_o_m_n_a.png,O,m,805,15,1,1827.7999999523163,679562.8000000715,7021,VNB,A,13
12,test,5,0.0,2-Back,1,m,Wed Oct 02 2024 17:52:12 GMT-0500 (Central Daylight Time),683406.5,165_m_m_d_a.png,O,m,981,16,1,1984.3999999761581,681422.1000000238,7021,VNB,A,14
13,test,5,0.0,2-Back,1,z,Wed Oct 02 2024 17:52:12 GMT-0500 (Central Daylight Time),685372.6000000238,124_o_f_n_a.png,O,z,905,17,1,1937.7999999523163,683434.8000000715,7021,VNB,A,15
14,test,5,1.0,2-Back,1,m,Wed Oct 02 2024 17:52:12 GMT-0500 (Central Daylight Time),687388.1000000238,109_y_m_h_a.png,O,m,964,18,1,1983.0,685405.1000000238,7021,VNB,A,16
