Q,Q1,Q2,Q3,Q4,acc_sum,block,block_c,correct,correct_response,datetime,endtime,project,response,response_time,row_sel,session_number,squiggle1,squiggle1x,squiggle1y,squiggle2,squiggle2x,squiggle2y,squiggle3,squiggle3x,squiggle3y,squiggle4,squiggle4x,squiggle4y,start_end,starttime,subject_id,target_congruent,task,task_vers,testsquiggle,testsquigglex,testsquiggley,time_practice_delay,time_practice_fixation,time_practice_stimuli,time_practice_study,time_test_delay,time_test_fixation,time_test_stimuli,time_test_study,trial
1,1,0,0,0,0,prac,1,0,z,Thu Apr 03 2025 14:45:35 GMT-0500 (Central Daylight Time),146892.5,O,None,2015,1,1,116.bmp,-120,-120,117.bmp,120,-120,118.bmp,-120,120,119.bmp,120,120,10825.399999976158,136067.10000002384,7113,yes,SM,A,116.bmp,-120,-120,133529,127502,135546,129514,,,,,1
3,0,0,1,0,1,prac,1,1,m,Thu Apr 03 2025 14:45:35 GMT-0500 (Central Daylight Time),157140.0,O,m,1433,2,1,120.bmp,-120,-120,121.bmp,120,-120,122.bmp,-120,120,123.bmp,120,120,10242.699999988079,146897.30000001192,7113,no,SM,A,123.bmp,-120,120,144359,138333,146375,140344,,,,,2
4,0,0,0,1,2,prac,1,1,m,Thu Apr 03 2025 14:45:35 GMT-0500 (Central Daylight Time),167285.80000001192,O,m,1310,3,1,124.bmp,-120,-120,125.bmp,120,-120,126.bmp,-120,120,127.bmp,120,120,10128.5,157157.30000001192,7113,no,SM,A,124.bmp,120,120,154623,148593,156640,150609,,,,,3
2,0,1,0,0,3,prac,1,1,z,Thu Apr 03 2025 14:45:35 GMT-0500 (Central Daylight Time),177666.80000001192,O,z,1548,4,1,128.bmp,-120,-120,129.bmp,120,-120,130.bmp,-120,120,131.bmp,120,120,10376.5,167290.30000001192,7113,yes,SM,A,129.bmp,120,-120,164753,158726,166771,160737,,,,,4
3,0,0,1,0,4,prac,1,1,z,Thu Apr 03 2025 14:45:35 GMT-0500 (Central Daylight Time),187846.60000002384,O,z,1345,5,1,132.bmp,-120,-120,133.bmp,120,-120,134.bmp,-120,120,135.bmp,120,120,10162.899999976158,177683.70000004768,7113,yes,SM,A,134.bmp,-120,120,175150,169120,177167,171136,,,,,5
1,1,0,0,0,5,prac,1,1,m,Thu Apr 03 2025 14:45:35 GMT-0500 (Central Daylight Time),198593.10000002384,O,m,1909,6,1,136.bmp,-120,-120,137.bmp,120,-120,138.bmp,-120,120,139.bmp,120,120,10729.899999976158,187863.20000004768,7113,no,SM,A,139.bmp,-120,-120,185330,179299,187347,181316,,,,,6
2,0,1,0,0,6,prac,1,1,m,Thu Apr 03 2025 14:45:35 GMT-0500 (Central Daylight Time),209273.30000001192,O,m,1833,7,1,140.bmp,-120,-120,141.bmp,120,-120,142.bmp,-120,120,143.bmp,120,120,10664.399999976158,198608.90000003576,7113,no,SM,A,140.bmp,120,-120,196076,190045,198094,192060,,,,,7
4,0,0,0,1,7,prac,1,1,z,Thu Apr 03 2025 14:45:35 GMT-0500 (Central Daylight Time),219703.0,O,z,1611,8,1,144.bmp,-120,-120,145.bmp,120,-120,146.bmp,-120,120,147.bmp,120,120,10415.299999952316,209287.70000004768,7113,yes,SM,A,147.bmp,120,120,206739,200724,208757,202726,,,,,8
4,0,0,0,1,1,test,1,1,m,Thu Apr 03 2025 14:45:35 GMT-0500 (Central Daylight Time),241362.40000003576,O,m,1842,1,1,148.bmp,-120,-120,149.bmp,120,-120,150.bmp,-120,120,143.bmp,120,120,9884.300000011921,231478.10000002384,7113,no,SM,A,150.bmp,120,120,206739,200724,208757,202726,228932.0,222914.0,230950.0,224918.0,1
2,0,1,0,0,2,test,1,1,m,Thu Apr 03 2025 14:45:35 GMT-0500 (Central Daylight Time),251092.5,O,m,1666,2,1,101.bmp,-120,-120,102.bmp,120,-120,103.bmp,-120,120,104.bmp,120,120,9716.799999952316,241375.70000004768,7113,no,SM,A,103.bmp,120,-120,206739,200724,208757,202726,238829.0,232811.0,240846.0,234814.0,2
1,1,0,0,0,3,test,1,1,z,Thu Apr 03 2025 14:45:35 GMT-0500 (Central Daylight Time),260871.70000004768,O,z,1726,3,1,105.bmp,-120,-120,106.bmp,120,-120,107.bmp,-120,120,108.bmp,120,120,9771.600000023842,251100.10000002384,7113,yes,SM,A,105.bmp,-120,-120,206739,200724,208757,202726,248559.0,242535.0,250576.0,244543.0,3
3,0,0,1,0,3,test,1,0,m,Thu Apr 03 2025 14:45:35 GMT-0500 (Central Daylight Time),270785.5,O,z,1858,4,1,109.bmp,-120,-120,110.bmp,120,-120,111.bmp,-120,120,112.bmp,120,120,9909.099999964237,260876.40000003576,7113,no,SM,A,109.bmp,-120,120,206739,200724,208757,202726,258339.0,252312.0,260357.0,254326.0,4
2,0,1,0,0,4,test,1,1,z,Thu Apr 03 2025 14:45:35 GMT-0500 (Central Daylight Time),280499.5,O,z,1649,5,1,113.bmp,-120,-120,114.bmp,120,-120,115.bmp,-120,120,116.bmp,120,120,9706.099999964237,270793.40000003576,7113,yes,SM,A,114.bmp,120,-120,206739,200724,208757,202726,268252.0,262229.0,270270.0,264239.0,5
3,0,0,1,0,5,test,1,1,z,Thu Apr 03 2025 14:45:35 GMT-0500 (Central Daylight Time),290379.40000003576,O,z,1816,6,1,117.bmp,-120,-120,118.bmp,120,-120,119.bmp,-120,120,120.bmp,120,120,9867.0,280512.40000003576,7113,yes,SM,A,119.bmp,-120,120,206739,200724,208757,202726,277966.0,271948.0,279983.0,273952.0,6
4,0,0,0,1,5,test,1,0,z,Thu Apr 03 2025 14:45:35 GMT-0500 (Central Daylight Time),300459.40000003576,O,None,2014,7,1,121.bmp,-120,-120,122.bmp,120,-120,123.bmp,-120,120,124.bmp,120,120,10064.600000023842,290394.8000000119,7113,yes,SM,A,124.bmp,120,120,206739,200724,208757,202726,287863.0,281831.0,289880.0,283849.0,7
2,0,1,0,0,5,test,1,0,m,Thu Apr 03 2025 14:45:35 GMT-0500 (Central Daylight Time),310523.2000000477,O,None,2014,8,1,125.bmp,-120,-120,126.bmp,120,-120,127.bmp,-120,120,128.bmp,120,120,10049.800000011921,300473.40000003576,7113,no,SM,A,125.bmp,120,-120,206739,200724,208757,202726,297926.0,291909.0,299944.0,293912.0,8
3,0,0,1,0,5,test,1,0,m,Thu Apr 03 2025 14:45:35 GMT-0500 (Central Daylight Time),320586.10000002384,O,None,2014,9,1,129.bmp,-120,-120,130.bmp,120,-120,131.bmp,-120,120,132.bmp,120,120,10049.100000023842,310537.0,7113,no,SM,A,130.bmp,-120,120,206739,200724,208757,202726,307990.0,301973.0,310007.0,303975.0,9
4,0,0,0,1,6,test,1,1,z,Thu Apr 03 2025 14:45:35 GMT-0500 (Central Daylight Time),330033.5,O,z,1369,10,1,137.bmp,-120,-120,138.bmp,120,-120,139.bmp,-120,120,140.bmp,120,120,9433.099999964237,320600.40000003576,7113,yes,SM,A,140.bmp,120,120,206739,200724,208757,202726,318070.0,312036.0,320087.0,314054.0,10
3,0,0,1,0,7,test,1,1,z,Thu Apr 03 2025 14:45:35 GMT-0500 (Central Daylight Time),339879.7000000477,O,z,1778,11,1,133.bmp,-120,-120,134.bmp,120,-120,135.bmp,-120,120,136.bmp,120,120,9831.200000047684,330048.5,7113,yes,SM,A,135.bmp,-120,120,206739,200724,208757,202726,327516.0,321484.0,329534.0,323502.0,11
2,0,1,0,0,8,test,1,1,m,Thu Apr 03 2025 14:45:35 GMT-0500 (Central Daylight Time),349626.8000000119,O,m,1683,12,1,141.bmp,-120,-120,142.bmp,120,-120,143.bmp,-120,120,144.bmp,120,120,9734.199999988079,339892.60000002384,7113,no,SM,A,141.bmp,120,-120,206739,200724,208757,202726,337346.0,331328.0,339364.0,333332.0,12
3,0,0,1,0,9,test,1,1,m,Thu Apr 03 2025 14:45:35 GMT-0500 (Central Daylight Time),359490.2000000477,O,m,1784,13,1,145.bmp,-120,-120,146.bmp,120,-120,147.bmp,-120,120,148.bmp,120,120,9849.400000035763,349640.8000000119,7113,no,SM,A,146.bmp,-120,120,206739,200724,208757,202726,347110.0,341077.0,349128.0,343096.0,13
1,1,0,0,0,10,test,1,1,z,Thu Apr 03 2025 14:45:35 GMT-0500 (Central Daylight Time),369070.3000000119,O,z,1522,14,1,149.bmp,-120,-120,150.bmp,120,-120,104.bmp,-120,120,101.bmp,120,120,9566.399999976158,359503.90000003576,7113,yes,SM,A,149.bmp,-120,-120,206739,200724,208757,202726,356957.0,350940.0,358974.0,352942.0,14
4,0,0,0,1,10,test,1,0,m,Thu Apr 03 2025 14:45:35 GMT-0500 (Central Daylight Time),378733.8000000119,O,z,1589,15,1,110.bmp,-120,-120,111.bmp,120,-120,112.bmp,-120,120,113.bmp,120,120,9648.199999988079,369085.60000002384,7113,no,SM,A,111.bmp,120,120,206739,200724,208757,202726,366554.0,360522.0,368571.0,362538.0,15
1,1,0,0,0,11,test,1,1,m,Thu Apr 03 2025 14:45:35 GMT-0500 (Central Daylight Time),388364.10000002384,O,m,1574,16,1,102.bmp,-120,-120,103.bmp,120,-120,104.bmp,-120,120,105.bmp,120,120,9616.300000011921,378747.8000000119,7113,no,SM,A,105.bmp,-120,-120,206739,200724,208757,202726,376200.0,370183.0,378218.0,372186.0,16
3,0,0,1,0,11,test,1,0,m,Thu Apr 03 2025 14:45:35 GMT-0500 (Central Daylight Time),398260.7000000477,O,z,1840,17,1,122.bmp,-120,-120,123.bmp,120,-120,124.bmp,-120,120,125.bmp,120,120,9882.900000035763,388377.8000000119,7113,no,SM,A,122.bmp,-120,120,206739,200724,208757,202726,385831.0,379814.0,387848.0,381816.0,17
1,1,0,0,0,12,test,1,1,z,Thu Apr 03 2025 14:45:35 GMT-0500 (Central Daylight Time),408040.90000003576,O,z,1719,18,1,106.bmp,-120,-120,107.bmp,120,-120,108.bmp,-120,120,109.bmp,120,120,9766.699999988079,398274.2000000477,7113,yes,SM,A,106.bmp,-120,-120,206739,200724,208757,202726,395727.0,389710.0,397745.0,391713.0,18
2,0,1,0,0,13,test,1,1,z,Thu Apr 03 2025 14:45:35 GMT-0500 (Central Daylight Time),418104.40000003576,O,z,1986,19,1,126.bmp,-120,-120,127.bmp,120,-120,128.bmp,-120,120,129.bmp,120,120,10045.5,408058.90000003576,7113,yes,SM,A,127.bmp,120,-120,206739,200724,208757,202726,405523.0,399495.0,407542.0,401511.0,19
3,0,0,1,0,14,test,1,1,z,Thu Apr 03 2025 14:45:35 GMT-0500 (Central Daylight Time),427318.0,O,z,1139,20,1,130.bmp,-120,-120,131.bmp,120,-120,132.bmp,-120,120,133.bmp,120,120,9198.5,418119.5,7113,yes,SM,A,132.bmp,-120,120,206739,200724,208757,202726,415588.0,409556.0,417605.0,411573.0,20
1,1,0,0,0,15,test,1,1,m,Thu Apr 03 2025 14:45:35 GMT-0500 (Central Daylight Time),436864.90000003576,O,m,1486,21,1,114.bmp,-120,-120,115.bmp,120,-120,116.bmp,-120,120,117.bmp,120,120,9534.400000035763,427330.5,7113,no,SM,A,116.bmp,-120,-120,206739,200724,208757,202726,424785.0,418766.0,426802.0,420771.0,21
4,0,0,0,1,16,test,1,1,z,Thu Apr 03 2025 14:45:35 GMT-0500 (Central Daylight Time),446811.90000003576,O,z,1882,22,1,118.bmp,-120,-120,119.bmp,120,-120,120.bmp,-120,120,121.bmp,120,120,9933.900000035763,436878.0,7113,yes,SM,A,121.bmp,120,120,206739,200724,208757,202726,434331.0,428314.0,436349.0,430317.0,22
1,1,0,0,0,17,test,1,1,m,Thu Apr 03 2025 14:45:35 GMT-0500 (Central Daylight Time),456858.5,O,m,1984,23,1,134.bmp,-120,-120,135.bmp,120,-120,136.bmp,-120,120,137.bmp,120,120,10033.5,446825.0,7113,no,SM,A,137.bmp,-120,-120,206739,200724,208757,202726,444278.0,438261.0,446296.0,440264.0,23
2,0,1,0,0,17,test,1,0,z,Thu Apr 03 2025 14:45:35 GMT-0500 (Central Daylight Time),466888.2000000477,O,m,1977,24,1,142.bmp,-120,-120,143.bmp,120,-120,144.bmp,-120,120,145.bmp,120,120,10016.300000011921,456871.90000003576,7113,yes,SM,A,143.bmp,120,-120,206739,200724,208757,202726,454325.0,448308.0,456343.0,450311.0,24
4,0,0,0,1,18,test,1,1,m,Thu Apr 03 2025 14:45:35 GMT-0500 (Central Daylight Time),476918.10000002384,O,m,1980,25,1,146.bmp,-120,-120,147.bmp,120,-120,148.bmp,-120,120,149.bmp,120,120,10016.5,466901.60000002384,7113,no,SM,A,148.bmp,120,120,206739,200724,208757,202726,464355.0,458337.0,466372.0,460341.0,25
1,1,0,0,0,19,test,1,1,z,Thu Apr 03 2025 14:45:35 GMT-0500 (Central Daylight Time),486298.7000000477,O,z,1317,26,1,138.bmp,-120,-120,139.bmp,120,-120,140.bmp,-120,120,141.bmp,120,120,9367.900000035763,476930.8000000119,7113,yes,SM,A,138.bmp,-120,-120,206739,200724,208757,202726,474385.0,468367.0,476402.0,470369.0,26
4,0,0,0,1,20,test,1,1,z,Thu Apr 03 2025 14:45:35 GMT-0500 (Central Daylight Time),495662.3000000119,O,z,1313,27,1,150.bmp,-120,-120,111.bmp,120,-120,101.bmp,-120,120,102.bmp,120,120,9349.699999988079,486312.60000002384,7113,yes,SM,A,102.bmp,120,120,206739,200724,208757,202726,483765.0,477748.0,485783.0,479751.0,27
3,0,0,1,0,20,test,1,0,m,Thu Apr 03 2025 14:45:35 GMT-0500 (Central Daylight Time),505725.60000002384,O,None,2013,28,1,103.bmp,-120,-120,104.bmp,120,-120,105.bmp,-120,120,106.bmp,120,120,10049.899999976158,495675.7000000477,7113,no,SM,A,103.bmp,-120,120,206739,200724,208757,202726,493129.0,487111.0,495147.0,489114.0,28
2,0,1,0,0,20,test,1,0,z,Thu Apr 03 2025 14:45:35 GMT-0500 (Central Daylight Time),515788.8000000119,O,None,2015,29,1,107.bmp,-120,-120,108.bmp,120,-120,109.bmp,-120,120,110.bmp,120,120,10050.099999964237,505738.7000000477,7113,yes,SM,A,108.bmp,120,-120,206739,200724,208757,202726,503192.0,497175.0,505209.0,499178.0,29
3,0,0,1,0,20,test,1,0,z,Thu Apr 03 2025 14:45:35 GMT-0500 (Central Daylight Time),525452.3000000119,O,m,1599,30,1,111.bmp,-120,-120,112.bmp,120,-120,113.bmp,-120,120,114.bmp,120,120,9650.599999964237,515801.7000000477,7113,yes,SM,A,113.bmp,-120,120,206739,200724,208757,202726,513255.0,507237.0,515273.0,509242.0,30
1,1,0,0,0,21,test,1,1,z,Thu Apr 03 2025 14:45:35 GMT-0500 (Central Daylight Time),534749.6000000238,O,z,1223,31,1,115.bmp,-120,-120,116.bmp,120,-120,117.bmp,-120,120,118.bmp,120,120,9280.800000011921,525468.8000000119,7113,yes,SM,A,115.bmp,-120,-120,206739,200724,208757,202726,522936.0,516905.0,524953.0,518921.0,31
2,0,1,0,0,22,test,1,1,m,Thu Apr 03 2025 14:45:35 GMT-0500 (Central Daylight Time),544712.7000000477,O,m,1885,32,1,119.bmp,-120,-120,120.bmp,120,-120,121.bmp,-120,120,122.bmp,120,120,9948.600000023842,534764.1000000238,7113,no,SM,A,119.bmp,120,-120,206739,200724,208757,202726,532233.0,526200.0,534250.0,528219.0,32
4,0,0,0,1,22,test,1,0,z,Thu Apr 03 2025 14:45:35 GMT-0500 (Central Daylight Time),554392.8000000119,O,m,1621,33,1,131.bmp,-120,-120,132.bmp,120,-120,133.bmp,-120,120,134.bmp,120,120,9667.699999988079,544725.1000000238,7113,yes,SM,A,134.bmp,120,120,206739,200724,208757,202726,542179.0,536161.0,544195.0,538165.0,33
2,0,1,0,0,23,test,1,1,z,Thu Apr 03 2025 14:45:35 GMT-0500 (Central Daylight Time),563689.2000000477,O,z,1244,34,1,123.bmp,-120,-120,124.bmp,120,-120,125.bmp,-120,120,126.bmp,120,120,9283.700000047684,554405.5,7113,yes,SM,A,124.bmp,120,-120,206739,200724,208757,202726,551859.0,545841.0,553875.0,547845.0,34
4,0,0,0,1,24,test,1,1,m,Thu Apr 03 2025 14:45:35 GMT-0500 (Central Daylight Time),573586.5,O,m,1842,35,1,127.bmp,-120,-120,128.bmp,120,-120,129.bmp,-120,120,130.bmp,120,120,9890.099999964237,563696.4000000358,7113,no,SM,A,129.bmp,120,120,206739,200724,208757,202726,561156.0,555132.0,563174.0,557143.0,35
3,0,0,1,0,25,test,1,1,m,Thu Apr 03 2025 14:45:35 GMT-0500 (Central Daylight Time),583166.8000000119,O,m,1522,36,1,135.bmp,-120,-120,136.bmp,120,-120,137.bmp,-120,120,138.bmp,120,120,9565.599999964237,573601.2000000477,7113,no,SM,A,135.bmp,-120,120,206739,200724,208757,202726,571053.0,565037.0,573070.0,567039.0,36
1,1,0,0,0,26,test,1,1,m,Thu Apr 03 2025 14:45:35 GMT-0500 (Central Daylight Time),592530.3000000119,O,m,1310,37,1,139.bmp,-120,-120,140.bmp,120,-120,141.bmp,-120,120,142.bmp,120,120,9350.5,583179.8000000119,7113,no,SM,A,140.bmp,-120,-120,206739,200724,208757,202726,580633.0,574616.0,582650.0,576619.0,37
2,0,1,0,0,26,test,1,0,m,Thu Apr 03 2025 14:45:35 GMT-0500 (Central Daylight Time),602593.7000000477,O,None,2015,38,1,143.bmp,-120,-120,144.bmp,120,-120,145.bmp,-120,120,146.bmp,120,120,10051.100000023842,592542.6000000238,7113,no,SM,A,145.bmp,120,-120,206739,200724,208757,202726,589997.0,583978.0,592014.0,585983.0,38
4,0,0,0,1,27,test,1,1,z,Thu Apr 03 2025 14:45:35 GMT-0500 (Central Daylight Time),611874.0,O,z,1227,39,1,147.bmp,-120,-120,148.bmp,120,-120,149.bmp,-120,120,150.bmp,120,120,9267.399999976158,602606.6000000238,7113,yes,SM,A,150.bmp,120,120,206739,200724,208757,202726,600060.0,594042.0,602077.0,596046.0,39
3,0,0,1,0,28,test,1,1,m,Thu Apr 03 2025 14:45:35 GMT-0500 (Central Daylight Time),621387.5,O,m,1442,40,1,104.bmp,-120,-120,105.bmp,120,-120,106.bmp,-120,120,107.bmp,120,120,9498.399999976158,611889.1000000238,7113,no,SM,A,105.bmp,-120,120,206739,200724,208757,202726,609357.0,603325.0,611374.0,605343.0,40
1,1,0,0,0,28,test,1,0,z,Thu Apr 03 2025 14:45:35 GMT-0500 (Central Daylight Time),631301.0,O,m,1848,41,1,108.bmp,-120,-120,109.bmp,120,-120,110.bmp,-120,120,111.bmp,120,120,9901.0,621400.0,7113,yes,SM,A,108.bmp,-120,-120,206739,200724,208757,202726,618854.0,612836.0,620871.0,614840.0,41
4,0,0,0,1,28,test,1,0,z,Thu Apr 03 2025 14:45:35 GMT-0500 (Central Daylight Time),640847.8000000119,O,m,1487,42,1,112.bmp,-120,-120,113.bmp,120,-120,114.bmp,-120,120,115.bmp,120,120,9534.399999976158,631313.4000000358,7113,yes,SM,A,115.bmp,120,120,206739,200724,208757,202726,628767.0,622749.0,630785.0,624753.0,42
1,1,0,0,0,28,test,1,0,z,Thu Apr 03 2025 14:45:35 GMT-0500 (Central Daylight Time),650728.0,O,m,1828,43,1,116.bmp,-120,-120,117.bmp,120,-120,118.bmp,-120,120,119.bmp,120,120,9865.899999976158,640862.1000000238,7113,yes,SM,A,116.bmp,-120,-120,206739,200724,208757,202726,638313.0,632298.0,640332.0,634300.0,43
4,0,0,0,1,29,test,1,1,m,Thu Apr 03 2025 14:45:35 GMT-0500 (Central Daylight Time),660174.9000000358,O,m,1371,44,1,104.bmp,-120,-120,101.bmp,120,-120,102.bmp,-120,120,103.bmp,120,120,9432.699999988079,650742.2000000477,7113,no,SM,A,104.bmp,120,120,206739,200724,208757,202726,648212.0,642179.0,650228.0,644197.0,44
1,1,0,0,0,30,test,1,1,m,Thu Apr 03 2025 14:45:35 GMT-0500 (Central Daylight Time),669871.1000000238,O,m,1644,45,1,128.bmp,-120,-120,129.bmp,120,-120,130.bmp,-120,120,131.bmp,120,120,9683.0,660188.1000000238,7113,no,SM,A,131.bmp,-120,-120,206739,200724,208757,202726,657641.0,651624.0,659659.0,653628.0,45
1,1,0,0,0,31,test,1,1,m,Thu Apr 03 2025 14:45:35 GMT-0500 (Central Daylight Time),679734.8000000119,O,m,1812,46,1,120.bmp,-120,-120,121.bmp,120,-120,122.bmp,-120,120,123.bmp,120,120,9856.300000011921,669878.5,7113,no,SM,A,121.bmp,-120,-120,206739,200724,208757,202726,667337.0,661314.0,669356.0,663324.0,46
3,0,0,1,0,31,test,1,0,z,Thu Apr 03 2025 14:45:35 GMT-0500 (Central Daylight Time),689731.8000000119,O,m,1932,47,1,124.bmp,-120,-120,125.bmp,120,-120,126.bmp,-120,120,127.bmp,120,120,9985.0,679746.8000000119,7113,yes,SM,A,126.bmp,-120,120,206739,200724,208757,202726,677202.0,671183.0,679219.0,673187.0,47
3,0,0,1,0,32,test,1,1,z,Thu Apr 03 2025 14:45:35 GMT-0500 (Central Daylight Time),699778.5,O,z,1993,48,1,140.bmp,-120,-120,141.bmp,120,-120,142.bmp,-120,120,143.bmp,120,120,10033.799999952316,689744.7000000477,7113,yes,SM,A,142.bmp,-120,120,206739,200724,208757,202726,687198.0,681181.0,689215.0,683184.0,48
2,0,1,0,0,32,test,1,0,z,Thu Apr 03 2025 14:45:35 GMT-0500 (Central Daylight Time),709842.1000000238,O,None,2015,49,1,136.bmp,-120,-120,137.bmp,120,-120,138.bmp,-120,120,139.bmp,120,120,10049.699999988079,699792.4000000358,7113,yes,SM,A,137.bmp,120,-120,206739,200724,208757,202726,697245.0,691228.0,699262.0,693231.0,49
3,0,0,1,0,32,test,1,0,m,Thu Apr 03 2025 14:45:35 GMT-0500 (Central Daylight Time),719572.0,O,z,1666,50,1,132.bmp,-120,-120,133.bmp,120,-120,134.bmp,-120,120,135.bmp,120,120,9717.599999964237,709854.4000000358,7113,no,SM,A,132.bmp,-120,120,206739,200724,208757,202726,707309.0,701290.0,709326.0,703294.0,50
2,0,1,0,0,33,test,1,1,z,Thu Apr 03 2025 14:45:35 GMT-0500 (Central Daylight Time),729002.3000000119,O,z,1368,51,1,144.bmp,-120,-120,145.bmp,120,-120,146.bmp,-120,120,147.bmp,120,120,9418.300000011921,719584.0,7113,yes,SM,A,145.bmp,120,-120,206739,200724,208757,202726,717039.0,711020.0,719056.0,713024.0,51
4,0,0,0,1,33,test,1,0,m,Thu Apr 03 2025 14:45:35 GMT-0500 (Central Daylight Time),738765.8000000119,O,z,1715,52,1,148.bmp,-120,-120,149.bmp,120,-120,150.bmp,-120,120,131.bmp,120,120,9749.899999976158,729015.9000000358,7113,no,SM,A,148.bmp,120,120,206739,200724,208757,202726,726469.0,720452.0,728485.0,722455.0,52
3,0,0,1,0,34,test,1,1,z,Thu Apr 03 2025 14:45:35 GMT-0500 (Central Daylight Time),748196.0,O,z,1358,53,1,101.bmp,-120,-120,102.bmp,120,-120,103.bmp,-120,120,104.bmp,120,120,9415.599999964237,738780.4000000358,7113,yes,SM,A,103.bmp,-120,120,206739,200724,208757,202726,736248.0,730217.0,738266.0,732235.0,53
1,1,0,0,0,34,test,1,0,m,Thu Apr 03 2025 14:45:35 GMT-0500 (Central Daylight Time),757576.3000000119,O,z,1328,54,1,105.bmp,-120,-120,106.bmp,120,-120,107.bmp,-120,120,108.bmp,120,120,9367.5,748208.8000000119,7113,no,SM,A,107.bmp,-120,-120,206739,200724,208757,202726,745663.0,739644.0,747680.0,741648.0,54
4,0,0,0,1,35,test,1,1,z,Thu Apr 03 2025 14:45:35 GMT-0500 (Central Daylight Time),767306.5,O,z,1676,55,1,109.bmp,-120,-120,110.bmp,120,-120,111.bmp,-120,120,112.bmp,120,120,9717.599999964237,757588.9000000358,7113,yes,SM,A,112.bmp,120,120,206739,200724,208757,202726,755043.0,749024.0,757060.0,751029.0,55
2,0,1,0,0,35,test,1,0,m,Thu Apr 03 2025 14:45:35 GMT-0500 (Central Daylight Time),777069.8000000119,O,z,1689,56,1,113.bmp,-120,-120,114.bmp,120,-120,115.bmp,-120,120,116.bmp,120,120,9748.5,767321.3000000119,7113,no,SM,A,113.bmp,120,-120,206739,200724,208757,202726,764789.0,758758.0,766807.0,760775.0,56
4,0,0,0,1,35,test,1,0,m,Thu Apr 03 2025 14:45:35 GMT-0500 (Central Daylight Time),786700.0,O,z,1567,57,1,117.bmp,-120,-120,118.bmp,120,-120,119.bmp,-120,120,120.bmp,120,120,9618.199999988079,777081.8000000119,7113,no,SM,A,118.bmp,120,120,206739,200724,208757,202726,774536.0,768518.0,776553.0,770522.0,57
3,0,0,1,0,35,test,1,0,z,Thu Apr 03 2025 14:45:35 GMT-0500 (Central Daylight Time),796763.4000000358,O,None,2014,58,1,121.bmp,-120,-120,122.bmp,120,-120,123.bmp,-120,120,124.bmp,120,120,10050.100000023842,786713.3000000119,7113,yes,SM,A,123.bmp,-120,120,206739,200724,208757,202726,784167.0,778149.0,786184.0,780152.0,58
2,0,1,0,0,35,test,1,0,m,Thu Apr 03 2025 14:45:35 GMT-0500 (Central Daylight Time),806826.7000000477,O,None,2014,59,1,125.bmp,-120,-120,126.bmp,120,-120,127.bmp,-120,120,128.bmp,120,120,10050.600000023842,796776.1000000238,7113,no,SM,A,128.bmp,120,-120,206739,200724,208757,202726,794230.0,788212.0,796247.0,790216.0,59
1,1,0,0,0,36,test,1,1,z,Thu Apr 03 2025 14:45:35 GMT-0500 (Central Daylight Time),816490.3000000119,O,z,1609,60,1,129.bmp,-120,-120,130.bmp,120,-120,131.bmp,-120,120,132.bmp,120,120,9651.199999988079,806839.1000000238,7113,yes,SM,A,129.bmp,-120,-120,206739,200724,208757,202726,804293.0,798275.0,806311.0,800279.0,60
2,0,1,0,0,37,test,1,1,z,Thu Apr 03 2025 14:45:35 GMT-0500 (Central Daylight Time),826036.8000000119,O,z,1482,61,1,133.bmp,-120,-120,134.bmp,120,-120,135.bmp,-120,120,136.bmp,120,120,9533.800000011921,816503.0,7113,yes,SM,A,134.bmp,120,-120,206739,200724,208757,202726,813957.0,807939.0,815974.0,809943.0,61
4,0,0,0,1,38,test,1,1,z,Thu Apr 03 2025 14:45:35 GMT-0500 (Central Daylight Time),835817.3000000119,O,z,1719,62,1,141.bmp,-120,-120,142.bmp,120,-120,143.bmp,-120,120,144.bmp,120,120,9766.800000011921,826050.5,7113,yes,SM,A,144.bmp,120,120,206739,200724,208757,202726,823504.0,817486.0,825521.0,819489.0,62
1,1,0,0,0,38,test,1,0,m,Thu Apr 03 2025 14:45:35 GMT-0500 (Central Daylight Time),845497.3000000119,O,z,1627,63,1,145.bmp,-120,-120,146.bmp,120,-120,147.bmp,-120,120,148.bmp,120,120,9668.199999988079,835829.1000000238,7113,no,SM,A,145.bmp,-120,120,206739,200724,208757,202726,833284.0,827265.0,835301.0,829269.0,63
2,0,1,0,0,39,test,1,1,z,Thu Apr 03 2025 14:45:35 GMT-0500 (Central Daylight Time),854894.5,O,z,1339,64,1,149.bmp,-120,-120,150.bmp,120,-120,112.bmp,-120,120,101.bmp,120,120,9385.099999964237,845509.4000000358,7113,yes,SM,A,150.bmp,120,-120,206739,200724,208757,202726,842964.0,836945.0,844981.0,838950.0,64
4,0,0,0,1,40,test,1,1,m,Thu Apr 03 2025 14:45:35 GMT-0500 (Central Daylight Time),864741.0,O,m,1790,65,1,102.bmp,-120,-120,103.bmp,120,-120,104.bmp,-120,120,105.bmp,120,120,9833.599999964237,854907.4000000358,7113,no,SM,A,104.bmp,120,120,206739,200724,208757,202726,852361.0,846343.0,854378.0,848347.0,65
3,0,0,1,0,41,test,1,1,m,Thu Apr 03 2025 14:45:35 GMT-0500 (Central Daylight Time),874204.9000000358,O,m,1407,66,1,106.bmp,-120,-120,107.bmp,120,-120,108.bmp,-120,120,109.bmp,120,120,9449.800000011921,864755.1000000238,7113,no,SM,A,109.bmp,-120,120,206739,200724,208757,202726,862208.0,856191.0,864225.0,858193.0,66
2,0,1,0,0,41,test,1,0,m,Thu Apr 03 2025 14:45:35 GMT-0500 (Central Daylight Time),884268.1000000238,O,None,2015,67,1,137.bmp,-120,-120,138.bmp,120,-120,139.bmp,-120,120,140.bmp,120,120,10053.399999976158,874214.7000000477,7113,no,SM,A,139.bmp,120,-120,206739,200724,208757,202726,871671.0,865650.0,873688.0,867657.0,67
3,0,0,1,0,42,test,1,1,z,Thu Apr 03 2025 14:45:35 GMT-0500 (Central Daylight Time),893797.2000000477,O,z,1472,68,1,110.bmp,-120,-120,111.bmp,120,-120,112.bmp,-120,120,113.bmp,120,120,9516.700000047684,884280.5,7113,yes,SM,A,112.bmp,-120,120,206739,200724,208757,202726,881734.0,875717.0,883750.0,877719.0,68
1,1,0,0,0,42,test,1,0,m,Thu Apr 03 2025 14:45:35 GMT-0500 (Central Daylight Time),903861.9000000358,O,None,2015,69,1,114.bmp,-120,-120,115.bmp,120,-120,116.bmp,-120,120,117.bmp,120,120,10060.699999988079,893801.2000000477,7113,no,SM,A,115.bmp,-120,-120,206739,200724,208757,202726,891265.0,885236.0,893282.0,887249.0,69
2,0,1,0,0,42,test,1,0,m,Thu Apr 03 2025 14:45:35 GMT-0500 (Central Daylight Time),913641.5,O,z,1726,70,1,118.bmp,-120,-120,119.bmp,120,-120,120.bmp,-120,120,121.bmp,120,120,9765.899999976158,903875.6000000238,7113,no,SM,A,120.bmp,120,-120,206739,200724,208757,202726,901328.0,895311.0,903345.0,897314.0,70
4,0,0,0,1,42,test,1,0,z,Thu Apr 03 2025 14:45:35 GMT-0500 (Central Daylight Time),923705.1000000238,O,None,2015,71,1,122.bmp,-120,-120,123.bmp,120,-120,124.bmp,-120,120,125.bmp,120,120,10051.5,913653.6000000238,7113,yes,SM,A,125.bmp,120,120,206739,200724,208757,202726,911108.0,905089.0,913125.0,907094.0,71
1,1,0,0,0,42,test,1,0,z,Thu Apr 03 2025 14:45:35 GMT-0500 (Central Daylight Time),933768.3000000119,O,None,2014,72,1,126.bmp,-120,-120,127.bmp,120,-120,128.bmp,-120,120,129.bmp,120,120,10051.0,923717.3000000119,7113,yes,SM,A,126.bmp,-120,-120,206739,200724,208757,202726,921172.0,915153.0,923189.0,917157.0,72
2,0,1,0,0,43,test,1,1,z,Thu Apr 03 2025 14:45:35 GMT-0500 (Central Daylight Time),943265.3000000119,O,z,1436,73,1,130.bmp,-120,-120,131.bmp,120,-120,132.bmp,-120,120,133.bmp,120,120,9485.0,933780.3000000119,7113,yes,SM,A,131.bmp,120,-120,206739,200724,208757,202726,931235.0,925216.0,933252.0,927221.0,73
4,0,0,0,1,43,test,1,0,m,Thu Apr 03 2025 14:45:35 GMT-0500 (Central Daylight Time),953328.6000000238,O,None,2015,74,1,134.bmp,-120,-120,135.bmp,120,-120,136.bmp,-120,120,137.bmp,120,120,10049.699999988079,943278.9000000358,7113,no,SM,A,136.bmp,120,120,206739,200724,208757,202726,940732.0,934714.0,942749.0,936718.0,74
2,0,1,0,0,43,test,1,0,m,Thu Apr 03 2025 14:45:35 GMT-0500 (Central Daylight Time),962875.6000000238,O,z,1491,75,1,138.bmp,-120,-120,139.bmp,120,-120,140.bmp,-120,120,141.bmp,120,120,9534.899999976158,953340.7000000477,7113,no,SM,A,141.bmp,120,-120,206739,200724,208757,202726,950795.0,944776.0,952813.0,946781.0,75
1,1,0,0,0,44,test,1,1,z,Thu Apr 03 2025 14:45:35 GMT-0500 (Central Daylight Time),972705.5,O,z,1776,76,1,142.bmp,-120,-120,143.bmp,120,-120,144.bmp,-120,120,145.bmp,120,120,9817.899999976158,962887.6000000238,7113,yes,SM,A,142.bmp,-120,-120,206739,200724,208757,202726,960342.0,954323.0,962359.0,956328.0,76
3,0,0,1,0,45,test,1,1,z,Thu Apr 03 2025 14:45:35 GMT-0500 (Central Daylight Time),981986.0,O,z,1227,77,1,150.bmp,-120,-120,111.bmp,120,-120,101.bmp,-120,120,102.bmp,120,120,9266.699999988079,972719.3000000119,7113,yes,SM,A,101.bmp,-120,120,206739,200724,208757,202726,970172.0,964155.0,972189.0,966158.0,77
1,1,0,0,0,45,test,1,0,m,Thu Apr 03 2025 14:45:35 GMT-0500 (Central Daylight Time),991532.6000000238,O,z,1490,78,1,146.bmp,-120,-120,147.bmp,120,-120,148.bmp,-120,120,149.bmp,120,120,9533.100000023842,981999.5,7113,no,SM,A,147.bmp,-120,-120,206739,200724,208757,202726,979452.0,973435.0,981470.0,975439.0,78
4,0,0,0,1,45,test,1,0,m,Thu Apr 03 2025 14:45:35 GMT-0500 (Central Daylight Time),1001479.5,O,z,1887,79,1,107.bmp,-120,-120,108.bmp,120,-120,109.bmp,-120,120,110.bmp,120,120,9932.899999976158,991546.6000000238,7113,no,SM,A,107.bmp,120,120,206739,200724,208757,202726,988999.0,982982.0,991017.0,984985.0,79
3,0,0,1,0,45,test,1,0,m,Thu Apr 03 2025 14:45:35 GMT-0500 (Central Daylight Time),1011059.7000000477,O,z,1500,80,1,103.bmp,-120,-120,104.bmp,120,-120,105.bmp,-120,120,106.bmp,120,120,9563.400000035763,1001496.3000000119,7113,no,SM,A,106.bmp,-120,120,206739,200724,208757,202726,998963.0,992932.0,1000980.0,994949.0,80
