acc_sum,block,block_c,change,condition,correct,correct_response,datetime,endtime,face,project,response,response_time,row_sel,session_number,start_end,starttime,subject_id,task,task_vers,trial
0,prac,1,,1-Back,,,Fri Feb 21 2025 16:22:14 GMT-0600 (Central Standard Time),,124_o_f_d_a.png,O,space,6498,1,1,,,7062,VNB,A,0
1,prac,1,0.0,1-Back,1,m,Fri Feb 21 2025 16:22:14 GMT-0600 (Central Standard Time),120012.20000000298,071_y_f_n_a.png,O,m,1058,2,1,1856.9000000022352,118155.30000000075,7062,VNB,A,1
2,prac,1,0.0,1-Back,1,m,Fri Feb 21 2025 16:22:14 GMT-0600 (Central Standard Time),121711.40000000224,165_m_m_h_a.png,O,m,892,3,1,1692.0,120019.40000000224,7062,VNB,A,2
3,prac,1,0.0,1-Back,1,m,Fri Feb 21 2025 16:22:14 GMT-0600 (Central Standard Time),123227.60000000149,109_y_m_d_a.png,O,m,695,4,1,1508.3999999985099,121719.20000000298,7062,VNB,A,3
4,prac,1,0.0,1-Back,1,m,Fri Feb 21 2025 16:22:14 GMT-0600 (Central Standard Time),125460.30000000075,124_o_f_n_a.png,O,m,1390,5,1,2225.199999999255,123235.10000000149,7062,VNB,A,4
5,prac,1,1.0,1-Back,1,z,Fri Feb 21 2025 16:22:14 GMT-0600 (Central Standard Time),127326.70000000298,109_y_m_n_a.png,O,z,1042,6,1,1858.9000000022352,125467.80000000075,7062,VNB,A,5
6,prac,1,0.0,1-Back,1,m,Fri Feb 21 2025 16:22:14 GMT-0600 (Central Standard Time),129309.90000000224,039_o_m_h_a.png,O,m,1170,7,1,1974.800000000745,127335.10000000149,7062,VNB,A,6
7,prac,1,0.0,1-Back,1,m,Fri Feb 21 2025 16:22:14 GMT-0600 (Central Standard Time),130892.10000000149,139_m_f_d_a.png,O,m,771,8,1,1575.1000000014901,129317.0,7062,VNB,A,7
8,prac,1,1.0,1-Back,1,z,Fri Feb 21 2025 16:22:14 GMT-0600 (Central Standard Time),132608.30000000075,071_y_f_d_a.png,O,z,917,9,1,1708.5,130899.80000000075,7062,VNB,A,8
9,prac,1,0.0,1-Back,1,m,Fri Feb 21 2025 16:22:14 GMT-0600 (Central Standard Time),134724.40000000224,165_m_m_n_a.png,O,m,1312,10,1,2108.400000002235,132616.0,7062,VNB,A,9
10,prac,1,0.0,1-Back,1,m,Fri Feb 21 2025 16:22:14 GMT-0600 (Central Standard Time),136373.80000000075,124_o_f_h_a.png,O,m,827,11,1,1641.800000000745,134732.0,7062,VNB,A,10
11,prac,1,0.0,1-Back,1,m,Fri Feb 21 2025 16:22:14 GMT-0600 (Central Standard Time),137956.6000000015,109_y_m_d_a.png,O,m,796,12,1,1575.1000000014901,136381.5,7062,VNB,A,11
0,test,1,0.0,1-Back,,,Fri Feb 21 2025 16:22:14 GMT-0600 (Central Standard Time),137956.6000000015,071_y_f_d_a.png,O,space,7063,1,1,1575.1000000014901,136381.5,7062,VNB,A,0
1,test,1,0.0,1-Back,1,m,Fri Feb 21 2025 16:22:14 GMT-0600 (Central Standard Time),156284.1000000015,139_m_f_n_a.png,O,m,806,2,1,1826.0,154458.1000000015,7062,VNB,A,1
2,test,1,0.0,1-Back,1,m,Fri Feb 21 2025 16:22:14 GMT-0600 (Central Standard Time),158150.30000000075,039_o_m_h_a.png,O,m,837,3,1,1860.300000000745,156290.0,7062,VNB,A,2
3,test,1,1.0,1-Back,1,z,Fri Feb 21 2025 16:22:14 GMT-0600 (Central Standard Time),159783.20000000298,165_m_m_h_a.png,O,z,602,4,1,1626.6000000014901,158156.6000000015,7062,VNB,A,3
4,test,1,0.0,1-Back,1,m,Fri Feb 21 2025 16:22:14 GMT-0600 (Central Standard Time),161615.90000000224,124_o_f_n_a.png,O,m,800,5,1,1826.300000000745,159789.6000000015,7062,VNB,A,4
5,test,1,0.0,1-Back,1,m,Fri Feb 21 2025 16:22:14 GMT-0600 (Central Standard Time),163448.30000000075,109_y_m_d_a.png,O,m,808,6,1,1826.5,161621.80000000075,7062,VNB,A,5
6,test,1,1.0,1-Back,1,z,Fri Feb 21 2025 16:22:14 GMT-0600 (Central Standard Time),165248.0,139_m_f_d_a.png,O,z,769,7,1,1793.0999999977648,163454.90000000224,7062,VNB,A,6
7,test,1,0.0,1-Back,1,m,Fri Feb 21 2025 16:22:14 GMT-0600 (Central Standard Time),166964.20000000298,071_y_f_h_a.png,O,m,697,8,1,1709.300000000745,165254.90000000224,7062,VNB,A,7
8,test,1,0.0,1-Back,1,m,Fri Feb 21 2025 16:22:14 GMT-0600 (Central Standard Time),168580.40000000224,039_o_m_n_a.png,O,m,597,9,1,1609.800000000745,166970.6000000015,7062,VNB,A,8
9,test,1,0.0,1-Back,1,m,Fri Feb 21 2025 16:22:14 GMT-0600 (Central Standard Time),170629.5,109_y_m_h_a.png,O,m,1021,10,1,2042.5999999977648,168586.90000000224,7062,VNB,A,9
10,test,1,0.0,1-Back,1,m,Fri Feb 21 2025 16:22:14 GMT-0600 (Central Standard Time),172295.90000000224,039_o_m_d_a.png,O,m,636,11,1,1659.9000000022352,170636.0,7062,VNB,A,10
11,test,1,1.0,1-Back,1,z,Fri Feb 21 2025 16:22:14 GMT-0600 (Central Standard Time),174145.30000000075,124_o_f_d_a.png,O,z,817,12,1,1843.0,172302.30000000075,7062,VNB,A,11
12,test,1,0.0,1-Back,1,m,Fri Feb 21 2025 16:22:14 GMT-0600 (Central Standard Time),176094.5,165_m_m_n_a.png,O,m,919,13,1,1942.2999999970198,174152.20000000298,7062,VNB,A,12
13,test,1,1.0,1-Back,1,z,Fri Feb 21 2025 16:22:14 GMT-0600 (Central Standard Time),178010.40000000224,071_y_f_n_a.png,O,z,899,14,1,1909.6000000014901,176100.80000000075,7062,VNB,A,13
14,test,1,0.0,1-Back,1,m,Fri Feb 21 2025 16:22:14 GMT-0600 (Central Standard Time),179743.5,139_m_f_h_a.png,O,m,701,15,1,1726.8999999985099,178016.6000000015,7062,VNB,A,14
15,test,1,0.0,1-Back,1,m,Fri Feb 21 2025 16:22:14 GMT-0600 (Central Standard Time),181442.90000000224,165_m_m_d_a.png,O,m,674,16,1,1691.300000000745,179751.6000000015,7062,VNB,A,15
16,test,1,0.0,1-Back,1,m,Fri Feb 21 2025 16:22:14 GMT-0600 (Central Standard Time),183409.0,109_y_m_n_a.png,O,m,942,17,1,1959.3999999985099,181449.6000000015,7062,VNB,A,16
17,test,1,0.0,1-Back,1,m,Fri Feb 21 2025 16:22:14 GMT-0600 (Central Standard Time),185225.1000000015,124_o_f_h_a.png,O,m,784,18,1,1809.699999999255,183415.40000000224,7062,VNB,A,17
0,test,2,0.0,1-Back,,,Fri Feb 21 2025 16:22:14 GMT-0600 (Central Standard Time),185225.1000000015,109_y_m_n_a.png,O,space,1272,1,1,1809.699999999255,183415.40000000224,7062,VNB,A,0
1,test,2,0.0,1-Back,1,m,Fri Feb 21 2025 16:22:14 GMT-0600 (Central Standard Time),190506.80000000075,071_y_f_h_a.png,O,m,957,2,1,1976.300000000745,188530.5,7062,VNB,A,1
2,test,2,1.0,1-Back,1,m,Fri Feb 21 2025 16:22:14 GMT-0600 (Central Standard Time),192156.30000000075,039_o_m_n_a.png,O,m,630,3,1,1643.199999999255,190513.1000000015,7062,VNB,A,2
2,test,2,0.0,1-Back,0,m,Fri Feb 21 2025 16:22:14 GMT-0600 (Central Standard Time),193955.80000000075,139_m_f_d_a.png,O,z,773,4,1,1793.199999999255,192162.6000000015,7062,VNB,A,3
2,test,2,0.0,1-Back,0,z,Fri Feb 21 2025 16:22:14 GMT-0600 (Central Standard Time),196255.0,165_m_m_d_a.png,O,m,1270,5,1,2292.599999997765,193962.40000000224,7062,VNB,A,4
3,test,2,0.0,1-Back,1,m,Fri Feb 21 2025 16:22:14 GMT-0600 (Central Standard Time),197987.80000000075,109_y_m_h_a.png,O,m,706,6,1,1726.5,196261.30000000075,7062,VNB,A,5
4,test,2,1.0,1-Back,1,z,Fri Feb 21 2025 16:22:14 GMT-0600 (Central Standard Time),199937.40000000224,124_o_f_h_a.png,O,z,916,7,1,1943.0,197994.40000000224,7062,VNB,A,6
5,test,2,0.0,1-Back,1,m,Fri Feb 21 2025 16:22:14 GMT-0600 (Central Standard Time),201636.80000000075,139_m_f_n_a.png,O,m,680,8,1,1692.8999999985099,199943.90000000224,7062,VNB,A,7
6,test,2,0.0,1-Back,1,m,Fri Feb 21 2025 16:22:14 GMT-0600 (Central Standard Time),203586.30000000075,071_y_f_d_a.png,O,m,925,9,1,1943.300000000745,201643.0,7062,VNB,A,8
7,test,2,0.0,1-Back,1,m,Fri Feb 21 2025 16:22:14 GMT-0600 (Central Standard Time),205318.80000000075,165_m_m_n_a.png,O,m,710,10,1,1725.800000000745,203593.0,7062,VNB,A,9
8,test,2,1.0,1-Back,1,m,Fri Feb 21 2025 16:22:14 GMT-0600 (Central Standard Time),207034.80000000075,139_m_f_h_a.png,O,m,698,11,1,1709.800000000745,205325.0,7062,VNB,A,10
8,test,2,0.0,1-Back,0,z,Fri Feb 21 2025 16:22:14 GMT-0600 (Central Standard Time),210067.80000000075,039_o_m_h_a.png,O,None,2016,12,1,3025.800000000745,207042.0,7062,VNB,A,11
9,test,2,0.0,1-Back,1,m,Fri Feb 21 2025 16:22:14 GMT-0600 (Central Standard Time),211700.1000000015,109_y_m_d_a.png,O,m,614,13,1,1625.800000000745,210074.30000000075,7062,VNB,A,12
10,test,2,0.0,1-Back,1,m,Fri Feb 21 2025 16:22:14 GMT-0600 (Central Standard Time),214099.5,124_o_f_n_a.png,O,m,1381,14,1,2392.7999999970198,211706.70000000298,7062,VNB,A,13
11,test,2,0.0,1-Back,1,z,Fri Feb 21 2025 16:22:14 GMT-0600 (Central Standard Time),215799.1000000015,071_y_f_n_a.png,O,z,669,15,1,1692.5,214106.6000000015,7062,VNB,A,14
12,test,2,1.0,1-Back,1,m,Fri Feb 21 2025 16:22:14 GMT-0600 (Central Standard Time),218165.1000000015,165_m_m_h_a.png,O,m,1338,16,1,2359.60000000149,215805.5,7062,VNB,A,15
13,test,2,0.0,1-Back,1,m,Fri Feb 21 2025 16:22:14 GMT-0600 (Central Standard Time),219880.80000000075,124_o_f_d_a.png,O,m,692,17,1,1709.0999999977648,218171.70000000298,7062,VNB,A,16
14,test,2,1.0,1-Back,1,z,Fri Feb 21 2025 16:22:14 GMT-0600 (Central Standard Time),221514.0,039_o_m_d_a.png,O,z,616,18,1,1626.699999999255,219887.30000000075,7062,VNB,A,17
0,test,3,1.0,1-Back,,,Fri Feb 21 2025 16:22:14 GMT-0600 (Central Standard Time),221514.0,124_o_f_h_a.png,O,space,1215,1,1,1626.699999999255,219887.30000000075,7062,VNB,A,0
1,test,3,0.0,1-Back,1,m,Fri Feb 21 2025 16:22:14 GMT-0600 (Central Standard Time),226428.90000000224,139_m_f_d_a.png,O,m,622,2,1,1642.9000000022352,224786.0,7062,VNB,A,1
2,test,3,1.0,1-Back,1,m,Fri Feb 21 2025 16:22:14 GMT-0600 (Central Standard Time),228461.70000000298,165_m_m_n_a.png,O,m,1004,3,1,2026.1000000014901,226435.6000000015,7062,VNB,A,2
3,test,3,0.0,1-Back,1,z,Fri Feb 21 2025 16:22:14 GMT-0600 (Central Standard Time),230177.80000000075,124_o_f_n_a.png,O,z,699,4,1,1709.5,228468.30000000075,7062,VNB,A,3
4,test,3,1.0,1-Back,1,m,Fri Feb 21 2025 16:22:14 GMT-0600 (Central Standard Time),231943.70000000298,039_o_m_d_a.png,O,m,743,5,1,1759.6000000014901,230184.1000000015,7062,VNB,A,4
5,test,3,0.0,1-Back,1,m,Fri Feb 21 2025 16:22:14 GMT-0600 (Central Standard Time),233809.80000000075,071_y_f_h_a.png,O,m,841,6,1,1859.800000000745,231950.0,7062,VNB,A,5
6,test,3,0.0,1-Back,1,z,Fri Feb 21 2025 16:22:14 GMT-0600 (Central Standard Time),235725.90000000224,109_y_m_h_a.png,O,z,895,7,1,1909.4000000022352,233816.5,7062,VNB,A,6
7,test,3,0.0,1-Back,1,m,Fri Feb 21 2025 16:22:14 GMT-0600 (Central Standard Time),237392.30000000075,139_m_f_n_a.png,O,m,643,8,1,1660.0,235732.30000000075,7062,VNB,A,7
8,test,3,0.0,1-Back,1,m,Fri Feb 21 2025 16:22:14 GMT-0600 (Central Standard Time),239574.70000000298,071_y_f_d_a.png,O,m,1153,9,1,2176.300000000745,237398.40000000224,7062,VNB,A,8
9,test,3,1.0,1-Back,1,m,Fri Feb 21 2025 16:22:14 GMT-0600 (Central Standard Time),241457.70000000298,039_o_m_n_a.png,O,m,857,10,1,1876.5,239581.20000000298,7062,VNB,A,9
10,test,3,0.0,1-Back,1,m,Fri Feb 21 2025 16:22:14 GMT-0600 (Central Standard Time),243356.90000000224,165_m_m_h_a.png,O,m,879,11,1,1892.4000000022352,241464.5,7062,VNB,A,10
11,test,3,0.0,1-Back,1,z,Fri Feb 21 2025 16:22:14 GMT-0600 (Central Standard Time),244956.6000000015,139_m_f_h_a.png,O,z,580,12,1,1592.5,243364.1000000015,7062,VNB,A,11
12,test,3,1.0,1-Back,1,m,Fri Feb 21 2025 16:22:14 GMT-0600 (Central Standard Time),246622.80000000075,124_o_f_d_a.png,O,m,637,13,1,1660.0,244962.80000000075,7062,VNB,A,12
13,test,3,0.0,1-Back,1,z,Fri Feb 21 2025 16:22:14 GMT-0600 (Central Standard Time),248571.90000000224,165_m_m_d_a.png,O,z,923,14,1,1943.0,246628.90000000224,7062,VNB,A,13
14,test,3,0.0,1-Back,1,m,Fri Feb 21 2025 16:22:14 GMT-0600 (Central Standard Time),250271.6000000015,109_y_m_n_a.png,O,m,677,15,1,1693.0,248578.6000000015,7062,VNB,A,14
15,test,3,1.0,1-Back,1,m,Fri Feb 21 2025 16:22:14 GMT-0600 (Central Standard Time),252104.30000000075,039_o_m_h_a.png,O,m,801,16,1,1826.300000000745,250278.0,7062,VNB,A,15
16,test,3,0.0,1-Back,1,m,Fri Feb 21 2025 16:22:14 GMT-0600 (Central Standard Time),254203.70000000298,109_y_m_d_a.png,O,m,1073,17,1,2092.800000000745,252110.90000000224,7062,VNB,A,16
17,test,3,1.0,1-Back,1,m,Fri Feb 21 2025 16:22:14 GMT-0600 (Central Standard Time),256003.20000000298,071_y_f_n_a.png,O,m,773,18,1,1792.9000000022352,254210.30000000075,7062,VNB,A,17
0,test,4,1.0,1-Back,,,Fri Feb 21 2025 16:22:14 GMT-0600 (Central Standard Time),256003.20000000298,165_m_m_d_a.png,O,space,1070,1,1,1792.9000000022352,254210.30000000075,7062,VNB,A,0
1,test,4,0.0,1-Back,1,z,Fri Feb 21 2025 16:22:14 GMT-0600 (Central Standard Time),260751.5,039_o_m_d_a.png,O,z,619,2,1,1643.5999999977648,259107.90000000224,7062,VNB,A,1
2,test,4,0.0,1-Back,1,m,Fri Feb 21 2025 16:22:14 GMT-0600 (Central Standard Time),262417.6000000015,109_y_m_h_a.png,O,m,641,3,1,1659.6000000014901,260758.0,7062,VNB,A,2
3,test,4,0.0,1-Back,1,m,Fri Feb 21 2025 16:22:14 GMT-0600 (Central Standard Time),264233.90000000224,139_m_f_n_a.png,O,m,799,4,1,1809.6000000014901,262424.30000000075,7062,VNB,A,3
4,test,4,1.0,1-Back,1,m,Fri Feb 21 2025 16:22:14 GMT-0600 (Central Standard Time),266484.200000003,124_o_f_h_a.png,O,m,1223,5,1,2242.5,264241.700000003,7062,VNB,A,4
5,test,4,0.0,1-Back,1,m,Fri Feb 21 2025 16:22:14 GMT-0600 (Central Standard Time),268365.80000000075,165_m_m_n_a.png,O,m,862,6,1,1874.8999999985099,266490.90000000224,7062,VNB,A,5
6,test,4,0.0,1-Back,1,m,Fri Feb 21 2025 16:22:14 GMT-0600 (Central Standard Time),270365.200000003,109_y_m_d_a.png,O,m,979,7,1,1993.300000000745,268371.90000000224,7062,VNB,A,6
7,test,4,1.0,1-Back,1,z,Fri Feb 21 2025 16:22:14 GMT-0600 (Central Standard Time),271964.80000000075,071_y_f_d_a.png,O,z,572,8,1,1592.8999999985099,270371.90000000224,7062,VNB,A,7
8,test,4,0.0,1-Back,1,m,Fri Feb 21 2025 16:22:14 GMT-0600 (Central Standard Time),273747.6000000015,139_m_f_h_a.png,O,m,764,9,1,1776.1000000014901,271971.5,7062,VNB,A,8
9,test,4,0.0,1-Back,1,z,Fri Feb 21 2025 16:22:14 GMT-0600 (Central Standard Time),275463.700000003,039_o_m_h_a.png,O,z,694,10,1,1709.4000000022352,273754.30000000075,7062,VNB,A,9
10,test,4,1.0,1-Back,1,m,Fri Feb 21 2025 16:22:14 GMT-0600 (Central Standard Time),277146.30000000075,124_o_f_n_a.png,O,m,666,11,1,1675.199999999255,275471.1000000015,7062,VNB,A,10
11,test,4,0.0,1-Back,1,m,Fri Feb 21 2025 16:22:14 GMT-0600 (Central Standard Time),278845.90000000224,139_m_f_d_a.png,O,m,679,12,1,1693.4000000022352,277152.5,7062,VNB,A,11
12,test,4,0.0,1-Back,1,m,Fri Feb 21 2025 16:22:14 GMT-0600 (Central Standard Time),280478.700000003,071_y_f_n_a.png,O,m,611,13,1,1626.4000000022352,278852.30000000075,7062,VNB,A,12
13,test,4,0.0,1-Back,1,m,Fri Feb 21 2025 16:22:14 GMT-0600 (Central Standard Time),282261.6000000015,124_o_f_d_a.png,O,m,709,14,1,1776.300000000745,280485.30000000075,7062,VNB,A,13
14,test,4,0.0,1-Back,1,m,Fri Feb 21 2025 16:22:14 GMT-0600 (Central Standard Time),283894.40000000224,071_y_f_h_a.png,O,m,612,15,1,1625.699999999255,282268.700000003,7062,VNB,A,14
15,test,4,1.0,1-Back,1,z,Fri Feb 21 2025 16:22:14 GMT-0600 (Central Standard Time),285493.700000003,165_m_m_h_a.png,O,z,579,16,1,1593.2000000029802,283900.5,7062,VNB,A,15
16,test,4,0.0,1-Back,1,m,Fri Feb 21 2025 16:22:14 GMT-0600 (Central Standard Time),287143.40000000224,039_o_m_n_a.png,O,m,627,17,1,1643.199999999255,285500.200000003,7062,VNB,A,16
17,test,4,1.0,1-Back,1,z,Fri Feb 21 2025 16:22:14 GMT-0600 (Central Standard Time),289142.700000003,109_y_m_n_a.png,O,z,978,18,1,1992.7000000029802,287150.0,7062,VNB,A,17
0,test,5,1.0,1-Back,,,Fri Feb 21 2025 16:22:14 GMT-0600 (Central Standard Time),289142.700000003,039_o_m_n_a.png,O,space,995,1,1,1992.7000000029802,287150.0,7062,VNB,A,0
1,test,5,1.0,1-Back,1,m,Fri Feb 21 2025 16:22:14 GMT-0600 (Central Standard Time),293808.0,124_o_f_h_a.png,O,m,619,2,1,1643.5,292164.5,7062,VNB,A,1
2,test,5,0.0,1-Back,1,m,Fri Feb 21 2025 16:22:14 GMT-0600 (Central Standard Time),295524.0,109_y_m_d_a.png,O,m,697,3,1,1709.7999999970198,293814.200000003,7062,VNB,A,2
3,test,5,0.0,1-Back,1,z,Fri Feb 21 2025 16:22:14 GMT-0600 (Central Standard Time),297273.6000000015,039_o_m_d_a.png,O,z,725,4,1,1742.8999999985099,295530.700000003,7062,VNB,A,3
4,test,5,0.0,1-Back,1,m,Fri Feb 21 2025 16:22:14 GMT-0600 (Central Standard Time),298922.80000000075,139_m_f_h_a.png,O,m,632,5,1,1642.800000000745,297280.0,7062,VNB,A,4
5,test,5,0.0,1-Back,1,m,Fri Feb 21 2025 16:22:14 GMT-0600 (Central Standard Time),300872.6000000015,071_y_f_n_a.png,O,m,918,6,1,1943.699999999255,298928.90000000224,7062,VNB,A,5
6,test,5,1.0,1-Back,1,z,Fri Feb 21 2025 16:22:14 GMT-0600 (Central Standard Time),302588.80000000075,124_o_f_n_a.png,O,z,689,7,1,1709.800000000745,300879.0,7062,VNB,A,6
7,test,5,0.0,1-Back,1,m,Fri Feb 21 2025 16:22:14 GMT-0600 (Central Standard Time),304537.90000000224,139_m_f_d_a.png,O,m,925,8,1,1942.6000000014901,302595.30000000075,7062,VNB,A,7
8,test,5,0.0,1-Back,1,m,Fri Feb 21 2025 16:22:14 GMT-0600 (Central Standard Time),306304.0,109_y_m_h_a.png,O,m,736,9,1,1759.2999999970198,304544.700000003,7062,VNB,A,8
9,test,5,0.0,1-Back,1,m,Fri Feb 21 2025 16:22:14 GMT-0600 (Central Standard Time),308086.700000003,071_y_f_d_a.png,O,m,753,10,1,1776.1000000014901,306310.6000000015,7062,VNB,A,9
10,test,5,0.0,1-Back,1,m,Fri Feb 21 2025 16:22:14 GMT-0600 (Central Standard Time),309919.6000000015,165_m_m_n_a.png,O,m,802,11,1,1826.6000000014901,308093.0,7062,VNB,A,10
10,test,5,1.0,1-Back,0,z,Fri Feb 21 2025 16:22:14 GMT-0600 (Central Standard Time),311635.80000000075,139_m_f_n_a.png,O,m,698,12,1,1709.699999999255,309926.1000000015,7062,VNB,A,11
11,test,5,0.0,1-Back,1,m,Fri Feb 21 2025 16:22:14 GMT-0600 (Central Standard Time),313918.30000000075,039_o_m_h_a.png,O,m,1254,13,1,2276.0,311642.30000000075,7062,VNB,A,12
12,test,5,0.0,1-Back,1,z,Fri Feb 21 2025 16:22:14 GMT-0600 (Central Standard Time),315601.1000000015,165_m_m_h_a.png,O,z,659,14,1,1676.300000000745,313924.80000000075,7062,VNB,A,13
13,test,5,1.0,1-Back,1,m,Fri Feb 21 2025 16:22:14 GMT-0600 (Central Standard Time),317650.5,124_o_f_d_a.png,O,m,1032,15,1,2043.3999999985099,315607.1000000015,7062,VNB,A,14
14,test,5,0.0,1-Back,1,m,Fri Feb 21 2025 16:22:14 GMT-0600 (Central Standard Time),319633.30000000075,109_y_m_n_a.png,O,m,959,16,1,1976.5999999977648,317656.700000003,7062,VNB,A,15
15,test,5,0.0,1-Back,1,m,Fri Feb 21 2025 16:22:14 GMT-0600 (Central Standard Time),321415.700000003,071_y_f_h_a.png,O,m,752,17,1,1776.1000000014901,319639.6000000015,7062,VNB,A,16
16,test,5,0.0,1-Back,1,m,Fri Feb 21 2025 16:22:14 GMT-0600 (Central Standard Time),323698.6000000015,165_m_m_d_a.png,O,m,1257,18,1,2276.5,321422.1000000015,7062,VNB,A,17
0,prac,1,0.0,2-Back,,,Fri Feb 21 2025 16:22:14 GMT-0600 (Central Standard Time),323698.6000000015,139_m_f_n_a.png,O,space,5300,1,1,2276.5,321422.1000000015,7062,VNB,A,0
0,prac,1,0.0,2-Back,,,Fri Feb 21 2025 16:22:14 GMT-0600 (Central Standard Time),323698.6000000015,124_o_f_h_a.png,O,space,5300,2,1,2276.5,321422.1000000015,7062,VNB,A,0
1,prac,1,0.0,2-Back,1,m,Fri Feb 21 2025 16:22:14 GMT-0600 (Central Standard Time),440778.700000003,039_o_m_d_a.png,O,m,1632,3,1,2424.7000000029802,438354.0,7062,VNB,A,1
1,prac,1,1.0,2-Back,0,z,Fri Feb 21 2025 16:22:14 GMT-0600 (Central Standard Time),443594.5,165_m_m_h_a.png,O,None,2016,4,1,2808.0,440786.5,7062,VNB,A,2
1,prac,1,0.0,2-Back,0,m,Fri Feb 21 2025 16:22:14 GMT-0600 (Central Standard Time),446504.80000000075,071_y_f_n_a.png,O,None,2015,5,1,2902.199999999255,443602.6000000015,7062,VNB,A,3
2,prac,1,1.0,2-Back,1,z,Fri Feb 21 2025 16:22:14 GMT-0600 (Central Standard Time),449176.1000000015,039_o_m_h_a.png,O,z,1845,6,1,2660.39999999851,446515.700000003,7062,VNB,A,4
2,prac,1,1.0,2-Back,0,z,Fri Feb 21 2025 16:22:14 GMT-0600 (Central Standard Time),450960.200000003,109_y_m_n_a.png,O,m,978,7,1,1776.1000000014901,449184.1000000015,7062,VNB,A,5
3,prac,1,0.0,2-Back,1,m,Fri Feb 21 2025 16:22:14 GMT-0600 (Central Standard Time),453658.1000000015,139_m_f_d_a.png,O,m,1896,8,1,2690.0,450968.1000000015,7062,VNB,A,6
4,prac,1,0.0,2-Back,1,m,Fri Feb 21 2025 16:22:14 GMT-0600 (Central Standard Time),455840.700000003,124_o_f_d_a.png,O,m,1336,9,1,2174.7000000029802,453666.0,7062,VNB,A,7
5,prac,1,0.0,2-Back,1,m,Fri Feb 21 2025 16:22:14 GMT-0600 (Central Standard Time),457690.40000000224,165_m_m_h_a.png,O,m,1065,10,1,1841.9000000022352,455848.5,7062,VNB,A,8
6,prac,1,1.0,2-Back,1,z,Fri Feb 21 2025 16:22:14 GMT-0600 (Central Standard Time),459339.700000003,071_y_f_d_a.png,O,z,840,11,1,1642.0,457697.700000003,7062,VNB,A,9
7,prac,1,0.0,2-Back,1,m,Fri Feb 21 2025 16:22:14 GMT-0600 (Central Standard Time),462005.5,039_o_m_n_a.png,O,m,1854,12,1,2657.7999999970198,459347.700000003,7062,VNB,A,10
0,prac,2,0.0,2-Back,,,Fri Feb 21 2025 16:22:14 GMT-0600 (Central Standard Time),462005.5,139_m_f_n_a.png,O,a,5513,1,1,2657.7999999970198,459347.700000003,7062,VNB,A,0
0,prac,2,0.0,2-Back,,,Fri Feb 21 2025 16:22:14 GMT-0600 (Central Standard Time),462005.5,124_o_f_h_a.png,O,a,5513,2,1,2657.7999999970198,459347.700000003,7062,VNB,A,0
1,prac,2,0.0,2-Back,1,m,Fri Feb 21 2025 16:22:14 GMT-0600 (Central Standard Time),474901.40000000224,039_o_m_d_a.png,O,m,1446,3,1,2241.400000002235,472660.0,7062,VNB,A,1
2,prac,2,1.0,2-Back,1,z,Fri Feb 21 2025 16:22:14 GMT-0600 (Central Standard Time),477584.0,165_m_m_h_a.png,O,z,1892,4,1,2674.599999997765,474909.40000000224,7062,VNB,A,2
3,prac,2,0.0,2-Back,1,m,Fri Feb 21 2025 16:22:14 GMT-0600 (Central Standard Time),480199.90000000224,071_y_f_n_a.png,O,m,1808,5,1,2608.10000000149,477591.80000000075,7062,VNB,A,3
4,prac,2,1.0,2-Back,1,z,Fri Feb 21 2025 16:22:14 GMT-0600 (Central Standard Time),482848.90000000224,039_o_m_h_a.png,O,z,1842,6,1,2640.60000000149,480208.30000000075,7062,VNB,A,4
4,prac,2,1.0,2-Back,0,z,Fri Feb 21 2025 16:22:14 GMT-0600 (Central Standard Time),485431.6000000015,109_y_m_n_a.png,O,m,1762,7,1,2575.0,482856.6000000015,7062,VNB,A,5
4,prac,2,0.0,2-Back,0,m,Fri Feb 21 2025 16:22:14 GMT-0600 (Central Standard Time),488247.200000003,139_m_f_d_a.png,O,None,2018,8,1,2808.300000000745,485438.90000000224,7062,VNB,A,6
5,prac,2,0.0,2-Back,1,m,Fri Feb 21 2025 16:22:14 GMT-0600 (Central Standard Time),490430.0,124_o_f_d_a.png,O,m,1348,9,1,2175.099999997765,488254.90000000224,7062,VNB,A,7
6,prac,2,0.0,2-Back,1,m,Fri Feb 21 2025 16:22:14 GMT-0600 (Central Standard Time),492512.6000000015,165_m_m_h_a.png,O,m,1308,10,1,2074.89999999851,490437.700000003,7062,VNB,A,8
7,prac,2,1.0,2-Back,1,z,Fri Feb 21 2025 16:22:14 GMT-0600 (Central Standard Time),494695.1000000015,071_y_f_d_a.png,O,z,1377,11,1,2174.60000000149,492520.5,7062,VNB,A,9
8,prac,2,0.0,2-Back,1,m,Fri Feb 21 2025 16:22:14 GMT-0600 (Central Standard Time),497277.90000000224,039_o_m_n_a.png,O,m,1772,12,1,2575.60000000149,494702.30000000075,7062,VNB,A,10
0,test,1,0.0,2-Back,,,Fri Feb 21 2025 16:22:14 GMT-0600 (Central Standard Time),497277.90000000224,109_y_m_h_a.png,O,space,12367,1,1,2575.60000000149,494702.30000000075,7062,VNB,A,0
0,test,1,0.0,2-Back,,,Fri Feb 21 2025 16:22:14 GMT-0600 (Central Standard Time),497277.90000000224,124_o_f_n_a.png,O,space,12367,2,1,2575.60000000149,494702.30000000075,7062,VNB,A,0
1,test,1,0.0,2-Back,1,z,Fri Feb 21 2025 16:22:14 GMT-0600 (Central Standard Time),523019.700000003,039_o_m_h_a.png,O,z,1023,3,1,2042.6000000014901,520977.1000000015,7062,VNB,A,1
1,test,1,0.0,2-Back,0,m,Fri Feb 21 2025 16:22:14 GMT-0600 (Central Standard Time),526052.1000000015,139_m_f_d_a.png,O,None,2015,4,1,3025.300000000745,523026.80000000075,7062,VNB,A,2
1,test,1,1.0,2-Back,0,m,Fri Feb 21 2025 16:22:14 GMT-0600 (Central Standard Time),529084.6000000015,109_y_m_n_a.png,O,None,2015,5,1,3025.89999999851,526058.700000003,7062,VNB,A,3
1,test,1,0.0,2-Back,0,z,Fri Feb 21 2025 16:22:14 GMT-0600 (Central Standard Time),532117.0,071_y_f_d_a.png,O,None,2016,6,1,3025.7999999970198,529091.200000003,7062,VNB,A,4
2,test,1,0.0,2-Back,1,m,Fri Feb 21 2025 16:22:14 GMT-0600 (Central Standard Time),534715.9000000022,165_m_m_h_a.png,O,m,1572,7,1,2592.400000002235,532123.5,7062,VNB,A,5
2,test,1,1.0,2-Back,0,m,Fri Feb 21 2025 16:22:14 GMT-0600 (Central Standard Time),536832.1000000015,071_y_f_n_a.png,O,z,1093,8,1,2109.10000000149,534723.0,7062,VNB,A,6
3,test,1,0.0,2-Back,1,z,Fri Feb 21 2025 16:22:14 GMT-0600 (Central Standard Time),538599.3000000007,124_o_f_h_a.png,O,z,737,9,1,1759.8999999985099,536839.4000000022,7062,VNB,A,7
4,test,1,0.0,2-Back,1,m,Fri Feb 21 2025 16:22:14 GMT-0600 (Central Standard Time),540897.200000003,039_o_m_d_a.png,O,m,1267,10,1,2291.0,538606.200000003,7062,VNB,A,8
5,test,1,1.0,2-Back,1,m,Fri Feb 21 2025 16:22:14 GMT-0600 (Central Standard Time),543180.0,165_m_m_d_a.png,O,m,1263,11,1,2275.699999999255,540904.3000000007,7062,VNB,A,9
6,test,1,0.0,2-Back,1,m,Fri Feb 21 2025 16:22:14 GMT-0600 (Central Standard Time),545346.1000000015,139_m_f_n_a.png,O,m,1149,12,1,2159.39999999851,543186.700000003,7062,VNB,A,10
7,test,1,0.0,2-Back,1,m,Fri Feb 21 2025 16:22:14 GMT-0600 (Central Standard Time),547662.0,071_y_f_h_a.png,O,m,1295,13,1,2309.5,545352.5,7062,VNB,A,11
8,test,1,0.0,2-Back,1,z,Fri Feb 21 2025 16:22:14 GMT-0600 (Central Standard Time),549294.8000000007,165_m_m_n_a.png,O,z,611,14,1,1625.8999999985099,547668.9000000022,7062,VNB,A,12
9,test,1,0.0,2-Back,1,m,Fri Feb 21 2025 16:22:14 GMT-0600 (Central Standard Time),551827.3000000007,109_y_m_d_a.png,O,m,1514,15,1,2526.099999997765,549301.200000003,7062,VNB,A,13
10,test,1,1.0,2-Back,1,m,Fri Feb 21 2025 16:22:14 GMT-0600 (Central Standard Time),554093.5,139_m_f_h_a.png,O,m,1246,16,1,2259.099999997765,551834.4000000022,7062,VNB,A,14
11,test,1,0.0,2-Back,1,z,Fri Feb 21 2025 16:22:14 GMT-0600 (Central Standard Time),556376.0,124_o_f_d_a.png,O,z,1260,17,1,2276.2999999970198,554099.700000003,7062,VNB,A,15
11,test,1,0.0,2-Back,0,m,Fri Feb 21 2025 16:22:14 GMT-0600 (Central Standard Time),558875.0,039_o_m_n_a.png,O,z,1481,18,1,2492.099999997765,556382.9000000022,7062,VNB,A,16
0,test,2,0.0,2-Back,,,Fri Feb 21 2025 16:22:14 GMT-0600 (Central Standard Time),558875.0,165_m_m_h_a.png,O,space,1151,1,1,2492.099999997765,556382.9000000022,7062,VNB,A,0
0,test,2,0.0,2-Back,,,Fri Feb 21 2025 16:22:14 GMT-0600 (Central Standard Time),558875.0,071_y_f_n_a.png,O,space,1151,2,1,2492.099999997765,556382.9000000022,7062,VNB,A,0
1,test,2,1.0,2-Back,1,z,Fri Feb 21 2025 16:22:14 GMT-0600 (Central Standard Time),566807.1000000015,124_o_f_h_a.png,O,z,662,3,1,1677.8999999985099,565129.200000003,7062,VNB,A,1
2,test,2,0.0,2-Back,1,m,Fri Feb 21 2025 16:22:14 GMT-0600 (Central Standard Time),568872.0,039_o_m_d_a.png,O,m,1035,4,1,2058.2999999970198,566813.700000003,7062,VNB,A,2
3,test,2,0.0,2-Back,1,m,Fri Feb 21 2025 16:22:14 GMT-0600 (Central Standard Time),571621.0,139_m_f_d_a.png,O,m,1721,5,1,2742.0,568879.0,7062,VNB,A,3
3,test,2,0.0,2-Back,0,m,Fri Feb 21 2025 16:22:14 GMT-0600 (Central Standard Time),574653.700000003,109_y_m_h_a.png,O,None,2016,6,1,3025.900000002235,571627.8000000007,7062,VNB,A,4
4,test,2,0.0,2-Back,1,m,Fri Feb 21 2025 16:22:14 GMT-0600 (Central Standard Time),576869.4000000022,124_o_f_n_a.png,O,m,1196,7,1,2208.900000002235,574660.5,7062,VNB,A,5
5,test,2,1.0,2-Back,1,z,Fri Feb 21 2025 16:22:14 GMT-0600 (Central Standard Time),578669.200000003,039_o_m_h_a.png,O,z,772,8,1,1793.1000000014901,576876.1000000015,7062,VNB,A,6
6,test,2,0.0,2-Back,1,m,Fri Feb 21 2025 16:22:14 GMT-0600 (Central Standard Time),581118.3000000007,071_y_f_d_a.png,O,m,1420,9,1,2442.5,578675.8000000007,7062,VNB,A,7
7,test,2,0.0,2-Back,1,m,Fri Feb 21 2025 16:22:14 GMT-0600 (Central Standard Time),583600.9000000022,109_y_m_d_a.png,O,m,1451,10,1,2475.699999999255,581125.200000003,7062,VNB,A,8
8,test,2,0.0,2-Back,1,m,Fri Feb 21 2025 16:22:14 GMT-0600 (Central Standard Time),585851.1000000015,165_m_m_n_a.png,O,m,1217,11,1,2243.800000000745,583607.3000000007,7062,VNB,A,9
9,test,2,0.0,2-Back,1,m,Fri Feb 21 2025 16:22:14 GMT-0600 (Central Standard Time),587949.200000003,139_m_f_h_a.png,O,m,1079,12,1,2090.7000000029802,585858.5,7062,VNB,A,10
9,test,2,1.0,2-Back,0,z,Fri Feb 21 2025 16:22:14 GMT-0600 (Central Standard Time),590982.0,039_o_m_n_a.png,O,None,2016,13,1,3026.099999997765,587955.9000000022,7062,VNB,A,11
9,test,2,0.0,2-Back,0,m,Fri Feb 21 2025 16:22:14 GMT-0600 (Central Standard Time),593481.0,124_o_f_d_a.png,O,z,1475,14,1,2492.599999997765,590988.4000000022,7062,VNB,A,12
9,test,2,0.0,2-Back,0,m,Fri Feb 21 2025 16:22:14 GMT-0600 (Central Standard Time),596513.5,071_y_f_h_a.png,O,None,2016,15,1,3025.2999999970198,593488.200000003,7062,VNB,A,13
9,test,2,0.0,2-Back,0,z,Fri Feb 21 2025 16:22:14 GMT-0600 (Central Standard Time),598596.200000003,165_m_m_d_a.png,O,m,1064,16,1,2075.7000000029802,596520.5,7062,VNB,A,14
10,test,2,0.0,2-Back,1,m,Fri Feb 21 2025 16:22:14 GMT-0600 (Central Standard Time),601594.9000000022,109_y_m_n_a.png,O,m,1981,17,1,2991.60000000149,598603.3000000007,7062,VNB,A,15
11,test,2,1.0,2-Back,1,m,Fri Feb 21 2025 16:22:14 GMT-0600 (Central Standard Time),604010.700000003,139_m_f_n_a.png,O,m,1398,18,1,2408.900000002235,601601.8000000007,7062,VNB,A,16
0,test,3,1.0,2-Back,,,Fri Feb 21 2025 16:22:14 GMT-0600 (Central Standard Time),604010.700000003,039_o_m_n_a.png,O,space,991,1,1,2408.900000002235,601601.8000000007,7062,VNB,A,0
0,test,3,1.0,2-Back,,,Fri Feb 21 2025 16:22:14 GMT-0600 (Central Standard Time),604010.700000003,124_o_f_d_a.png,O,space,991,2,1,2408.900000002235,601601.8000000007,7062,VNB,A,0
1,test,3,0.0,2-Back,1,m,Fri Feb 21 2025 16:22:14 GMT-0600 (Central Standard Time),612075.9000000022,071_y_f_h_a.png,O,m,998,3,1,2009.699999999255,610066.200000003,7062,VNB,A,1
2,test,3,0.0,2-Back,1,z,Fri Feb 21 2025 16:22:14 GMT-0600 (Central Standard Time),613941.5,139_m_f_d_a.png,O,z,838,4,1,1859.0999999977648,612082.4000000022,7062,VNB,A,2
3,test,3,1.0,2-Back,1,m,Fri Feb 21 2025 16:22:14 GMT-0600 (Central Standard Time),616090.6000000015,109_y_m_n_a.png,O,m,1124,5,1,2141.699999999255,613948.9000000022,7062,VNB,A,3
3,test,3,0.0,2-Back,0,m,Fri Feb 21 2025 16:22:14 GMT-0600 (Central Standard Time),618339.8000000007,039_o_m_h_a.png,O,z,1231,6,1,2242.300000000745,616097.5,7062,VNB,A,4
3,test,3,0.0,2-Back,0,z,Fri Feb 21 2025 16:22:14 GMT-0600 (Central Standard Time),621372.4000000022,071_y_f_n_a.png,O,None,2014,7,1,3025.60000000149,618346.8000000007,7062,VNB,A,5
4,test,3,1.0,2-Back,1,m,Fri Feb 21 2025 16:22:14 GMT-0600 (Central Standard Time),624038.1000000015,165_m_m_d_a.png,O,m,1637,8,1,2658.800000000745,621379.3000000007,7062,VNB,A,6
5,test,3,0.0,2-Back,1,m,Fri Feb 21 2025 16:22:14 GMT-0600 (Central Standard Time),626287.5,109_y_m_d_a.png,O,m,1219,9,1,2243.0,624044.5,7062,VNB,A,7
6,test,3,0.0,2-Back,1,m,Fri Feb 21 2025 16:22:14 GMT-0600 (Central Standard Time),628586.700000003,124_o_f_h_a.png,O,m,1282,10,1,2292.7000000029802,626294.0,7062,VNB,A,8
7,test,3,1.0,2-Back,1,m,Fri Feb 21 2025 16:22:14 GMT-0600 (Central Standard Time),630652.9000000022,139_m_f_n_a.png,O,m,1039,11,1,2059.0,628593.9000000022,7062,VNB,A,9
7,test,3,1.0,2-Back,0,z,Fri Feb 21 2025 16:22:14 GMT-0600 (Central Standard Time),633485.3000000007,165_m_m_h_a.png,O,m,1813,12,1,2825.199999999255,630660.1000000015,7062,VNB,A,10
8,test,3,0.0,2-Back,1,m,Fri Feb 21 2025 16:22:14 GMT-0600 (Central Standard Time),635784.4000000022,071_y_f_d_a.png,O,m,1268,13,1,2292.0,633492.4000000022,7062,VNB,A,11
9,test,3,0.0,2-Back,1,m,Fri Feb 21 2025 16:22:14 GMT-0600 (Central Standard Time),638017.200000003,124_o_f_n_a.png,O,m,1209,14,1,2226.2000000029802,635791.0,7062,VNB,A,12
10,test,3,0.0,2-Back,1,z,Fri Feb 21 2025 16:22:14 GMT-0600 (Central Standard Time),639783.200000003,039_o_m_d_a.png,O,z,736,15,1,1759.5,638023.700000003,7062,VNB,A,13
11,test,3,1.0,2-Back,1,m,Fri Feb 21 2025 16:22:14 GMT-0600 (Central Standard Time),642149.0,139_m_f_h_a.png,O,m,1346,16,1,2358.89999999851,639790.1000000015,7062,VNB,A,14
12,test,3,0.0,2-Back,1,m,Fri Feb 21 2025 16:22:14 GMT-0600 (Central Standard Time),644381.9000000022,165_m_m_n_a.png,O,m,1204,17,1,2226.199999999255,642155.700000003,7062,VNB,A,15
13,test,3,0.0,2-Back,1,z,Fri Feb 21 2025 16:22:14 GMT-0600 (Central Standard Time),646164.5,109_y_m_h_a.png,O,z,763,18,1,1776.3999999985099,644388.1000000015,7062,VNB,A,16
0,test,4,0.0,2-Back,,,Fri Feb 21 2025 16:22:14 GMT-0600 (Central Standard Time),646164.5,139_m_f_n_a.png,O,space,1029,1,1,1776.3999999985099,644388.1000000015,7062,VNB,A,0
0,test,4,0.0,2-Back,,,Fri Feb 21 2025 16:22:14 GMT-0600 (Central Standard Time),646164.5,039_o_m_n_a.png,O,space,1029,2,1,1776.3999999985099,644388.1000000015,7062,VNB,A,0
1,test,4,1.0,2-Back,1,m,Fri Feb 21 2025 16:22:14 GMT-0600 (Central Standard Time),654445.200000003,109_y_m_h_a.png,O,m,1162,3,1,2175.800000000745,652269.4000000022,7062,VNB,A,1
1,test,4,1.0,2-Back,0,m,Fri Feb 21 2025 16:22:14 GMT-0600 (Central Standard Time),657477.9000000022,124_o_f_d_a.png,O,None,2016,4,1,3025.900000002235,654452.0,7062,VNB,A,2
2,test,4,0.0,2-Back,1,z,Fri Feb 21 2025 16:22:14 GMT-0600 (Central Standard Time),659510.4000000022,039_o_m_h_a.png,O,z,1004,5,1,2025.6000000014901,657484.8000000007,7062,VNB,A,3
3,test,4,0.0,2-Back,1,m,Fri Feb 21 2025 16:22:14 GMT-0600 (Central Standard Time),661992.9000000022,165_m_m_n_a.png,O,m,1451,6,1,2475.60000000149,659517.3000000007,7062,VNB,A,4
4,test,4,0.0,2-Back,1,m,Fri Feb 21 2025 16:22:14 GMT-0600 (Central Standard Time),664525.3000000007,139_m_f_d_a.png,O,m,1504,7,1,2525.800000000745,661999.5,7062,VNB,A,5
5,test,4,0.0,2-Back,1,z,Fri Feb 21 2025 16:22:14 GMT-0600 (Central Standard Time),666391.6000000015,071_y_f_n_a.png,O,z,844,8,1,1857.8999999985099,664533.700000003,7062,VNB,A,6
6,test,4,1.0,2-Back,1,m,Fri Feb 21 2025 16:22:14 GMT-0600 (Central Standard Time),668457.700000003,124_o_f_h_a.png,O,m,1034,9,1,2059.400000002235,666398.3000000007,7062,VNB,A,7
7,test,4,0.0,2-Back,1,m,Fri Feb 21 2025 16:22:14 GMT-0600 (Central Standard Time),670773.5,165_m_m_h_a.png,O,m,1288,10,1,2309.0,668464.5,7062,VNB,A,8
8,test,4,0.0,2-Back,1,m,Fri Feb 21 2025 16:22:14 GMT-0600 (Central Standard Time),672756.200000003,071_y_f_d_a.png,O,m,963,11,1,1976.2000000029802,670780.0,7062,VNB,A,9
9,test,4,0.0,2-Back,1,m,Fri Feb 21 2025 16:22:14 GMT-0600 (Central Standard Time),675322.1000000015,109_y_m_n_a.png,O,m,1533,12,1,2559.10000000149,672763.0,7062,VNB,A,10
10,test,4,0.0,2-Back,1,z,Fri Feb 21 2025 16:22:14 GMT-0600 (Central Standard Time),677254.8000000007,039_o_m_d_a.png,O,z,903,13,1,1925.8999999985099,675328.9000000022,7062,VNB,A,11
11,test,4,1.0,2-Back,1,m,Fri Feb 21 2025 16:22:14 GMT-0600 (Central Standard Time),679970.700000003,139_m_f_h_a.png,O,m,1691,14,1,2709.0,677261.700000003,7062,VNB,A,12
12,test,4,1.0,2-Back,1,m,Fri Feb 21 2025 16:22:14 GMT-0600 (Central Standard Time),682453.200000003,071_y_f_h_a.png,O,m,1462,15,1,2475.5,679977.700000003,7062,VNB,A,13
13,test,4,0.0,2-Back,1,m,Fri Feb 21 2025 16:22:14 GMT-0600 (Central Standard Time),685335.8000000007,124_o_f_n_a.png,O,m,1860,16,1,2875.800000000745,682460.0,7062,VNB,A,14
14,test,4,0.0,2-Back,1,m,Fri Feb 21 2025 16:22:14 GMT-0600 (Central Standard Time),687768.200000003,109_y_m_d_a.png,O,m,1410,17,1,2425.10000000149,685343.1000000015,7062,VNB,A,15
15,test,4,1.0,2-Back,1,m,Fri Feb 21 2025 16:22:14 GMT-0600 (Central Standard Time),690483.8000000007,165_m_m_d_a.png,O,m,1697,18,1,2708.699999999255,687775.1000000015,7062,VNB,A,16
0,test,5,1.0,2-Back,,,Fri Feb 21 2025 16:22:14 GMT-0600 (Central Standard Time),690483.8000000007,071_y_f_d_a.png,O,space,1118,1,1,2708.699999999255,687775.1000000015,7062,VNB,A,0
0,test,5,1.0,2-Back,,,Fri Feb 21 2025 16:22:14 GMT-0600 (Central Standard Time),690483.8000000007,124_o_f_h_a.png,O,space,1118,2,1,2708.699999999255,687775.1000000015,7062,VNB,A,0
1,test,5,1.0,2-Back,1,z,Fri Feb 21 2025 16:22:14 GMT-0600 (Central Standard Time),698465.0,039_o_m_d_a.png,O,z,718,3,1,1743.0999999977648,696721.9000000022,7062,VNB,A,1
2,test,5,1.0,2-Back,1,m,Fri Feb 21 2025 16:22:14 GMT-0600 (Central Standard Time),700614.3000000007,139_m_f_n_a.png,O,m,1120,4,1,2142.199999999255,698472.1000000015,7062,VNB,A,2
3,test,5,0.0,2-Back,1,m,Fri Feb 21 2025 16:22:14 GMT-0600 (Central Standard Time),703413.3000000007,165_m_m_h_a.png,O,m,1771,5,1,2792.800000000745,700620.5,7062,VNB,A,3
4,test,5,0.0,2-Back,1,z,Fri Feb 21 2025 16:22:14 GMT-0600 (Central Standard Time),705608.1000000015,071_y_f_n_a.png,O,z,1031,6,1,2187.800000000745,703420.3000000007,7062,VNB,A,4
5,test,5,0.0,2-Back,1,m,Fri Feb 21 2025 16:22:14 GMT-0600 (Central Standard Time),707895.200000003,124_o_f_d_a.png,O,m,1253,7,1,2280.10000000149,705615.1000000015,7062,VNB,A,5
6,test,5,0.0,2-Back,1,m,Fri Feb 21 2025 16:22:14 GMT-0600 (Central Standard Time),710078.0,039_o_m_h_a.png,O,m,1162,8,1,2176.2999999970198,707901.700000003,7062,VNB,A,6
7,test,5,1.0,2-Back,1,z,Fri Feb 21 2025 16:22:14 GMT-0600 (Central Standard Time),712377.200000003,139_m_f_d_a.png,O,z,1267,9,1,2292.5,710084.700000003,7062,VNB,A,7
8,test,5,0.0,2-Back,1,m,Fri Feb 21 2025 16:22:14 GMT-0600 (Central Standard Time),714776.3000000007,109_y_m_n_a.png,O,m,1368,10,1,2392.5,712383.8000000007,7062,VNB,A,8
9,test,5,0.0,2-Back,1,m,Fri Feb 21 2025 16:22:14 GMT-0600 (Central Standard Time),717025.700000003,165_m_m_n_a.png,O,m,1217,11,1,2242.800000000745,714782.9000000022,7062,VNB,A,9
10,test,5,0.0,2-Back,1,m,Fri Feb 21 2025 16:22:14 GMT-0600 (Central Standard Time),719441.8000000007,071_y_f_h_a.png,O,m,1383,12,1,2409.0,717032.8000000007,7062,VNB,A,10
11,test,5,0.0,2-Back,1,m,Fri Feb 21 2025 16:22:14 GMT-0600 (Central Standard Time),722274.3000000007,109_y_m_d_a.png,O,m,1816,13,1,2825.800000000745,719448.5,7062,VNB,A,11
12,test,5,1.0,2-Back,1,z,Fri Feb 21 2025 16:22:14 GMT-0600 (Central Standard Time),724006.8000000007,139_m_f_h_a.png,O,z,703,14,1,1725.699999999255,722281.1000000015,7062,VNB,A,12
12,test,5,0.0,2-Back,0,m,Fri Feb 21 2025 16:22:14 GMT-0600 (Central Standard Time),727039.5,039_o_m_n_a.png,O,None,2016,15,1,3025.89999999851,724013.6000000015,7062,VNB,A,13
13,test,5,0.0,2-Back,1,m,Fri Feb 21 2025 16:22:14 GMT-0600 (Central Standard Time),729605.0,165_m_m_d_a.png,O,m,1546,16,1,2559.0,727046.0,7062,VNB,A,14
14,test,5,0.0,2-Back,1,z,Fri Feb 21 2025 16:22:14 GMT-0600 (Central Standard Time),731304.8000000007,124_o_f_n_a.png,O,z,668,17,1,1692.800000000745,729612.0,7062,VNB,A,15
15,test,5,1.0,2-Back,1,m,Fri Feb 21 2025 16:22:14 GMT-0600 (Central Standard Time),733820.6000000015,109_y_m_h_a.png,O,m,1496,18,1,2508.699999999255,731311.9000000022,7062,VNB,A,16
