block_c,block_dur,condition,countdown,datetime,endtime,list,multichar_response,project,response,response_time,session_number,start_end,starttime,subject_id,task,task_vers,trial
,,,,Wed Apr 16 2025 12:47:05 GMT-0500 (Central Daylight Time),,,,I,space,1160,2,,,8022,WL,B,
prac,,0,,Wed Apr 16 2025 12:47:05 GMT-0500 (Central Daylight Time),,NA,b,I,b,1917,2,,,8022,WL,B,1.0
prac,,0,,Wed Apr 16 2025 12:47:05 GMT-0500 (Central Daylight Time),,NA,bo,I,o,219,2,,,8022,WL,B,1.0
prac,,0,,Wed Apr 16 2025 12:47:05 GMT-0500 (Central Daylight Time),,NA,boo,I,o,164,2,,,8022,WL,B,1.0
prac,,0,,Wed Apr 16 2025 12:47:05 GMT-0500 (Central Daylight Time),,NA,boos,I,s,159,2,,,8022,WL,B,1.0
prac,,0,,Wed Apr 16 2025 12:47:05 GMT-0500 (Central Daylight Time),,NA,boost,I,t,146,2,,,8022,WL,B,1.0
prac,,0,,Wed Apr 16 2025 12:47:05 GMT-0500 (Central Daylight Time),,NA,boostenter,I,enter,2809,2,,,8022,WL,B,1.0
1,2.8329999446868896,learn,57167.00005531311,Wed Apr 16 2025 12:47:05 GMT-0500 (Central Daylight Time),140554.60000002384,A,s,I,s,2822,2,2832.0,137722.60000002384,8022,WL,B,1.0
1,3.0319998264312744,learn,56968.000173568726,Wed Apr 16 2025 12:47:05 GMT-0500 (Central Daylight Time),140753.80000001192,A,st,I,t,185,2,3031.199999988079,137722.60000002384,8022,WL,B,1.0
1,3.25,learn,56750.0,Wed Apr 16 2025 12:47:05 GMT-0500 (Central Daylight Time),140972.0,A,str,I,r,212,2,3249.399999976158,137722.60000002384,8022,WL,B,1.0
1,3.4140000343322754,learn,56585.999965667725,Wed Apr 16 2025 12:47:05 GMT-0500 (Central Daylight Time),141135.5,A,stre,I,e,143,2,3412.899999976158,137722.60000002384,8022,WL,B,1.0
1,3.7809998989105225,learn,56219.00010108948,Wed Apr 16 2025 12:47:05 GMT-0500 (Central Daylight Time),141502.80000001192,A,stree,I,e,357,2,3780.199999988079,137722.60000002384,8022,WL,B,1.0
1,3.947999954223633,learn,56052.00004577637,Wed Apr 16 2025 12:47:05 GMT-0500 (Central Daylight Time),141669.19999998808,A,street,I,t,144,2,3946.599999964237,137722.60000002384,8022,WL,B,1.0
1,4.065000057220459,learn,55934.99994277954,Wed Apr 16 2025 12:47:05 GMT-0500 (Central Daylight Time),141786.60000002384,A,streetenter,I,enter,110,2,4064.0,137722.60000002384,8022,WL,B,1.0
1,4.447999954223633,learn,55552.00004577637,Wed Apr 16 2025 12:47:05 GMT-0500 (Central Daylight Time),142169.60000002384,A,c,I,c,369,2,382.5,141787.10000002384,8022,WL,B,2.0
1,4.579999923706055,learn,55420.000076293945,Wed Apr 16 2025 12:47:05 GMT-0500 (Central Daylight Time),142301.69999998808,A,ci,I,i,112,2,514.5999999642372,141787.10000002384,8022,WL,B,2.0
1,4.713000059127808,learn,55286.99994087219,Wed Apr 16 2025 12:47:05 GMT-0500 (Central Daylight Time),142434.60000002384,A,cit,I,t,119,2,647.5,141787.10000002384,8022,WL,B,2.0
1,4.796999931335449,learn,55203.00006866455,Wed Apr 16 2025 12:47:05 GMT-0500 (Central Daylight Time),142518.5,A,city,I,y,66,2,731.3999999761581,141787.10000002384,8022,WL,B,2.0
1,5.013999938964844,learn,54986.000061035156,Wed Apr 16 2025 12:47:05 GMT-0500 (Central Daylight Time),142735.5,A,cityenter,I,enter,198,2,948.3999999761581,141787.10000002384,8022,WL,B,2.0
1,5.980000019073486,learn,54019.999980926514,Wed Apr 16 2025 12:47:05 GMT-0500 (Central Daylight Time),143701.80000001192,A,w,I,w,956,2,965.8999999761581,142735.90000003576,8022,WL,B,3.0
1,6.065000057220459,learn,53934.99994277954,Wed Apr 16 2025 12:47:05 GMT-0500 (Central Daylight Time),143786.30000001192,A,wi,I,i,70,2,1050.3999999761581,142735.90000003576,8022,WL,B,3.0
1,6.197000026702881,learn,53802.99997329712,Wed Apr 16 2025 12:47:05 GMT-0500 (Central Daylight Time),143918.90000003576,A,wif,I,f,119,2,1183.0,142735.90000003576,8022,WL,B,3.0
1,6.378999948501587,learn,53621.00005149841,Wed Apr 16 2025 12:47:05 GMT-0500 (Central Daylight Time),144100.80000001192,A,wife,I,e,173,2,1364.8999999761581,142735.90000003576,8022,WL,B,3.0
1,6.547999858856201,learn,53452.0001411438,Wed Apr 16 2025 12:47:05 GMT-0500 (Central Daylight Time),144269.5,A,wifeenter,I,enter,159,2,1533.5999999642372,142735.90000003576,8022,WL,B,3.0
1,6.783999919891357,learn,53216.00008010864,Wed Apr 16 2025 12:47:05 GMT-0500 (Central Daylight Time),144505.40000003576,A,a,I,a,215,2,235.60000002384186,144269.80000001192,8022,WL,B,4.0
1,6.930999994277954,learn,53069.000005722046,Wed Apr 16 2025 12:47:05 GMT-0500 (Central Daylight Time),144652.5,A,ar,I,r,139,2,382.69999998807907,144269.80000001192,8022,WL,B,4.0
1,7.062999963760376,learn,52937.000036239624,Wed Apr 16 2025 12:47:05 GMT-0500 (Central Daylight Time),144784.80000001192,A,arm,I,m,110,2,515.0,144269.80000001192,8022,WL,B,4.0
1,7.2799999713897705,learn,52720.00002861023,Wed Apr 16 2025 12:47:05 GMT-0500 (Central Daylight Time),145001.5,A,armenter,I,enter,201,2,731.6999999880791,144269.80000001192,8022,WL,B,4.0
1,7.514999866485596,learn,52485.000133514404,Wed Apr 16 2025 12:47:05 GMT-0500 (Central Daylight Time),145236.40000003576,A,s,I,s,228,2,234.60000002384186,145001.80000001192,8022,WL,B,5.0
1,7.697999954223633,learn,52302.00004577637,Wed Apr 16 2025 12:47:05 GMT-0500 (Central Daylight Time),145419.30000001192,A,st,I,t,159,2,417.5,145001.80000001192,8022,WL,B,5.0
1,7.86299991607666,learn,52137.00008392334,Wed Apr 16 2025 12:47:05 GMT-0500 (Central Daylight Time),145585.10000002384,A,sta,I,a,152,2,583.3000000119209,145001.80000001192,8022,WL,B,5.0
1,8.02999997138977,learn,51970.00002861023,Wed Apr 16 2025 12:47:05 GMT-0500 (Central Daylight Time),145751.80000001192,A,star,I,r,153,2,750.0,145001.80000001192,8022,WL,B,5.0
1,8.228999853134155,learn,51771.000146865845,Wed Apr 16 2025 12:47:05 GMT-0500 (Central Daylight Time),145951.0,A,starenter,I,enter,178,2,949.1999999880791,145001.80000001192,8022,WL,B,5.0
1,10.062999963760376,learn,49937.000036239624,Wed Apr 16 2025 12:47:05 GMT-0500 (Central Daylight Time),147785.10000002384,A,p,I,p,1813,2,1833.699999988079,145951.40000003576,8022,WL,B,6.0
1,10.179999828338623,learn,49820.00017166138,Wed Apr 16 2025 12:47:05 GMT-0500 (Central Daylight Time),147901.69999998808,A,pu,I,u,97,2,1950.2999999523163,145951.40000003576,8022,WL,B,6.0
1,10.36299991607666,learn,49637.00008392334,Wed Apr 16 2025 12:47:05 GMT-0500 (Central Daylight Time),148084.5,A,pup,I,p,165,2,2133.099999964237,145951.40000003576,8022,WL,B,6.0
1,10.578999996185303,learn,49421.0000038147,Wed Apr 16 2025 12:47:05 GMT-0500 (Central Daylight Time),148300.90000003576,A,pupi,I,i,199,2,2349.5,145951.40000003576,8022,WL,B,6.0
1,10.779000043869019,learn,49220.99995613098,Wed Apr 16 2025 12:47:05 GMT-0500 (Central Daylight Time),148500.69999998808,A,pupil,I,l,183,2,2549.2999999523163,145951.40000003576,8022,WL,B,6.0
1,11.179999828338623,learn,48820.00017166138,Wed Apr 16 2025 12:47:05 GMT-0500 (Central Daylight Time),148901.69999998808,A,pupilenter,I,enter,390,2,2950.2999999523163,145951.40000003576,8022,WL,B,6.0
1,14.67799997329712,learn,45322.00002670288,Wed Apr 16 2025 12:47:05 GMT-0500 (Central Daylight Time),152399.5,A,s,I,s,3486,2,3497.5,148902.0,8022,WL,B,7.0
1,14.91100001335144,learn,45088.99998664856,Wed Apr 16 2025 12:47:05 GMT-0500 (Central Daylight Time),152633.10000002384,A,st,I,t,221,2,3731.100000023842,148902.0,8022,WL,B,7.0
1,15.128000020980835,learn,44871.999979019165,Wed Apr 16 2025 12:47:05 GMT-0500 (Central Daylight Time),152849.60000002384,A,sta,I,a,204,2,3947.600000023842,148902.0,8022,WL,B,7.0
1,15.259999990463257,learn,44740.00000953674,Wed Apr 16 2025 12:47:05 GMT-0500 (Central Daylight Time),152982.10000002384,A,star,I,r,114,2,4080.100000023842,148902.0,8022,WL,B,7.0
1,15.444000005722046,learn,44555.999994277954,Wed Apr 16 2025 12:47:05 GMT-0500 (Central Daylight Time),153165.5,A,starenter,I,enter,164,2,4263.5,148902.0,8022,WL,B,7.0
1,15.66100001335144,learn,44338.99998664856,Wed Apr 16 2025 12:47:05 GMT-0500 (Central Daylight Time),153382.90000003576,A,c,I,c,207,2,217.0,153165.90000003576,8022,WL,B,8.0
1,15.794999837875366,learn,44205.000162124634,Wed Apr 16 2025 12:47:05 GMT-0500 (Central Daylight Time),153517.19999998808,A,cl,I,l,111,2,351.2999999523163,153165.90000003576,8022,WL,B,8.0
1,15.961999893188477,learn,44038.00010681152,Wed Apr 16 2025 12:47:05 GMT-0500 (Central Daylight Time),153683.90000003576,A,clo,I,o,159,2,518.0,153165.90000003576,8022,WL,B,8.0
1,16.0939998626709,learn,43906.0001373291,Wed Apr 16 2025 12:47:05 GMT-0500 (Central Daylight Time),153816.0,A,cloc,I,c,120,2,650.0999999642372,153165.90000003576,8022,WL,B,8.0
1,16.192999839782715,learn,43807.000160217285,Wed Apr 16 2025 12:47:05 GMT-0500 (Central Daylight Time),153915.0,A,clock,I,k,92,2,749.0999999642372,153165.90000003576,8022,WL,B,8.0
1,16.39299988746643,learn,43607.00011253357,Wed Apr 16 2025 12:47:05 GMT-0500 (Central Daylight Time),154114.60000002384,A,clockenter,I,enter,191,2,948.6999999880791,153165.90000003576,8022,WL,B,8.0
1,23.45799994468689,learn,36542.00005531311,Wed Apr 16 2025 12:47:05 GMT-0500 (Central Daylight Time),161180.10000002384,A,l,I,l,7058,2,7065.199999988079,154114.90000003576,8022,WL,B,9.0
1,23.62399983406067,learn,36376.00016593933,Wed Apr 16 2025 12:47:05 GMT-0500 (Central Daylight Time),161346.30000001192,A,la,I,a,152,2,7231.399999976158,154114.90000003576,8022,WL,B,9.0
1,23.740999937057495,learn,36259.000062942505,Wed Apr 16 2025 12:47:05 GMT-0500 (Central Daylight Time),161462.80000001192,A,lak,I,k,105,2,7347.899999976158,154114.90000003576,8022,WL,B,9.0
1,23.842000007629395,learn,36157.999992370605,Wed Apr 16 2025 12:47:05 GMT-0500 (Central Daylight Time),161564.19999998808,A,lake,I,e,97,2,7449.299999952316,154114.90000003576,8022,WL,B,9.0
1,24.0239999294281,learn,35976.0000705719,Wed Apr 16 2025 12:47:05 GMT-0500 (Central Daylight Time),161745.69999998808,A,lakeenter,I,enter,169,2,7630.799999952316,154114.90000003576,8022,WL,B,9.0
1,44.300999879837036,learn,15699.000120162964,Wed Apr 16 2025 12:47:05 GMT-0500 (Central Daylight Time),182023.19999998808,A,enter,I,enter,20266,2,20277.19999998808,161746.0,8022,WL,B,10.0
1,44.918999910354614,learn,15081.000089645386,Wed Apr 16 2025 12:47:05 GMT-0500 (Central Daylight Time),182640.69999998808,A,enter,I,enter,596,2,617.0999999642372,182023.60000002384,8022,WL,B,11.0
1,45.30200004577637,learn,14697.999954223633,Wed Apr 16 2025 12:47:05 GMT-0500 (Central Daylight Time),183023.69999998808,A,enter,I,enter,363,2,382.69999998807907,182641.0,8022,WL,B,12.0
1,45.651000022888184,learn,14348.999977111816,Wed Apr 16 2025 12:47:05 GMT-0500 (Central Daylight Time),183373.19999998808,A,enter,I,enter,340,2,349.0999999642372,183024.10000002384,8022,WL,B,13.0
1,46.05200004577637,learn,13947.999954223633,Wed Apr 16 2025 12:47:05 GMT-0500 (Central Daylight Time),183773.5,A,enter,I,enter,378,2,399.89999997615814,183373.60000002384,8022,WL,B,14.0
1,46.567999839782715,learn,13432.000160217285,Wed Apr 16 2025 12:47:05 GMT-0500 (Central Daylight Time),184289.60000002384,A,enter,I,enter,510,2,515.6999999880791,183773.90000003576,8022,WL,B,15.0
2,1.75,learn,58250.0,Wed Apr 16 2025 12:47:05 GMT-0500 (Central Daylight Time),255949.19999998808,A,c,I,c,1742,2,1749.8999999761581,254199.30000001192,8022,WL,B,1.0
2,2.049999952316284,learn,57950.000047683716,Wed Apr 16 2025 12:47:05 GMT-0500 (Central Daylight Time),256249.60000002384,A,ci,I,i,280,2,2050.300000011921,254199.30000001192,8022,WL,B,1.0
2,2.2339999675750732,learn,57766.00003242493,Wed Apr 16 2025 12:47:05 GMT-0500 (Central Daylight Time),256433.19999998808,A,cit,I,t,169,2,2233.899999976158,254199.30000001192,8022,WL,B,1.0
2,2.3509998321533203,learn,57649.00016784668,Wed Apr 16 2025 12:47:05 GMT-0500 (Central Daylight Time),256549.80000001192,A,city,I,y,99,2,2350.5,254199.30000001192,8022,WL,B,1.0
2,2.800999879837036,learn,57199.000120162964,Wed Apr 16 2025 12:47:05 GMT-0500 (Central Daylight Time),256999.90000003576,A,cityenter,I,enter,429,2,2800.600000023842,254199.30000001192,8022,WL,B,1.0
2,3.116999864578247,learn,56883.00013542175,Wed Apr 16 2025 12:47:05 GMT-0500 (Central Daylight Time),257315.69999998808,A,c,I,c,300,2,315.5,257000.19999998808,8022,WL,B,2.0
2,3.2839999198913574,learn,56716.00008010864,Wed Apr 16 2025 12:47:05 GMT-0500 (Central Daylight Time),257483.19999998808,A,ca,I,a,151,2,483.0,257000.19999998808,8022,WL,B,2.0
2,3.3999998569488525,learn,56600.00014305115,Wed Apr 16 2025 12:47:05 GMT-0500 (Central Daylight Time),257599.60000002384,A,cab,I,b,105,2,599.4000000357628,257000.19999998808,8022,WL,B,2.0
2,4.16700005531311,learn,55832.99994468689,Wed Apr 16 2025 12:47:05 GMT-0500 (Central Daylight Time),258366.30000001192,A,cabi,I,i,748,2,1366.1000000238419,257000.19999998808,8022,WL,B,2.0
2,4.75,learn,55250.0,Wed Apr 16 2025 12:47:05 GMT-0500 (Central Daylight Time),258948.69999998808,A,cab,I,backspace,567,2,1948.5,257000.19999998808,8022,WL,B,2.0
2,4.948999881744385,learn,55051.000118255615,Wed Apr 16 2025 12:47:05 GMT-0500 (Central Daylight Time),259148.0,A,ca,I,backspace,184,2,2147.800000011921,257000.19999998808,8022,WL,B,2.0
2,5.116999864578247,learn,54883.00013542175,Wed Apr 16 2025 12:47:05 GMT-0500 (Central Daylight Time),259316.19999998808,A,c,I,backspace,162,2,2316.0,257000.19999998808,8022,WL,B,2.0
2,5.300999879837036,learn,54699.000120162964,Wed Apr 16 2025 12:47:05 GMT-0500 (Central Daylight Time),259499.90000003576,A,,I,backspace,177,2,2499.7000000476837,257000.19999998808,8022,WL,B,2.0
2,6.733000040054321,learn,53266.99995994568,Wed Apr 16 2025 12:47:05 GMT-0500 (Central Daylight Time),260931.69999998808,A,s,I,s,1417,2,3931.5,257000.19999998808,8022,WL,B,2.0
2,6.884000062942505,learn,53115.999937057495,Wed Apr 16 2025 12:47:05 GMT-0500 (Central Daylight Time),261083.0,A,st,I,t,147,2,4082.800000011921,257000.19999998808,8022,WL,B,2.0
2,7.099999904632568,learn,52900.00009536743,Wed Apr 16 2025 12:47:05 GMT-0500 (Central Daylight Time),261299.40000003576,A,str,I,r,211,2,4299.200000047684,257000.19999998808,8022,WL,B,2.0
2,7.164999961853027,learn,52835.00003814697,Wed Apr 16 2025 12:47:05 GMT-0500 (Central Daylight Time),261364.5,A,stre,I,e,48,2,4364.300000011921,257000.19999998808,8022,WL,B,2.0
2,7.365999937057495,learn,52634.000062942505,Wed Apr 16 2025 12:47:05 GMT-0500 (Central Daylight Time),261565.60000002384,A,stree,I,e,182,2,4565.400000035763,257000.19999998808,8022,WL,B,2.0
2,7.483000040054321,learn,52516.99995994568,Wed Apr 16 2025 12:47:05 GMT-0500 (Central Daylight Time),261682.0,A,street,I,t,104,2,4681.800000011921,257000.19999998808,8022,WL,B,2.0
2,7.615000009536743,learn,52384.99999046326,Wed Apr 16 2025 12:47:05 GMT-0500 (Central Daylight Time),261814.40000003576,A,streetenter,I,enter,122,2,4814.200000047684,257000.19999998808,8022,WL,B,2.0
2,8.031999826431274,learn,51968.000173568726,Wed Apr 16 2025 12:47:05 GMT-0500 (Central Daylight Time),262230.90000003576,A,g,I,g,406,2,416.2000000476837,261814.69999998808,8022,WL,B,3.0
2,8.248999834060669,learn,51751.00016593933,Wed Apr 16 2025 12:47:05 GMT-0500 (Central Daylight Time),262448.40000003576,A,gr,I,r,198,2,633.7000000476837,261814.69999998808,8022,WL,B,3.0
2,8.332000017166138,learn,51667.99998283386,Wed Apr 16 2025 12:47:05 GMT-0500 (Central Daylight Time),262531.40000003576,A,gra,I,a,78,2,716.7000000476837,261814.69999998808,8022,WL,B,3.0
2,8.514999866485596,learn,51485.000133514404,Wed Apr 16 2025 12:47:05 GMT-0500 (Central Daylight Time),262714.60000002384,A,gras,I,s,178,2,899.9000000357628,261814.69999998808,8022,WL,B,3.0
2,8.680999994277954,learn,51319.000005722046,Wed Apr 16 2025 12:47:05 GMT-0500 (Central Daylight Time),262880.5,A,grass,I,s,153,2,1065.800000011921,261814.69999998808,8022,WL,B,3.0
2,8.832000017166138,learn,51167.99998283386,Wed Apr 16 2025 12:47:05 GMT-0500 (Central Daylight Time),263031.3000000119,A,grassenter,I,enter,139,2,1216.6000000238419,261814.69999998808,8022,WL,B,3.0
2,10.63100004196167,learn,49368.99995803833,Wed Apr 16 2025 12:47:05 GMT-0500 (Central Daylight Time),264829.6999999881,A,d,I,d,1789,2,1798.0999999642372,263031.60000002384,8022,WL,B,4.0
2,10.79699993133545,learn,49203.00006866455,Wed Apr 16 2025 12:47:05 GMT-0500 (Central Daylight Time),264996.6999999881,A,do,I,o,147,2,1965.0999999642372,263031.60000002384,8022,WL,B,4.0
2,10.931999921798706,learn,49068.000078201294,Wed Apr 16 2025 12:47:05 GMT-0500 (Central Daylight Time),265131.6999999881,A,doo,I,o,128,2,2100.099999964237,263031.60000002384,8022,WL,B,4.0
2,11.030999898910522,learn,48969.00010108948,Wed Apr 16 2025 12:47:05 GMT-0500 (Central Daylight Time),265230.1999999881,A,door,I,r,88,2,2198.599999964237,263031.60000002384,8022,WL,B,4.0
2,11.230999946594238,learn,48769.00005340576,Wed Apr 16 2025 12:47:05 GMT-0500 (Central Daylight Time),265430.0,A,doorenter,I,enter,180,2,2398.399999976158,263031.60000002384,8022,WL,B,4.0
2,14.746999979019165,learn,45253.000020980835,Wed Apr 16 2025 12:47:05 GMT-0500 (Central Daylight Time),268945.6999999881,A,w,I,w,3503,2,3515.399999976158,265430.3000000119,8022,WL,B,5.0
2,14.878999948501587,learn,45121.00005149841,Wed Apr 16 2025 12:47:05 GMT-0500 (Central Daylight Time),269078.60000002384,A,wi,I,i,116,2,3648.300000011921,265430.3000000119,8022,WL,B,5.0
2,14.996000051498413,learn,45003.99994850159,Wed Apr 16 2025 12:47:05 GMT-0500 (Central Daylight Time),269195.40000003576,A,wif,I,f,100,2,3765.100000023842,265430.3000000119,8022,WL,B,5.0
2,15.164000034332275,learn,44835.999965667725,Wed Apr 16 2025 12:47:05 GMT-0500 (Central Daylight Time),269363.5,A,wife,I,e,162,2,3933.199999988079,265430.3000000119,8022,WL,B,5.0
2,15.27999997138977,learn,44720.00002861023,Wed Apr 16 2025 12:47:05 GMT-0500 (Central Daylight Time),269478.8000000119,A,wifeenter,I,enter,97,2,4048.5,265430.3000000119,8022,WL,B,5.0
2,15.562999963760376,learn,44437.000036239624,Wed Apr 16 2025 12:47:05 GMT-0500 (Central Daylight Time),269762.6999999881,A,w,I,w,278,2,283.5,269479.1999999881,8022,WL,B,6.0
2,15.69700002670288,learn,44302.99997329712,Wed Apr 16 2025 12:47:05 GMT-0500 (Central Daylight Time),269895.90000003576,A,wi,I,i,122,2,416.7000000476837,269479.1999999881,8022,WL,B,6.0
2,15.829999923706055,learn,44170.000076293945,Wed Apr 16 2025 12:47:05 GMT-0500 (Central Daylight Time),270028.6999999881,A,win,I,n,128,2,549.5,269479.1999999881,8022,WL,B,6.0
2,15.948999881744385,learn,44051.000118255615,Wed Apr 16 2025 12:47:05 GMT-0500 (Central Daylight Time),270147.6999999881,A,wind,I,d,97,2,668.5,269479.1999999881,8022,WL,B,6.0
2,16.062000036239624,learn,43937.999963760376,Wed Apr 16 2025 12:47:05 GMT-0500 (Central Daylight Time),270261.10000002384,A,windo,I,o,103,2,781.9000000357628,269479.1999999881,8022,WL,B,6.0
2,16.180999994277954,learn,43819.000005722046,Wed Apr 16 2025 12:47:05 GMT-0500 (Central Daylight Time),270379.8000000119,A,window,I,w,110,2,900.6000000238419,269479.1999999881,8022,WL,B,6.0
2,16.37999987602234,learn,43620.00012397766,Wed Apr 16 2025 12:47:05 GMT-0500 (Central Daylight Time),270578.6999999881,A,windowenter,I,enter,184,2,1099.5,269479.1999999881,8022,WL,B,6.0
2,20.411999940872192,learn,39588.00005912781,Wed Apr 16 2025 12:47:05 GMT-0500 (Central Daylight Time),274611.1999999881,A,c,I,c,4026,2,4032.2999999523163,270578.90000003576,8022,WL,B,7.0
2,20.578999996185303,learn,39421.0000038147,Wed Apr 16 2025 12:47:05 GMT-0500 (Central Daylight Time),274778.3000000119,A,ca,I,a,161,2,4199.399999976158,270578.90000003576,8022,WL,B,7.0
2,20.67799997329712,learn,39322.00002670288,Wed Apr 16 2025 12:47:05 GMT-0500 (Central Daylight Time),274877.6999999881,A,cab,I,b,83,2,4298.799999952316,270578.90000003576,8022,WL,B,7.0
2,20.89400005340576,learn,39105.99994659424,Wed Apr 16 2025 12:47:05 GMT-0500 (Central Daylight Time),275093.60000002384,A,cabi,I,i,207,2,4514.699999988079,270578.90000003576,8022,WL,B,7.0
2,20.996000051498413,learn,39003.99994850159,Wed Apr 16 2025 12:47:05 GMT-0500 (Central Daylight Time),275195.5,A,cabin,I,n,96,2,4616.599999964237,270578.90000003576,8022,WL,B,7.0
2,21.277999877929688,learn,38722.00012207031,Wed Apr 16 2025 12:47:05 GMT-0500 (Central Daylight Time),275477.10000002384,A,cabinenter,I,enter,274,2,4898.199999988079,270578.90000003576,8022,WL,B,7.0
2,21.89400005340576,learn,38105.99994659424,Wed Apr 16 2025 12:47:05 GMT-0500 (Central Daylight Time),276093.1999999881,A,l,I,l,596,2,615.7999999523163,275477.40000003576,8022,WL,B,8.0
2,22.02900004386902,learn,37970.99995613098,Wed Apr 16 2025 12:47:05 GMT-0500 (Central Daylight Time),276228.60000002384,A,la,I,a,128,2,751.1999999880791,275477.40000003576,8022,WL,B,8.0
2,22.15999984741211,learn,37840.00015258789,Wed Apr 16 2025 12:47:05 GMT-0500 (Central Daylight Time),276360.0,A,lak,I,k,111,2,882.5999999642372,275477.40000003576,8022,WL,B,8.0
2,22.259999990463257,learn,37740.00000953674,Wed Apr 16 2025 12:47:05 GMT-0500 (Central Daylight Time),276459.8000000119,A,lake,I,e,92,2,982.3999999761581,275477.40000003576,8022,WL,B,8.0
2,22.427000045776367,learn,37572.99995422363,Wed Apr 16 2025 12:47:05 GMT-0500 (Central Daylight Time),276626.10000002384,A,lakeenter,I,enter,150,2,1148.699999988079,275477.40000003576,8022,WL,B,8.0
2,22.59599995613098,learn,37404.00004386902,Wed Apr 16 2025 12:47:05 GMT-0500 (Central Daylight Time),276795.0,A,f,I,f,154,2,168.5999999642372,276626.40000003576,8022,WL,B,9.0
2,22.776999950408936,learn,37223.000049591064,Wed Apr 16 2025 12:47:05 GMT-0500 (Central Daylight Time),276976.6999999881,A,fi,I,i,161,2,350.2999999523163,276626.40000003576,8022,WL,B,9.0
2,22.89400005340576,learn,37105.99994659424,Wed Apr 16 2025 12:47:05 GMT-0500 (Central Daylight Time),277093.1999999881,A,fir,I,r,107,2,466.7999999523163,276626.40000003576,8022,WL,B,9.0
2,23.01099991798401,learn,36989.00008201599,Wed Apr 16 2025 12:47:05 GMT-0500 (Central Daylight Time),277210.3000000119,A,fire,I,e,95,2,583.8999999761581,276626.40000003576,8022,WL,B,9.0
2,23.158999919891357,learn,36841.00008010864,Wed Apr 16 2025 12:47:05 GMT-0500 (Central Daylight Time),277358.6999999881,A,fireenter,I,enter,136,2,732.2999999523163,276626.40000003576,8022,WL,B,9.0
2,25.72599983215332,learn,34274.00016784668,Wed Apr 16 2025 12:47:05 GMT-0500 (Central Daylight Time),279925.40000003576,A,c,I,c,2559,2,2566.5,277358.90000003576,8022,WL,B,10.0
2,25.80999994277954,learn,34190.00005722046,Wed Apr 16 2025 12:47:05 GMT-0500 (Central Daylight Time),280009.8000000119,A,cl,I,l,77,2,2650.899999976158,277358.90000003576,8022,WL,B,10.0
2,25.97599983215332,learn,34024.00016784668,Wed Apr 16 2025 12:47:05 GMT-0500 (Central Daylight Time),280175.5,A,clo,I,o,153,2,2816.599999964237,277358.90000003576,8022,WL,B,10.0
2,26.125,learn,33875.0,Wed Apr 16 2025 12:47:05 GMT-0500 (Central Daylight Time),280324.8000000119,A,cloc,I,c,133,2,2965.899999976158,277358.90000003576,8022,WL,B,10.0
2,26.20799994468689,learn,33792.00005531311,Wed Apr 16 2025 12:47:05 GMT-0500 (Central Daylight Time),280407.6999999881,A,clock,I,k,62,2,3048.7999999523163,277358.90000003576,8022,WL,B,10.0
2,26.45899987220764,learn,33541.00012779236,Wed Apr 16 2025 12:47:05 GMT-0500 (Central Daylight Time),280658.5,A,clockenter,I,enter,243,2,3299.599999964237,277358.90000003576,8022,WL,B,10.0
2,36.87399983406067,learn,23126.00016593933,Wed Apr 16 2025 12:47:05 GMT-0500 (Central Daylight Time),291073.0,A,s,I,s,10393,2,10414.199999988079,280658.8000000119,8022,WL,B,11.0
2,36.97199988365173,learn,23028.000116348267,Wed Apr 16 2025 12:47:05 GMT-0500 (Central Daylight Time),291171.3000000119,A,sk,I,k,83,2,10512.5,280658.8000000119,8022,WL,B,11.0
2,37.139999866485596,learn,22860.000133514404,Wed Apr 16 2025 12:47:05 GMT-0500 (Central Daylight Time),291339.5,A,ski,I,i,163,2,10680.699999988079,280658.8000000119,8022,WL,B,11.0
2,37.32299995422363,learn,22677.000045776367,Wed Apr 16 2025 12:47:05 GMT-0500 (Central Daylight Time),291522.8000000119,A,skin,I,n,161,2,10864.0,280658.8000000119,8022,WL,B,11.0
2,37.52300000190735,learn,22476.99999809265,Wed Apr 16 2025 12:47:05 GMT-0500 (Central Daylight Time),291722.40000003576,A,skinenter,I,enter,192,2,11063.600000023842,280658.8000000119,8022,WL,B,11.0
2,37.78999996185303,learn,22210.000038146973,Wed Apr 16 2025 12:47:05 GMT-0500 (Central Daylight Time),291989.40000003576,A,f,I,f,261,2,266.4000000357628,291723.0,8022,WL,B,12.0
2,37.90499997138977,learn,22095.00002861023,Wed Apr 16 2025 12:47:05 GMT-0500 (Central Daylight Time),292104.6999999881,A,fi,I,i,101,2,381.69999998807907,291723.0,8022,WL,B,12.0
2,38.055999994277954,learn,21944.000005722046,Wed Apr 16 2025 12:47:05 GMT-0500 (Central Daylight Time),292255.6999999881,A,fir,I,r,133,2,532.6999999880791,291723.0,8022,WL,B,12.0
2,38.138999938964844,learn,21861.000061035156,Wed Apr 16 2025 12:47:05 GMT-0500 (Central Daylight Time),292338.10000002384,A,fire,I,e,68,2,615.1000000238419,291723.0,8022,WL,B,12.0
2,38.289000034332275,learn,21710.999965667725,Wed Apr 16 2025 12:47:05 GMT-0500 (Central Daylight Time),292488.1999999881,A,fireenter,I,enter,129,2,765.1999999880791,291723.0,8022,WL,B,12.0
2,49.501999855041504,learn,10498.000144958496,Wed Apr 16 2025 12:47:05 GMT-0500 (Central Daylight Time),303701.5,A,enter,I,enter,11207,2,11213.0,292488.5,8022,WL,B,13.0
2,49.93599987030029,learn,10064.000129699707,Wed Apr 16 2025 12:47:05 GMT-0500 (Central Daylight Time),304135.6999999881,A,enter,I,enter,424,2,433.89999997615814,303701.8000000119,8022,WL,B,14.0
2,50.36800003051758,learn,9631.999969482422,Wed Apr 16 2025 12:47:05 GMT-0500 (Central Daylight Time),304567.10000002384,A,enter,I,enter,413,2,431.10000002384186,304136.0,8022,WL,B,15.0
3,3.381999969482422,learn,56618.00003051758,Wed Apr 16 2025 12:47:05 GMT-0500 (Central Daylight Time),405118.0,A,s,I,s,3364,2,3381.5,401736.5,8022,WL,B,1.0
3,3.633999824523926,learn,56366.000175476074,Wed Apr 16 2025 12:47:05 GMT-0500 (Central Daylight Time),405369.8000000119,A,st,I,t,239,2,3633.300000011921,401736.5,8022,WL,B,1.0
3,3.865999937057495,learn,56134.000062942505,Wed Apr 16 2025 12:47:05 GMT-0500 (Central Daylight Time),405601.8000000119,A,str,I,r,219,2,3865.300000011921,401736.5,8022,WL,B,1.0
3,4.031999826431274,learn,55968.000173568726,Wed Apr 16 2025 12:47:05 GMT-0500 (Central Daylight Time),405768.1999999881,A,stre,I,e,154,2,4031.699999988079,401736.5,8022,WL,B,1.0
3,4.23199987411499,learn,55768.00012588501,Wed Apr 16 2025 12:47:05 GMT-0500 (Central Daylight Time),405967.8000000119,A,stree,I,e,187,2,4231.300000011921,401736.5,8022,WL,B,1.0
3,4.382999897003174,learn,55617.000102996826,Wed Apr 16 2025 12:47:05 GMT-0500 (Central Daylight Time),406119.5,A,street,I,t,131,2,4383.0,401736.5,8022,WL,B,1.0
3,4.531999826431274,learn,55468.000173568726,Wed Apr 16 2025 12:47:05 GMT-0500 (Central Daylight Time),406268.5,A,streetenter,I,enter,141,2,4532.0,401736.5,8022,WL,B,1.0
3,4.799999952316284,learn,55200.000047683716,Wed Apr 16 2025 12:47:05 GMT-0500 (Central Daylight Time),406535.6999999881,A,g,I,g,247,2,266.89999997615814,406268.8000000119,8022,WL,B,2.0
3,5.016000032424927,learn,54983.99996757507,Wed Apr 16 2025 12:47:05 GMT-0500 (Central Daylight Time),406751.8000000119,A,gr,I,r,194,2,483.0,406268.8000000119,8022,WL,B,2.0
3,5.182999849319458,learn,54817.00015068054,Wed Apr 16 2025 12:47:05 GMT-0500 (Central Daylight Time),406918.90000003576,A,gra,I,a,146,2,650.1000000238419,406268.8000000119,8022,WL,B,2.0
3,5.348999977111816,learn,54651.00002288818,Wed Apr 16 2025 12:47:05 GMT-0500 (Central Daylight Time),407085.1999999881,A,gras,I,s,148,2,816.3999999761581,406268.8000000119,8022,WL,B,2.0
3,5.582000017166138,learn,54417.99998283386,Wed Apr 16 2025 12:47:05 GMT-0500 (Central Daylight Time),407317.60000002384,A,grass,I,s,215,2,1048.800000011921,406268.8000000119,8022,WL,B,2.0
3,8.164000034332275,learn,51835.999965667725,Wed Apr 16 2025 12:47:05 GMT-0500 (Central Daylight Time),409899.8000000119,A,grassenter,I,enter,2565,2,3631.0,406268.8000000119,8022,WL,B,2.0
3,9.996999979019165,learn,50003.000020980835,Wed Apr 16 2025 12:47:05 GMT-0500 (Central Daylight Time),411733.3000000119,A,d,I,d,1826,2,1833.300000011921,409900.0,8022,WL,B,3.0
3,10.348000049591064,learn,49651.999950408936,Wed Apr 16 2025 12:47:05 GMT-0500 (Central Daylight Time),412083.6999999881,A,do,I,o,343,2,2183.699999988079,409900.0,8022,WL,B,3.0
3,10.52999997138977,learn,49470.00002861023,Wed Apr 16 2025 12:47:05 GMT-0500 (Central Daylight Time),412266.10000002384,A,doo,I,o,170,2,2366.100000023842,409900.0,8022,WL,B,3.0
3,10.682999849319458,learn,49317.00015068054,Wed Apr 16 2025 12:47:05 GMT-0500 (Central Daylight Time),412418.90000003576,A,door,I,r,148,2,2518.900000035763,409900.0,8022,WL,B,3.0
3,10.980000019073486,learn,49019.999980926514,Wed Apr 16 2025 12:47:05 GMT-0500 (Central Daylight Time),412715.90000003576,A,doorenter,I,enter,289,2,2815.900000035763,409900.0,8022,WL,B,3.0
3,11.363999843597412,learn,48636.00015640259,Wed Apr 16 2025 12:47:05 GMT-0500 (Central Daylight Time),413100.10000002384,A,w,I,w,379,2,384.0,412716.10000002384,8022,WL,B,4.0
3,11.547999858856201,learn,48452.0001411438,Wed Apr 16 2025 12:47:05 GMT-0500 (Central Daylight Time),413284.40000003576,A,wi,I,i,178,2,568.3000000119209,412716.10000002384,8022,WL,B,4.0
3,11.730999946594238,learn,48269.00005340576,Wed Apr 16 2025 12:47:05 GMT-0500 (Central Daylight Time),413467.10000002384,A,wif,I,f,177,2,751.0,412716.10000002384,8022,WL,B,4.0
3,12.113999843597412,learn,47886.00015640259,Wed Apr 16 2025 12:47:05 GMT-0500 (Central Daylight Time),413850.10000002384,A,wife,I,e,370,2,1134.0,412716.10000002384,8022,WL,B,4.0
3,12.414000034332275,learn,47585.999965667725,Wed Apr 16 2025 12:47:05 GMT-0500 (Central Daylight Time),414150.1999999881,A,wifeenter,I,enter,290,2,1434.0999999642372,412716.10000002384,8022,WL,B,4.0
3,12.763000011444092,learn,47236.99998855591,Wed Apr 16 2025 12:47:05 GMT-0500 (Central Daylight Time),414498.6999999881,A,a,I,a,334,2,348.2999999523163,414150.40000003576,8022,WL,B,5.0
3,12.96399998664856,learn,47036.00001335144,Wed Apr 16 2025 12:47:05 GMT-0500 (Central Daylight Time),414700.1999999881,A,ar,I,r,197,2,549.7999999523163,414150.40000003576,8022,WL,B,5.0
3,13.096999883651733,learn,46903.00011634827,Wed Apr 16 2025 12:47:05 GMT-0500 (Central Daylight Time),414832.6999999881,A,arm,I,m,121,2,682.2999999523163,414150.40000003576,8022,WL,B,5.0
3,18.494999885559082,learn,41505.00011444092,Wed Apr 16 2025 12:47:05 GMT-0500 (Central Daylight Time),420230.6999999881,A,armenter,I,enter,5379,2,6080.299999952316,414150.40000003576,8022,WL,B,5.0
3,19.26199984550476,learn,40738.00015449524,Wed Apr 16 2025 12:47:05 GMT-0500 (Central Daylight Time),420998.10000002384,A,w,I,w,760,2,767.1999999880791,420230.90000003576,8022,WL,B,6.0
3,19.378999948501587,learn,40621.00005149841,Wed Apr 16 2025 12:47:05 GMT-0500 (Central Daylight Time),421115.40000003576,A,wi,I,i,112,2,884.5,420230.90000003576,8022,WL,B,6.0
3,19.477999925613403,learn,40522.0000743866,Wed Apr 16 2025 12:47:05 GMT-0500 (Central Daylight Time),421213.8000000119,A,wif,I,f,80,2,982.8999999761581,420230.90000003576,8022,WL,B,6.0
3,19.61299991607666,learn,40387.00008392334,Wed Apr 16 2025 12:47:05 GMT-0500 (Central Daylight Time),421349.5,A,wife,I,e,129,2,1118.5999999642372,420230.90000003576,8022,WL,B,6.0
3,19.763999938964844,learn,40236.000061035156,Wed Apr 16 2025 12:47:05 GMT-0500 (Central Daylight Time),421499.6999999881,A,wifeenter,I,enter,136,2,1268.7999999523163,420230.90000003576,8022,WL,B,6.0
3,19.944000005722046,learn,40055.999994277954,Wed Apr 16 2025 12:47:05 GMT-0500 (Central Daylight Time),421679.90000003576,A,w,I,w,169,2,179.80000001192093,421500.10000002384,8022,WL,B,7.0
3,20.07799983024597,learn,39922.00016975403,Wed Apr 16 2025 12:47:05 GMT-0500 (Central Daylight Time),421813.60000002384,A,wi,I,i,124,2,313.5,421500.10000002384,8022,WL,B,7.0
3,20.21299982070923,learn,39787.00017929077,Wed Apr 16 2025 12:47:05 GMT-0500 (Central Daylight Time),421948.6999999881,A,win,I,n,112,2,448.5999999642372,421500.10000002384,8022,WL,B,7.0
3,20.276999950408936,learn,39723.000049591064,Wed Apr 16 2025 12:47:05 GMT-0500 (Central Daylight Time),422013.40000003576,A,wind,I,d,55,2,513.3000000119209,421500.10000002384,8022,WL,B,7.0
3,20.427000045776367,learn,39572.99995422363,Wed Apr 16 2025 12:47:05 GMT-0500 (Central Daylight Time),422163.1999999881,A,windo,I,o,145,2,663.0999999642372,421500.10000002384,8022,WL,B,7.0
3,20.562000036239624,learn,39437.999963760376,Wed Apr 16 2025 12:47:05 GMT-0500 (Central Daylight Time),422297.8000000119,A,window,I,w,113,2,797.6999999880791,421500.10000002384,8022,WL,B,7.0
3,20.82699990272522,learn,39173.00009727478,Wed Apr 16 2025 12:47:05 GMT-0500 (Central Daylight Time),422562.90000003576,A,windowenter,I,enter,244,2,1062.800000011921,421500.10000002384,8022,WL,B,7.0
3,21.675999879837036,learn,38324.000120162964,Wed Apr 16 2025 12:47:05 GMT-0500 (Central Daylight Time),423412.1999999881,A,c,I,c,834,2,849.0,422563.1999999881,8022,WL,B,8.0
3,21.792999982833862,learn,38207.00001716614,Wed Apr 16 2025 12:47:05 GMT-0500 (Central Daylight Time),423529.10000002384,A,ci,I,i,103,2,965.9000000357628,422563.1999999881,8022,WL,B,8.0
3,22.01199984550476,learn,37988.00015449524,Wed Apr 16 2025 12:47:05 GMT-0500 (Central Daylight Time),423747.90000003576,A,cit,I,t,213,2,1184.7000000476837,422563.1999999881,8022,WL,B,8.0
3,22.109999895095825,learn,37890.000104904175,Wed Apr 16 2025 12:47:05 GMT-0500 (Central Daylight Time),423846.0,A,city,I,y,90,2,1282.800000011921,422563.1999999881,8022,WL,B,8.0
3,24.108999967575073,learn,35891.00003242493,Wed Apr 16 2025 12:47:05 GMT-0500 (Central Daylight Time),425844.8000000119,A,cityenter,I,enter,1980,2,3281.600000023842,422563.1999999881,8022,WL,B,8.0
3,24.493000030517578,learn,35506.99996948242,Wed Apr 16 2025 12:47:05 GMT-0500 (Central Daylight Time),426228.8000000119,A,p,I,p,368,2,383.69999998807907,425845.10000002384,8022,WL,B,9.0
3,24.66100001335144,learn,35338.99998664856,Wed Apr 16 2025 12:47:05 GMT-0500 (Central Daylight Time),426396.6999999881,A,pu,I,u,150,2,551.5999999642372,425845.10000002384,8022,WL,B,9.0
3,24.810999870300293,learn,35189.00012969971,Wed Apr 16 2025 12:47:05 GMT-0500 (Central Daylight Time),426546.5,A,pup,I,p,143,2,701.3999999761581,425845.10000002384,8022,WL,B,9.0
3,24.995999813079834,learn,35004.000186920166,Wed Apr 16 2025 12:47:05 GMT-0500 (Central Daylight Time),426731.8000000119,A,pupi,I,i,164,2,886.6999999880791,425845.10000002384,8022,WL,B,9.0
3,25.125999927520752,learn,34874.00007247925,Wed Apr 16 2025 12:47:05 GMT-0500 (Central Daylight Time),426862.1999999881,A,pupil,I,l,112,2,1017.0999999642372,425845.10000002384,8022,WL,B,9.0
3,25.375,learn,34625.0,Wed Apr 16 2025 12:47:05 GMT-0500 (Central Daylight Time),427111.10000002384,A,pupilenter,I,enter,229,2,1266.0,425845.10000002384,8022,WL,B,9.0
3,25.825999975204468,learn,34174.00002479553,Wed Apr 16 2025 12:47:05 GMT-0500 (Central Daylight Time),427562.10000002384,A,c,I,c,438,2,450.80000001192093,427111.3000000119,8022,WL,B,10.0
3,25.941999912261963,learn,34058.00008773804,Wed Apr 16 2025 12:47:05 GMT-0500 (Central Daylight Time),427677.8000000119,A,ca,I,a,106,2,566.5,427111.3000000119,8022,WL,B,10.0
3,26.05900001525879,learn,33940.99998474121,Wed Apr 16 2025 12:47:05 GMT-0500 (Central Daylight Time),427795.60000002384,A,cab,I,b,101,2,684.3000000119209,427111.3000000119,8022,WL,B,10.0
3,26.158999919891357,learn,33841.00008010864,Wed Apr 16 2025 12:47:05 GMT-0500 (Central Daylight Time),427894.6999999881,A,cabi,I,i,88,2,783.3999999761581,427111.3000000119,8022,WL,B,10.0
3,26.292999982833862,learn,33707.00001716614,Wed Apr 16 2025 12:47:05 GMT-0500 (Central Daylight Time),428028.8000000119,A,cabin,I,n,117,2,917.5,427111.3000000119,8022,WL,B,10.0
3,26.47499990463257,learn,33525.00009536743,Wed Apr 16 2025 12:47:05 GMT-0500 (Central Daylight Time),428211.5,A,cabinenter,I,enter,168,2,1100.199999988079,427111.3000000119,8022,WL,B,10.0
3,26.807999849319458,learn,33192.00015068054,Wed Apr 16 2025 12:47:05 GMT-0500 (Central Daylight Time),428544.3000000119,A,l,I,l,312,2,332.60000002384186,428211.6999999881,8022,WL,B,11.0
3,26.908999919891357,learn,33091.00008010864,Wed Apr 16 2025 12:47:05 GMT-0500 (Central Daylight Time),428645.60000002384,A,la,I,a,78,2,433.9000000357628,428211.6999999881,8022,WL,B,11.0
3,27.042999982833862,learn,32957.00001716614,Wed Apr 16 2025 12:47:05 GMT-0500 (Central Daylight Time),428779.40000003576,A,lak,I,k,118,2,567.7000000476837,428211.6999999881,8022,WL,B,11.0
3,27.14199995994568,learn,32858.00004005432,Wed Apr 16 2025 12:47:05 GMT-0500 (Central Daylight Time),428877.8000000119,A,lake,I,e,92,2,666.1000000238419,428211.6999999881,8022,WL,B,11.0
3,27.323999881744385,learn,32676.000118255615,Wed Apr 16 2025 12:47:05 GMT-0500 (Central Daylight Time),429060.3000000119,A,lakeenter,I,enter,165,2,848.6000000238419,428211.6999999881,8022,WL,B,11.0
3,29.425999879837036,learn,30574.000120162964,Wed Apr 16 2025 12:47:05 GMT-0500 (Central Daylight Time),431162.3000000119,A,s,I,s,2089,2,2101.699999988079,429060.60000002384,8022,WL,B,12.0
3,29.54199981689453,learn,30458.00018310547,Wed Apr 16 2025 12:47:05 GMT-0500 (Central Daylight Time),431277.8000000119,A,sk,I,k,97,2,2217.199999988079,429060.60000002384,8022,WL,B,12.0
3,29.69099998474121,learn,30309.00001525879,Wed Apr 16 2025 12:47:05 GMT-0500 (Central Daylight Time),431427.10000002384,A,ski,I,i,134,2,2366.5,429060.60000002384,8022,WL,B,12.0
3,29.789999961853027,learn,30210.000038146973,Wed Apr 16 2025 12:47:05 GMT-0500 (Central Daylight Time),431526.3000000119,A,skin,I,n,87,2,2465.699999988079,429060.60000002384,8022,WL,B,12.0
3,29.973999977111816,learn,30026.000022888184,Wed Apr 16 2025 12:47:05 GMT-0500 (Central Daylight Time),431709.60000002384,A,skinenter,I,enter,165,2,2649.0,429060.60000002384,8022,WL,B,12.0
3,30.141000032424927,learn,29858.999967575073,Wed Apr 16 2025 12:47:05 GMT-0500 (Central Daylight Time),431876.8000000119,A,f,I,f,151,2,166.80000001192093,431710.0,8022,WL,B,13.0
3,30.289999961853027,learn,29710.000038146973,Wed Apr 16 2025 12:47:05 GMT-0500 (Central Daylight Time),432026.40000003576,A,fi,I,i,135,2,316.4000000357628,431710.0,8022,WL,B,13.0
3,30.44099998474121,learn,29559.00001525879,Wed Apr 16 2025 12:47:05 GMT-0500 (Central Daylight Time),432177.5,A,fir,I,r,131,2,467.5,431710.0,8022,WL,B,13.0
3,30.50600004196167,learn,29493.99995803833,Wed Apr 16 2025 12:47:05 GMT-0500 (Central Daylight Time),432241.90000003576,A,fire,I,e,49,2,531.9000000357628,431710.0,8022,WL,B,13.0
3,30.889999866485596,learn,29110.000133514404,Wed Apr 16 2025 12:47:05 GMT-0500 (Central Daylight Time),432626.10000002384,A,fireenter,I,enter,369,2,916.1000000238419,431710.0,8022,WL,B,13.0
3,31.19099998474121,learn,28809.00001525879,Wed Apr 16 2025 12:47:05 GMT-0500 (Central Daylight Time),432927.0,A,c,I,c,292,2,300.69999998807907,432626.3000000119,8022,WL,B,14.0
3,31.276000022888184,learn,28723.999977111816,Wed Apr 16 2025 12:47:05 GMT-0500 (Central Daylight Time),433011.8000000119,A,cl,I,l,79,2,385.5,432626.3000000119,8022,WL,B,14.0
3,31.47499990463257,learn,28525.00009536743,Wed Apr 16 2025 12:47:05 GMT-0500 (Central Daylight Time),433210.60000002384,A,clo,I,o,184,2,584.3000000119209,432626.3000000119,8022,WL,B,14.0
3,31.60699987411499,learn,28393.00012588501,Wed Apr 16 2025 12:47:05 GMT-0500 (Central Daylight Time),433343.5,A,cloc,I,c,112,2,717.1999999880791,432626.3000000119,8022,WL,B,14.0
3,31.72499990463257,learn,28275.00009536743,Wed Apr 16 2025 12:47:05 GMT-0500 (Central Daylight Time),433461.0,A,clock,I,k,94,2,834.6999999880791,432626.3000000119,8022,WL,B,14.0
3,31.957000017166138,learn,28042.999982833862,Wed Apr 16 2025 12:47:05 GMT-0500 (Central Daylight Time),433692.60000002384,A,clockenter,I,enter,222,2,1066.300000011921,432626.3000000119,8022,WL,B,14.0
3,38.620999813079834,learn,21379.000186920166,Wed Apr 16 2025 12:47:05 GMT-0500 (Central Daylight Time),440356.90000003576,A,enter,I,enter,6655,2,6664.0,433692.90000003576,8022,WL,B,15.0
4,1.4819998741149902,learn,58518.00012588501,Wed Apr 16 2025 12:47:05 GMT-0500 (Central Daylight Time),514518.0,A,s,I,s,1475,2,1482.300000011921,513035.6999999881,8022,WL,B,1.0
4,1.8650000095367432,learn,58134.99999046326,Wed Apr 16 2025 12:47:05 GMT-0500 (Central Daylight Time),514900.8000000119,A,st,I,t,375,2,1865.1000000238419,513035.6999999881,8022,WL,B,1.0
4,2.115999937057495,learn,57884.000062942505,Wed Apr 16 2025 12:47:05 GMT-0500 (Central Daylight Time),515151.40000003576,A,str,I,r,230,2,2115.7000000476837,513035.6999999881,8022,WL,B,1.0
4,2.2149999141693115,learn,57785.00008583069,Wed Apr 16 2025 12:47:05 GMT-0500 (Central Daylight Time),515250.90000003576,A,stre,I,e,92,2,2215.2000000476837,513035.6999999881,8022,WL,B,1.0
4,2.430999994277954,learn,57569.000005722046,Wed Apr 16 2025 12:47:05 GMT-0500 (Central Daylight Time),515466.40000003576,A,stree,I,e,201,2,2430.7000000476837,513035.6999999881,8022,WL,B,1.0
4,2.615000009536743,learn,57384.99999046326,Wed Apr 16 2025 12:47:05 GMT-0500 (Central Daylight Time),515651.10000002384,A,street,I,t,169,2,2615.400000035763,513035.6999999881,8022,WL,B,1.0
4,2.998999834060669,learn,57001.00016593933,Wed Apr 16 2025 12:47:05 GMT-0500 (Central Daylight Time),516034.6999999881,A,streetenter,I,enter,369,2,2999.0,513035.6999999881,8022,WL,B,1.0
4,3.4129998683929443,learn,56587.000131607056,Wed Apr 16 2025 12:47:05 GMT-0500 (Central Daylight Time),516448.3000000119,A,g,I,g,393,2,413.30000001192093,516035.0,8022,WL,B,2.0
4,3.6459999084472656,learn,56354.000091552734,Wed Apr 16 2025 12:47:05 GMT-0500 (Central Daylight Time),516681.40000003576,A,gr,I,r,217,2,646.4000000357628,516035.0,8022,WL,B,2.0
4,3.7789998054504395,learn,56221.00019454956,Wed Apr 16 2025 12:47:05 GMT-0500 (Central Daylight Time),516814.90000003576,A,gra,I,a,116,2,779.9000000357628,516035.0,8022,WL,B,2.0
4,3.9619998931884766,learn,56038.00010681152,Wed Apr 16 2025 12:47:05 GMT-0500 (Central Daylight Time),516997.60000002384,A,gras,I,s,166,2,962.6000000238419,516035.0,8022,WL,B,2.0
4,4.129999876022339,learn,55870.00012397766,Wed Apr 16 2025 12:47:05 GMT-0500 (Central Daylight Time),517165.3000000119,A,grass,I,s,160,2,1130.300000011921,516035.0,8022,WL,B,2.0
4,5.363999843597412,learn,54636.00015640259,Wed Apr 16 2025 12:47:05 GMT-0500 (Central Daylight Time),518399.5,A,grassenter,I,enter,1225,2,2364.5,516035.0,8022,WL,B,2.0
4,5.865000009536743,learn,54134.99999046326,Wed Apr 16 2025 12:47:05 GMT-0500 (Central Daylight Time),518900.40000003576,A,d,I,d,485,2,500.60000002384186,518399.8000000119,8022,WL,B,3.0
4,6.0309998989105225,learn,53969.00010108948,Wed Apr 16 2025 12:47:05 GMT-0500 (Central Daylight Time),519066.6999999881,A,do,I,o,151,2,666.8999999761581,518399.8000000119,8022,WL,B,3.0
4,6.2149999141693115,learn,53785.00008583069,Wed Apr 16 2025 12:47:05 GMT-0500 (Central Daylight Time),519250.3000000119,A,doo,I,o,169,2,850.5,518399.8000000119,8022,WL,B,3.0
4,6.329999923706055,learn,53670.000076293945,Wed Apr 16 2025 12:47:05 GMT-0500 (Central Daylight Time),519365.1999999881,A,door,I,r,108,2,965.3999999761581,518399.8000000119,8022,WL,B,3.0
4,6.547999858856201,learn,53452.0001411438,Wed Apr 16 2025 12:47:05 GMT-0500 (Central Daylight Time),519583.10000002384,A,doorenter,I,enter,208,2,1183.300000011921,518399.8000000119,8022,WL,B,3.0
4,6.796999931335449,learn,53203.00006866455,Wed Apr 16 2025 12:47:05 GMT-0500 (Central Daylight Time),519832.8000000119,A,a,I,a,238,2,249.39999997615814,519583.40000003576,8022,WL,B,4.0
4,6.930999994277954,learn,53069.000005722046,Wed Apr 16 2025 12:47:05 GMT-0500 (Central Daylight Time),519966.5,A,ar,I,r,116,2,383.0999999642372,519583.40000003576,8022,WL,B,4.0
4,7.063999891281128,learn,52936.00010871887,Wed Apr 16 2025 12:47:05 GMT-0500 (Central Daylight Time),520099.3000000119,A,arm,I,m,127,2,515.8999999761581,519583.40000003576,8022,WL,B,4.0
4,7.296000003814697,learn,52703.9999961853,Wed Apr 16 2025 12:47:05 GMT-0500 (Central Daylight Time),520331.6999999881,A,armenter,I,enter,222,2,748.2999999523163,519583.40000003576,8022,WL,B,4.0
4,8.230999946594238,learn,51769.00005340576,Wed Apr 16 2025 12:47:05 GMT-0500 (Central Daylight Time),521266.90000003576,A,w,I,w,921,2,934.9000000357628,520332.0,8022,WL,B,5.0
4,8.379999876022339,learn,51620.00012397766,Wed Apr 16 2025 12:47:05 GMT-0500 (Central Daylight Time),521415.1999999881,A,wi,I,i,138,2,1083.199999988079,520332.0,8022,WL,B,5.0
4,8.495999813079834,learn,51504.000186920166,Wed Apr 16 2025 12:47:05 GMT-0500 (Central Daylight Time),521531.3000000119,A,wif,I,f,109,2,1199.300000011921,520332.0,8022,WL,B,5.0
4,8.730000019073486,learn,51269.999980926514,Wed Apr 16 2025 12:47:05 GMT-0500 (Central Daylight Time),521765.40000003576,A,wife,I,e,228,2,1433.4000000357628,520332.0,8022,WL,B,5.0
4,9.428999900817871,learn,50571.00009918213,Wed Apr 16 2025 12:47:05 GMT-0500 (Central Daylight Time),522464.3000000119,A,wifeenter,I,enter,685,2,2132.300000011921,520332.0,8022,WL,B,5.0
4,12.912999868392944,learn,47087.000131607056,Wed Apr 16 2025 12:47:05 GMT-0500 (Central Daylight Time),525948.8000000119,A,s,I,s,3479,2,3484.199999988079,522464.60000002384,8022,WL,B,6.0
4,13.128999948501587,learn,46871.00005149841,Wed Apr 16 2025 12:47:05 GMT-0500 (Central Daylight Time),526164.8000000119,A,st,I,t,209,2,3700.199999988079,522464.60000002384,8022,WL,B,6.0
4,13.311999797821045,learn,46688.000202178955,Wed Apr 16 2025 12:47:05 GMT-0500 (Central Daylight Time),526347.5,A,sta,I,a,166,2,3882.899999976158,522464.60000002384,8022,WL,B,6.0
4,13.478999853134155,learn,46521.000146865845,Wed Apr 16 2025 12:47:05 GMT-0500 (Central Daylight Time),526514.9000000358,A,star,I,r,162,2,4050.300000011921,522464.60000002384,8022,WL,B,6.0
4,14.110999822616577,learn,45889.00017738342,Wed Apr 16 2025 12:47:05 GMT-0500 (Central Daylight Time),527146.8000000119,A,starenter,I,enter,627,2,4682.199999988079,522464.60000002384,8022,WL,B,6.0
4,15.296000003814697,learn,44703.9999961853,Wed Apr 16 2025 12:47:05 GMT-0500 (Central Daylight Time),528331.5,A,c,I,c,1179,2,1184.5,527147.0,8022,WL,B,7.0
4,15.41100001335144,learn,44588.99998664856,Wed Apr 16 2025 12:47:05 GMT-0500 (Central Daylight Time),528446.4000000358,A,ci,I,i,104,2,1299.4000000357628,527147.0,8022,WL,B,7.0
4,15.577999830245972,learn,44422.00016975403,Wed Apr 16 2025 12:47:05 GMT-0500 (Central Daylight Time),528613.8000000119,A,cit,I,t,149,2,1466.800000011921,527147.0,8022,WL,B,7.0
4,15.65999984741211,learn,44340.00015258789,Wed Apr 16 2025 12:47:05 GMT-0500 (Central Daylight Time),528695.4000000358,A,city,I,y,70,2,1548.4000000357628,527147.0,8022,WL,B,7.0
4,16.293999910354614,learn,43706.000089645386,Wed Apr 16 2025 12:47:05 GMT-0500 (Central Daylight Time),529329.8000000119,A,cityenter,I,enter,621,2,2182.800000011921,527147.0,8022,WL,B,7.0
4,16.710999965667725,learn,43289.000034332275,Wed Apr 16 2025 12:47:05 GMT-0500 (Central Daylight Time),529746.5,A,p,I,p,403,2,416.39999997615814,529330.1000000238,8022,WL,B,8.0
4,16.859999895095825,learn,43140.000104904175,Wed Apr 16 2025 12:47:05 GMT-0500 (Central Daylight Time),529896.1999999881,A,pu,I,u,130,2,566.0999999642372,529330.1000000238,8022,WL,B,8.0
4,17.092999935150146,learn,42907.00006484985,Wed Apr 16 2025 12:47:05 GMT-0500 (Central Daylight Time),530128.9000000358,A,pup,I,p,210,2,798.8000000119209,529330.1000000238,8022,WL,B,8.0
4,17.393999814987183,learn,42606.00018501282,Wed Apr 16 2025 12:47:05 GMT-0500 (Central Daylight Time),530430.1000000238,A,pupi,I,i,278,2,1100.0,529330.1000000238,8022,WL,B,8.0
4,17.592999935150146,learn,42407.00006484985,Wed Apr 16 2025 12:47:05 GMT-0500 (Central Daylight Time),530629.0,A,pupil,I,l,189,2,1298.8999999761581,529330.1000000238,8022,WL,B,8.0
4,19.14299988746643,learn,40857.00011253357,Wed Apr 16 2025 12:47:05 GMT-0500 (Central Daylight Time),532178.6999999881,A,pupilenter,I,enter,1534,2,2848.599999964237,529330.1000000238,8022,WL,B,8.0
4,19.508999824523926,learn,40491.000175476074,Wed Apr 16 2025 12:47:05 GMT-0500 (Central Daylight Time),532545.1000000238,A,c,I,c,346,2,366.10000002384186,532179.0,8022,WL,B,9.0
4,19.644999980926514,learn,40355.000019073486,Wed Apr 16 2025 12:47:05 GMT-0500 (Central Daylight Time),532680.5,A,ca,I,a,115,2,501.5,532179.0,8022,WL,B,9.0
4,19.759999990463257,learn,40240.00000953674,Wed Apr 16 2025 12:47:05 GMT-0500 (Central Daylight Time),532795.6000000238,A,cab,I,b,101,2,616.6000000238419,532179.0,8022,WL,B,9.0
4,19.875,learn,40125.0,Wed Apr 16 2025 12:47:05 GMT-0500 (Central Daylight Time),532910.8000000119,A,cabi,I,i,104,2,731.8000000119209,532179.0,8022,WL,B,9.0
4,19.959999799728394,learn,40040.00020027161,Wed Apr 16 2025 12:47:05 GMT-0500 (Central Daylight Time),532995.1000000238,A,cabin,I,n,78,2,816.1000000238419,532179.0,8022,WL,B,9.0
4,20.20899987220764,learn,39791.00012779236,Wed Apr 16 2025 12:47:05 GMT-0500 (Central Daylight Time),533244.1000000238,A,cabinenter,I,enter,227,2,1065.1000000238419,532179.0,8022,WL,B,9.0
4,21.72699999809265,learn,38273.00000190735,Wed Apr 16 2025 12:47:05 GMT-0500 (Central Daylight Time),534762.8000000119,A,l,I,l,1497,2,1518.300000011921,533244.5,8022,WL,B,10.0
4,21.824999809265137,learn,38175.00019073486,Wed Apr 16 2025 12:47:05 GMT-0500 (Central Daylight Time),534861.0,A,la,I,a,91,2,1616.5,533244.5,8022,WL,B,10.0
4,21.95899987220764,learn,38041.00012779236,Wed Apr 16 2025 12:47:05 GMT-0500 (Central Daylight Time),534994.1999999881,A,lak,I,k,125,2,1749.699999988079,533244.5,8022,WL,B,10.0
4,22.092000007629395,learn,37907.999992370605,Wed Apr 16 2025 12:47:05 GMT-0500 (Central Daylight Time),535127.8000000119,A,lake,I,e,121,2,1883.300000011921,533244.5,8022,WL,B,10.0
4,22.292999982833862,learn,37707.00001716614,Wed Apr 16 2025 12:47:05 GMT-0500 (Central Daylight Time),535328.1000000238,A,lakeenter,I,enter,179,2,2083.600000023842,533244.5,8022,WL,B,10.0
4,23.657999992370605,learn,36342.000007629395,Wed Apr 16 2025 12:47:05 GMT-0500 (Central Daylight Time),536693.4000000358,A,p,I,p,1348,2,1365.0,535328.4000000358,8022,WL,B,11.0
4,23.792999982833862,learn,36207.00001716614,Wed Apr 16 2025 12:47:05 GMT-0500 (Central Daylight Time),536828.6999999881,A,pi,I,i,129,2,1500.2999999523163,535328.4000000358,8022,WL,B,11.0
4,23.907999992370605,learn,36092.000007629395,Wed Apr 16 2025 12:47:05 GMT-0500 (Central Daylight Time),536943.6999999881,A,pip,I,p,103,2,1615.2999999523163,535328.4000000358,8022,WL,B,11.0
4,24.108999967575073,learn,35891.00003242493,Wed Apr 16 2025 12:47:05 GMT-0500 (Central Daylight Time),537144.1999999881,A,pipe,I,e,180,2,1815.7999999523163,535328.4000000358,8022,WL,B,11.0
4,24.342999935150146,learn,35657.00006484985,Wed Apr 16 2025 12:47:05 GMT-0500 (Central Daylight Time),537378.4000000358,A,pipeenter,I,enter,226,2,2050.0,535328.4000000358,8022,WL,B,11.0
4,25.825999975204468,learn,34174.00002479553,Wed Apr 16 2025 12:47:05 GMT-0500 (Central Daylight Time),538861.5,A,s,I,s,1467,2,1482.800000011921,537378.6999999881,8022,WL,B,12.0
4,25.95799994468689,learn,34042.00005531311,Wed Apr 16 2025 12:47:05 GMT-0500 (Central Daylight Time),538993.6999999881,A,sk,I,k,109,2,1615.0,537378.6999999881,8022,WL,B,12.0
4,26.191999912261963,learn,33808.00008773804,Wed Apr 16 2025 12:47:05 GMT-0500 (Central Daylight Time),539227.4000000358,A,ski,I,i,217,2,1848.7000000476837,537378.6999999881,8022,WL,B,12.0
4,26.323999881744385,learn,33676.000118255615,Wed Apr 16 2025 12:47:05 GMT-0500 (Central Daylight Time),539359.6999999881,A,skin,I,n,120,2,1981.0,537378.6999999881,8022,WL,B,12.0
4,26.539999961853027,learn,33460.00003814697,Wed Apr 16 2025 12:47:05 GMT-0500 (Central Daylight Time),539575.9000000358,A,skinenter,I,enter,204,2,2197.2000000476837,537378.6999999881,8022,WL,B,12.0
4,26.823999881744385,learn,33176.000118255615,Wed Apr 16 2025 12:47:05 GMT-0500 (Central Daylight Time),539860.1000000238,A,f,I,f,268,2,283.80000001192093,539576.3000000119,8022,WL,B,13.0
4,26.973999977111816,learn,33026.00002288818,Wed Apr 16 2025 12:47:05 GMT-0500 (Central Daylight Time),540009.9000000358,A,fi,I,i,136,2,433.60000002384186,539576.3000000119,8022,WL,B,13.0
4,27.139999866485596,learn,32860.000133514404,Wed Apr 16 2025 12:47:05 GMT-0500 (Central Daylight Time),540175.8000000119,A,fir,I,r,144,2,599.5,539576.3000000119,8022,WL,B,13.0
4,27.20799994468689,learn,32792.00005531311,Wed Apr 16 2025 12:47:05 GMT-0500 (Central Daylight Time),540243.6999999881,A,fire,I,e,62,2,667.3999999761581,539576.3000000119,8022,WL,B,13.0
4,27.539999961853027,learn,32460.000038146973,Wed Apr 16 2025 12:47:05 GMT-0500 (Central Daylight Time),540576.1000000238,A,fireenter,I,enter,319,2,999.8000000119209,539576.3000000119,8022,WL,B,13.0
4,28.375,learn,31625.0,Wed Apr 16 2025 12:47:05 GMT-0500 (Central Daylight Time),541410.8000000119,A,c,I,c,829,2,834.3999999761581,540576.4000000358,8022,WL,B,14.0
4,28.457000017166138,learn,31542.999982833862,Wed Apr 16 2025 12:47:05 GMT-0500 (Central Daylight Time),541493.0,A,cl,I,l,56,2,916.5999999642372,540576.4000000358,8022,WL,B,14.0
4,28.622999906539917,learn,31377.000093460083,Wed Apr 16 2025 12:47:05 GMT-0500 (Central Daylight Time),541659.0,A,clo,I,o,159,2,1082.5999999642372,540576.4000000358,8022,WL,B,14.0
4,28.87399983406067,learn,31126.00016593933,Wed Apr 16 2025 12:47:05 GMT-0500 (Central Daylight Time),541909.1999999881,A,cloc,I,c,232,2,1332.7999999523163,540576.4000000358,8022,WL,B,14.0
4,29.0239999294281,learn,30976.0000705719,Wed Apr 16 2025 12:47:05 GMT-0500 (Central Daylight Time),542059.6999999881,A,clock,I,k,143,2,1483.2999999523163,540576.4000000358,8022,WL,B,14.0
4,29.85699987411499,learn,30143.00012588501,Wed Apr 16 2025 12:47:05 GMT-0500 (Central Daylight Time),542892.1000000238,A,clockenter,I,enter,816,2,2315.699999988079,540576.4000000358,8022,WL,B,14.0
4,34.15599989891052,learn,25844.000101089478,Wed Apr 16 2025 12:47:05 GMT-0500 (Central Daylight Time),547191.4000000358,A,enter,I,enter,4280,2,4299.0,542892.4000000358,8022,WL,B,15.0
5,1.434000015258789,learn,60000.0,Wed Apr 16 2025 12:47:05 GMT-0500 (Central Daylight Time),615335.6999999881,A,s,I,s,1415,2,1434.0,613901.6999999881,8022,WL,B,1.0
5,1.6499998569488525,learn,60000.0,Wed Apr 16 2025 12:47:05 GMT-0500 (Central Daylight Time),615552.1999999881,A,st,I,t,197,2,1650.5,613901.6999999881,8022,WL,B,1.0
5,1.8489999771118164,learn,60000.0,Wed Apr 16 2025 12:47:05 GMT-0500 (Central Daylight Time),615751.4000000358,A,str,I,r,189,2,1849.7000000476837,613901.6999999881,8022,WL,B,1.0
5,1.9839999675750732,learn,60000.0,Wed Apr 16 2025 12:47:05 GMT-0500 (Central Daylight Time),615885.5,A,stre,I,e,129,2,1983.800000011921,613901.6999999881,8022,WL,B,1.0
5,2.2009999752044678,learn,60000.0,Wed Apr 16 2025 12:47:05 GMT-0500 (Central Daylight Time),616103.3000000119,A,stree,I,e,198,2,2201.600000023842,613901.6999999881,8022,WL,B,1.0
5,2.3499999046325684,learn,60000.0,Wed Apr 16 2025 12:47:05 GMT-0500 (Central Daylight Time),616252.0,A,street,I,t,132,2,2350.300000011921,613901.6999999881,8022,WL,B,1.0
5,2.9670000076293945,learn,60000.0,Wed Apr 16 2025 12:47:05 GMT-0500 (Central Daylight Time),616868.8000000119,A,streetenter,I,enter,600,2,2967.100000023842,613901.6999999881,8022,WL,B,1.0
5,3.382999897003174,learn,60000.0,Wed Apr 16 2025 12:47:05 GMT-0500 (Central Daylight Time),617284.5,A,g,I,g,410,2,415.39999997615814,616869.1000000238,8022,WL,B,2.0
5,3.615999937057495,learn,60000.0,Wed Apr 16 2025 12:47:05 GMT-0500 (Central Daylight Time),617518.3000000119,A,gr,I,r,216,2,649.1999999880791,616869.1000000238,8022,WL,B,2.0
5,3.75,learn,60000.0,Wed Apr 16 2025 12:47:05 GMT-0500 (Central Daylight Time),617651.5,A,gra,I,a,118,2,782.3999999761581,616869.1000000238,8022,WL,B,2.0
5,3.950000047683716,learn,60000.0,Wed Apr 16 2025 12:47:05 GMT-0500 (Central Daylight Time),617851.8000000119,A,gras,I,s,184,2,982.6999999880791,616869.1000000238,8022,WL,B,2.0
5,4.134000062942505,learn,60000.0,Wed Apr 16 2025 12:47:05 GMT-0500 (Central Daylight Time),618036.1000000238,A,grass,I,s,179,2,1167.0,616869.1000000238,8022,WL,B,2.0
5,5.082000017166138,learn,60000.0,Wed Apr 16 2025 12:47:05 GMT-0500 (Central Daylight Time),618983.6999999881,A,grassenter,I,enter,928,2,2114.599999964237,616869.1000000238,8022,WL,B,2.0
5,5.466000080108643,learn,60000.0,Wed Apr 16 2025 12:47:05 GMT-0500 (Central Daylight Time),619367.9000000358,A,d,I,d,372,2,383.9000000357628,618984.0,8022,WL,B,3.0
5,5.6499998569488525,learn,60000.0,Wed Apr 16 2025 12:47:05 GMT-0500 (Central Daylight Time),619551.4000000358,A,do,I,o,165,2,567.4000000357628,618984.0,8022,WL,B,3.0
5,5.818000078201294,learn,60000.0,Wed Apr 16 2025 12:47:05 GMT-0500 (Central Daylight Time),619719.8000000119,A,doo,I,o,150,2,735.8000000119209,618984.0,8022,WL,B,3.0
5,5.98199987411499,learn,60000.0,Wed Apr 16 2025 12:47:05 GMT-0500 (Central Daylight Time),619883.8000000119,A,door,I,r,156,2,899.8000000119209,618984.0,8022,WL,B,3.0
5,6.2809998989105225,learn,60000.0,Wed Apr 16 2025 12:47:05 GMT-0500 (Central Daylight Time),620183.3000000119,A,doorenter,I,enter,279,2,1199.300000011921,618984.0,8022,WL,B,3.0
5,6.549000024795532,learn,60000.0,Wed Apr 16 2025 12:47:05 GMT-0500 (Central Daylight Time),620450.6999999881,A,a,I,a,254,2,267.19999998807907,620183.5,8022,WL,B,4.0
5,6.7149999141693115,learn,60000.0,Wed Apr 16 2025 12:47:05 GMT-0500 (Central Daylight Time),620617.1999999881,A,ar,I,r,156,2,433.69999998807907,620183.5,8022,WL,B,4.0
5,6.88100004196167,learn,60000.0,Wed Apr 16 2025 12:47:05 GMT-0500 (Central Daylight Time),620783.3000000119,A,arm,I,m,156,2,599.8000000119209,620183.5,8022,WL,B,4.0
5,7.480999946594238,learn,60000.0,Wed Apr 16 2025 12:47:05 GMT-0500 (Central Daylight Time),621382.8000000119,A,armenter,I,enter,590,2,1199.300000011921,620183.5,8022,WL,B,4.0
5,10.080999851226807,learn,60000.0,Wed Apr 16 2025 12:47:05 GMT-0500 (Central Daylight Time),623982.6999999881,A,s,I,s,2590,2,2599.599999964237,621383.1000000238,8022,WL,B,5.0
5,10.746999979019165,learn,60000.0,Wed Apr 16 2025 12:47:05 GMT-0500 (Central Daylight Time),624649.1999999881,A,,I,backspace,645,2,3266.099999964237,621383.1000000238,8022,WL,B,5.0
5,10.98199987411499,learn,60000.0,Wed Apr 16 2025 12:47:05 GMT-0500 (Central Daylight Time),624883.4000000358,A,w,I,w,229,2,3500.300000011921,621383.1000000238,8022,WL,B,5.0
5,11.164999961853027,learn,60000.0,Wed Apr 16 2025 12:47:05 GMT-0500 (Central Daylight Time),625066.4000000358,A,wi,I,i,178,2,3683.300000011921,621383.1000000238,8022,WL,B,5.0
5,11.282999992370605,learn,60000.0,Wed Apr 16 2025 12:47:05 GMT-0500 (Central Daylight Time),625184.6000000238,A,wif,I,f,105,2,3801.5,621383.1000000238,8022,WL,B,5.0
5,11.44599986076355,learn,60000.0,Wed Apr 16 2025 12:47:05 GMT-0500 (Central Daylight Time),625348.0,A,wife,I,e,145,2,3964.899999976158,621383.1000000238,8022,WL,B,5.0
5,11.713000059127808,learn,60000.0,Wed Apr 16 2025 12:47:05 GMT-0500 (Central Daylight Time),625614.5,A,wifeenter,I,enter,256,2,4231.399999976158,621383.1000000238,8022,WL,B,5.0
5,12.69700002670288,learn,60000.0,Wed Apr 16 2025 12:47:05 GMT-0500 (Central Daylight Time),626598.6999999881,A,s,I,s,967,2,983.8999999761581,625614.8000000119,8022,WL,B,6.0
5,12.846999883651733,learn,60000.0,Wed Apr 16 2025 12:47:05 GMT-0500 (Central Daylight Time),626748.5,A,st,I,t,144,2,1133.699999988079,625614.8000000119,8022,WL,B,6.0
5,12.978999853134155,learn,60000.0,Wed Apr 16 2025 12:47:05 GMT-0500 (Central Daylight Time),626881.3000000119,A,sta,I,a,119,2,1266.5,625614.8000000119,8022,WL,B,6.0
5,13.128999948501587,learn,60000.0,Wed Apr 16 2025 12:47:05 GMT-0500 (Central Daylight Time),627031.4000000358,A,star,I,r,130,2,1416.6000000238419,625614.8000000119,8022,WL,B,6.0
5,13.312999963760376,learn,60000.0,Wed Apr 16 2025 12:47:05 GMT-0500 (Central Daylight Time),627215.1999999881,A,starenter,I,enter,166,2,1600.3999999761581,625614.8000000119,8022,WL,B,6.0
5,13.578999996185303,learn,60000.0,Wed Apr 16 2025 12:47:05 GMT-0500 (Central Daylight Time),627481.4000000358,A,w,I,w,253,2,265.9000000357628,627215.5,8022,WL,B,7.0
5,13.678999900817871,learn,60000.0,Wed Apr 16 2025 12:47:05 GMT-0500 (Central Daylight Time),627581.0,A,wi,I,i,84,2,365.5,627215.5,8022,WL,B,7.0
5,13.797999858856201,learn,60000.0,Wed Apr 16 2025 12:47:05 GMT-0500 (Central Daylight Time),627700.4000000358,A,win,I,n,110,2,484.9000000357628,627215.5,8022,WL,B,7.0
5,13.928999900817871,learn,60000.0,Wed Apr 16 2025 12:47:05 GMT-0500 (Central Daylight Time),627830.6999999881,A,wind,I,d,112,2,615.1999999880791,627215.5,8022,WL,B,7.0
5,14.079999923706055,learn,60000.0,Wed Apr 16 2025 12:47:05 GMT-0500 (Central Daylight Time),627982.1000000238,A,windo,I,o,130,2,766.6000000238419,627215.5,8022,WL,B,7.0
5,14.19599986076355,learn,60000.0,Wed Apr 16 2025 12:47:05 GMT-0500 (Central Daylight Time),628098.1999999881,A,window,I,w,102,2,882.6999999880791,627215.5,8022,WL,B,7.0
5,14.478999853134155,learn,60000.0,Wed Apr 16 2025 12:47:05 GMT-0500 (Central Daylight Time),628380.9000000358,A,windowenter,I,enter,266,2,1165.4000000357628,627215.5,8022,WL,B,7.0
5,15.595999956130981,learn,60000.0,Wed Apr 16 2025 12:47:05 GMT-0500 (Central Daylight Time),629497.4000000358,A,c,I,c,1103,2,1116.2000000476837,628381.1999999881,8022,WL,B,8.0
5,15.711999893188477,learn,60000.0,Wed Apr 16 2025 12:47:05 GMT-0500 (Central Daylight Time),629613.9000000358,A,ci,I,i,109,2,1232.7000000476837,628381.1999999881,8022,WL,B,8.0
5,15.928999900817871,learn,60000.0,Wed Apr 16 2025 12:47:05 GMT-0500 (Central Daylight Time),629830.8000000119,A,cit,I,t,199,2,1449.6000000238419,628381.1999999881,8022,WL,B,8.0
5,16.01200008392334,learn,60000.0,Wed Apr 16 2025 12:47:05 GMT-0500 (Central Daylight Time),629913.6000000238,A,city,I,y,71,2,1532.4000000357628,628381.1999999881,8022,WL,B,8.0
5,17.361999988555908,learn,60000.0,Wed Apr 16 2025 12:47:05 GMT-0500 (Central Daylight Time),631263.9000000358,A,cityenter,I,enter,1328,2,2882.7000000476837,628381.1999999881,8022,WL,B,8.0
5,17.828999996185303,learn,60000.0,Wed Apr 16 2025 12:47:05 GMT-0500 (Central Daylight Time),631730.4000000358,A,p,I,p,453,2,466.30000001192093,631264.1000000238,8022,WL,B,9.0
5,17.978999853134155,learn,60000.0,Wed Apr 16 2025 12:47:05 GMT-0500 (Central Daylight Time),631880.6999999881,A,pu,I,u,136,2,616.5999999642372,631264.1000000238,8022,WL,B,9.0
5,18.16100001335144,learn,60000.0,Wed Apr 16 2025 12:47:05 GMT-0500 (Central Daylight Time),632062.8000000119,A,pup,I,p,164,2,798.6999999880791,631264.1000000238,8022,WL,B,9.0
5,18.32800006866455,learn,60000.0,Wed Apr 16 2025 12:47:05 GMT-0500 (Central Daylight Time),632230.1999999881,A,pupi,I,i,149,2,966.0999999642372,631264.1000000238,8022,WL,B,9.0
5,18.461999893188477,learn,60000.0,Wed Apr 16 2025 12:47:05 GMT-0500 (Central Daylight Time),632364.3000000119,A,pupil,I,l,120,2,1100.199999988079,631264.1000000238,8022,WL,B,9.0
5,18.711999893188477,learn,60000.0,Wed Apr 16 2025 12:47:05 GMT-0500 (Central Daylight Time),632613.8000000119,A,pupilenter,I,enter,233,2,1349.699999988079,631264.1000000238,8022,WL,B,9.0
5,19.02900004386902,learn,60000.0,Wed Apr 16 2025 12:47:05 GMT-0500 (Central Daylight Time),632930.9000000358,A,c,I,c,303,2,316.80000001192093,632614.1000000238,8022,WL,B,10.0
5,19.194999933242798,learn,60000.0,Wed Apr 16 2025 12:47:05 GMT-0500 (Central Daylight Time),633096.9000000358,A,ca,I,a,154,2,482.80000001192093,632614.1000000238,8022,WL,B,10.0
5,19.30999994277954,learn,60000.0,Wed Apr 16 2025 12:47:05 GMT-0500 (Central Daylight Time),633211.6000000238,A,cab,I,b,100,2,597.5,632614.1000000238,8022,WL,B,10.0
5,19.427000045776367,learn,60000.0,Wed Apr 16 2025 12:47:05 GMT-0500 (Central Daylight Time),633329.4000000358,A,cabi,I,i,105,2,715.3000000119209,632614.1000000238,8022,WL,B,10.0
5,19.560999870300293,learn,60000.0,Wed Apr 16 2025 12:47:05 GMT-0500 (Central Daylight Time),633462.8000000119,A,cabin,I,n,124,2,848.6999999880791,632614.1000000238,8022,WL,B,10.0
5,19.777999877929688,learn,60000.0,Wed Apr 16 2025 12:47:05 GMT-0500 (Central Daylight Time),633679.8000000119,A,cabinenter,I,enter,198,2,1065.699999988079,632614.1000000238,8022,WL,B,10.0
5,20.17799997329712,learn,60000.0,Wed Apr 16 2025 12:47:05 GMT-0500 (Central Daylight Time),634080.3000000119,A,l,I,l,381,2,400.19999998807907,633680.1000000238,8022,WL,B,11.0
5,20.30999994277954,learn,60000.0,Wed Apr 16 2025 12:47:05 GMT-0500 (Central Daylight Time),634211.9000000358,A,la,I,a,116,2,531.8000000119209,633680.1000000238,8022,WL,B,11.0
5,20.444999933242798,learn,60000.0,Wed Apr 16 2025 12:47:05 GMT-0500 (Central Daylight Time),634346.8000000119,A,lak,I,k,120,2,666.6999999880791,633680.1000000238,8022,WL,B,11.0
5,20.57800006866455,learn,60000.0,Wed Apr 16 2025 12:47:05 GMT-0500 (Central Daylight Time),634479.6999999881,A,lake,I,e,113,2,799.5999999642372,633680.1000000238,8022,WL,B,11.0
5,20.76099991798401,learn,60000.0,Wed Apr 16 2025 12:47:05 GMT-0500 (Central Daylight Time),634663.3000000119,A,lakeenter,I,enter,164,2,983.1999999880791,633680.1000000238,8022,WL,B,11.0
5,21.727999925613403,learn,60000.0,Wed Apr 16 2025 12:47:05 GMT-0500 (Central Daylight Time),635629.6999999881,A,p,I,p,961,2,966.1999999880791,634663.5,8022,WL,B,12.0
5,21.89299988746643,learn,60000.0,Wed Apr 16 2025 12:47:05 GMT-0500 (Central Daylight Time),635795.6000000238,A,pi,I,i,151,2,1132.1000000238419,634663.5,8022,WL,B,12.0
5,22.009999990463257,learn,60000.0,Wed Apr 16 2025 12:47:05 GMT-0500 (Central Daylight Time),635912.5,A,pip,I,p,104,2,1249.0,634663.5,8022,WL,B,12.0
5,22.177000045776367,learn,60000.0,Wed Apr 16 2025 12:47:05 GMT-0500 (Central Daylight Time),636079.1000000238,A,pipe,I,e,156,2,1415.6000000238419,634663.5,8022,WL,B,12.0
5,22.375999927520752,learn,60000.0,Wed Apr 16 2025 12:47:05 GMT-0500 (Central Daylight Time),636278.4000000358,A,pipeenter,I,enter,189,2,1614.9000000357628,634663.5,8022,WL,B,12.0
5,25.259999990463257,learn,60000.0,Wed Apr 16 2025 12:47:05 GMT-0500 (Central Daylight Time),639162.3000000119,A,s,I,s,2870,2,2883.5,636278.8000000119,8022,WL,B,13.0
5,25.460000038146973,learn,60000.0,Wed Apr 16 2025 12:47:05 GMT-0500 (Central Daylight Time),639362.6000000238,A,sk,I,k,195,2,3083.800000011921,636278.8000000119,8022,WL,B,13.0
5,25.658999919891357,learn,60000.0,Wed Apr 16 2025 12:47:05 GMT-0500 (Central Daylight Time),639560.8000000119,A,ski,I,i,177,2,3282.0,636278.8000000119,8022,WL,B,13.0
5,25.774999856948853,learn,60000.0,Wed Apr 16 2025 12:47:05 GMT-0500 (Central Daylight Time),639677.6000000238,A,skin,I,n,100,2,3398.800000011921,636278.8000000119,8022,WL,B,13.0
5,25.991999864578247,learn,60000.0,Wed Apr 16 2025 12:47:05 GMT-0500 (Central Daylight Time),639893.8000000119,A,skinenter,I,enter,206,2,3615.0,636278.8000000119,8022,WL,B,13.0
5,26.158999919891357,learn,60000.0,Wed Apr 16 2025 12:47:05 GMT-0500 (Central Daylight Time),640061.5,A,f,I,f,151,2,167.5999999642372,639893.9000000358,8022,WL,B,14.0
5,26.341000080108643,learn,60000.0,Wed Apr 16 2025 12:47:05 GMT-0500 (Central Daylight Time),640243.5,A,fi,I,i,166,2,349.5999999642372,639893.9000000358,8022,WL,B,14.0
5,26.4760000705719,learn,60000.0,Wed Apr 16 2025 12:47:05 GMT-0500 (Central Daylight Time),640378.5,A,fir,I,r,129,2,484.5999999642372,639893.9000000358,8022,WL,B,14.0
5,26.575000047683716,learn,60000.0,Wed Apr 16 2025 12:47:05 GMT-0500 (Central Daylight Time),640477.4000000358,A,fire,I,e,82,2,583.5,639893.9000000358,8022,WL,B,14.0
5,26.875,learn,60000.0,Wed Apr 16 2025 12:47:05 GMT-0500 (Central Daylight Time),640777.6999999881,A,fireenter,I,enter,293,2,883.7999999523163,639893.9000000358,8022,WL,B,14.0
5,27.308000087738037,learn,60000.0,Wed Apr 16 2025 12:47:05 GMT-0500 (Central Daylight Time),641209.9000000358,A,c,I,c,418,2,432.0,640777.9000000358,8022,WL,B,15.0
5,27.391000032424927,learn,60000.0,Wed Apr 16 2025 12:47:05 GMT-0500 (Central Daylight Time),641293.1999999881,A,cl,I,l,74,2,515.2999999523163,640777.9000000358,8022,WL,B,15.0
5,27.573999881744385,learn,60000.0,Wed Apr 16 2025 12:47:05 GMT-0500 (Central Daylight Time),641476.3000000119,A,clo,I,o,176,2,698.3999999761581,640777.9000000358,8022,WL,B,15.0
5,27.674999952316284,learn,60000.0,Wed Apr 16 2025 12:47:05 GMT-0500 (Central Daylight Time),641576.6999999881,A,cloc,I,c,89,2,798.7999999523163,640777.9000000358,8022,WL,B,15.0
5,27.79200005531311,learn,60000.0,Wed Apr 16 2025 12:47:05 GMT-0500 (Central Daylight Time),641694.1000000238,A,clock,I,k,99,2,916.1999999880791,640777.9000000358,8022,WL,B,15.0
5,28.009000062942505,learn,60000.0,Wed Apr 16 2025 12:47:05 GMT-0500 (Central Daylight Time),641911.0,A,clockenter,I,enter,206,2,1133.0999999642372,640777.9000000358,8022,WL,B,15.0
6,1.8659999370574951,distr,58134.000062942505,Wed Apr 16 2025 12:47:05 GMT-0500 (Central Daylight Time),713871.4000000358,B,b,I,b,1845,2,1866.0,712005.4000000358,8022,WL,B,1.0
6,2.015000104904175,distr,57984.999895095825,Wed Apr 16 2025 12:47:05 GMT-0500 (Central Daylight Time),714020.0,B,ba,I,a,142,2,2014.5999999642372,712005.4000000358,8022,WL,B,1.0
6,2.1510000228881836,distr,57848.99997711182,Wed Apr 16 2025 12:47:05 GMT-0500 (Central Daylight Time),714156.1000000238,B,bab,I,b,130,2,2150.699999988079,712005.4000000358,8022,WL,B,1.0
6,2.365000009536743,distr,57634.99999046326,Wed Apr 16 2025 12:47:05 GMT-0500 (Central Daylight Time),714370.6999999881,B,baby,I,y,200,2,2365.2999999523163,712005.4000000358,8022,WL,B,1.0
6,2.682000160217285,distr,57317.999839782715,Wed Apr 16 2025 12:47:05 GMT-0500 (Central Daylight Time),714687.5,B,babyenter,I,enter,296,2,2682.099999964237,712005.4000000358,8022,WL,B,1.0
6,3.080000162124634,distr,56919.999837875366,Wed Apr 16 2025 12:47:05 GMT-0500 (Central Daylight Time),715085.9000000358,B,o,I,o,389,2,398.2000000476837,714687.6999999881,8022,WL,B,2.0
6,3.2150001525878906,distr,56784.99984741211,Wed Apr 16 2025 12:47:05 GMT-0500 (Central Daylight Time),715220.6000000238,B,oc,I,c,129,2,532.9000000357628,714687.6999999881,8022,WL,B,2.0
6,3.4809999465942383,distr,56519.00005340576,Wed Apr 16 2025 12:47:05 GMT-0500 (Central Daylight Time),715487.0,B,oce,I,e,257,2,799.3000000119209,714687.6999999881,8022,WL,B,2.0
6,3.7980000972747803,distr,56201.99990272522,Wed Apr 16 2025 12:47:05 GMT-0500 (Central Daylight Time),715803.8000000119,B,ocea,I,a,302,2,1116.1000000238419,714687.6999999881,8022,WL,B,2.0
6,3.950000047683716,distr,56049.999952316284,Wed Apr 16 2025 12:47:05 GMT-0500 (Central Daylight Time),715955.6999999881,B,ocean,I,n,145,2,1268.0,714687.6999999881,8022,WL,B,2.0
6,4.197999954223633,distr,55802.00004577637,Wed Apr 16 2025 12:47:05 GMT-0500 (Central Daylight Time),716203.6000000238,B,oceanenter,I,enter,233,2,1515.9000000357628,714687.6999999881,8022,WL,B,2.0
6,4.381999969482422,distr,55618.00003051758,Wed Apr 16 2025 12:47:05 GMT-0500 (Central Daylight Time),716387.5,B,b,I,b,177,2,183.69999998807907,716203.8000000119,8022,WL,B,3.0
6,4.54800009727478,distr,55451.99990272522,Wed Apr 16 2025 12:47:05 GMT-0500 (Central Daylight Time),716553.6000000238,B,ba,I,a,144,2,349.80000001192093,716203.8000000119,8022,WL,B,3.0
6,4.680999994277954,distr,55319.000005722046,Wed Apr 16 2025 12:47:05 GMT-0500 (Central Daylight Time),716686.3000000119,B,bal,I,l,111,2,482.5,716203.8000000119,8022,WL,B,3.0
6,4.79800009727478,distr,55201.99990272522,Wed Apr 16 2025 12:47:05 GMT-0500 (Central Daylight Time),716803.4000000358,B,bala,I,a,112,2,599.6000000238419,716203.8000000119,8022,WL,B,3.0
6,5.414999961853027,distr,54585.00003814697,Wed Apr 16 2025 12:47:05 GMT-0500 (Central Daylight Time),717420.5,B,bal,I,backspace,597,2,1216.699999988079,716203.8000000119,8022,WL,B,3.0
6,5.581000089645386,distr,54418.999910354614,Wed Apr 16 2025 12:47:05 GMT-0500 (Central Daylight Time),717586.1999999881,B,ba,I,backspace,142,2,1382.3999999761581,716203.8000000119,8022,WL,B,3.0
6,5.730999946594238,distr,54269.00005340576,Wed Apr 16 2025 12:47:05 GMT-0500 (Central Daylight Time),717736.4000000358,B,b,I,backspace,130,2,1532.6000000238419,716203.8000000119,8022,WL,B,3.0
6,5.865000009536743,distr,54134.99999046326,Wed Apr 16 2025 12:47:05 GMT-0500 (Central Daylight Time),717870.8000000119,B,,I,backspace,125,2,1667.0,716203.8000000119,8022,WL,B,3.0
6,6.049000024795532,distr,53950.99997520447,Wed Apr 16 2025 12:47:05 GMT-0500 (Central Daylight Time),718054.1000000238,B,,I,backspace,162,2,1850.300000011921,716203.8000000119,8022,WL,B,3.0
6,6.480999946594238,distr,53519.00005340576,Wed Apr 16 2025 12:47:05 GMT-0500 (Central Daylight Time),718486.6000000238,B,p,I,p,413,2,2282.800000011921,716203.8000000119,8022,WL,B,3.0
6,6.664000034332275,distr,53335.999965667725,Wed Apr 16 2025 12:47:05 GMT-0500 (Central Daylight Time),718669.4000000358,B,pa,I,a,174,2,2465.600000023842,716203.8000000119,8022,WL,B,3.0
6,6.766000032424927,distr,53233.99996757507,Wed Apr 16 2025 12:47:05 GMT-0500 (Central Daylight Time),718771.6999999881,B,pal,I,l,96,2,2567.899999976158,716203.8000000119,8022,WL,B,3.0
6,6.896000146865845,distr,53103.999853134155,Wed Apr 16 2025 12:47:05 GMT-0500 (Central Daylight Time),718901.6000000238,B,pala,I,a,120,2,2697.800000011921,716203.8000000119,8022,WL,B,3.0
6,7.0299999713897705,distr,52970.00002861023,Wed Apr 16 2025 12:47:05 GMT-0500 (Central Daylight Time),719035.9000000358,B,palac,I,c,119,2,2832.100000023842,716203.8000000119,8022,WL,B,3.0
6,7.2799999713897705,distr,52720.00002861023,Wed Apr 16 2025 12:47:05 GMT-0500 (Central Daylight Time),719285.9000000358,B,palace,I,e,231,2,3082.100000023842,716203.8000000119,8022,WL,B,3.0
6,7.546999931335449,distr,52453.00006866455,Wed Apr 16 2025 12:47:05 GMT-0500 (Central Daylight Time),719552.0,B,palaceenter,I,enter,245,2,3348.199999988079,716203.8000000119,8022,WL,B,3.0
6,12.663000106811523,distr,47336.99989318848,Wed Apr 16 2025 12:47:05 GMT-0500 (Central Daylight Time),724668.1999999881,B,b,I,b,5101,2,5116.0,719552.1999999881,8022,WL,B,4.0
6,12.84500002861023,distr,47154.99997138977,Wed Apr 16 2025 12:47:05 GMT-0500 (Central Daylight Time),724850.6999999881,B,ba,I,a,169,2,5298.5,719552.1999999881,8022,WL,B,4.0
6,12.995000123977661,distr,47004.99987602234,Wed Apr 16 2025 12:47:05 GMT-0500 (Central Daylight Time),725000.9000000358,B,bar,I,r,127,2,5448.700000047684,719552.1999999881,8022,WL,B,4.0
6,13.227999925613403,distr,46772.0000743866,Wed Apr 16 2025 12:47:05 GMT-0500 (Central Daylight Time),725233.1000000238,B,barenter,I,enter,212,2,5680.900000035763,719552.1999999881,8022,WL,B,4.0
6,13.394999980926514,distr,46605.000019073486,Wed Apr 16 2025 12:47:05 GMT-0500 (Central Daylight Time),725400.5,B,d,I,d,156,2,167.0999999642372,725233.4000000358,8022,WL,B,5.0
6,13.59500002861023,distr,46404.99997138977,Wed Apr 16 2025 12:47:05 GMT-0500 (Central Daylight Time),725600.9000000358,B,dr,I,r,178,2,367.5,725233.4000000358,8022,WL,B,5.0
6,13.66100001335144,distr,46338.99998664856,Wed Apr 16 2025 12:47:05 GMT-0500 (Central Daylight Time),725666.6999999881,B,dre,I,e,50,2,433.2999999523163,725233.4000000358,8022,WL,B,5.0
6,13.76200008392334,distr,46237.99991607666,Wed Apr 16 2025 12:47:05 GMT-0500 (Central Daylight Time),725767.0,B,dres,I,s,77,2,533.5999999642372,725233.4000000358,8022,WL,B,5.0
6,13.894000053405762,distr,46105.99994659424,Wed Apr 16 2025 12:47:05 GMT-0500 (Central Daylight Time),725899.4000000358,B,dress,I,s,125,2,666.0,725233.4000000358,8022,WL,B,5.0
6,14.16100001335144,distr,45838.99998664856,Wed Apr 16 2025 12:47:05 GMT-0500 (Central Daylight Time),726166.3000000119,B,dressenter,I,enter,254,2,932.8999999761581,725233.4000000358,8022,WL,B,5.0
6,16.342999935150146,distr,43657.00006484985,Wed Apr 16 2025 12:47:05 GMT-0500 (Central Daylight Time),728348.6000000238,B,a,I,a,2176,2,2182.100000023842,726166.5,8022,WL,B,6.0
6,17.110000133514404,distr,42889.999866485596,Wed Apr 16 2025 12:47:05 GMT-0500 (Central Daylight Time),729115.9000000358,B,ar,I,r,752,2,2949.400000035763,726166.5,8022,WL,B,6.0
6,17.42799997329712,distr,42572.00002670288,Wed Apr 16 2025 12:47:05 GMT-0500 (Central Daylight Time),729433.4000000358,B,arm,I,m,296,2,3266.900000035763,726166.5,8022,WL,B,6.0
6,17.710000038146973,distr,42289.99996185303,Wed Apr 16 2025 12:47:05 GMT-0500 (Central Daylight Time),729715.6999999881,B,armenter,I,enter,275,2,3549.199999988079,726166.5,8022,WL,B,6.0
6,17.993000030517578,distr,42006.99996948242,Wed Apr 16 2025 12:47:05 GMT-0500 (Central Daylight Time),729998.1000000238,B,b,I,b,273,2,282.19999998807907,729715.9000000358,8022,WL,B,7.0
6,18.14400005340576,distr,41855.99994659424,Wed Apr 16 2025 12:47:05 GMT-0500 (Central Daylight Time),730149.6999999881,B,bu,I,u,145,2,433.7999999523163,729715.9000000358,8022,WL,B,7.0
6,18.22699999809265,distr,41773.00000190735,Wed Apr 16 2025 12:47:05 GMT-0500 (Central Daylight Time),730232.6999999881,B,bui,I,i,61,2,516.7999999523163,729715.9000000358,8022,WL,B,7.0
6,18.29200005531311,distr,41707.99994468689,Wed Apr 16 2025 12:47:05 GMT-0500 (Central Daylight Time),730298.0,B,buil,I,l,59,2,582.0999999642372,729715.9000000358,8022,WL,B,7.0
6,18.443000078201294,distr,41556.999921798706,Wed Apr 16 2025 12:47:05 GMT-0500 (Central Daylight Time),730448.5,B,build,I,d,137,2,732.5999999642372,729715.9000000358,8022,WL,B,7.0
6,18.55900001525879,distr,41440.99998474121,Wed Apr 16 2025 12:47:05 GMT-0500 (Central Daylight Time),730564.1000000238,B,buildi,I,i,106,2,848.1999999880791,729715.9000000358,8022,WL,B,7.0
6,18.677000045776367,distr,41322.99995422363,Wed Apr 16 2025 12:47:05 GMT-0500 (Central Daylight Time),730682.1999999881,B,buildin,I,n,102,2,966.2999999523163,729715.9000000358,8022,WL,B,7.0
6,18.742000102996826,distr,41257.999897003174,Wed Apr 16 2025 12:47:05 GMT-0500 (Central Daylight Time),730747.3000000119,B,building,I,g,49,2,1031.3999999761581,729715.9000000358,8022,WL,B,7.0
6,18.91100001335144,distr,41088.99998664856,Wed Apr 16 2025 12:47:05 GMT-0500 (Central Daylight Time),730916.1000000238,B,buildingenter,I,enter,163,2,1200.199999988079,729715.9000000358,8022,WL,B,7.0
6,19.127000093460083,distr,40872.99990653992,Wed Apr 16 2025 12:47:05 GMT-0500 (Central Daylight Time),731132.1000000238,B,b,I,b,201,2,215.9000000357628,730916.1999999881,8022,WL,B,8.0
6,19.608999967575073,distr,40391.00003242493,Wed Apr 16 2025 12:47:05 GMT-0500 (Central Daylight Time),731614.6000000238,B,,I,backspace,471,2,698.4000000357628,730916.1999999881,8022,WL,B,8.0
6,19.710000038146973,distr,40289.99996185303,Wed Apr 16 2025 12:47:05 GMT-0500 (Central Daylight Time),731715.4000000358,B,f,I,f,92,2,799.2000000476837,730916.1999999881,8022,WL,B,8.0
6,20.094000101089478,distr,39905.99989891052,Wed Apr 16 2025 12:47:05 GMT-0500 (Central Daylight Time),732100.0,B,fr,I,r,377,2,1183.800000011921,730916.1999999881,8022,WL,B,8.0
6,20.22699999809265,distr,39773.00000190735,Wed Apr 16 2025 12:47:05 GMT-0500 (Central Daylight Time),732232.1999999881,B,fri,I,i,110,2,1316.0,730916.1999999881,8022,WL,B,8.0
6,20.360000133514404,distr,39639.999866485596,Wed Apr 16 2025 12:47:05 GMT-0500 (Central Daylight Time),732365.1000000238,B,frie,I,e,122,2,1448.9000000357628,730916.1999999881,8022,WL,B,8.0
6,20.460000038146973,distr,39539.99996185303,Wed Apr 16 2025 12:47:05 GMT-0500 (Central Daylight Time),732465.5,B,frien,I,n,78,2,1549.300000011921,730916.1999999881,8022,WL,B,8.0
6,20.608999967575073,distr,39391.00003242493,Wed Apr 16 2025 12:47:05 GMT-0500 (Central Daylight Time),732614.8000000119,B,friend,I,d,130,2,1698.6000000238419,730916.1999999881,8022,WL,B,8.0
6,20.743000030517578,distr,39256.99996948242,Wed Apr 16 2025 12:47:05 GMT-0500 (Central Daylight Time),732748.4000000358,B,friendenter,I,enter,115,2,1832.2000000476837,730916.1999999881,8022,WL,B,8.0
6,20.95900011062622,distr,39040.99988937378,Wed Apr 16 2025 12:47:05 GMT-0500 (Central Daylight Time),732964.0,B,v,I,v,201,2,215.30000001192093,732748.6999999881,8022,WL,B,9.0
6,21.0770001411438,distr,38922.9998588562,Wed Apr 16 2025 12:47:05 GMT-0500 (Central Daylight Time),733082.1999999881,B,vi,I,i,113,2,333.5,732748.6999999881,8022,WL,B,9.0
6,21.259000062942505,distr,38740.999937057495,Wed Apr 16 2025 12:47:05 GMT-0500 (Central Daylight Time),733264.1000000238,B,vil,I,l,171,2,515.4000000357628,732748.6999999881,8022,WL,B,9.0
6,21.409000158309937,distr,38590.99984169006,Wed Apr 16 2025 12:47:05 GMT-0500 (Central Daylight Time),733415.0,B,vill,I,l,133,2,666.3000000119209,732748.6999999881,8022,WL,B,9.0
6,21.4760000705719,distr,38523.9999294281,Wed Apr 16 2025 12:47:05 GMT-0500 (Central Daylight Time),733481.8000000119,B,villa,I,a,60,2,733.1000000238419,732748.6999999881,8022,WL,B,9.0
6,21.575999975204468,distr,38424.00002479553,Wed Apr 16 2025 12:47:05 GMT-0500 (Central Daylight Time),733581.0,B,villag,I,g,91,2,832.3000000119209,732748.6999999881,8022,WL,B,9.0
6,21.692000150680542,distr,38307.99984931946,Wed Apr 16 2025 12:47:05 GMT-0500 (Central Daylight Time),733698.0,B,village,I,e,103,2,949.3000000119209,732748.6999999881,8022,WL,B,9.0
6,21.825999975204468,distr,38174.00002479553,Wed Apr 16 2025 12:47:05 GMT-0500 (Central Daylight Time),733831.1000000238,B,villageenter,I,enter,113,2,1082.4000000357628,732748.6999999881,8022,WL,B,9.0
6,23.39199995994568,distr,36608.00004005432,Wed Apr 16 2025 12:47:05 GMT-0500 (Central Daylight Time),735397.1000000238,B,c,I,c,1551,2,1565.800000011921,733831.3000000119,8022,WL,B,10.0
6,23.677000045776367,distr,36322.99995422363,Wed Apr 16 2025 12:47:05 GMT-0500 (Central Daylight Time),735682.5,B,ce,I,e,280,2,1851.199999988079,733831.3000000119,8022,WL,B,10.0
6,23.85800004005432,distr,36141.99995994568,Wed Apr 16 2025 12:47:05 GMT-0500 (Central Daylight Time),735863.9000000358,B,cel,I,l,157,2,2032.6000000238419,733831.3000000119,8022,WL,B,10.0
6,24.008000135421753,distr,35991.99986457825,Wed Apr 16 2025 12:47:05 GMT-0500 (Central Daylight Time),736013.6999999881,B,cell,I,l,142,2,2182.399999976158,733831.3000000119,8022,WL,B,10.0
6,26.374000072479248,distr,33625.99992752075,Wed Apr 16 2025 12:47:05 GMT-0500 (Central Daylight Time),738379.8000000119,B,cellenter,I,enter,2350,2,4548.5,733831.3000000119,8022,WL,B,10.0
6,27.391000032424927,distr,32608.999967575073,Wed Apr 16 2025 12:47:05 GMT-0500 (Central Daylight Time),739396.5,B,enter,I,enter,1001,2,1016.3999999761581,738380.1000000238,8022,WL,B,11.0
6,27.674000024795532,distr,32325.999975204468,Wed Apr 16 2025 12:47:05 GMT-0500 (Central Daylight Time),739679.5,B,enter,I,enter,273,2,282.69999998807907,739396.8000000119,8022,WL,B,12.0
6,27.992000102996826,distr,32007.999897003174,Wed Apr 16 2025 12:47:05 GMT-0500 (Central Daylight Time),739997.3000000119,B,enter,I,enter,301,2,317.5,739679.8000000119,8022,WL,B,13.0
6,28.35800004005432,distr,31641.99995994568,Wed Apr 16 2025 12:47:05 GMT-0500 (Central Daylight Time),740363.1000000238,B,enter,I,enter,361,2,365.4000000357628,739997.6999999881,8022,WL,B,14.0
6,28.824000120162964,distr,31175.999879837036,Wed Apr 16 2025 12:47:05 GMT-0500 (Central Daylight Time),740829.4000000358,B,enter,I,enter,448,2,466.0,740363.4000000358,8022,WL,B,15.0
7,4.2809998989105225,immed,55719.00010108948,Wed Apr 16 2025 12:47:05 GMT-0500 (Central Daylight Time),756206.4000000358,A,s,I,s,4261,2,4280.600000023842,751925.8000000119,8022,WL,B,1.0
7,4.4649999141693115,immed,55535.00008583069,Wed Apr 16 2025 12:47:05 GMT-0500 (Central Daylight Time),756390.6000000238,A,st,I,t,164,2,4464.800000011921,751925.8000000119,8022,WL,B,1.0
7,4.664000034332275,immed,55335.999965667725,Wed Apr 16 2025 12:47:05 GMT-0500 (Central Daylight Time),756590.0,A,str,I,r,190,2,4664.199999988079,751925.8000000119,8022,WL,B,1.0
7,4.730999946594238,immed,55269.00005340576,Wed Apr 16 2025 12:47:05 GMT-0500 (Central Daylight Time),756656.8000000119,A,stre,I,e,46,2,4731.0,751925.8000000119,8022,WL,B,1.0
7,4.932999849319458,immed,55067.00015068054,Wed Apr 16 2025 12:47:05 GMT-0500 (Central Daylight Time),756858.4000000358,A,stree,I,e,178,2,4932.600000023842,751925.8000000119,8022,WL,B,1.0
7,5.080999851226807,immed,54919.00014877319,Wed Apr 16 2025 12:47:05 GMT-0500 (Central Daylight Time),757007.0,A,street,I,t,138,2,5081.199999988079,751925.8000000119,8022,WL,B,1.0
7,5.297999858856201,immed,54702.0001411438,Wed Apr 16 2025 12:47:05 GMT-0500 (Central Daylight Time),757223.3000000119,A,streetenter,I,enter,196,2,5297.5,751925.8000000119,8022,WL,B,1.0
7,8.095999956130981,immed,51904.00004386902,Wed Apr 16 2025 12:47:05 GMT-0500 (Central Daylight Time),760022.1000000238,A,g,I,g,2780,2,2798.5,757223.6000000238,8022,WL,B,2.0
7,8.27999997138977,immed,51720.00002861023,Wed Apr 16 2025 12:47:05 GMT-0500 (Central Daylight Time),760205.5,A,gr,I,r,166,2,2981.899999976158,757223.6000000238,8022,WL,B,2.0
7,8.379999876022339,immed,51620.00012397766,Wed Apr 16 2025 12:47:05 GMT-0500 (Central Daylight Time),760305.9000000358,A,gra,I,a,93,2,3082.300000011921,757223.6000000238,8022,WL,B,2.0
7,8.582000017166138,immed,51417.99998283386,Wed Apr 16 2025 12:47:05 GMT-0500 (Central Daylight Time),760507.4000000358,A,gras,I,s,194,2,3283.800000011921,757223.6000000238,8022,WL,B,2.0
7,8.746999979019165,immed,51253.000020980835,Wed Apr 16 2025 12:47:05 GMT-0500 (Central Daylight Time),760673.0,A,grass,I,s,145,2,3449.399999976158,757223.6000000238,8022,WL,B,2.0
7,8.895999908447266,immed,51104.000091552734,Wed Apr 16 2025 12:47:05 GMT-0500 (Central Daylight Time),760821.8000000119,A,grassenter,I,enter,138,2,3598.199999988079,757223.6000000238,8022,WL,B,2.0
7,10.412999868392944,immed,49587.000131607056,Wed Apr 16 2025 12:47:05 GMT-0500 (Central Daylight Time),762339.1999999881,A,d,I,d,1496,2,1517.199999988079,760822.0,8022,WL,B,3.0
7,10.51200008392334,immed,49487.99991607666,Wed Apr 16 2025 12:47:05 GMT-0500 (Central Daylight Time),762438.1000000238,A,do,I,o,89,2,1616.1000000238419,760822.0,8022,WL,B,3.0
7,10.648000001907349,immed,49351.99999809265,Wed Apr 16 2025 12:47:05 GMT-0500 (Central Daylight Time),762574.1000000238,A,doo,I,o,130,2,1752.1000000238419,760822.0,8022,WL,B,3.0
7,10.746999979019165,immed,49253.000020980835,Wed Apr 16 2025 12:47:05 GMT-0500 (Central Daylight Time),762672.1999999881,A,door,I,r,88,2,1850.199999988079,760822.0,8022,WL,B,3.0
7,10.930000066757202,immed,49069.9999332428,Wed Apr 16 2025 12:47:05 GMT-0500 (Central Daylight Time),762855.6999999881,A,doorenter,I,enter,164,2,2033.699999988079,760822.0,8022,WL,B,3.0
7,11.213000059127808,immed,48786.99994087219,Wed Apr 16 2025 12:47:05 GMT-0500 (Central Daylight Time),763138.6999999881,A,a,I,a,277,2,282.69999998807907,762856.0,8022,WL,B,4.0
7,11.329999923706055,immed,48670.000076293945,Wed Apr 16 2025 12:47:05 GMT-0500 (Central Daylight Time),763255.5,A,ar,I,r,97,2,399.5,762856.0,8022,WL,B,4.0
7,11.463000059127808,immed,48536.99994087219,Wed Apr 16 2025 12:47:05 GMT-0500 (Central Daylight Time),763388.8000000119,A,arm,I,m,116,2,532.8000000119209,762856.0,8022,WL,B,4.0
7,11.694999933242798,immed,48305.0000667572,Wed Apr 16 2025 12:47:05 GMT-0500 (Central Daylight Time),763620.6000000238,A,armenter,I,enter,215,2,764.6000000238419,762856.0,8022,WL,B,4.0
7,12.527999877929688,immed,47472.00012207031,Wed Apr 16 2025 12:47:05 GMT-0500 (Central Daylight Time),764454.4000000358,A,w,I,w,825,2,833.6000000238419,763620.8000000119,8022,WL,B,5.0
7,12.662999868392944,immed,47337.000131607056,Wed Apr 16 2025 12:47:05 GMT-0500 (Central Daylight Time),764588.5,A,wi,I,i,128,2,967.6999999880791,763620.8000000119,8022,WL,B,5.0
7,12.82800006866455,immed,47171.99993133545,Wed Apr 16 2025 12:47:05 GMT-0500 (Central Daylight Time),764754.1999999881,A,wif,I,f,149,2,1133.3999999761581,763620.8000000119,8022,WL,B,5.0
7,13.01200008392334,immed,46987.99991607666,Wed Apr 16 2025 12:47:05 GMT-0500 (Central Daylight Time),764937.6000000238,A,wife,I,e,178,2,1316.800000011921,763620.8000000119,8022,WL,B,5.0
7,13.126999855041504,immed,46873.000144958496,Wed Apr 16 2025 12:47:05 GMT-0500 (Central Daylight Time),765053.1999999881,A,wifeenter,I,enter,99,2,1432.3999999761581,763620.8000000119,8022,WL,B,5.0
7,13.977999925613403,immed,46022.0000743866,Wed Apr 16 2025 12:47:05 GMT-0500 (Central Daylight Time),765904.0,A,s,I,s,838,2,850.5,765053.5,8022,WL,B,6.0
7,14.144999980926514,immed,45855.000019073486,Wed Apr 16 2025 12:47:05 GMT-0500 (Central Daylight Time),766071.0,A,st,I,t,155,2,1017.5,765053.5,8022,WL,B,6.0
7,14.263000011444092,immed,45736.99998855591,Wed Apr 16 2025 12:47:05 GMT-0500 (Central Daylight Time),766188.5,A,sta,I,a,101,2,1135.0,765053.5,8022,WL,B,6.0
7,14.361000061035156,immed,45638.999938964844,Wed Apr 16 2025 12:47:05 GMT-0500 (Central Daylight Time),766287.1999999881,A,star,I,r,77,2,1233.699999988079,765053.5,8022,WL,B,6.0
7,14.693000078201294,immed,45306.999921798706,Wed Apr 16 2025 12:47:05 GMT-0500 (Central Daylight Time),766618.9000000358,A,starenter,I,enter,324,2,1565.4000000357628,765053.5,8022,WL,B,6.0
7,15.027999877929688,immed,44972.00012207031,Wed Apr 16 2025 12:47:05 GMT-0500 (Central Daylight Time),766953.5,A,w,I,w,315,2,334.30000001192093,766619.1999999881,8022,WL,B,7.0
7,15.126999855041504,immed,44873.000144958496,Wed Apr 16 2025 12:47:05 GMT-0500 (Central Daylight Time),767053.0,A,wi,I,i,90,2,433.80000001192093,766619.1999999881,8022,WL,B,7.0
7,15.277999877929688,immed,44722.00012207031,Wed Apr 16 2025 12:47:05 GMT-0500 (Central Daylight Time),767204.1000000238,A,win,I,n,133,2,584.9000000357628,766619.1999999881,8022,WL,B,7.0
7,15.394999980926514,immed,44605.000019073486,Wed Apr 16 2025 12:47:05 GMT-0500 (Central Daylight Time),767320.6999999881,A,wind,I,d,96,2,701.5,766619.1999999881,8022,WL,B,7.0
7,15.527999877929688,immed,44472.00012207031,Wed Apr 16 2025 12:47:05 GMT-0500 (Central Daylight Time),767453.6000000238,A,windo,I,o,116,2,834.4000000357628,766619.1999999881,8022,WL,B,7.0
7,15.680000066757202,immed,44319.9999332428,Wed Apr 16 2025 12:47:05 GMT-0500 (Central Daylight Time),767605.4000000358,A,window,I,w,146,2,986.2000000476837,766619.1999999881,8022,WL,B,7.0
7,15.878000020980835,immed,44121.999979019165,Wed Apr 16 2025 12:47:05 GMT-0500 (Central Daylight Time),767803.3000000119,A,windowenter,I,enter,193,2,1184.1000000238419,766619.1999999881,8022,WL,B,7.0
7,16.51099991798401,immed,43489.00008201599,Wed Apr 16 2025 12:47:05 GMT-0500 (Central Daylight Time),768436.4000000358,A,p,I,p,625,2,632.8000000119209,767803.6000000238,8022,WL,B,8.0
7,16.66000008583069,immed,43339.99991416931,Wed Apr 16 2025 12:47:05 GMT-0500 (Central Daylight Time),768586.0,A,pu,I,u,135,2,782.3999999761581,767803.6000000238,8022,WL,B,8.0
7,16.82699990272522,immed,43173.00009727478,Wed Apr 16 2025 12:47:05 GMT-0500 (Central Daylight Time),768752.5,A,pup,I,p,154,2,948.8999999761581,767803.6000000238,8022,WL,B,8.0
7,17.027999877929688,immed,42972.00012207031,Wed Apr 16 2025 12:47:05 GMT-0500 (Central Daylight Time),768953.6000000238,A,pupi,I,i,180,2,1150.0,767803.6000000238,8022,WL,B,8.0
7,17.17899990081787,immed,42821.00009918213,Wed Apr 16 2025 12:47:05 GMT-0500 (Central Daylight Time),769104.5,A,pupil,I,l,130,2,1300.8999999761581,767803.6000000238,8022,WL,B,8.0
7,17.444000005722046,immed,42555.999994277954,Wed Apr 16 2025 12:47:05 GMT-0500 (Central Daylight Time),769369.3000000119,A,pupilenter,I,enter,252,2,1565.699999988079,767803.6000000238,8022,WL,B,8.0
7,20.95899987220764,immed,39041.00012779236,Wed Apr 16 2025 12:47:05 GMT-0500 (Central Daylight Time),772885.1999999881,A,c,I,c,3500,2,3515.599999964237,769369.6000000238,8022,WL,B,9.0
7,21.108999967575073,immed,38891.00003242493,Wed Apr 16 2025 12:47:05 GMT-0500 (Central Daylight Time),773034.6999999881,A,ca,I,a,135,2,3665.099999964237,769369.6000000238,8022,WL,B,9.0
7,21.193000078201294,immed,38806.999921798706,Wed Apr 16 2025 12:47:05 GMT-0500 (Central Daylight Time),773119.1999999881,A,cab,I,b,65,2,3749.599999964237,769369.6000000238,8022,WL,B,9.0
7,21.32699990272522,immed,38673.00009727478,Wed Apr 16 2025 12:47:05 GMT-0500 (Central Daylight Time),773252.1999999881,A,cabi,I,i,116,2,3882.599999964237,769369.6000000238,8022,WL,B,9.0
7,21.425999879837036,immed,38574.000120162964,Wed Apr 16 2025 12:47:05 GMT-0500 (Central Daylight Time),773352.1999999881,A,cabin,I,n,89,2,3982.599999964237,769369.6000000238,8022,WL,B,9.0
7,21.625999927520752,immed,38374.00007247925,Wed Apr 16 2025 12:47:05 GMT-0500 (Central Daylight Time),773551.5,A,cabinenter,I,enter,179,2,4181.899999976158,769369.6000000238,8022,WL,B,9.0
7,21.91000008583069,immed,38089.99991416931,Wed Apr 16 2025 12:47:05 GMT-0500 (Central Daylight Time),773835.9000000358,A,l,I,l,269,2,284.10000002384186,773551.8000000119,8022,WL,B,10.0
7,22.009000062942505,immed,37990.999937057495,Wed Apr 16 2025 12:47:05 GMT-0500 (Central Daylight Time),773934.1999999881,A,la,I,a,88,2,382.39999997615814,773551.8000000119,8022,WL,B,10.0
7,22.141000032424927,immed,37858.99996757507,Wed Apr 16 2025 12:47:05 GMT-0500 (Central Daylight Time),774066.9000000358,A,lak,I,k,118,2,515.1000000238419,773551.8000000119,8022,WL,B,10.0
7,22.292999982833862,immed,37707.00001716614,Wed Apr 16 2025 12:47:05 GMT-0500 (Central Daylight Time),774219.1000000238,A,lake,I,e,146,2,667.3000000119209,773551.8000000119,8022,WL,B,10.0
7,22.424999952316284,immed,37575.000047683716,Wed Apr 16 2025 12:47:05 GMT-0500 (Central Daylight Time),774351.1999999881,A,lakeenter,I,enter,122,2,799.3999999761581,773551.8000000119,8022,WL,B,10.0
7,23.292999982833862,immed,36707.00001716614,Wed Apr 16 2025 12:47:05 GMT-0500 (Central Daylight Time),775218.6999999881,A,p,I,p,862,2,867.2999999523163,774351.4000000358,8022,WL,B,11.0
7,23.443000078201294,immed,36556.999921798706,Wed Apr 16 2025 12:47:05 GMT-0500 (Central Daylight Time),775368.4000000358,A,pi,I,i,130,2,1017.0,774351.4000000358,8022,WL,B,11.0
7,23.557999849319458,immed,36442.00015068054,Wed Apr 16 2025 12:47:05 GMT-0500 (Central Daylight Time),775484.1999999881,A,pip,I,p,99,2,1132.7999999523163,774351.4000000358,8022,WL,B,11.0
7,23.74399995803833,immed,36256.00004196167,Wed Apr 16 2025 12:47:05 GMT-0500 (Central Daylight Time),775669.8000000119,A,pipe,I,e,180,2,1318.3999999761581,774351.4000000358,8022,WL,B,11.0
7,23.927000045776367,immed,36072.99995422363,Wed Apr 16 2025 12:47:05 GMT-0500 (Central Daylight Time),775852.1999999881,A,pipeenter,I,enter,177,2,1500.7999999523163,774351.4000000358,8022,WL,B,11.0
7,27.674000024795532,immed,32325.999975204468,Wed Apr 16 2025 12:47:05 GMT-0500 (Central Daylight Time),779599.3000000119,A,s,I,s,3737,2,3746.800000011921,775852.5,8022,WL,B,12.0
7,27.79099988937378,immed,32209.00011062622,Wed Apr 16 2025 12:47:05 GMT-0500 (Central Daylight Time),779716.3000000119,A,sk,I,k,110,2,3863.800000011921,775852.5,8022,WL,B,12.0
7,27.97499990463257,immed,32025.00009536743,Wed Apr 16 2025 12:47:05 GMT-0500 (Central Daylight Time),779900.1999999881,A,ski,I,i,166,2,4047.699999988079,775852.5,8022,WL,B,12.0
7,28.08999991416931,immed,31910.00008583069,Wed Apr 16 2025 12:47:05 GMT-0500 (Central Daylight Time),780016.0,A,skin,I,n,97,2,4163.5,775852.5,8022,WL,B,12.0
7,28.29099988937378,immed,31709.00011062622,Wed Apr 16 2025 12:47:05 GMT-0500 (Central Daylight Time),780216.4000000358,A,skinenter,I,enter,180,2,4363.900000035763,775852.5,8022,WL,B,12.0
7,29.039999961853027,immed,30960.000038146973,Wed Apr 16 2025 12:47:05 GMT-0500 (Central Daylight Time),780966.3000000119,A,f,I,f,740,2,749.6999999880791,780216.6000000238,8022,WL,B,13.0
7,29.174000024795532,immed,30825.999975204468,Wed Apr 16 2025 12:47:05 GMT-0500 (Central Daylight Time),781099.6999999881,A,fi,I,i,129,2,883.0999999642372,780216.6000000238,8022,WL,B,13.0
7,29.374000072479248,immed,30625.999927520752,Wed Apr 16 2025 12:47:05 GMT-0500 (Central Daylight Time),781299.9000000358,A,fir,I,r,183,2,1083.300000011921,780216.6000000238,8022,WL,B,13.0
7,29.54099988937378,immed,30459.00011062622,Wed Apr 16 2025 12:47:05 GMT-0500 (Central Daylight Time),781466.6999999881,A,fire,I,e,152,2,1250.0999999642372,780216.6000000238,8022,WL,B,13.0
7,30.639999866485596,immed,29360.000133514404,Wed Apr 16 2025 12:47:05 GMT-0500 (Central Daylight Time),782566.1000000238,A,fireenter,I,enter,1081,2,2349.5,780216.6000000238,8022,WL,B,13.0
7,31.122999906539917,immed,28877.000093460083,Wed Apr 16 2025 12:47:05 GMT-0500 (Central Daylight Time),783048.4000000358,A,c,I,c,470,2,482.10000002384186,782566.3000000119,8022,WL,B,14.0
7,31.223000049591064,immed,28776.999950408936,Wed Apr 16 2025 12:47:05 GMT-0500 (Central Daylight Time),783148.4000000358,A,cl,I,l,83,2,582.1000000238419,782566.3000000119,8022,WL,B,14.0
7,31.388999938964844,immed,28611.000061035156,Wed Apr 16 2025 12:47:05 GMT-0500 (Central Daylight Time),783315.0,A,clo,I,o,152,2,748.6999999880791,782566.3000000119,8022,WL,B,14.0
7,31.65400004386902,immed,28345.99995613098,Wed Apr 16 2025 12:47:05 GMT-0500 (Central Daylight Time),783580.0,A,cloc,I,c,255,2,1013.6999999880791,782566.3000000119,8022,WL,B,14.0
7,31.772000074386597,immed,28227.999925613403,Wed Apr 16 2025 12:47:05 GMT-0500 (Central Daylight Time),783698.1000000238,A,clock,I,k,112,2,1131.800000011921,782566.3000000119,8022,WL,B,14.0
7,32.621999979019165,immed,27378.000020980835,Wed Apr 16 2025 12:47:05 GMT-0500 (Central Daylight Time),784548.1000000238,A,clockenter,I,enter,844,2,1981.800000011921,782566.3000000119,8022,WL,B,14.0
7,38.73799991607666,immed,21262.00008392334,Wed Apr 16 2025 12:47:05 GMT-0500 (Central Daylight Time),790663.5,A,c,I,c,6105,2,6115.199999988079,784548.3000000119,8022,WL,B,15.0
7,38.90400004386902,immed,21095.99995613098,Wed Apr 16 2025 12:47:05 GMT-0500 (Central Daylight Time),790829.6000000238,A,ci,I,i,148,2,6281.300000011921,784548.3000000119,8022,WL,B,15.0
7,39.07099986076355,immed,20929.00013923645,Wed Apr 16 2025 12:47:05 GMT-0500 (Central Daylight Time),790996.5,A,cit,I,t,151,2,6448.199999988079,784548.3000000119,8022,WL,B,15.0
7,39.15299987792969,immed,20847.000122070312,Wed Apr 16 2025 12:47:05 GMT-0500 (Central Daylight Time),791079.1999999881,A,city,I,y,72,2,6530.899999976158,784548.3000000119,8022,WL,B,15.0
7,41.05299997329712,immed,18947.00002670288,Wed Apr 16 2025 12:47:05 GMT-0500 (Central Daylight Time),792978.9000000358,A,cityenter,I,enter,1887,2,8430.600000023842,784548.3000000119,8022,WL,B,15.0
