block_c,block_dur,condition,countdown,datetime,endtime,list,multichar_response,project,response,response_time,session_number,start_end,starttime,subject_id,task,task_vers,trial
,,,,Thu Feb 06 2025 11:54:26 GMT-0600 (Central Standard Time),,,,I,space,439,1,,,8022,WL,A,
prac,,0,,Thu Feb 06 2025 11:54:26 GMT-0600 (Central Standard Time),,NA,b,I,b,6592,1,,,8022,WL,A,1.0
prac,,0,,Thu Feb 06 2025 11:54:26 GMT-0600 (Central Standard Time),,NA,bo,I,o,173,1,,,8022,WL,A,1.0
prac,,0,,Thu Feb 06 2025 11:54:26 GMT-0600 (Central Standard Time),,NA,boo,I,o,134,1,,,8022,WL,A,1.0
prac,,0,,Thu Feb 06 2025 11:54:26 GMT-0600 (Central Standard Time),,NA,boos,I,s,288,1,,,8022,WL,A,1.0
prac,,0,,Thu Feb 06 2025 11:54:26 GMT-0600 (Central Standard Time),,NA,boost,I,t,148,1,,,8022,WL,A,1.0
prac,,0,,Thu Feb 06 2025 11:54:26 GMT-0600 (Central Standard Time),,NA,boostenter,I,enter,2414,1,,,8022,WL,A,1.0
1,1.4159998893737793,learn,58584.00011062622,Thu Feb 06 2025 11:54:26 GMT-0600 (Central Standard Time),103643.70000001788,A,b,I,b,1407,1,1415.7000000178814,102228.0,8022,WL,A,1.0
1,1.5829999446868896,learn,58417.00005531311,Thu Feb 06 2025 11:54:26 GMT-0600 (Central Standard Time),103810.80000001192,A,bo,I,o,149,1,1582.800000011921,102228.0,8022,WL,A,1.0
1,1.7659997940063477,learn,58234.00020599365,Thu Feb 06 2025 11:54:26 GMT-0600 (Central Standard Time),103993.80000001192,A,boo,I,o,166,1,1765.800000011921,102228.0,8022,WL,A,1.0
1,1.9659998416900635,learn,58034.00015830994,Thu Feb 06 2025 11:54:26 GMT-0600 (Central Standard Time),104193.70000001788,A,book,I,k,184,1,1965.7000000178814,102228.0,8022,WL,A,1.0
1,2.182999849319458,learn,57817.00015068054,Thu Feb 06 2025 11:54:26 GMT-0600 (Central Standard Time),104410.59999999404,A,bookenter,I,enter,208,1,2182.5999999940395,102228.0,8022,WL,A,1.0
1,2.5829999446868896,learn,57417.00005531311,Thu Feb 06 2025 11:54:26 GMT-0600 (Central Standard Time),104810.30000001192,A,f,I,f,384,1,399.30000001192093,104411.0,8022,WL,A,2.0
1,2.732999801635742,learn,57267.00019836426,Thu Feb 06 2025 11:54:26 GMT-0600 (Central Standard Time),104960.20000001788,A,fl,I,l,127,1,549.2000000178814,104411.0,8022,WL,A,2.0
1,2.9499998092651367,learn,57050.00019073486,Thu Feb 06 2025 11:54:26 GMT-0600 (Central Standard Time),105177.0,A,flo,I,o,194,1,766.0,104411.0,8022,WL,A,2.0
1,3.2159998416900635,learn,56784.00015830994,Thu Feb 06 2025 11:54:26 GMT-0600 (Central Standard Time),105443.5,A,flow,I,w,249,1,1032.5,104411.0,8022,WL,A,2.0
1,3.2990000247955322,learn,56700.99997520447,Thu Feb 06 2025 11:54:26 GMT-0600 (Central Standard Time),105526.59999999404,A,flowe,I,e,70,1,1115.5999999940395,104411.0,8022,WL,A,2.0
1,3.3999998569488525,learn,56600.00014305115,Thu Feb 06 2025 11:54:26 GMT-0600 (Central Standard Time),105627.0,A,flower,I,r,91,1,1216.0,104411.0,8022,WL,A,2.0
1,3.5490000247955322,learn,56450.99997520447,Thu Feb 06 2025 11:54:26 GMT-0600 (Central Standard Time),105776.70000001788,A,flowerenter,I,enter,135,1,1365.7000000178814,104411.0,8022,WL,A,2.0
1,4.348999977111816,learn,55651.00002288818,Thu Feb 06 2025 11:54:26 GMT-0600 (Central Standard Time),106576.40000000596,A,r,I,r,777,1,799.1999999880791,105777.20000001788,8022,WL,A,3.0
1,4.664999961853027,learn,55335.00003814697,Thu Feb 06 2025 11:54:26 GMT-0600 (Central Standard Time),106892.80000001192,A,,I,backspace,306,1,1115.5999999940395,105777.20000001788,8022,WL,A,3.0
1,4.81499981880188,learn,55185.00018119812,Thu Feb 06 2025 11:54:26 GMT-0600 (Central Standard Time),107042.70000001788,A,t,I,t,134,1,1265.5,105777.20000001788,8022,WL,A,3.0
1,5.015999794006348,learn,54984.00020599365,Thu Feb 06 2025 11:54:26 GMT-0600 (Central Standard Time),107243.0,A,tr,I,r,184,1,1465.7999999821186,105777.20000001788,8022,WL,A,3.0
1,5.098999977111816,learn,54901.00002288818,Thu Feb 06 2025 11:54:26 GMT-0600 (Central Standard Time),107326.20000001788,A,tra,I,a,71,1,1549.0,105777.20000001788,8022,WL,A,3.0
1,5.23199987411499,learn,54768.00012588501,Thu Feb 06 2025 11:54:26 GMT-0600 (Central Standard Time),107459.70000001788,A,trai,I,i,116,1,1682.5,105777.20000001788,8022,WL,A,3.0
1,5.31499981880188,learn,54685.00018119812,Thu Feb 06 2025 11:54:26 GMT-0600 (Central Standard Time),107542.80000001192,A,train,I,n,70,1,1765.5999999940395,105777.20000001788,8022,WL,A,3.0
1,5.48199987411499,learn,54518.00012588501,Thu Feb 06 2025 11:54:26 GMT-0600 (Central Standard Time),107709.40000000596,A,trainenter,I,enter,157,1,1932.199999988079,105777.20000001788,8022,WL,A,3.0
1,5.832000017166138,learn,54167.99998283386,Thu Feb 06 2025 11:54:26 GMT-0600 (Central Standard Time),108059.0,A,r,I,r,341,1,349.0,107710.0,8022,WL,A,4.0
1,5.947999954223633,learn,54052.00004577637,Thu Feb 06 2025 11:54:26 GMT-0600 (Central Standard Time),108175.70000001788,A,ru,I,u,103,1,465.7000000178814,107710.0,8022,WL,A,4.0
1,6.148000001907349,learn,53851.99999809265,Thu Feb 06 2025 11:54:26 GMT-0600 (Central Standard Time),108375.59999999404,A,rug,I,g,178,1,665.5999999940395,107710.0,8022,WL,A,4.0
1,6.2809998989105225,learn,53719.00010108948,Thu Feb 06 2025 11:54:26 GMT-0600 (Central Standard Time),108508.80000001192,A,rugenter,I,enter,123,1,798.8000000119209,107710.0,8022,WL,A,4.0
1,6.615000009536743,learn,53384.99999046326,Thu Feb 06 2025 11:54:26 GMT-0600 (Central Standard Time),108842.30000001192,A,m,I,m,310,1,333.09999999403954,108509.20000001788,8022,WL,A,5.0
1,6.73199987411499,learn,53268.00012588501,Thu Feb 06 2025 11:54:26 GMT-0600 (Central Standard Time),108958.90000000596,A,me,I,e,104,1,449.69999998807907,108509.20000001788,8022,WL,A,5.0
1,7.330999851226807,learn,52669.00014877319,Thu Feb 06 2025 11:54:26 GMT-0600 (Central Standard Time),109558.70000001788,A,mea,I,a,578,1,1049.5,108509.20000001788,8022,WL,A,5.0
1,7.697999954223633,learn,52302.00004577637,Thu Feb 06 2025 11:54:26 GMT-0600 (Central Standard Time),109925.30000001192,A,mead,I,d,355,1,1416.0999999940395,108509.20000001788,8022,WL,A,5.0
1,7.847999811172485,learn,52152.000188827515,Thu Feb 06 2025 11:54:26 GMT-0600 (Central Standard Time),110075.5,A,meado,I,o,133,1,1566.2999999821186,108509.20000001788,8022,WL,A,5.0
1,7.980999946594238,learn,52019.00005340576,Thu Feb 06 2025 11:54:26 GMT-0600 (Central Standard Time),110208.5,A,meadow,I,w,110,1,1699.2999999821186,108509.20000001788,8022,WL,A,5.0
1,8.097999811172485,learn,51902.000188827515,Thu Feb 06 2025 11:54:26 GMT-0600 (Central Standard Time),110325.0,A,meadowenter,I,enter,105,1,1815.7999999821186,108509.20000001788,8022,WL,A,5.0
1,8.363999843597412,learn,51636.00015640259,Thu Feb 06 2025 11:54:26 GMT-0600 (Central Standard Time),110591.80000001192,A,k,I,k,252,1,266.5,110325.30000001192,8022,WL,A,6.0
1,8.46399998664856,learn,51536.00001335144,Thu Feb 06 2025 11:54:26 GMT-0600 (Central Standard Time),110691.80000001192,A,ke,I,e,83,1,366.5,110325.30000001192,8022,WL,A,6.0
1,8.648000001907349,learn,51351.99999809265,Thu Feb 06 2025 11:54:26 GMT-0600 (Central Standard Time),110875.09999999404,A,key,I,y,167,1,549.7999999821186,110325.30000001192,8022,WL,A,6.0
1,8.88099980354309,learn,51119.00019645691,Thu Feb 06 2025 11:54:26 GMT-0600 (Central Standard Time),111108.30000001192,A,keyenter,I,enter,222,1,783.0,110325.30000001192,8022,WL,A,6.0
1,9.19700002670288,learn,50802.99997329712,Thu Feb 06 2025 11:54:26 GMT-0600 (Central Standard Time),111424.90000000596,A,g,I,g,302,1,316.30000001192093,111108.59999999404,8022,WL,A,7.0
1,9.280999898910522,learn,50719.00010108948,Thu Feb 06 2025 11:54:26 GMT-0600 (Central Standard Time),111508.30000001192,A,go,I,o,73,1,399.7000000178814,111108.59999999404,8022,WL,A,7.0
1,9.480999946594238,learn,50519.00005340576,Thu Feb 06 2025 11:54:26 GMT-0600 (Central Standard Time),111708.20000001788,A,gol,I,l,190,1,599.6000000238419,111108.59999999404,8022,WL,A,7.0
1,9.613999843597412,learn,50386.00015640259,Thu Feb 06 2025 11:54:26 GMT-0600 (Central Standard Time),111841.40000000596,A,gold,I,d,118,1,732.8000000119209,111108.59999999404,8022,WL,A,7.0
1,10.02899980545044,learn,49971.00019454956,Thu Feb 06 2025 11:54:26 GMT-0600 (Central Standard Time),112257.59999999404,A,goldenter,I,enter,401,1,1149.0,111108.59999999404,8022,WL,A,7.0
1,60.013999938964844,learn,-13.99993896484375,Thu Feb 06 2025 11:54:26 GMT-0600 (Central Standard Time),162242.30000001192,A,None,I,None,49977,1,49984.40000000596,112257.90000000596,8022,WL,A,8.0
2,0.9670000076293945,learn,59032.999992370605,Thu Feb 06 2025 11:54:26 GMT-0600 (Central Standard Time),268425.90000000596,A,b,I,b,953,1,966.1999999880791,267459.7000000179,8022,WL,A,1.0
2,1.2000000476837158,learn,58799.999952316284,Thu Feb 06 2025 11:54:26 GMT-0600 (Central Standard Time),268659.2000000179,A,bo,I,o,209,1,1199.5,267459.7000000179,8022,WL,A,1.0
2,1.3829998970031738,learn,58617.000102996826,Thu Feb 06 2025 11:54:26 GMT-0600 (Central Standard Time),268842.40000000596,A,boo,I,o,159,1,1382.699999988079,267459.7000000179,8022,WL,A,1.0
2,1.5499999523162842,learn,58450.000047683716,Thu Feb 06 2025 11:54:26 GMT-0600 (Central Standard Time),269008.7000000179,A,book,I,k,153,1,1549.0,267459.7000000179,8022,WL,A,1.0
2,1.749000072479248,learn,58250.99992752075,Thu Feb 06 2025 11:54:26 GMT-0600 (Central Standard Time),269208.7000000179,A,bookenter,I,enter,178,1,1749.0,267459.7000000179,8022,WL,A,1.0
2,2.049999952316284,learn,57950.000047683716,Thu Feb 06 2025 11:54:26 GMT-0600 (Central Standard Time),269508.8000000119,A,f,I,f,290,1,299.7000000178814,269209.09999999404,8022,WL,A,2.0
2,2.200000047683716,learn,57799.999952316284,Thu Feb 06 2025 11:54:26 GMT-0600 (Central Standard Time),269658.8000000119,A,fl,I,l,143,1,449.7000000178814,269209.09999999404,8022,WL,A,2.0
2,2.4000000953674316,learn,57599.99990463257,Thu Feb 06 2025 11:54:26 GMT-0600 (Central Standard Time),269858.7000000179,A,flo,I,o,185,1,649.6000000238419,269209.09999999404,8022,WL,A,2.0
2,2.4830000400543213,learn,57516.99995994568,Thu Feb 06 2025 11:54:26 GMT-0600 (Central Standard Time),269941.90000000596,A,flow,I,w,72,1,732.8000000119209,269209.09999999404,8022,WL,A,2.0
2,2.632999897003174,learn,57367.000102996826,Thu Feb 06 2025 11:54:26 GMT-0600 (Central Standard Time),270091.8000000119,A,flowe,I,e,132,1,882.7000000178814,269209.09999999404,8022,WL,A,2.0
2,2.683000087738037,learn,57316.99991226196,Thu Feb 06 2025 11:54:26 GMT-0600 (Central Standard Time),270141.90000000596,A,flower,I,r,39,1,932.8000000119209,269209.09999999404,8022,WL,A,2.0
2,2.815999984741211,learn,57184.00001525879,Thu Feb 06 2025 11:54:26 GMT-0600 (Central Standard Time),270275.0,A,flowerenter,I,enter,125,1,1065.9000000059605,269209.09999999404,8022,WL,A,2.0
2,2.999000072479248,learn,57000.99992752075,Thu Feb 06 2025 11:54:26 GMT-0600 (Central Standard Time),270458.59999999404,A,t,I,t,160,1,183.2999999821186,270275.3000000119,8022,WL,A,3.0
2,3.1989998817443848,learn,56801.000118255615,Thu Feb 06 2025 11:54:26 GMT-0600 (Central Standard Time),270658.5,A,tr,I,r,177,1,383.19999998807907,270275.3000000119,8022,WL,A,3.0
2,3.315999984741211,learn,56684.00001525879,Thu Feb 06 2025 11:54:26 GMT-0600 (Central Standard Time),270775.09999999404,A,tra,I,a,105,1,499.7999999821186,270275.3000000119,8022,WL,A,3.0
2,3.431999921798706,learn,56568.000078201294,Thu Feb 06 2025 11:54:26 GMT-0600 (Central Standard Time),270891.7000000179,A,trai,I,i,100,1,616.4000000059605,270275.3000000119,8022,WL,A,3.0
2,3.5320000648498535,learn,56467.99993515015,Thu Feb 06 2025 11:54:26 GMT-0600 (Central Standard Time),270991.5,A,train,I,n,79,1,716.1999999880791,270275.3000000119,8022,WL,A,3.0
2,3.6989998817443848,learn,56301.000118255615,Thu Feb 06 2025 11:54:26 GMT-0600 (Central Standard Time),271158.2000000179,A,trainenter,I,enter,148,1,882.9000000059605,270275.3000000119,8022,WL,A,3.0
2,3.881999969482422,learn,56118.00003051758,Thu Feb 06 2025 11:54:26 GMT-0600 (Central Standard Time),271341.5,A,r,I,r,166,1,182.90000000596046,271158.59999999404,8022,WL,A,4.0
2,4.016000032424927,learn,55983.99996757507,Thu Feb 06 2025 11:54:26 GMT-0600 (Central Standard Time),271474.90000000596,A,ru,I,u,126,1,316.30000001192093,271158.59999999404,8022,WL,A,4.0
2,4.131999969482422,learn,55868.00003051758,Thu Feb 06 2025 11:54:26 GMT-0600 (Central Standard Time),271591.5,A,rug,I,g,97,1,432.90000000596046,271158.59999999404,8022,WL,A,4.0
2,4.315000057220459,learn,55684.99994277954,Thu Feb 06 2025 11:54:26 GMT-0600 (Central Standard Time),271774.7000000179,A,rugenter,I,enter,172,1,616.1000000238419,271158.59999999404,8022,WL,A,4.0
2,4.582000017166138,learn,55417.99998283386,Thu Feb 06 2025 11:54:26 GMT-0600 (Central Standard Time),272041.5,A,m,I,m,245,1,266.5,271775.0,8022,WL,A,5.0
2,4.698999881744385,learn,55301.000118255615,Thu Feb 06 2025 11:54:26 GMT-0600 (Central Standard Time),272157.90000000596,A,me,I,e,97,1,382.90000000596046,271775.0,8022,WL,A,5.0
2,4.881999969482422,learn,55118.00003051758,Thu Feb 06 2025 11:54:26 GMT-0600 (Central Standard Time),272341.2000000179,A,mea,I,a,173,1,566.2000000178814,271775.0,8022,WL,A,5.0
2,5.082000017166138,learn,54917.99998283386,Thu Feb 06 2025 11:54:26 GMT-0600 (Central Standard Time),272541.2000000179,A,mead,I,d,182,1,766.2000000178814,271775.0,8022,WL,A,5.0
2,5.450000047683716,learn,54549.999952316284,Thu Feb 06 2025 11:54:26 GMT-0600 (Central Standard Time),272908.8000000119,A,meado,I,o,358,1,1133.800000011921,271775.0,8022,WL,A,5.0
2,5.565000057220459,learn,54434.99994277954,Thu Feb 06 2025 11:54:26 GMT-0600 (Central Standard Time),273024.3000000119,A,meadow,I,w,103,1,1249.300000011921,271775.0,8022,WL,A,5.0
2,5.7149999141693115,learn,54285.00008583069,Thu Feb 06 2025 11:54:26 GMT-0600 (Central Standard Time),273174.40000000596,A,meadowenter,I,enter,140,1,1399.4000000059605,271775.0,8022,WL,A,5.0
2,6.0320000648498535,learn,53967.99993515015,Thu Feb 06 2025 11:54:26 GMT-0600 (Central Standard Time),273490.8000000119,A,c,I,c,308,1,315.90000000596046,273174.90000000596,8022,WL,A,6.0
2,6.131999969482422,learn,53868.00003051758,Thu Feb 06 2025 11:54:26 GMT-0600 (Central Standard Time),273590.90000000596,A,ch,I,h,89,1,416.0,273174.90000000596,8022,WL,A,6.0
2,6.230999946594238,learn,53769.00005340576,Thu Feb 06 2025 11:54:26 GMT-0600 (Central Standard Time),273690.7000000179,A,chi,I,i,85,1,515.8000000119209,273174.90000000596,8022,WL,A,6.0
2,6.430999994277954,learn,53569.000005722046,Thu Feb 06 2025 11:54:26 GMT-0600 (Central Standard Time),273890.7000000179,A,chim,I,m,185,1,715.8000000119209,273174.90000000596,8022,WL,A,6.0
2,6.88100004196167,learn,53118.99995803833,Thu Feb 06 2025 11:54:26 GMT-0600 (Central Standard Time),274340.40000000596,A,chimn,I,n,441,1,1165.5,273174.90000000596,8022,WL,A,6.0
2,7.04800009727478,learn,52951.99990272522,Thu Feb 06 2025 11:54:26 GMT-0600 (Central Standard Time),274507.2000000179,A,chimne,I,e,159,1,1332.300000011921,273174.90000000596,8022,WL,A,6.0
2,7.164999961853027,learn,52835.00003814697,Thu Feb 06 2025 11:54:26 GMT-0600 (Central Standard Time),274624.0,A,chimney,I,y,104,1,1449.0999999940395,273174.90000000596,8022,WL,A,6.0
2,7.38100004196167,learn,52618.99995803833,Thu Feb 06 2025 11:54:26 GMT-0600 (Central Standard Time),274840.5,A,chimneyenter,I,enter,196,1,1665.5999999940395,273174.90000000596,8022,WL,A,6.0
2,7.614000082015991,learn,52385.99991798401,Thu Feb 06 2025 11:54:26 GMT-0600 (Central Standard Time),275073.59999999404,A,h,I,h,218,1,232.69999998807907,274840.90000000596,8022,WL,A,7.0
2,7.747999906539917,learn,52252.00009346008,Thu Feb 06 2025 11:54:26 GMT-0600 (Central Standard Time),275206.90000000596,A,ha,I,a,114,1,366.0,274840.90000000596,8022,WL,A,7.0
2,7.8480000495910645,learn,52151.999950408936,Thu Feb 06 2025 11:54:26 GMT-0600 (Central Standard Time),275306.8000000119,A,har,I,r,84,1,465.90000000596046,274840.90000000596,8022,WL,A,7.0
2,8.013999938964844,learn,51986.000061035156,Thu Feb 06 2025 11:54:26 GMT-0600 (Central Standard Time),275473.7000000179,A,harp,I,p,153,1,632.8000000119209,274840.90000000596,8022,WL,A,7.0
2,8.280999898910522,learn,51719.00010108948,Thu Feb 06 2025 11:54:26 GMT-0600 (Central Standard Time),275740.09999999404,A,harpenter,I,enter,250,1,899.1999999880791,274840.90000000596,8022,WL,A,7.0
2,8.581000089645386,learn,51418.999910354614,Thu Feb 06 2025 11:54:26 GMT-0600 (Central Standard Time),276040.2000000179,A,r,I,r,287,1,299.7000000178814,275740.5,8022,WL,A,8.0
2,8.71399998664856,learn,51286.00001335144,Thu Feb 06 2025 11:54:26 GMT-0600 (Central Standard Time),276173.5,A,ra,I,a,122,1,433.0,275740.5,8022,WL,A,8.0
2,8.831000089645386,learn,51168.999910354614,Thu Feb 06 2025 11:54:26 GMT-0600 (Central Standard Time),276290.0,A,rat,I,t,93,1,549.5,275740.5,8022,WL,A,8.0
2,9.013999938964844,learn,50986.000061035156,Thu Feb 06 2025 11:54:26 GMT-0600 (Central Standard Time),276473.3000000119,A,ratt,I,t,169,1,732.8000000119209,275740.5,8022,WL,A,8.0
2,9.164000034332275,learn,50835.999965667725,Thu Feb 06 2025 11:54:26 GMT-0600 (Central Standard Time),276623.2000000179,A,rattl,I,l,130,1,882.7000000178814,275740.5,8022,WL,A,8.0
2,9.346999883651733,learn,50653.00011634827,Thu Feb 06 2025 11:54:26 GMT-0600 (Central Standard Time),276806.5,A,rattle,I,e,164,1,1066.0,275740.5,8022,WL,A,8.0
2,9.614000082015991,learn,50385.99991798401,Thu Feb 06 2025 11:54:26 GMT-0600 (Central Standard Time),277072.90000000596,A,rattleenter,I,enter,253,1,1332.4000000059605,275740.5,8022,WL,A,8.0
2,10.020999908447266,learn,49979.000091552734,Thu Feb 06 2025 11:54:26 GMT-0600 (Central Standard Time),277480.0,A,i,I,i,399,1,406.69999998807907,277073.3000000119,8022,WL,A,9.0
2,10.132999897003174,learn,49867.000102996826,Thu Feb 06 2025 11:54:26 GMT-0600 (Central Standard Time),277592.09999999404,A,in,I,n,97,1,518.7999999821186,277073.3000000119,8022,WL,A,9.0
2,10.246999979019165,learn,49753.000020980835,Thu Feb 06 2025 11:54:26 GMT-0600 (Central Standard Time),277706.3000000119,A,ing,I,g,90,1,633.0,277073.3000000119,8022,WL,A,9.0
2,10.430000066757202,learn,49569.9999332428,Thu Feb 06 2025 11:54:26 GMT-0600 (Central Standard Time),277889.59999999404,A,inge,I,e,160,1,816.2999999821186,277073.3000000119,8022,WL,A,9.0
2,10.46399998664856,learn,49536.00001335144,Thu Feb 06 2025 11:54:26 GMT-0600 (Central Standard Time),277923.0,A,inger,I,r,26,1,849.6999999880791,277073.3000000119,8022,WL,A,9.0
2,10.629999876022339,learn,49370.00012397766,Thu Feb 06 2025 11:54:26 GMT-0600 (Central Standard Time),278089.40000000596,A,ingerenter,I,enter,144,1,1016.0999999940395,277073.3000000119,8022,WL,A,9.0
2,10.912999868392944,learn,49087.000131607056,Thu Feb 06 2025 11:54:26 GMT-0600 (Central Standard Time),278372.7000000179,A,k,I,k,266,1,283.0,278089.7000000179,8022,WL,A,10.0
2,11.079999923706055,learn,48920.000076293945,Thu Feb 06 2025 11:54:26 GMT-0600 (Central Standard Time),278539.2000000179,A,ke,I,e,159,1,449.5,278089.7000000179,8022,WL,A,10.0
2,11.213000059127808,learn,48786.99994087219,Thu Feb 06 2025 11:54:26 GMT-0600 (Central Standard Time),278672.7000000179,A,key,I,y,111,1,583.0,278089.7000000179,8022,WL,A,10.0
2,11.463000059127808,learn,48536.99994087219,Thu Feb 06 2025 11:54:26 GMT-0600 (Central Standard Time),278922.5,A,keyenter,I,enter,235,1,832.7999999821186,278089.7000000179,8022,WL,A,10.0
2,12.095999956130981,learn,47904.00004386902,Thu Feb 06 2025 11:54:26 GMT-0600 (Central Standard Time),279555.59999999404,A,g,I,g,616,1,632.7999999821186,278922.8000000119,8022,WL,A,11.0
2,12.145999908447266,learn,47854.000091552734,Thu Feb 06 2025 11:54:26 GMT-0600 (Central Standard Time),279605.5,A,go,I,o,39,1,682.6999999880791,278922.8000000119,8022,WL,A,11.0
2,12.36299991607666,learn,47637.00008392334,Thu Feb 06 2025 11:54:26 GMT-0600 (Central Standard Time),279822.5,A,gol,I,l,198,1,899.6999999880791,278922.8000000119,8022,WL,A,11.0
2,12.496000051498413,learn,47503.99994850159,Thu Feb 06 2025 11:54:26 GMT-0600 (Central Standard Time),279955.3000000119,A,gold,I,d,124,1,1032.5,278922.8000000119,8022,WL,A,11.0
2,12.713000059127808,learn,47286.99994087219,Thu Feb 06 2025 11:54:26 GMT-0600 (Central Standard Time),280172.0,A,goldenter,I,enter,200,1,1249.199999988079,278922.8000000119,8022,WL,A,11.0
2,15.361999988555908,learn,44638.00001144409,Thu Feb 06 2025 11:54:26 GMT-0600 (Central Standard Time),282821.40000000596,A,enter,I,enter,2632,1,2649.0,280172.40000000596,8022,WL,A,12.0
2,15.878999948501587,learn,44121.00005149841,Thu Feb 06 2025 11:54:26 GMT-0600 (Central Standard Time),283337.90000000596,A,enter,I,enter,502,1,516.0999999940395,282821.8000000119,8022,WL,A,13.0
2,16.295000076293945,learn,43704.999923706055,Thu Feb 06 2025 11:54:26 GMT-0600 (Central Standard Time),283754.40000000596,A,enter,I,enter,402,1,416.09999999403954,283338.3000000119,8022,WL,A,14.0
2,17.194999933242798,learn,42805.0000667572,Thu Feb 06 2025 11:54:26 GMT-0600 (Central Standard Time),284654.2000000179,A,enter,I,enter,890,1,899.3000000119209,283754.90000000596,8022,WL,A,15.0
3,0.9660000801086426,learn,59033.99991989136,Thu Feb 06 2025 11:54:26 GMT-0600 (Central Standard Time),357814.59999999404,A,b,I,b,955,1,966.2999999821186,356848.3000000119,8022,WL,A,1.0
3,1.1329998970031738,learn,58867.000102996826,Thu Feb 06 2025 11:54:26 GMT-0600 (Central Standard Time),357981.0,A,bo,I,o,148,1,1132.699999988079,356848.3000000119,8022,WL,A,1.0
3,1.2829999923706055,learn,58717.000007629395,Thu Feb 06 2025 11:54:26 GMT-0600 (Central Standard Time),358131.09999999404,A,boo,I,o,143,1,1282.7999999821186,356848.3000000119,8022,WL,A,1.0
3,1.4489998817443848,learn,58551.000118255615,Thu Feb 06 2025 11:54:26 GMT-0600 (Central Standard Time),358297.8000000119,A,book,I,k,145,1,1449.5,356848.3000000119,8022,WL,A,1.0
3,1.7990000247955322,learn,58200.99997520447,Thu Feb 06 2025 11:54:26 GMT-0600 (Central Standard Time),358647.5,A,bookenter,I,enter,338,1,1799.199999988079,356848.3000000119,8022,WL,A,1.0
3,2.065999984741211,learn,57934.00001525879,Thu Feb 06 2025 11:54:26 GMT-0600 (Central Standard Time),358914.40000000596,A,f,I,f,243,1,266.5,358647.90000000596,8022,WL,A,2.0
3,2.1659998893737793,learn,57834.00011062622,Thu Feb 06 2025 11:54:26 GMT-0600 (Central Standard Time),359014.2000000179,A,fl,I,l,89,1,366.30000001192093,358647.90000000596,8022,WL,A,2.0
3,2.381999969482422,learn,57618.00003051758,Thu Feb 06 2025 11:54:26 GMT-0600 (Central Standard Time),359230.7000000179,A,flo,I,o,197,1,582.8000000119209,358647.90000000596,8022,WL,A,2.0
3,2.4819998741149902,learn,57518.00012588501,Thu Feb 06 2025 11:54:26 GMT-0600 (Central Standard Time),359330.7000000179,A,flow,I,w,91,1,682.8000000119209,358647.90000000596,8022,WL,A,2.0
3,2.681999921798706,learn,57318.000078201294,Thu Feb 06 2025 11:54:26 GMT-0600 (Central Standard Time),359530.7000000179,A,flowe,I,e,185,1,882.8000000119209,358647.90000000596,8022,WL,A,2.0
3,2.749000072479248,learn,57250.99992752075,Thu Feb 06 2025 11:54:26 GMT-0600 (Central Standard Time),359597.3000000119,A,flower,I,r,57,1,949.4000000059605,358647.90000000596,8022,WL,A,2.0
3,2.9159998893737793,learn,57084.00011062622,Thu Feb 06 2025 11:54:26 GMT-0600 (Central Standard Time),359764.0,A,flowerenter,I,enter,150,1,1116.0999999940395,358647.90000000596,8022,WL,A,2.0
3,3.0989999771118164,learn,56901.00002288818,Thu Feb 06 2025 11:54:26 GMT-0600 (Central Standard Time),359947.2000000179,A,t,I,t,168,1,182.80000001192093,359764.40000000596,8022,WL,A,3.0
3,3.2990000247955322,learn,56700.99997520447,Thu Feb 06 2025 11:54:26 GMT-0600 (Central Standard Time),360147.0,A,tr,I,r,192,1,382.59999999403954,359764.40000000596,8022,WL,A,3.0
3,3.3989999294281006,learn,56601.0000705719,Thu Feb 06 2025 11:54:26 GMT-0600 (Central Standard Time),360247.09999999404,A,tra,I,a,89,1,482.69999998807907,359764.40000000596,8022,WL,A,3.0
3,3.5149998664855957,learn,56485.000133514404,Thu Feb 06 2025 11:54:26 GMT-0600 (Central Standard Time),360363.8000000119,A,trai,I,i,101,1,599.4000000059605,359764.40000000596,8022,WL,A,3.0
3,3.5829999446868896,learn,56417.00005531311,Thu Feb 06 2025 11:54:26 GMT-0600 (Central Standard Time),360431.40000000596,A,train,I,n,56,1,667.0,359764.40000000596,8022,WL,A,3.0
3,3.7649998664855957,learn,56235.000133514404,Thu Feb 06 2025 11:54:26 GMT-0600 (Central Standard Time),360613.7000000179,A,trainenter,I,enter,164,1,849.3000000119209,359764.40000000596,8022,WL,A,3.0
3,4.047999858856201,learn,55952.0001411438,Thu Feb 06 2025 11:54:26 GMT-0600 (Central Standard Time),360896.90000000596,A,r,I,r,262,1,282.80000001192093,360614.09999999404,8022,WL,A,4.0
3,4.164999961853027,learn,55835.00003814697,Thu Feb 06 2025 11:54:26 GMT-0600 (Central Standard Time),361013.59999999404,A,ru,I,u,99,1,399.5,360614.09999999404,8022,WL,A,4.0
3,4.315000057220459,learn,55684.99994277954,Thu Feb 06 2025 11:54:26 GMT-0600 (Central Standard Time),361163.2000000179,A,rug,I,g,141,1,549.1000000238419,360614.09999999404,8022,WL,A,4.0
3,4.48199987411499,learn,55518.00012588501,Thu Feb 06 2025 11:54:26 GMT-0600 (Central Standard Time),361330.5,A,rugenter,I,enter,153,1,716.4000000059605,360614.09999999404,8022,WL,A,4.0
3,4.73199987411499,learn,55268.00012588501,Thu Feb 06 2025 11:54:26 GMT-0600 (Central Standard Time),361580.2000000179,A,m,I,m,233,1,249.40000000596046,361330.8000000119,8022,WL,A,5.0
3,4.865000009536743,learn,55134.99999046326,Thu Feb 06 2025 11:54:26 GMT-0600 (Central Standard Time),361713.2000000179,A,me,I,e,111,1,382.40000000596046,361330.8000000119,8022,WL,A,5.0
3,5.047999858856201,learn,54952.0001411438,Thu Feb 06 2025 11:54:26 GMT-0600 (Central Standard Time),361896.7000000179,A,mea,I,a,170,1,565.9000000059605,361330.8000000119,8022,WL,A,5.0
3,5.181999921798706,learn,54818.000078201294,Thu Feb 06 2025 11:54:26 GMT-0600 (Central Standard Time),362030.0,A,mead,I,d,123,1,699.1999999880791,361330.8000000119,8022,WL,A,5.0
3,5.33299994468689,learn,54667.00005531311,Thu Feb 06 2025 11:54:26 GMT-0600 (Central Standard Time),362180.90000000596,A,meado,I,o,142,1,850.0999999940395,361330.8000000119,8022,WL,A,5.0
3,5.514999866485596,learn,54485.000133514404,Thu Feb 06 2025 11:54:26 GMT-0600 (Central Standard Time),362363.09999999404,A,meadow,I,w,158,1,1032.2999999821186,361330.8000000119,8022,WL,A,5.0
3,5.631999969482422,learn,54368.00003051758,Thu Feb 06 2025 11:54:26 GMT-0600 (Central Standard Time),362480.0,A,meadowenter,I,enter,97,1,1149.199999988079,361330.8000000119,8022,WL,A,5.0
3,5.914000034332275,learn,54085.999965667725,Thu Feb 06 2025 11:54:26 GMT-0600 (Central Standard Time),362762.8000000119,A,h,I,h,267,1,282.40000000596046,362480.40000000596,8022,WL,A,6.0
3,6.047999858856201,learn,53952.0001411438,Thu Feb 06 2025 11:54:26 GMT-0600 (Central Standard Time),362896.2000000179,A,ha,I,a,112,1,415.80000001192093,362480.40000000596,8022,WL,A,6.0
3,6.21399998664856,learn,53786.00001335144,Thu Feb 06 2025 11:54:26 GMT-0600 (Central Standard Time),363062.8000000119,A,har,I,r,147,1,582.4000000059605,362480.40000000596,8022,WL,A,6.0
3,6.563999891281128,learn,53436.00010871887,Thu Feb 06 2025 11:54:26 GMT-0600 (Central Standard Time),363412.8000000119,A,harp,I,p,333,1,932.4000000059605,362480.40000000596,8022,WL,A,6.0
3,6.88100004196167,learn,53118.99995803833,Thu Feb 06 2025 11:54:26 GMT-0600 (Central Standard Time),363729.40000000596,A,harpenter,I,enter,295,1,1249.0,362480.40000000596,8022,WL,A,6.0
3,8.114000082015991,learn,51885.99991798401,Thu Feb 06 2025 11:54:26 GMT-0600 (Central Standard Time),364962.2000000179,A,b,I,b,1218,1,1232.5,363729.7000000179,8022,WL,A,7.0
3,9.230000019073486,learn,50769.999980926514,Thu Feb 06 2025 11:54:26 GMT-0600 (Central Standard Time),366078.59999999404,A,,I,backspace,1098,1,2348.899999976158,363729.7000000179,8022,WL,A,7.0
3,9.730000019073486,learn,50269.999980926514,Thu Feb 06 2025 11:54:26 GMT-0600 (Central Standard Time),366578.2000000179,A,s,I,s,485,1,2848.5,363729.7000000179,8022,WL,A,7.0
3,9.912999868392944,learn,50087.000131607056,Thu Feb 06 2025 11:54:26 GMT-0600 (Central Standard Time),366761.8000000119,A,sa,I,a,169,1,3032.0999999940395,363729.7000000179,8022,WL,A,7.0
3,10.013000011444092,learn,49986.99998855591,Thu Feb 06 2025 11:54:26 GMT-0600 (Central Standard Time),366861.7000000179,A,sal,I,l,90,1,3132.0,363729.7000000179,8022,WL,A,7.0
3,10.162999868392944,learn,49837.000131607056,Thu Feb 06 2025 11:54:26 GMT-0600 (Central Standard Time),367011.40000000596,A,salt,I,t,142,1,3281.699999988079,363729.7000000179,8022,WL,A,7.0
3,10.312999963760376,learn,49687.000036239624,Thu Feb 06 2025 11:54:26 GMT-0600 (Central Standard Time),367161.8000000119,A,saltenter,I,enter,136,1,3432.0999999940395,363729.7000000179,8022,WL,A,7.0
3,11.246000051498413,learn,48753.99994850159,Thu Feb 06 2025 11:54:26 GMT-0600 (Central Standard Time),368094.7000000179,A,f,I,f,922,1,932.6000000238419,367162.09999999404,8022,WL,A,8.0
3,11.329999923706055,learn,48670.000076293945,Thu Feb 06 2025 11:54:26 GMT-0600 (Central Standard Time),368178.0,A,fi,I,i,68,1,1015.9000000059605,367162.09999999404,8022,WL,A,8.0
3,11.412999868392944,learn,48587.000131607056,Thu Feb 06 2025 11:54:26 GMT-0600 (Central Standard Time),368261.2000000179,A,fin,I,n,66,1,1099.1000000238419,367162.09999999404,8022,WL,A,8.0
3,11.546000003814697,learn,48453.9999961853,Thu Feb 06 2025 11:54:26 GMT-0600 (Central Standard Time),368394.59999999404,A,fing,I,g,118,1,1232.5,367162.09999999404,8022,WL,A,8.0
3,11.746000051498413,learn,48253.99994850159,Thu Feb 06 2025 11:54:26 GMT-0600 (Central Standard Time),368594.40000000596,A,finge,I,e,185,1,1432.300000011921,367162.09999999404,8022,WL,A,8.0
3,11.796000003814697,learn,48203.9999961853,Thu Feb 06 2025 11:54:26 GMT-0600 (Central Standard Time),368644.59999999404,A,finger,I,r,33,1,1482.5,367162.09999999404,8022,WL,A,8.0
3,11.94599986076355,learn,48054.00013923645,Thu Feb 06 2025 11:54:26 GMT-0600 (Central Standard Time),368794.59999999404,A,fingerenter,I,enter,126,1,1632.5,367162.09999999404,8022,WL,A,8.0
3,13.19599986076355,learn,46804.00013923645,Thu Feb 06 2025 11:54:26 GMT-0600 (Central Standard Time),370043.90000000596,A,b,I,b,1241,1,1248.9000000059605,368795.0,8022,WL,A,9.0
3,13.345999956130981,learn,46654.00004386902,Thu Feb 06 2025 11:54:26 GMT-0600 (Central Standard Time),370194.0,A,bu,I,u,136,1,1399.0,368795.0,8022,WL,A,9.0
3,13.494999885559082,learn,46505.00011444092,Thu Feb 06 2025 11:54:26 GMT-0600 (Central Standard Time),370343.8000000119,A,but,I,t,137,1,1548.800000011921,368795.0,8022,WL,A,9.0
3,13.645999908447266,learn,46354.000091552734,Thu Feb 06 2025 11:54:26 GMT-0600 (Central Standard Time),370493.90000000596,A,butt,I,t,140,1,1698.9000000059605,368795.0,8022,WL,A,9.0
3,13.746000051498413,learn,46253.99994850159,Thu Feb 06 2025 11:54:26 GMT-0600 (Central Standard Time),370594.0,A,butto,I,o,78,1,1799.0,368795.0,8022,WL,A,9.0
3,13.812000036239624,learn,46187.999963760376,Thu Feb 06 2025 11:54:26 GMT-0600 (Central Standard Time),370660.59999999404,A,button,I,n,57,1,1865.5999999940395,368795.0,8022,WL,A,9.0
3,14.062000036239624,learn,45937.999963760376,Thu Feb 06 2025 11:54:26 GMT-0600 (Central Standard Time),370910.5,A,buttonenter,I,enter,239,1,2115.5,368795.0,8022,WL,A,9.0
3,14.361999988555908,learn,45638.00001144409,Thu Feb 06 2025 11:54:26 GMT-0600 (Central Standard Time),371210.2000000179,A,a,I,a,276,1,299.40000000596046,370910.8000000119,8022,WL,A,10.0
3,14.479000091552734,learn,45520.999908447266,Thu Feb 06 2025 11:54:26 GMT-0600 (Central Standard Time),371326.90000000596,A,ap,I,p,97,1,416.09999999403954,370910.8000000119,8022,WL,A,10.0
3,14.813999891281128,learn,45186.00010871887,Thu Feb 06 2025 11:54:26 GMT-0600 (Central Standard Time),371662.09999999404,A,app,I,p,182,1,751.2999999821186,370910.8000000119,8022,WL,A,10.0
3,14.82800006866455,learn,45171.99993133545,Thu Feb 06 2025 11:54:26 GMT-0600 (Central Standard Time),371676.5,A,appl,I,l,2,1,765.6999999880791,370910.8000000119,8022,WL,A,10.0
3,14.947999954223633,learn,45052.00004577637,Thu Feb 06 2025 11:54:26 GMT-0600 (Central Standard Time),371796.40000000596,A,apple,I,e,93,1,885.5999999940395,370910.8000000119,8022,WL,A,10.0
3,15.411999940872192,learn,44588.00005912781,Thu Feb 06 2025 11:54:26 GMT-0600 (Central Standard Time),372260.0,A,appleenter,I,enter,448,1,1349.199999988079,370910.8000000119,8022,WL,A,10.0
3,15.727999925613403,learn,44272.0000743866,Thu Feb 06 2025 11:54:26 GMT-0600 (Central Standard Time),372576.7000000179,A,l,I,l,304,1,316.40000000596046,372260.3000000119,8022,WL,A,11.0
3,15.92799997329712,learn,44072.00002670288,Thu Feb 06 2025 11:54:26 GMT-0600 (Central Standard Time),372776.5,A,lo,I,o,187,1,516.1999999880791,372260.3000000119,8022,WL,A,11.0
3,16.01200008392334,learn,43987.99991607666,Thu Feb 06 2025 11:54:26 GMT-0600 (Central Standard Time),372860.0,A,log,I,g,67,1,599.6999999880791,372260.3000000119,8022,WL,A,11.0
3,16.194999933242798,learn,43805.0000667572,Thu Feb 06 2025 11:54:26 GMT-0600 (Central Standard Time),373043.0,A,logenter,I,enter,159,1,782.6999999880791,372260.3000000119,8022,WL,A,11.0
3,16.42799997329712,learn,43572.00002670288,Thu Feb 06 2025 11:54:26 GMT-0600 (Central Standard Time),373276.40000000596,A,c,I,c,217,1,233.09999999403954,373043.3000000119,8022,WL,A,12.0
3,16.543999910354614,learn,43456.000089645386,Thu Feb 06 2025 11:54:26 GMT-0600 (Central Standard Time),373392.8000000119,A,ch,I,h,95,1,349.5,373043.3000000119,8022,WL,A,12.0
3,16.76099991798401,learn,43239.00008201599,Thu Feb 06 2025 11:54:26 GMT-0600 (Central Standard Time),373609.59999999404,A,chi,I,i,202,1,566.2999999821186,373043.3000000119,8022,WL,A,12.0
3,16.944000005722046,learn,43055.999994277954,Thu Feb 06 2025 11:54:26 GMT-0600 (Central Standard Time),373792.90000000596,A,chim,I,m,170,1,749.5999999940395,373043.3000000119,8022,WL,A,12.0
3,17.210999965667725,learn,42789.000034332275,Thu Feb 06 2025 11:54:26 GMT-0600 (Central Standard Time),374059.5,A,chimn,I,n,259,1,1016.1999999880791,373043.3000000119,8022,WL,A,12.0
3,17.378000020980835,learn,42621.999979019165,Thu Feb 06 2025 11:54:26 GMT-0600 (Central Standard Time),374226.2000000179,A,chimne,I,e,152,1,1182.9000000059605,373043.3000000119,8022,WL,A,12.0
3,17.49399995803833,learn,42506.00004196167,Thu Feb 06 2025 11:54:26 GMT-0600 (Central Standard Time),374342.8000000119,A,chimney,I,y,106,1,1299.5,373043.3000000119,8022,WL,A,12.0
3,17.793999910354614,learn,42206.000089645386,Thu Feb 06 2025 11:54:26 GMT-0600 (Central Standard Time),374642.7000000179,A,chimneyenter,I,enter,276,1,1599.4000000059605,373043.3000000119,8022,WL,A,12.0
3,18.66100001335144,learn,41338.99998664856,Thu Feb 06 2025 11:54:26 GMT-0600 (Central Standard Time),375509.0,A,g,I,g,857,1,865.9000000059605,374643.09999999404,8022,WL,A,13.0
3,18.74399995803833,learn,41256.00004196167,Thu Feb 06 2025 11:54:26 GMT-0600 (Central Standard Time),375592.3000000119,A,go,I,o,63,1,949.2000000178814,374643.09999999404,8022,WL,A,13.0
3,18.927000045776367,learn,41072.99995422363,Thu Feb 06 2025 11:54:26 GMT-0600 (Central Standard Time),375775.59999999404,A,gol,I,l,171,1,1132.5,374643.09999999404,8022,WL,A,13.0
3,19.01099991798401,learn,40989.00008201599,Thu Feb 06 2025 11:54:26 GMT-0600 (Central Standard Time),375858.90000000596,A,gold,I,d,76,1,1215.800000011921,374643.09999999404,8022,WL,A,13.0
3,19.177000045776367,learn,40822.99995422363,Thu Feb 06 2025 11:54:26 GMT-0600 (Central Standard Time),376025.5,A,goldenter,I,enter,145,1,1382.4000000059605,374643.09999999404,8022,WL,A,13.0
3,19.427000045776367,learn,40572.99995422363,Thu Feb 06 2025 11:54:26 GMT-0600 (Central Standard Time),376275.5,A,k,I,k,226,1,249.59999999403954,376025.90000000596,8022,WL,A,14.0
3,19.543999910354614,learn,40456.000089645386,Thu Feb 06 2025 11:54:26 GMT-0600 (Central Standard Time),376391.90000000596,A,ke,I,e,104,1,366.0,376025.90000000596,8022,WL,A,14.0
3,19.66000008583069,learn,40339.99991416931,Thu Feb 06 2025 11:54:26 GMT-0600 (Central Standard Time),376508.8000000119,A,key,I,y,107,1,482.90000000596046,376025.90000000596,8022,WL,A,14.0
3,20.30999994277954,learn,39690.00005722046,Thu Feb 06 2025 11:54:26 GMT-0600 (Central Standard Time),377158.59999999404,A,keyenter,I,enter,639,1,1132.699999988079,376025.90000000596,8022,WL,A,14.0
3,22.825999975204468,learn,37174.00002479553,Thu Feb 06 2025 11:54:26 GMT-0600 (Central Standard Time),379674.2000000179,A,enter,I,enter,2492,1,2515.4000000059605,377158.8000000119,8022,WL,A,15.0
4,3.3329999446868896,learn,56667.00005531311,Thu Feb 06 2025 11:54:26 GMT-0600 (Central Standard Time),449902.5,A,b,I,b,3314,1,3332.0999999940395,446570.40000000596,8022,WL,A,1.0
4,3.449000120162964,learn,56550.999879837036,Thu Feb 06 2025 11:54:26 GMT-0600 (Central Standard Time),450019.0,A,bo,I,o,92,1,3448.5999999940395,446570.40000000596,8022,WL,A,1.0
4,3.615999937057495,learn,56384.000062942505,Thu Feb 06 2025 11:54:26 GMT-0600 (Central Standard Time),450185.8000000119,A,boo,I,o,152,1,3615.4000000059605,446570.40000000596,8022,WL,A,1.0
4,4.0320000648498535,learn,55967.99993515015,Thu Feb 06 2025 11:54:26 GMT-0600 (Central Standard Time),450602.2000000179,A,book,I,k,402,1,4031.800000011921,446570.40000000596,8022,WL,A,1.0
4,4.299000024795532,learn,55700.99997520447,Thu Feb 06 2025 11:54:26 GMT-0600 (Central Standard Time),450868.90000000596,A,bookenter,I,enter,249,1,4298.5,446570.40000000596,8022,WL,A,1.0
4,5.515000104904175,learn,54484.999895095825,Thu Feb 06 2025 11:54:26 GMT-0600 (Central Standard Time),452085.09999999404,A,f,I,f,1207,1,1215.8999999761581,450869.2000000179,8022,WL,A,2.0
4,5.664999961853027,learn,54335.00003814697,Thu Feb 06 2025 11:54:26 GMT-0600 (Central Standard Time),452235.0,A,fl,I,l,135,1,1365.7999999821186,450869.2000000179,8022,WL,A,2.0
4,5.865000009536743,learn,54134.99999046326,Thu Feb 06 2025 11:54:26 GMT-0600 (Central Standard Time),452435.0,A,flo,I,o,177,1,1565.7999999821186,450869.2000000179,8022,WL,A,2.0
4,5.9649999141693115,learn,54035.00008583069,Thu Feb 06 2025 11:54:26 GMT-0600 (Central Standard Time),452534.90000000596,A,flow,I,w,88,1,1665.699999988079,450869.2000000179,8022,WL,A,2.0
4,6.148000001907349,learn,53851.99999809265,Thu Feb 06 2025 11:54:26 GMT-0600 (Central Standard Time),452718.2000000179,A,flowe,I,e,165,1,1849.0,450869.2000000179,8022,WL,A,2.0
4,6.247999906539917,learn,53752.00009346008,Thu Feb 06 2025 11:54:26 GMT-0600 (Central Standard Time),452818.2000000179,A,flower,I,r,77,1,1949.0,450869.2000000179,8022,WL,A,2.0
4,6.414999961853027,learn,53585.00003814697,Thu Feb 06 2025 11:54:26 GMT-0600 (Central Standard Time),452984.8000000119,A,flowerenter,I,enter,145,1,2115.5999999940395,450869.2000000179,8022,WL,A,2.0
4,6.615000009536743,learn,53384.99999046326,Thu Feb 06 2025 11:54:26 GMT-0600 (Central Standard Time),453184.8000000119,A,t,I,t,179,1,199.7000000178814,452985.09999999404,8022,WL,A,3.0
4,6.8480000495910645,learn,53151.999950408936,Thu Feb 06 2025 11:54:26 GMT-0600 (Central Standard Time),453417.90000000596,A,tr,I,r,219,1,432.80000001192093,452985.09999999404,8022,WL,A,3.0
4,6.947999954223633,learn,53052.00004577637,Thu Feb 06 2025 11:54:26 GMT-0600 (Central Standard Time),453517.8000000119,A,tra,I,a,81,1,532.7000000178814,452985.09999999404,8022,WL,A,3.0
4,7.081000089645386,learn,52918.999910354614,Thu Feb 06 2025 11:54:26 GMT-0600 (Central Standard Time),453651.2000000179,A,trai,I,i,126,1,666.1000000238419,452985.09999999404,8022,WL,A,3.0
4,7.180999994277954,learn,52819.000005722046,Thu Feb 06 2025 11:54:26 GMT-0600 (Central Standard Time),453751.2000000179,A,train,I,n,89,1,766.1000000238419,452985.09999999404,8022,WL,A,3.0
4,7.497999906539917,learn,52502.00009346008,Thu Feb 06 2025 11:54:26 GMT-0600 (Central Standard Time),454067.59999999404,A,trainenter,I,enter,308,1,1082.5,452985.09999999404,8022,WL,A,3.0
4,7.831000089645386,learn,52168.999910354614,Thu Feb 06 2025 11:54:26 GMT-0600 (Central Standard Time),454400.8000000119,A,r,I,r,321,1,332.90000000596046,454067.90000000596,8022,WL,A,4.0
4,8.013999938964844,learn,51986.000061035156,Thu Feb 06 2025 11:54:26 GMT-0600 (Central Standard Time),454584.2000000179,A,ru,I,u,163,1,516.3000000119209,454067.90000000596,8022,WL,A,4.0
4,8.164000034332275,learn,51835.999965667725,Thu Feb 06 2025 11:54:26 GMT-0600 (Central Standard Time),454734.0,A,rug,I,g,139,1,666.0999999940395,454067.90000000596,8022,WL,A,4.0
4,8.697999954223633,learn,51302.00004577637,Thu Feb 06 2025 11:54:26 GMT-0600 (Central Standard Time),455267.5,A,rugenter,I,enter,509,1,1199.5999999940395,454067.90000000596,8022,WL,A,4.0
4,12.812999963760376,learn,47187.000036239624,Thu Feb 06 2025 11:54:26 GMT-0600 (Central Standard Time),459382.8000000119,A,m,I,m,4096,1,4114.9000000059605,455267.90000000596,8022,WL,A,5.0
4,12.895999908447266,learn,47104.000091552734,Thu Feb 06 2025 11:54:26 GMT-0600 (Central Standard Time),459466.0,A,me,I,e,69,1,4198.0999999940395,455267.90000000596,8022,WL,A,5.0
4,13.145999908447266,learn,46854.000091552734,Thu Feb 06 2025 11:54:26 GMT-0600 (Central Standard Time),459716.0,A,mea,I,a,233,1,4448.0999999940395,455267.90000000596,8022,WL,A,5.0
4,13.296000003814697,learn,46703.9999961853,Thu Feb 06 2025 11:54:26 GMT-0600 (Central Standard Time),459865.90000000596,A,mead,I,d,128,1,4598.0,455267.90000000596,8022,WL,A,5.0
4,13.463000059127808,learn,46536.99994087219,Thu Feb 06 2025 11:54:26 GMT-0600 (Central Standard Time),460032.7000000179,A,meado,I,o,146,1,4764.800000011921,455267.90000000596,8022,WL,A,5.0
4,13.61299991607666,learn,46387.00008392334,Thu Feb 06 2025 11:54:26 GMT-0600 (Central Standard Time),460182.59999999404,A,meadow,I,w,131,1,4914.699999988079,455267.90000000596,8022,WL,A,5.0
4,13.76200008392334,learn,46237.99991607666,Thu Feb 06 2025 11:54:26 GMT-0600 (Central Standard Time),460332.5,A,meadowenter,I,enter,133,1,5064.5999999940395,455267.90000000596,8022,WL,A,5.0
4,14.546000003814697,learn,45453.9999961853,Thu Feb 06 2025 11:54:26 GMT-0600 (Central Standard Time),461115.59999999404,A,h,I,h,759,1,782.7999999821186,460332.8000000119,8022,WL,A,6.0
4,14.678999900817871,learn,45321.00009918213,Thu Feb 06 2025 11:54:26 GMT-0600 (Central Standard Time),461248.90000000596,A,ha,I,a,112,1,916.0999999940395,460332.8000000119,8022,WL,A,6.0
4,14.814000129699707,learn,45185.99987030029,Thu Feb 06 2025 11:54:26 GMT-0600 (Central Standard Time),461384.0,A,har,I,r,115,1,1051.199999988079,460332.8000000119,8022,WL,A,6.0
4,14.946000099182129,learn,45053.99990081787,Thu Feb 06 2025 11:54:26 GMT-0600 (Central Standard Time),461515.59999999404,A,harp,I,p,124,1,1182.7999999821186,460332.8000000119,8022,WL,A,6.0
4,15.295000076293945,learn,44704.999923706055,Thu Feb 06 2025 11:54:26 GMT-0600 (Central Standard Time),461865.3000000119,A,harpenter,I,enter,336,1,1532.5,460332.8000000119,8022,WL,A,6.0
4,18.128000020980835,learn,41871.999979019165,Thu Feb 06 2025 11:54:26 GMT-0600 (Central Standard Time),464697.8000000119,A,r,I,r,2810,1,2832.0999999940395,461865.7000000179,8022,WL,A,7.0
4,19.47699999809265,learn,40523.00000190735,Thu Feb 06 2025 11:54:26 GMT-0600 (Central Standard Time),466047.2000000179,A,,I,backspace,1336,1,4181.5,461865.7000000179,8022,WL,A,7.0
4,20.91000008583069,learn,39089.99991416931,Thu Feb 06 2025 11:54:26 GMT-0600 (Central Standard Time),467480.3000000119,A,s,I,s,1421,1,5614.5999999940395,461865.7000000179,8022,WL,A,7.0
4,21.07699990272522,learn,38923.00009727478,Thu Feb 06 2025 11:54:26 GMT-0600 (Central Standard Time),467646.90000000596,A,sa,I,a,147,1,5781.199999988079,461865.7000000179,8022,WL,A,7.0
4,21.194000005722046,learn,38805.999994277954,Thu Feb 06 2025 11:54:26 GMT-0600 (Central Standard Time),467763.5,A,sal,I,l,101,1,5897.799999982119,461865.7000000179,8022,WL,A,7.0
4,21.293999910354614,learn,38706.000089645386,Thu Feb 06 2025 11:54:26 GMT-0600 (Central Standard Time),467863.5,A,salt,I,t,88,1,5997.799999982119,461865.7000000179,8022,WL,A,7.0
4,21.460000038146973,learn,38539.99996185303,Thu Feb 06 2025 11:54:26 GMT-0600 (Central Standard Time),468030.0,A,saltenter,I,enter,148,1,6164.299999982119,461865.7000000179,8022,WL,A,7.0
4,21.66000008583069,learn,38339.99991416931,Thu Feb 06 2025 11:54:26 GMT-0600 (Central Standard Time),468229.90000000596,A,f,I,f,181,1,199.5,468030.40000000596,8022,WL,A,8.0
4,21.776999950408936,learn,38223.000049591064,Thu Feb 06 2025 11:54:26 GMT-0600 (Central Standard Time),468346.8000000119,A,fi,I,i,94,1,316.40000000596046,468030.40000000596,8022,WL,A,8.0
4,21.89300012588501,learn,38106.99987411499,Thu Feb 06 2025 11:54:26 GMT-0600 (Central Standard Time),468463.3000000119,A,fin,I,n,105,1,432.90000000596046,468030.40000000596,8022,WL,A,8.0
4,21.99399995803833,learn,38006.00004196167,Thu Feb 06 2025 11:54:26 GMT-0600 (Central Standard Time),468563.59999999404,A,fing,I,g,84,1,533.1999999880791,468030.40000000596,8022,WL,A,8.0
4,22.194000005722046,learn,37805.999994277954,Thu Feb 06 2025 11:54:26 GMT-0600 (Central Standard Time),468764.3000000119,A,finge,I,e,184,1,733.9000000059605,468030.40000000596,8022,WL,A,8.0
4,22.259999990463257,learn,37740.00000953674,Thu Feb 06 2025 11:54:26 GMT-0600 (Central Standard Time),468830.0,A,finger,I,r,47,1,799.5999999940395,468030.40000000596,8022,WL,A,8.0
4,22.39300012588501,learn,37606.99987411499,Thu Feb 06 2025 11:54:26 GMT-0600 (Central Standard Time),468963.0,A,fingerenter,I,enter,117,1,932.5999999940395,468030.40000000596,8022,WL,A,8.0
4,22.575999975204468,learn,37424.00002479553,Thu Feb 06 2025 11:54:26 GMT-0600 (Central Standard Time),469146.5,A,a,I,a,160,1,183.0,468963.5,8022,WL,A,9.0
4,22.710000038146973,learn,37289.99996185303,Thu Feb 06 2025 11:54:26 GMT-0600 (Central Standard Time),469279.59999999404,A,ap,I,p,113,1,316.09999999403954,468963.5,8022,WL,A,9.0
4,22.875999927520752,learn,37124.00007247925,Thu Feb 06 2025 11:54:26 GMT-0600 (Central Standard Time),469446.40000000596,A,app,I,p,156,1,482.90000000596046,468963.5,8022,WL,A,9.0
4,23.110000133514404,learn,36889.999866485596,Thu Feb 06 2025 11:54:26 GMT-0600 (Central Standard Time),469679.59999999404,A,appl,I,l,214,1,716.0999999940395,468963.5,8022,WL,A,9.0
4,23.194000005722046,learn,36805.999994277954,Thu Feb 06 2025 11:54:26 GMT-0600 (Central Standard Time),469763.7000000179,A,apple,I,e,60,1,800.2000000178814,468963.5,8022,WL,A,9.0
4,23.360000133514404,learn,36639.999866485596,Thu Feb 06 2025 11:54:26 GMT-0600 (Central Standard Time),469929.59999999404,A,appleenter,I,enter,152,1,966.0999999940395,468963.5,8022,WL,A,9.0
4,23.526000022888184,learn,36473.99997711182,Thu Feb 06 2025 11:54:26 GMT-0600 (Central Standard Time),470096.0,A,b,I,b,146,1,166.0,469930.0,8022,WL,A,10.0
4,23.710000038146973,learn,36289.99996185303,Thu Feb 06 2025 11:54:26 GMT-0600 (Central Standard Time),470279.5,A,bu,I,u,163,1,349.5,469930.0,8022,WL,A,10.0
4,23.80999994277954,learn,36190.00005722046,Thu Feb 06 2025 11:54:26 GMT-0600 (Central Standard Time),470379.5,A,but,I,t,76,1,449.5,469930.0,8022,WL,A,10.0
4,23.9760000705719,learn,36023.9999294281,Thu Feb 06 2025 11:54:26 GMT-0600 (Central Standard Time),470545.90000000596,A,butt,I,t,151,1,615.9000000059605,469930.0,8022,WL,A,10.0
4,24.125999927520752,learn,35874.00007247925,Thu Feb 06 2025 11:54:26 GMT-0600 (Central Standard Time),470696.0,A,butto,I,o,130,1,766.0,469930.0,8022,WL,A,10.0
4,24.242000102996826,learn,35757.999897003174,Thu Feb 06 2025 11:54:26 GMT-0600 (Central Standard Time),470812.5,A,button,I,n,108,1,882.5,469930.0,8022,WL,A,10.0
4,24.426000118255615,learn,35573.999881744385,Thu Feb 06 2025 11:54:26 GMT-0600 (Central Standard Time),470995.5,A,buttonenter,I,enter,175,1,1065.5,469930.0,8022,WL,A,10.0
4,24.80900001525879,learn,35190.99998474121,Thu Feb 06 2025 11:54:26 GMT-0600 (Central Standard Time),471379.3000000119,A,c,I,c,360,1,383.40000000596046,470995.90000000596,8022,WL,A,11.0
4,24.926000118255615,learn,35073.999881744385,Thu Feb 06 2025 11:54:26 GMT-0600 (Central Standard Time),471495.8000000119,A,ch,I,h,104,1,499.90000000596046,470995.90000000596,8022,WL,A,11.0
4,25.075999975204468,learn,34924.00002479553,Thu Feb 06 2025 11:54:26 GMT-0600 (Central Standard Time),471645.7000000179,A,chi,I,i,132,1,649.8000000119209,470995.90000000596,8022,WL,A,11.0
4,25.242000102996826,learn,34757.999897003174,Thu Feb 06 2025 11:54:26 GMT-0600 (Central Standard Time),471812.2000000179,A,chim,I,m,150,1,816.3000000119209,470995.90000000596,8022,WL,A,11.0
4,25.509000062942505,learn,34490.999937057495,Thu Feb 06 2025 11:54:26 GMT-0600 (Central Standard Time),472078.8000000119,A,chimn,I,n,247,1,1082.9000000059605,470995.90000000596,8022,WL,A,11.0
4,25.658999919891357,learn,34341.00008010864,Thu Feb 06 2025 11:54:26 GMT-0600 (Central Standard Time),472228.90000000596,A,chimne,I,e,141,1,1233.0,470995.90000000596,8022,WL,A,11.0
4,25.808000087738037,learn,34191.99991226196,Thu Feb 06 2025 11:54:26 GMT-0600 (Central Standard Time),472379.0,A,chimney,I,y,127,1,1383.0999999940395,470995.90000000596,8022,WL,A,11.0
4,26.058000087738037,learn,33941.99991226196,Thu Feb 06 2025 11:54:26 GMT-0600 (Central Standard Time),472628.5,A,chimneyenter,I,enter,241,1,1632.5999999940395,470995.90000000596,8022,WL,A,11.0
4,27.657999992370605,learn,32342.000007629395,Thu Feb 06 2025 11:54:26 GMT-0600 (Central Standard Time),474228.2000000179,A,g,I,g,1583,1,1599.300000011921,472628.90000000596,8022,WL,A,12.0
4,27.723999977111816,learn,32276.000022888184,Thu Feb 06 2025 11:54:26 GMT-0600 (Central Standard Time),474294.7000000179,A,go,I,o,46,1,1665.800000011921,472628.90000000596,8022,WL,A,12.0
4,27.907999992370605,learn,32092.000007629395,Thu Feb 06 2025 11:54:26 GMT-0600 (Central Standard Time),474478.2000000179,A,gol,I,l,165,1,1849.300000011921,472628.90000000596,8022,WL,A,12.0
4,28.006999969482422,learn,31993.000030517578,Thu Feb 06 2025 11:54:26 GMT-0600 (Central Standard Time),474578.0,A,gold,I,d,85,1,1949.0999999940395,472628.90000000596,8022,WL,A,12.0
4,28.19099998474121,learn,31809.00001525879,Thu Feb 06 2025 11:54:26 GMT-0600 (Central Standard Time),474761.3000000119,A,goldenter,I,enter,169,1,2132.4000000059605,472628.90000000596,8022,WL,A,12.0
4,28.473999977111816,learn,31526.000022888184,Thu Feb 06 2025 11:54:26 GMT-0600 (Central Standard Time),475044.7000000179,A,k,I,k,274,1,283.10000002384186,474761.59999999404,8022,WL,A,13.0
4,28.625,learn,31375.0,Thu Feb 06 2025 11:54:26 GMT-0600 (Central Standard Time),475195.7000000179,A,ke,I,e,135,1,434.10000002384186,474761.59999999404,8022,WL,A,13.0
4,28.740999937057495,learn,31259.000062942505,Thu Feb 06 2025 11:54:26 GMT-0600 (Central Standard Time),475311.2000000179,A,key,I,y,104,1,549.6000000238419,474761.59999999404,8022,WL,A,13.0
4,29.19099998474121,learn,30809.00001525879,Thu Feb 06 2025 11:54:26 GMT-0600 (Central Standard Time),475761.2000000179,A,keyenter,I,enter,428,1,999.6000000238419,474761.59999999404,8022,WL,A,13.0
4,41.587000131607056,learn,18412.999868392944,Thu Feb 06 2025 11:54:26 GMT-0600 (Central Standard Time),488157.2000000179,A,enter,I,enter,12387,1,12395.700000017881,475761.5,8022,WL,A,14.0
4,41.753000020980835,learn,18246.999979019165,Thu Feb 06 2025 11:54:26 GMT-0600 (Central Standard Time),488323.8000000119,A,enter,I,enter,150,1,166.30000001192093,488157.5,8022,WL,A,15.0
5,1.1669998168945312,learn,60000.0,Thu Feb 06 2025 11:54:26 GMT-0600 (Central Standard Time),554969.900000006,A,b,I,b,1145,1,1166.5999999940395,553803.3000000119,8022,WL,A,1.0
5,1.2829999923706055,learn,60000.0,Thu Feb 06 2025 11:54:26 GMT-0600 (Central Standard Time),555086.3000000119,A,bu,I,u,97,1,1283.0,553803.3000000119,8022,WL,A,1.0
5,1.4169998168945312,learn,60000.0,Thu Feb 06 2025 11:54:26 GMT-0600 (Central Standard Time),555220.5,A,but,I,t,125,1,1417.199999988079,553803.3000000119,8022,WL,A,1.0
5,1.5999999046325684,learn,60000.0,Thu Feb 06 2025 11:54:26 GMT-0600 (Central Standard Time),555403.0,A,butt,I,t,175,1,1599.699999988079,553803.3000000119,8022,WL,A,1.0
5,1.6669998168945312,learn,60000.0,Thu Feb 06 2025 11:54:26 GMT-0600 (Central Standard Time),555469.599999994,A,butto,I,o,49,1,1666.2999999821186,553803.3000000119,8022,WL,A,1.0
5,1.7659997940063477,learn,60000.0,Thu Feb 06 2025 11:54:26 GMT-0600 (Central Standard Time),555569.5,A,button,I,n,86,1,1766.199999988079,553803.3000000119,8022,WL,A,1.0
5,2.1499998569488525,learn,60000.0,Thu Feb 06 2025 11:54:26 GMT-0600 (Central Standard Time),555952.7000000179,A,buttonenter,I,enter,369,1,2149.4000000059605,553803.3000000119,8022,WL,A,1.0
5,2.432999849319458,learn,60000.0,Thu Feb 06 2025 11:54:26 GMT-0600 (Central Standard Time),556235.8000000119,A,l,I,l,267,1,282.80000001192093,555953.0,8022,WL,A,2.0
5,2.615999937057495,learn,60000.0,Thu Feb 06 2025 11:54:26 GMT-0600 (Central Standard Time),556419.2000000179,A,lo,I,o,176,1,466.2000000178814,555953.0,8022,WL,A,2.0
5,2.7159998416900635,learn,60000.0,Thu Feb 06 2025 11:54:26 GMT-0600 (Central Standard Time),556519.2000000179,A,log,I,g,80,1,566.2000000178814,555953.0,8022,WL,A,2.0
5,2.8989999294281006,learn,60000.0,Thu Feb 06 2025 11:54:26 GMT-0600 (Central Standard Time),556702.3000000119,A,logenter,I,enter,164,1,749.3000000119209,555953.0,8022,WL,A,2.0
5,3.2839999198913574,learn,60000.0,Thu Feb 06 2025 11:54:26 GMT-0600 (Central Standard Time),557086.8000000119,A,k,I,k,373,1,384.09999999403954,556702.7000000179,8022,WL,A,3.0
5,3.431999921798706,learn,60000.0,Thu Feb 06 2025 11:54:26 GMT-0600 (Central Standard Time),557235.5,A,ke,I,e,140,1,532.7999999821186,556702.7000000179,8022,WL,A,3.0
5,3.565999984741211,learn,60000.0,Thu Feb 06 2025 11:54:26 GMT-0600 (Central Standard Time),557368.900000006,A,key,I,y,112,1,666.1999999880791,556702.7000000179,8022,WL,A,3.0
5,3.7659997940063477,learn,60000.0,Thu Feb 06 2025 11:54:26 GMT-0600 (Central Standard Time),557568.900000006,A,keyenter,I,enter,179,1,866.1999999880791,556702.7000000179,8022,WL,A,3.0
5,3.9819998741149902,learn,60000.0,Thu Feb 06 2025 11:54:26 GMT-0600 (Central Standard Time),557785.400000006,A,r,I,r,203,1,216.19999998807907,557569.2000000179,8022,WL,A,4.0
5,4.198999881744385,learn,60000.0,Thu Feb 06 2025 11:54:26 GMT-0600 (Central Standard Time),558002.0,A,ra,I,a,194,1,432.7999999821186,557569.2000000179,8022,WL,A,4.0
5,4.298999786376953,learn,60000.0,Thu Feb 06 2025 11:54:26 GMT-0600 (Central Standard Time),558101.900000006,A,rat,I,t,90,1,532.6999999880791,557569.2000000179,8022,WL,A,4.0
5,4.4659998416900635,learn,60000.0,Thu Feb 06 2025 11:54:26 GMT-0600 (Central Standard Time),558268.7000000179,A,ratt,I,t,157,1,699.5,557569.2000000179,8022,WL,A,4.0
5,4.548999786376953,learn,60000.0,Thu Feb 06 2025 11:54:26 GMT-0600 (Central Standard Time),558351.900000006,A,rattl,I,l,63,1,782.6999999880791,557569.2000000179,8022,WL,A,4.0
5,4.73199987411499,learn,60000.0,Thu Feb 06 2025 11:54:26 GMT-0600 (Central Standard Time),558535.099999994,A,rattle,I,e,164,1,965.8999999761581,557569.2000000179,8022,WL,A,4.0
5,4.865000009536743,learn,60000.0,Thu Feb 06 2025 11:54:26 GMT-0600 (Central Standard Time),558668.400000006,A,rattleenter,I,enter,116,1,1099.199999988079,557569.2000000179,8022,WL,A,4.0
5,5.131999969482422,learn,60000.0,Thu Feb 06 2025 11:54:26 GMT-0600 (Central Standard Time),558935.0,A,g,I,g,247,1,266.19999998807907,558668.8000000119,8022,WL,A,5.0
5,5.23199987411499,learn,60000.0,Thu Feb 06 2025 11:54:26 GMT-0600 (Central Standard Time),559034.900000006,A,go,I,o,84,1,366.09999999403954,558668.8000000119,8022,WL,A,5.0
5,5.448999881744385,learn,60000.0,Thu Feb 06 2025 11:54:26 GMT-0600 (Central Standard Time),559251.599999994,A,gol,I,l,193,1,582.7999999821186,558668.8000000119,8022,WL,A,5.0
5,5.531999826431274,learn,60000.0,Thu Feb 06 2025 11:54:26 GMT-0600 (Central Standard Time),559335.0,A,gold,I,d,72,1,666.1999999880791,558668.8000000119,8022,WL,A,5.0
5,5.697999954223633,learn,60000.0,Thu Feb 06 2025 11:54:26 GMT-0600 (Central Standard Time),559501.400000006,A,goldenter,I,enter,149,1,832.5999999940395,558668.8000000119,8022,WL,A,5.0
5,7.2809998989105225,learn,60000.0,Thu Feb 06 2025 11:54:26 GMT-0600 (Central Standard Time),561084.400000006,A,t,I,t,1566,1,1582.5999999940395,559501.8000000119,8022,WL,A,6.0
5,7.513999938964844,learn,60000.0,Thu Feb 06 2025 11:54:26 GMT-0600 (Central Standard Time),561317.5,A,tr,I,r,223,1,1815.699999988079,559501.8000000119,8022,WL,A,6.0
5,7.648000001907349,learn,60000.0,Thu Feb 06 2025 11:54:26 GMT-0600 (Central Standard Time),561451.099999994,A,tra,I,a,118,1,1949.2999999821186,559501.8000000119,8022,WL,A,6.0
5,7.797999858856201,learn,60000.0,Thu Feb 06 2025 11:54:26 GMT-0600 (Central Standard Time),561600.8000000119,A,trai,I,i,137,1,2099.0,559501.8000000119,8022,WL,A,6.0
5,7.930999994277954,learn,60000.0,Thu Feb 06 2025 11:54:26 GMT-0600 (Central Standard Time),561734.0,A,train,I,n,123,1,2232.199999988079,559501.8000000119,8022,WL,A,6.0
5,9.430999994277954,learn,60000.0,Thu Feb 06 2025 11:54:26 GMT-0600 (Central Standard Time),563233.7000000179,A,trainenter,I,enter,1486,1,3731.9000000059605,559501.8000000119,8022,WL,A,6.0
5,9.780999898910522,learn,60000.0,Thu Feb 06 2025 11:54:26 GMT-0600 (Central Standard Time),563583.5,A,f,I,f,330,1,349.40000000596046,563234.099999994,8022,WL,A,7.0
5,9.913999795913696,learn,60000.0,Thu Feb 06 2025 11:54:26 GMT-0600 (Central Standard Time),563716.900000006,A,fl,I,l,115,1,482.80000001192093,563234.099999994,8022,WL,A,7.0
5,10.113999843597412,learn,60000.0,Thu Feb 06 2025 11:54:26 GMT-0600 (Central Standard Time),563916.900000006,A,flo,I,o,183,1,682.8000000119209,563234.099999994,8022,WL,A,7.0
5,10.21399998664856,learn,60000.0,Thu Feb 06 2025 11:54:26 GMT-0600 (Central Standard Time),564016.599999994,A,flow,I,w,78,1,782.5,563234.099999994,8022,WL,A,7.0
5,10.346999883651733,learn,60000.0,Thu Feb 06 2025 11:54:26 GMT-0600 (Central Standard Time),564150.0,A,flowe,I,e,115,1,915.9000000059605,563234.099999994,8022,WL,A,7.0
5,10.446999788284302,learn,60000.0,Thu Feb 06 2025 11:54:26 GMT-0600 (Central Standard Time),564250.2000000179,A,flower,I,r,85,1,1016.1000000238419,563234.099999994,8022,WL,A,7.0
5,10.646999835968018,learn,60000.0,Thu Feb 06 2025 11:54:26 GMT-0600 (Central Standard Time),564450.099999994,A,flowerenter,I,enter,177,1,1216.0,563234.099999994,8022,WL,A,7.0
5,10.896999835968018,learn,60000.0,Thu Feb 06 2025 11:54:26 GMT-0600 (Central Standard Time),564699.7000000179,A,m,I,m,241,1,249.10000002384186,564450.599999994,8022,WL,A,8.0
5,11.04699993133545,learn,60000.0,Thu Feb 06 2025 11:54:26 GMT-0600 (Central Standard Time),564849.8000000119,A,me,I,e,128,1,399.2000000178814,564450.599999994,8022,WL,A,8.0
5,11.579999923706055,learn,60000.0,Thu Feb 06 2025 11:54:26 GMT-0600 (Central Standard Time),565383.099999994,A,mea,I,a,514,1,932.5,564450.599999994,8022,WL,A,8.0
5,11.94599986076355,learn,60000.0,Thu Feb 06 2025 11:54:26 GMT-0600 (Central Standard Time),565749.5,A,mead,I,d,356,1,1298.9000000059605,564450.599999994,8022,WL,A,8.0
5,12.145999908447266,learn,60000.0,Thu Feb 06 2025 11:54:26 GMT-0600 (Central Standard Time),565949.5,A,meado,I,o,182,1,1498.9000000059605,564450.599999994,8022,WL,A,8.0
5,12.263000011444092,learn,60000.0,Thu Feb 06 2025 11:54:26 GMT-0600 (Central Standard Time),566066.0,A,meadow,I,w,94,1,1615.4000000059605,564450.599999994,8022,WL,A,8.0
5,12.462999820709229,learn,60000.0,Thu Feb 06 2025 11:54:26 GMT-0600 (Central Standard Time),566266.2000000179,A,meadowenter,I,enter,185,1,1815.6000000238419,564450.599999994,8022,WL,A,8.0
5,13.645999908447266,learn,60000.0,Thu Feb 06 2025 11:54:26 GMT-0600 (Central Standard Time),567449.099999994,A,h,I,h,1170,1,1182.5999999940395,566266.5,8022,WL,A,9.0
5,13.812999963760376,learn,60000.0,Thu Feb 06 2025 11:54:26 GMT-0600 (Central Standard Time),567615.599999994,A,ha,I,a,154,1,1349.0999999940395,566266.5,8022,WL,A,9.0
5,14.013000011444092,learn,60000.0,Thu Feb 06 2025 11:54:26 GMT-0600 (Central Standard Time),567815.7000000179,A,har,I,r,180,1,1549.2000000178814,566266.5,8022,WL,A,9.0
5,14.145999908447266,learn,60000.0,Thu Feb 06 2025 11:54:26 GMT-0600 (Central Standard Time),567949.0,A,harp,I,p,116,1,1682.5,566266.5,8022,WL,A,9.0
5,15.311999797821045,learn,60000.0,Thu Feb 06 2025 11:54:26 GMT-0600 (Central Standard Time),569115.099999994,A,har,I,backspace,1151,1,2848.5999999940395,566266.5,8022,WL,A,9.0
5,16.244999885559082,learn,60000.0,Thu Feb 06 2025 11:54:26 GMT-0600 (Central Standard Time),570048.2000000179,A,harp,I,p,913,1,3781.7000000178814,566266.5,8022,WL,A,9.0
5,16.544999837875366,learn,60000.0,Thu Feb 06 2025 11:54:26 GMT-0600 (Central Standard Time),570348.099999994,A,harpenter,I,enter,283,1,4081.5999999940395,566266.5,8022,WL,A,9.0
5,16.811999797821045,learn,60000.0,Thu Feb 06 2025 11:54:26 GMT-0600 (Central Standard Time),570614.900000006,A,f,I,f,248,1,266.5,570348.400000006,8022,WL,A,10.0
5,17.161999940872192,learn,60000.0,Thu Feb 06 2025 11:54:26 GMT-0600 (Central Standard Time),570964.599999994,A,fn,I,n,341,1,616.1999999880791,570348.400000006,8022,WL,A,10.0
5,17.32799983024597,learn,60000.0,Thu Feb 06 2025 11:54:26 GMT-0600 (Central Standard Time),571131.5,A,fng,I,g,151,1,783.0999999940395,570348.400000006,8022,WL,A,10.0
5,17.92799997329712,learn,60000.0,Thu Feb 06 2025 11:54:26 GMT-0600 (Central Standard Time),571731.3000000119,A,fn,I,backspace,592,1,1382.9000000059605,570348.400000006,8022,WL,A,10.0
5,18.128000020980835,learn,60000.0,Thu Feb 06 2025 11:54:26 GMT-0600 (Central Standard Time),571930.8000000119,A,f,I,backspace,177,1,1582.4000000059605,570348.400000006,8022,WL,A,10.0
5,18.41100001335144,learn,60000.0,Thu Feb 06 2025 11:54:26 GMT-0600 (Central Standard Time),572214.0,A,fi,I,i,264,1,1865.5999999940395,570348.400000006,8022,WL,A,10.0
5,18.560999870300293,learn,60000.0,Thu Feb 06 2025 11:54:26 GMT-0600 (Central Standard Time),572364.3000000119,A,fin,I,n,134,1,2015.9000000059605,570348.400000006,8022,WL,A,10.0
5,18.67799997329712,learn,60000.0,Thu Feb 06 2025 11:54:26 GMT-0600 (Central Standard Time),572481.0,A,fing,I,g,104,1,2132.5999999940395,570348.400000006,8022,WL,A,10.0
5,18.91100001335144,learn,60000.0,Thu Feb 06 2025 11:54:26 GMT-0600 (Central Standard Time),572714.0,A,fingr,I,r,219,1,2365.5999999940395,570348.400000006,8022,WL,A,10.0
5,19.027999877929688,learn,60000.0,Thu Feb 06 2025 11:54:26 GMT-0600 (Central Standard Time),572830.599999994,A,fingrenter,I,enter,106,1,2482.199999988079,570348.400000006,8022,WL,A,10.0
5,19.26099991798401,learn,60000.0,Thu Feb 06 2025 11:54:26 GMT-0600 (Central Standard Time),573063.8000000119,A,b,I,b,221,1,232.80000001192093,572831.0,8022,WL,A,11.0
5,19.393999814987183,learn,60000.0,Thu Feb 06 2025 11:54:26 GMT-0600 (Central Standard Time),573197.3000000119,A,bu,I,u,124,1,366.30000001192093,572831.0,8022,WL,A,11.0
5,21.026999950408936,learn,60000.0,Thu Feb 06 2025 11:54:26 GMT-0600 (Central Standard Time),574830.099999994,A,but,I,t,1614,1,1999.0999999940395,572831.0,8022,WL,A,11.0
5,21.194000005722046,learn,60000.0,Thu Feb 06 2025 11:54:26 GMT-0600 (Central Standard Time),574996.8000000119,A,butt,I,t,158,1,2165.800000011921,572831.0,8022,WL,A,11.0
5,21.676999807357788,learn,60000.0,Thu Feb 06 2025 11:54:26 GMT-0600 (Central Standard Time),575480.0,A,butto,I,o,463,1,2649.0,572831.0,8022,WL,A,11.0
5,21.80999994277954,learn,60000.0,Thu Feb 06 2025 11:54:26 GMT-0600 (Central Standard Time),575613.2000000179,A,button,I,n,124,1,2782.2000000178814,572831.0,8022,WL,A,11.0
5,22.07699990272522,learn,60000.0,Thu Feb 06 2025 11:54:26 GMT-0600 (Central Standard Time),575879.900000006,A,buttonenter,I,enter,255,1,3048.9000000059605,572831.0,8022,WL,A,11.0
5,22.842999935150146,learn,60000.0,Thu Feb 06 2025 11:54:26 GMT-0600 (Central Standard Time),576646.0,A,s,I,s,755,1,765.7999999821186,575880.2000000179,8022,WL,A,12.0
5,23.026000022888184,learn,60000.0,Thu Feb 06 2025 11:54:26 GMT-0600 (Central Standard Time),576829.400000006,A,sa,I,a,166,1,949.1999999880791,575880.2000000179,8022,WL,A,12.0
5,23.125999927520752,learn,60000.0,Thu Feb 06 2025 11:54:26 GMT-0600 (Central Standard Time),576929.3000000119,A,sal,I,l,86,1,1049.0999999940395,575880.2000000179,8022,WL,A,12.0
5,23.276000022888184,learn,60000.0,Thu Feb 06 2025 11:54:26 GMT-0600 (Central Standard Time),577079.2000000179,A,salt,I,t,138,1,1199.0,575880.2000000179,8022,WL,A,12.0
5,23.425999879837036,learn,60000.0,Thu Feb 06 2025 11:54:26 GMT-0600 (Central Standard Time),577229.400000006,A,saltenter,I,enter,132,1,1349.199999988079,575880.2000000179,8022,WL,A,12.0
5,27.657999992370605,learn,60000.0,Thu Feb 06 2025 11:54:26 GMT-0600 (Central Standard Time),581461.3000000119,A,r,I,r,4222,1,4231.5999999940395,577229.7000000179,8022,WL,A,13.0
5,28.174999952316284,learn,60000.0,Thu Feb 06 2025 11:54:26 GMT-0600 (Central Standard Time),581978.0,A,ra,I,a,494,1,4748.299999982119,577229.7000000179,8022,WL,A,13.0
5,28.640999794006348,learn,60000.0,Thu Feb 06 2025 11:54:26 GMT-0600 (Central Standard Time),582444.3000000119,A,rat,I,t,450,1,5214.5999999940395,577229.7000000179,8022,WL,A,13.0
5,28.857999801635742,learn,60000.0,Thu Feb 06 2025 11:54:26 GMT-0600 (Central Standard Time),582661.0,A,ratt,I,t,199,1,5431.299999982119,577229.7000000179,8022,WL,A,13.0
5,29.057999849319458,learn,60000.0,Thu Feb 06 2025 11:54:26 GMT-0600 (Central Standard Time),582860.900000006,A,rattl,I,l,183,1,5631.199999988079,577229.7000000179,8022,WL,A,13.0
5,29.72099995613098,learn,60000.0,Thu Feb 06 2025 11:54:26 GMT-0600 (Central Standard Time),583524.099999994,A,rattle,I,e,656,1,6294.399999976158,577229.7000000179,8022,WL,A,13.0
5,31.923999786376953,learn,60000.0,Thu Feb 06 2025 11:54:26 GMT-0600 (Central Standard Time),585726.599999994,A,rattleenter,I,enter,2183,1,8496.899999976158,577229.7000000179,8022,WL,A,13.0
5,32.87299990653992,learn,60000.0,Thu Feb 06 2025 11:54:26 GMT-0600 (Central Standard Time),586676.3000000119,A,enter,I,enter,941,1,949.3000000119209,585727.0,8022,WL,A,14.0
5,34.33999991416931,learn,60000.0,Thu Feb 06 2025 11:54:26 GMT-0600 (Central Standard Time),588142.599999994,A,enter,I,enter,1456,1,1466.0,586676.599999994,8022,WL,A,15.0
6,1.4500000476837158,distr,58549.999952316284,Thu Feb 06 2025 11:54:26 GMT-0600 (Central Standard Time),657837.400000006,B,j,I,j,1433,1,1449.5,656387.900000006,8022,WL,A,1.0
6,1.683000087738037,distr,58316.99991226196,Thu Feb 06 2025 11:54:26 GMT-0600 (Central Standard Time),658070.8000000119,B,ju,I,u,213,1,1682.9000000059605,656387.900000006,8022,WL,A,1.0
6,1.883000135421753,distr,58116.99986457825,Thu Feb 06 2025 11:54:26 GMT-0600 (Central Standard Time),658270.599999994,B,jud,I,d,189,1,1882.699999988079,656387.900000006,8022,WL,A,1.0
6,2.0829999446868896,distr,57917.00005531311,Thu Feb 06 2025 11:54:26 GMT-0600 (Central Standard Time),658470.5,B,judg,I,g,181,1,2082.5999999940395,656387.900000006,8022,WL,A,1.0
6,2.2160000801086426,distr,57783.99991989136,Thu Feb 06 2025 11:54:26 GMT-0600 (Central Standard Time),658603.900000006,B,judge,I,e,117,1,2216.0,656387.900000006,8022,WL,A,1.0
6,2.6660001277923584,distr,57333.99987220764,Thu Feb 06 2025 11:54:26 GMT-0600 (Central Standard Time),659053.7000000179,B,judgeenter,I,enter,432,1,2665.800000011921,656387.900000006,8022,WL,A,1.0
6,6.748000144958496,distr,53251.999855041504,Thu Feb 06 2025 11:54:26 GMT-0600 (Central Standard Time),663135.900000006,B,c,I,c,4062,1,4081.800000011921,659054.099999994,8022,WL,A,2.0
6,6.832000017166138,distr,53167.99998283386,Thu Feb 06 2025 11:54:26 GMT-0600 (Central Standard Time),663219.400000006,B,co,I,o,75,1,4165.300000011921,659054.099999994,8022,WL,A,2.0
6,6.898000001907349,distr,53101.99999809265,Thu Feb 06 2025 11:54:26 GMT-0600 (Central Standard Time),663285.8000000119,B,cou,I,u,48,1,4231.700000017881,659054.099999994,8022,WL,A,2.0
6,7.081000089645386,distr,52918.999910354614,Thu Feb 06 2025 11:54:26 GMT-0600 (Central Standard Time),663469.0,B,coun,I,n,174,1,4414.9000000059605,659054.099999994,8022,WL,A,2.0
6,7.2149999141693115,distr,52785.00008583069,Thu Feb 06 2025 11:54:26 GMT-0600 (Central Standard Time),663602.2000000179,B,count,I,t,111,1,4548.100000023842,659054.099999994,8022,WL,A,2.0
6,7.38100004196167,distr,52618.99995803833,Thu Feb 06 2025 11:54:26 GMT-0600 (Central Standard Time),663768.900000006,B,county,I,y,146,1,4714.800000011921,659054.099999994,8022,WL,A,2.0
6,7.581000089645386,distr,52418.999910354614,Thu Feb 06 2025 11:54:26 GMT-0600 (Central Standard Time),663968.900000006,B,countyenter,I,enter,187,1,4914.800000011921,659054.099999994,8022,WL,A,2.0
6,7.865000009536743,distr,52134.99999046326,Thu Feb 06 2025 11:54:26 GMT-0600 (Central Standard Time),664252.2000000179,B,p,I,p,266,1,282.90000000596046,663969.3000000119,8022,WL,A,3.0
6,8.065000057220459,distr,51934.99994277954,Thu Feb 06 2025 11:54:26 GMT-0600 (Central Standard Time),664452.2000000179,B,po,I,o,183,1,482.90000000596046,663969.3000000119,8022,WL,A,3.0
6,8.197999954223633,distr,51802.00004577637,Thu Feb 06 2025 11:54:26 GMT-0600 (Central Standard Time),664585.2000000179,B,poo,I,o,119,1,615.9000000059605,663969.3000000119,8022,WL,A,3.0
6,8.38100004196167,distr,51618.99995803833,Thu Feb 06 2025 11:54:26 GMT-0600 (Central Standard Time),664768.8000000119,B,pool,I,l,170,1,799.5,663969.3000000119,8022,WL,A,3.0
6,8.581000089645386,distr,51418.999910354614,Thu Feb 06 2025 11:54:26 GMT-0600 (Central Standard Time),664968.400000006,B,poolenter,I,enter,179,1,999.0999999940395,663969.3000000119,8022,WL,A,3.0
6,8.730999946594238,distr,51269.00005340576,Thu Feb 06 2025 11:54:26 GMT-0600 (Central Standard Time),665118.599999994,B,s,I,s,132,1,150.0,664968.599999994,8022,WL,A,4.0
6,8.831000089645386,distr,51168.999910354614,Thu Feb 06 2025 11:54:26 GMT-0600 (Central Standard Time),665218.599999994,B,sh,I,h,85,1,250.0,664968.599999994,8022,WL,A,4.0
6,8.998000144958496,distr,51001.999855041504,Thu Feb 06 2025 11:54:26 GMT-0600 (Central Standard Time),665385.2000000179,B,she,I,e,145,1,416.60000002384186,664968.599999994,8022,WL,A,4.0
6,9.197999954223633,distr,50802.00004577637,Thu Feb 06 2025 11:54:26 GMT-0600 (Central Standard Time),665585.2000000179,B,shee,I,e,179,1,616.6000000238419,664968.599999994,8022,WL,A,4.0
6,9.347000122070312,distr,50652.99987792969,Thu Feb 06 2025 11:54:26 GMT-0600 (Central Standard Time),665734.900000006,B,sheep,I,p,130,1,766.3000000119209,664968.599999994,8022,WL,A,4.0
6,9.614000082015991,distr,50385.99991798401,Thu Feb 06 2025 11:54:26 GMT-0600 (Central Standard Time),666001.599999994,B,sheepenter,I,enter,253,1,1033.0,664968.599999994,8022,WL,A,4.0
6,10.064000129699707,distr,49935.99987030029,Thu Feb 06 2025 11:54:26 GMT-0600 (Central Standard Time),666451.400000006,B,s,I,s,442,1,449.5,666001.900000006,8022,WL,A,5.0
6,10.265000104904175,distr,49734.999895095825,Thu Feb 06 2025 11:54:26 GMT-0600 (Central Standard Time),666652.400000006,B,se,I,e,193,1,650.5,666001.900000006,8022,WL,A,5.0
6,10.430000066757202,distr,49569.9999332428,Thu Feb 06 2025 11:54:26 GMT-0600 (Central Standard Time),666818.099999994,B,see,I,e,143,1,816.1999999880791,666001.900000006,8022,WL,A,5.0
6,10.615000009536743,distr,49384.99999046326,Thu Feb 06 2025 11:54:26 GMT-0600 (Central Standard Time),667002.400000006,B,seed,I,d,169,1,1000.5,666001.900000006,8022,WL,A,5.0
6,10.763000011444092,distr,49236.99998855591,Thu Feb 06 2025 11:54:26 GMT-0600 (Central Standard Time),667151.0,B,seedenter,I,enter,137,1,1149.0999999940395,666001.900000006,8022,WL,A,5.0
6,11.36299991607666,distr,48637.00008392334,Thu Feb 06 2025 11:54:26 GMT-0600 (Central Standard Time),667750.900000006,B,p,I,p,581,1,599.5999999940395,667151.3000000119,8022,WL,A,6.0
6,11.496999979019165,distr,48503.000020980835,Thu Feb 06 2025 11:54:26 GMT-0600 (Central Standard Time),667884.099999994,B,pe,I,e,124,1,732.7999999821186,667151.3000000119,8022,WL,A,6.0
6,11.713000059127808,distr,48286.99994087219,Thu Feb 06 2025 11:54:26 GMT-0600 (Central Standard Time),668101.0,B,pea,I,a,207,1,949.6999999880791,667151.3000000119,8022,WL,A,6.0
6,11.896000146865845,distr,48103.999853134155,Thu Feb 06 2025 11:54:26 GMT-0600 (Central Standard Time),668283.900000006,B,peac,I,c,174,1,1132.5999999940395,667151.3000000119,8022,WL,A,6.0
6,12.013000011444092,distr,47986.99998855591,Thu Feb 06 2025 11:54:26 GMT-0600 (Central Standard Time),668401.0,B,peach,I,h,96,1,1249.699999988079,667151.3000000119,8022,WL,A,6.0
6,12.213000059127808,distr,47786.99994087219,Thu Feb 06 2025 11:54:26 GMT-0600 (Central Standard Time),668600.7000000179,B,peachenter,I,enter,186,1,1449.4000000059605,667151.3000000119,8022,WL,A,6.0
6,12.913000106811523,distr,47086.99989318848,Thu Feb 06 2025 11:54:26 GMT-0600 (Central Standard Time),669300.5,B,m,I,m,683,1,699.5,668601.0,8022,WL,A,7.0
6,13.079999923706055,distr,46920.000076293945,Thu Feb 06 2025 11:54:26 GMT-0600 (Central Standard Time),669467.3000000119,B,mi,I,i,159,1,866.3000000119209,668601.0,8022,WL,A,7.0
6,13.27999997138977,distr,46720.00002861023,Thu Feb 06 2025 11:54:26 GMT-0600 (Central Standard Time),669667.099999994,B,mik,I,k,184,1,1066.0999999940395,668601.0,8022,WL,A,7.0
6,13.92900013923645,distr,46070.99986076355,Thu Feb 06 2025 11:54:26 GMT-0600 (Central Standard Time),670316.900000006,B,mikl,I,l,641,1,1715.9000000059605,668601.0,8022,WL,A,7.0
6,14.279000043869019,distr,45720.99995613098,Thu Feb 06 2025 11:54:26 GMT-0600 (Central Standard Time),670666.900000006,B,mik,I,backspace,327,1,2065.9000000059605,668601.0,8022,WL,A,7.0
6,14.479000091552734,distr,45520.999908447266,Thu Feb 06 2025 11:54:26 GMT-0600 (Central Standard Time),670866.900000006,B,mi,I,backspace,185,1,2265.9000000059605,668601.0,8022,WL,A,7.0
6,14.76200008392334,distr,45237.99991607666,Thu Feb 06 2025 11:54:26 GMT-0600 (Central Standard Time),671150.0,B,mil,I,l,265,1,2549.0,668601.0,8022,WL,A,7.0
6,15.161999940872192,distr,44838.00005912781,Thu Feb 06 2025 11:54:26 GMT-0600 (Central Standard Time),671549.900000006,B,milk,I,k,390,1,2948.9000000059605,668601.0,8022,WL,A,7.0
6,15.411999940872192,distr,44588.00005912781,Thu Feb 06 2025 11:54:26 GMT-0600 (Central Standard Time),671799.7000000179,B,milkenter,I,enter,230,1,3198.7000000178814,668601.0,8022,WL,A,7.0
6,15.878999948501587,distr,44121.00005149841,Thu Feb 06 2025 11:54:26 GMT-0600 (Central Standard Time),672266.3000000119,B,c,I,c,452,1,466.2000000178814,671800.099999994,8022,WL,A,8.0
6,16.01200008392334,distr,43987.99991607666,Thu Feb 06 2025 11:54:26 GMT-0600 (Central Standard Time),672399.599999994,B,co,I,o,122,1,599.5,671800.099999994,8022,WL,A,8.0
6,16.229000091552734,distr,43770.999908447266,Thu Feb 06 2025 11:54:26 GMT-0600 (Central Standard Time),672616.099999994,B,coa,I,a,196,1,816.0,671800.099999994,8022,WL,A,8.0
6,16.378000020980835,distr,43621.999979019165,Thu Feb 06 2025 11:54:26 GMT-0600 (Central Standard Time),672765.900000006,B,coat,I,t,139,1,965.8000000119209,671800.099999994,8022,WL,A,8.0
6,17.528000116348267,distr,42471.99988365173,Thu Feb 06 2025 11:54:26 GMT-0600 (Central Standard Time),673915.7000000179,B,coatenter,I,enter,1134,1,2115.600000023842,671800.099999994,8022,WL,A,8.0
6,18.76099991798401,distr,41239.00008201599,Thu Feb 06 2025 11:54:26 GMT-0600 (Central Standard Time),675148.599999994,B,enter,I,enter,1224,1,1232.5,673916.099999994,8022,WL,A,9.0
6,19.01099991798401,distr,40989.00008201599,Thu Feb 06 2025 11:54:26 GMT-0600 (Central Standard Time),675398.599999994,B,enter,I,enter,232,1,249.69999998807907,675148.900000006,8022,WL,A,10.0
6,19.210999965667725,distr,40789.000034332275,Thu Feb 06 2025 11:54:26 GMT-0600 (Central Standard Time),675598.599999994,B,enter,I,enter,189,1,199.69999998807907,675398.900000006,8022,WL,A,11.0
6,19.460999965667725,distr,40539.000034332275,Thu Feb 06 2025 11:54:26 GMT-0600 (Central Standard Time),675848.5,B,enter,I,enter,229,1,249.5,675599.0,8022,WL,A,12.0
6,19.89400005340576,distr,40105.99994659424,Thu Feb 06 2025 11:54:26 GMT-0600 (Central Standard Time),676281.7000000179,B,enter,I,enter,411,1,432.90000000596046,675848.8000000119,8022,WL,A,13.0
6,20.3270001411438,distr,39672.9998588562,Thu Feb 06 2025 11:54:26 GMT-0600 (Central Standard Time),676715.0,B,enter,I,enter,418,1,433.0,676282.0,8022,WL,A,14.0
6,20.944000005722046,distr,39055.999994277954,Thu Feb 06 2025 11:54:26 GMT-0600 (Central Standard Time),677331.3000000119,B,enter,I,enter,601,1,615.9000000059605,676715.400000006,8022,WL,A,15.0
7,2.199000120162964,immed,57800.999879837036,Thu Feb 06 2025 11:54:26 GMT-0600 (Central Standard Time),688077.8000000119,A,t,I,t,2190,1,2199.0,685878.8000000119,8022,WL,A,1.0
7,2.633000135421753,immed,57366.99986457825,Thu Feb 06 2025 11:54:26 GMT-0600 (Central Standard Time),688511.2000000179,A,tr,I,r,422,1,2632.4000000059605,685878.8000000119,8022,WL,A,1.0
7,2.815999984741211,immed,57184.00001525879,Thu Feb 06 2025 11:54:26 GMT-0600 (Central Standard Time),688694.5,A,tra,I,a,172,1,2815.699999988079,685878.8000000119,8022,WL,A,1.0
7,3.0490000247955322,immed,56950.99997520447,Thu Feb 06 2025 11:54:26 GMT-0600 (Central Standard Time),688928.0,A,trai,I,i,213,1,3049.199999988079,685878.8000000119,8022,WL,A,1.0
7,3.199000120162964,immed,56800.999879837036,Thu Feb 06 2025 11:54:26 GMT-0600 (Central Standard Time),689077.7000000179,A,train,I,n,132,1,3198.9000000059605,685878.8000000119,8022,WL,A,1.0
7,3.4660000801086426,immed,56533.99991989136,Thu Feb 06 2025 11:54:26 GMT-0600 (Central Standard Time),689344.3000000119,A,trainenter,I,enter,246,1,3465.5,685878.8000000119,8022,WL,A,1.0
7,3.815000057220459,immed,56184.99994277954,Thu Feb 06 2025 11:54:26 GMT-0600 (Central Standard Time),689694.0,A,m,I,m,340,1,349.40000000596046,689344.599999994,8022,WL,A,2.0
7,3.949000120162964,immed,56050.999879837036,Thu Feb 06 2025 11:54:26 GMT-0600 (Central Standard Time),689827.5,A,me,I,e,118,1,482.90000000596046,689344.599999994,8022,WL,A,2.0
7,4.098999977111816,immed,55901.00002288818,Thu Feb 06 2025 11:54:26 GMT-0600 (Central Standard Time),689977.5,A,mea,I,a,128,1,632.9000000059605,689344.599999994,8022,WL,A,2.0
7,4.266000032424927,immed,55733.99996757507,Thu Feb 06 2025 11:54:26 GMT-0600 (Central Standard Time),690144.2000000179,A,mead,I,d,146,1,799.6000000238419,689344.599999994,8022,WL,A,2.0
7,4.499000072479248,immed,55500.99992752075,Thu Feb 06 2025 11:54:26 GMT-0600 (Central Standard Time),690377.2000000179,A,meado,I,o,220,1,1032.6000000238419,689344.599999994,8022,WL,A,2.0
7,4.5980000495910645,immed,55401.999950408936,Thu Feb 06 2025 11:54:26 GMT-0600 (Central Standard Time),690477.099999994,A,meadow,I,w,90,1,1132.5,689344.599999994,8022,WL,A,2.0
7,4.9150002002716064,immed,55084.99979972839,Thu Feb 06 2025 11:54:26 GMT-0600 (Central Standard Time),690793.900000006,A,meadowenter,I,enter,302,1,1449.300000011921,689344.599999994,8022,WL,A,2.0
7,5.79800009727478,immed,54201.99990272522,Thu Feb 06 2025 11:54:26 GMT-0600 (Central Standard Time),691676.900000006,A,f,I,f,866,1,882.5999999940395,690794.3000000119,8022,WL,A,3.0
7,5.882000207901001,immed,54117.999792099,Thu Feb 06 2025 11:54:26 GMT-0600 (Central Standard Time),691760.099999994,A,fl,I,l,70,1,965.7999999821186,690794.3000000119,8022,WL,A,3.0
7,6.065000057220459,immed,53934.99994277954,Thu Feb 06 2025 11:54:26 GMT-0600 (Central Standard Time),691943.3000000119,A,flo,I,o,171,1,1149.0,690794.3000000119,8022,WL,A,3.0
7,6.1650002002716064,immed,53834.99979972839,Thu Feb 06 2025 11:54:26 GMT-0600 (Central Standard Time),692043.3000000119,A,flow,I,w,92,1,1249.0,690794.3000000119,8022,WL,A,3.0
7,6.365000009536743,immed,53634.99999046326,Thu Feb 06 2025 11:54:26 GMT-0600 (Central Standard Time),692243.400000006,A,flowe,I,e,176,1,1449.0999999940395,690794.3000000119,8022,WL,A,3.0
7,6.5320000648498535,immed,53467.99993515015,Thu Feb 06 2025 11:54:26 GMT-0600 (Central Standard Time),692410.2000000179,A,flower,I,r,144,1,1615.9000000059605,690794.3000000119,8022,WL,A,3.0
7,6.682000160217285,immed,53317.999839782715,Thu Feb 06 2025 11:54:26 GMT-0600 (Central Standard Time),692560.099999994,A,flowerenter,I,enter,137,1,1765.7999999821186,690794.3000000119,8022,WL,A,3.0
7,10.614000082015991,immed,49385.99991798401,Thu Feb 06 2025 11:54:26 GMT-0600 (Central Standard Time),696492.400000006,A,h,I,h,3916,1,3931.9000000059605,692560.5,8022,WL,A,4.0
7,10.746999979019165,immed,49253.000020980835,Thu Feb 06 2025 11:54:26 GMT-0600 (Central Standard Time),696625.5,A,ha,I,a,110,1,4065.0,692560.5,8022,WL,A,4.0
7,10.96399998664856,immed,49036.00001335144,Thu Feb 06 2025 11:54:26 GMT-0600 (Central Standard Time),696842.099999994,A,har,I,r,195,1,4281.5999999940395,692560.5,8022,WL,A,4.0
7,11.163000106811523,immed,48836.99989318848,Thu Feb 06 2025 11:54:26 GMT-0600 (Central Standard Time),697041.900000006,A,harp,I,p,178,1,4481.4000000059605,692560.5,8022,WL,A,4.0
7,11.513000011444092,immed,48486.99998855591,Thu Feb 06 2025 11:54:26 GMT-0600 (Central Standard Time),697391.8000000119,A,harpenter,I,enter,330,1,4831.300000011921,692560.5,8022,WL,A,4.0
7,11.930000066757202,immed,48069.9999332428,Thu Feb 06 2025 11:54:26 GMT-0600 (Central Standard Time),697808.099999994,A,f,I,f,396,1,415.89999997615814,697392.2000000179,8022,WL,A,5.0
7,12.080000162124634,immed,47919.999837875366,Thu Feb 06 2025 11:54:26 GMT-0600 (Central Standard Time),697958.2000000179,A,fi,I,i,140,1,566.0,697392.2000000179,8022,WL,A,5.0
7,12.196000099182129,immed,47803.99990081787,Thu Feb 06 2025 11:54:26 GMT-0600 (Central Standard Time),698075.0,A,fin,I,n,93,1,682.7999999821186,697392.2000000179,8022,WL,A,5.0
7,12.297000169754028,immed,47702.99983024597,Thu Feb 06 2025 11:54:26 GMT-0600 (Central Standard Time),698175.2000000179,A,fing,I,g,89,1,783.0,697392.2000000179,8022,WL,A,5.0
7,12.514000177383423,immed,47485.99982261658,Thu Feb 06 2025 11:54:26 GMT-0600 (Central Standard Time),698392.8000000119,A,finge,I,e,205,1,1000.5999999940395,697392.2000000179,8022,WL,A,5.0
7,12.730000019073486,immed,47269.999980926514,Thu Feb 06 2025 11:54:26 GMT-0600 (Central Standard Time),698608.099999994,A,finger,I,r,195,1,1215.8999999761581,697392.2000000179,8022,WL,A,5.0
7,12.963000059127808,immed,47036.99994087219,Thu Feb 06 2025 11:54:26 GMT-0600 (Central Standard Time),698841.3000000119,A,fingerenter,I,enter,212,1,1449.0999999940395,697392.2000000179,8022,WL,A,5.0
7,13.44700002670288,immed,46552.99997329712,Thu Feb 06 2025 11:54:26 GMT-0600 (Central Standard Time),699325.599999994,A,l,I,l,475,1,484.0,698841.599999994,8022,WL,A,6.0
7,13.646000146865845,immed,46353.999853134155,Thu Feb 06 2025 11:54:26 GMT-0600 (Central Standard Time),699524.2000000179,A,lo,I,o,190,1,682.6000000238419,698841.599999994,8022,WL,A,6.0
7,13.746000051498413,immed,46253.99994850159,Thu Feb 06 2025 11:54:26 GMT-0600 (Central Standard Time),699624.400000006,A,log,I,g,88,1,782.8000000119209,698841.599999994,8022,WL,A,6.0
7,13.92900013923645,immed,46070.99986076355,Thu Feb 06 2025 11:54:26 GMT-0600 (Central Standard Time),699807.8000000119,A,logenter,I,enter,171,1,966.2000000178814,698841.599999994,8022,WL,A,6.0
7,14.312000036239624,immed,45687.999963760376,Thu Feb 06 2025 11:54:26 GMT-0600 (Central Standard Time),700191.0,A,b,I,b,372,1,382.7999999821186,699808.2000000179,8022,WL,A,7.0
7,14.51200008392334,immed,45487.99991607666,Thu Feb 06 2025 11:54:26 GMT-0600 (Central Standard Time),700390.8000000119,A,bu,I,u,181,1,582.5999999940395,699808.2000000179,8022,WL,A,7.0
7,14.695000171661377,immed,45304.99982833862,Thu Feb 06 2025 11:54:26 GMT-0600 (Central Standard Time),700573.900000006,A,but,I,t,165,1,765.6999999880791,699808.2000000179,8022,WL,A,7.0
7,14.879000186920166,immed,45120.999813079834,Thu Feb 06 2025 11:54:26 GMT-0600 (Central Standard Time),700757.3000000119,A,butt,I,t,174,1,949.0999999940395,699808.2000000179,8022,WL,A,7.0
7,14.979000091552734,immed,45020.999908447266,Thu Feb 06 2025 11:54:26 GMT-0600 (Central Standard Time),700857.099999994,A,butto,I,o,86,1,1048.8999999761581,699808.2000000179,8022,WL,A,7.0
7,15.111999988555908,immed,44888.00001144409,Thu Feb 06 2025 11:54:26 GMT-0600 (Central Standard Time),700990.599999994,A,button,I,n,123,1,1182.3999999761581,699808.2000000179,8022,WL,A,7.0
7,15.442000150680542,immed,44557.99984931946,Thu Feb 06 2025 11:54:26 GMT-0600 (Central Standard Time),701320.8000000119,A,buttonenter,I,enter,322,1,1512.5999999940395,699808.2000000179,8022,WL,A,7.0
7,17.59500002861023,immed,42404.99997138977,Thu Feb 06 2025 11:54:26 GMT-0600 (Central Standard Time),703473.2000000179,A,f,I,f,2138,1,2152.0,701321.2000000179,8022,WL,A,8.0
7,17.695000171661377,immed,42304.99982833862,Thu Feb 06 2025 11:54:26 GMT-0600 (Central Standard Time),703573.0,A,fi,I,i,82,1,2251.7999999821186,701321.2000000179,8022,WL,A,8.0
7,17.794000148773193,immed,42205.99985122681,Thu Feb 06 2025 11:54:26 GMT-0600 (Central Standard Time),703673.0,A,fin,I,n,86,1,2351.7999999821186,701321.2000000179,8022,WL,A,8.0
7,17.91100001335144,immed,42088.99998664856,Thu Feb 06 2025 11:54:26 GMT-0600 (Central Standard Time),703789.900000006,A,fing,I,g,107,1,2468.699999988079,701321.2000000179,8022,WL,A,8.0
7,18.128000020980835,immed,41871.999979019165,Thu Feb 06 2025 11:54:26 GMT-0600 (Central Standard Time),704006.400000006,A,finge,I,e,198,1,2685.199999988079,701321.2000000179,8022,WL,A,8.0
7,18.1780002117157,immed,41821.9997882843,Thu Feb 06 2025 11:54:26 GMT-0600 (Central Standard Time),704056.2000000179,A,finger,I,r,37,1,2735.0,701321.2000000179,8022,WL,A,8.0
7,20.427000045776367,immed,39572.99995422363,Thu Feb 06 2025 11:54:26 GMT-0600 (Central Standard Time),706305.599999994,A,fingerenter,I,enter,2236,1,4984.399999976158,701321.2000000179,8022,WL,A,8.0
7,21.127000093460083,immed,38872.99990653992,Thu Feb 06 2025 11:54:26 GMT-0600 (Central Standard Time),707005.400000006,A,g,I,g,683,1,699.4000000059605,706306.0,8022,WL,A,9.0
7,21.210000038146973,immed,38789.99996185303,Thu Feb 06 2025 11:54:26 GMT-0600 (Central Standard Time),707088.599999994,A,go,I,o,62,1,782.5999999940395,706306.0,8022,WL,A,9.0
7,21.41000008583069,immed,38589.99991416931,Thu Feb 06 2025 11:54:26 GMT-0600 (Central Standard Time),707288.599999994,A,gol,I,l,179,1,982.5999999940395,706306.0,8022,WL,A,9.0
7,21.47699999809265,immed,38523.00000190735,Thu Feb 06 2025 11:54:26 GMT-0600 (Central Standard Time),707355.2000000179,A,gold,I,d,59,1,1049.2000000178814,706306.0,8022,WL,A,9.0
7,21.66000008583069,immed,38339.99991416931,Thu Feb 06 2025 11:54:26 GMT-0600 (Central Standard Time),707538.599999994,A,goldenter,I,enter,161,1,1232.5999999940395,706306.0,8022,WL,A,9.0
7,21.89300012588501,immed,38106.99987411499,Thu Feb 06 2025 11:54:26 GMT-0600 (Central Standard Time),707771.8000000119,A,k,I,k,217,1,232.90000000596046,707538.900000006,8022,WL,A,10.0
7,22.042999982833862,immed,37957.00001716614,Thu Feb 06 2025 11:54:26 GMT-0600 (Central Standard Time),707921.900000006,A,ke,I,e,128,1,383.0,707538.900000006,8022,WL,A,10.0
7,22.16000008583069,immed,37839.99991416931,Thu Feb 06 2025 11:54:26 GMT-0600 (Central Standard Time),708038.400000006,A,key,I,y,98,1,499.5,707538.900000006,8022,WL,A,10.0
7,22.4760000705719,immed,37523.9999294281,Thu Feb 06 2025 11:54:26 GMT-0600 (Central Standard Time),708355.0,A,keyenter,I,enter,293,1,816.0999999940395,707538.900000006,8022,WL,A,10.0
7,22.9760000705719,immed,37023.9999294281,Thu Feb 06 2025 11:54:26 GMT-0600 (Central Standard Time),708854.8000000119,A,r,I,r,481,1,499.5,708355.3000000119,8022,WL,A,11.0
7,23.12600016593933,immed,36873.99983406067,Thu Feb 06 2025 11:54:26 GMT-0600 (Central Standard Time),709004.7000000179,A,ra,I,a,140,1,649.4000000059605,708355.3000000119,8022,WL,A,11.0
7,23.2260000705719,immed,36773.9999294281,Thu Feb 06 2025 11:54:26 GMT-0600 (Central Standard Time),709104.900000006,A,rat,I,t,87,1,749.5999999940395,708355.3000000119,8022,WL,A,11.0
7,23.443000078201294,immed,36556.999921798706,Thu Feb 06 2025 11:54:26 GMT-0600 (Central Standard Time),709321.400000006,A,ratt,I,t,203,1,966.0999999940395,708355.3000000119,8022,WL,A,11.0
7,23.56000018119812,immed,36439.99981880188,Thu Feb 06 2025 11:54:26 GMT-0600 (Central Standard Time),709438.099999994,A,rattl,I,l,99,1,1082.7999999821186,708355.3000000119,8022,WL,A,11.0
7,23.676000118255615,immed,36323.999881744385,Thu Feb 06 2025 11:54:26 GMT-0600 (Central Standard Time),709554.599999994,A,rattle,I,e,94,1,1199.2999999821186,708355.3000000119,8022,WL,A,11.0
7,23.81000018119812,immed,36189.99981880188,Thu Feb 06 2025 11:54:26 GMT-0600 (Central Standard Time),709688.400000006,A,rattleenter,I,enter,121,1,1333.0999999940395,708355.3000000119,8022,WL,A,11.0
7,25.77500009536743,immed,34224.99990463257,Thu Feb 06 2025 11:54:26 GMT-0600 (Central Standard Time),711653.900000006,A,c,I,c,1956,1,1965.199999988079,709688.7000000179,8022,WL,A,12.0
7,25.859000205993652,immed,34140.99979400635,Thu Feb 06 2025 11:54:26 GMT-0600 (Central Standard Time),711737.2000000179,A,ch,I,h,70,1,2048.5,709688.7000000179,8022,WL,A,12.0
7,25.95900011062622,immed,34040.99988937378,Thu Feb 06 2025 11:54:26 GMT-0600 (Central Standard Time),711837.3000000119,A,chi,I,i,90,1,2148.5999999940395,709688.7000000179,8022,WL,A,12.0
7,26.109000205993652,immed,33890.99979400635,Thu Feb 06 2025 11:54:26 GMT-0600 (Central Standard Time),711987.2000000179,A,chim,I,m,142,1,2298.5,709688.7000000179,8022,WL,A,12.0
7,26.425000190734863,immed,33574.99980926514,Thu Feb 06 2025 11:54:26 GMT-0600 (Central Standard Time),712303.900000006,A,chimn,I,n,297,1,2615.199999988079,709688.7000000179,8022,WL,A,12.0
7,26.592000007629395,immed,33407.999992370605,Thu Feb 06 2025 11:54:26 GMT-0600 (Central Standard Time),712470.400000006,A,chimne,I,e,156,1,2781.699999988079,709688.7000000179,8022,WL,A,12.0
7,26.725000143051147,immed,33274.99985694885,Thu Feb 06 2025 11:54:26 GMT-0600 (Central Standard Time),712603.599999994,A,chimney,I,y,111,1,2914.899999976158,709688.7000000179,8022,WL,A,12.0
7,27.475000143051147,immed,32524.999856948853,Thu Feb 06 2025 11:54:26 GMT-0600 (Central Standard Time),713353.5,A,chimneyenter,I,enter,735,1,3664.7999999821186,709688.7000000179,8022,WL,A,12.0
7,28.891000032424927,immed,31108.999967575073,Thu Feb 06 2025 11:54:26 GMT-0600 (Central Standard Time),714769.599999994,A,enter,I,enter,1402,1,1415.7999999821186,713353.8000000119,8022,WL,A,13.0
7,29.223999977111816,immed,30776.000022888184,Thu Feb 06 2025 11:54:26 GMT-0600 (Central Standard Time),715103.0,A,enter,I,enter,314,1,333.0,714770.0,8022,WL,A,14.0
7,29.491000175476074,immed,30508.999824523926,Thu Feb 06 2025 11:54:26 GMT-0600 (Central Standard Time),715369.5,A,enter,I,enter,253,1,266.19999998807907,715103.3000000119,8022,WL,A,15.0
