acc_sum,block,block_c,change,condition,correct,correct_response,datetime,endtime,face,project,response,response_time,row_sel,session_number,start_end,starttime,subject_id,task,task_vers,trial
0,prac,1,,1-Back,,,Tue Oct 01 2024 15:58:39 GMT-0500 (Central Daylight Time),,012_o_f_d_a.png,O,space,13086,1,1,,,7022,VNB,C,0
0,prac,1,0.0,1-Back,0,m,Tue Oct 01 2024 15:58:39 GMT-0500 (Central Daylight Time),157801.30000007153,022_y_f_n_a.png,O,z,1149,2,1,2089.4000000953674,155711.89999997616,7022,VNB,C,1
1,prac,1,0.0,1-Back,1,m,Tue Oct 01 2024 15:58:39 GMT-0500 (Central Daylight Time),160533.89999997616,014_m_m_h_a.png,O,m,1785,3,1,2696.0,157837.89999997616,7022,VNB,C,2
2,prac,1,0.0,1-Back,1,m,Tue Oct 01 2024 15:58:39 GMT-0500 (Central Daylight Time),162766.20000004768,025_y_m_d_a.png,O,m,1242,4,1,2141.2000000476837,160625.0,7022,VNB,C,3
3,prac,1,0.0,1-Back,1,m,Tue Oct 01 2024 15:58:39 GMT-0500 (Central Daylight Time),164998.20000004768,012_o_f_n_a.png,O,m,1283,5,1,2205.0,162793.20000004768,7022,VNB,C,4
4,prac,1,1.0,1-Back,1,z,Tue Oct 01 2024 15:58:39 GMT-0500 (Central Daylight Time),167214.10000002384,025_y_m_n_a.png,O,z,1302,6,1,2202.899999976158,165011.20000004768,7022,VNB,C,5
5,prac,1,0.0,1-Back,1,m,Tue Oct 01 2024 15:58:39 GMT-0500 (Central Daylight Time),169380.70000004768,015_o_m_h_a.png,O,m,1234,7,1,2155.899999976158,167224.80000007153,7022,VNB,C,6
5,prac,1,0.0,1-Back,0,m,Tue Oct 01 2024 15:58:39 GMT-0500 (Central Daylight Time),171663.10000002384,019_m_f_d_a.png,O,z,1312,8,1,2246.100000023842,169417.0,7022,VNB,C,7
6,prac,1,1.0,1-Back,1,z,Tue Oct 01 2024 15:58:39 GMT-0500 (Central Daylight Time),174512.5,022_y_f_d_a.png,O,z,1897,9,1,2829.899999976158,171682.60000002384,7022,VNB,C,8
7,prac,1,0.0,1-Back,1,m,Tue Oct 01 2024 15:58:39 GMT-0500 (Central Daylight Time),176878.30000007153,014_m_m_n_a.png,O,m,1425,10,1,2330.100000023842,174548.20000004768,7022,VNB,C,9
8,prac,1,0.0,1-Back,1,m,Tue Oct 01 2024 15:58:39 GMT-0500 (Central Daylight Time),179227.5,012_o_f_h_a.png,O,m,1336,11,1,2248.899999976158,176978.60000002384,7022,VNB,C,10
8,prac,1,0.0,1-Back,0,m,Tue Oct 01 2024 15:58:39 GMT-0500 (Central Daylight Time),181460.30000007153,025_y_m_d_a.png,O,z,1253,12,1,2143.3000000715256,179317.0,7022,VNB,C,11
0,test,1,0.0,1-Back,,,Tue Oct 01 2024 15:58:39 GMT-0500 (Central Daylight Time),181460.30000007153,022_y_f_d_a.png,O,space,10856,1,1,2143.3000000715256,179317.0,7022,VNB,C,0
1,test,1,0.0,1-Back,1,m,Tue Oct 01 2024 15:58:39 GMT-0500 (Central Daylight Time),206035.39999997616,019_m_f_n_a.png,O,m,1308,2,1,2329.399999976158,203706.0,7022,VNB,C,1
2,test,1,0.0,1-Back,1,m,Tue Oct 01 2024 15:58:39 GMT-0500 (Central Daylight Time),208467.89999997616,015_o_m_h_a.png,O,m,1391,3,1,2406.7999999523163,206061.10000002384,7022,VNB,C,2
3,test,1,1.0,1-Back,1,z,Tue Oct 01 2024 15:58:39 GMT-0500 (Central Daylight Time),210633.89999997616,014_m_m_h_a.png,O,z,1118,4,1,2138.899999976158,208495.0,7022,VNB,C,3
4,test,1,0.0,1-Back,1,m,Tue Oct 01 2024 15:58:39 GMT-0500 (Central Daylight Time),213099.60000002384,012_o_f_n_a.png,O,m,1424,5,1,2437.899999976158,210661.70000004768,7022,VNB,C,4
5,test,1,0.0,1-Back,1,m,Tue Oct 01 2024 15:58:39 GMT-0500 (Central Daylight Time),215865.39999997616,025_y_m_d_a.png,O,m,1652,6,1,2738.7999999523163,213126.60000002384,7022,VNB,C,5
6,test,1,1.0,1-Back,1,z,Tue Oct 01 2024 15:58:39 GMT-0500 (Central Daylight Time),218281.10000002384,019_m_f_d_a.png,O,z,1377,7,1,2392.7000000476837,215888.39999997616,7022,VNB,C,6
7,test,1,0.0,1-Back,1,m,Tue Oct 01 2024 15:58:39 GMT-0500 (Central Daylight Time),220680.5,022_y_f_h_a.png,O,m,1253,8,1,2282.2999999523163,218398.20000004768,7022,VNB,C,7
8,test,1,0.0,1-Back,1,m,Tue Oct 01 2024 15:58:39 GMT-0500 (Central Daylight Time),223129.70000004768,015_o_m_n_a.png,O,m,1409,9,1,2426.7000000476837,220703.0,7022,VNB,C,8
9,test,1,0.0,1-Back,1,m,Tue Oct 01 2024 15:58:39 GMT-0500 (Central Daylight Time),225612.10000002384,025_y_m_h_a.png,O,m,1383,10,1,2459.899999976158,223152.20000004768,7022,VNB,C,9
10,test,1,0.0,1-Back,1,m,Tue Oct 01 2024 15:58:39 GMT-0500 (Central Daylight Time),228228.0,015_o_m_d_a.png,O,m,1508,11,1,2590.1999999284744,225637.80000007153,7022,VNB,C,10
11,test,1,1.0,1-Back,1,z,Tue Oct 01 2024 15:58:39 GMT-0500 (Central Daylight Time),230493.89999997616,012_o_f_d_a.png,O,z,1180,12,1,2241.1999999284744,228252.70000004768,7022,VNB,C,11
12,test,1,0.0,1-Back,1,m,Tue Oct 01 2024 15:58:39 GMT-0500 (Central Daylight Time),232893.10000002384,014_m_m_n_a.png,O,m,1290,13,1,2309.2000000476837,230583.89999997616,7022,VNB,C,12
13,test,1,1.0,1-Back,1,z,Tue Oct 01 2024 15:58:39 GMT-0500 (Central Daylight Time),235258.30000007153,022_y_f_n_a.png,O,z,1257,14,1,2335.9000000953674,232922.39999997616,7022,VNB,C,13
14,test,1,0.0,1-Back,1,m,Tue Oct 01 2024 15:58:39 GMT-0500 (Central Daylight Time),237441.5,019_m_f_h_a.png,O,m,1152,15,1,2178.6999999284744,235262.80000007153,7022,VNB,C,14
14,test,1,0.0,1-Back,0,m,Tue Oct 01 2024 15:58:39 GMT-0500 (Central Daylight Time),239890.70000004768,014_m_m_d_a.png,O,z,1317,16,1,2426.600000023842,237464.10000002384,7022,VNB,C,15
15,test,1,0.0,1-Back,1,m,Tue Oct 01 2024 15:58:39 GMT-0500 (Central Daylight Time),242306.60000002384,025_y_m_n_a.png,O,m,1325,17,1,2392.7000000476837,239913.89999997616,7022,VNB,C,16
16,test,1,0.0,1-Back,1,m,Tue Oct 01 2024 15:58:39 GMT-0500 (Central Daylight Time),244939.0,012_o_f_h_a.png,O,m,1525,18,1,2609.100000023842,242329.89999997616,7022,VNB,C,17
0,test,2,0.0,1-Back,,,Tue Oct 01 2024 15:58:39 GMT-0500 (Central Daylight Time),244939.0,025_y_m_n_a.png,O,space,1671,1,1,2609.100000023842,242329.89999997616,7022,VNB,C,0
1,test,2,0.0,1-Back,1,m,Tue Oct 01 2024 15:58:39 GMT-0500 (Central Daylight Time),251487.0,022_y_f_h_a.png,O,m,1588,2,1,2688.100000023842,248798.89999997616,7022,VNB,C,1
2,test,2,1.0,1-Back,1,m,Tue Oct 01 2024 15:58:39 GMT-0500 (Central Daylight Time),253853.0,015_o_m_n_a.png,O,m,1265,3,1,2337.2999999523163,251515.70000004768,7022,VNB,C,2
3,test,2,0.0,1-Back,1,m,Tue Oct 01 2024 15:58:39 GMT-0500 (Central Daylight Time),256385.39999997616,019_m_f_d_a.png,O,m,1444,4,1,2512.5999999046326,253872.80000007153,7022,VNB,C,3
4,test,2,0.0,1-Back,1,z,Tue Oct 01 2024 15:58:39 GMT-0500 (Central Daylight Time),258784.5,014_m_m_d_a.png,O,z,1286,5,1,2371.899999976158,256412.60000002384,7022,VNB,C,4
5,test,2,0.0,1-Back,1,m,Tue Oct 01 2024 15:58:39 GMT-0500 (Central Daylight Time),261233.89999997616,025_y_m_h_a.png,O,m,1344,6,1,2360.6999999284744,258873.20000004768,7022,VNB,C,5
6,test,2,1.0,1-Back,1,z,Tue Oct 01 2024 15:58:39 GMT-0500 (Central Daylight Time),264082.7000000477,012_o_f_h_a.png,O,z,1734,7,1,2822.399999976158,261260.30000007153,7022,VNB,C,6
7,test,2,0.0,1-Back,1,m,Tue Oct 01 2024 15:58:39 GMT-0500 (Central Daylight Time),266282.2000000477,019_m_f_n_a.png,O,m,1093,8,1,2110.2000000476837,264172.0,7022,VNB,C,7
8,test,2,0.0,1-Back,1,m,Tue Oct 01 2024 15:58:39 GMT-0500 (Central Daylight Time),268897.89999997616,022_y_f_d_a.png,O,m,1527,9,1,2592.0999999046326,266305.8000000715,7022,VNB,C,8
9,test,2,0.0,1-Back,1,m,Tue Oct 01 2024 15:58:39 GMT-0500 (Central Daylight Time),271329.8000000715,014_m_m_n_a.png,O,m,1341,10,1,2408.9000000953674,268920.89999997616,7022,VNB,C,9
10,test,2,1.0,1-Back,1,m,Tue Oct 01 2024 15:58:39 GMT-0500 (Central Daylight Time),273829.60000002384,019_m_f_h_a.png,O,m,1473,11,1,2494.100000023842,271335.5,7022,VNB,C,10
11,test,2,0.0,1-Back,1,z,Tue Oct 01 2024 15:58:39 GMT-0500 (Central Daylight Time),276228.89999997616,015_o_m_h_a.png,O,z,1290,12,1,2371.399999976158,273857.5,7022,VNB,C,11
12,test,2,0.0,1-Back,1,m,Tue Oct 01 2024 15:58:39 GMT-0500 (Central Daylight Time),278561.39999997616,025_y_m_d_a.png,O,m,1285,13,1,2313.0999999046326,276248.3000000715,7022,VNB,C,12
13,test,2,0.0,1-Back,1,m,Tue Oct 01 2024 15:58:39 GMT-0500 (Central Daylight Time),281127.5,012_o_f_n_a.png,O,m,1454,14,1,2539.899999976158,278587.60000002384,7022,VNB,C,13
14,test,2,0.0,1-Back,1,z,Tue Oct 01 2024 15:58:39 GMT-0500 (Central Daylight Time),283559.8000000715,022_y_f_n_a.png,O,z,1321,15,1,2405.600000023842,281154.2000000477,7022,VNB,C,14
15,test,2,1.0,1-Back,1,m,Tue Oct 01 2024 15:58:39 GMT-0500 (Central Daylight Time),286025.8000000715,014_m_m_h_a.png,O,m,1369,16,1,2440.100000023842,283585.7000000477,7022,VNB,C,15
16,test,2,0.0,1-Back,1,m,Tue Oct 01 2024 15:58:39 GMT-0500 (Central Daylight Time),288424.89999997616,012_o_f_d_a.png,O,m,1303,17,1,2377.5,286047.39999997616,7022,VNB,C,16
17,test,2,1.0,1-Back,1,z,Tue Oct 01 2024 15:58:39 GMT-0500 (Central Daylight Time),290790.8000000715,015_o_m_d_a.png,O,z,1271,18,1,2287.8000000715256,288503.0,7022,VNB,C,17
0,test,3,1.0,1-Back,,,Tue Oct 01 2024 15:58:39 GMT-0500 (Central Daylight Time),290790.8000000715,012_o_f_h_a.png,O,space,1667,1,1,2287.8000000715256,288503.0,7022,VNB,C,0
1,test,3,0.0,1-Back,1,m,Tue Oct 01 2024 15:58:39 GMT-0500 (Central Daylight Time),296788.10000002384,019_m_f_d_a.png,O,m,1114,2,1,2127.2999999523163,294660.8000000715,7022,VNB,C,1
2,test,3,1.0,1-Back,1,m,Tue Oct 01 2024 15:58:39 GMT-0500 (Central Daylight Time),299054.7000000477,014_m_m_n_a.png,O,m,1247,3,1,2260.2000000476837,296794.5,7022,VNB,C,2
3,test,3,0.0,1-Back,1,z,Tue Oct 01 2024 15:58:39 GMT-0500 (Central Daylight Time),301303.89999997616,012_o_f_n_a.png,O,z,1128,4,1,2149.7999999523163,299154.10000002384,7022,VNB,C,3
4,test,3,1.0,1-Back,1,m,Tue Oct 01 2024 15:58:39 GMT-0500 (Central Daylight Time),303686.0,015_o_m_d_a.png,O,m,1247,5,1,2354.7999999523163,301331.2000000477,7022,VNB,C,4
5,test,3,0.0,1-Back,1,m,Tue Oct 01 2024 15:58:39 GMT-0500 (Central Daylight Time),306152.3000000715,022_y_f_h_a.png,O,m,1386,6,1,2455.5,303696.8000000715,7022,VNB,C,5
6,test,3,0.0,1-Back,1,z,Tue Oct 01 2024 15:58:39 GMT-0500 (Central Daylight Time),308267.89999997616,025_y_m_h_a.png,O,z,1023,7,1,2092.1999999284744,306175.7000000477,7022,VNB,C,6
7,test,3,0.0,1-Back,1,m,Tue Oct 01 2024 15:58:39 GMT-0500 (Central Daylight Time),310467.5,019_m_f_n_a.png,O,m,1107,8,1,2184.0,308283.5,7022,VNB,C,7
8,test,3,0.0,1-Back,1,m,Tue Oct 01 2024 15:58:39 GMT-0500 (Central Daylight Time),312749.89999997616,022_y_f_d_a.png,O,m,1239,9,1,2258.899999976158,310491.0,7022,VNB,C,8
9,test,3,1.0,1-Back,1,m,Tue Oct 01 2024 15:58:39 GMT-0500 (Central Daylight Time),315082.89999997616,015_o_m_n_a.png,O,m,1235,10,1,2307.0,312775.89999997616,7022,VNB,C,9
10,test,3,0.0,1-Back,1,m,Tue Oct 01 2024 15:58:39 GMT-0500 (Central Daylight Time),317415.39999997616,014_m_m_h_a.png,O,m,1230,11,1,2244.0,315171.39999997616,7022,VNB,C,10
11,test,3,0.0,1-Back,1,z,Tue Oct 01 2024 15:58:39 GMT-0500 (Central Daylight Time),319731.5,019_m_f_h_a.png,O,z,1200,12,1,2287.0,317444.5,7022,VNB,C,11
12,test,3,1.0,1-Back,1,m,Tue Oct 01 2024 15:58:39 GMT-0500 (Central Daylight Time),321813.89999997616,012_o_f_d_a.png,O,m,1039,13,1,2053.7999999523163,319760.10000002384,7022,VNB,C,12
13,test,3,0.0,1-Back,1,z,Tue Oct 01 2024 15:58:39 GMT-0500 (Central Daylight Time),324129.7000000477,014_m_m_d_a.png,O,z,1202,14,1,2231.8000000715256,321897.89999997616,7022,VNB,C,13
14,test,3,0.0,1-Back,1,m,Tue Oct 01 2024 15:58:39 GMT-0500 (Central Daylight Time),326362.3000000715,025_y_m_n_a.png,O,m,1184,15,1,2207.600000023842,324154.7000000477,7022,VNB,C,14
15,test,3,1.0,1-Back,1,m,Tue Oct 01 2024 15:58:39 GMT-0500 (Central Daylight Time),328611.60000002384,015_o_m_h_a.png,O,m,1133,16,1,2221.7000000476837,326389.89999997616,7022,VNB,C,15
16,test,3,0.0,1-Back,1,m,Tue Oct 01 2024 15:58:39 GMT-0500 (Central Daylight Time),330993.5,025_y_m_d_a.png,O,m,1275,17,1,2293.1999999284744,328700.3000000715,7022,VNB,C,16
17,test,3,1.0,1-Back,1,m,Tue Oct 01 2024 15:58:39 GMT-0500 (Central Daylight Time),333276.8000000715,022_y_f_n_a.png,O,m,1257,18,1,2278.7000000476837,330998.10000002384,7022,VNB,C,17
0,test,4,1.0,1-Back,,,Tue Oct 01 2024 15:58:39 GMT-0500 (Central Daylight Time),333276.8000000715,014_m_m_d_a.png,O,space,1550,1,1,2278.7000000476837,330998.10000002384,7022,VNB,C,0
1,test,4,0.0,1-Back,1,z,Tue Oct 01 2024 15:58:39 GMT-0500 (Central Daylight Time),339275.0,015_o_m_d_a.png,O,z,1376,2,1,2389.7999999523163,336885.2000000477,7022,VNB,C,1
2,test,4,0.0,1-Back,1,m,Tue Oct 01 2024 15:58:39 GMT-0500 (Central Daylight Time),341523.5,025_y_m_h_a.png,O,m,1131,3,1,2223.6999999284744,339299.8000000715,7022,VNB,C,2
3,test,4,0.0,1-Back,1,m,Tue Oct 01 2024 15:58:39 GMT-0500 (Central Daylight Time),343839.89999997616,019_m_f_n_a.png,O,m,1245,4,1,2302.0,341537.89999997616,7022,VNB,C,3
4,test,4,1.0,1-Back,1,m,Tue Oct 01 2024 15:58:39 GMT-0500 (Central Daylight Time),346305.89999997616,012_o_f_h_a.png,O,m,1360,5,1,2438.399999976158,343867.5,7022,VNB,C,4
5,test,4,0.0,1-Back,1,m,Tue Oct 01 2024 15:58:39 GMT-0500 (Central Daylight Time),348671.7000000477,014_m_m_n_a.png,O,m,1320,6,1,2341.0,346330.7000000477,7022,VNB,C,5
6,test,4,0.0,1-Back,1,m,Tue Oct 01 2024 15:58:39 GMT-0500 (Central Daylight Time),351121.10000002384,025_y_m_d_a.png,O,m,1352,7,1,2426.399999976158,348694.7000000477,7022,VNB,C,6
7,test,4,1.0,1-Back,1,z,Tue Oct 01 2024 15:58:39 GMT-0500 (Central Daylight Time),353387.10000002384,022_y_f_d_a.png,O,z,1176,8,1,2240.7999999523163,351146.3000000715,7022,VNB,C,7
8,test,4,0.0,1-Back,1,m,Tue Oct 01 2024 15:58:39 GMT-0500 (Central Daylight Time),355586.2000000477,019_m_f_h_a.png,O,m,1092,9,1,2108.2000000476837,353478.0,7022,VNB,C,8
9,test,4,0.0,1-Back,1,z,Tue Oct 01 2024 15:58:39 GMT-0500 (Central Daylight Time),357785.39999997616,015_o_m_h_a.png,O,z,1093,10,1,2171.5,355613.89999997616,7022,VNB,C,9
10,test,4,1.0,1-Back,1,m,Tue Oct 01 2024 15:58:39 GMT-0500 (Central Daylight Time),360151.3000000715,012_o_f_n_a.png,O,m,1329,11,1,2340.3000000715256,357811.0,7022,VNB,C,10
11,test,4,0.0,1-Back,1,m,Tue Oct 01 2024 15:58:39 GMT-0500 (Central Daylight Time),362433.8000000715,019_m_f_d_a.png,O,m,1185,12,1,2257.9000000953674,360175.89999997616,7022,VNB,C,11
12,test,4,0.0,1-Back,1,m,Tue Oct 01 2024 15:58:39 GMT-0500 (Central Daylight Time),364766.5,022_y_f_n_a.png,O,m,1239,13,1,2308.899999976158,362457.60000002384,7022,VNB,C,12
13,test,4,0.0,1-Back,1,m,Tue Oct 01 2024 15:58:39 GMT-0500 (Central Daylight Time),367115.3000000715,012_o_f_d_a.png,O,m,1240,14,1,2263.0,364852.3000000715,7022,VNB,C,13
14,test,4,0.0,1-Back,1,m,Tue Oct 01 2024 15:58:39 GMT-0500 (Central Daylight Time),369415.0,022_y_f_h_a.png,O,m,1263,15,1,2283.1999999284744,367131.8000000715,7022,VNB,C,14
15,test,4,1.0,1-Back,1,z,Tue Oct 01 2024 15:58:39 GMT-0500 (Central Daylight Time),371681.0,014_m_m_h_a.png,O,z,1161,16,1,2236.7999999523163,369444.2000000477,7022,VNB,C,15
16,test,4,0.0,1-Back,1,m,Tue Oct 01 2024 15:58:39 GMT-0500 (Central Daylight Time),374130.3000000715,015_o_m_n_a.png,O,m,1310,17,1,2324.100000023842,371806.2000000477,7022,VNB,C,16
17,test,4,1.0,1-Back,1,z,Tue Oct 01 2024 15:58:39 GMT-0500 (Central Daylight Time),376496.2000000477,025_y_m_n_a.png,O,z,1270,18,1,2340.100000023842,374156.10000002384,7022,VNB,C,17
0,test,5,1.0,1-Back,,,Tue Oct 01 2024 15:58:39 GMT-0500 (Central Daylight Time),376496.2000000477,015_o_m_n_a.png,O,space,1482,1,1,2340.100000023842,374156.10000002384,7022,VNB,C,0
1,test,5,1.0,1-Back,1,m,Tue Oct 01 2024 15:58:39 GMT-0500 (Central Daylight Time),382076.8000000715,012_o_f_h_a.png,O,m,1047,2,1,2060.4000000953674,380016.39999997616,7022,VNB,C,1
2,test,5,0.0,1-Back,1,m,Tue Oct 01 2024 15:58:39 GMT-0500 (Central Daylight Time),384076.8000000715,025_y_m_d_a.png,O,m,974,3,1,1994.8000000715256,382082.0,7022,VNB,C,2
3,test,5,0.0,1-Back,1,z,Tue Oct 01 2024 15:58:39 GMT-0500 (Central Daylight Time),386259.3000000715,015_o_m_d_a.png,O,z,1134,4,1,2155.7000000476837,384103.60000002384,7022,VNB,C,3
4,test,5,0.0,1-Back,1,m,Tue Oct 01 2024 15:58:39 GMT-0500 (Central Daylight Time),388358.5,019_m_f_h_a.png,O,m,1007,5,1,2077.2999999523163,386281.2000000477,7022,VNB,C,4
5,test,5,0.0,1-Back,1,m,Tue Oct 01 2024 15:58:39 GMT-0500 (Central Daylight Time),390574.2000000477,022_y_f_n_a.png,O,m,1120,6,1,2198.2000000476837,388376.0,7022,VNB,C,5
6,test,5,1.0,1-Back,1,z,Tue Oct 01 2024 15:58:39 GMT-0500 (Central Daylight Time),392640.89999997616,012_o_f_n_a.png,O,z,1036,7,1,2059.2999999523163,390581.60000002384,7022,VNB,C,6
7,test,5,0.0,1-Back,1,m,Tue Oct 01 2024 15:58:39 GMT-0500 (Central Daylight Time),394773.3000000715,019_m_f_d_a.png,O,m,1090,8,1,2116.0,392657.3000000715,7022,VNB,C,7
8,test,5,0.0,1-Back,1,m,Tue Oct 01 2024 15:58:39 GMT-0500 (Central Daylight Time),397105.3000000715,025_y_m_h_a.png,O,m,1217,9,1,2252.7000000476837,394852.60000002384,7022,VNB,C,8
9,test,5,0.0,1-Back,1,m,Tue Oct 01 2024 15:58:39 GMT-0500 (Central Daylight Time),399588.39999997616,022_y_f_d_a.png,O,m,1449,10,1,2476.7999999523163,397111.60000002384,7022,VNB,C,9
10,test,5,0.0,1-Back,1,m,Tue Oct 01 2024 15:58:39 GMT-0500 (Central Daylight Time),401804.8000000715,014_m_m_n_a.png,O,m,1116,11,1,2125.8000000715256,399679.0,7022,VNB,C,10
11,test,5,1.0,1-Back,1,z,Tue Oct 01 2024 15:58:39 GMT-0500 (Central Daylight Time),403936.89999997616,019_m_f_n_a.png,O,z,1019,12,1,2104.399999976158,401832.5,7022,VNB,C,11
12,test,5,0.0,1-Back,1,m,Tue Oct 01 2024 15:58:39 GMT-0500 (Central Daylight Time),406253.0,015_o_m_h_a.png,O,m,1207,13,1,2288.600000023842,403964.39999997616,7022,VNB,C,12
13,test,5,0.0,1-Back,1,z,Tue Oct 01 2024 15:58:39 GMT-0500 (Central Daylight Time),408352.2000000477,014_m_m_h_a.png,O,z,1056,14,1,2074.2000000476837,406278.0,7022,VNB,C,13
14,test,5,1.0,1-Back,1,m,Tue Oct 01 2024 15:58:39 GMT-0500 (Central Daylight Time),410584.39999997616,012_o_f_d_a.png,O,m,1194,15,1,2209.0999999046326,408375.3000000715,7022,VNB,C,14
15,test,5,0.0,1-Back,1,m,Tue Oct 01 2024 15:58:39 GMT-0500 (Central Daylight Time),412717.5,025_y_m_n_a.png,O,m,1106,16,1,2121.6999999284744,410595.8000000715,7022,VNB,C,15
16,test,5,0.0,1-Back,1,m,Tue Oct 01 2024 15:58:39 GMT-0500 (Central Daylight Time),414933.2000000477,022_y_f_h_a.png,O,m,1124,17,1,2193.2000000476837,412740.0,7022,VNB,C,16
17,test,5,0.0,1-Back,1,m,Tue Oct 01 2024 15:58:39 GMT-0500 (Central Daylight Time),417249.2000000477,014_m_m_d_a.png,O,m,1210,18,1,2291.8000000715256,414957.39999997616,7022,VNB,C,17
0,prac,1,0.0,2-Back,,,Tue Oct 01 2024 15:58:39 GMT-0500 (Central Daylight Time),417249.2000000477,019_m_f_n_a.png,O,space,8285,1,1,2291.8000000715256,414957.39999997616,7022,VNB,C,0
0,prac,1,0.0,2-Back,,,Tue Oct 01 2024 15:58:39 GMT-0500 (Central Daylight Time),417249.2000000477,012_o_f_h_a.png,O,space,8285,2,1,2291.8000000715256,414957.39999997616,7022,VNB,C,0
0,prac,1,0.0,2-Back,0,m,Tue Oct 01 2024 15:58:39 GMT-0500 (Central Daylight Time),532911.3999999762,015_o_m_d_a.png,O,None,2012,3,1,3521.0,529390.3999999762,7022,VNB,C,1
1,prac,1,1.0,2-Back,1,z,Tue Oct 01 2024 15:58:39 GMT-0500 (Central Daylight Time),535626.6000000238,014_m_m_h_a.png,O,z,1310,4,1,2533.600000023842,533093.0,7022,VNB,C,2
2,prac,1,0.0,2-Back,1,m,Tue Oct 01 2024 15:58:39 GMT-0500 (Central Daylight Time),537943.1000000238,022_y_f_n_a.png,O,m,1261,5,1,2300.7999999523163,535642.3000000715,7022,VNB,C,3
2,prac,1,1.0,2-Back,0,z,Tue Oct 01 2024 15:58:39 GMT-0500 (Central Daylight Time),540342.1000000238,015_o_m_h_a.png,O,m,1213,6,1,2284.100000023842,538058.0,7022,VNB,C,4
2,prac,1,1.0,2-Back,0,z,Tue Oct 01 2024 15:58:39 GMT-0500 (Central Daylight Time),542991.3000000715,025_y_m_n_a.png,O,m,1410,7,1,2425.0,540566.3000000715,7022,VNB,C,5
3,prac,1,0.0,2-Back,1,m,Tue Oct 01 2024 15:58:39 GMT-0500 (Central Daylight Time),545423.7000000477,019_m_f_d_a.png,O,m,1228,8,1,2332.399999976158,543091.3000000715,7022,VNB,C,6
4,prac,1,0.0,2-Back,1,m,Tue Oct 01 2024 15:58:39 GMT-0500 (Central Daylight Time),548156.3000000715,012_o_f_d_a.png,O,m,1550,9,1,2627.4000000953674,545528.8999999762,7022,VNB,C,7
4,prac,1,0.0,2-Back,0,m,Tue Oct 01 2024 15:58:39 GMT-0500 (Central Daylight Time),550290.8000000715,014_m_m_h_a.png,O,z,1142,10,1,2022.0,548268.8000000715,7022,VNB,C,8
4,prac,1,1.0,2-Back,0,z,Tue Oct 01 2024 15:58:39 GMT-0500 (Central Daylight Time),552671.0,022_y_f_d_a.png,O,m,1157,11,1,2255.399999976158,550415.6000000238,7022,VNB,C,9
5,prac,1,0.0,2-Back,1,m,Tue Oct 01 2024 15:58:39 GMT-0500 (Central Daylight Time),555054.2000000477,015_o_m_n_a.png,O,m,1238,12,1,2361.8000000715256,552692.3999999762,7022,VNB,C,10
0,prac,2,0.0,2-Back,,,Tue Oct 01 2024 15:58:39 GMT-0500 (Central Daylight Time),555054.2000000477,019_m_f_n_a.png,O,a,9810,1,1,2361.8000000715256,552692.3999999762,7022,VNB,C,0
0,prac,2,0.0,2-Back,,,Tue Oct 01 2024 15:58:39 GMT-0500 (Central Daylight Time),555054.2000000477,012_o_f_h_a.png,O,a,9810,2,1,2361.8000000715256,552692.3999999762,7022,VNB,C,0
1,prac,2,0.0,2-Back,1,m,Tue Oct 01 2024 15:58:39 GMT-0500 (Central Daylight Time),572831.5,015_o_m_d_a.png,O,m,1320,3,1,2255.5,570576.0,7022,VNB,C,1
2,prac,2,1.0,2-Back,1,z,Tue Oct 01 2024 15:58:39 GMT-0500 (Central Daylight Time),574897.5,014_m_m_h_a.png,O,z,1130,4,1,2045.6000000238419,572851.8999999762,7022,VNB,C,2
3,prac,2,0.0,2-Back,1,m,Tue Oct 01 2024 15:58:39 GMT-0500 (Central Daylight Time),577079.8000000715,022_y_f_n_a.png,O,m,1176,5,1,2104.8000000715256,574975.0,7022,VNB,C,3
3,prac,2,1.0,2-Back,0,z,Tue Oct 01 2024 15:58:39 GMT-0500 (Central Daylight Time),579479.3000000715,015_o_m_h_a.png,O,m,1444,6,1,2382.4000000953674,577096.8999999762,7022,VNB,C,4
4,prac,2,1.0,2-Back,1,z,Tue Oct 01 2024 15:58:39 GMT-0500 (Central Daylight Time),581812.3000000715,025_y_m_n_a.png,O,z,1405,7,1,2302.9000000953674,579509.3999999762,7022,VNB,C,5
5,prac,2,0.0,2-Back,1,m,Tue Oct 01 2024 15:58:39 GMT-0500 (Central Daylight Time),583961.3999999762,019_m_f_d_a.png,O,m,1101,8,1,2060.6999999284744,581900.7000000477,7022,VNB,C,6
6,prac,2,0.0,2-Back,1,m,Tue Oct 01 2024 15:58:39 GMT-0500 (Central Daylight Time),586560.5,012_o_f_d_a.png,O,m,1602,9,1,2556.7999999523163,584003.7000000477,7022,VNB,C,7
6,prac,2,0.0,2-Back,0,m,Tue Oct 01 2024 15:58:39 GMT-0500 (Central Daylight Time),588859.7000000477,014_m_m_h_a.png,O,z,1363,10,1,2270.0,586589.7000000477,7022,VNB,C,8
6,prac,2,1.0,2-Back,0,z,Tue Oct 01 2024 15:58:39 GMT-0500 (Central Daylight Time),591208.8999999762,022_y_f_d_a.png,O,m,1234,11,1,2164.6999999284744,589044.2000000477,7022,VNB,C,9
7,prac,2,0.0,2-Back,1,m,Tue Oct 01 2024 15:58:39 GMT-0500 (Central Daylight Time),593624.8999999762,015_o_m_n_a.png,O,m,1448,12,1,2386.2999999523163,591238.6000000238,7022,VNB,C,10
0,test,1,0.0,2-Back,,,Tue Oct 01 2024 15:58:39 GMT-0500 (Central Daylight Time),593624.8999999762,025_y_m_h_a.png,O,space,12706,1,1,2386.2999999523163,591238.6000000238,7022,VNB,C,0
0,test,1,0.0,2-Back,,,Tue Oct 01 2024 15:58:39 GMT-0500 (Central Daylight Time),593624.8999999762,012_o_f_n_a.png,O,space,12706,2,1,2386.2999999523163,591238.6000000238,7022,VNB,C,0
1,test,1,0.0,2-Back,1,z,Tue Oct 01 2024 15:58:39 GMT-0500 (Central Daylight Time),628896.6000000238,015_o_m_h_a.png,O,z,1220,3,1,2236.7999999523163,626659.8000000715,7022,VNB,C,1
2,test,1,0.0,2-Back,1,m,Tue Oct 01 2024 15:58:39 GMT-0500 (Central Daylight Time),631262.5,019_m_f_d_a.png,O,m,1265,4,1,2334.600000023842,628927.8999999762,7022,VNB,C,2
3,test,1,1.0,2-Back,1,m,Tue Oct 01 2024 15:58:39 GMT-0500 (Central Daylight Time),634061.6000000238,025_y_m_n_a.png,O,m,1689,5,1,2773.7000000476837,631287.8999999762,7022,VNB,C,3
3,test,1,0.0,2-Back,0,z,Tue Oct 01 2024 15:58:39 GMT-0500 (Central Daylight Time),636943.8000000715,022_y_f_d_a.png,O,m,1829,6,1,2850.8000000715256,634093.0,7022,VNB,C,4
4,test,1,0.0,2-Back,1,m,Tue Oct 01 2024 15:58:39 GMT-0500 (Central Daylight Time),639809.5,014_m_m_h_a.png,O,m,1828,7,1,2838.5,636971.0,7022,VNB,C,5
5,test,1,1.0,2-Back,1,m,Tue Oct 01 2024 15:58:39 GMT-0500 (Central Daylight Time),642308.6000000238,022_y_f_n_a.png,O,m,1383,8,1,2404.0,639904.6000000238,7022,VNB,C,6
6,test,1,0.0,2-Back,1,z,Tue Oct 01 2024 15:58:39 GMT-0500 (Central Daylight Time),644524.6000000238,012_o_f_h_a.png,O,z,1100,9,1,2118.899999976158,642405.7000000477,7022,VNB,C,7
6,test,1,0.0,2-Back,0,m,Tue Oct 01 2024 15:58:39 GMT-0500 (Central Daylight Time),647106.5,015_o_m_d_a.png,O,z,1474,10,1,2555.399999976158,644551.1000000238,7022,VNB,C,8
7,test,1,1.0,2-Back,1,m,Tue Oct 01 2024 15:58:39 GMT-0500 (Central Daylight Time),649622.8999999762,014_m_m_d_a.png,O,m,1446,11,1,2508.5999999046326,647114.3000000715,7022,VNB,C,9
8,test,1,0.0,2-Back,1,m,Tue Oct 01 2024 15:58:39 GMT-0500 (Central Daylight Time),652522.2000000477,019_m_f_n_a.png,O,m,1786,12,1,2807.899999976158,649714.3000000715,7022,VNB,C,10
9,test,1,0.0,2-Back,1,m,Tue Oct 01 2024 15:58:39 GMT-0500 (Central Daylight Time),655470.3999999762,022_y_f_h_a.png,O,m,1837,13,1,2921.2999999523163,652549.1000000238,7022,VNB,C,11
10,test,1,0.0,2-Back,1,z,Tue Oct 01 2024 15:58:39 GMT-0500 (Central Daylight Time),658086.8999999762,014_m_m_n_a.png,O,z,1596,14,1,2608.5,655478.3999999762,7022,VNB,C,12
11,test,1,0.0,2-Back,1,m,Tue Oct 01 2024 15:58:39 GMT-0500 (Central Daylight Time),660595.8000000715,025_y_m_d_a.png,O,m,1408,15,1,2420.9000000953674,658174.8999999762,7022,VNB,C,13
12,test,1,1.0,2-Back,1,m,Tue Oct 01 2024 15:58:39 GMT-0500 (Central Daylight Time),663551.8000000715,019_m_f_h_a.png,O,m,1846,16,1,2928.8000000715256,660623.0,7022,VNB,C,14
13,test,1,0.0,2-Back,1,z,Tue Oct 01 2024 15:58:39 GMT-0500 (Central Daylight Time),665817.7000000477,012_o_f_d_a.png,O,z,1158,17,1,2180.0,663637.7000000477,7022,VNB,C,15
13,test,1,0.0,2-Back,0,m,Tue Oct 01 2024 15:58:39 GMT-0500 (Central Daylight Time),668383.3000000715,015_o_m_n_a.png,O,z,1512,18,1,2530.0,665853.3000000715,7022,VNB,C,16
0,test,2,0.0,2-Back,,,Tue Oct 01 2024 15:58:39 GMT-0500 (Central Daylight Time),668383.3000000715,014_m_m_h_a.png,O,space,1729,1,1,2530.0,665853.3000000715,7022,VNB,C,0
0,test,2,0.0,2-Back,,,Tue Oct 01 2024 15:58:39 GMT-0500 (Central Daylight Time),668383.3000000715,022_y_f_n_a.png,O,space,1729,2,1,2530.0,665853.3000000715,7022,VNB,C,0
1,test,2,1.0,2-Back,1,z,Tue Oct 01 2024 15:58:39 GMT-0500 (Central Daylight Time),677830.3999999762,012_o_f_h_a.png,O,z,1256,3,1,2276.5999999046326,675553.8000000715,7022,VNB,C,1
2,test,2,0.0,2-Back,1,m,Tue Oct 01 2024 15:58:39 GMT-0500 (Central Daylight Time),680245.5,015_o_m_d_a.png,O,m,1279,4,1,2299.6999999284744,677945.8000000715,7022,VNB,C,2
3,test,2,0.0,2-Back,1,m,Tue Oct 01 2024 15:58:39 GMT-0500 (Central Daylight Time),682878.7000000477,019_m_f_d_a.png,O,m,1614,5,1,2628.100000023842,680250.6000000238,7022,VNB,C,3
4,test,2,0.0,2-Back,1,m,Tue Oct 01 2024 15:58:39 GMT-0500 (Central Daylight Time),685394.5,025_y_m_h_a.png,O,m,1476,6,1,2491.7999999523163,682902.7000000477,7022,VNB,C,4
5,test,2,0.0,2-Back,1,m,Tue Oct 01 2024 15:58:39 GMT-0500 (Central Daylight Time),687760.3000000715,012_o_f_n_a.png,O,m,1329,7,1,2347.3000000715256,685413.0,7022,VNB,C,5
6,test,2,1.0,2-Back,1,z,Tue Oct 01 2024 15:58:39 GMT-0500 (Central Daylight Time),690059.1000000238,015_o_m_h_a.png,O,z,1191,8,1,2211.399999976158,687847.7000000477,7022,VNB,C,6
7,test,2,0.0,2-Back,1,m,Tue Oct 01 2024 15:58:39 GMT-0500 (Central Daylight Time),692492.3000000715,022_y_f_d_a.png,O,m,1399,9,1,2428.5,690063.8000000715,7022,VNB,C,7
8,test,2,0.0,2-Back,1,m,Tue Oct 01 2024 15:58:39 GMT-0500 (Central Daylight Time),694908.7000000477,025_y_m_d_a.png,O,m,1365,10,1,2383.100000023842,692525.6000000238,7022,VNB,C,8
9,test,2,0.0,2-Back,1,m,Tue Oct 01 2024 15:58:39 GMT-0500 (Central Daylight Time),697540.5,014_m_m_n_a.png,O,m,1482,11,1,2502.0,695038.5,7022,VNB,C,9
10,test,2,0.0,2-Back,1,m,Tue Oct 01 2024 15:58:39 GMT-0500 (Central Daylight Time),699973.1000000238,019_m_f_h_a.png,O,m,1391,12,1,2408.600000023842,697564.5,7022,VNB,C,10
11,test,2,1.0,2-Back,1,z,Tue Oct 01 2024 15:58:39 GMT-0500 (Central Daylight Time),702189.0,015_o_m_n_a.png,O,z,1100,13,1,2131.7999999523163,700057.2000000477,7022,VNB,C,11
12,test,2,0.0,2-Back,1,m,Tue Oct 01 2024 15:58:39 GMT-0500 (Central Daylight Time),704625.1000000238,012_o_f_d_a.png,O,m,1373,14,1,2389.7999999523163,702235.3000000715,7022,VNB,C,12
12,test,2,0.0,2-Back,0,m,Tue Oct 01 2024 15:58:39 GMT-0500 (Central Daylight Time),707005.1000000238,022_y_f_h_a.png,O,z,1366,15,1,2369.7999999523163,704635.3000000715,7022,VNB,C,13
13,test,2,0.0,2-Back,1,z,Tue Oct 01 2024 15:58:39 GMT-0500 (Central Daylight Time),709419.8000000715,014_m_m_d_a.png,O,z,1374,16,1,2393.8000000715256,707026.0,7022,VNB,C,14
14,test,2,0.0,2-Back,1,m,Tue Oct 01 2024 15:58:39 GMT-0500 (Central Daylight Time),711885.6000000238,025_y_m_n_a.png,O,m,1416,17,1,2431.2000000476837,709454.3999999762,7022,VNB,C,15
15,test,2,1.0,2-Back,1,m,Tue Oct 01 2024 15:58:39 GMT-0500 (Central Daylight Time),714218.2000000477,019_m_f_n_a.png,O,m,1243,18,1,2307.0,711911.2000000477,7022,VNB,C,16
0,test,3,1.0,2-Back,,,Tue Oct 01 2024 15:58:39 GMT-0500 (Central Daylight Time),714218.2000000477,015_o_m_n_a.png,O,space,1616,1,1,2307.0,711911.2000000477,7022,VNB,C,0
0,test,3,1.0,2-Back,,,Tue Oct 01 2024 15:58:39 GMT-0500 (Central Daylight Time),714218.2000000477,012_o_f_d_a.png,O,space,1616,2,1,2307.0,711911.2000000477,7022,VNB,C,0
1,test,3,0.0,2-Back,1,m,Tue Oct 01 2024 15:58:39 GMT-0500 (Central Daylight Time),723314.8000000715,022_y_f_h_a.png,O,m,974,3,1,2064.3000000715256,721250.5,7022,VNB,C,1
2,test,3,0.0,2-Back,1,z,Tue Oct 01 2024 15:58:39 GMT-0500 (Central Daylight Time),725498.2000000477,019_m_f_d_a.png,O,z,1153,4,1,2178.899999976158,723319.3000000715,7022,VNB,C,2
3,test,3,1.0,2-Back,1,m,Tue Oct 01 2024 15:58:39 GMT-0500 (Central Daylight Time),728013.8999999762,025_y_m_n_a.png,O,m,1373,5,1,2486.399999976158,725527.5,7022,VNB,C,3
3,test,3,0.0,2-Back,0,m,Tue Oct 01 2024 15:58:39 GMT-0500 (Central Daylight Time),730397.2000000477,015_o_m_h_a.png,O,z,1333,6,1,2347.2000000476837,728050.0,7022,VNB,C,4
4,test,3,0.0,2-Back,1,z,Tue Oct 01 2024 15:58:39 GMT-0500 (Central Daylight Time),732646.0,022_y_f_n_a.png,O,z,1165,7,1,2223.399999976158,730422.6000000238,7022,VNB,C,5
5,test,3,1.0,2-Back,1,m,Tue Oct 01 2024 15:58:39 GMT-0500 (Central Daylight Time),735161.1000000238,014_m_m_d_a.png,O,m,1469,8,1,2489.5,732671.6000000238,7022,VNB,C,6
6,test,3,0.0,2-Back,1,m,Tue Oct 01 2024 15:58:39 GMT-0500 (Central Daylight Time),737693.6000000238,025_y_m_d_a.png,O,m,1364,9,1,2422.2999999523163,735271.3000000715,7022,VNB,C,7
7,test,3,0.0,2-Back,1,m,Tue Oct 01 2024 15:58:39 GMT-0500 (Central Daylight Time),739976.6000000238,012_o_f_h_a.png,O,m,1253,10,1,2275.399999976158,737701.2000000477,7022,VNB,C,8
8,test,3,1.0,2-Back,1,m,Tue Oct 01 2024 15:58:39 GMT-0500 (Central Daylight Time),742326.1000000238,019_m_f_n_a.png,O,m,1189,11,1,2210.0,740116.1000000238,7022,VNB,C,9
9,test,3,1.0,2-Back,1,z,Tue Oct 01 2024 15:58:39 GMT-0500 (Central Daylight Time),744608.5,014_m_m_h_a.png,O,z,1178,12,1,2254.0,742354.5,7022,VNB,C,10
10,test,3,0.0,2-Back,1,m,Tue Oct 01 2024 15:58:39 GMT-0500 (Central Daylight Time),746924.1000000238,022_y_f_d_a.png,O,m,1282,13,1,2293.7000000476837,744630.3999999762,7022,VNB,C,11
11,test,3,0.0,2-Back,1,m,Tue Oct 01 2024 15:58:39 GMT-0500 (Central Daylight Time),749556.7000000477,012_o_f_n_a.png,O,m,1533,14,1,2616.100000023842,746940.6000000238,7022,VNB,C,12
12,test,3,0.0,2-Back,1,z,Tue Oct 01 2024 15:58:39 GMT-0500 (Central Daylight Time),751822.3999999762,015_o_m_d_a.png,O,z,1156,15,1,2236.1999999284744,749586.2000000477,7022,VNB,C,13
13,test,3,1.0,2-Back,1,m,Tue Oct 01 2024 15:58:39 GMT-0500 (Central Daylight Time),754172.0,019_m_f_h_a.png,O,m,1316,16,1,2336.1999999284744,751835.8000000715,7022,VNB,C,14
14,test,3,0.0,2-Back,1,m,Tue Oct 01 2024 15:58:39 GMT-0500 (Central Daylight Time),756487.8999999762,014_m_m_n_a.png,O,m,1254,17,1,2284.0,754203.8999999762,7022,VNB,C,15
15,test,3,0.0,2-Back,1,z,Tue Oct 01 2024 15:58:39 GMT-0500 (Central Daylight Time),758570.5,025_y_m_h_a.png,O,z,1035,18,1,2061.399999976158,756509.1000000238,7022,VNB,C,16
0,test,4,0.0,2-Back,,,Tue Oct 01 2024 15:58:39 GMT-0500 (Central Daylight Time),758570.5,019_m_f_n_a.png,O,space,1497,1,1,2061.399999976158,756509.1000000238,7022,VNB,C,0
0,test,4,0.0,2-Back,,,Tue Oct 01 2024 15:58:39 GMT-0500 (Central Daylight Time),758570.5,015_o_m_n_a.png,O,space,1497,2,1,2061.399999976158,756509.1000000238,7022,VNB,C,0
1,test,4,1.0,2-Back,1,m,Tue Oct 01 2024 15:58:39 GMT-0500 (Central Daylight Time),767533.7000000477,025_y_m_h_a.png,O,m,953,3,1,1987.0,765546.7000000477,7022,VNB,C,1
2,test,4,1.0,2-Back,1,m,Tue Oct 01 2024 15:58:39 GMT-0500 (Central Daylight Time),769866.3000000715,012_o_f_d_a.png,O,m,1310,4,1,2326.0,767540.3000000715,7022,VNB,C,2
3,test,4,0.0,2-Back,1,z,Tue Oct 01 2024 15:58:39 GMT-0500 (Central Daylight Time),771899.2000000477,015_o_m_h_a.png,O,z,1000,5,1,2026.6000000238419,769872.6000000238,7022,VNB,C,3
4,test,4,0.0,2-Back,1,m,Tue Oct 01 2024 15:58:39 GMT-0500 (Central Daylight Time),774265.3999999762,014_m_m_n_a.png,O,m,1280,6,1,2350.2999999523163,771915.1000000238,7022,VNB,C,4
5,test,4,0.0,2-Back,1,m,Tue Oct 01 2024 15:58:39 GMT-0500 (Central Daylight Time),776981.1000000238,019_m_f_d_a.png,O,m,1673,7,1,2687.2000000476837,774293.8999999762,7022,VNB,C,5
5,test,4,0.0,2-Back,0,z,Tue Oct 01 2024 15:58:39 GMT-0500 (Central Daylight Time),779580.3000000715,022_y_f_n_a.png,O,m,1475,8,1,2550.0,777030.3000000715,7022,VNB,C,6
5,test,4,1.0,2-Back,0,m,Tue Oct 01 2024 15:58:39 GMT-0500 (Central Daylight Time),782724.3000000715,012_o_f_h_a.png,O,None,2015,9,1,3118.0,779606.3000000715,7022,VNB,C,7
6,test,4,0.0,2-Back,1,m,Tue Oct 01 2024 15:58:39 GMT-0500 (Central Daylight Time),785112.0,014_m_m_h_a.png,O,m,1338,10,1,2364.100000023842,782747.8999999762,7022,VNB,C,8
7,test,4,0.0,2-Back,1,m,Tue Oct 01 2024 15:58:39 GMT-0500 (Central Daylight Time),787461.3000000715,022_y_f_d_a.png,O,m,1249,11,1,2319.7000000476837,785141.6000000238,7022,VNB,C,9
8,test,4,0.0,2-Back,1,m,Tue Oct 01 2024 15:58:39 GMT-0500 (Central Daylight Time),789860.2000000477,025_y_m_n_a.png,O,m,1349,12,1,2381.100000023842,787479.1000000238,7022,VNB,C,10
9,test,4,0.0,2-Back,1,z,Tue Oct 01 2024 15:58:39 GMT-0500 (Central Daylight Time),792142.3000000715,015_o_m_d_a.png,O,z,1170,13,1,2192.0,789950.3000000715,7022,VNB,C,11
10,test,4,1.0,2-Back,1,m,Tue Oct 01 2024 15:58:39 GMT-0500 (Central Daylight Time),794541.8000000715,019_m_f_h_a.png,O,m,1381,14,1,2393.0,792148.8000000715,7022,VNB,C,12
10,test,4,1.0,2-Back,0,m,Tue Oct 01 2024 15:58:39 GMT-0500 (Central Daylight Time),797207.8000000715,022_y_f_h_a.png,O,z,1554,15,1,2631.2000000476837,794576.6000000238,7022,VNB,C,13
11,test,4,0.0,2-Back,1,m,Tue Oct 01 2024 15:58:39 GMT-0500 (Central Daylight Time),799590.3000000715,012_o_f_n_a.png,O,m,1281,16,1,2290.8000000715256,797299.5,7022,VNB,C,14
12,test,4,0.0,2-Back,1,m,Tue Oct 01 2024 15:58:39 GMT-0500 (Central Daylight Time),802006.1000000238,025_y_m_d_a.png,O,m,1381,17,1,2392.7999999523163,799613.3000000715,7022,VNB,C,15
13,test,4,1.0,2-Back,1,m,Tue Oct 01 2024 15:58:39 GMT-0500 (Central Daylight Time),804488.8999999762,014_m_m_d_a.png,O,m,1437,18,1,2459.6999999284744,802029.2000000477,7022,VNB,C,16
0,test,5,1.0,2-Back,,,Tue Oct 01 2024 15:58:39 GMT-0500 (Central Daylight Time),804488.8999999762,022_y_f_d_a.png,O,space,1418,1,1,2459.6999999284744,802029.2000000477,7022,VNB,C,0
0,test,5,1.0,2-Back,,,Tue Oct 01 2024 15:58:39 GMT-0500 (Central Daylight Time),804488.8999999762,012_o_f_h_a.png,O,space,1418,2,1,2459.6999999284744,802029.2000000477,7022,VNB,C,0
1,test,5,1.0,2-Back,1,z,Tue Oct 01 2024 15:58:39 GMT-0500 (Central Daylight Time),813468.7000000477,015_o_m_d_a.png,O,z,1131,3,1,2138.899999976158,811329.8000000715,7022,VNB,C,1
2,test,5,1.0,2-Back,1,m,Tue Oct 01 2024 15:58:39 GMT-0500 (Central Daylight Time),815667.8000000715,019_m_f_n_a.png,O,m,1115,4,1,2188.7000000476837,813479.1000000238,7022,VNB,C,2
2,test,5,0.0,2-Back,0,m,Tue Oct 01 2024 15:58:39 GMT-0500 (Central Daylight Time),818267.7000000477,014_m_m_h_a.png,O,z,1576,5,1,2593.8000000715256,815673.8999999762,7022,VNB,C,3
3,test,5,0.0,2-Back,1,z,Tue Oct 01 2024 15:58:39 GMT-0500 (Central Daylight Time),820666.8999999762,022_y_f_n_a.png,O,z,1285,6,1,2371.0999999046326,818295.8000000715,7022,VNB,C,4
4,test,5,0.0,2-Back,1,m,Tue Oct 01 2024 15:58:39 GMT-0500 (Central Daylight Time),822999.3999999762,012_o_f_d_a.png,O,m,1205,7,1,2240.1999999284744,820759.2000000477,7022,VNB,C,5
5,test,5,0.0,2-Back,1,m,Tue Oct 01 2024 15:58:39 GMT-0500 (Central Daylight Time),825665.3000000715,015_o_m_h_a.png,O,m,1552,8,1,2640.2000000476837,823025.1000000238,7022,VNB,C,6
6,test,5,1.0,2-Back,1,z,Tue Oct 01 2024 15:58:39 GMT-0500 (Central Daylight Time),827931.3999999762,019_m_f_d_a.png,O,z,1168,9,1,2242.2999999523163,825689.1000000238,7022,VNB,C,7
7,test,5,0.0,2-Back,1,m,Tue Oct 01 2024 15:58:39 GMT-0500 (Central Daylight Time),830363.8000000715,025_y_m_n_a.png,O,m,1317,10,1,2343.600000023842,828020.2000000477,7022,VNB,C,8
8,test,5,0.0,2-Back,1,m,Tue Oct 01 2024 15:58:39 GMT-0500 (Central Daylight Time),832962.7000000477,014_m_m_n_a.png,O,m,1492,11,1,2570.600000023842,830392.1000000238,7022,VNB,C,9
9,test,5,0.0,2-Back,1,m,Tue Oct 01 2024 15:58:39 GMT-0500 (Central Daylight Time),835445.2000000477,022_y_f_h_a.png,O,m,1390,12,1,2462.600000023842,832982.6000000238,7022,VNB,C,10
10,test,5,0.0,2-Back,1,m,Tue Oct 01 2024 15:58:39 GMT-0500 (Central Daylight Time),837811.3000000715,025_y_m_d_a.png,O,m,1326,13,1,2344.8000000715256,835466.5,7022,VNB,C,11
11,test,5,1.0,2-Back,1,z,Tue Oct 01 2024 15:58:39 GMT-0500 (Central Daylight Time),840093.7000000477,019_m_f_h_a.png,O,z,1191,14,1,2253.600000023842,837840.1000000238,7022,VNB,C,12
11,test,5,0.0,2-Back,0,m,Tue Oct 01 2024 15:58:39 GMT-0500 (Central Daylight Time),842409.3999999762,015_o_m_n_a.png,O,z,1203,15,1,2230.5,840178.8999999762,7022,VNB,C,13
12,test,5,0.0,2-Back,1,m,Tue Oct 01 2024 15:58:39 GMT-0500 (Central Daylight Time),844841.8000000715,014_m_m_d_a.png,O,m,1343,16,1,2410.9000000953674,842430.8999999762,7022,VNB,C,14
12,test,5,0.0,2-Back,0,z,Tue Oct 01 2024 15:58:39 GMT-0500 (Central Daylight Time),847424.7000000477,012_o_f_n_a.png,O,m,1487,17,1,2574.7000000476837,844850.0,7022,VNB,C,15
13,test,5,1.0,2-Back,1,m,Tue Oct 01 2024 15:58:39 GMT-0500 (Central Daylight Time),849656.7000000477,025_y_m_h_a.png,O,m,1069,18,1,2133.399999976158,847523.3000000715,7022,VNB,C,16
