Number,acc_sum,block,block_c,block_cond,con_img,correct,correct_response,datetime,endtime,jitter,project,response,response_time,row_sel,session_number,start_end,starttime,subject_id,task,task_vers,trial
7,1,prac,1,A,circle.png,1,m,Fri Mar 07 2025 14:11:44 GMT-0600 (Central Standard Time),67777.69999999553,1700,O,m,582,6,1,3077.1999999955297,64700.5,7099,NTS,A,1
8,2,prac,1,A,circle.png,1,m,Fri Mar 07 2025 14:11:44 GMT-0600 (Central Standard Time),70625.29999999702,1600,O,m,465,7,1,2838.7999999970198,67786.5,7099,NTS,A,2
9,3,prac,1,A,circle.png,1,m,Fri Mar 07 2025 14:11:44 GMT-0600 (Central Standard Time),73423.79999999702,1500,O,m,498,8,1,2793.60000000149,70630.19999999553,7099,NTS,A,3
7,4,prac,1,A,circle.png,1,m,Fri Mar 07 2025 14:11:44 GMT-0600 (Central Standard Time),76359.89999999851,1700,O,m,452,6,1,2929.2999999970198,73430.60000000149,7099,NTS,A,4
6,5,prac,1,A,circle.png,1,m,Fri Mar 07 2025 14:11:44 GMT-0600 (Central Standard Time),79556.10000000149,1900,O,m,519,5,1,3191.10000000149,76365.0,7099,NTS,A,5
8,6,prac,1,A,circle.png,1,m,Fri Mar 07 2025 14:11:44 GMT-0600 (Central Standard Time),82372.0,1600,O,m,437,7,1,2809.3000000044703,79562.69999999553,7099,NTS,A,6
1,7,prac,1,A,circle.png,1,z,Fri Mar 07 2025 14:11:44 GMT-0600 (Central Standard Time),84653.19999999553,1000,O,z,494,1,1,2272.7999999970198,82380.39999999851,7099,NTS,A,7
2,8,prac,1,A,circle.png,1,z,Fri Mar 07 2025 14:11:44 GMT-0600 (Central Standard Time),87953.10000000149,2000,O,z,498,2,1,3293.60000000149,84659.5,7099,NTS,A,8
3,9,prac,1,A,circle.png,1,z,Fri Mar 07 2025 14:11:44 GMT-0600 (Central Standard Time),90402.39999999851,1200,O,z,455,3,1,2442.2000000029802,87960.19999999553,7099,NTS,A,9
1,10,prac,1,A,circle.png,1,z,Fri Mar 07 2025 14:11:44 GMT-0600 (Central Standard Time),92619.29999999702,1000,O,z,430,1,1,2209.5,90409.79999999702,7099,NTS,A,10
6,11,prac,1,A,circle.png,1,m,Fri Mar 07 2025 14:11:44 GMT-0600 (Central Standard Time),95832.0,1900,O,m,521,5,1,3206.0,92626.0,7099,NTS,A,11
4,12,prac,1,A,circle.png,1,z,Fri Mar 07 2025 14:11:44 GMT-0600 (Central Standard Time),98663.60000000149,1400,O,z,648,4,1,2827.5,95836.10000000149,7099,NTS,A,12
4,1,prac,1,B,triangle.png,1,m,Fri Mar 07 2025 14:11:44 GMT-0600 (Central Standard Time),131988.69999999553,1500,O,m,1104,4,1,3379.5,128609.19999999553,7099,NTS,A,1
8,2,prac,1,B,triangle.png,1,m,Fri Mar 07 2025 14:11:44 GMT-0600 (Central Standard Time),134504.6000000015,1200,O,m,541,7,1,2511.9000000059605,131992.69999999553,7099,NTS,A,2
6,3,prac,1,B,triangle.png,1,m,Fri Mar 07 2025 14:11:44 GMT-0600 (Central Standard Time),136751.79999999702,1000,O,m,465,5,1,2242.39999999851,134509.3999999985,7099,NTS,A,3
7,4,prac,1,B,triangle.png,1,z,Fri Mar 07 2025 14:11:44 GMT-0600 (Central Standard Time),140084.29999999702,2000,O,z,545,6,1,3328.0,136756.29999999702,7099,NTS,A,4
3,5,prac,1,B,triangle.png,1,z,Fri Mar 07 2025 14:11:44 GMT-0600 (Central Standard Time),143018.6000000015,1600,O,z,548,3,1,2929.7000000029802,140088.8999999985,7099,NTS,A,5
4,6,prac,1,B,triangle.png,1,m,Fri Mar 07 2025 14:11:44 GMT-0600 (Central Standard Time),145834.5,1500,O,m,534,4,1,2812.0,143022.5,7099,NTS,A,6
6,7,prac,1,B,triangle.png,1,m,Fri Mar 07 2025 14:11:44 GMT-0600 (Central Standard Time),148484.19999999553,1000,O,m,854,5,1,2642.5999999940395,145841.6000000015,7099,NTS,A,7
2,8,prac,1,B,triangle.png,1,m,Fri Mar 07 2025 14:11:44 GMT-0600 (Central Standard Time),152233.19999999553,1700,O,m,1257,2,1,3742.7999999970198,148490.3999999985,7099,NTS,A,8
7,9,prac,1,B,triangle.png,1,z,Fri Mar 07 2025 14:11:44 GMT-0600 (Central Standard Time),155781.29999999702,2000,O,z,761,6,1,3540.89999999851,152240.3999999985,7099,NTS,A,9
1,10,prac,1,B,triangle.png,1,z,Fri Mar 07 2025 14:11:44 GMT-0600 (Central Standard Time),159196.69999999553,1900,O,z,719,1,1,3409.89999999851,155786.79999999702,7099,NTS,A,10
9,11,prac,1,B,triangle.png,1,z,Fri Mar 07 2025 14:11:44 GMT-0600 (Central Standard Time),162297.3999999985,1400,O,z,908,8,1,3093.89999999851,159203.5,7099,NTS,A,11
2,12,prac,1,B,triangle.png,1,m,Fri Mar 07 2025 14:11:44 GMT-0600 (Central Standard Time),165362.6000000015,1700,O,m,590,2,1,3059.5,162303.1000000015,7099,NTS,A,12
7,1,test,1,A,circle.png,1,m,Fri Mar 07 2025 14:11:44 GMT-0600 (Central Standard Time),187138.19999999553,1700,O,m,466,6,1,2193.0,184945.19999999553,7099,NTS,A,1
6,2,test,1,A,circle.png,1,m,Fri Mar 07 2025 14:11:44 GMT-0600 (Central Standard Time),189569.8999999985,1900,O,m,505,5,1,2427.2000000029802,187142.69999999553,7099,NTS,A,2
4,3,test,1,A,circle.png,1,z,Fri Mar 07 2025 14:11:44 GMT-0600 (Central Standard Time),191436.1000000015,1400,O,z,438,4,1,1862.7000000029802,189573.3999999985,7099,NTS,A,3
9,4,test,1,A,circle.png,1,m,Fri Mar 07 2025 14:11:44 GMT-0600 (Central Standard Time),193520.6000000015,1500,O,m,549,8,1,2080.9000000059605,191439.69999999553,7099,NTS,A,4
1,5,test,1,A,circle.png,1,z,Fri Mar 07 2025 14:11:44 GMT-0600 (Central Standard Time),195085.69999999553,1000,O,z,536,1,1,1560.6999999955297,193525.0,7099,NTS,A,5
3,6,test,1,A,circle.png,1,z,Fri Mar 07 2025 14:11:44 GMT-0600 (Central Standard Time),197201.69999999553,1200,O,z,891,3,1,2111.89999999851,195089.79999999702,7099,NTS,A,6
4,7,test,1,A,circle.png,1,z,Fri Mar 07 2025 14:11:44 GMT-0600 (Central Standard Time),199333.8999999985,1400,O,z,711,4,1,2128.5,197205.3999999985,7099,NTS,A,7
8,8,test,1,A,circle.png,1,m,Fri Mar 07 2025 14:11:44 GMT-0600 (Central Standard Time),201449.69999999553,1600,O,m,499,7,1,2111.2999999970198,199338.3999999985,7099,NTS,A,8
6,9,test,1,A,circle.png,1,m,Fri Mar 07 2025 14:11:44 GMT-0600 (Central Standard Time),203949.3999999985,1900,O,m,570,5,1,2495.39999999851,201454.0,7099,NTS,A,9
8,10,test,1,A,circle.png,1,m,Fri Mar 07 2025 14:11:44 GMT-0600 (Central Standard Time),206082.3999999985,1600,O,m,499,7,1,2128.10000000149,203954.29999999702,7099,NTS,A,10
2,11,test,1,A,circle.png,1,z,Fri Mar 07 2025 14:11:44 GMT-0600 (Central Standard Time),208698.69999999553,2000,O,z,581,2,1,2610.5999999940395,206088.1000000015,7099,NTS,A,11
9,12,test,1,A,circle.png,1,m,Fri Mar 07 2025 14:11:44 GMT-0600 (Central Standard Time),210715.6000000015,1500,O,m,500,8,1,2011.7000000029802,208703.8999999985,7099,NTS,A,12
3,13,test,1,A,circle.png,1,z,Fri Mar 07 2025 14:11:44 GMT-0600 (Central Standard Time),212613.6000000015,1200,O,z,669,3,1,1892.7000000029802,210720.8999999985,7099,NTS,A,13
7,14,test,1,A,circle.png,1,m,Fri Mar 07 2025 14:11:44 GMT-0600 (Central Standard Time),214979.69999999553,1700,O,m,649,6,1,2361.0,212618.69999999553,7099,NTS,A,14
3,15,test,1,A,circle.png,1,z,Fri Mar 07 2025 14:11:44 GMT-0600 (Central Standard Time),216795.29999999702,1200,O,z,588,3,1,1809.5,214985.79999999702,7099,NTS,A,15
4,16,test,1,A,circle.png,1,z,Fri Mar 07 2025 14:11:44 GMT-0600 (Central Standard Time),218893.79999999702,1400,O,z,677,4,1,2093.7999999970198,216800.0,7099,NTS,A,16
1,17,test,1,A,circle.png,1,z,Fri Mar 07 2025 14:11:44 GMT-0600 (Central Standard Time),220794.3999999985,1000,O,z,874,1,1,1895.7999999970198,218898.6000000015,7099,NTS,A,17
8,18,test,1,A,circle.png,1,m,Fri Mar 07 2025 14:11:44 GMT-0600 (Central Standard Time),223527.19999999553,1600,O,m,1100,7,1,2726.5,220800.69999999553,7099,NTS,A,18
1,19,test,1,A,circle.png,1,z,Fri Mar 07 2025 14:11:44 GMT-0600 (Central Standard Time),225692.8999999985,1000,O,z,1136,1,1,2155.7999999970198,223537.1000000015,7099,NTS,A,19
4,20,test,1,A,circle.png,1,z,Fri Mar 07 2025 14:11:44 GMT-0600 (Central Standard Time),227707.8999999985,1400,O,z,595,4,1,2010.2999999970198,225697.6000000015,7099,NTS,A,20
9,21,test,1,A,circle.png,1,m,Fri Mar 07 2025 14:11:44 GMT-0600 (Central Standard Time),229742.0,1500,O,m,503,8,1,2028.7000000029802,227713.29999999702,7099,NTS,A,21
6,22,test,1,A,circle.png,1,m,Fri Mar 07 2025 14:11:44 GMT-0600 (Central Standard Time),232240.6000000015,1900,O,m,575,5,1,2492.9000000059605,229747.69999999553,7099,NTS,A,22
2,23,test,1,A,circle.png,1,z,Fri Mar 07 2025 14:11:44 GMT-0600 (Central Standard Time),234790.8999999985,2000,O,z,517,2,1,2542.60000000149,232248.29999999702,7099,NTS,A,23
2,24,test,1,A,circle.png,1,z,Fri Mar 07 2025 14:11:44 GMT-0600 (Central Standard Time),237356.5,2000,O,z,548,2,1,2558.5,234798.0,7099,NTS,A,24
2,1,test,1,B,triangle.png,1,m,Fri Mar 07 2025 14:11:44 GMT-0600 (Central Standard Time),256199.0,1200,O,m,594,10,1,1811.6000000014901,254387.3999999985,7099,NTS,A,1
1,2,test,1,B,triangle.png,1,z,Fri Mar 07 2025 14:11:44 GMT-0600 (Central Standard Time),258615.79999999702,1900,O,z,486,1,1,2412.2999999970198,256203.5,7099,NTS,A,2
3,3,test,1,B,triangle.png,1,z,Fri Mar 07 2025 14:11:44 GMT-0600 (Central Standard Time),260832.19999999553,1600,O,z,594,3,1,2211.0,258621.19999999553,7099,NTS,A,3
1,4,test,1,B,triangle.png,1,z,Fri Mar 07 2025 14:11:44 GMT-0600 (Central Standard Time),262666.6000000015,1400,O,z,417,9,1,1830.5,260836.1000000015,7099,NTS,A,4
8,5,test,1,B,triangle.png,1,m,Fri Mar 07 2025 14:11:44 GMT-0600 (Central Standard Time),264878.6000000015,1700,O,m,485,15,1,2207.3000000044703,262671.299999997,7099,NTS,A,5
9,6,test,1,B,triangle.png,1,z,Fri Mar 07 2025 14:11:44 GMT-0600 (Central Standard Time),266878.3999999985,1400,O,z,576,8,1,1994.7000000029802,264883.69999999553,7099,NTS,A,6
9,7,test,1,B,triangle.png,1,z,Fri Mar 07 2025 14:11:44 GMT-0600 (Central Standard Time),269412.5,1900,O,z,615,16,1,2530.2000000029802,266882.299999997,7099,NTS,A,7
7,8,test,1,B,triangle.png,1,z,Fri Mar 07 2025 14:11:44 GMT-0600 (Central Standard Time),271645.299999997,1600,O,z,616,14,1,2227.0,269418.299999997,7099,NTS,A,8
3,9,test,1,B,triangle.png,1,z,Fri Mar 07 2025 14:11:44 GMT-0600 (Central Standard Time),274177.3999999985,2000,O,z,508,11,1,2526.39999999851,271651.0,7099,NTS,A,9
4,10,test,1,B,triangle.png,1,m,Fri Mar 07 2025 14:11:44 GMT-0600 (Central Standard Time),275826.6000000015,1000,O,m,623,12,1,1644.7000000029802,274181.8999999985,7099,NTS,A,10
2,11,test,1,B,triangle.png,1,m,Fri Mar 07 2025 14:11:44 GMT-0600 (Central Standard Time),278042.3999999985,1700,O,m,490,2,1,2211.5,275830.8999999985,7099,NTS,A,11
6,12,test,1,B,triangle.png,1,m,Fri Mar 07 2025 14:11:44 GMT-0600 (Central Standard Time),279642.8999999985,1000,O,m,575,5,1,1595.8999999985099,278047.0,7099,NTS,A,12
8,13,test,1,B,triangle.png,1,m,Fri Mar 07 2025 14:11:44 GMT-0600 (Central Standard Time),281373.799999997,1200,O,m,501,7,1,1726.6999999955297,279647.1000000015,7099,NTS,A,13
2,14,test,1,B,triangle.png,1,m,Fri Mar 07 2025 14:11:44 GMT-0600 (Central Standard Time),283658.6000000015,1700,O,m,566,2,1,2280.2000000029802,281378.3999999985,7099,NTS,A,14
2,15,test,1,B,triangle.png,1,m,Fri Mar 07 2025 14:11:44 GMT-0600 (Central Standard Time),285356.69999999553,1200,O,m,471,10,1,1693.0999999940395,283663.6000000015,7099,NTS,A,15
7,16,test,1,B,triangle.png,1,z,Fri Mar 07 2025 14:11:44 GMT-0600 (Central Standard Time),288056.19999999553,2000,O,z,668,6,1,2694.0999999940395,285362.1000000015,7099,NTS,A,16
8,17,test,1,B,triangle.png,1,m,Fri Mar 07 2025 14:11:44 GMT-0600 (Central Standard Time),289872.6000000015,1200,O,m,592,7,1,1810.9000000059605,288061.69999999553,7099,NTS,A,17
7,18,test,1,B,triangle.png,1,z,Fri Mar 07 2025 14:11:44 GMT-0600 (Central Standard Time),292686.8999999985,2000,O,z,793,6,1,2810.10000000149,289876.799999997,7099,NTS,A,18
3,19,test,1,B,triangle.png,1,z,Fri Mar 07 2025 14:11:44 GMT-0600 (Central Standard Time),294837.1000000015,1600,O,z,517,3,1,2146.5,292690.6000000015,7099,NTS,A,19
4,20,test,1,B,triangle.png,1,m,Fri Mar 07 2025 14:11:44 GMT-0600 (Central Standard Time),296903.19999999553,1500,O,m,544,4,1,2060.89999999851,294842.299999997,7099,NTS,A,20
6,21,test,1,B,triangle.png,1,m,Fri Mar 07 2025 14:11:44 GMT-0600 (Central Standard Time),299069.1000000015,1500,O,m,638,13,1,2161.7000000029802,296907.3999999985,7099,NTS,A,21
6,22,test,1,B,triangle.png,1,m,Fri Mar 07 2025 14:11:44 GMT-0600 (Central Standard Time),300553.6000000015,1000,O,m,451,5,1,1480.3000000044703,299073.299999997,7099,NTS,A,22
1,23,test,1,B,triangle.png,1,z,Fri Mar 07 2025 14:11:44 GMT-0600 (Central Standard Time),303001.0,1900,O,z,532,1,1,2443.0,300558.0,7099,NTS,A,23
7,24,test,1,B,triangle.png,1,z,Fri Mar 07 2025 14:11:44 GMT-0600 (Central Standard Time),305216.299999997,1600,O,z,583,14,1,2211.60000000149,303004.69999999553,7099,NTS,A,24
2,1,prac,1,C,triangle.png,1,m,Fri Mar 07 2025 14:11:44 GMT-0600 (Central Standard Time),357252.5,1600,O,m,1019,2,1,3414.0,353838.5,7099,NTS,A,1
6,2,prac,1,C,circle.png,1,m,Fri Mar 07 2025 14:11:44 GMT-0600 (Central Standard Time),360817.8999999985,2000,O,m,774,5,1,3557.2999999970198,357260.6000000015,7099,NTS,A,2
8,3,prac,1,C,triangle.png,1,m,Fri Mar 07 2025 14:11:44 GMT-0600 (Central Standard Time),363883.19999999553,1400,O,m,887,7,1,3057.7999999970198,360825.3999999985,7099,NTS,A,3
4,4,prac,1,C,circle.png,1,z,Fri Mar 07 2025 14:11:44 GMT-0600 (Central Standard Time),366249.0,1000,O,z,576,4,1,2360.7000000029802,363888.299999997,7099,NTS,A,4
1,5,prac,1,C,circle.png,1,z,Fri Mar 07 2025 14:11:44 GMT-0600 (Central Standard Time),369462.0,1700,O,z,733,1,1,3206.7000000029802,366255.299999997,7099,NTS,A,5
4,6,prac,1,C,circle.png,1,z,Fri Mar 07 2025 14:11:44 GMT-0600 (Central Standard Time),372646.5,1000,O,z,1393,4,1,3180.7000000029802,369465.799999997,7099,NTS,A,6
3,7,prac,1,C,triangle.png,1,z,Fri Mar 07 2025 14:11:44 GMT-0600 (Central Standard Time),376144.5,1500,O,z,1215,3,1,3491.7000000029802,372652.799999997,7099,NTS,A,7
3,8,prac,1,C,triangle.png,1,z,Fri Mar 07 2025 14:11:44 GMT-0600 (Central Standard Time),379309.1000000015,1500,O,z,868,3,1,3159.60000000149,376149.5,7099,NTS,A,8
9,9,prac,1,C,circle.png,1,m,Fri Mar 07 2025 14:11:44 GMT-0600 (Central Standard Time),382778.5,1900,O,m,776,8,1,3465.60000000149,379312.8999999985,7099,NTS,A,9
8,10,prac,1,C,triangle.png,1,m,Fri Mar 07 2025 14:11:44 GMT-0600 (Central Standard Time),385892.3999999985,1400,O,m,934,7,1,3106.39999999851,382786.0,7099,NTS,A,10
7,11,prac,1,C,triangle.png,1,z,Fri Mar 07 2025 14:11:44 GMT-0600 (Central Standard Time),388857.0,1200,O,z,982,6,1,2958.0,385899.0,7099,NTS,A,11
2,12,prac,1,C,triangle.png,1,m,Fri Mar 07 2025 14:11:44 GMT-0600 (Central Standard Time),392372.6000000015,1600,O,m,1143,2,1,3509.4000000059605,388863.19999999553,7099,NTS,A,12
2,0,test,1,C,circle.png,0,z,Fri Mar 07 2025 14:11:44 GMT-0600 (Central Standard Time),411766.6000000015,1700,O,None,1514,18,1,3226.7000000029802,408539.8999999985,7099,NTS,A,1
6,1,test,1,C,circle.png,1,m,Fri Mar 07 2025 14:11:44 GMT-0600 (Central Standard Time),414799.299999997,1900,O,m,1101,21,1,3025.10000000149,411774.19999999553,7099,NTS,A,2
9,2,test,1,C,circle.png,1,m,Fri Mar 07 2025 14:11:44 GMT-0600 (Central Standard Time),417247.5,1500,O,m,917,8,1,2444.7000000029802,414802.799999997,7099,NTS,A,3
7,3,test,1,C,triangle.png,1,z,Fri Mar 07 2025 14:11:44 GMT-0600 (Central Standard Time),419630.1000000015,1700,O,z,661,22,1,2377.0,417253.1000000015,7099,NTS,A,4
6,4,test,1,C,triangle.png,1,m,Fri Mar 07 2025 14:11:44 GMT-0600 (Central Standard Time),421363.3999999985,1000,O,m,706,13,1,1729.7999999970198,419633.6000000015,7099,NTS,A,5
8,5,test,1,C,triangle.png,1,m,Fri Mar 07 2025 14:11:44 GMT-0600 (Central Standard Time),424062.0,1600,O,m,1078,7,1,2693.89999999851,421368.1000000015,7099,NTS,A,6
6,6,test,1,C,circle.png,1,m,Fri Mar 07 2025 14:11:44 GMT-0600 (Central Standard Time),426728.19999999553,1900,O,m,733,5,1,2662.0999999940395,424066.1000000015,7099,NTS,A,7
4,7,test,1,C,triangle.png,1,m,Fri Mar 07 2025 14:11:44 GMT-0600 (Central Standard Time),429297.6000000015,1500,O,m,1037,12,1,2564.4000000059605,426733.19999999553,7099,NTS,A,8
2,8,test,1,C,triangle.png,1,m,Fri Mar 07 2025 14:11:44 GMT-0600 (Central Standard Time),432409.3999999985,2000,O,m,1081,2,1,3107.7999999970198,429301.6000000015,7099,NTS,A,9
9,9,test,1,C,triangle.png,1,z,Fri Mar 07 2025 14:11:44 GMT-0600 (Central Standard Time),434576.69999999553,1400,O,z,743,16,1,2161.7999999970198,432414.8999999985,7099,NTS,A,10
3,10,test,1,C,circle.png,1,z,Fri Mar 07 2025 14:11:44 GMT-0600 (Central Standard Time),436808.1000000015,1600,O,z,598,11,1,2226.9000000059605,434581.19999999553,7099,NTS,A,11
8,11,test,1,C,triangle.png,1,m,Fri Mar 07 2025 14:11:44 GMT-0600 (Central Standard Time),439858.299999997,1600,O,m,1424,23,1,3045.6999999955297,436812.6000000015,7099,NTS,A,12
3,12,test,1,C,circle.png,1,z,Fri Mar 07 2025 14:11:44 GMT-0600 (Central Standard Time),442257.19999999553,1600,O,z,767,19,1,2394.0,439863.19999999553,7099,NTS,A,13
4,13,test,1,C,circle.png,1,z,Fri Mar 07 2025 14:11:44 GMT-0600 (Central Standard Time),444523.299999997,1400,O,z,839,4,1,2261.2999999970198,442262.0,7099,NTS,A,14
3,14,test,1,C,triangle.png,1,z,Fri Mar 07 2025 14:11:44 GMT-0600 (Central Standard Time),446356.69999999553,1200,O,z,615,3,1,1828.8999999985099,444527.799999997,7099,NTS,A,15
4,15,test,1,C,triangle.png,1,m,Fri Mar 07 2025 14:11:44 GMT-0600 (Central Standard Time),448755.1000000015,1500,O,m,874,20,1,2392.60000000149,446362.5,7099,NTS,A,16
9,16,test,1,C,circle.png,1,m,Fri Mar 07 2025 14:11:44 GMT-0600 (Central Standard Time),451120.6000000015,1500,O,m,834,24,1,2361.10000000149,448759.5,7099,NTS,A,17
7,17,test,1,C,circle.png,1,m,Fri Mar 07 2025 14:11:44 GMT-0600 (Central Standard Time),453836.799999997,2000,O,m,683,14,1,2710.10000000149,451126.69999999553,7099,NTS,A,18
1,18,test,1,C,triangle.png,1,z,Fri Mar 07 2025 14:11:44 GMT-0600 (Central Standard Time),456601.799999997,1900,O,z,831,17,1,2759.60000000149,453842.19999999553,7099,NTS,A,19
1,19,test,1,C,circle.png,1,z,Fri Mar 07 2025 14:11:44 GMT-0600 (Central Standard Time),458385.3999999985,1000,O,z,750,1,1,1776.5,456608.8999999985,7099,NTS,A,20
8,20,test,1,C,circle.png,1,m,Fri Mar 07 2025 14:11:44 GMT-0600 (Central Standard Time),460300.299999997,1200,O,m,694,15,1,1907.8999999985099,458392.3999999985,7099,NTS,A,21
1,21,test,1,C,triangle.png,1,z,Fri Mar 07 2025 14:11:44 GMT-0600 (Central Standard Time),463166.5,1900,O,z,945,9,1,2860.10000000149,460306.3999999985,7099,NTS,A,22
7,22,test,1,C,triangle.png,1,z,Fri Mar 07 2025 14:11:44 GMT-0600 (Central Standard Time),465849.799999997,1700,O,z,959,6,1,2679.60000000149,463170.19999999553,7099,NTS,A,23
2,23,test,1,C,circle.png,1,z,Fri Mar 07 2025 14:11:44 GMT-0600 (Central Standard Time),468281.8999999985,1700,O,z,706,10,1,2427.10000000149,465854.799999997,7099,NTS,A,24
9,1,test,2,C,triangle.png,1,z,Fri Mar 07 2025 14:11:44 GMT-0600 (Central Standard Time),476613.8999999985,1400,O,z,1354,24,1,2779.5,473834.3999999985,7099,NTS,A,1
7,2,test,2,C,circle.png,1,m,Fri Mar 07 2025 14:11:44 GMT-0600 (Central Standard Time),479312.19999999553,2000,O,m,674,22,1,2691.6999999955297,476620.5,7099,NTS,A,2
6,3,test,2,C,triangle.png,1,m,Fri Mar 07 2025 14:11:44 GMT-0600 (Central Standard Time),481227.1000000015,1000,O,m,889,21,1,1910.7000000029802,479316.3999999985,7099,NTS,A,3
3,4,test,2,C,triangle.png,1,z,Fri Mar 07 2025 14:11:44 GMT-0600 (Central Standard Time),483210.19999999553,1200,O,z,763,3,1,1977.1999999955297,481233.0,7099,NTS,A,4
3,5,test,2,C,circle.png,1,z,Fri Mar 07 2025 14:11:44 GMT-0600 (Central Standard Time),485393.1000000015,1600,O,z,548,11,1,2178.60000000149,483214.5,7099,NTS,A,5
3,6,test,2,C,circle.png,1,z,Fri Mar 07 2025 14:11:44 GMT-0600 (Central Standard Time),487777.6000000015,1600,O,z,760,19,1,2378.10000000149,485399.5,7099,NTS,A,6
4,7,test,2,C,circle.png,1,z,Fri Mar 07 2025 14:11:44 GMT-0600 (Central Standard Time),489925.299999997,1400,O,z,719,4,1,2142.39999999851,487782.8999999985,7099,NTS,A,7
2,8,test,2,C,circle.png,1,z,Fri Mar 07 2025 14:11:44 GMT-0600 (Central Standard Time),492339.8999999985,1700,O,z,696,18,1,2408.7999999970198,489931.1000000015,7099,NTS,A,8
8,9,test,2,C,circle.png,1,m,Fri Mar 07 2025 14:11:44 GMT-0600 (Central Standard Time),494589.69999999553,1200,O,m,1032,23,1,2245.5999999940395,492344.1000000015,7099,NTS,A,9
8,10,test,2,C,triangle.png,1,m,Fri Mar 07 2025 14:11:44 GMT-0600 (Central Standard Time),497074.1000000015,1600,O,m,866,7,1,2479.5,494594.6000000015,7099,NTS,A,10
8,11,test,2,C,circle.png,1,m,Fri Mar 07 2025 14:11:44 GMT-0600 (Central Standard Time),498905.3999999985,1200,O,m,608,15,1,1826.5,497078.8999999985,7099,NTS,A,11
1,12,test,2,C,circle.png,1,z,Fri Mar 07 2025 14:11:44 GMT-0600 (Central Standard Time),500772.6000000015,1000,O,z,850,1,1,1861.8000000044703,498910.799999997,7099,NTS,A,12
6,13,test,2,C,triangle.png,1,m,Fri Mar 07 2025 14:11:44 GMT-0600 (Central Standard Time),502620.19999999553,1000,O,m,821,13,1,1842.2999999970198,500777.8999999985,7099,NTS,A,13
1,14,test,2,C,triangle.png,1,z,Fri Mar 07 2025 14:11:44 GMT-0600 (Central Standard Time),505286.1000000015,1900,O,z,743,9,1,2661.4000000059605,502624.69999999553,7099,NTS,A,14
4,15,test,2,C,triangle.png,1,m,Fri Mar 07 2025 14:11:44 GMT-0600 (Central Standard Time),507652.19999999553,1500,O,m,839,20,1,2362.7999999970198,505289.3999999985,7099,NTS,A,15
2,16,test,2,C,circle.png,1,z,Fri Mar 07 2025 14:11:44 GMT-0600 (Central Standard Time),510119.69999999553,1700,O,z,735,10,1,2463.5,507656.19999999553,7099,NTS,A,16
6,16,test,2,C,circle.png,0,m,Fri Mar 07 2025 14:11:44 GMT-0600 (Central Standard Time),512700.69999999553,1900,O,z,654,5,1,2578.2999999970198,510122.3999999985,7099,NTS,A,17
7,17,test,2,C,triangle.png,1,z,Fri Mar 07 2025 14:11:44 GMT-0600 (Central Standard Time),515733.299999997,1700,O,z,1303,6,1,3027.5,512705.799999997,7099,NTS,A,18
9,18,test,2,C,triangle.png,1,z,Fri Mar 07 2025 14:11:44 GMT-0600 (Central Standard Time),518016.1000000015,1400,O,z,861,16,1,2277.4000000059605,515738.69999999553,7099,NTS,A,19
4,19,test,2,C,triangle.png,1,m,Fri Mar 07 2025 14:11:44 GMT-0600 (Central Standard Time),520563.5,1500,O,m,1019,12,1,2542.39999999851,518021.1000000015,7099,NTS,A,20
2,20,test,2,C,triangle.png,1,m,Fri Mar 07 2025 14:11:44 GMT-0600 (Central Standard Time),523763.69999999553,2000,O,m,1172,2,1,3197.1999999955297,520566.5,7099,NTS,A,21
9,21,test,2,C,circle.png,1,m,Fri Mar 07 2025 14:11:44 GMT-0600 (Central Standard Time),526063.3999999985,1500,O,m,767,8,1,2295.2999999970198,523768.1000000015,7099,NTS,A,22
1,22,test,2,C,triangle.png,1,z,Fri Mar 07 2025 14:11:44 GMT-0600 (Central Standard Time),528812.3999999985,1900,O,z,821,17,1,2744.10000000149,526068.299999997,7099,NTS,A,23
7,23,test,2,C,circle.png,1,m,Fri Mar 07 2025 14:11:44 GMT-0600 (Central Standard Time),531563.1000000015,2000,O,m,734,14,1,2746.10000000149,528817.0,7099,NTS,A,24
3,1,test,3,C,triangle.png,1,z,Fri Mar 07 2025 14:11:44 GMT-0600 (Central Standard Time),536811.5,1200,O,z,849,19,1,2064.5,534747.0,7099,NTS,A,1
7,2,test,3,C,triangle.png,1,z,Fri Mar 07 2025 14:11:44 GMT-0600 (Central Standard Time),539226.6000000015,1700,O,z,689,6,1,2411.5,536815.1000000015,7099,NTS,A,2
3,3,test,3,C,circle.png,1,z,Fri Mar 07 2025 14:11:44 GMT-0600 (Central Standard Time),541925.299999997,1600,O,z,1069,11,1,2694.6999999955297,539230.6000000015,7099,NTS,A,3
6,4,test,3,C,triangle.png,1,m,Fri Mar 07 2025 14:11:44 GMT-0600 (Central Standard Time),543707.8999999985,1000,O,m,755,13,1,1778.3999999985099,541929.5,7099,NTS,A,4
1,5,test,3,C,triangle.png,1,z,Fri Mar 07 2025 14:11:44 GMT-0600 (Central Standard Time),546439.3999999985,1900,O,z,807,9,1,2727.2000000029802,543712.1999999955,7099,NTS,A,5
9,6,test,3,C,triangle.png,1,z,Fri Mar 07 2025 14:11:44 GMT-0600 (Central Standard Time),548807.0,1400,O,z,937,16,1,2363.5,546443.5,7099,NTS,A,6
4,7,test,3,C,triangle.png,1,m,Fri Mar 07 2025 14:11:44 GMT-0600 (Central Standard Time),551271.1999999955,1500,O,m,934,12,1,2459.1999999955297,548812.0,7099,NTS,A,7
2,8,test,3,C,circle.png,1,z,Fri Mar 07 2025 14:11:44 GMT-0600 (Central Standard Time),553803.6000000015,1700,O,z,813,10,1,2527.7000000029802,551275.8999999985,7099,NTS,A,8
7,9,test,3,C,circle.png,1,m,Fri Mar 07 2025 14:11:44 GMT-0600 (Central Standard Time),556420.1999999955,2000,O,m,587,14,1,2610.7999999970198,553809.3999999985,7099,NTS,A,9
8,10,test,3,C,circle.png,1,m,Fri Mar 07 2025 14:11:44 GMT-0600 (Central Standard Time),558304.1999999955,1200,O,m,661,15,1,1878.7999999970198,556425.3999999985,7099,NTS,A,10
8,11,test,3,C,triangle.png,1,m,Fri Mar 07 2025 14:11:44 GMT-0600 (Central Standard Time),560620.5,1600,O,m,699,7,1,2312.60000000149,558307.8999999985,7099,NTS,A,11
6,12,test,3,C,circle.png,1,m,Fri Mar 07 2025 14:11:44 GMT-0600 (Central Standard Time),563185.8999999985,1900,O,m,632,21,1,2560.7999999970198,560625.1000000015,7099,NTS,A,12
4,13,test,3,C,circle.png,1,z,Fri Mar 07 2025 14:11:44 GMT-0600 (Central Standard Time),565418.8999999985,1400,O,z,801,20,1,2228.10000000149,563190.799999997,7099,NTS,A,13
9,14,test,3,C,circle.png,1,m,Fri Mar 07 2025 14:11:44 GMT-0600 (Central Standard Time),567549.799999997,1500,O,m,604,8,1,2126.2999999970198,565423.5,7099,NTS,A,14
9,15,test,3,C,circle.png,1,m,Fri Mar 07 2025 14:11:44 GMT-0600 (Central Standard Time),569616.1999999955,1500,O,m,541,24,1,2061.7999999970198,567554.3999999985,7099,NTS,A,15
7,16,test,3,C,triangle.png,1,z,Fri Mar 07 2025 14:11:44 GMT-0600 (Central Standard Time),572165.5,1700,O,z,830,22,1,2545.5,569620.0,7099,NTS,A,16
3,17,test,3,C,triangle.png,1,z,Fri Mar 07 2025 14:11:44 GMT-0600 (Central Standard Time),574499.6000000015,1200,O,z,1116,3,1,2328.9000000059605,572170.6999999955,7099,NTS,A,17
6,18,test,3,C,circle.png,1,m,Fri Mar 07 2025 14:11:44 GMT-0600 (Central Standard Time),576980.299999997,1900,O,m,555,5,1,2475.1999999955297,574505.1000000015,7099,NTS,A,18
2,19,test,3,C,triangle.png,1,m,Fri Mar 07 2025 14:11:44 GMT-0600 (Central Standard Time),580478.0,2000,O,m,1474,2,1,3492.2000000029802,576985.799999997,7099,NTS,A,19
2,20,test,3,C,triangle.png,1,m,Fri Mar 07 2025 14:11:44 GMT-0600 (Central Standard Time),583228.6999999955,2000,O,m,732,18,1,2746.5,580482.1999999955,7099,NTS,A,20
4,21,test,3,C,circle.png,1,z,Fri Mar 07 2025 14:11:44 GMT-0600 (Central Standard Time),585993.299999997,1400,O,z,1337,4,1,2757.89999999851,583235.3999999985,7099,NTS,A,21
8,22,test,3,C,triangle.png,1,m,Fri Mar 07 2025 14:11:44 GMT-0600 (Central Standard Time),588243.8999999985,1600,O,m,615,23,1,2246.39999999851,585997.5,7099,NTS,A,22
1,23,test,3,C,circle.png,1,z,Fri Mar 07 2025 14:11:44 GMT-0600 (Central Standard Time),589993.0,1000,O,z,725,17,1,1743.3000000044703,588249.6999999955,7099,NTS,A,23
1,24,test,3,C,circle.png,1,z,Fri Mar 07 2025 14:11:44 GMT-0600 (Central Standard Time),591594.1000000015,1000,O,z,575,1,1,1597.0,589997.1000000015,7099,NTS,A,24
9,1,test,4,C,circle.png,1,m,Fri Mar 07 2025 14:11:44 GMT-0600 (Central Standard Time),609003.3999999985,1500,O,m,789,24,1,2305.0,606698.3999999985,7099,NTS,A,1
7,2,test,4,C,triangle.png,1,z,Fri Mar 07 2025 14:11:44 GMT-0600 (Central Standard Time),611486.8999999985,1700,O,z,752,6,1,2476.89999999851,609010.0,7099,NTS,A,2
2,3,test,4,C,triangle.png,1,m,Fri Mar 07 2025 14:11:44 GMT-0600 (Central Standard Time),614253.1000000015,2000,O,m,738,18,1,2761.0,611492.1000000015,7099,NTS,A,3
1,4,test,4,C,circle.png,1,z,Fri Mar 07 2025 14:11:44 GMT-0600 (Central Standard Time),615985.799999997,1000,O,z,715,1,1,1727.2999999970198,614258.5,7099,NTS,A,4
2,5,test,4,C,triangle.png,1,m,Fri Mar 07 2025 14:11:44 GMT-0600 (Central Standard Time),619050.1999999955,2000,O,m,1039,2,1,3060.5999999940395,615989.6000000015,7099,NTS,A,5
8,6,test,4,C,circle.png,1,m,Fri Mar 07 2025 14:11:44 GMT-0600 (Central Standard Time),620900.0,1200,O,m,623,15,1,1846.3000000044703,619053.6999999955,7099,NTS,A,6
1,7,test,4,C,circle.png,1,z,Fri Mar 07 2025 14:11:44 GMT-0600 (Central Standard Time),622900.6000000015,1000,O,z,982,17,1,1993.4000000059605,620907.1999999955,7099,NTS,A,7
9,8,test,4,C,triangle.png,1,z,Fri Mar 07 2025 14:11:44 GMT-0600 (Central Standard Time),625132.3999999985,1400,O,z,805,16,1,2225.7999999970198,622906.6000000015,7099,NTS,A,8
3,9,test,4,C,triangle.png,1,z,Fri Mar 07 2025 14:11:44 GMT-0600 (Central Standard Time),627148.1999999955,1200,O,z,798,3,1,2010.0999999940395,625138.1000000015,7099,NTS,A,9
7,10,test,4,C,circle.png,1,m,Fri Mar 07 2025 14:11:44 GMT-0600 (Central Standard Time),629713.6000000015,2000,O,m,540,14,1,2558.10000000149,627155.5,7099,NTS,A,10
6,11,test,4,C,triangle.png,1,m,Fri Mar 07 2025 14:11:44 GMT-0600 (Central Standard Time),631396.8999999985,1000,O,m,654,13,1,1678.2999999970198,629718.6000000015,7099,NTS,A,11
7,12,test,4,C,triangle.png,1,z,Fri Mar 07 2025 14:11:44 GMT-0600 (Central Standard Time),633963.1999999955,1700,O,z,839,22,1,2562.0999999940395,631401.1000000015,7099,NTS,A,12
4,13,test,4,C,circle.png,1,z,Fri Mar 07 2025 14:11:44 GMT-0600 (Central Standard Time),636395.6999999955,1400,O,z,1016,4,1,2428.0,633967.6999999955,7099,NTS,A,13
4,14,test,4,C,triangle.png,1,m,Fri Mar 07 2025 14:11:44 GMT-0600 (Central Standard Time),638644.8999999985,1500,O,m,732,12,1,2243.0,636401.8999999985,7099,NTS,A,14
9,15,test,4,C,circle.png,1,m,Fri Mar 07 2025 14:11:44 GMT-0600 (Central Standard Time),640962.299999997,1500,O,m,785,8,1,2311.60000000149,638650.6999999955,7099,NTS,A,15
6,16,test,4,C,circle.png,1,m,Fri Mar 07 2025 14:11:44 GMT-0600 (Central Standard Time),643543.6999999955,1900,O,m,661,5,1,2577.1999999955297,640966.5,7099,NTS,A,16
6,17,test,4,C,circle.png,1,m,Fri Mar 07 2025 14:11:44 GMT-0600 (Central Standard Time),646092.3999999985,1900,O,m,621,21,1,2543.5,643548.8999999985,7099,NTS,A,17
8,18,test,4,C,triangle.png,1,m,Fri Mar 07 2025 14:11:44 GMT-0600 (Central Standard Time),648707.299999997,1600,O,m,989,23,1,2609.6999999955297,646097.6000000015,7099,NTS,A,18
3,19,test,4,C,circle.png,1,z,Fri Mar 07 2025 14:11:44 GMT-0600 (Central Standard Time),651057.5,1600,O,z,717,11,1,2344.3000000044703,648713.1999999955,7099,NTS,A,19
2,20,test,4,C,circle.png,1,z,Fri Mar 07 2025 14:11:44 GMT-0600 (Central Standard Time),653724.299999997,1700,O,z,951,10,1,2661.60000000149,651062.6999999955,7099,NTS,A,20
4,21,test,4,C,circle.png,1,z,Fri Mar 07 2025 14:11:44 GMT-0600 (Central Standard Time),655871.6999999955,1400,O,z,726,20,1,2141.89999999851,653729.799999997,7099,NTS,A,21
3,22,test,4,C,triangle.png,1,z,Fri Mar 07 2025 14:11:44 GMT-0600 (Central Standard Time),657938.799999997,1200,O,z,840,19,1,2062.10000000149,655876.6999999955,7099,NTS,A,22
1,23,test,4,C,triangle.png,1,z,Fri Mar 07 2025 14:11:44 GMT-0600 (Central Standard Time),660486.799999997,1900,O,z,619,9,1,2541.10000000149,657945.6999999955,7099,NTS,A,23
8,24,test,4,C,triangle.png,1,m,Fri Mar 07 2025 14:11:44 GMT-0600 (Central Standard Time),663501.0,1600,O,m,1392,7,1,3008.89999999851,660492.1000000015,7099,NTS,A,24
