block_c,block_dur,condition,countdown,datetime,endtime,list,multichar_response,project,response,response_time,session_number,start_end,starttime,subject_id,task,task_vers,trial
,,,,Wed Mar 19 2025 17:21:00 GMT-0500 (Central Daylight Time),,,,O,space,424,1,,,7065,WL,C,
prac,,0,,Wed Mar 19 2025 17:21:00 GMT-0500 (Central Daylight Time),,NA,b,O,b,2985,1,,,7065,WL,C,1.0
prac,,0,,Wed Mar 19 2025 17:21:00 GMT-0500 (Central Daylight Time),,NA,bo,O,o,1045,1,,,7065,WL,C,1.0
prac,,0,,Wed Mar 19 2025 17:21:00 GMT-0500 (Central Daylight Time),,NA,boo,O,o,171,1,,,7065,WL,C,1.0
prac,,0,,Wed Mar 19 2025 17:21:00 GMT-0500 (Central Daylight Time),,NA,boos,O,s,500,1,,,7065,WL,C,1.0
prac,,0,,Wed Mar 19 2025 17:21:00 GMT-0500 (Central Daylight Time),,NA,boost,O,t,342,1,,,7065,WL,C,1.0
prac,,0,,Wed Mar 19 2025 17:21:00 GMT-0500 (Central Daylight Time),,NA,boostenter,O,enter,881,1,,,7065,WL,C,1.0
1,1.6170001029968262,learn,58382.999897003174,Wed Mar 19 2025 17:21:00 GMT-0500 (Central Daylight Time),145605.5,A,c,O,c,1608,1,1616.3999999994412,143989.10000000056,7065,WL,C,1.0
1,1.9830000400543213,learn,58016.99995994568,Wed Mar 19 2025 17:21:00 GMT-0500 (Central Daylight Time),145972.0,A,ca,O,a,358,1,1982.8999999994412,143989.10000000056,7065,WL,C,1.0
1,2.3329999446868896,learn,57667.00005531311,Wed Mar 19 2025 17:21:00 GMT-0500 (Central Daylight Time),146321.60000000056,A,cat,O,t,336,1,2332.5,143989.10000000056,7065,WL,C,1.0
1,2.499000072479248,learn,57500.99992752075,Wed Mar 19 2025 17:21:00 GMT-0500 (Central Daylight Time),146488.2999999998,A,catt,O,t,147,1,2499.199999999255,143989.10000000056,7065,WL,C,1.0
1,2.8989999294281006,learn,57101.0000705719,Wed Mar 19 2025 17:21:00 GMT-0500 (Central Daylight Time),146888.0,A,cattl,O,l,389,1,2898.899999999441,143989.10000000056,7065,WL,C,1.0
1,3.3329999446868896,learn,56667.00005531311,Wed Mar 19 2025 17:21:00 GMT-0500 (Central Daylight Time),147321.40000000037,A,cattle,O,e,421,1,3332.2999999998137,143989.10000000056,7065,WL,C,1.0
1,4.348999977111816,learn,55651.00002288818,Wed Mar 19 2025 17:21:00 GMT-0500 (Central Daylight Time),148337.7000000002,A,cattleenter,O,enter,995,1,4348.5999999996275,143989.10000000056,7065,WL,C,1.0
1,6.230999946594238,learn,53769.00005340576,Wed Mar 19 2025 17:21:00 GMT-0500 (Central Daylight Time),150220.2000000002,A,q,O,q,1867,1,1881.7999999998137,148338.40000000037,7065,WL,C,2.0
1,6.79800009727478,learn,53201.99990272522,Wed Mar 19 2025 17:21:00 GMT-0500 (Central Daylight Time),150787.0,A,qu,O,u,552,1,2448.5999999996275,148338.40000000037,7065,WL,C,2.0
1,7.247999906539917,learn,52752.00009346008,Wed Mar 19 2025 17:21:00 GMT-0500 (Central Daylight Time),151236.90000000037,A,que,O,e,434,1,2898.5,148338.40000000037,7065,WL,C,2.0
1,7.398000001907349,learn,52601.99999809265,Wed Mar 19 2025 17:21:00 GMT-0500 (Central Daylight Time),151386.40000000037,A,quee,O,e,143,1,3048.0,148338.40000000037,7065,WL,C,2.0
1,8.030999898910522,learn,51969.00010108948,Wed Mar 19 2025 17:21:00 GMT-0500 (Central Daylight Time),152019.90000000037,A,queen,O,n,618,1,3681.5,148338.40000000037,7065,WL,C,2.0
1,8.54699993133545,learn,51453.00006866455,Wed Mar 19 2025 17:21:00 GMT-0500 (Central Daylight Time),152536.2999999998,A,queenenter,O,enter,505,1,4197.899999999441,148338.40000000037,7065,WL,C,2.0
1,9.730000019073486,learn,50269.999980926514,Wed Mar 19 2025 17:21:00 GMT-0500 (Central Daylight Time),153719.2000000002,A,t,O,t,1172,1,1182.5,152536.7000000002,7065,WL,C,3.0
1,10.079999923706055,learn,49920.000076293945,Wed Mar 19 2025 17:21:00 GMT-0500 (Central Daylight Time),154069.2999999998,A,to,O,o,342,1,1532.5999999996275,152536.7000000002,7065,WL,C,3.0
1,10.663000106811523,learn,49336.99989318848,Wed Mar 19 2025 17:21:00 GMT-0500 (Central Daylight Time),154652.2000000002,A,tow,O,w,567,1,2115.5,152536.7000000002,7065,WL,C,3.0
1,10.897000074386597,learn,49102.9999256134,Wed Mar 19 2025 17:21:00 GMT-0500 (Central Daylight Time),154885.7999999998,A,towe,O,e,225,1,2349.0999999996275,152536.7000000002,7065,WL,C,3.0
1,11.147000074386597,learn,48852.9999256134,Wed Mar 19 2025 17:21:00 GMT-0500 (Central Daylight Time),155135.5,A,tower,O,r,231,1,2598.7999999998137,152536.7000000002,7065,WL,C,3.0
1,12.19700002670288,learn,47802.99997329712,Wed Mar 19 2025 17:21:00 GMT-0500 (Central Daylight Time),156185.90000000037,A,towerenter,O,enter,1045,1,3649.2000000001863,152536.7000000002,7065,WL,C,3.0
1,13.178999900817871,learn,46821.00009918213,Wed Mar 19 2025 17:21:00 GMT-0500 (Central Daylight Time),157168.0,A,n,O,n,970,1,981.7999999998137,156186.2000000002,7065,WL,C,4.0
1,13.628999948501587,learn,46371.00005149841,Wed Mar 19 2025 17:21:00 GMT-0500 (Central Daylight Time),157618.2000000002,A,na,O,a,426,1,1432.0,156186.2000000002,7065,WL,C,4.0
1,14.128999948501587,learn,45871.00005149841,Wed Mar 19 2025 17:21:00 GMT-0500 (Central Daylight Time),158118.0,A,nai,O,i,483,1,1931.7999999998137,156186.2000000002,7065,WL,C,4.0
1,14.411999940872192,learn,45588.00005912781,Wed Mar 19 2025 17:21:00 GMT-0500 (Central Daylight Time),158401.0,A,nail,O,l,271,1,2214.7999999998137,156186.2000000002,7065,WL,C,4.0
1,14.961999893188477,learn,45038.00010681152,Wed Mar 19 2025 17:21:00 GMT-0500 (Central Daylight Time),158950.7999999998,A,nailenter,O,enter,532,1,2764.5999999996275,156186.2000000002,7065,WL,C,4.0
1,20.377000093460083,learn,39622.99990653992,Wed Mar 19 2025 17:21:00 GMT-0500 (Central Daylight Time),164365.90000000037,A,w,O,w,5406,1,5414.700000000186,158951.2000000002,7065,WL,C,5.0
1,20.80999994277954,learn,39190.00005722046,Wed Mar 19 2025 17:21:00 GMT-0500 (Central Daylight Time),164799.2000000002,A,wh,O,h,423,1,5848.0,158951.2000000002,7065,WL,C,5.0
1,21.16100001335144,learn,38838.99998664856,Wed Mar 19 2025 17:21:00 GMT-0500 (Central Daylight Time),165149.90000000037,A,whe,O,e,333,1,6198.700000000186,158951.2000000002,7065,WL,C,5.0
1,21.443000078201294,learn,38556.999921798706,Wed Mar 19 2025 17:21:00 GMT-0500 (Central Daylight Time),165432.2999999998,A,whea,O,a,263,1,6481.0999999996275,158951.2000000002,7065,WL,C,5.0
1,21.776999950408936,learn,38223.000049591064,Wed Mar 19 2025 17:21:00 GMT-0500 (Central Daylight Time),165765.60000000056,A,wheat,O,t,325,1,6814.4000000003725,158951.2000000002,7065,WL,C,5.0
1,22.575999975204468,learn,37424.00002479553,Wed Mar 19 2025 17:21:00 GMT-0500 (Central Daylight Time),166565.10000000056,A,wheatenter,O,enter,792,1,7613.9000000003725,158951.2000000002,7065,WL,C,5.0
1,36.83699989318848,learn,23163.000106811523,Wed Mar 19 2025 17:21:00 GMT-0500 (Central Daylight Time),180827.2999999998,A,enter,O,enter,14256,1,14261.799999999814,166565.5,7065,WL,C,6.0
1,37.37100005149841,learn,22628.999948501587,Wed Mar 19 2025 17:21:00 GMT-0500 (Central Daylight Time),181360.7000000002,A,enter,O,enter,513,1,533.0,180827.7000000002,7065,WL,C,7.0
1,37.82100009918213,learn,22178.99990081787,Wed Mar 19 2025 17:21:00 GMT-0500 (Central Daylight Time),181810.40000000037,A,enter,O,enter,444,1,449.20000000018626,181361.2000000002,7065,WL,C,8.0
1,38.269999980926514,learn,21730.000019073486,Wed Mar 19 2025 17:21:00 GMT-0500 (Central Daylight Time),182260.2999999998,A,enter,O,enter,443,1,449.3999999994412,181810.90000000037,7065,WL,C,9.0
1,38.72000002861023,learn,21279.99997138977,Wed Mar 19 2025 17:21:00 GMT-0500 (Central Daylight Time),182710.2000000002,A,enter,O,enter,439,1,449.40000000037253,182260.7999999998,7065,WL,C,10.0
1,39.187999963760376,learn,20812.000036239624,Wed Mar 19 2025 17:21:00 GMT-0500 (Central Daylight Time),183178.10000000056,A,enter,O,enter,463,1,467.6000000005588,182710.5,7065,WL,C,11.0
1,39.687000036239624,learn,20312.999963760376,Wed Mar 19 2025 17:21:00 GMT-0500 (Central Daylight Time),183676.60000000056,A,enter,O,enter,491,1,498.30000000074506,183178.2999999998,7065,WL,C,12.0
1,40.18599987030029,learn,19814.000129699707,Wed Mar 19 2025 17:21:00 GMT-0500 (Central Daylight Time),184176.40000000037,A,enter,O,enter,488,1,499.29999999981374,183677.10000000056,7065,WL,C,13.0
1,40.68599987030029,learn,19314.000129699707,Wed Mar 19 2025 17:21:00 GMT-0500 (Central Daylight Time),184676.2000000002,A,enter,O,enter,485,1,499.29999999981374,184176.90000000037,7065,WL,C,14.0
1,41.26900005340576,learn,18730.99994659424,Wed Mar 19 2025 17:21:00 GMT-0500 (Central Daylight Time),185259.40000000037,A,enter,O,enter,569,1,582.7999999998137,184676.60000000056,7065,WL,C,15.0
2,1.0829999446868896,learn,58917.00005531311,Wed Mar 19 2025 17:21:00 GMT-0500 (Central Daylight Time),253254.90000000037,A,b,O,b,1066,1,1082.7999999998137,252172.10000000056,7065,WL,C,1.0
2,1.7330000400543213,learn,58266.99995994568,Wed Mar 19 2025 17:21:00 GMT-0500 (Central Daylight Time),253904.7000000002,A,bo,O,o,638,1,1732.5999999996275,252172.10000000056,7065,WL,C,1.0
2,2.2320001125335693,learn,57767.99988746643,Wed Mar 19 2025 17:21:00 GMT-0500 (Central Daylight Time),254404.40000000037,A,boy,O,y,492,1,2232.2999999998137,252172.10000000056,7065,WL,C,1.0
2,2.931999921798706,learn,57068.000078201294,Wed Mar 19 2025 17:21:00 GMT-0500 (Central Daylight Time),255104.10000000056,A,boyenter,O,enter,681,1,2932.0,252172.10000000056,7065,WL,C,1.0
2,3.997999906539917,learn,56002.00009346008,Wed Mar 19 2025 17:21:00 GMT-0500 (Central Daylight Time),256170.40000000037,A,c,O,c,1061,1,1065.9000000003725,255104.5,7065,WL,C,2.0
2,4.398000001907349,learn,55601.99999809265,Wed Mar 19 2025 17:21:00 GMT-0500 (Central Daylight Time),256570.2999999998,A,ca,O,a,395,1,1465.7999999998137,255104.5,7065,WL,C,2.0
2,4.931999921798706,learn,55068.000078201294,Wed Mar 19 2025 17:21:00 GMT-0500 (Central Daylight Time),257103.7000000002,A,cam,O,m,523,1,1999.2000000001863,255104.5,7065,WL,C,2.0
2,5.3480000495910645,learn,54651.999950408936,Wed Mar 19 2025 17:21:00 GMT-0500 (Central Daylight Time),257520.0,A,camp,O,p,397,1,2415.5,255104.5,7065,WL,C,2.0
2,6.015000104904175,learn,53984.999895095825,Wed Mar 19 2025 17:21:00 GMT-0500 (Central Daylight Time),258186.60000000056,A,campenter,O,enter,645,1,3082.100000000559,255104.5,7065,WL,C,2.0
2,8.579999923706055,learn,51420.000076293945,Wed Mar 19 2025 17:21:00 GMT-0500 (Central Daylight Time),260752.40000000037,A,f,O,f,2546,1,2565.2999999998137,258187.10000000056,7065,WL,C,3.0
2,8.864000082015991,learn,51135.99991798401,Wed Mar 19 2025 17:21:00 GMT-0500 (Central Daylight Time),261035.7999999998,A,fl,O,l,277,1,2848.699999999255,258187.10000000056,7065,WL,C,3.0
2,9.329999923706055,learn,50670.000076293945,Wed Mar 19 2025 17:21:00 GMT-0500 (Central Daylight Time),261502.2000000002,A,fla,O,a,449,1,3315.0999999996275,258187.10000000056,7065,WL,C,3.0
2,9.812999963760376,learn,50187.000036239624,Wed Mar 19 2025 17:21:00 GMT-0500 (Central Daylight Time),261985.2999999998,A,flag,O,g,463,1,3798.199999999255,258187.10000000056,7065,WL,C,3.0
2,10.579999923706055,learn,49420.000076293945,Wed Mar 19 2025 17:21:00 GMT-0500 (Central Daylight Time),262751.7999999998,A,flagenter,O,enter,748,1,4564.699999999255,258187.10000000056,7065,WL,C,3.0
2,11.345999956130981,learn,48654.00004386902,Wed Mar 19 2025 17:21:00 GMT-0500 (Central Daylight Time),263518.2999999998,A,l,O,l,749,1,766.0999999996275,262752.2000000002,7065,WL,C,4.0
2,11.763000011444092,learn,48236.99998855591,Wed Mar 19 2025 17:21:00 GMT-0500 (Central Daylight Time),263934.7999999998,A,le,O,e,407,1,1182.5999999996275,262752.2000000002,7065,WL,C,4.0
2,12.046000003814697,learn,47953.9999961853,Wed Mar 19 2025 17:21:00 GMT-0500 (Central Daylight Time),264218.2000000002,A,let,O,t,262,1,1466.0,262752.2000000002,7065,WL,C,4.0
2,12.178999900817871,learn,47821.00009918213,Wed Mar 19 2025 17:21:00 GMT-0500 (Central Daylight Time),264351.2999999998,A,lett,O,t,115,1,1599.0999999996275,262752.2000000002,7065,WL,C,4.0
2,12.428999900817871,learn,47571.00009918213,Wed Mar 19 2025 17:21:00 GMT-0500 (Central Daylight Time),264601.4000000004,A,lette,O,e,238,1,1849.2000000001863,262752.2000000002,7065,WL,C,4.0
2,12.562000036239624,learn,47437.999963760376,Wed Mar 19 2025 17:21:00 GMT-0500 (Central Daylight Time),264734.5,A,letter,O,r,115,1,1982.2999999998137,262752.2000000002,7065,WL,C,4.0
2,13.046000003814697,learn,46953.9999961853,Wed Mar 19 2025 17:21:00 GMT-0500 (Central Daylight Time),265217.7999999998,A,letterenter,O,enter,463,1,2465.5999999996275,262752.2000000002,7065,WL,C,4.0
2,13.84500002861023,learn,46154.99997138977,Wed Mar 19 2025 17:21:00 GMT-0500 (Central Daylight Time),266017.5,A,s,O,s,788,1,799.2999999998137,265218.2000000002,7065,WL,C,5.0
2,14.09500002861023,learn,45904.99997138977,Wed Mar 19 2025 17:21:00 GMT-0500 (Central Daylight Time),266267.2999999998,A,sh,O,h,236,1,1049.0999999996275,265218.2000000002,7065,WL,C,5.0
2,14.578999996185303,learn,45421.0000038147,Wed Mar 19 2025 17:21:00 GMT-0500 (Central Daylight Time),266750.7000000002,A,sho,O,o,474,1,1532.5,265218.2000000002,7065,WL,C,5.0
2,14.961999893188477,learn,45038.00010681152,Wed Mar 19 2025 17:21:00 GMT-0500 (Central Daylight Time),267134.2000000002,A,shor,O,r,366,1,1916.0,265218.2000000002,7065,WL,C,5.0
2,15.244999885559082,learn,44755.00011444092,Wed Mar 19 2025 17:21:00 GMT-0500 (Central Daylight Time),267417.10000000056,A,shore,O,e,271,1,2198.9000000003725,265218.2000000002,7065,WL,C,5.0
2,17.061000108718872,learn,42938.99989128113,Wed Mar 19 2025 17:21:00 GMT-0500 (Central Daylight Time),269233.4000000004,A,shoreenter,O,enter,1796,1,4015.2000000001863,265218.2000000002,7065,WL,C,5.0
2,20.109999895095825,learn,39890.000104904175,Wed Mar 19 2025 17:21:00 GMT-0500 (Central Daylight Time),272282.2000000002,A,q,O,q,3036,1,3048.4000000003725,269233.7999999998,7065,WL,C,6.0
2,20.509999990463257,learn,39490.00000953674,Wed Mar 19 2025 17:21:00 GMT-0500 (Central Daylight Time),272682.2000000002,A,qu,O,u,395,1,3448.4000000003725,269233.7999999998,7065,WL,C,6.0
2,20.842999935150146,learn,39157.00006484985,Wed Mar 19 2025 17:21:00 GMT-0500 (Central Daylight Time),273015.2999999998,A,que,O,e,323,1,3781.5,269233.7999999998,7065,WL,C,6.0
2,21.026999950408936,learn,38973.000049591064,Wed Mar 19 2025 17:21:00 GMT-0500 (Central Daylight Time),273198.60000000056,A,quee,O,e,166,1,3964.800000000745,269233.7999999998,7065,WL,C,6.0
2,21.542999982833862,learn,38457.00001716614,Wed Mar 19 2025 17:21:00 GMT-0500 (Central Daylight Time),273714.7999999998,A,queen,O,n,510,1,4481.0,269233.7999999998,7065,WL,C,6.0
2,21.89400005340576,learn,38105.99994659424,Wed Mar 19 2025 17:21:00 GMT-0500 (Central Daylight Time),274065.9000000004,A,queenenter,O,enter,338,1,4832.100000000559,269233.7999999998,7065,WL,C,6.0
2,22.694000005722046,learn,37305.999994277954,Wed Mar 19 2025 17:21:00 GMT-0500 (Central Daylight Time),274865.9000000004,A,w,O,w,779,1,799.7999999998137,274066.10000000056,7065,WL,C,7.0
2,23.108999967575073,learn,36891.00003242493,Wed Mar 19 2025 17:21:00 GMT-0500 (Central Daylight Time),275281.2999999998,A,wh,O,h,403,1,1215.199999999255,274066.10000000056,7065,WL,C,7.0
2,23.441999912261963,learn,36558.00008773804,Wed Mar 19 2025 17:21:00 GMT-0500 (Central Daylight Time),275614.2999999998,A,whe,O,e,324,1,1548.199999999255,274066.10000000056,7065,WL,C,7.0
2,23.70900011062622,learn,36290.99988937378,Wed Mar 19 2025 17:21:00 GMT-0500 (Central Daylight Time),275880.9000000004,A,whea,O,a,247,1,1814.7999999998137,274066.10000000056,7065,WL,C,7.0
2,24.026000022888184,learn,35973.99997711182,Wed Mar 19 2025 17:21:00 GMT-0500 (Central Daylight Time),276197.7000000002,A,wheat,O,t,308,1,2131.5999999996275,274066.10000000056,7065,WL,C,7.0
2,26.507999897003174,learn,33492.000102996826,Wed Mar 19 2025 17:21:00 GMT-0500 (Central Daylight Time),278680.2999999998,A,wheatenter,O,enter,2472,1,4614.199999999255,274066.10000000056,7065,WL,C,7.0
2,43.43600010871887,learn,16563.999891281128,Wed Mar 19 2025 17:21:00 GMT-0500 (Central Daylight Time),295608.2000000002,A,enter,O,enter,16917,1,16927.599999999627,278680.60000000056,7065,WL,C,8.0
2,43.668999910354614,learn,16331.000089645386,Wed Mar 19 2025 17:21:00 GMT-0500 (Central Daylight Time),295841.4000000004,A,enter,O,enter,213,1,232.90000000037253,295608.5,7065,WL,C,9.0
2,43.86899995803833,learn,16131.00004196167,Wed Mar 19 2025 17:21:00 GMT-0500 (Central Daylight Time),296041.4000000004,A,enter,O,enter,187,1,199.6000000005588,295841.7999999998,7065,WL,C,10.0
2,44.085999965667725,learn,15914.000034332275,Wed Mar 19 2025 17:21:00 GMT-0500 (Central Daylight Time),296258.10000000056,A,enter,O,enter,196,1,216.30000000074506,296041.7999999998,7065,WL,C,11.0
2,45.70099997520447,learn,14299.000024795532,Wed Mar 19 2025 17:21:00 GMT-0500 (Central Daylight Time),297874.0,A,enter,O,enter,1603,1,1615.5,296258.5,7065,WL,C,12.0
2,47.00099992752075,learn,12999.000072479248,Wed Mar 19 2025 17:21:00 GMT-0500 (Central Daylight Time),299173.9000000004,A,enter,O,enter,1283,1,1299.5,297874.4000000004,7065,WL,C,13.0
2,47.43400001525879,learn,12565.999984741211,Wed Mar 19 2025 17:21:00 GMT-0500 (Central Daylight Time),299606.9000000004,A,enter,O,enter,416,1,432.70000000018626,299174.2000000002,7065,WL,C,14.0
2,47.84999990463257,learn,12150.000095367432,Wed Mar 19 2025 17:21:00 GMT-0500 (Central Daylight Time),300023.5,A,enter,O,enter,406,1,416.20000000018626,299607.2999999998,7065,WL,C,15.0
3,1.0160000324249268,learn,58983.99996757507,Wed Mar 19 2025 17:21:00 GMT-0500 (Central Daylight Time),368435.5,A,b,O,b,1003,1,1016.5,367419.0,7065,WL,C,1.0
3,1.3280000686645508,learn,58671.99993133545,Wed Mar 19 2025 17:21:00 GMT-0500 (Central Daylight Time),368746.9000000004,A,bo,O,o,307,1,1327.9000000003725,367419.0,7065,WL,C,1.0
3,1.7330000400543213,learn,58266.99995994568,Wed Mar 19 2025 17:21:00 GMT-0500 (Central Daylight Time),369151.9000000004,A,bod,O,d,386,1,1732.9000000003725,367419.0,7065,WL,C,1.0
3,2.116000175476074,learn,57883.999824523926,Wed Mar 19 2025 17:21:00 GMT-0500 (Central Daylight Time),369535.0,A,body,O,y,365,1,2116.0,367419.0,7065,WL,C,1.0
3,2.5160000324249268,learn,57483.99996757507,Wed Mar 19 2025 17:21:00 GMT-0500 (Central Daylight Time),369934.9000000004,A,bodyenter,O,enter,382,1,2515.9000000003725,367419.0,7065,WL,C,1.0
3,2.9830000400543213,learn,57016.99995994568,Wed Mar 19 2025 17:21:00 GMT-0500 (Central Daylight Time),370401.7000000002,A,c,O,c,446,1,466.5,369935.2000000002,7065,WL,C,2.0
3,3.2990000247955322,learn,56700.99997520447,Wed Mar 19 2025 17:21:00 GMT-0500 (Central Daylight Time),370718.0,A,co,O,o,300,1,782.7999999998137,369935.2000000002,7065,WL,C,2.0
3,3.765000104904175,learn,56234.999895095825,Wed Mar 19 2025 17:21:00 GMT-0500 (Central Daylight Time),371184.5,A,cor,O,r,447,1,1249.2999999998137,369935.2000000002,7065,WL,C,2.0
3,4.432000160217285,learn,55567.999839782715,Wed Mar 19 2025 17:21:00 GMT-0500 (Central Daylight Time),371850.7000000002,A,corn,O,n,660,1,1915.5,369935.2000000002,7065,WL,C,2.0
3,4.882000207901001,learn,55117.999792099,Wed Mar 19 2025 17:21:00 GMT-0500 (Central Daylight Time),372300.9000000004,A,cornenter,O,enter,435,1,2365.7000000001863,369935.2000000002,7065,WL,C,2.0
3,6.965000152587891,learn,53034.99984741211,Wed Mar 19 2025 17:21:00 GMT-0500 (Central Daylight Time),374383.7000000002,A,b,O,b,2064,1,2082.5,372301.2000000002,7065,WL,C,3.0
3,7.29800009727478,learn,52701.99990272522,Wed Mar 19 2025 17:21:00 GMT-0500 (Central Daylight Time),374716.7999999998,A,bo,O,o,317,1,2415.5999999996275,372301.2000000002,7065,WL,C,3.0
3,7.63100004196167,learn,52368.99995803833,Wed Mar 19 2025 17:21:00 GMT-0500 (Central Daylight Time),375050.2000000002,A,boy,O,y,313,1,2749.0,372301.2000000002,7065,WL,C,3.0
3,8.081000089645386,learn,51918.999910354614,Wed Mar 19 2025 17:21:00 GMT-0500 (Central Daylight Time),375499.7999999998,A,boyenter,O,enter,443,1,3198.5999999996275,372301.2000000002,7065,WL,C,3.0
3,9.44700002670288,learn,50552.99997329712,Wed Mar 19 2025 17:21:00 GMT-0500 (Central Daylight Time),376866.10000000056,A,c,O,c,1354,1,1366.1000000005588,375500.0,7065,WL,C,4.0
3,9.781000137329102,learn,50218.9998626709,Wed Mar 19 2025 17:21:00 GMT-0500 (Central Daylight Time),377200.5,A,ca,O,a,315,1,1700.5,375500.0,7065,WL,C,4.0
3,10.130000114440918,learn,49869.99988555908,Wed Mar 19 2025 17:21:00 GMT-0500 (Central Daylight Time),377549.2999999998,A,cat,O,t,333,1,2049.2999999998137,375500.0,7065,WL,C,4.0
3,10.297000169754028,learn,49702.99983024597,Wed Mar 19 2025 17:21:00 GMT-0500 (Central Daylight Time),377715.9000000004,A,catt,O,t,152,1,2215.9000000003725,375500.0,7065,WL,C,4.0
3,10.597000122070312,learn,49402.99987792969,Wed Mar 19 2025 17:21:00 GMT-0500 (Central Daylight Time),378015.9000000004,A,cattl,O,l,281,1,2515.9000000003725,375500.0,7065,WL,C,4.0
3,10.94700002670288,learn,49052.99997329712,Wed Mar 19 2025 17:21:00 GMT-0500 (Central Daylight Time),378365.7999999998,A,cattle,O,e,333,1,2865.7999999998137,375500.0,7065,WL,C,4.0
3,11.430000066757202,learn,48569.9999332428,Wed Mar 19 2025 17:21:00 GMT-0500 (Central Daylight Time),378848.7999999998,A,cattleenter,O,enter,471,1,3348.7999999998137,375500.0,7065,WL,C,4.0
3,12.578999996185303,learn,47421.0000038147,Wed Mar 19 2025 17:21:00 GMT-0500 (Central Daylight Time),379998.2999999998,A,w,O,w,1132,1,1149.199999999255,378849.10000000056,7065,WL,C,5.0
3,12.92900013923645,learn,47070.99986076355,Wed Mar 19 2025 17:21:00 GMT-0500 (Central Daylight Time),380348.4000000004,A,wh,O,h,343,1,1499.2999999998137,378849.10000000056,7065,WL,C,5.0
3,13.195000171661377,learn,46804.99982833862,Wed Mar 19 2025 17:21:00 GMT-0500 (Central Daylight Time),380614.7000000002,A,whe,O,e,256,1,1765.5999999996275,378849.10000000056,7065,WL,C,5.0
3,13.462000131607056,learn,46537.999868392944,Wed Mar 19 2025 17:21:00 GMT-0500 (Central Daylight Time),380881.5,A,whea,O,a,254,1,2032.3999999994412,378849.10000000056,7065,WL,C,5.0
3,13.76200008392334,learn,46237.99991607666,Wed Mar 19 2025 17:21:00 GMT-0500 (Central Daylight Time),381181.4000000004,A,wheat,O,t,284,1,2332.2999999998137,378849.10000000056,7065,WL,C,5.0
3,14.279000043869019,learn,45720.99995613098,Wed Mar 19 2025 17:21:00 GMT-0500 (Central Daylight Time),381698.10000000056,A,wheatenter,O,enter,504,1,2849.0,378849.10000000056,7065,WL,C,5.0
3,15.912000179290771,learn,44087.99982070923,Wed Mar 19 2025 17:21:00 GMT-0500 (Central Daylight Time),383330.7999999998,A,q,O,q,1619,1,1632.3999999994412,381698.4000000004,7065,WL,C,6.0
3,16.312000036239624,learn,43687.999963760376,Wed Mar 19 2025 17:21:00 GMT-0500 (Central Daylight Time),383730.60000000056,A,qu,O,u,386,1,2032.2000000001863,381698.4000000004,7065,WL,C,6.0
3,16.6780002117157,learn,43321.9997882843,Wed Mar 19 2025 17:21:00 GMT-0500 (Central Daylight Time),384097.2999999998,A,que,O,e,347,1,2398.899999999441,381698.4000000004,7065,WL,C,6.0
3,16.84500002861023,learn,43154.99997138977,Wed Mar 19 2025 17:21:00 GMT-0500 (Central Daylight Time),384263.9000000004,A,quee,O,e,148,1,2565.5,381698.4000000004,7065,WL,C,6.0
3,17.74400019645691,learn,42255.99980354309,Wed Mar 19 2025 17:21:00 GMT-0500 (Central Daylight Time),385163.4000000004,A,queen,O,n,894,1,3465.0,381698.4000000004,7065,WL,C,6.0
3,18.427000045776367,learn,41572.99995422363,Wed Mar 19 2025 17:21:00 GMT-0500 (Central Daylight Time),385846.60000000056,A,queenenter,O,enter,666,1,4148.200000000186,381698.4000000004,7065,WL,C,6.0
3,19.0770001411438,learn,40922.9998588562,Wed Mar 19 2025 17:21:00 GMT-0500 (Central Daylight Time),386496.5,A,s,O,s,639,1,649.5999999996275,385846.9000000004,7065,WL,C,7.0
3,19.444000005722046,learn,40555.999994277954,Wed Mar 19 2025 17:21:00 GMT-0500 (Central Daylight Time),386863.0,A,su,O,u,357,1,1016.0999999996275,385846.9000000004,7065,WL,C,7.0
3,19.944000005722046,learn,40055.999994277954,Wed Mar 19 2025 17:21:00 GMT-0500 (Central Daylight Time),387363.0,A,sug,O,g,486,1,1516.0999999996275,385846.9000000004,7065,WL,C,7.0
3,20.3270001411438,learn,39672.9998588562,Wed Mar 19 2025 17:21:00 GMT-0500 (Central Daylight Time),387746.2000000002,A,suga,O,a,362,1,1899.2999999998137,385846.9000000004,7065,WL,C,7.0
3,20.5770001411438,learn,39422.9998588562,Wed Mar 19 2025 17:21:00 GMT-0500 (Central Daylight Time),387996.2000000002,A,sugar,O,r,235,1,2149.2999999998137,385846.9000000004,7065,WL,C,7.0
3,21.0770001411438,learn,38922.9998588562,Wed Mar 19 2025 17:21:00 GMT-0500 (Central Daylight Time),388495.9000000004,A,sugarenter,O,enter,481,1,2649.0,385846.9000000004,7065,WL,C,7.0
3,21.509999990463257,learn,38490.00000953674,Wed Mar 19 2025 17:21:00 GMT-0500 (Central Daylight Time),388929.0,A,t,O,t,414,1,432.79999999981374,388496.2000000002,7065,WL,C,8.0
3,21.81000018119812,learn,38189.99981880188,Wed Mar 19 2025 17:21:00 GMT-0500 (Central Daylight Time),389228.9000000004,A,to,O,o,284,1,732.7000000001863,388496.2000000002,7065,WL,C,8.0
3,22.326000213623047,learn,37673.99978637695,Wed Mar 19 2025 17:21:00 GMT-0500 (Central Daylight Time),389745.2999999998,A,tow,O,w,504,1,1249.0999999996275,388496.2000000002,7065,WL,C,8.0
3,22.55900001525879,learn,37440.99998474121,Wed Mar 19 2025 17:21:00 GMT-0500 (Central Daylight Time),389978.60000000056,A,towe,O,e,228,1,1482.4000000003725,388496.2000000002,7065,WL,C,8.0
3,22.859000205993652,learn,37140.99979400635,Wed Mar 19 2025 17:21:00 GMT-0500 (Central Daylight Time),390278.60000000056,A,tower,O,r,291,1,1782.4000000003725,388496.2000000002,7065,WL,C,8.0
3,23.426000118255615,learn,36573.999881744385,Wed Mar 19 2025 17:21:00 GMT-0500 (Central Daylight Time),390845.2000000002,A,towerenter,O,enter,559,1,2349.0,388496.2000000002,7065,WL,C,8.0
3,24.492000102996826,learn,35507.999897003174,Wed Mar 19 2025 17:21:00 GMT-0500 (Central Daylight Time),391911.10000000056,A,f,O,f,1056,1,1065.6000000005588,390845.5,7065,WL,C,9.0
3,25.004000186920166,learn,34995.999813079834,Wed Mar 19 2025 17:21:00 GMT-0500 (Central Daylight Time),392423.60000000056,A,fl,O,l,360,1,1578.1000000005588,390845.5,7065,WL,C,9.0
3,25.192000150680542,learn,34807.99984931946,Wed Mar 19 2025 17:21:00 GMT-0500 (Central Daylight Time),392610.9000000004,A,fla,O,a,180,1,1765.4000000003725,390845.5,7065,WL,C,9.0
3,26.009000062942505,learn,33990.999937057495,Wed Mar 19 2025 17:21:00 GMT-0500 (Central Daylight Time),393427.7000000002,A,flag,O,g,802,1,2582.2000000001863,390845.5,7065,WL,C,9.0
3,26.391000032424927,learn,33608.99996757507,Wed Mar 19 2025 17:21:00 GMT-0500 (Central Daylight Time),393810.60000000056,A,flagenter,O,enter,378,1,2965.100000000559,390845.5,7065,WL,C,9.0
3,26.907999992370605,learn,33092.000007629395,Wed Mar 19 2025 17:21:00 GMT-0500 (Central Daylight Time),394327.2999999998,A,s,O,s,499,1,516.5,393810.7999999998,7065,WL,C,10.0
3,27.391000032424927,learn,32608.999967575073,Wed Mar 19 2025 17:21:00 GMT-0500 (Central Daylight Time),394810.5,A,sh,O,h,470,1,999.7000000001863,393810.7999999998,7065,WL,C,10.0
3,27.841000080108643,learn,32158.999919891357,Wed Mar 19 2025 17:21:00 GMT-0500 (Central Daylight Time),395260.60000000056,A,sho,O,o,435,1,1449.800000000745,393810.7999999998,7065,WL,C,10.0
3,28.20800018310547,learn,31791.99981689453,Wed Mar 19 2025 17:21:00 GMT-0500 (Central Daylight Time),395626.9000000004,A,shor,O,r,353,1,1816.1000000005588,393810.7999999998,7065,WL,C,10.0
3,28.507000207901,learn,31492.999792099,Wed Mar 19 2025 17:21:00 GMT-0500 (Central Daylight Time),395926.5,A,shore,O,e,282,1,2115.7000000001863,393810.7999999998,7065,WL,C,10.0
3,28.991000175476074,learn,31008.999824523926,Wed Mar 19 2025 17:21:00 GMT-0500 (Central Daylight Time),396410.10000000056,A,shoreenter,O,enter,478,1,2599.300000000745,393810.7999999998,7065,WL,C,10.0
3,30.124000072479248,learn,29875.999927520752,Wed Mar 19 2025 17:21:00 GMT-0500 (Central Daylight Time),397543.10000000056,A,t,O,t,1123,1,1132.7000000001863,396410.4000000004,7065,WL,C,11.0
3,30.35700011253357,learn,29642.99988746643,Wed Mar 19 2025 17:21:00 GMT-0500 (Central Daylight Time),397776.2999999998,A,to,O,o,214,1,1365.8999999994412,396410.4000000004,7065,WL,C,11.0
3,30.707000017166138,learn,29292.999982833862,Wed Mar 19 2025 17:21:00 GMT-0500 (Central Daylight Time),398126.0,A,tow,O,w,341,1,1715.5999999996275,396410.4000000004,7065,WL,C,11.0
3,30.924000024795532,learn,29075.999975204468,Wed Mar 19 2025 17:21:00 GMT-0500 (Central Daylight Time),398343.0,A,towe,O,e,207,1,1932.5999999996275,396410.4000000004,7065,WL,C,11.0
3,31.19000005722046,learn,28809.99994277954,Wed Mar 19 2025 17:21:00 GMT-0500 (Central Daylight Time),398609.4000000004,A,tower,O,r,254,1,2199.0,396410.4000000004,7065,WL,C,11.0
3,31.657000064849854,learn,28342.999935150146,Wed Mar 19 2025 17:21:00 GMT-0500 (Central Daylight Time),399075.9000000004,A,towerenter,O,enter,452,1,2665.5,396410.4000000004,7065,WL,C,11.0
3,33.58900022506714,learn,26410.99977493286,Wed Mar 19 2025 17:21:00 GMT-0500 (Central Daylight Time),401008.5,A,b,O,b,1914,1,1932.2999999998137,399076.2000000002,7065,WL,C,12.0
3,33.85600018501282,learn,26143.999814987183,Wed Mar 19 2025 17:21:00 GMT-0500 (Central Daylight Time),401275.2000000002,A,bo,O,o,253,1,2199.0,399076.2000000002,7065,WL,C,12.0
3,34.223000049591064,learn,25776.999950408936,Wed Mar 19 2025 17:21:00 GMT-0500 (Central Daylight Time),401642.0,A,bod,O,d,346,1,2565.7999999998137,399076.2000000002,7065,WL,C,12.0
3,34.43900012969971,learn,25560.999870300293,Wed Mar 19 2025 17:21:00 GMT-0500 (Central Daylight Time),401858.5,A,body,O,y,203,1,2782.2999999998137,399076.2000000002,7065,WL,C,12.0
3,34.83900022506714,learn,25160.99977493286,Wed Mar 19 2025 17:21:00 GMT-0500 (Central Daylight Time),402258.10000000056,A,bodyenter,O,enter,395,1,3181.9000000003725,399076.2000000002,7065,WL,C,12.0
3,40.05400013923645,learn,19945.99986076355,Wed Mar 19 2025 17:21:00 GMT-0500 (Central Daylight Time),407473.5,A,enter,O,enter,5203,1,5215.0999999996275,402258.4000000004,7065,WL,C,13.0
3,40.37100005149841,learn,19628.999948501587,Wed Mar 19 2025 17:21:00 GMT-0500 (Central Daylight Time),407789.7999999998,A,enter,O,enter,300,1,315.8999999994412,407473.9000000004,7065,WL,C,14.0
3,40.6710000038147,learn,19328.999996185303,Wed Mar 19 2025 17:21:00 GMT-0500 (Central Daylight Time),408089.7000000002,A,enter,O,enter,288,1,299.59999999962747,407790.10000000056,7065,WL,C,15.0
4,1.0490000247955322,learn,58950.99997520447,Wed Mar 19 2025 17:21:00 GMT-0500 (Central Daylight Time),476385.0,A,b,O,b,1038,1,1049.5999999996275,475335.4000000004,7065,WL,C,1.0
4,1.315999984741211,learn,58684.00001525879,Wed Mar 19 2025 17:21:00 GMT-0500 (Central Daylight Time),476651.4000000004,A,bo,O,o,260,1,1316.0,475335.4000000004,7065,WL,C,1.0
4,1.8489999771118164,learn,58151.00002288818,Wed Mar 19 2025 17:21:00 GMT-0500 (Central Daylight Time),477184.9000000004,A,bod,O,d,514,1,1849.5,475335.4000000004,7065,WL,C,1.0
4,2.2149999141693115,learn,57785.00008583069,Wed Mar 19 2025 17:21:00 GMT-0500 (Central Daylight Time),477551.2000000002,A,body,O,y,356,1,2215.7999999998137,475335.4000000004,7065,WL,C,1.0
4,2.5480000972747803,learn,57451.99990272522,Wed Mar 19 2025 17:21:00 GMT-0500 (Central Daylight Time),477884.2000000002,A,bodyenter,O,enter,326,1,2548.7999999998137,475335.4000000004,7065,WL,C,1.0
4,3.065000057220459,learn,56934.99994277954,Wed Mar 19 2025 17:21:00 GMT-0500 (Central Daylight Time),478400.9000000004,A,s,O,s,505,1,516.2999999998137,477884.60000000056,7065,WL,C,2.0
4,3.5810000896453857,learn,56418.999910354614,Wed Mar 19 2025 17:21:00 GMT-0500 (Central Daylight Time),478917.5,A,sh,O,h,508,1,1032.8999999994412,477884.60000000056,7065,WL,C,2.0
4,3.8980000019073486,learn,56101.99999809265,Wed Mar 19 2025 17:21:00 GMT-0500 (Central Daylight Time),479234.10000000056,A,sho,O,o,312,1,1349.5,477884.60000000056,7065,WL,C,2.0
4,4.315000057220459,learn,55684.99994277954,Wed Mar 19 2025 17:21:00 GMT-0500 (Central Daylight Time),479650.60000000056,A,shor,O,r,395,1,1766.0,477884.60000000056,7065,WL,C,2.0
4,4.581000089645386,learn,55418.999910354614,Wed Mar 19 2025 17:21:00 GMT-0500 (Central Daylight Time),479917.2000000002,A,shore,O,e,259,1,2032.5999999996275,477884.60000000056,7065,WL,C,2.0
4,5.0309998989105225,learn,54969.00010108948,Wed Mar 19 2025 17:21:00 GMT-0500 (Central Daylight Time),480367.2000000002,A,shoreenter,O,enter,440,1,2482.5999999996275,477884.60000000056,7065,WL,C,2.0
4,6.21399998664856,learn,53786.00001335144,Wed Mar 19 2025 17:21:00 GMT-0500 (Central Daylight Time),481550.0,A,n,O,n,1174,1,1182.5,480367.5,7065,WL,C,3.0
4,6.680000066757202,learn,53319.9999332428,Wed Mar 19 2025 17:21:00 GMT-0500 (Central Daylight Time),482016.4000000004,A,na,O,a,455,1,1648.9000000003725,480367.5,7065,WL,C,3.0
4,7.096999883651733,learn,52903.00011634827,Wed Mar 19 2025 17:21:00 GMT-0500 (Central Daylight Time),482433.0,A,nai,O,i,397,1,2065.5,480367.5,7065,WL,C,3.0
4,7.379999876022339,learn,52620.00012397766,Wed Mar 19 2025 17:21:00 GMT-0500 (Central Daylight Time),482716.2999999998,A,nail,O,l,277,1,2348.7999999998137,480367.5,7065,WL,C,3.0
4,7.71399998664856,learn,52286.00001335144,Wed Mar 19 2025 17:21:00 GMT-0500 (Central Daylight Time),483049.7000000002,A,nailenter,O,enter,313,1,2682.2000000001863,480367.5,7065,WL,C,3.0
4,8.230000019073486,learn,51769.999980926514,Wed Mar 19 2025 17:21:00 GMT-0500 (Central Daylight Time),483565.9000000004,A,l,O,l,500,1,516.0,483049.9000000004,7065,WL,C,4.0
4,8.647000074386597,learn,51352.9999256134,Wed Mar 19 2025 17:21:00 GMT-0500 (Central Daylight Time),483982.7000000002,A,le,O,e,398,1,932.7999999998137,483049.9000000004,7065,WL,C,4.0
4,8.930000066757202,learn,51069.9999332428,Wed Mar 19 2025 17:21:00 GMT-0500 (Central Daylight Time),484265.7999999998,A,let,O,t,271,1,1215.8999999994412,483049.9000000004,7065,WL,C,4.0
4,9.079999923706055,learn,50920.000076293945,Wed Mar 19 2025 17:21:00 GMT-0500 (Central Daylight Time),484415.7000000002,A,lett,O,t,139,1,1365.7999999998137,483049.9000000004,7065,WL,C,4.0
4,9.329999923706055,learn,50670.000076293945,Wed Mar 19 2025 17:21:00 GMT-0500 (Central Daylight Time),484665.7000000002,A,lette,O,e,238,1,1615.7999999998137,483049.9000000004,7065,WL,C,4.0
4,9.414000034332275,learn,50585.999965667725,Wed Mar 19 2025 17:21:00 GMT-0500 (Central Daylight Time),484750.2000000002,A,letter,O,r,76,1,1700.2999999998137,483049.9000000004,7065,WL,C,4.0
4,9.878999948501587,learn,50121.00005149841,Wed Mar 19 2025 17:21:00 GMT-0500 (Central Daylight Time),485215.5,A,letterenter,O,enter,447,1,2165.5999999996275,483049.9000000004,7065,WL,C,4.0
4,10.578999996185303,learn,49421.0000038147,Wed Mar 19 2025 17:21:00 GMT-0500 (Central Daylight Time),485915.0,A,d,O,d,694,1,699.2000000001863,485215.7999999998,7065,WL,C,5.0
4,10.928999900817871,learn,49071.00009918213,Wed Mar 19 2025 17:21:00 GMT-0500 (Central Daylight Time),486265.2000000002,A,do,O,o,338,1,1049.4000000003725,485215.7999999998,7065,WL,C,5.0
4,11.328999996185303,learn,48671.0000038147,Wed Mar 19 2025 17:21:00 GMT-0500 (Central Daylight Time),486664.7999999998,A,doc,O,c,382,1,1449.0,485215.7999999998,7065,WL,C,5.0
4,11.661999940872192,learn,48338.00005912781,Wed Mar 19 2025 17:21:00 GMT-0500 (Central Daylight Time),486998.2000000002,A,doct,O,t,316,1,1782.4000000003725,485215.7999999998,7065,WL,C,5.0
4,12.111999988555908,learn,47888.00001144409,Wed Mar 19 2025 17:21:00 GMT-0500 (Central Daylight Time),487448.10000000056,A,docto,O,o,439,1,2232.300000000745,485215.7999999998,7065,WL,C,5.0
4,12.444999933242798,learn,47555.0000667572,Wed Mar 19 2025 17:21:00 GMT-0500 (Central Daylight Time),487781.4000000004,A,doctor,O,r,325,1,2565.600000000559,485215.7999999998,7065,WL,C,5.0
4,12.911999940872192,learn,47088.00005912781,Wed Mar 19 2025 17:21:00 GMT-0500 (Central Daylight Time),488247.7999999998,A,doctorenter,O,enter,456,1,3032.0,485215.7999999998,7065,WL,C,5.0
4,13.59500002861023,learn,46404.99997138977,Wed Mar 19 2025 17:21:00 GMT-0500 (Central Daylight Time),488931.10000000056,A,f,O,f,670,1,683.0,488248.10000000056,7065,WL,C,6.0
4,13.861999988555908,learn,46138.00001144409,Wed Mar 19 2025 17:21:00 GMT-0500 (Central Daylight Time),489197.7000000002,A,fl,O,l,258,1,949.5999999996275,488248.10000000056,7065,WL,C,6.0
4,14.32800006866455,learn,45671.99993133545,Wed Mar 19 2025 17:21:00 GMT-0500 (Central Daylight Time),489664.10000000056,A,fla,O,a,448,1,1416.0,488248.10000000056,7065,WL,C,6.0
4,14.82800006866455,learn,45171.99993133545,Wed Mar 19 2025 17:21:00 GMT-0500 (Central Daylight Time),490164.4000000004,A,flag,O,g,486,1,1916.2999999998137,488248.10000000056,7065,WL,C,6.0
4,15.32800006866455,learn,44671.99993133545,Wed Mar 19 2025 17:21:00 GMT-0500 (Central Daylight Time),490664.10000000056,A,flagenter,O,enter,489,1,2416.0,488248.10000000056,7065,WL,C,6.0
4,17.377000093460083,learn,42622.99990653992,Wed Mar 19 2025 17:21:00 GMT-0500 (Central Daylight Time),492713.10000000056,A,q,O,q,2030,1,2048.800000000745,490664.2999999998,7065,WL,C,7.0
4,17.80999994277954,learn,42190.00005722046,Wed Mar 19 2025 17:21:00 GMT-0500 (Central Daylight Time),493146.2999999998,A,qu,O,u,420,1,2482.0,490664.2999999998,7065,WL,C,7.0
4,18.127000093460083,learn,41872.99990653992,Wed Mar 19 2025 17:21:00 GMT-0500 (Central Daylight Time),493463.0,A,que,O,e,299,1,2798.7000000001863,490664.2999999998,7065,WL,C,7.0
4,18.276999950408936,learn,41723.000049591064,Wed Mar 19 2025 17:21:00 GMT-0500 (Central Daylight Time),493613.0,A,quee,O,e,141,1,2948.7000000001863,490664.2999999998,7065,WL,C,7.0
4,18.80999994277954,learn,41190.00005722046,Wed Mar 19 2025 17:21:00 GMT-0500 (Central Daylight Time),494145.9000000004,A,queen,O,n,520,1,3481.600000000559,490664.2999999998,7065,WL,C,7.0
4,19.177000045776367,learn,40822.99995422363,Wed Mar 19 2025 17:21:00 GMT-0500 (Central Daylight Time),494512.9000000004,A,queenenter,O,enter,355,1,3848.600000000559,490664.2999999998,7065,WL,C,7.0
4,19.658999919891357,learn,40341.00008010864,Wed Mar 19 2025 17:21:00 GMT-0500 (Central Daylight Time),494995.60000000056,A,s,O,s,477,1,482.5,494513.10000000056,7065,WL,C,8.0
4,20.042999982833862,learn,39957.00001716614,Wed Mar 19 2025 17:21:00 GMT-0500 (Central Daylight Time),495379.0,A,su,O,u,370,1,865.8999999994412,494513.10000000056,7065,WL,C,8.0
4,20.493000030517578,learn,39506.99996948242,Wed Mar 19 2025 17:21:00 GMT-0500 (Central Daylight Time),495828.9000000004,A,sug,O,g,434,1,1315.7999999998137,494513.10000000056,7065,WL,C,8.0
4,20.875999927520752,learn,39124.00007247925,Wed Mar 19 2025 17:21:00 GMT-0500 (Central Daylight Time),496212.10000000056,A,suga,O,a,369,1,1699.0,494513.10000000056,7065,WL,C,8.0
4,21.2260000705719,learn,38773.9999294281,Wed Mar 19 2025 17:21:00 GMT-0500 (Central Daylight Time),496562.5,A,sugar,O,r,345,1,2049.399999999441,494513.10000000056,7065,WL,C,8.0
4,21.658999919891357,learn,38341.00008010864,Wed Mar 19 2025 17:21:00 GMT-0500 (Central Daylight Time),496995.10000000056,A,sugarenter,O,enter,427,1,2482.0,494513.10000000056,7065,WL,C,8.0
4,22.22699999809265,learn,37773.00000190735,Wed Mar 19 2025 17:21:00 GMT-0500 (Central Daylight Time),497562.7999999998,A,w,O,w,547,1,567.5,496995.2999999998,7065,WL,C,9.0
4,22.674999952316284,learn,37325.000047683716,Wed Mar 19 2025 17:21:00 GMT-0500 (Central Daylight Time),498011.60000000056,A,wh,O,h,442,1,1016.3000000007451,496995.2999999998,7065,WL,C,9.0
4,22.991999864578247,learn,37008.00013542175,Wed Mar 19 2025 17:21:00 GMT-0500 (Central Daylight Time),498328.0,A,whe,O,e,298,1,1332.7000000001863,496995.2999999998,7065,WL,C,9.0
4,23.30900001525879,learn,36690.99998474121,Wed Mar 19 2025 17:21:00 GMT-0500 (Central Daylight Time),498644.60000000056,A,whea,O,a,301,1,1649.300000000745,496995.2999999998,7065,WL,C,9.0
4,23.608999967575073,learn,36391.00003242493,Wed Mar 19 2025 17:21:00 GMT-0500 (Central Daylight Time),498944.7999999998,A,wheat,O,t,281,1,1949.5,496995.2999999998,7065,WL,C,9.0
4,24.058000087738037,learn,35941.99991226196,Wed Mar 19 2025 17:21:00 GMT-0500 (Central Daylight Time),499394.2999999998,A,wheatenter,O,enter,437,1,2399.0,496995.2999999998,7065,WL,C,9.0
4,25.45799994468689,learn,34542.00005531311,Wed Mar 19 2025 17:21:00 GMT-0500 (Central Daylight Time),500794.10000000056,A,f,O,f,1395,1,1399.5,499394.60000000056,7065,WL,C,10.0
4,25.756999969482422,learn,34243.00003051758,Wed Mar 19 2025 17:21:00 GMT-0500 (Central Daylight Time),501093.60000000056,A,fl,O,l,282,1,1699.0,499394.60000000056,7065,WL,C,10.0
4,26.19099998474121,learn,33809.00001525879,Wed Mar 19 2025 17:21:00 GMT-0500 (Central Daylight Time),501527.0,A,fla,O,a,424,1,2132.399999999441,499394.60000000056,7065,WL,C,10.0
4,27.289999961853027,learn,32710.000038146973,Wed Mar 19 2025 17:21:00 GMT-0500 (Central Daylight Time),502626.5,A,flag,O,g,1095,1,3231.899999999441,499394.60000000056,7065,WL,C,10.0
4,29.740000009536743,learn,30259.999990463257,Wed Mar 19 2025 17:21:00 GMT-0500 (Central Daylight Time),505076.0,A,flagenter,O,enter,2435,1,5681.399999999441,499394.60000000056,7065,WL,C,10.0
4,31.457000017166138,learn,28542.999982833862,Wed Mar 19 2025 17:21:00 GMT-0500 (Central Daylight Time),506792.60000000056,A,b,O,b,1698,1,1716.300000000745,505076.2999999998,7065,WL,C,11.0
4,31.789000034332275,learn,28210.999965667725,Wed Mar 19 2025 17:21:00 GMT-0500 (Central Daylight Time),507125.2999999998,A,bo,O,o,317,1,2049.0,505076.2999999998,7065,WL,C,11.0
4,32.07200002670288,learn,27927.99997329712,Wed Mar 19 2025 17:21:00 GMT-0500 (Central Daylight Time),507408.60000000056,A,boy,O,y,272,1,2332.300000000745,505076.2999999998,7065,WL,C,11.0
4,32.43899989128113,learn,27561.000108718872,Wed Mar 19 2025 17:21:00 GMT-0500 (Central Daylight Time),507775.10000000056,A,boyenter,O,enter,349,1,2698.800000000745,505076.2999999998,7065,WL,C,11.0
4,32.954999923706055,learn,27045.000076293945,Wed Mar 19 2025 17:21:00 GMT-0500 (Central Daylight Time),508291.2000000002,A,t,O,t,510,1,515.7999999998137,507775.4000000004,7065,WL,C,12.0
4,33.289000034332275,learn,26710.999965667725,Wed Mar 19 2025 17:21:00 GMT-0500 (Central Daylight Time),508624.7999999998,A,to,O,o,314,1,849.3999999994412,507775.4000000004,7065,WL,C,12.0
4,33.68899989128113,learn,26311.000108718872,Wed Mar 19 2025 17:21:00 GMT-0500 (Central Daylight Time),509024.7999999998,A,tow,O,w,381,1,1249.3999999994412,507775.4000000004,7065,WL,C,12.0
4,33.90499997138977,learn,26095.00002861023,Wed Mar 19 2025 17:21:00 GMT-0500 (Central Daylight Time),509241.2999999998,A,towe,O,e,204,1,1465.8999999994412,507775.4000000004,7065,WL,C,12.0
4,34.105000019073486,learn,25894.999980926514,Wed Mar 19 2025 17:21:00 GMT-0500 (Central Daylight Time),509441.2000000002,A,tower,O,r,188,1,1665.7999999998137,507775.4000000004,7065,WL,C,12.0
4,34.78099989891052,learn,25219.000101089478,Wed Mar 19 2025 17:21:00 GMT-0500 (Central Daylight Time),510117.5,A,towerenter,O,enter,525,1,2342.0999999996275,507775.4000000004,7065,WL,C,12.0
4,35.0220000743866,learn,24977.999925613403,Wed Mar 19 2025 17:21:00 GMT-0500 (Central Daylight Time),510357.7000000002,A,d,O,d,223,1,239.90000000037253,510117.7999999998,7065,WL,C,13.0
4,35.3050000667572,learn,24694.999933242798,Wed Mar 19 2025 17:21:00 GMT-0500 (Central Daylight Time),510640.7000000002,A,do,O,o,272,1,522.9000000003725,510117.7999999998,7065,WL,C,13.0
4,35.687999963760376,learn,24312.000036239624,Wed Mar 19 2025 17:21:00 GMT-0500 (Central Daylight Time),511024.10000000056,A,doc,O,c,365,1,906.3000000007451,510117.7999999998,7065,WL,C,13.0
4,36.00499987602234,learn,23995.00012397766,Wed Mar 19 2025 17:21:00 GMT-0500 (Central Daylight Time),511340.7999999998,A,doct,O,t,302,1,1223.0,510117.7999999998,7065,WL,C,13.0
4,36.3050000667572,learn,23694.999933242798,Wed Mar 19 2025 17:21:00 GMT-0500 (Central Daylight Time),511640.7999999998,A,docto,O,o,281,1,1523.0,510117.7999999998,7065,WL,C,13.0
4,36.65599989891052,learn,23344.000101089478,Wed Mar 19 2025 17:21:00 GMT-0500 (Central Daylight Time),511991.7999999998,A,doctor,O,r,333,1,1874.0,510117.7999999998,7065,WL,C,13.0
4,37.05399990081787,learn,22946.00009918213,Wed Mar 19 2025 17:21:00 GMT-0500 (Central Daylight Time),512390.5,A,doctorenter,O,enter,390,1,2272.7000000001863,510117.7999999998,7065,WL,C,13.0
4,38.98699998855591,learn,21013.00001144409,Wed Mar 19 2025 17:21:00 GMT-0500 (Central Daylight Time),514322.7000000002,A,enter,O,enter,1927,1,1931.9000000003725,512390.7999999998,7065,WL,C,14.0
4,39.30399990081787,learn,20696.00009918213,Wed Mar 19 2025 17:21:00 GMT-0500 (Central Daylight Time),514639.60000000056,A,enter,O,enter,307,1,316.6000000005588,514323.0,7065,WL,C,15.0
5,0.5669999122619629,learn,60000.0,Wed Mar 19 2025 17:21:00 GMT-0500 (Central Daylight Time),582968.2999999998,A,b,O,b,556,1,566.3999999994412,582401.9000000004,7065,WL,C,1.0
5,0.8329999446868896,learn,60000.0,Wed Mar 19 2025 17:21:00 GMT-0500 (Central Daylight Time),583235.0,A,bo,O,o,253,1,833.0999999996275,582401.9000000004,7065,WL,C,1.0
5,1.6499998569488525,learn,60000.0,Wed Mar 19 2025 17:21:00 GMT-0500 (Central Daylight Time),584051.2000000002,A,bod,O,d,803,1,1649.2999999998137,582401.9000000004,7065,WL,C,1.0
5,1.9830000400543213,learn,60000.0,Wed Mar 19 2025 17:21:00 GMT-0500 (Central Daylight Time),584384.4000000004,A,body,O,y,314,1,1982.5,582401.9000000004,7065,WL,C,1.0
5,2.5989999771118164,learn,60000.0,Wed Mar 19 2025 17:21:00 GMT-0500 (Central Daylight Time),585001.0,A,bodyenter,O,enter,605,1,2599.0999999996275,582401.9000000004,7065,WL,C,1.0
5,3.4819998741149902,learn,60000.0,Wed Mar 19 2025 17:21:00 GMT-0500 (Central Daylight Time),585883.9000000004,A,s,O,s,868,1,882.5,585001.4000000004,7065,WL,C,2.0
5,3.998999834060669,learn,60000.0,Wed Mar 19 2025 17:21:00 GMT-0500 (Central Daylight Time),586400.5,A,sh,O,h,497,1,1399.0999999996275,585001.4000000004,7065,WL,C,2.0
5,4.381999969482422,learn,60000.0,Wed Mar 19 2025 17:21:00 GMT-0500 (Central Daylight Time),586783.7999999998,A,sho,O,o,365,1,1782.3999999994412,585001.4000000004,7065,WL,C,2.0
5,4.747999906539917,learn,60000.0,Wed Mar 19 2025 17:21:00 GMT-0500 (Central Daylight Time),587150.1000000006,A,shor,O,r,350,1,2148.7000000001863,585001.4000000004,7065,WL,C,2.0
5,4.998999834060669,learn,60000.0,Wed Mar 19 2025 17:21:00 GMT-0500 (Central Daylight Time),587400.1000000006,A,shore,O,e,240,1,2398.7000000001863,585001.4000000004,7065,WL,C,2.0
5,5.447999954223633,learn,60000.0,Wed Mar 19 2025 17:21:00 GMT-0500 (Central Daylight Time),587850.0,A,shoreenter,O,enter,437,1,2848.5999999996275,585001.4000000004,7065,WL,C,2.0
5,6.115000009536743,learn,60000.0,Wed Mar 19 2025 17:21:00 GMT-0500 (Central Daylight Time),588516.6000000006,A,c,O,c,660,1,666.3000000007451,587850.2999999998,7065,WL,C,3.0
5,6.447999954223633,learn,60000.0,Wed Mar 19 2025 17:21:00 GMT-0500 (Central Daylight Time),588849.9000000004,A,ca,O,a,321,1,999.6000000005588,587850.2999999998,7065,WL,C,3.0
5,7.247999906539917,learn,60000.0,Wed Mar 19 2025 17:21:00 GMT-0500 (Central Daylight Time),589649.7999999998,A,cam,O,m,779,1,1799.5,587850.2999999998,7065,WL,C,3.0
5,7.563999891281128,learn,60000.0,Wed Mar 19 2025 17:21:00 GMT-0500 (Central Daylight Time),589965.9000000004,A,camo,O,o,300,1,2115.600000000559,587850.2999999998,7065,WL,C,3.0
5,7.848999977111816,learn,60000.0,Wed Mar 19 2025 17:21:00 GMT-0500 (Central Daylight Time),590250.4000000004,A,camoenter,O,enter,264,1,2400.100000000559,587850.2999999998,7065,WL,C,3.0
5,8.363999843597412,learn,60000.0,Wed Mar 19 2025 17:21:00 GMT-0500 (Central Daylight Time),590765.9000000004,A,l,O,l,499,1,515.2999999998137,590250.6000000006,7065,WL,C,4.0
5,8.79699993133545,learn,60000.0,Wed Mar 19 2025 17:21:00 GMT-0500 (Central Daylight Time),591198.7999999998,A,le,O,e,424,1,948.1999999992549,590250.6000000006,7065,WL,C,4.0
5,9.063999891281128,learn,60000.0,Wed Mar 19 2025 17:21:00 GMT-0500 (Central Daylight Time),591465.6000000006,A,let,O,t,255,1,1215.0,590250.6000000006,7065,WL,C,4.0
5,9.230999946594238,learn,60000.0,Wed Mar 19 2025 17:21:00 GMT-0500 (Central Daylight Time),591632.2000000002,A,lett,O,t,156,1,1381.5999999996275,590250.6000000006,7065,WL,C,4.0
5,9.46399998664856,learn,60000.0,Wed Mar 19 2025 17:21:00 GMT-0500 (Central Daylight Time),591865.5,A,lette,O,e,213,1,1614.8999999994412,590250.6000000006,7065,WL,C,4.0
5,9.54699993133545,learn,60000.0,Wed Mar 19 2025 17:21:00 GMT-0500 (Central Daylight Time),591948.7000000002,A,letter,O,r,68,1,1698.0999999996275,590250.6000000006,7065,WL,C,4.0
5,10.44700002670288,learn,60000.0,Wed Mar 19 2025 17:21:00 GMT-0500 (Central Daylight Time),592848.4000000004,A,letterenter,O,enter,881,1,2597.7999999998137,590250.6000000006,7065,WL,C,4.0
5,15.277999877929688,learn,60000.0,Wed Mar 19 2025 17:21:00 GMT-0500 (Central Daylight Time),597680.2000000002,A,q,O,q,4813,1,4831.4000000003725,592848.7999999998,7065,WL,C,5.0
5,15.644999980926514,learn,60000.0,Wed Mar 19 2025 17:21:00 GMT-0500 (Central Daylight Time),598046.9000000004,A,qu,O,u,357,1,5198.100000000559,592848.7999999998,7065,WL,C,5.0
5,15.92799997329712,learn,60000.0,Wed Mar 19 2025 17:21:00 GMT-0500 (Central Daylight Time),598330.2999999998,A,que,O,e,262,1,5481.5,592848.7999999998,7065,WL,C,5.0
5,16.09500002861023,learn,60000.0,Wed Mar 19 2025 17:21:00 GMT-0500 (Central Daylight Time),598496.9000000004,A,quee,O,e,147,1,5648.100000000559,592848.7999999998,7065,WL,C,5.0
5,16.5939998626709,learn,60000.0,Wed Mar 19 2025 17:21:00 GMT-0500 (Central Daylight Time),598996.5,A,queen,O,n,484,1,6147.700000000186,592848.7999999998,7065,WL,C,5.0
5,16.91100001335144,learn,60000.0,Wed Mar 19 2025 17:21:00 GMT-0500 (Central Daylight Time),599313.1000000006,A,queenenter,O,enter,296,1,6464.300000000745,592848.7999999998,7065,WL,C,5.0
5,18.526999950408936,learn,60000.0,Wed Mar 19 2025 17:21:00 GMT-0500 (Central Daylight Time),600929.2000000002,A,s,O,s,1596,1,1615.7999999998137,599313.4000000004,7065,WL,C,6.0
5,18.944000005722046,learn,60000.0,Wed Mar 19 2025 17:21:00 GMT-0500 (Central Daylight Time),601345.7999999998,A,su,O,u,404,1,2032.3999999994412,599313.4000000004,7065,WL,C,6.0
5,19.276999950408936,learn,60000.0,Wed Mar 19 2025 17:21:00 GMT-0500 (Central Daylight Time),601679.0,A,sug,O,g,316,1,2365.5999999996275,599313.4000000004,7065,WL,C,6.0
5,19.609999895095825,learn,60000.0,Wed Mar 19 2025 17:21:00 GMT-0500 (Central Daylight Time),602012.2999999998,A,suga,O,a,326,1,2698.899999999441,599313.4000000004,7065,WL,C,6.0
5,19.82699990272522,learn,60000.0,Wed Mar 19 2025 17:21:00 GMT-0500 (Central Daylight Time),602229.0,A,sugar,O,r,201,1,2915.5999999996275,599313.4000000004,7065,WL,C,6.0
5,20.293999910354614,learn,60000.0,Wed Mar 19 2025 17:21:00 GMT-0500 (Central Daylight Time),602695.7000000002,A,sugarenter,O,enter,457,1,3382.2999999998137,599313.4000000004,7065,WL,C,6.0
5,20.89299988746643,learn,60000.0,Wed Mar 19 2025 17:21:00 GMT-0500 (Central Daylight Time),603295.2000000002,A,w,O,w,582,1,599.2999999998137,602695.9000000004,7065,WL,C,7.0
5,21.542999982833862,learn,60000.0,Wed Mar 19 2025 17:21:00 GMT-0500 (Central Daylight Time),603945.1000000006,A,wh,O,h,638,1,1249.2000000001863,602695.9000000004,7065,WL,C,7.0
5,21.888999938964844,learn,60000.0,Wed Mar 19 2025 17:21:00 GMT-0500 (Central Daylight Time),604290.6000000006,A,whe,O,e,323,1,1594.7000000001863,602695.9000000004,7065,WL,C,7.0
5,22.175999879837036,learn,60000.0,Wed Mar 19 2025 17:21:00 GMT-0500 (Central Daylight Time),604578.1000000006,A,whea,O,a,267,1,1882.2000000001863,602695.9000000004,7065,WL,C,7.0
5,22.425999879837036,learn,60000.0,Wed Mar 19 2025 17:21:00 GMT-0500 (Central Daylight Time),604828.1000000006,A,wheat,O,t,243,1,2132.2000000001863,602695.9000000004,7065,WL,C,7.0
5,22.95899987220764,learn,60000.0,Wed Mar 19 2025 17:21:00 GMT-0500 (Central Daylight Time),605361.2000000002,A,wheatenter,O,enter,513,1,2665.2999999998137,602695.9000000004,7065,WL,C,7.0
5,25.524999856948853,learn,60000.0,Wed Mar 19 2025 17:21:00 GMT-0500 (Central Daylight Time),607926.9000000004,A,c,O,c,2548,1,2565.4000000003725,605361.5,7065,WL,C,8.0
5,25.79199981689453,learn,60000.0,Wed Mar 19 2025 17:21:00 GMT-0500 (Central Daylight Time),608193.7000000002,A,co,O,o,254,1,2832.2000000001863,605361.5,7065,WL,C,8.0
5,26.10800004005432,learn,60000.0,Wed Mar 19 2025 17:21:00 GMT-0500 (Central Daylight Time),608510.2999999998,A,cor,O,r,300,1,3148.7999999998137,605361.5,7065,WL,C,8.0
5,26.674999952316284,learn,60000.0,Wed Mar 19 2025 17:21:00 GMT-0500 (Central Daylight Time),609076.7999999998,A,corn,O,n,559,1,3715.2999999998137,605361.5,7065,WL,C,8.0
5,27.007999897003174,learn,60000.0,Wed Mar 19 2025 17:21:00 GMT-0500 (Central Daylight Time),609410.5,A,cornenter,O,enter,328,1,4049.0,605361.5,7065,WL,C,8.0
5,30.256999969482422,learn,60000.0,Wed Mar 19 2025 17:21:00 GMT-0500 (Central Daylight Time),612658.7999999998,A,l,O,l,3243,1,3248.0999999996275,609410.7000000002,7065,WL,C,9.0
5,30.722999811172485,learn,60000.0,Wed Mar 19 2025 17:21:00 GMT-0500 (Central Daylight Time),613125.5,A,le,O,e,451,1,3714.7999999998137,609410.7000000002,7065,WL,C,9.0
5,30.93999981880188,learn,60000.0,Wed Mar 19 2025 17:21:00 GMT-0500 (Central Daylight Time),613342.1000000006,A,let,O,t,208,1,3931.4000000003725,609410.7000000002,7065,WL,C,9.0
5,31.122999906539917,learn,60000.0,Wed Mar 19 2025 17:21:00 GMT-0500 (Central Daylight Time),613525.4000000004,A,lett,O,t,167,1,4114.700000000186,609410.7000000002,7065,WL,C,9.0
5,31.289999961853027,learn,60000.0,Wed Mar 19 2025 17:21:00 GMT-0500 (Central Daylight Time),613692.1000000006,A,lette,O,e,160,1,4281.4000000003725,609410.7000000002,7065,WL,C,9.0
5,31.389999866485596,learn,60000.0,Wed Mar 19 2025 17:21:00 GMT-0500 (Central Daylight Time),613791.9000000004,A,letter,O,r,90,1,4381.200000000186,609410.7000000002,7065,WL,C,9.0
5,31.872999906539917,learn,60000.0,Wed Mar 19 2025 17:21:00 GMT-0500 (Central Daylight Time),614275.1000000006,A,letterenter,O,enter,469,1,4864.4000000003725,609410.7000000002,7065,WL,C,9.0
5,38.6710000038147,learn,60000.0,Wed Mar 19 2025 17:21:00 GMT-0500 (Central Daylight Time),621072.7999999998,A,d,O,d,6778,1,6797.399999999441,614275.4000000004,7065,WL,C,10.0
5,38.937999963760376,learn,60000.0,Wed Mar 19 2025 17:21:00 GMT-0500 (Central Daylight Time),621339.6000000006,A,do,O,o,260,1,7064.200000000186,614275.4000000004,7065,WL,C,10.0
5,39.269999980926514,learn,60000.0,Wed Mar 19 2025 17:21:00 GMT-0500 (Central Daylight Time),621672.5,A,doc,O,c,313,1,7397.0999999996275,614275.4000000004,7065,WL,C,10.0
5,39.520999908447266,learn,60000.0,Wed Mar 19 2025 17:21:00 GMT-0500 (Central Daylight Time),621922.6000000006,A,doct,O,t,245,1,7647.200000000186,614275.4000000004,7065,WL,C,10.0
5,39.853999853134155,learn,60000.0,Wed Mar 19 2025 17:21:00 GMT-0500 (Central Daylight Time),622256.0,A,docto,O,o,323,1,7980.5999999996275,614275.4000000004,7065,WL,C,10.0
5,40.15399980545044,learn,60000.0,Wed Mar 19 2025 17:21:00 GMT-0500 (Central Daylight Time),622556.0,A,doctor,O,r,293,1,8280.599999999627,614275.4000000004,7065,WL,C,10.0
5,40.53699994087219,learn,60000.0,Wed Mar 19 2025 17:21:00 GMT-0500 (Central Daylight Time),622939.2000000002,A,doctorenter,O,enter,370,1,8663.799999999814,614275.4000000004,7065,WL,C,10.0
5,43.418999910354614,learn,60000.0,Wed Mar 19 2025 17:21:00 GMT-0500 (Central Daylight Time),625821.4000000004,A,enter,O,enter,2866,1,2881.9000000003725,622939.5,7065,WL,C,11.0
5,43.63599991798401,learn,60000.0,Wed Mar 19 2025 17:21:00 GMT-0500 (Central Daylight Time),626037.9000000004,A,enter,O,enter,208,1,216.1000000005588,625821.7999999998,7065,WL,C,12.0
5,43.819000005722046,learn,60000.0,Wed Mar 19 2025 17:21:00 GMT-0500 (Central Daylight Time),626221.0,A,enter,O,enter,168,1,182.70000000018626,626038.2999999998,7065,WL,C,13.0
5,44.003000020980835,learn,60000.0,Wed Mar 19 2025 17:21:00 GMT-0500 (Central Daylight Time),626404.7999999998,A,enter,O,enter,177,1,183.5,626221.2999999998,7065,WL,C,14.0
5,44.51899981498718,learn,60000.0,Wed Mar 19 2025 17:21:00 GMT-0500 (Central Daylight Time),626921.2000000002,A,enter,O,enter,497,1,516.0999999996275,626405.1000000006,7065,WL,C,15.0
6,0.8340001106262207,distr,59165.99988937378,Wed Mar 19 2025 17:21:00 GMT-0500 (Central Daylight Time),696050.7999999998,B,m,O,m,813,1,834.1999999992549,695216.6000000006,7065,WL,C,1.0
6,1.0829999446868896,distr,58917.00005531311,Wed Mar 19 2025 17:21:00 GMT-0500 (Central Daylight Time),696299.5,B,mo,O,o,234,1,1082.8999999994412,695216.6000000006,7065,WL,C,1.0
6,1.3500001430511475,distr,58649.99985694885,Wed Mar 19 2025 17:21:00 GMT-0500 (Central Daylight Time),696566.2000000002,B,mon,O,n,258,1,1349.5999999996275,695216.6000000006,7065,WL,C,1.0
6,1.7660000324249268,distr,58233.99996757507,Wed Mar 19 2025 17:21:00 GMT-0500 (Central Daylight Time),696982.6000000006,B,mone,O,e,399,1,1766.0,695216.6000000006,7065,WL,C,1.0
6,2.183000087738037,distr,57816.99991226196,Wed Mar 19 2025 17:21:00 GMT-0500 (Central Daylight Time),697399.0,B,money,O,y,407,1,2182.399999999441,695216.6000000006,7065,WL,C,1.0
6,2.5989999771118164,distr,57401.00002288818,Wed Mar 19 2025 17:21:00 GMT-0500 (Central Daylight Time),697815.7999999998,B,moneyenter,O,enter,398,1,2599.199999999255,695216.6000000006,7065,WL,C,1.0
6,3.865000009536743,distr,56134.99999046326,Wed Mar 19 2025 17:21:00 GMT-0500 (Central Daylight Time),699082.0,B,h,O,h,1254,1,1265.8999999994412,697816.1000000006,7065,WL,C,2.0
6,4.148999929428101,distr,55851.0000705719,Wed Mar 19 2025 17:21:00 GMT-0500 (Central Daylight Time),699365.1000000006,B,ho,O,o,276,1,1549.0,697816.1000000006,7065,WL,C,2.0
6,4.449000120162964,distr,55550.999879837036,Wed Mar 19 2025 17:21:00 GMT-0500 (Central Daylight Time),699665.2000000002,B,hot,O,t,288,1,1849.0999999996275,697816.1000000006,7065,WL,C,2.0
6,4.7149999141693115,distr,55285.00008583069,Wed Mar 19 2025 17:21:00 GMT-0500 (Central Daylight Time),699931.7999999998,B,hote,O,e,260,1,2115.699999999255,697816.1000000006,7065,WL,C,2.0
6,5.164999961853027,distr,54835.00003814697,Wed Mar 19 2025 17:21:00 GMT-0500 (Central Daylight Time),700381.5,B,hotel,O,l,434,1,2565.399999999441,697816.1000000006,7065,WL,C,2.0
6,5.498000144958496,distr,54501.999855041504,Wed Mar 19 2025 17:21:00 GMT-0500 (Central Daylight Time),700714.5,B,hotelenter,O,enter,328,1,2898.399999999441,697816.1000000006,7065,WL,C,2.0
6,6.148000001907349,distr,53851.99999809265,Wed Mar 19 2025 17:21:00 GMT-0500 (Central Daylight Time),701364.5,B,c,O,c,635,1,649.7000000001863,700714.7999999998,7065,WL,C,3.0
6,6.447999954223633,distr,53552.00004577637,Wed Mar 19 2025 17:21:00 GMT-0500 (Central Daylight Time),701664.2999999998,B,ch,O,h,281,1,949.5,700714.7999999998,7065,WL,C,3.0
6,6.748000144958496,distr,53251.999855041504,Wed Mar 19 2025 17:21:00 GMT-0500 (Central Daylight Time),701964.2999999998,B,chr,O,r,293,1,1249.5,700714.7999999998,7065,WL,C,3.0
6,7.148000001907349,distr,52851.99999809265,Wed Mar 19 2025 17:21:00 GMT-0500 (Central Daylight Time),702364.5,B,chri,O,i,385,1,1649.7000000001863,700714.7999999998,7065,WL,C,3.0
6,7.480999946594238,distr,52519.00005340576,Wed Mar 19 2025 17:21:00 GMT-0500 (Central Daylight Time),702697.6000000006,B,chris,O,s,313,1,1982.800000000745,700714.7999999998,7065,WL,C,3.0
6,7.799000024795532,distr,52200.99997520447,Wed Mar 19 2025 17:21:00 GMT-0500 (Central Daylight Time),703015.0,B,christ,O,t,300,1,2300.2000000001863,700714.7999999998,7065,WL,C,3.0
6,8.21399998664856,distr,51786.00001335144,Wed Mar 19 2025 17:21:00 GMT-0500 (Central Daylight Time),703430.5,B,christm,O,m,406,1,2715.7000000001863,700714.7999999998,7065,WL,C,3.0
6,8.614000082015991,distr,51385.99991798401,Wed Mar 19 2025 17:21:00 GMT-0500 (Central Daylight Time),703830.5,B,christma,O,a,383,1,3115.7000000001863,700714.7999999998,7065,WL,C,3.0
6,8.829999923706055,distr,51170.000076293945,Wed Mar 19 2025 17:21:00 GMT-0500 (Central Daylight Time),704046.7000000002,B,christmas,O,s,207,1,3331.9000000003725,700714.7999999998,7065,WL,C,3.0
6,9.347000122070312,distr,50652.99987792969,Wed Mar 19 2025 17:21:00 GMT-0500 (Central Daylight Time),704563.4000000004,B,christmasenter,O,enter,511,1,3848.600000000559,700714.7999999998,7065,WL,C,3.0
6,9.730000019073486,distr,50269.999980926514,Wed Mar 19 2025 17:21:00 GMT-0500 (Central Daylight Time),704946.6000000006,B,m,O,m,378,1,382.90000000037253,704563.7000000002,7065,WL,C,4.0
6,10.164000034332275,distr,49835.999965667725,Wed Mar 19 2025 17:21:00 GMT-0500 (Central Daylight Time),705380.0,B,me,O,e,419,1,816.2999999998137,704563.7000000002,7065,WL,C,4.0
6,10.430000066757202,distr,49569.9999332428,Wed Mar 19 2025 17:21:00 GMT-0500 (Central Daylight Time),705646.5,B,mea,O,a,258,1,1082.7999999998137,704563.7000000002,7065,WL,C,4.0
6,10.730000019073486,distr,49269.999980926514,Wed Mar 19 2025 17:21:00 GMT-0500 (Central Daylight Time),705946.2999999998,B,meat,O,t,287,1,1382.5999999996275,704563.7000000002,7065,WL,C,4.0
6,11.130000114440918,distr,48869.99988555908,Wed Mar 19 2025 17:21:00 GMT-0500 (Central Daylight Time),706346.2000000002,B,meatenter,O,enter,395,1,1782.5,704563.7000000002,7065,WL,C,4.0
6,11.579999923706055,distr,48420.000076293945,Wed Mar 19 2025 17:21:00 GMT-0500 (Central Daylight Time),706796.1000000006,B,t,O,t,435,1,449.6000000005588,706346.5,7065,WL,C,5.0
6,11.913000106811523,distr,48086.99989318848,Wed Mar 19 2025 17:21:00 GMT-0500 (Central Daylight Time),707129.5,B,to,O,o,321,1,783.0,706346.5,7065,WL,C,5.0
6,12.095999956130981,distr,47904.00004386902,Wed Mar 19 2025 17:21:00 GMT-0500 (Central Daylight Time),707312.5,B,too,O,o,163,1,966.0,706346.5,7065,WL,C,5.0
6,12.345999956130981,distr,47654.00004386902,Wed Mar 19 2025 17:21:00 GMT-0500 (Central Daylight Time),707562.6000000006,B,tool,O,l,237,1,1216.1000000005588,706346.5,7065,WL,C,5.0
6,12.646000146865845,distr,47353.999853134155,Wed Mar 19 2025 17:21:00 GMT-0500 (Central Daylight Time),707862.4000000004,B,toolenter,O,enter,283,1,1515.9000000003725,706346.5,7065,WL,C,5.0
6,13.163000106811523,distr,46836.99989318848,Wed Mar 19 2025 17:21:00 GMT-0500 (Central Daylight Time),708379.1000000006,B,p,O,p,503,1,516.3000000007451,707862.7999999998,7065,WL,C,6.0
6,13.396000146865845,distr,46603.999853134155,Wed Mar 19 2025 17:21:00 GMT-0500 (Central Daylight Time),708612.2000000002,B,pl,O,l,226,1,749.4000000003725,707862.7999999998,7065,WL,C,6.0
6,13.847000122070312,distr,46152.99987792969,Wed Mar 19 2025 17:21:00 GMT-0500 (Central Daylight Time),709063.2999999998,B,pla,O,a,433,1,1200.5,707862.7999999998,7065,WL,C,6.0
6,14.246000051498413,distr,45753.99994850159,Wed Mar 19 2025 17:21:00 GMT-0500 (Central Daylight Time),709462.1000000006,B,plan,O,n,381,1,1599.300000000745,707862.7999999998,7065,WL,C,6.0
6,14.545000076293945,distr,45454.999923706055,Wed Mar 19 2025 17:21:00 GMT-0500 (Central Daylight Time),709761.7999999998,B,plant,O,t,288,1,1899.0,707862.7999999998,7065,WL,C,6.0
6,14.944999933242798,distr,45055.0000667572,Wed Mar 19 2025 17:21:00 GMT-0500 (Central Daylight Time),710161.9000000004,B,plantenter,O,enter,380,1,2299.100000000559,707862.7999999998,7065,WL,C,6.0
6,15.32800006866455,distr,44671.99993133545,Wed Mar 19 2025 17:21:00 GMT-0500 (Central Daylight Time),710544.9000000004,B,m,O,m,372,1,382.6000000005588,710162.2999999998,7065,WL,C,7.0
6,15.57800006866455,distr,44421.99993133545,Wed Mar 19 2025 17:21:00 GMT-0500 (Central Daylight Time),710794.6000000006,B,mo,O,o,245,1,632.3000000007451,710162.2999999998,7065,WL,C,7.0
6,15.911999940872192,distr,44088.00005912781,Wed Mar 19 2025 17:21:00 GMT-0500 (Central Daylight Time),711127.9000000004,B,mot,O,t,315,1,965.6000000005588,710162.2999999998,7065,WL,C,7.0
6,16.144999980926514,distr,43855.000019073486,Wed Mar 19 2025 17:21:00 GMT-0500 (Central Daylight Time),711361.5,B,moth,O,h,213,1,1199.2000000001863,710162.2999999998,7065,WL,C,7.0
6,16.460999965667725,distr,43539.000034332275,Wed Mar 19 2025 17:21:00 GMT-0500 (Central Daylight Time),711677.9000000004,B,mothe,O,e,308,1,1515.6000000005588,710162.2999999998,7065,WL,C,7.0
6,16.694999933242798,distr,43305.0000667572,Wed Mar 19 2025 17:21:00 GMT-0500 (Central Daylight Time),711911.0,B,mother,O,r,216,1,1748.7000000001863,710162.2999999998,7065,WL,C,7.0
6,17.16100001335144,distr,42838.99998664856,Wed Mar 19 2025 17:21:00 GMT-0500 (Central Daylight Time),712377.7000000002,B,motherenter,O,enter,446,1,2215.4000000003725,710162.2999999998,7065,WL,C,7.0
6,21.875999927520752,distr,38124.00007247925,Wed Mar 19 2025 17:21:00 GMT-0500 (Central Daylight Time),717093.0,B,enter,O,enter,4700,1,4714.899999999441,712378.1000000006,7065,WL,C,8.0
6,22.05900001525879,distr,37940.99998474121,Wed Mar 19 2025 17:21:00 GMT-0500 (Central Daylight Time),717276.0,B,enter,O,enter,175,1,182.59999999962747,717093.4000000004,7065,WL,C,9.0
6,22.243000030517578,distr,37756.99996948242,Wed Mar 19 2025 17:21:00 GMT-0500 (Central Daylight Time),717459.5,B,enter,O,enter,170,1,183.09999999962747,717276.4000000004,7065,WL,C,10.0
6,22.41000008583069,distr,37589.99991416931,Wed Mar 19 2025 17:21:00 GMT-0500 (Central Daylight Time),717626.2999999998,B,enter,O,enter,146,1,166.59999999962747,717459.7000000002,7065,WL,C,11.0
6,22.55900001525879,distr,37440.99998474121,Wed Mar 19 2025 17:21:00 GMT-0500 (Central Daylight Time),717776.1000000006,B,enter,O,enter,131,1,149.40000000037253,717626.7000000002,7065,WL,C,12.0
6,22.742000102996826,distr,37257.999897003174,Wed Mar 19 2025 17:21:00 GMT-0500 (Central Daylight Time),717959.2000000002,B,enter,O,enter,165,1,182.79999999981374,717776.4000000004,7065,WL,C,13.0
6,22.926000118255615,distr,37073.999881744385,Wed Mar 19 2025 17:21:00 GMT-0500 (Central Daylight Time),718142.7000000002,B,enter,O,enter,174,1,183.20000000018626,717959.5,7065,WL,C,14.0
6,23.375999927520752,distr,36624.00007247925,Wed Mar 19 2025 17:21:00 GMT-0500 (Central Daylight Time),718592.4000000004,B,enter,O,enter,439,1,449.40000000037253,718143.0,7065,WL,C,15.0
7,14.728000164031982,immed,45271.99983596802,Wed Mar 19 2025 17:21:00 GMT-0500 (Central Daylight Time),735104.0,A,h,O,h,14711,1,14728.599999999627,720375.4000000004,7065,WL,C,1.0
7,14.928000211715698,immed,45071.9997882843,Wed Mar 19 2025 17:21:00 GMT-0500 (Central Daylight Time),735303.9000000004,A,ho,O,o,181,1,14928.5,720375.4000000004,7065,WL,C,1.0
7,15.261000156402588,immed,44738.99984359741,Wed Mar 19 2025 17:21:00 GMT-0500 (Central Daylight Time),735636.9000000004,A,hot,O,t,317,1,15261.5,720375.4000000004,7065,WL,C,1.0
7,15.511000156402588,immed,44488.99984359741,Wed Mar 19 2025 17:21:00 GMT-0500 (Central Daylight Time),735886.9000000004,A,hote,O,e,232,1,15511.5,720375.4000000004,7065,WL,C,1.0
7,16.311000108718872,immed,43688.99989128113,Wed Mar 19 2025 17:21:00 GMT-0500 (Central Daylight Time),736686.7999999998,A,hotel,O,l,783,1,16311.399999999441,720375.4000000004,7065,WL,C,1.0
7,21.9760000705719,immed,38023.9999294281,Wed Mar 19 2025 17:21:00 GMT-0500 (Central Daylight Time),742351.7000000002,A,hotelenter,O,enter,5647,1,21976.299999999814,720375.4000000004,7065,WL,C,1.0
7,24.29200005531311,immed,35707.99994468689,Wed Mar 19 2025 17:21:00 GMT-0500 (Central Daylight Time),744667.7000000002,A,j,O,j,2301,1,2315.5999999996275,742352.1000000006,7065,WL,C,2.0
7,24.392000198364258,immed,35607.99980163574,Wed Mar 19 2025 17:21:00 GMT-0500 (Central Daylight Time),744767.5,A,jo,O,o,82,1,2415.399999999441,742352.1000000006,7065,WL,C,2.0
7,24.79200005531311,immed,35207.99994468689,Wed Mar 19 2025 17:21:00 GMT-0500 (Central Daylight Time),745167.5,A,joy,O,y,382,1,2815.399999999441,742352.1000000006,7065,WL,C,2.0
7,25.25100016593933,immed,34748.99983406067,Wed Mar 19 2025 17:21:00 GMT-0500 (Central Daylight Time),745627.2000000002,A,joyenter,O,enter,435,1,3275.0999999996275,742352.1000000006,7065,WL,C,2.0
7,26.408000230789185,immed,33591.999769210815,Wed Mar 19 2025 17:21:00 GMT-0500 (Central Daylight Time),746783.7000000002,A,h,O,h,1138,1,1156.2999999998137,745627.4000000004,7065,WL,C,3.0
7,26.54100012779236,immed,33458.99987220764,Wed Mar 19 2025 17:21:00 GMT-0500 (Central Daylight Time),746917.0,A,ho,O,o,118,1,1289.5999999996275,745627.4000000004,7065,WL,C,3.0
7,27.141000032424927,immed,32858.99996757507,Wed Mar 19 2025 17:21:00 GMT-0500 (Central Daylight Time),747516.7999999998,A,hot,O,t,593,1,1889.3999999994412,745627.4000000004,7065,WL,C,3.0
7,27.408000230789185,immed,32591.999769210815,Wed Mar 19 2025 17:21:00 GMT-0500 (Central Daylight Time),747783.2000000002,A,hotl,O,l,256,1,2155.7999999998137,745627.4000000004,7065,WL,C,3.0
7,28.007000207901,immed,31992.999792099,Wed Mar 19 2025 17:21:00 GMT-0500 (Central Daylight Time),748383.0,A,hotlenter,O,enter,582,1,2755.5999999996275,745627.4000000004,7065,WL,C,3.0
7,28.324000120162964,immed,31675.999879837036,Wed Mar 19 2025 17:21:00 GMT-0500 (Central Daylight Time),748699.7999999998,A,p,O,p,303,1,316.3999999994412,748383.4000000004,7065,WL,C,4.0
7,28.557000160217285,immed,31442.999839782715,Wed Mar 19 2025 17:21:00 GMT-0500 (Central Daylight Time),748933.0,A,pl,O,l,226,1,549.5999999996275,748383.4000000004,7065,WL,C,4.0
7,28.94000005722046,immed,31059.99994277954,Wed Mar 19 2025 17:21:00 GMT-0500 (Central Daylight Time),749316.1000000006,A,pla,O,a,376,1,932.7000000001863,748383.4000000004,7065,WL,C,4.0
7,29.34000015258789,immed,30659.99984741211,Wed Mar 19 2025 17:21:00 GMT-0500 (Central Daylight Time),749716.0,A,plan,O,n,393,1,1332.5999999996275,748383.4000000004,7065,WL,C,4.0
7,29.623000144958496,immed,30376.999855041504,Wed Mar 19 2025 17:21:00 GMT-0500 (Central Daylight Time),749999.1000000006,A,plant,O,t,265,1,1615.7000000001863,748383.4000000004,7065,WL,C,4.0
7,29.990000009536743,immed,30009.999990463257,Wed Mar 19 2025 17:21:00 GMT-0500 (Central Daylight Time),750366.1000000006,A,plantenter,O,enter,350,1,1982.7000000001863,748383.4000000004,7065,WL,C,4.0
7,30.60700011253357,immed,29392.99988746643,Wed Mar 19 2025 17:21:00 GMT-0500 (Central Daylight Time),750982.2000000002,A,c,O,c,599,1,615.7999999998137,750366.4000000004,7065,WL,C,5.0
7,30.740000009536743,immed,29259.999990463257,Wed Mar 19 2025 17:21:00 GMT-0500 (Central Daylight Time),751115.4000000004,A,ch,O,h,128,1,749.0,750366.4000000004,7065,WL,C,5.0
7,31.02300000190735,immed,28976.99999809265,Wed Mar 19 2025 17:21:00 GMT-0500 (Central Daylight Time),751398.9000000004,A,chr,O,r,274,1,1032.5,750366.4000000004,7065,WL,C,5.0
7,31.305999994277954,immed,28694.000005722046,Wed Mar 19 2025 17:21:00 GMT-0500 (Central Daylight Time),751682.2000000002,A,chri,O,i,279,1,1315.7999999998137,750366.4000000004,7065,WL,C,5.0
7,31.69100022315979,immed,28308.99977684021,Wed Mar 19 2025 17:21:00 GMT-0500 (Central Daylight Time),752066.4000000004,A,chris,O,s,363,1,1700.0,750366.4000000004,7065,WL,C,5.0
7,31.856000185012817,immed,28143.999814987183,Wed Mar 19 2025 17:21:00 GMT-0500 (Central Daylight Time),752232.0,A,christ,O,t,155,1,1865.5999999996275,750366.4000000004,7065,WL,C,5.0
7,32.32300019264221,immed,27676.999807357788,Wed Mar 19 2025 17:21:00 GMT-0500 (Central Daylight Time),752698.4000000004,A,christm,O,m,454,1,2332.0,750366.4000000004,7065,WL,C,5.0
7,32.706000089645386,immed,27293.999910354614,Wed Mar 19 2025 17:21:00 GMT-0500 (Central Daylight Time),753081.6000000006,A,christma,O,a,363,1,2715.2000000001863,750366.4000000004,7065,WL,C,5.0
7,32.88900017738342,immed,27110.999822616577,Wed Mar 19 2025 17:21:00 GMT-0500 (Central Daylight Time),753264.9000000004,A,christmas,O,s,164,1,2898.5,750366.4000000004,7065,WL,C,5.0
7,33.33900022506714,immed,26660.99977493286,Wed Mar 19 2025 17:21:00 GMT-0500 (Central Daylight Time),753714.5,A,christmasenter,O,enter,445,1,3348.0999999996275,750366.4000000004,7065,WL,C,5.0
7,33.68900012969971,immed,26310.999870300293,Wed Mar 19 2025 17:21:00 GMT-0500 (Central Daylight Time),754065.0,A,m,O,m,331,1,350.20000000018626,753714.7999999998,7065,WL,C,6.0
7,33.92200016975403,immed,26077.99983024597,Wed Mar 19 2025 17:21:00 GMT-0500 (Central Daylight Time),754297.9000000004,A,mo,O,o,212,1,583.1000000005588,753714.7999999998,7065,WL,C,6.0
7,34.18900012969971,immed,25810.999870300293,Wed Mar 19 2025 17:21:00 GMT-0500 (Central Daylight Time),754564.5,A,mon,O,n,252,1,849.7000000001863,753714.7999999998,7065,WL,C,6.0
7,34.58900022506714,immed,25410.99977493286,Wed Mar 19 2025 17:21:00 GMT-0500 (Central Daylight Time),754964.6000000006,A,mone,O,e,385,1,1249.800000000745,753714.7999999998,7065,WL,C,6.0
7,34.83900022506714,immed,25160.99977493286,Wed Mar 19 2025 17:21:00 GMT-0500 (Central Daylight Time),755214.2000000002,A,money,O,y,233,1,1499.4000000003725,753714.7999999998,7065,WL,C,6.0
7,35.23800015449524,immed,24761.99984550476,Wed Mar 19 2025 17:21:00 GMT-0500 (Central Daylight Time),755614.2000000002,A,moneyenter,O,enter,383,1,1899.4000000003725,753714.7999999998,7065,WL,C,6.0
7,35.622000217437744,immed,24377.999782562256,Wed Mar 19 2025 17:21:00 GMT-0500 (Central Daylight Time),755997.5,A,m,O,m,368,1,383.09999999962747,755614.4000000004,7065,WL,C,7.0
7,35.82200002670288,immed,24177.99997329712,Wed Mar 19 2025 17:21:00 GMT-0500 (Central Daylight Time),756197.2000000002,A,mo,O,o,192,1,582.7999999998137,755614.4000000004,7065,WL,C,7.0
7,36.15500020980835,immed,23844.99979019165,Wed Mar 19 2025 17:21:00 GMT-0500 (Central Daylight Time),756530.6000000006,A,mot,O,t,320,1,916.2000000001863,755614.4000000004,7065,WL,C,7.0
7,36.37100005149841,immed,23628.999948501587,Wed Mar 19 2025 17:21:00 GMT-0500 (Central Daylight Time),756747.1000000006,A,moth,O,h,211,1,1132.7000000001863,755614.4000000004,7065,WL,C,7.0
7,36.705000162124634,immed,23294.999837875366,Wed Mar 19 2025 17:21:00 GMT-0500 (Central Daylight Time),757080.2999999998,A,mothe,O,e,322,1,1465.8999999994412,755614.4000000004,7065,WL,C,7.0
7,36.83800005912781,immed,23161.999940872192,Wed Mar 19 2025 17:21:00 GMT-0500 (Central Daylight Time),757213.7999999998,A,mother,O,r,125,1,1599.3999999994412,755614.4000000004,7065,WL,C,7.0
7,37.521000146865845,immed,22478.999853134155,Wed Mar 19 2025 17:21:00 GMT-0500 (Central Daylight Time),757896.7999999998,A,motherenter,O,enter,671,1,2282.399999999441,755614.4000000004,7065,WL,C,7.0
7,60.01400017738342,immed,-14.000177383422852,Wed Mar 19 2025 17:21:00 GMT-0500 (Central Daylight Time),780389.7999999998,A,None,O,None,22489,1,22492.799999999814,757897.0,7065,WL,C,8.0
