Number,acc_sum,block,block_c,block_cond,con_img,correct,correct_response,datetime,endtime,jitter,project,response,response_time,row_sel,session_number,start_end,starttime,subject_id,task,task_vers,trial
7,1,prac,1,A,circle.png,1,m,Tue Apr 29 2025 10:04:34 GMT-0400 (Eastern Daylight Time),86528.4000005722,1700,I,m,876,6,1,3355.5,83172.9000005722,9015,NTS,B,1
3,2,prac,1,A,circle.png,1,z,Tue Apr 29 2025 10:04:34 GMT-0400 (Eastern Daylight Time),89328.0,1200,I,z,807,3,1,2788.199999809265,86539.80000019073,9015,NTS,B,2
3,3,prac,1,A,circle.png,1,z,Tue Apr 29 2025 10:04:34 GMT-0400 (Eastern Daylight Time),91744.70000076294,1200,I,z,426,3,1,2406.1000003814697,89338.60000038147,9015,NTS,B,3
2,4,prac,1,A,circle.png,1,z,Tue Apr 29 2025 10:04:34 GMT-0400 (Eastern Daylight Time),95077.30000019073,2000,I,z,537,2,1,3318.699999809265,91758.60000038147,9015,NTS,B,4
8,5,prac,1,A,circle.png,1,m,Tue Apr 29 2025 10:04:34 GMT-0400 (Eastern Daylight Time),97878.0,1600,I,m,403,7,1,2792.2999992370605,95085.70000076294,9015,NTS,B,5
4,6,prac,1,A,circle.png,1,z,Tue Apr 29 2025 10:04:34 GMT-0400 (Eastern Daylight Time),100561.4000005722,1400,I,z,492,4,1,2672.1000003814697,97889.30000019073,9015,NTS,B,6
6,7,prac,1,A,circle.png,1,m,Tue Apr 29 2025 10:04:34 GMT-0400 (Eastern Daylight Time),103711.4000005722,1900,I,m,461,5,1,3137.6000003814697,100573.80000019073,9015,NTS,B,7
2,8,prac,1,A,circle.png,1,z,Tue Apr 29 2025 10:04:34 GMT-0400 (Eastern Daylight Time),107011.30000019073,2000,I,z,507,2,1,3288.300000190735,103723.0,9015,NTS,B,8
8,9,prac,1,A,circle.png,1,m,Tue Apr 29 2025 10:04:34 GMT-0400 (Eastern Daylight Time),109894.70000076294,1600,I,m,487,7,1,2871.0,107023.70000076294,9015,NTS,B,9
6,10,prac,1,A,circle.png,1,m,Tue Apr 29 2025 10:04:34 GMT-0400 (Eastern Daylight Time),113278.0,1900,I,m,696,5,1,3370.199999809265,109907.80000019073,9015,NTS,B,10
1,11,prac,1,A,circle.png,1,z,Tue Apr 29 2025 10:04:34 GMT-0400 (Eastern Daylight Time),115628.20000076294,1000,I,z,548,1,1,2336.6000003814697,113291.60000038147,9015,NTS,B,11
9,12,prac,1,A,circle.png,1,m,Tue Apr 29 2025 10:04:34 GMT-0400 (Eastern Daylight Time),118411.30000019073,1500,I,m,482,8,1,2772.699999809265,115638.60000038147,9015,NTS,B,12
6,1,prac,1,B,triangle.png,1,m,Tue Apr 29 2025 10:04:34 GMT-0400 (Eastern Daylight Time),151411.20000076294,1000,I,m,908,5,1,2686.6000003814697,148724.60000038147,9015,NTS,B,1
1,2,prac,1,B,triangle.png,1,z,Tue Apr 29 2025 10:04:34 GMT-0400 (Eastern Daylight Time),154578.0,1900,I,z,476,1,1,3155.8999996185303,151422.10000038147,9015,NTS,B,2
3,3,prac,1,B,triangle.png,1,z,Tue Apr 29 2025 10:04:34 GMT-0400 (Eastern Daylight Time),157744.4000005722,1600,I,z,777,3,1,3156.0,154588.4000005722,9015,NTS,B,3
4,4,prac,1,B,triangle.png,1,m,Tue Apr 29 2025 10:04:34 GMT-0400 (Eastern Daylight Time),160528.0,1500,I,m,494,4,1,2770.699999809265,157757.30000019073,9015,NTS,B,4
2,5,prac,1,B,triangle.png,1,m,Tue Apr 29 2025 10:04:34 GMT-0400 (Eastern Daylight Time),163611.10000038147,1700,I,m,583,2,1,3071.800000190735,160539.30000019073,9015,NTS,B,5
9,6,prac,1,B,triangle.png,1,z,Tue Apr 29 2025 10:04:34 GMT-0400 (Eastern Daylight Time),166327.9000005722,1400,I,z,521,8,1,2705.800000190735,163622.10000038147,9015,NTS,B,6
7,7,prac,1,B,triangle.png,1,z,Tue Apr 29 2025 10:04:34 GMT-0400 (Eastern Daylight Time),169577.80000019073,2000,I,z,451,6,1,3236.800000190735,166341.0,9015,NTS,B,7
9,8,prac,1,B,triangle.png,1,z,Tue Apr 29 2025 10:04:34 GMT-0400 (Eastern Daylight Time),172361.0,1400,I,z,585,8,1,2772.699999809265,169588.30000019073,9015,NTS,B,8
8,9,prac,1,B,triangle.png,1,m,Tue Apr 29 2025 10:04:34 GMT-0400 (Eastern Daylight Time),174861.4000005722,1200,I,m,514,7,1,2490.0,172371.4000005722,9015,NTS,B,9
2,10,prac,1,B,triangle.png,1,m,Tue Apr 29 2025 10:04:34 GMT-0400 (Eastern Daylight Time),177927.9000005722,1700,I,m,570,2,1,3056.1000003814697,174871.80000019073,9015,NTS,B,10
7,11,prac,1,B,triangle.png,1,z,Tue Apr 29 2025 10:04:34 GMT-0400 (Eastern Daylight Time),181411.20000076294,2000,I,z,691,6,1,3473.5,177937.70000076294,9015,NTS,B,11
4,12,prac,1,B,triangle.png,1,m,Tue Apr 29 2025 10:04:34 GMT-0400 (Eastern Daylight Time),184294.5,1500,I,m,588,4,1,2871.5999994277954,181422.9000005722,9015,NTS,B,12
2,1,test,1,A,circle.png,1,z,Tue Apr 29 2025 10:04:34 GMT-0400 (Eastern Daylight Time),209477.9000005722,2000,I,z,489,2,1,2506.300000190735,206971.60000038147,9015,NTS,B,1
6,2,test,1,A,circle.png,1,m,Tue Apr 29 2025 10:04:34 GMT-0400 (Eastern Daylight Time),211994.60000038147,1900,I,m,585,5,1,2507.6000003814697,209487.0,9015,NTS,B,2
8,3,test,1,A,circle.png,1,m,Tue Apr 29 2025 10:04:34 GMT-0400 (Eastern Daylight Time),214544.4000005722,1600,I,m,928,7,1,2539.0,212005.4000005722,9015,NTS,B,3
2,4,test,1,A,circle.png,1,z,Tue Apr 29 2025 10:04:34 GMT-0400 (Eastern Daylight Time),217027.70000076294,2000,I,z,458,2,1,2469.300000190735,214558.4000005722,9015,NTS,B,4
7,5,test,1,A,circle.png,1,m,Tue Apr 29 2025 10:04:34 GMT-0400 (Eastern Daylight Time),219911.20000076294,1700,I,m,1155,6,1,2874.7000007629395,217036.5,9015,NTS,B,5
4,6,test,1,A,circle.png,1,z,Tue Apr 29 2025 10:04:34 GMT-0400 (Eastern Daylight Time),222061.0,1400,I,z,714,4,1,2141.0,219920.0,9015,NTS,B,6
6,7,test,1,A,circle.png,1,m,Tue Apr 29 2025 10:04:34 GMT-0400 (Eastern Daylight Time),224511.10000038147,1900,I,m,529,5,1,2440.5,222070.60000038147,9015,NTS,B,7
3,8,test,1,A,circle.png,1,z,Tue Apr 29 2025 10:04:34 GMT-0400 (Eastern Daylight Time),226244.4000005722,1200,I,z,506,3,1,1724.9000005722046,224519.5,9015,NTS,B,8
9,9,test,1,A,circle.png,1,m,Tue Apr 29 2025 10:04:34 GMT-0400 (Eastern Daylight Time),228294.4000005722,1500,I,m,522,8,1,2041.0,226253.4000005722,9015,NTS,B,9
4,10,test,1,A,circle.png,1,z,Tue Apr 29 2025 10:04:34 GMT-0400 (Eastern Daylight Time),230261.0,1400,I,z,539,4,1,1955.6999998092651,228305.30000019073,9015,NTS,B,10
7,11,test,1,A,circle.png,1,m,Tue Apr 29 2025 10:04:34 GMT-0400 (Eastern Daylight Time),232511.0,1700,I,m,529,6,1,2239.5999994277954,230271.4000005722,9015,NTS,B,11
2,12,test,1,A,circle.png,1,z,Tue Apr 29 2025 10:04:34 GMT-0400 (Eastern Daylight Time),235111.0,2000,I,z,570,2,1,2591.0,232520.0,9015,NTS,B,12
1,13,test,1,A,circle.png,1,z,Tue Apr 29 2025 10:04:34 GMT-0400 (Eastern Daylight Time),236861.60000038147,1000,I,z,732,1,1,1741.8999996185303,235119.70000076294,9015,NTS,B,13
1,14,test,1,A,circle.png,1,z,Tue Apr 29 2025 10:04:34 GMT-0400 (Eastern Daylight Time),238444.20000076294,1000,I,z,550,1,1,1573.5,236870.70000076294,9015,NTS,B,14
6,15,test,1,A,circle.png,1,m,Tue Apr 29 2025 10:04:34 GMT-0400 (Eastern Daylight Time),240961.0,1900,I,m,594,5,1,2509.0,238452.0,9015,NTS,B,15
7,16,test,1,A,circle.png,1,m,Tue Apr 29 2025 10:04:34 GMT-0400 (Eastern Daylight Time),243161.10000038147,1700,I,m,469,6,1,2192.0,240969.10000038147,9015,NTS,B,16
4,17,test,1,A,circle.png,1,z,Tue Apr 29 2025 10:04:34 GMT-0400 (Eastern Daylight Time),245360.9000005722,1400,I,z,778,4,1,2191.300000190735,243169.60000038147,9015,NTS,B,17
9,18,test,1,A,circle.png,1,m,Tue Apr 29 2025 10:04:34 GMT-0400 (Eastern Daylight Time),247544.5,1500,I,m,654,8,1,2174.5999994277954,245369.9000005722,9015,NTS,B,18
8,19,test,1,A,circle.png,1,m,Tue Apr 29 2025 10:04:34 GMT-0400 (Eastern Daylight Time),249944.4000005722,1600,I,m,770,7,1,2390.800000190735,247553.60000038147,9015,NTS,B,19
9,20,test,1,A,circle.png,1,m,Tue Apr 29 2025 10:04:34 GMT-0400 (Eastern Daylight Time),252394.4000005722,1500,I,m,917,8,1,2440.9000005722046,249953.5,9015,NTS,B,20
4,21,test,1,A,circle.png,1,z,Tue Apr 29 2025 10:04:34 GMT-0400 (Eastern Daylight Time),254294.30000019073,1400,I,z,472,4,1,1890.1999998092651,252404.10000038147,9015,NTS,B,21
8,22,test,1,A,circle.png,1,m,Tue Apr 29 2025 10:04:34 GMT-0400 (Eastern Daylight Time),256861.0,1600,I,m,931,7,1,2557.7999992370605,254303.20000076294,9015,NTS,B,22
2,23,test,1,A,circle.png,1,z,Tue Apr 29 2025 10:04:34 GMT-0400 (Eastern Daylight Time),259310.80000019073,2000,I,z,430,2,1,2440.5999994277954,256870.20000076294,9015,NTS,B,23
3,24,test,1,A,circle.png,1,z,Tue Apr 29 2025 10:04:34 GMT-0400 (Eastern Daylight Time),260944.20000076294,1200,I,z,410,3,1,1622.9000005722046,259321.30000019073,9015,NTS,B,24
9,1,test,1,B,triangle.png,1,z,Tue Apr 29 2025 10:04:34 GMT-0400 (Eastern Daylight Time),280577.70000076294,1900,I,z,877,16,1,2792.4000005722046,277785.30000019073,9015,NTS,B,1
3,2,test,1,B,triangle.png,1,z,Tue Apr 29 2025 10:04:34 GMT-0400 (Eastern Daylight Time),283177.70000076294,2000,I,z,569,11,1,2590.4000005722046,280587.30000019073,9015,NTS,B,2
7,3,test,1,B,triangle.png,1,z,Tue Apr 29 2025 10:04:34 GMT-0400 (Eastern Daylight Time),285811.0,2000,I,z,609,6,1,2624.699999809265,283186.30000019073,9015,NTS,B,3
6,4,test,1,B,triangle.png,1,m,Tue Apr 29 2025 10:04:34 GMT-0400 (Eastern Daylight Time),287927.5,1500,I,m,588,13,1,2106.8999996185303,285820.60000038147,9015,NTS,B,4
3,5,test,1,B,triangle.png,1,z,Tue Apr 29 2025 10:04:34 GMT-0400 (Eastern Daylight Time),290510.70000076294,2000,I,z,563,11,1,2574.5,287936.20000076294,9015,NTS,B,5
3,6,test,1,B,triangle.png,1,z,Tue Apr 29 2025 10:04:34 GMT-0400 (Eastern Daylight Time),292677.60000038147,1600,I,z,540,3,1,2157.0,290520.60000038147,9015,NTS,B,6
1,7,test,1,B,triangle.png,1,z,Tue Apr 29 2025 10:04:34 GMT-0400 (Eastern Daylight Time),295144.4000005722,1900,I,z,537,1,1,2456.5,292687.9000005722,9015,NTS,B,7
8,8,test,1,B,triangle.png,1,m,Tue Apr 29 2025 10:04:34 GMT-0400 (Eastern Daylight Time),296894.0,1200,I,m,531,7,1,1739.0999994277954,295154.9000005722,9015,NTS,B,8
6,9,test,1,B,triangle.png,1,m,Tue Apr 29 2025 10:04:34 GMT-0400 (Eastern Daylight Time),298427.70000076294,1000,I,m,500,5,1,1524.8000001907349,296902.9000005722,9015,NTS,B,9
9,10,test,1,B,triangle.png,1,z,Tue Apr 29 2025 10:04:34 GMT-0400 (Eastern Daylight Time),300744.30000019073,1400,I,z,888,8,1,2302.3999996185303,298441.9000005722,9015,NTS,B,10
7,11,test,1,B,triangle.png,1,z,Tue Apr 29 2025 10:04:34 GMT-0400 (Eastern Daylight Time),303527.80000019073,2000,I,z,755,6,1,2769.5,300758.30000019073,9015,NTS,B,11
1,12,test,1,B,triangle.png,1,z,Tue Apr 29 2025 10:04:34 GMT-0400 (Eastern Daylight Time),305494.30000019073,1400,I,z,540,9,1,1958.8000001907349,303535.5,9015,NTS,B,12
8,13,test,1,B,triangle.png,1,m,Tue Apr 29 2025 10:04:34 GMT-0400 (Eastern Daylight Time),307677.60000038147,1700,I,m,465,15,1,2174.800000190735,305502.80000019073,9015,NTS,B,13
2,14,test,1,B,triangle.png,1,m,Tue Apr 29 2025 10:04:34 GMT-0400 (Eastern Daylight Time),310127.60000038147,1700,I,m,731,2,1,2442.8999996185303,307684.70000076294,9015,NTS,B,14
2,15,test,1,B,triangle.png,1,m,Tue Apr 29 2025 10:04:34 GMT-0400 (Eastern Daylight Time),311877.70000076294,1200,I,m,524,10,1,1741.2000007629395,310136.5,9015,NTS,B,15
1,16,test,1,B,triangle.png,1,z,Tue Apr 29 2025 10:04:34 GMT-0400 (Eastern Daylight Time),313877.20000076294,1400,I,z,573,9,1,1990.8000001907349,311886.4000005722,9015,NTS,B,16
4,17,test,1,B,triangle.png,1,m,Tue Apr 29 2025 10:04:34 GMT-0400 (Eastern Daylight Time),316095.0,1500,I,m,698,4,1,2212.5,313882.5,9015,NTS,B,17
4,18,test,1,B,triangle.png,1,m,Tue Apr 29 2025 10:04:34 GMT-0400 (Eastern Daylight Time),318210.9000005722,1000,I,m,1093,12,1,2107.300000190735,316103.60000038147,9015,NTS,B,18
8,19,test,1,B,triangle.png,1,m,Tue Apr 29 2025 10:04:34 GMT-0400 (Eastern Daylight Time),319994.4000005722,1200,I,m,553,7,1,1768.9000005722046,318225.5,9015,NTS,B,19
4,20,test,1,B,triangle.png,1,m,Tue Apr 29 2025 10:04:34 GMT-0400 (Eastern Daylight Time),321644.4000005722,1000,I,m,617,12,1,1641.5,320002.9000005722,9015,NTS,B,20
4,21,test,1,B,triangle.png,1,m,Tue Apr 29 2025 10:04:34 GMT-0400 (Eastern Daylight Time),323710.70000076294,1500,I,m,547,4,1,2057.4000005722046,321653.30000019073,9015,NTS,B,21
7,22,test,1,B,triangle.png,1,z,Tue Apr 29 2025 10:04:34 GMT-0400 (Eastern Daylight Time),326244.30000019073,1600,I,z,909,14,1,2525.300000190735,323719.0,9015,NTS,B,22
2,23,test,1,B,triangle.png,1,m,Tue Apr 29 2025 10:04:34 GMT-0400 (Eastern Daylight Time),328677.5,1700,I,m,707,2,1,2424.0999994277954,326253.4000005722,9015,NTS,B,23
6,24,test,1,B,triangle.png,1,m,Tue Apr 29 2025 10:04:34 GMT-0400 (Eastern Daylight Time),330495.0,1000,I,m,797,5,1,1808.7999992370605,328686.20000076294,9015,NTS,B,24
1,0,prac,1,C,circle.png,0,z,Tue Apr 29 2025 10:04:34 GMT-0400 (Eastern Daylight Time),376210.9000005722,1700,I,None,1515,1,1,3989.4000005722046,372221.5,9015,NTS,B,1
8,1,prac,1,C,triangle.png,1,m,Tue Apr 29 2025 10:04:34 GMT-0400 (Eastern Daylight Time),379544.30000019073,1400,I,m,1136,7,1,3320.300000190735,376224.0,9015,NTS,B,2
2,2,prac,1,C,triangle.png,1,m,Tue Apr 29 2025 10:04:34 GMT-0400 (Eastern Daylight Time),383227.60000038147,1600,I,m,1283,2,1,3671.1000003814697,379556.5,9015,NTS,B,3
6,2,prac,1,C,circle.png,0,m,Tue Apr 29 2025 10:04:34 GMT-0400 (Eastern Daylight Time),387527.4000005722,2000,I,None,1516,5,1,4288.10000038147,383239.30000019073,9015,NTS,B,4
1,3,prac,1,C,circle.png,1,z,Tue Apr 29 2025 10:04:34 GMT-0400 (Eastern Daylight Time),390794.4000005722,1700,I,z,767,1,1,3255.300000190735,387539.10000038147,9015,NTS,B,5
7,3,prac,1,C,triangle.png,0,z,Tue Apr 29 2025 10:04:34 GMT-0400 (Eastern Daylight Time),394294.0,1200,I,None,1515,6,1,3488.8999996185303,390805.10000038147,9015,NTS,B,6
3,3,prac,1,C,triangle.png,0,z,Tue Apr 29 2025 10:04:34 GMT-0400 (Eastern Daylight Time),398094.20000076294,1500,I,None,1516,3,1,3789.800000190735,394304.4000005722,9015,NTS,B,7
9,3,prac,1,C,circle.png,0,m,Tue Apr 29 2025 10:04:34 GMT-0400 (Eastern Daylight Time),401610.80000019073,1900,I,z,816,8,1,3506.3999996185303,398104.4000005722,9015,NTS,B,8
2,4,prac,1,C,triangle.png,1,m,Tue Apr 29 2025 10:04:34 GMT-0400 (Eastern Daylight Time),404727.4000005722,1600,I,m,720,2,1,3105.9000005722046,401621.5,9015,NTS,B,9
7,4,prac,1,C,triangle.png,0,z,Tue Apr 29 2025 10:04:34 GMT-0400 (Eastern Daylight Time),407644.20000076294,1200,I,m,932,6,1,2907.1000003814697,404737.10000038147,9015,NTS,B,10
6,4,prac,1,C,circle.png,0,m,Tue Apr 29 2025 10:04:34 GMT-0400 (Eastern Daylight Time),411410.9000005722,2000,I,z,975,5,1,3755.800000190735,407655.10000038147,9015,NTS,B,11
4,4,prac,1,C,circle.png,0,z,Tue Apr 29 2025 10:04:34 GMT-0400 (Eastern Daylight Time),413744.0,1000,I,m,544,4,1,2319.5,411424.5,9015,NTS,B,12
3,1,prac,2,C,triangle.png,1,z,Tue Apr 29 2025 10:04:34 GMT-0400 (Eastern Daylight Time),426860.80000019073,1500,I,z,1448,3,1,3719.0,423141.80000019073,9015,NTS,B,1
1,1,prac,2,C,circle.png,0,z,Tue Apr 29 2025 10:04:34 GMT-0400 (Eastern Daylight Time),430860.60000038147,1700,I,None,1515,1,1,3989.300000190735,426871.30000019073,9015,NTS,B,2
1,2,prac,2,C,circle.png,1,z,Tue Apr 29 2025 10:04:34 GMT-0400 (Eastern Daylight Time),433777.4000005722,1700,I,z,427,1,1,2905.800000190735,430871.60000038147,9015,NTS,B,3
4,2,prac,2,C,circle.png,0,z,Tue Apr 29 2025 10:04:34 GMT-0400 (Eastern Daylight Time),436427.30000019073,1000,I,m,850,4,1,2639.5999994277954,433787.70000076294,9015,NTS,B,4
8,3,prac,2,C,triangle.png,1,m,Tue Apr 29 2025 10:04:34 GMT-0400 (Eastern Daylight Time),439327.60000038147,1400,I,m,712,7,1,2889.800000190735,436437.80000019073,9015,NTS,B,5
6,4,prac,2,C,circle.png,1,m,Tue Apr 29 2025 10:04:34 GMT-0400 (Eastern Daylight Time),443060.70000076294,2000,I,m,940,5,1,3720.0,439340.70000076294,9015,NTS,B,6
7,5,prac,2,C,triangle.png,1,z,Tue Apr 29 2025 10:04:34 GMT-0400 (Eastern Daylight Time),446394.10000038147,1200,I,z,1334,6,1,3322.5,443071.60000038147,9015,NTS,B,7
9,6,prac,2,C,circle.png,1,m,Tue Apr 29 2025 10:04:34 GMT-0400 (Eastern Daylight Time),449744.4000005722,1900,I,m,661,8,1,3338.4000005722046,446406.0,9015,NTS,B,8
8,7,prac,2,C,triangle.png,1,m,Tue Apr 29 2025 10:04:34 GMT-0400 (Eastern Daylight Time),453177.30000019073,1400,I,m,1235,7,1,3422.8999996185303,449754.4000005722,9015,NTS,B,9
6,8,prac,2,C,circle.png,1,m,Tue Apr 29 2025 10:04:34 GMT-0400 (Eastern Daylight Time),456843.60000038147,2000,I,m,882,5,1,3655.699999809265,453187.9000005722,9015,NTS,B,10
4,8,prac,2,C,circle.png,0,z,Tue Apr 29 2025 10:04:34 GMT-0400 (Eastern Daylight Time),459294.0,1000,I,m,663,4,1,2443.0,456851.0,9015,NTS,B,11
2,9,prac,2,C,triangle.png,1,m,Tue Apr 29 2025 10:04:34 GMT-0400 (Eastern Daylight Time),462527.4000005722,1600,I,m,845,2,1,3223.699999809265,459303.70000076294,9015,NTS,B,12
3,1,test,1,C,circle.png,1,z,Tue Apr 29 2025 10:04:34 GMT-0400 (Eastern Daylight Time),484827.5,1600,I,z,868,11,1,2492.0999994277954,482335.4000005722,9015,NTS,B,1
9,2,test,1,C,circle.png,1,m,Tue Apr 29 2025 10:04:34 GMT-0400 (Eastern Daylight Time),487444.0,1500,I,m,1092,24,1,2607.5,484836.5,9015,NTS,B,2
7,3,test,1,C,triangle.png,1,z,Tue Apr 29 2025 10:04:34 GMT-0400 (Eastern Daylight Time),490310.60000038147,1700,I,z,1139,22,1,2857.8999996185303,487452.70000076294,9015,NTS,B,3
6,4,test,1,C,triangle.png,1,m,Tue Apr 29 2025 10:04:34 GMT-0400 (Eastern Daylight Time),492110.4000005722,1000,I,m,780,13,1,1786.1999998092651,490324.20000076294,9015,NTS,B,4
4,5,test,1,C,triangle.png,1,m,Tue Apr 29 2025 10:04:34 GMT-0400 (Eastern Daylight Time),494644.0,1500,I,m,1008,20,1,2524.699999809265,492119.30000019073,9015,NTS,B,5
1,6,test,1,C,circle.png,1,z,Tue Apr 29 2025 10:04:34 GMT-0400 (Eastern Daylight Time),496460.80000019073,1000,I,z,783,1,1,1807.8000001907349,494653.0,9015,NTS,B,6
2,7,test,1,C,circle.png,1,z,Tue Apr 29 2025 10:04:34 GMT-0400 (Eastern Daylight Time),499377.4000005722,1700,I,z,1195,10,1,2908.5,496468.9000005722,9015,NTS,B,7
7,7,test,1,C,triangle.png,0,z,Tue Apr 29 2025 10:04:34 GMT-0400 (Eastern Daylight Time),502327.30000019073,1700,I,m,1222,6,1,2941.5999994277954,499385.70000076294,9015,NTS,B,8
9,8,test,1,C,circle.png,1,m,Tue Apr 29 2025 10:04:34 GMT-0400 (Eastern Daylight Time),504793.9000005722,1500,I,m,936,8,1,2457.4000005722046,502336.5,9015,NTS,B,9
3,9,test,1,C,triangle.png,1,z,Tue Apr 29 2025 10:04:34 GMT-0400 (Eastern Daylight Time),507510.70000076294,1200,I,z,1489,3,1,2708.1000003814697,504802.60000038147,9015,NTS,B,10
6,10,test,1,C,circle.png,1,m,Tue Apr 29 2025 10:04:34 GMT-0400 (Eastern Daylight Time),510093.30000019073,1900,I,m,664,5,1,2572.3999996185303,507520.9000005722,9015,NTS,B,11
8,11,test,1,C,triangle.png,1,m,Tue Apr 29 2025 10:04:34 GMT-0400 (Eastern Daylight Time),512944.0,1600,I,m,1229,23,1,2844.5999994277954,510099.4000005722,9015,NTS,B,12
9,11,test,1,C,triangle.png,0,z,Tue Apr 29 2025 10:04:34 GMT-0400 (Eastern Daylight Time),515877.30000019073,1400,I,None,1515,16,1,2923.800000190735,512953.5,9015,NTS,B,13
4,12,test,1,C,triangle.png,1,m,Tue Apr 29 2025 10:04:34 GMT-0400 (Eastern Daylight Time),518294.0,1500,I,m,890,12,1,2406.5,515887.5,9015,NTS,B,14
6,13,test,1,C,circle.png,1,m,Tue Apr 29 2025 10:04:34 GMT-0400 (Eastern Daylight Time),520977.30000019073,1900,I,m,762,21,1,2674.199999809265,518303.10000038147,9015,NTS,B,15
8,14,test,1,C,triangle.png,1,m,Tue Apr 29 2025 10:04:34 GMT-0400 (Eastern Daylight Time),523960.70000076294,1600,I,m,1354,7,1,2970.1000003814697,520990.60000038147,9015,NTS,B,16
3,15,test,1,C,circle.png,1,z,Tue Apr 29 2025 10:04:34 GMT-0400 (Eastern Daylight Time),526527.1000003815,1600,I,z,946,19,1,2556.800000190735,523970.30000019073,9015,NTS,B,17
1,15,test,1,C,triangle.png,0,z,Tue Apr 29 2025 10:04:34 GMT-0400 (Eastern Daylight Time),529960.7000007629,1900,I,None,1516,17,1,3424.9000005722046,526535.8000001907,9015,NTS,B,18
2,16,test,1,C,triangle.png,1,m,Tue Apr 29 2025 10:04:34 GMT-0400 (Eastern Daylight Time),532827.0,2000,I,m,835,2,1,2858.0,529969.0,9015,NTS,B,19
8,17,test,1,C,circle.png,1,m,Tue Apr 29 2025 10:04:34 GMT-0400 (Eastern Daylight Time),534860.6000003815,1200,I,m,800,15,1,2025.0,532835.6000003815,9015,NTS,B,20
4,18,test,1,C,circle.png,1,z,Tue Apr 29 2025 10:04:34 GMT-0400 (Eastern Daylight Time),537510.6000003815,1400,I,z,1223,4,1,2641.199999809265,534869.4000005722,9015,NTS,B,21
1,19,test,1,C,triangle.png,1,z,Tue Apr 29 2025 10:04:34 GMT-0400 (Eastern Daylight Time),540577.3000001907,1900,I,z,1143,9,1,3055.8999996185303,537521.4000005722,9015,NTS,B,22
7,20,test,1,C,circle.png,1,m,Tue Apr 29 2025 10:04:34 GMT-0400 (Eastern Daylight Time),543777.2000007629,2000,I,m,1178,14,1,3190.9000005722046,540586.3000001907,9015,NTS,B,23
2,21,test,1,C,circle.png,1,z,Tue Apr 29 2025 10:04:34 GMT-0400 (Eastern Daylight Time),546410.6000003815,1700,I,z,902,18,1,2624.300000190735,543786.3000001907,9015,NTS,B,24
6,1,test,2,C,triangle.png,1,m,Tue Apr 29 2025 10:04:34 GMT-0400 (Eastern Daylight Time),552310.7000007629,1000,I,m,906,13,1,1925.3000001907349,550385.4000005722,9015,NTS,B,1
2,2,test,2,C,circle.png,1,z,Tue Apr 29 2025 10:04:34 GMT-0400 (Eastern Daylight Time),554893.9000005722,1700,I,z,865,18,1,2569.6000003814697,552324.3000001907,9015,NTS,B,2
6,3,test,2,C,triangle.png,1,m,Tue Apr 29 2025 10:04:34 GMT-0400 (Eastern Daylight Time),556710.4000005722,1000,I,m,789,21,1,1808.9000005722046,554901.5,9015,NTS,B,3
2,4,test,2,C,triangle.png,1,m,Tue Apr 29 2025 10:04:34 GMT-0400 (Eastern Daylight Time),559560.6000003815,2000,I,m,820,2,1,2840.0,556720.6000003815,9015,NTS,B,4
8,5,test,2,C,circle.png,1,m,Tue Apr 29 2025 10:04:34 GMT-0400 (Eastern Daylight Time),561910.6000003815,1200,I,m,1123,15,1,2340.5,559570.1000003815,9015,NTS,B,5
7,5,test,2,C,circle.png,0,m,Tue Apr 29 2025 10:04:34 GMT-0400 (Eastern Daylight Time),564910.3000001907,2000,I,z,981,14,1,2989.199999809265,561921.1000003815,9015,NTS,B,6
7,6,test,2,C,triangle.png,1,z,Tue Apr 29 2025 10:04:34 GMT-0400 (Eastern Daylight Time),567760.5,1700,I,z,1129,6,1,2841.0999994277954,564919.4000005722,9015,NTS,B,7
2,7,test,2,C,circle.png,1,z,Tue Apr 29 2025 10:04:34 GMT-0400 (Eastern Daylight Time),570860.4000005722,1700,I,z,1366,10,1,3090.1000003814697,567770.3000001907,9015,NTS,B,8
7,7,test,2,C,circle.png,0,m,Tue Apr 29 2025 10:04:34 GMT-0400 (Eastern Daylight Time),574393.9000005722,2000,I,None,1516,22,1,3520.4000005722046,570873.5,9015,NTS,B,9
9,8,test,2,C,triangle.png,1,z,Tue Apr 29 2025 10:04:34 GMT-0400 (Eastern Daylight Time),576910.3000001907,1400,I,z,1097,24,1,2508.0,574402.3000001907,9015,NTS,B,10
1,9,test,2,C,triangle.png,1,z,Tue Apr 29 2025 10:04:34 GMT-0400 (Eastern Daylight Time),580143.9000005722,1900,I,z,1313,17,1,3225.1000003814697,576918.8000001907,9015,NTS,B,11
6,10,test,2,C,circle.png,1,m,Tue Apr 29 2025 10:04:34 GMT-0400 (Eastern Daylight Time),582827.2000007629,1900,I,m,751,5,1,2674.1000003814697,580153.1000003815,9015,NTS,B,12
1,11,test,2,C,circle.png,1,z,Tue Apr 29 2025 10:04:34 GMT-0400 (Eastern Daylight Time),584793.7000007629,1000,I,z,936,1,1,1957.0,582836.7000007629,9015,NTS,B,13
3,12,test,2,C,triangle.png,1,z,Tue Apr 29 2025 10:04:34 GMT-0400 (Eastern Daylight Time),587210.6000003815,1200,I,z,1185,3,1,2403.800000190735,584806.8000001907,9015,NTS,B,14
9,13,test,2,C,triangle.png,1,z,Tue Apr 29 2025 10:04:34 GMT-0400 (Eastern Daylight Time),589494.0,1400,I,z,857,16,1,2273.199999809265,587220.8000001907,9015,NTS,B,15
4,14,test,2,C,triangle.png,1,m,Tue Apr 29 2025 10:04:34 GMT-0400 (Eastern Daylight Time),592260.5,1500,I,m,1241,12,1,2758.0999994277954,589502.4000005722,9015,NTS,B,16
4,15,test,2,C,triangle.png,1,m,Tue Apr 29 2025 10:04:34 GMT-0400 (Eastern Daylight Time),594660.5,1500,I,m,875,20,1,2391.0,592269.5,9015,NTS,B,17
8,16,test,2,C,circle.png,1,m,Tue Apr 29 2025 10:04:34 GMT-0400 (Eastern Daylight Time),596760.5,1200,I,m,871,23,1,2091.0,594669.5,9015,NTS,B,18
9,17,test,2,C,circle.png,1,m,Tue Apr 29 2025 10:04:34 GMT-0400 (Eastern Daylight Time),599277.5,1500,I,m,999,8,1,2507.199999809265,596770.3000001907,9015,NTS,B,19
3,18,test,2,C,circle.png,1,z,Tue Apr 29 2025 10:04:34 GMT-0400 (Eastern Daylight Time),601493.8000001907,1600,I,z,590,11,1,2208.199999809265,599285.6000003815,9015,NTS,B,20
8,19,test,2,C,triangle.png,1,m,Tue Apr 29 2025 10:04:34 GMT-0400 (Eastern Daylight Time),603927.1000003815,1600,I,m,805,7,1,2424.300000190735,601502.8000001907,9015,NTS,B,21
3,20,test,2,C,circle.png,1,z,Tue Apr 29 2025 10:04:34 GMT-0400 (Eastern Daylight Time),606293.5,1600,I,z,739,19,1,2357.3999996185303,603936.1000003815,9015,NTS,B,22
1,21,test,2,C,triangle.png,1,z,Tue Apr 29 2025 10:04:34 GMT-0400 (Eastern Daylight Time),609177.1000003815,1900,I,z,953,9,1,2878.6000003814697,606298.5,9015,NTS,B,23
4,22,test,2,C,circle.png,1,z,Tue Apr 29 2025 10:04:34 GMT-0400 (Eastern Daylight Time),612093.6000003815,1400,I,z,1498,4,1,2907.300000190735,609186.3000001907,9015,NTS,B,24
6,1,test,3,C,circle.png,1,m,Tue Apr 29 2025 10:04:34 GMT-0400 (Eastern Daylight Time),617343.5,1900,I,m,1345,21,1,3258.5,614085.0,9015,NTS,B,1
2,2,test,3,C,circle.png,1,z,Tue Apr 29 2025 10:04:34 GMT-0400 (Eastern Daylight Time),620127.1000003815,1700,I,z,1063,10,1,2771.199999809265,617355.9000005722,9015,NTS,B,2
4,3,test,3,C,triangle.png,1,m,Tue Apr 29 2025 10:04:34 GMT-0400 (Eastern Daylight Time),622477.2000007629,1500,I,m,816,12,1,2341.4000005722046,620135.8000001907,9015,NTS,B,3
2,4,test,3,C,triangle.png,1,m,Tue Apr 29 2025 10:04:34 GMT-0400 (Eastern Daylight Time),625460.4000005722,2000,I,m,958,18,1,2973.6000003814697,622486.8000001907,9015,NTS,B,4
8,5,test,3,C,circle.png,1,m,Tue Apr 29 2025 10:04:34 GMT-0400 (Eastern Daylight Time),627726.9000005722,1200,I,m,1047,15,1,2257.800000190735,625469.1000003815,9015,NTS,B,5
7,6,test,3,C,triangle.png,1,z,Tue Apr 29 2025 10:04:34 GMT-0400 (Eastern Daylight Time),630743.8000001907,1700,I,z,1288,22,1,3007.699999809265,627736.1000003815,9015,NTS,B,6
3,7,test,3,C,circle.png,1,z,Tue Apr 29 2025 10:04:34 GMT-0400 (Eastern Daylight Time),632977.0,1600,I,z,611,11,1,2225.3999996185303,630751.6000003815,9015,NTS,B,7
6,8,test,3,C,circle.png,1,m,Tue Apr 29 2025 10:04:34 GMT-0400 (Eastern Daylight Time),635960.4000005722,1900,I,m,1054,5,1,2975.5,632984.9000005722,9015,NTS,B,8
3,9,test,3,C,triangle.png,1,z,Tue Apr 29 2025 10:04:34 GMT-0400 (Eastern Daylight Time),637793.9000005722,1200,I,z,610,3,1,1824.1000003814697,635969.8000001907,9015,NTS,B,9
1,10,test,3,C,triangle.png,1,z,Tue Apr 29 2025 10:04:34 GMT-0400 (Eastern Daylight Time),640393.9000005722,1900,I,z,668,9,1,2591.800000190735,637802.1000003815,9015,NTS,B,10
9,11,test,3,C,triangle.png,1,z,Tue Apr 29 2025 10:04:34 GMT-0400 (Eastern Daylight Time),643010.5,1400,I,z,1193,16,1,2607.2999992370605,640403.2000007629,9015,NTS,B,11
8,12,test,3,C,triangle.png,1,m,Tue Apr 29 2025 10:04:34 GMT-0400 (Eastern Daylight Time),645277.3000001907,1600,I,m,649,7,1,2257.0999994277954,643020.2000007629,9015,NTS,B,12
3,13,test,3,C,triangle.png,1,z,Tue Apr 29 2025 10:04:34 GMT-0400 (Eastern Daylight Time),647560.2000007629,1200,I,z,1054,19,1,2275.6000003814697,645284.6000003815,9015,NTS,B,13
4,14,test,3,C,circle.png,1,z,Tue Apr 29 2025 10:04:34 GMT-0400 (Eastern Daylight Time),650043.8000001907,1400,I,z,1050,20,1,2472.199999809265,647571.6000003815,9015,NTS,B,14
9,15,test,3,C,circle.png,1,m,Tue Apr 29 2025 10:04:34 GMT-0400 (Eastern Daylight Time),652710.5,1500,I,m,1139,8,1,2653.5999994277954,650056.9000005722,9015,NTS,B,15
1,16,test,3,C,circle.png,1,z,Tue Apr 29 2025 10:04:34 GMT-0400 (Eastern Daylight Time),654660.4000005722,1000,I,z,925,1,1,1939.1000003814697,652721.3000001907,9015,NTS,B,16
7,17,test,3,C,triangle.png,1,z,Tue Apr 29 2025 10:04:34 GMT-0400 (Eastern Daylight Time),657393.8000001907,1700,I,z,1011,6,1,2724.199999809265,654669.6000003815,9015,NTS,B,17
2,18,test,3,C,triangle.png,1,m,Tue Apr 29 2025 10:04:34 GMT-0400 (Eastern Daylight Time),660393.7000007629,2000,I,m,970,2,1,2990.800000190735,657402.9000005722,9015,NTS,B,18
4,19,test,3,C,circle.png,1,z,Tue Apr 29 2025 10:04:34 GMT-0400 (Eastern Daylight Time),662543.6000003815,1400,I,z,728,4,1,2141.5,660402.1000003815,9015,NTS,B,19
6,20,test,3,C,triangle.png,1,m,Tue Apr 29 2025 10:04:34 GMT-0400 (Eastern Daylight Time),664443.8000001907,1000,I,m,867,13,1,1891.8999996185303,662551.9000005722,9015,NTS,B,20
7,20,test,3,C,circle.png,0,m,Tue Apr 29 2025 10:04:34 GMT-0400 (Eastern Daylight Time),667077.1000003815,2000,I,z,608,14,1,2624.8999996185303,664452.2000007629,9015,NTS,B,21
1,21,test,3,C,circle.png,1,z,Tue Apr 29 2025 10:04:34 GMT-0400 (Eastern Daylight Time),668610.5,1000,I,z,510,17,1,1520.1999998092651,667090.3000001907,9015,NTS,B,22
8,22,test,3,C,triangle.png,1,m,Tue Apr 29 2025 10:04:34 GMT-0400 (Eastern Daylight Time),671077.1000003815,1600,I,m,841,23,1,2457.800000190735,668619.3000001907,9015,NTS,B,23
9,23,test,3,C,circle.png,1,m,Tue Apr 29 2025 10:04:34 GMT-0400 (Eastern Daylight Time),673510.5,1500,I,m,905,24,1,2424.2999992370605,671086.2000007629,9015,NTS,B,24
1,1,test,4,C,circle.png,1,z,Tue Apr 29 2025 10:04:34 GMT-0400 (Eastern Daylight Time),677010.6000003815,1000,I,z,626,1,1,1642.1000003814697,675368.5,9015,NTS,B,1
2,2,test,4,C,circle.png,1,z,Tue Apr 29 2025 10:04:34 GMT-0400 (Eastern Daylight Time),679743.8000001907,1700,I,z,1013,10,1,2724.0999994277954,677019.7000007629,9015,NTS,B,2
3,3,test,4,C,circle.png,1,z,Tue Apr 29 2025 10:04:34 GMT-0400 (Eastern Daylight Time),682243.7000007629,1600,I,z,875,11,1,2490.5,679753.2000007629,9015,NTS,B,3
7,4,test,4,C,circle.png,1,m,Tue Apr 29 2025 10:04:34 GMT-0400 (Eastern Daylight Time),685127.1000003815,2000,I,m,855,14,1,2872.5,682254.6000003815,9015,NTS,B,4
6,5,test,4,C,triangle.png,1,m,Tue Apr 29 2025 10:04:34 GMT-0400 (Eastern Daylight Time),687110.4000005722,1000,I,m,956,13,1,1973.9000005722046,685136.5,9015,NTS,B,5
9,6,test,4,C,circle.png,1,m,Tue Apr 29 2025 10:04:34 GMT-0400 (Eastern Daylight Time),689143.7000007629,1500,I,m,504,8,1,2024.7000007629395,687119.0,9015,NTS,B,6
6,7,test,4,C,circle.png,1,m,Tue Apr 29 2025 10:04:34 GMT-0400 (Eastern Daylight Time),692077.0,1900,I,m,1001,21,1,2919.5999994277954,689157.4000005722,9015,NTS,B,7
1,8,test,4,C,circle.png,1,z,Tue Apr 29 2025 10:04:34 GMT-0400 (Eastern Daylight Time),693676.4000005722,1000,I,z,583,17,1,1589.6999998092651,692086.7000007629,9015,NTS,B,8
8,9,test,4,C,triangle.png,1,m,Tue Apr 29 2025 10:04:34 GMT-0400 (Eastern Daylight Time),696060.3000001907,1600,I,m,749,23,1,2379.0,693681.3000001907,9015,NTS,B,9
8,10,test,4,C,circle.png,1,m,Tue Apr 29 2025 10:04:34 GMT-0400 (Eastern Daylight Time),698360.4000005722,1200,I,m,1070,15,1,2289.9000005722046,696070.5,9015,NTS,B,10
9,11,test,4,C,circle.png,1,m,Tue Apr 29 2025 10:04:34 GMT-0400 (Eastern Daylight Time),700926.9000005722,1500,I,m,1046,24,1,2555.4000005722046,698371.5,9015,NTS,B,11
9,12,test,4,C,triangle.png,1,z,Tue Apr 29 2025 10:04:34 GMT-0400 (Eastern Daylight Time),703277.0,1400,I,z,916,16,1,2340.8999996185303,700936.1000003815,9015,NTS,B,12
2,13,test,4,C,triangle.png,1,m,Tue Apr 29 2025 10:04:34 GMT-0400 (Eastern Daylight Time),706243.8000001907,2000,I,m,942,2,1,2957.300000190735,703286.5,9015,NTS,B,13
3,14,test,4,C,triangle.png,1,z,Tue Apr 29 2025 10:04:34 GMT-0400 (Eastern Daylight Time),708543.6000003815,1200,I,z,1079,19,1,2288.5,706255.1000003815,9015,NTS,B,14
7,15,test,4,C,triangle.png,1,z,Tue Apr 29 2025 10:04:34 GMT-0400 (Eastern Daylight Time),711160.4000005722,1700,I,z,886,22,1,2607.699999809265,708552.7000007629,9015,NTS,B,15
7,16,test,4,C,triangle.png,1,z,Tue Apr 29 2025 10:04:34 GMT-0400 (Eastern Daylight Time),714126.8000001907,1700,I,z,1247,6,1,2953.0999994277954,711173.7000007629,9015,NTS,B,16
3,17,test,4,C,triangle.png,1,z,Tue Apr 29 2025 10:04:34 GMT-0400 (Eastern Daylight Time),716177.1000003815,1200,I,z,827,3,1,2041.5,714135.6000003815,9015,NTS,B,17
2,18,test,4,C,triangle.png,1,m,Tue Apr 29 2025 10:04:34 GMT-0400 (Eastern Daylight Time),719193.8000001907,2000,I,m,985,18,1,3008.199999809265,716185.6000003815,9015,NTS,B,18
4,19,test,4,C,triangle.png,1,m,Tue Apr 29 2025 10:04:34 GMT-0400 (Eastern Daylight Time),721777.0,1500,I,m,1061,12,1,2572.2999992370605,719204.7000007629,9015,NTS,B,19
4,20,test,4,C,circle.png,1,z,Tue Apr 29 2025 10:04:34 GMT-0400 (Eastern Daylight Time),724243.6000003815,1400,I,z,1042,4,1,2458.699999809265,721784.9000005722,9015,NTS,B,20
1,21,test,4,C,triangle.png,1,z,Tue Apr 29 2025 10:04:34 GMT-0400 (Eastern Daylight Time),727160.3000001907,1900,I,z,988,9,1,2907.3999996185303,724252.9000005722,9015,NTS,B,21
6,22,test,4,C,circle.png,1,m,Tue Apr 29 2025 10:04:34 GMT-0400 (Eastern Daylight Time),730227.0,1900,I,m,1142,5,1,3058.5,727168.5,9015,NTS,B,22
4,23,test,4,C,circle.png,1,z,Tue Apr 29 2025 10:04:34 GMT-0400 (Eastern Daylight Time),732726.9000005722,1400,I,z,1071,20,1,2491.699999809265,730235.2000007629,9015,NTS,B,23
8,24,test,4,C,triangle.png,1,m,Tue Apr 29 2025 10:04:34 GMT-0400 (Eastern Daylight Time),735177.0,1600,I,m,820,7,1,2440.7999992370605,732736.2000007629,9015,NTS,B,24
