acc_sum,block,block_c,change,condition,correct,correct_response,datetime,endtime,face,project,response,response_time,row_sel,session_number,start_end,starttime,subject_id,task,task_vers,trial
0,prac,1,,1-Back,,,Wed Mar 19 2025 11:49:51 GMT-0500 (Central Daylight Time),,005_o_f_d_a.png,O,space,8963,1,1,,,7089,VNB,B,0
1,prac,1,0.0,1-Back,1,m,Wed Mar 19 2025 11:49:51 GMT-0500 (Central Daylight Time),166039.90000003576,020_y_f_n_a.png,O,m,1698,2,1,2594.900000035763,163445.0,7089,VNB,B,1
2,prac,1,0.0,1-Back,1,m,Wed Mar 19 2025 11:49:51 GMT-0500 (Central Daylight Time),168655.80000001192,007_m_m_h_a.png,O,m,1669,3,1,2581.899999976158,166073.90000003576,7089,VNB,B,2
3,prac,1,0.0,1-Back,1,m,Wed Mar 19 2025 11:49:51 GMT-0500 (Central Daylight Time),170521.90000003576,016_y_m_d_a.png,O,m,919,4,1,1840.2000000476837,168681.69999998808,7089,VNB,B,3
4,prac,1,0.0,1-Back,1,m,Wed Mar 19 2025 11:49:51 GMT-0500 (Central Daylight Time),172754.19999998808,005_o_f_n_a.png,O,m,1280,5,1,2193.099999964237,170561.10000002384,7089,VNB,B,4
5,prac,1,1.0,1-Back,1,z,Wed Mar 19 2025 11:49:51 GMT-0500 (Central Daylight Time),175436.5,016_y_m_n_a.png,O,z,1720,6,1,2646.599999964237,172789.90000003576,7089,VNB,B,5
6,prac,1,0.0,1-Back,1,m,Wed Mar 19 2025 11:49:51 GMT-0500 (Central Daylight Time),177702.5,004_o_m_h_a.png,O,m,1323,7,1,2223.899999976158,175478.60000002384,7089,VNB,B,6
7,prac,1,0.0,1-Back,1,m,Wed Mar 19 2025 11:49:51 GMT-0500 (Central Daylight Time),180284.69999998808,011_m_f_d_a.png,O,m,1634,8,1,2547.899999976158,177736.80000001192,7089,VNB,B,7
7,prac,1,1.0,1-Back,0,z,Wed Mar 19 2025 11:49:51 GMT-0500 (Central Daylight Time),183217.0,020_y_f_d_a.png,O,None,2003,9,1,2897.800000011921,180319.19999998808,7089,VNB,B,8
8,prac,1,0.0,1-Back,1,m,Wed Mar 19 2025 11:49:51 GMT-0500 (Central Daylight Time),185600.0,007_m_m_n_a.png,O,m,1410,10,1,2342.199999988079,183257.80000001192,7089,VNB,B,9
9,prac,1,0.0,1-Back,1,m,Wed Mar 19 2025 11:49:51 GMT-0500 (Central Daylight Time),187632.80000001192,005_o_f_h_a.png,O,m,1072,11,1,1987.5,185645.30000001192,7089,VNB,B,10
10,prac,1,0.0,1-Back,1,m,Wed Mar 19 2025 11:49:51 GMT-0500 (Central Daylight Time),189732.40000003576,016_y_m_d_a.png,O,m,1139,12,1,2060.800000011921,187671.60000002384,7089,VNB,B,11
0,test,1,0.0,1-Back,,,Wed Mar 19 2025 11:49:51 GMT-0500 (Central Daylight Time),189732.40000003576,020_y_f_d_a.png,O,space,6297,1,1,2060.800000011921,187671.60000002384,7089,VNB,B,0
1,test,1,0.0,1-Back,1,m,Wed Mar 19 2025 11:49:51 GMT-0500 (Central Daylight Time),206892.80000001192,011_m_f_n_a.png,O,m,944,2,1,1963.699999988079,204929.10000002384,7089,VNB,B,1
2,test,1,0.0,1-Back,1,m,Wed Mar 19 2025 11:49:51 GMT-0500 (Central Daylight Time),208792.10000002384,004_o_m_h_a.png,O,m,856,3,1,1876.0,206916.10000002384,7089,VNB,B,2
3,test,1,1.0,1-Back,1,z,Wed Mar 19 2025 11:49:51 GMT-0500 (Central Daylight Time),210691.30000001192,007_m_m_h_a.png,O,z,861,4,1,1868.699999988079,208822.60000002384,7089,VNB,B,3
4,test,1,0.0,1-Back,1,m,Wed Mar 19 2025 11:49:51 GMT-0500 (Central Daylight Time),212424.30000001192,005_o_f_n_a.png,O,m,691,5,1,1706.8999999761581,210717.40000003576,7089,VNB,B,4
5,test,1,0.0,1-Back,1,m,Wed Mar 19 2025 11:49:51 GMT-0500 (Central Daylight Time),214556.90000003576,016_y_m_d_a.png,O,m,1085,6,1,2104.400000035763,212452.5,7089,VNB,B,5
6,test,1,1.0,1-Back,1,z,Wed Mar 19 2025 11:49:51 GMT-0500 (Central Daylight Time),216589.40000003576,011_m_f_d_a.png,O,z,984,7,1,2009.300000011921,214580.10000002384,7089,VNB,B,6
7,test,1,0.0,1-Back,1,m,Wed Mar 19 2025 11:49:51 GMT-0500 (Central Daylight Time),218288.90000003576,020_y_f_h_a.png,O,m,651,8,1,1671.300000011921,216617.60000002384,7089,VNB,B,7
8,test,1,0.0,1-Back,1,m,Wed Mar 19 2025 11:49:51 GMT-0500 (Central Daylight Time),220238.30000001192,004_o_m_n_a.png,O,m,900,9,1,1918.8999999761581,218319.40000003576,7089,VNB,B,8
9,test,1,0.0,1-Back,1,m,Wed Mar 19 2025 11:49:51 GMT-0500 (Central Daylight Time),223104.10000002384,016_y_m_h_a.png,O,m,1807,10,1,2834.400000035763,220269.69999998808,7089,VNB,B,9
10,test,1,0.0,1-Back,1,m,Wed Mar 19 2025 11:49:51 GMT-0500 (Central Daylight Time),225186.80000001192,004_o_m_d_a.png,O,m,1045,11,1,2056.0,223130.80000001192,7089,VNB,B,10
10,test,1,1.0,1-Back,0,z,Wed Mar 19 2025 11:49:51 GMT-0500 (Central Daylight Time),227035.19999998808,005_o_f_d_a.png,O,m,810,12,1,1821.8999999761581,225213.30000001192,7089,VNB,B,11
11,test,1,0.0,1-Back,1,m,Wed Mar 19 2025 11:49:51 GMT-0500 (Central Daylight Time),229335.40000003576,007_m_m_n_a.png,O,m,1276,13,1,2294.7000000476837,227040.69999998808,7089,VNB,B,12
12,test,1,1.0,1-Back,1,z,Wed Mar 19 2025 11:49:51 GMT-0500 (Central Daylight Time),231301.40000003576,020_y_f_n_a.png,O,z,909,14,1,1941.6000000238419,229359.80000001192,7089,VNB,B,13
13,test,1,0.0,1-Back,1,m,Wed Mar 19 2025 11:49:51 GMT-0500 (Central Daylight Time),233334.0,011_m_f_h_a.png,O,m,992,15,1,2003.5999999642372,231330.40000003576,7089,VNB,B,14
14,test,1,0.0,1-Back,1,m,Wed Mar 19 2025 11:49:51 GMT-0500 (Central Daylight Time),235049.90000003576,007_m_m_d_a.png,O,m,679,16,1,1685.9000000357628,233364.0,7089,VNB,B,15
15,test,1,0.0,1-Back,1,m,Wed Mar 19 2025 11:49:51 GMT-0500 (Central Daylight Time),236816.19999998808,016_y_m_n_a.png,O,m,715,17,1,1740.0999999642372,235076.10000002384,7089,VNB,B,16
16,test,1,0.0,1-Back,1,m,Wed Mar 19 2025 11:49:51 GMT-0500 (Central Daylight Time),238982.10000002384,005_o_f_h_a.png,O,m,1117,18,1,2140.199999988079,236841.90000003576,7089,VNB,B,17
0,test,2,0.0,1-Back,,,Wed Mar 19 2025 11:49:51 GMT-0500 (Central Daylight Time),238982.10000002384,016_y_m_n_a.png,O,space,1712,1,1,2140.199999988079,236841.90000003576,7089,VNB,B,0
1,test,2,0.0,1-Back,1,m,Wed Mar 19 2025 11:49:51 GMT-0500 (Central Daylight Time),244813.60000002384,020_y_f_h_a.png,O,m,1075,2,1,2095.199999988079,242718.40000003576,7089,VNB,B,1
2,test,2,1.0,1-Back,1,m,Wed Mar 19 2025 11:49:51 GMT-0500 (Central Daylight Time),246529.60000002384,004_o_m_n_a.png,O,m,672,3,1,1690.800000011921,244838.80000001192,7089,VNB,B,2
3,test,2,0.0,1-Back,1,m,Wed Mar 19 2025 11:49:51 GMT-0500 (Central Daylight Time),248445.69999998808,011_m_f_d_a.png,O,m,859,4,1,1884.5999999642372,246561.10000002384,7089,VNB,B,3
4,test,2,0.0,1-Back,1,z,Wed Mar 19 2025 11:49:51 GMT-0500 (Central Daylight Time),250028.5,007_m_m_d_a.png,O,z,537,5,1,1559.0999999642372,248469.40000003576,7089,VNB,B,4
5,test,2,0.0,1-Back,1,m,Wed Mar 19 2025 11:49:51 GMT-0500 (Central Daylight Time),251861.19999998808,016_y_m_h_a.png,O,m,785,6,1,1806.0999999642372,250055.10000002384,7089,VNB,B,5
6,test,2,1.0,1-Back,1,z,Wed Mar 19 2025 11:49:51 GMT-0500 (Central Daylight Time),253759.80000001192,005_o_f_h_a.png,O,z,863,7,1,1872.8999999761581,251886.90000003576,7089,VNB,B,6
7,test,2,0.0,1-Back,1,m,Wed Mar 19 2025 11:49:51 GMT-0500 (Central Daylight Time),255493.69999998808,011_m_f_n_a.png,O,m,701,8,1,1729.0999999642372,253764.60000002384,7089,VNB,B,7
8,test,2,0.0,1-Back,1,m,Wed Mar 19 2025 11:49:51 GMT-0500 (Central Daylight Time),257526.0,020_y_f_d_a.png,O,m,967,9,1,2003.0,255523.0,7089,VNB,B,8
9,test,2,0.0,1-Back,1,m,Wed Mar 19 2025 11:49:51 GMT-0500 (Central Daylight Time),260058.5,007_m_m_n_a.png,O,m,1495,10,1,2504.899999976158,257553.60000002384,7089,VNB,B,9
10,test,2,1.0,1-Back,1,m,Wed Mar 19 2025 11:49:51 GMT-0500 (Central Daylight Time),262025.10000002384,011_m_f_h_a.png,O,m,915,11,1,1931.6000000238419,260093.5,7089,VNB,B,10
11,test,2,0.0,1-Back,1,z,Wed Mar 19 2025 11:49:51 GMT-0500 (Central Daylight Time),263841.10000002384,004_o_m_h_a.png,O,z,781,12,1,1786.300000011921,262054.80000001192,7089,VNB,B,11
12,test,2,0.0,1-Back,1,m,Wed Mar 19 2025 11:49:51 GMT-0500 (Central Daylight Time),265506.60000002384,016_y_m_d_a.png,O,m,612,13,1,1634.699999988079,263871.90000003576,7089,VNB,B,12
13,test,2,0.0,1-Back,1,m,Wed Mar 19 2025 11:49:51 GMT-0500 (Central Daylight Time),267223.1999999881,005_o_f_n_a.png,O,m,669,14,1,1689.3999999761581,265533.8000000119,7089,VNB,B,13
13,test,2,0.0,1-Back,0,z,Wed Mar 19 2025 11:49:51 GMT-0500 (Central Daylight Time),269088.1999999881,020_y_f_n_a.png,O,m,807,15,1,1830.5999999642372,267257.60000002384,7089,VNB,B,14
14,test,2,1.0,1-Back,1,m,Wed Mar 19 2025 11:49:51 GMT-0500 (Central Daylight Time),271021.6999999881,007_m_m_h_a.png,O,m,901,16,1,1927.2999999523163,269094.40000003576,7089,VNB,B,15
15,test,2,0.0,1-Back,1,m,Wed Mar 19 2025 11:49:51 GMT-0500 (Central Daylight Time),272771.3000000119,005_o_f_d_a.png,O,m,690,17,1,1715.800000011921,271055.5,7089,VNB,B,16
16,test,2,1.0,1-Back,1,z,Wed Mar 19 2025 11:49:51 GMT-0500 (Central Daylight Time),274737.3000000119,004_o_m_d_a.png,O,z,914,18,1,1934.699999988079,272802.60000002384,7089,VNB,B,17
0,test,3,1.0,1-Back,,,Wed Mar 19 2025 11:49:51 GMT-0500 (Central Daylight Time),274737.3000000119,005_o_f_h_a.png,O,space,1069,1,1,1934.699999988079,272802.60000002384,7089,VNB,B,0
1,test,3,0.0,1-Back,1,m,Wed Mar 19 2025 11:49:51 GMT-0500 (Central Daylight Time),279967.8000000119,011_m_f_d_a.png,O,m,921,2,1,1937.800000011921,278030.0,7089,VNB,B,1
2,test,3,1.0,1-Back,1,m,Wed Mar 19 2025 11:49:51 GMT-0500 (Central Daylight Time),282350.5,007_m_m_n_a.png,O,m,1358,3,1,2377.300000011921,279973.1999999881,7089,VNB,B,2
3,test,3,0.0,1-Back,1,z,Wed Mar 19 2025 11:49:51 GMT-0500 (Central Daylight Time),284383.8000000119,005_o_f_n_a.png,O,z,1010,4,1,2026.800000011921,282357.0,7089,VNB,B,3
4,test,3,1.0,1-Back,1,m,Wed Mar 19 2025 11:49:51 GMT-0500 (Central Daylight Time),286300.0,004_o_m_d_a.png,O,m,878,5,1,1888.0,284412.0,7089,VNB,B,4
4,test,3,0.0,1-Back,0,m,Wed Mar 19 2025 11:49:51 GMT-0500 (Central Daylight Time),288316.3000000119,020_y_f_h_a.png,O,z,952,6,1,1982.3999999761581,286333.90000003576,7089,VNB,B,5
5,test,3,0.0,1-Back,1,z,Wed Mar 19 2025 11:49:51 GMT-0500 (Central Daylight Time),290448.5,016_y_m_h_a.png,O,z,1089,7,1,2101.199999988079,288347.3000000119,7089,VNB,B,6
6,test,3,0.0,1-Back,1,m,Wed Mar 19 2025 11:49:51 GMT-0500 (Central Daylight Time),292314.60000002384,011_m_f_n_a.png,O,m,829,8,1,1837.199999988079,290477.40000003576,7089,VNB,B,7
7,test,3,0.0,1-Back,1,m,Wed Mar 19 2025 11:49:51 GMT-0500 (Central Daylight Time),294497.3000000119,020_y_f_d_a.png,O,m,1148,9,1,2156.100000023842,292341.1999999881,7089,VNB,B,8
8,test,3,1.0,1-Back,1,m,Wed Mar 19 2025 11:49:51 GMT-0500 (Central Daylight Time),296729.90000003576,004_o_m_n_a.png,O,m,1188,10,1,2201.5,294528.40000003576,7089,VNB,B,9
9,test,3,0.0,1-Back,1,m,Wed Mar 19 2025 11:49:51 GMT-0500 (Central Daylight Time),298612.60000002384,007_m_m_h_a.png,O,m,844,11,1,1856.9000000357628,296755.6999999881,7089,VNB,B,10
10,test,3,0.0,1-Back,1,z,Wed Mar 19 2025 11:49:51 GMT-0500 (Central Daylight Time),300295.3000000119,011_m_f_h_a.png,O,z,616,12,1,1648.699999988079,298646.60000002384,7089,VNB,B,11
11,test,3,1.0,1-Back,1,m,Wed Mar 19 2025 11:49:51 GMT-0500 (Central Daylight Time),301994.8000000119,005_o_f_d_a.png,O,m,646,13,1,1662.699999988079,300332.10000002384,7089,VNB,B,12
12,test,3,0.0,1-Back,1,z,Wed Mar 19 2025 11:49:51 GMT-0500 (Central Daylight Time),304010.8000000119,007_m_m_d_a.png,O,z,970,14,1,1995.300000011921,302015.5,7089,VNB,B,13
13,test,3,0.0,1-Back,1,m,Wed Mar 19 2025 11:49:51 GMT-0500 (Central Daylight Time),305643.60000002384,016_y_m_n_a.png,O,m,587,15,1,1603.800000011921,304039.8000000119,7089,VNB,B,14
14,test,3,1.0,1-Back,1,m,Wed Mar 19 2025 11:49:51 GMT-0500 (Central Daylight Time),307525.6999999881,004_o_m_h_a.png,O,m,841,16,1,1859.0,305666.6999999881,7089,VNB,B,15
15,test,3,0.0,1-Back,1,m,Wed Mar 19 2025 11:49:51 GMT-0500 (Central Daylight Time),309309.10000002384,016_y_m_d_a.png,O,m,760,17,1,1774.300000011921,307534.8000000119,7089,VNB,B,16
16,test,3,1.0,1-Back,1,m,Wed Mar 19 2025 11:49:51 GMT-0500 (Central Daylight Time),311041.0,020_y_f_n_a.png,O,m,679,18,1,1700.8999999761581,309340.10000002384,7089,VNB,B,17
0,test,4,1.0,1-Back,,,Wed Mar 19 2025 11:49:51 GMT-0500 (Central Daylight Time),311041.0,007_m_m_d_a.png,O,space,1599,1,1,1700.8999999761581,309340.10000002384,7089,VNB,B,0
0,test,4,0.0,1-Back,0,z,Wed Mar 19 2025 11:49:51 GMT-0500 (Central Daylight Time),317173.1999999881,004_o_m_d_a.png,O,m,1286,2,1,2317.2999999523163,314855.90000003576,7089,VNB,B,1
1,test,4,0.0,1-Back,1,m,Wed Mar 19 2025 11:49:51 GMT-0500 (Central Daylight Time),319005.8000000119,016_y_m_h_a.png,O,m,794,3,1,1808.199999988079,317197.60000002384,7089,VNB,B,2
2,test,4,0.0,1-Back,1,m,Wed Mar 19 2025 11:49:51 GMT-0500 (Central Daylight Time),320704.8000000119,011_m_f_n_a.png,O,m,658,4,1,1673.6000000238419,319031.1999999881,7089,VNB,B,3
3,test,4,1.0,1-Back,1,m,Wed Mar 19 2025 11:49:51 GMT-0500 (Central Daylight Time),322371.5,005_o_f_h_a.png,O,m,620,5,1,1647.0,320724.5,7089,VNB,B,4
4,test,4,0.0,1-Back,1,m,Wed Mar 19 2025 11:49:51 GMT-0500 (Central Daylight Time),324454.10000002384,007_m_m_n_a.png,O,m,1025,6,1,2047.5,322406.60000002384,7089,VNB,B,5
5,test,4,0.0,1-Back,1,m,Wed Mar 19 2025 11:49:51 GMT-0500 (Central Daylight Time),326253.60000002384,016_y_m_d_a.png,O,m,759,7,1,1769.5,324484.10000002384,7089,VNB,B,6
6,test,4,1.0,1-Back,1,z,Wed Mar 19 2025 11:49:51 GMT-0500 (Central Daylight Time),327952.8000000119,020_y_f_d_a.png,O,z,640,8,1,1666.5,326286.3000000119,7089,VNB,B,7
7,test,4,0.0,1-Back,1,m,Wed Mar 19 2025 11:49:51 GMT-0500 (Central Daylight Time),329635.8000000119,011_m_f_h_a.png,O,m,627,9,1,1651.300000011921,327984.5,7089,VNB,B,8
8,test,4,0.0,1-Back,1,z,Wed Mar 19 2025 11:49:51 GMT-0500 (Central Daylight Time),331267.60000002384,004_o_m_h_a.png,O,z,568,10,1,1594.699999988079,329672.90000003576,7089,VNB,B,9
9,test,4,1.0,1-Back,1,m,Wed Mar 19 2025 11:49:51 GMT-0500 (Central Daylight Time),332951.40000003576,005_o_f_n_a.png,O,m,657,11,1,1672.9000000357628,331278.5,7089,VNB,B,10
10,test,4,0.0,1-Back,1,m,Wed Mar 19 2025 11:49:51 GMT-0500 (Central Daylight Time),334984.0,011_m_f_d_a.png,O,m,982,12,1,2005.8999999761581,332978.10000002384,7089,VNB,B,11
11,test,4,0.0,1-Back,1,m,Wed Mar 19 2025 11:49:51 GMT-0500 (Central Daylight Time),337233.3000000119,020_y_f_n_a.png,O,m,1213,13,1,2220.0,335013.3000000119,7089,VNB,B,12
12,test,4,0.0,1-Back,1,m,Wed Mar 19 2025 11:49:51 GMT-0500 (Central Daylight Time),339082.40000003576,005_o_f_d_a.png,O,m,830,14,1,1837.1000000238419,337245.3000000119,7089,VNB,B,13
13,test,4,0.0,1-Back,1,m,Wed Mar 19 2025 11:49:51 GMT-0500 (Central Daylight Time),341615.60000002384,020_y_f_h_a.png,O,m,1466,15,1,2500.600000023842,339115.0,7089,VNB,B,14
14,test,4,1.0,1-Back,1,z,Wed Mar 19 2025 11:49:51 GMT-0500 (Central Daylight Time),343314.10000002384,007_m_m_h_a.png,O,z,663,16,1,1669.9000000357628,341644.1999999881,7089,VNB,B,15
15,test,4,0.0,1-Back,1,m,Wed Mar 19 2025 11:49:51 GMT-0500 (Central Daylight Time),344930.5,004_o_m_n_a.png,O,m,588,17,1,1603.800000011921,343326.6999999881,7089,VNB,B,16
16,test,4,1.0,1-Back,1,z,Wed Mar 19 2025 11:49:51 GMT-0500 (Central Daylight Time),346881.40000003576,016_y_m_n_a.png,O,z,882,18,1,1918.9000000357628,344962.5,7089,VNB,B,17
0,test,5,1.0,1-Back,,,Wed Mar 19 2025 11:49:51 GMT-0500 (Central Daylight Time),346881.40000003576,004_o_m_n_a.png,O,space,1220,1,1,1918.9000000357628,344962.5,7089,VNB,B,0
1,test,5,1.0,1-Back,1,m,Wed Mar 19 2025 11:49:51 GMT-0500 (Central Daylight Time),351862.0,005_o_f_h_a.png,O,m,669,2,1,1703.199999988079,350158.8000000119,7089,VNB,B,1
2,test,5,0.0,1-Back,1,m,Wed Mar 19 2025 11:49:51 GMT-0500 (Central Daylight Time),353777.5,016_y_m_d_a.png,O,m,863,3,1,1874.699999988079,351902.8000000119,7089,VNB,B,2
3,test,5,0.0,1-Back,1,z,Wed Mar 19 2025 11:49:51 GMT-0500 (Central Daylight Time),355393.5,004_o_m_d_a.png,O,z,580,4,1,1592.0999999642372,353801.40000003576,7089,VNB,B,3
4,test,5,0.0,1-Back,1,m,Wed Mar 19 2025 11:49:51 GMT-0500 (Central Daylight Time),357060.10000002384,011_m_f_h_a.png,O,m,603,5,1,1634.300000011921,355425.8000000119,7089,VNB,B,4
5,test,5,0.0,1-Back,1,m,Wed Mar 19 2025 11:49:51 GMT-0500 (Central Daylight Time),358726.3000000119,020_y_f_n_a.png,O,m,601,6,1,1634.699999988079,357091.60000002384,7089,VNB,B,5
6,test,5,1.0,1-Back,1,z,Wed Mar 19 2025 11:49:51 GMT-0500 (Central Daylight Time),360459.10000002384,005_o_f_n_a.png,O,z,687,7,1,1709.4000000357628,358749.6999999881,7089,VNB,B,6
7,test,5,0.0,1-Back,1,m,Wed Mar 19 2025 11:49:51 GMT-0500 (Central Daylight Time),362041.8000000119,011_m_f_d_a.png,O,m,548,8,1,1553.6000000238419,360488.1999999881,7089,VNB,B,7
8,test,5,0.0,1-Back,1,m,Wed Mar 19 2025 11:49:51 GMT-0500 (Central Daylight Time),363708.0,016_y_m_h_a.png,O,m,637,9,1,1653.300000011921,362054.6999999881,7089,VNB,B,8
9,test,5,0.0,1-Back,1,m,Wed Mar 19 2025 11:49:51 GMT-0500 (Central Daylight Time),365390.60000002384,020_y_f_d_a.png,O,m,642,10,1,1659.699999988079,363730.90000003576,7089,VNB,B,9
10,test,5,0.0,1-Back,1,m,Wed Mar 19 2025 11:49:51 GMT-0500 (Central Daylight Time),367306.5,007_m_m_n_a.png,O,m,879,11,1,1888.0,365418.5,7089,VNB,B,10
11,test,5,1.0,1-Back,1,z,Wed Mar 19 2025 11:49:51 GMT-0500 (Central Daylight Time),369122.8000000119,011_m_f_n_a.png,O,z,780,12,1,1788.699999988079,367334.10000002384,7089,VNB,B,11
12,test,5,0.0,1-Back,1,m,Wed Mar 19 2025 11:49:51 GMT-0500 (Central Daylight Time),371272.10000002384,004_o_m_h_a.png,O,m,1107,13,1,2122.699999988079,369149.40000003576,7089,VNB,B,12
13,test,5,0.0,1-Back,1,z,Wed Mar 19 2025 11:49:51 GMT-0500 (Central Daylight Time),373038.1999999881,007_m_m_h_a.png,O,z,726,14,1,1735.5,371302.6999999881,7089,VNB,B,13
14,test,5,1.0,1-Back,1,m,Wed Mar 19 2025 11:49:51 GMT-0500 (Central Daylight Time),374687.6999999881,005_o_f_d_a.png,O,m,583,15,1,1618.3999999761581,373069.3000000119,7089,VNB,B,14
15,test,5,0.0,1-Back,1,m,Wed Mar 19 2025 11:49:51 GMT-0500 (Central Daylight Time),376353.60000002384,016_y_m_n_a.png,O,m,613,16,1,1634.9000000357628,374718.6999999881,7089,VNB,B,15
16,test,5,0.0,1-Back,1,m,Wed Mar 19 2025 11:49:51 GMT-0500 (Central Daylight Time),378169.5,020_y_f_h_a.png,O,m,780,17,1,1790.300000011921,376379.1999999881,7089,VNB,B,16
17,test,5,0.0,1-Back,1,m,Wed Mar 19 2025 11:49:51 GMT-0500 (Central Daylight Time),380035.90000003576,007_m_m_d_a.png,O,m,828,18,1,1836.0,378199.90000003576,7089,VNB,B,17
0,prac,1,0.0,2-Back,,,Wed Mar 19 2025 11:49:51 GMT-0500 (Central Daylight Time),380035.90000003576,011_m_f_n_a.png,O,space,6725,1,1,1836.0,378199.90000003576,7089,VNB,B,0
0,prac,1,0.0,2-Back,,,Wed Mar 19 2025 11:49:51 GMT-0500 (Central Daylight Time),380035.90000003576,005_o_f_h_a.png,O,space,6725,2,1,1836.0,378199.90000003576,7089,VNB,B,0
1,prac,1,0.0,2-Back,1,m,Wed Mar 19 2025 11:49:51 GMT-0500 (Central Daylight Time),465342.0,004_o_m_d_a.png,O,m,1388,3,1,2290.099999964237,463051.90000003576,7089,VNB,B,1
2,prac,1,1.0,2-Back,1,z,Wed Mar 19 2025 11:49:51 GMT-0500 (Central Daylight Time),467791.0,007_m_m_h_a.png,O,z,1440,4,1,2410.899999976158,465380.10000002384,7089,VNB,B,2
3,prac,1,0.0,2-Back,1,m,Wed Mar 19 2025 11:49:51 GMT-0500 (Central Daylight Time),470490.0,020_y_f_n_a.png,O,m,1740,5,1,2662.300000011921,467827.6999999881,7089,VNB,B,3
4,prac,1,1.0,2-Back,1,z,Wed Mar 19 2025 11:49:51 GMT-0500 (Central Daylight Time),472988.90000003576,004_o_m_h_a.png,O,z,1563,6,1,2463.100000023842,470525.8000000119,7089,VNB,B,4
5,prac,1,1.0,2-Back,1,z,Wed Mar 19 2025 11:49:51 GMT-0500 (Central Daylight Time),474938.3000000119,016_y_m_n_a.png,O,z,982,7,1,1920.199999988079,473018.10000002384,7089,VNB,B,5
6,prac,1,0.0,2-Back,1,m,Wed Mar 19 2025 11:49:51 GMT-0500 (Central Daylight Time),477570.6999999881,011_m_f_d_a.png,O,m,1673,8,1,2595.599999964237,474975.10000002384,7089,VNB,B,6
7,prac,1,0.0,2-Back,1,m,Wed Mar 19 2025 11:49:51 GMT-0500 (Central Daylight Time),480370.0,005_o_f_d_a.png,O,m,1820,9,1,2754.800000011921,477615.1999999881,7089,VNB,B,7
8,prac,1,0.0,2-Back,1,m,Wed Mar 19 2025 11:49:51 GMT-0500 (Central Daylight Time),482352.5,007_m_m_h_a.png,O,m,1022,10,1,1946.3999999761581,480406.10000002384,7089,VNB,B,8
8,prac,1,1.0,2-Back,0,z,Wed Mar 19 2025 11:49:51 GMT-0500 (Central Daylight Time),484368.40000003576,020_y_f_d_a.png,O,m,1075,11,1,1981.2000000476837,482387.1999999881,7089,VNB,B,9
9,prac,1,0.0,2-Back,1,m,Wed Mar 19 2025 11:49:51 GMT-0500 (Central Daylight Time),486734.1999999881,004_o_m_n_a.png,O,m,1416,12,1,2327.199999988079,484407.0,7089,VNB,B,10
0,test,1,0.0,2-Back,,,Wed Mar 19 2025 11:49:51 GMT-0500 (Central Daylight Time),486734.1999999881,016_y_m_h_a.png,O,space,6528,1,1,2327.199999988079,484407.0,7089,VNB,B,0
0,test,1,0.0,2-Back,,,Wed Mar 19 2025 11:49:51 GMT-0500 (Central Daylight Time),486734.1999999881,005_o_f_n_a.png,O,space,6528,2,1,2327.199999988079,484407.0,7089,VNB,B,0
1,test,1,0.0,2-Back,1,z,Wed Mar 19 2025 11:49:51 GMT-0500 (Central Daylight Time),505962.0,004_o_m_h_a.png,O,z,1048,3,1,2058.599999964237,503903.40000003576,7089,VNB,B,1
2,test,1,0.0,2-Back,1,m,Wed Mar 19 2025 11:49:51 GMT-0500 (Central Daylight Time),508727.10000002384,011_m_f_d_a.png,O,m,1707,4,1,2734.199999988079,505992.90000003576,7089,VNB,B,2
3,test,1,1.0,2-Back,1,m,Wed Mar 19 2025 11:49:51 GMT-0500 (Central Daylight Time),511009.5,016_y_m_n_a.png,O,m,1232,5,1,2253.399999976158,508756.10000002384,7089,VNB,B,3
4,test,1,0.0,2-Back,1,z,Wed Mar 19 2025 11:49:51 GMT-0500 (Central Daylight Time),513025.60000002384,020_y_f_d_a.png,O,z,964,6,1,1981.4000000357628,511044.1999999881,7089,VNB,B,4
5,test,1,0.0,2-Back,1,m,Wed Mar 19 2025 11:49:51 GMT-0500 (Central Daylight Time),514925.0,007_m_m_h_a.png,O,m,860,7,1,1876.3999999761581,513048.60000002384,7089,VNB,B,5
5,test,1,1.0,2-Back,0,m,Wed Mar 19 2025 11:49:51 GMT-0500 (Central Daylight Time),517980.3000000119,020_y_f_n_a.png,O,None,2016,8,1,3026.699999988079,514953.60000002384,7089,VNB,B,6
6,test,1,0.0,2-Back,1,z,Wed Mar 19 2025 11:49:51 GMT-0500 (Central Daylight Time),519940.0,005_o_f_h_a.png,O,z,927,9,1,1936.0999999642372,518003.90000003576,7089,VNB,B,7
7,test,1,0.0,2-Back,1,m,Wed Mar 19 2025 11:49:51 GMT-0500 (Central Daylight Time),522006.0,004_o_m_d_a.png,O,m,1002,10,1,2034.699999988079,519971.3000000119,7089,VNB,B,8
8,test,1,1.0,2-Back,1,m,Wed Mar 19 2025 11:49:51 GMT-0500 (Central Daylight Time),523988.3000000119,007_m_m_d_a.png,O,m,944,11,1,1952.199999988079,522036.10000002384,7089,VNB,B,9
9,test,1,0.0,2-Back,1,m,Wed Mar 19 2025 11:49:51 GMT-0500 (Central Daylight Time),526487.6999999881,011_m_f_n_a.png,O,m,1474,12,1,2484.699999988079,524003.0,7089,VNB,B,10
10,test,1,0.0,2-Back,1,m,Wed Mar 19 2025 11:49:51 GMT-0500 (Central Daylight Time),528670.5,020_y_f_h_a.png,O,m,1143,13,1,2153.399999976158,526517.1000000238,7089,VNB,B,11
11,test,1,0.0,2-Back,1,z,Wed Mar 19 2025 11:49:51 GMT-0500 (Central Daylight Time),530719.9000000358,007_m_m_n_a.png,O,z,999,14,1,2019.5,528700.4000000358,7089,VNB,B,12
12,test,1,0.0,2-Back,1,m,Wed Mar 19 2025 11:49:51 GMT-0500 (Central Daylight Time),532835.8000000119,016_y_m_d_a.png,O,m,1050,15,1,2083.199999988079,530752.6000000238,7089,VNB,B,13
13,test,1,1.0,2-Back,1,m,Wed Mar 19 2025 11:49:51 GMT-0500 (Central Daylight Time),535151.5,011_m_f_h_a.png,O,m,1266,16,1,2290.599999964237,532860.9000000358,7089,VNB,B,14
13,test,1,0.0,2-Back,0,z,Wed Mar 19 2025 11:49:51 GMT-0500 (Central Daylight Time),537100.1000000238,005_o_f_d_a.png,O,m,892,17,1,1917.0,535183.1000000238,7089,VNB,B,15
14,test,1,0.0,2-Back,1,m,Wed Mar 19 2025 11:49:51 GMT-0500 (Central Daylight Time),539200.5,004_o_m_n_a.png,O,m,1074,18,1,2094.5,537106.0,7089,VNB,B,16
0,test,2,0.0,2-Back,,,Wed Mar 19 2025 11:49:51 GMT-0500 (Central Daylight Time),539200.5,007_m_m_h_a.png,O,space,1419,1,1,2094.5,537106.0,7089,VNB,B,0
0,test,2,0.0,2-Back,,,Wed Mar 19 2025 11:49:51 GMT-0500 (Central Daylight Time),539200.5,020_y_f_n_a.png,O,space,1419,2,1,2094.5,537106.0,7089,VNB,B,0
1,test,2,1.0,2-Back,1,z,Wed Mar 19 2025 11:49:51 GMT-0500 (Central Daylight Time),548480.4000000358,005_o_f_h_a.png,O,z,1432,3,1,2465.100000023842,546015.3000000119,7089,VNB,B,1
2,test,2,0.0,2-Back,1,m,Wed Mar 19 2025 11:49:51 GMT-0500 (Central Daylight Time),550480.0,004_o_m_d_a.png,O,m,958,4,1,1971.0999999642372,548508.9000000358,7089,VNB,B,2
3,test,2,0.0,2-Back,1,m,Wed Mar 19 2025 11:49:51 GMT-0500 (Central Daylight Time),552529.6000000238,011_m_f_d_a.png,O,m,1014,5,1,2024.1000000238419,550505.5,7089,VNB,B,3
4,test,2,0.0,2-Back,1,m,Wed Mar 19 2025 11:49:51 GMT-0500 (Central Daylight Time),554728.6000000238,016_y_m_h_a.png,O,m,1141,6,1,2168.5,552560.1000000238,7089,VNB,B,4
5,test,2,0.0,2-Back,1,m,Wed Mar 19 2025 11:49:51 GMT-0500 (Central Daylight Time),557694.4000000358,005_o_f_n_a.png,O,m,1900,7,1,2933.300000011921,554761.1000000238,7089,VNB,B,5
5,test,2,1.0,2-Back,0,z,Wed Mar 19 2025 11:49:51 GMT-0500 (Central Daylight Time),560276.6999999881,004_o_m_h_a.png,O,m,1519,8,1,2551.699999988079,557725.0,7089,VNB,B,6
6,test,2,0.0,2-Back,1,m,Wed Mar 19 2025 11:49:51 GMT-0500 (Central Daylight Time),563075.9000000358,020_y_f_d_a.png,O,m,1745,9,1,2765.900000035763,560310.0,7089,VNB,B,7
7,test,2,0.0,2-Back,1,m,Wed Mar 19 2025 11:49:51 GMT-0500 (Central Daylight Time),565308.4000000358,016_y_m_d_a.png,O,m,1195,10,1,2204.300000011921,563104.1000000238,7089,VNB,B,8
8,test,2,0.0,2-Back,1,m,Wed Mar 19 2025 11:49:51 GMT-0500 (Central Daylight Time),568190.0,007_m_m_n_a.png,O,m,1840,11,1,2852.199999988079,565337.8000000119,7089,VNB,B,9
9,test,2,0.0,2-Back,1,m,Wed Mar 19 2025 11:49:51 GMT-0500 (Central Daylight Time),570173.6000000238,011_m_f_h_a.png,O,m,952,12,1,1978.6000000238419,568195.0,7089,VNB,B,10
9,test,2,1.0,2-Back,0,z,Wed Mar 19 2025 11:49:51 GMT-0500 (Central Daylight Time),572955.9000000358,004_o_m_n_a.png,O,m,1745,13,1,2756.100000023842,570199.8000000119,7089,VNB,B,11
10,test,2,0.0,2-Back,1,m,Wed Mar 19 2025 11:49:51 GMT-0500 (Central Daylight Time),575055.1000000238,005_o_f_d_a.png,O,m,1058,14,1,2069.900000035763,572985.1999999881,7089,VNB,B,12
11,test,2,0.0,2-Back,1,m,Wed Mar 19 2025 11:49:51 GMT-0500 (Central Daylight Time),577770.8000000119,020_y_f_h_a.png,O,m,1671,15,1,2686.5,575084.3000000119,7089,VNB,B,13
12,test,2,0.0,2-Back,1,z,Wed Mar 19 2025 11:49:51 GMT-0500 (Central Daylight Time),580220.3000000119,007_m_m_d_a.png,O,z,1403,16,1,2424.300000011921,577796.0,7089,VNB,B,14
13,test,2,0.0,2-Back,1,m,Wed Mar 19 2025 11:49:51 GMT-0500 (Central Daylight Time),582602.9000000358,016_y_m_n_a.png,O,m,1338,17,1,2356.900000035763,580246.0,7089,VNB,B,15
14,test,2,1.0,2-Back,1,m,Wed Mar 19 2025 11:49:51 GMT-0500 (Central Daylight Time),585435.1999999881,011_m_f_n_a.png,O,m,1788,18,1,2805.5,582629.6999999881,7089,VNB,B,16
0,test,3,1.0,2-Back,,,Wed Mar 19 2025 11:49:51 GMT-0500 (Central Daylight Time),585435.1999999881,004_o_m_n_a.png,O,space,2220,1,1,2805.5,582629.6999999881,7089,VNB,B,0
0,test,3,1.0,2-Back,,,Wed Mar 19 2025 11:49:51 GMT-0500 (Central Daylight Time),585435.1999999881,005_o_f_d_a.png,O,space,2220,2,1,2805.5,582629.6999999881,7089,VNB,B,0
1,test,3,0.0,2-Back,1,m,Wed Mar 19 2025 11:49:51 GMT-0500 (Central Daylight Time),595348.6000000238,020_y_f_h_a.png,O,m,1277,3,1,2299.800000011921,593048.8000000119,7089,VNB,B,1
2,test,3,0.0,2-Back,1,z,Wed Mar 19 2025 11:49:51 GMT-0500 (Central Daylight Time),597497.8000000119,011_m_f_d_a.png,O,z,1114,4,1,2124.399999976158,595373.4000000358,7089,VNB,B,2
3,test,3,1.0,2-Back,1,m,Wed Mar 19 2025 11:49:51 GMT-0500 (Central Daylight Time),600297.4000000358,016_y_m_n_a.png,O,m,1747,5,1,2766.7000000476837,597530.6999999881,7089,VNB,B,3
4,test,3,0.0,2-Back,1,m,Wed Mar 19 2025 11:49:51 GMT-0500 (Central Daylight Time),602995.9000000358,004_o_m_h_a.png,O,m,1662,6,1,2675.600000023842,600320.3000000119,7089,VNB,B,4
4,test,3,0.0,2-Back,0,z,Wed Mar 19 2025 11:49:51 GMT-0500 (Central Daylight Time),605512.1999999881,020_y_f_n_a.png,O,m,1466,7,1,2492.0,603020.1999999881,7089,VNB,B,5
5,test,3,1.0,2-Back,1,m,Wed Mar 19 2025 11:49:51 GMT-0500 (Central Daylight Time),607594.3000000119,007_m_m_d_a.png,O,m,1046,8,1,2053.899999976158,605540.4000000358,7089,VNB,B,6
6,test,3,0.0,2-Back,1,m,Wed Mar 19 2025 11:49:51 GMT-0500 (Central Daylight Time),610327.0,016_y_m_d_a.png,O,m,1692,9,1,2710.699999988079,607616.3000000119,7089,VNB,B,7
7,test,3,0.0,2-Back,1,m,Wed Mar 19 2025 11:49:51 GMT-0500 (Central Daylight Time),612676.3000000119,005_o_f_h_a.png,O,m,1295,10,1,2323.300000011921,610353.0,7089,VNB,B,8
7,test,3,1.0,2-Back,0,m,Wed Mar 19 2025 11:49:51 GMT-0500 (Central Daylight Time),614992.3000000119,011_m_f_n_a.png,O,z,1265,11,1,2285.699999988079,612706.6000000238,7089,VNB,B,9
7,test,3,1.0,2-Back,0,z,Wed Mar 19 2025 11:49:51 GMT-0500 (Central Daylight Time),617124.8000000119,007_m_m_h_a.png,O,m,1094,12,1,2104.100000023842,615020.6999999881,7089,VNB,B,10
8,test,3,0.0,2-Back,1,m,Wed Mar 19 2025 11:49:51 GMT-0500 (Central Daylight Time),619807.1000000238,020_y_f_d_a.png,O,m,1642,13,1,2656.100000023842,617151.0,7089,VNB,B,11
9,test,3,0.0,2-Back,1,m,Wed Mar 19 2025 11:49:51 GMT-0500 (Central Daylight Time),622206.6000000238,005_o_f_n_a.png,O,m,1343,14,1,2367.600000023842,619839.0,7089,VNB,B,12
9,test,3,0.0,2-Back,0,z,Wed Mar 19 2025 11:49:51 GMT-0500 (Central Daylight Time),624389.1999999881,004_o_m_d_a.png,O,m,1144,15,1,2160.2999999523163,622228.9000000358,7089,VNB,B,13
10,test,3,1.0,2-Back,1,m,Wed Mar 19 2025 11:49:51 GMT-0500 (Central Daylight Time),627088.3000000119,011_m_f_h_a.png,O,m,1657,16,1,2674.800000011921,624413.5,7089,VNB,B,14
11,test,3,0.0,2-Back,1,m,Wed Mar 19 2025 11:49:51 GMT-0500 (Central Daylight Time),629487.4000000358,007_m_m_n_a.png,O,m,1342,17,1,2366.2000000476837,627121.1999999881,7089,VNB,B,15
12,test,3,0.0,2-Back,1,z,Wed Mar 19 2025 11:49:51 GMT-0500 (Central Daylight Time),631370.1000000238,016_y_m_h_a.png,O,z,822,18,1,1852.0,629518.1000000238,7089,VNB,B,16
0,test,4,0.0,2-Back,,,Wed Mar 19 2025 11:49:51 GMT-0500 (Central Daylight Time),631370.1000000238,011_m_f_n_a.png,O,space,2043,1,1,1852.0,629518.1000000238,7089,VNB,B,0
0,test,4,0.0,2-Back,,,Wed Mar 19 2025 11:49:51 GMT-0500 (Central Daylight Time),631370.1000000238,004_o_m_n_a.png,O,space,2043,2,1,1852.0,629518.1000000238,7089,VNB,B,0
1,test,4,1.0,2-Back,1,m,Wed Mar 19 2025 11:49:51 GMT-0500 (Central Daylight Time),640783.6999999881,016_y_m_h_a.png,O,m,966,3,1,1994.8999999761581,638788.8000000119,7089,VNB,B,1
2,test,4,1.0,2-Back,1,m,Wed Mar 19 2025 11:49:51 GMT-0500 (Central Daylight Time),643099.6000000238,005_o_f_d_a.png,O,m,1254,4,1,2280.0,640819.6000000238,7089,VNB,B,2
3,test,4,0.0,2-Back,1,z,Wed Mar 19 2025 11:49:51 GMT-0500 (Central Daylight Time),645348.1000000238,004_o_m_h_a.png,O,z,1192,5,1,2215.5,643132.6000000238,7089,VNB,B,3
4,test,4,0.0,2-Back,1,m,Wed Mar 19 2025 11:49:51 GMT-0500 (Central Daylight Time),647747.9000000358,007_m_m_n_a.png,O,m,1378,6,1,2392.5,645355.4000000358,7089,VNB,B,4
5,test,4,0.0,2-Back,1,m,Wed Mar 19 2025 11:49:51 GMT-0500 (Central Daylight Time),650097.5,011_m_f_d_a.png,O,m,1306,7,1,2321.300000011921,647776.1999999881,7089,VNB,B,5
6,test,4,0.0,2-Back,1,z,Wed Mar 19 2025 11:49:51 GMT-0500 (Central Daylight Time),652596.5,020_y_f_n_a.png,O,z,1444,8,1,2465.699999988079,650130.8000000119,7089,VNB,B,6
6,test,4,1.0,2-Back,0,m,Wed Mar 19 2025 11:49:51 GMT-0500 (Central Daylight Time),654445.1999999881,005_o_f_h_a.png,O,z,802,9,1,1820.8999999761581,652624.3000000119,7089,VNB,B,7
7,test,4,0.0,2-Back,1,m,Wed Mar 19 2025 11:49:51 GMT-0500 (Central Daylight Time),656845.1999999881,007_m_m_h_a.png,O,m,1379,10,1,2395.0,654450.1999999881,7089,VNB,B,8
8,test,4,0.0,2-Back,1,m,Wed Mar 19 2025 11:49:51 GMT-0500 (Central Daylight Time),659311.1000000238,020_y_f_d_a.png,O,m,1409,11,1,2436.199999988079,656874.9000000358,7089,VNB,B,9
8,test,4,0.0,2-Back,0,m,Wed Mar 19 2025 11:49:51 GMT-0500 (Central Daylight Time),661343.6999999881,016_y_m_n_a.png,O,z,992,12,1,2003.5999999642372,659340.1000000238,7089,VNB,B,10
9,test,4,0.0,2-Back,1,z,Wed Mar 19 2025 11:49:51 GMT-0500 (Central Daylight Time),663592.8000000119,004_o_m_d_a.png,O,z,1182,13,1,2213.0,661379.8000000119,7089,VNB,B,11
10,test,4,1.0,2-Back,1,m,Wed Mar 19 2025 11:49:51 GMT-0500 (Central Daylight Time),665508.1999999881,011_m_f_h_a.png,O,m,877,14,1,1892.2999999523163,663615.9000000358,7089,VNB,B,12
11,test,4,1.0,2-Back,1,m,Wed Mar 19 2025 11:49:51 GMT-0500 (Central Daylight Time),667524.3000000119,020_y_f_h_a.png,O,m,983,15,1,2011.699999988079,665512.6000000238,7089,VNB,B,13
12,test,4,0.0,2-Back,1,m,Wed Mar 19 2025 11:49:51 GMT-0500 (Central Daylight Time),669390.1999999881,005_o_f_n_a.png,O,m,834,16,1,1861.5,667528.6999999881,7089,VNB,B,14
13,test,4,0.0,2-Back,1,m,Wed Mar 19 2025 11:49:51 GMT-0500 (Central Daylight Time),671106.4000000358,016_y_m_d_a.png,O,m,688,17,1,1709.5,669396.9000000358,7089,VNB,B,15
14,test,4,1.0,2-Back,1,m,Wed Mar 19 2025 11:49:51 GMT-0500 (Central Daylight Time),673155.6999999881,007_m_m_d_a.png,O,m,1021,18,1,2045.199999988079,671110.5,7089,VNB,B,16
0,test,5,1.0,2-Back,,,Wed Mar 19 2025 11:49:51 GMT-0500 (Central Daylight Time),673155.6999999881,020_y_f_d_a.png,O,space,1444,1,1,2045.199999988079,671110.5,7089,VNB,B,0
0,test,5,1.0,2-Back,,,Wed Mar 19 2025 11:49:51 GMT-0500 (Central Daylight Time),673155.6999999881,005_o_f_h_a.png,O,space,1444,2,1,2045.199999988079,671110.5,7089,VNB,B,0
0,test,5,1.0,2-Back,0,z,Wed Mar 19 2025 11:49:51 GMT-0500 (Central Daylight Time),682470.1999999881,004_o_m_d_a.png,O,m,1435,3,1,2458.0,680012.1999999881,7089,VNB,B,1
1,test,5,1.0,2-Back,1,m,Wed Mar 19 2025 11:49:51 GMT-0500 (Central Daylight Time),684769.5,011_m_f_n_a.png,O,m,1248,4,1,2267.399999976158,682502.1000000238,7089,VNB,B,2
2,test,5,0.0,2-Back,1,m,Wed Mar 19 2025 11:49:51 GMT-0500 (Central Daylight Time),687451.1000000238,007_m_m_h_a.png,O,m,1635,5,1,2651.5,684799.6000000238,7089,VNB,B,3
2,test,5,0.0,2-Back,0,z,Wed Mar 19 2025 11:49:51 GMT-0500 (Central Daylight Time),690100.8000000119,020_y_f_n_a.png,O,m,1628,6,1,2639.399999976158,687461.4000000358,7089,VNB,B,4
3,test,5,0.0,2-Back,1,m,Wed Mar 19 2025 11:49:51 GMT-0500 (Central Daylight Time),691882.8000000119,005_o_f_d_a.png,O,m,738,7,1,1756.0,690126.8000000119,7089,VNB,B,5
4,test,5,0.0,2-Back,1,m,Wed Mar 19 2025 11:49:51 GMT-0500 (Central Daylight Time),693699.6999999881,004_o_m_h_a.png,O,m,789,8,1,1812.2999999523163,691887.4000000358,7089,VNB,B,6
5,test,5,1.0,2-Back,1,z,Wed Mar 19 2025 11:49:51 GMT-0500 (Central Daylight Time),695815.8000000119,011_m_f_d_a.png,O,z,1074,9,1,2091.199999988079,693724.6000000238,7089,VNB,B,7
6,test,5,0.0,2-Back,1,m,Wed Mar 19 2025 11:49:51 GMT-0500 (Central Daylight Time),697864.8000000119,016_y_m_n_a.png,O,m,1007,10,1,2023.800000011921,695841.0,7089,VNB,B,8
7,test,5,0.0,2-Back,1,m,Wed Mar 19 2025 11:49:51 GMT-0500 (Central Daylight Time),700346.8000000119,007_m_m_n_a.png,O,m,1443,11,1,2453.0,697893.8000000119,7089,VNB,B,9
8,test,5,0.0,2-Back,1,m,Wed Mar 19 2025 11:49:51 GMT-0500 (Central Daylight Time),702513.8000000119,020_y_f_h_a.png,O,m,1141,12,1,2160.600000023842,700353.1999999881,7089,VNB,B,10
9,test,5,0.0,2-Back,1,m,Wed Mar 19 2025 11:49:51 GMT-0500 (Central Daylight Time),704446.1999999881,016_y_m_d_a.png,O,m,893,13,1,1902.0999999642372,702544.1000000238,7089,VNB,B,11
10,test,5,1.0,2-Back,1,z,Wed Mar 19 2025 11:49:51 GMT-0500 (Central Daylight Time),706212.1999999881,011_m_f_h_a.png,O,z,728,14,1,1741.199999988079,704471.0,7089,VNB,B,12
11,test,5,0.0,2-Back,1,m,Wed Mar 19 2025 11:49:51 GMT-0500 (Central Daylight Time),707928.6000000238,004_o_m_n_a.png,O,m,666,15,1,1689.800000011921,706238.8000000119,7089,VNB,B,13
12,test,5,0.0,2-Back,1,m,Wed Mar 19 2025 11:49:51 GMT-0500 (Central Daylight Time),710394.1999999881,007_m_m_d_a.png,O,m,1418,16,1,2441.5,707952.6999999881,7089,VNB,B,14
13,test,5,0.0,2-Back,1,z,Wed Mar 19 2025 11:49:51 GMT-0500 (Central Daylight Time),713143.3000000119,005_o_f_n_a.png,O,z,1708,17,1,2721.800000011921,710421.5,7089,VNB,B,15
14,test,5,1.0,2-Back,1,m,Wed Mar 19 2025 11:49:51 GMT-0500 (Central Daylight Time),715193.5,016_y_m_h_a.png,O,m,999,18,1,2014.5,713179.0,7089,VNB,B,16
