block_c,block_dur,condition,countdown,datetime,endtime,list,multichar_response,project,response,response_time,session_number,start_end,starttime,subject_id,task,task_vers,trial
,,,,Mon Feb 17 2025 17:48:01 GMT-0600 (Central Standard Time),,,,O,space,487,1,,,7049,WL,A,
prac,,0,,Mon Feb 17 2025 17:48:01 GMT-0600 (Central Standard Time),,NA,b,O,b,6025,1,,,7049,WL,A,1.0
prac,,0,,Mon Feb 17 2025 17:48:01 GMT-0600 (Central Standard Time),,NA,bo,O,o,507,1,,,7049,WL,A,1.0
prac,,0,,Mon Feb 17 2025 17:48:01 GMT-0600 (Central Standard Time),,NA,boo,O,o,141,1,,,7049,WL,A,1.0
prac,,0,,Mon Feb 17 2025 17:48:01 GMT-0600 (Central Standard Time),,NA,boos,O,s,96,1,,,7049,WL,A,1.0
prac,,0,,Mon Feb 17 2025 17:48:01 GMT-0600 (Central Standard Time),,NA,boost,O,t,207,1,,,7049,WL,A,1.0
prac,,0,,Mon Feb 17 2025 17:48:01 GMT-0600 (Central Standard Time),,NA,boostenter,O,enter,1246,1,,,7049,WL,A,1.0
1,9.54800009727478,learn,50451.99990272522,Mon Feb 17 2025 17:48:01 GMT-0600 (Central Standard Time),155274.7999999998,A,b,O,b,9540,1,9546.900000000373,145727.89999999944,7049,WL,A,1.0
1,9.763999938964844,learn,50236.000061035156,Mon Feb 17 2025 17:48:01 GMT-0600 (Central Standard Time),155491.59999999963,A,bo,O,o,201,1,9763.700000000186,145727.89999999944,7049,WL,A,1.0
1,9.930999994277954,learn,50069.000005722046,Mon Feb 17 2025 17:48:01 GMT-0600 (Central Standard Time),155658.09999999963,A,boo,O,o,145,1,9930.200000000186,145727.89999999944,7049,WL,A,1.0
1,10.13100004196167,learn,49868.99995803833,Mon Feb 17 2025 17:48:01 GMT-0600 (Central Standard Time),155858.09999999963,A,book,O,k,178,1,10130.200000000186,145727.89999999944,7049,WL,A,1.0
1,10.813999891281128,learn,49186.00010871887,Mon Feb 17 2025 17:48:01 GMT-0600 (Central Standard Time),156541.19999999925,A,bookenter,O,enter,667,1,10813.299999999814,145727.89999999944,7049,WL,A,1.0
1,11.52999997138977,learn,48470.00002861023,Mon Feb 17 2025 17:48:01 GMT-0600 (Central Standard Time),157257.5,A,f,O,f,703,1,715.9000000003725,156541.59999999963,7049,WL,A,2.0
1,11.630000114440918,learn,48369.99988555908,Mon Feb 17 2025 17:48:01 GMT-0600 (Central Standard Time),157357.5,A,fl,O,l,91,1,815.9000000003725,156541.59999999963,7049,WL,A,2.0
1,11.846999883651733,learn,48153.00011634827,Mon Feb 17 2025 17:48:01 GMT-0600 (Central Standard Time),157574.09999999963,A,flo,O,o,207,1,1032.5,156541.59999999963,7049,WL,A,2.0
1,12.02999997138977,learn,47970.00002861023,Mon Feb 17 2025 17:48:01 GMT-0600 (Central Standard Time),157757.39999999944,A,flow,O,w,166,1,1215.7999999998137,156541.59999999963,7049,WL,A,2.0
1,12.246999979019165,learn,47753.000020980835,Mon Feb 17 2025 17:48:01 GMT-0600 (Central Standard Time),157973.89999999944,A,flowe,O,e,208,1,1432.2999999998137,156541.59999999963,7049,WL,A,2.0
1,12.44700002670288,learn,47552.99997329712,Mon Feb 17 2025 17:48:01 GMT-0600 (Central Standard Time),158174.09999999963,A,flower,O,r,182,1,1632.5,156541.59999999963,7049,WL,A,2.0
1,13.147000074386597,learn,46852.9999256134,Mon Feb 17 2025 17:48:01 GMT-0600 (Central Standard Time),158873.69999999925,A,flowerenter,O,enter,686,1,2332.0999999996275,156541.59999999963,7049,WL,A,2.0
1,13.413000106811523,learn,46586.99989318848,Mon Feb 17 2025 17:48:01 GMT-0600 (Central Standard Time),159140.5,A,t,O,t,259,1,266.30000000074506,158874.19999999925,7049,WL,A,3.0
1,13.596999883651733,learn,46403.00011634827,Mon Feb 17 2025 17:48:01 GMT-0600 (Central Standard Time),159324.2999999998,A,tr,O,r,168,1,450.1000000005588,158874.19999999925,7049,WL,A,3.0
1,13.829999923706055,learn,46170.000076293945,Mon Feb 17 2025 17:48:01 GMT-0600 (Central Standard Time),159556.7999999998,A,tra,O,a,224,1,682.6000000005588,158874.19999999925,7049,WL,A,3.0
1,13.946000099182129,learn,46053.99990081787,Mon Feb 17 2025 17:48:01 GMT-0600 (Central Standard Time),159673.39999999944,A,trai,O,i,104,1,799.2000000001863,158874.19999999925,7049,WL,A,3.0
1,14.062999963760376,learn,45937.000036239624,Mon Feb 17 2025 17:48:01 GMT-0600 (Central Standard Time),159790.0,A,train,O,n,99,1,915.8000000007451,158874.19999999925,7049,WL,A,3.0
1,14.77999997138977,learn,45220.00002861023,Mon Feb 17 2025 17:48:01 GMT-0600 (Central Standard Time),160506.7999999998,A,trainenter,O,enter,694,1,1632.6000000005588,158874.19999999925,7049,WL,A,3.0
1,15.013000011444092,learn,44986.99998855591,Mon Feb 17 2025 17:48:01 GMT-0600 (Central Standard Time),160739.7999999998,A,r,O,r,218,1,232.70000000018626,160507.09999999963,7049,WL,A,4.0
1,15.229000091552734,learn,44770.999908447266,Mon Feb 17 2025 17:48:01 GMT-0600 (Central Standard Time),160956.39999999944,A,ru,O,u,201,1,449.29999999981374,160507.09999999963,7049,WL,A,4.0
1,15.345999956130981,learn,44654.00004386902,Mon Feb 17 2025 17:48:01 GMT-0600 (Central Standard Time),161073.19999999925,A,ruh,O,h,96,1,566.0999999996275,160507.09999999963,7049,WL,A,4.0
1,15.779000043869019,learn,44220.99995613098,Mon Feb 17 2025 17:48:01 GMT-0600 (Central Standard Time),161506.09999999963,A,ru,O,backspace,420,1,999.0,160507.09999999963,7049,WL,A,4.0
1,15.895999908447266,learn,44104.000091552734,Mon Feb 17 2025 17:48:01 GMT-0600 (Central Standard Time),161622.69999999925,A,rug,O,g,107,1,1115.5999999996275,160507.09999999963,7049,WL,A,4.0
1,16.578999996185303,learn,43421.0000038147,Mon Feb 17 2025 17:48:01 GMT-0600 (Central Standard Time),162305.7999999998,A,rugenter,O,enter,670,1,1798.7000000001863,160507.09999999963,7049,WL,A,4.0
1,17.244999885559082,learn,42755.00011444092,Mon Feb 17 2025 17:48:01 GMT-0600 (Central Standard Time),162972.39999999944,A,n,O,n,659,1,666.2000000001863,162306.19999999925,7049,WL,A,5.0
1,17.661999940872192,learn,42338.00005912781,Mon Feb 17 2025 17:48:01 GMT-0600 (Central Standard Time),163388.89999999944,A,,O,backspace,408,1,1082.7000000001863,162306.19999999925,7049,WL,A,5.0
1,17.894999980926514,learn,42105.000019073486,Mon Feb 17 2025 17:48:01 GMT-0600 (Central Standard Time),163622.39999999944,A,m,O,m,216,1,1316.2000000001863,162306.19999999925,7049,WL,A,5.0
1,17.977999925613403,learn,42022.0000743866,Mon Feb 17 2025 17:48:01 GMT-0600 (Central Standard Time),163705.2999999998,A,me,O,e,71,1,1399.1000000005588,162306.19999999925,7049,WL,A,5.0
1,18.161999940872192,learn,41838.00005912781,Mon Feb 17 2025 17:48:01 GMT-0600 (Central Standard Time),163888.7999999998,A,mea,O,a,172,1,1582.6000000005588,162306.19999999925,7049,WL,A,5.0
1,18.34500002861023,learn,41654.99997138977,Mon Feb 17 2025 17:48:01 GMT-0600 (Central Standard Time),164072.0,A,mead,O,d,172,1,1765.800000000745,162306.19999999925,7049,WL,A,5.0
1,18.477999925613403,learn,41522.0000743866,Mon Feb 17 2025 17:48:01 GMT-0600 (Central Standard Time),164205.2999999998,A,meado,O,o,117,1,1899.1000000005588,162306.19999999925,7049,WL,A,5.0
1,18.611999988555908,learn,41388.00001144409,Mon Feb 17 2025 17:48:01 GMT-0600 (Central Standard Time),164338.69999999925,A,meadow,O,w,128,1,2032.5,162306.19999999925,7049,WL,A,5.0
1,19.67799997329712,learn,40322.00002670288,Mon Feb 17 2025 17:48:01 GMT-0600 (Central Standard Time),165404.89999999944,A,meadowenter,O,enter,1059,1,3098.7000000001863,162306.19999999925,7049,WL,A,5.0
1,20.49399995803833,learn,39506.00004196167,Mon Feb 17 2025 17:48:01 GMT-0600 (Central Standard Time),166221.19999999925,A,f,O,f,800,1,816.0,165405.19999999925,7049,WL,A,6.0
1,20.57800006866455,learn,39421.99993133545,Mon Feb 17 2025 17:48:01 GMT-0600 (Central Standard Time),166304.89999999944,A,fl,O,l,71,1,899.7000000001863,165405.19999999925,7049,WL,A,6.0
1,20.76200008392334,learn,39237.99991607666,Mon Feb 17 2025 17:48:01 GMT-0600 (Central Standard Time),166489.09999999963,A,flo,O,o,172,1,1083.9000000003725,165405.19999999925,7049,WL,A,6.0
1,20.861000061035156,learn,39138.999938964844,Mon Feb 17 2025 17:48:01 GMT-0600 (Central Standard Time),166588.0,A,flow,O,w,92,1,1182.800000000745,165405.19999999925,7049,WL,A,6.0
1,21.043999910354614,learn,38956.000089645386,Mon Feb 17 2025 17:48:01 GMT-0600 (Central Standard Time),166771.09999999963,A,flowe,O,e,177,1,1365.9000000003725,165405.19999999925,7049,WL,A,6.0
1,21.24399995803833,learn,38756.00004196167,Mon Feb 17 2025 17:48:01 GMT-0600 (Central Standard Time),166971.0,A,flower,O,r,194,1,1565.800000000745,165405.19999999925,7049,WL,A,6.0
1,22.24399995803833,learn,37756.00004196167,Mon Feb 17 2025 17:48:01 GMT-0600 (Central Standard Time),167970.89999999944,A,flowerenter,O,enter,986,1,2565.7000000001863,165405.19999999925,7049,WL,A,6.0
1,23.246000051498413,learn,36753.99994850159,Mon Feb 17 2025 17:48:01 GMT-0600 (Central Standard Time),168973.09999999963,A,k,O,k,993,1,1001.7999999998137,167971.2999999998,7049,WL,A,7.0
1,23.32699990272522,learn,36673.00009727478,Mon Feb 17 2025 17:48:01 GMT-0600 (Central Standard Time),169053.7999999998,A,ke,O,e,63,1,1082.5,167971.2999999998,7049,WL,A,7.0
1,23.55999994277954,learn,36440.00005722046,Mon Feb 17 2025 17:48:01 GMT-0600 (Central Standard Time),169287.0,A,key,O,y,215,1,1315.7000000001863,167971.2999999998,7049,WL,A,7.0
1,24.842999935150146,learn,35157.00006484985,Mon Feb 17 2025 17:48:01 GMT-0600 (Central Standard Time),170569.89999999944,A,keyenter,O,enter,1278,1,2598.5999999996275,167971.2999999998,7049,WL,A,7.0
1,30.707000017166138,learn,29292.999982833862,Mon Feb 17 2025 17:48:01 GMT-0600 (Central Standard Time),176434.59999999963,A,s,O,s,5858,1,5864.4000000003725,170570.19999999925,7049,WL,A,8.0
1,30.924000024795532,learn,29075.999975204468,Mon Feb 17 2025 17:48:01 GMT-0600 (Central Standard Time),176651.2999999998,A,sa,O,a,210,1,6081.100000000559,170570.19999999925,7049,WL,A,8.0
1,31.08999991416931,learn,28910.00008583069,Mon Feb 17 2025 17:48:01 GMT-0600 (Central Standard Time),176818.09999999963,A,sal,O,l,162,1,6247.9000000003725,170570.19999999925,7049,WL,A,8.0
1,31.323999881744385,learn,28676.000118255615,Mon Feb 17 2025 17:48:01 GMT-0600 (Central Standard Time),177051.19999999925,A,salt,O,t,219,1,6481.0,170570.19999999925,7049,WL,A,8.0
1,31.7739999294281,learn,28226.0000705719,Mon Feb 17 2025 17:48:01 GMT-0600 (Central Standard Time),177501.39999999944,A,saltenter,O,enter,434,1,6931.200000000186,170570.19999999925,7049,WL,A,8.0
1,33.305999994277954,learn,26694.000005722046,Mon Feb 17 2025 17:48:01 GMT-0600 (Central Standard Time),179034.09999999963,A,c,O,c,1512,1,1532.4000000003725,177501.69999999925,7049,WL,A,9.0
1,33.390000104904175,learn,26609.999895095825,Mon Feb 17 2025 17:48:01 GMT-0600 (Central Standard Time),179117.19999999925,A,ch,O,h,67,1,1615.5,177501.69999999925,7049,WL,A,9.0
1,33.52300000190735,learn,26476.99999809265,Mon Feb 17 2025 17:48:01 GMT-0600 (Central Standard Time),179250.5,A,chi,O,i,128,1,1748.800000000745,177501.69999999925,7049,WL,A,9.0
1,33.706000089645386,learn,26293.999910354614,Mon Feb 17 2025 17:48:01 GMT-0600 (Central Standard Time),179433.89999999944,A,chim,O,m,163,1,1932.2000000001863,177501.69999999925,7049,WL,A,9.0
1,33.92400002479553,learn,26075.999975204468,Mon Feb 17 2025 17:48:01 GMT-0600 (Central Standard Time),179651.69999999925,A,chimn,O,n,212,1,2150.0,177501.69999999925,7049,WL,A,9.0
1,34.02300000190735,learn,25976.99999809265,Mon Feb 17 2025 17:48:01 GMT-0600 (Central Standard Time),179750.59999999963,A,chimne,O,e,81,1,2248.9000000003725,177501.69999999925,7049,WL,A,9.0
1,34.15599989891052,learn,25844.000101089478,Mon Feb 17 2025 17:48:01 GMT-0600 (Central Standard Time),179883.89999999944,A,chimney,O,y,126,1,2382.2000000001863,177501.69999999925,7049,WL,A,9.0
1,34.73900008201599,learn,25260.99991798401,Mon Feb 17 2025 17:48:01 GMT-0600 (Central Standard Time),180466.7999999998,A,chimneyenter,O,enter,576,1,2965.100000000559,177501.69999999925,7049,WL,A,9.0
1,44.63599991798401,learn,15364.000082015991,Mon Feb 17 2025 17:48:01 GMT-0600 (Central Standard Time),190364.0,A,enter,O,enter,9882,1,9896.900000000373,180467.09999999963,7049,WL,A,10.0
1,60.015000104904175,learn,-15.000104904174805,Mon Feb 17 2025 17:48:01 GMT-0600 (Central Standard Time),205742.2999999998,A,None,O,None,15373,1,15378.0,190364.2999999998,7049,WL,A,11.0
2,1.116999864578247,learn,58883.00013542175,Mon Feb 17 2025 17:48:01 GMT-0600 (Central Standard Time),289199.89999999944,A,b,O,b,1099,1,1116.3999999994412,288083.5,7049,WL,A,1.0
2,1.2660000324249268,learn,58733.99996757507,Mon Feb 17 2025 17:48:01 GMT-0600 (Central Standard Time),289349.39999999944,A,bo,O,o,133,1,1265.8999999994412,288083.5,7049,WL,A,1.0
2,1.4000000953674316,learn,58599.99990463257,Mon Feb 17 2025 17:48:01 GMT-0600 (Central Standard Time),289483.0,A,boo,O,o,120,1,1399.5,288083.5,7049,WL,A,1.0
2,1.5829999446868896,learn,58417.00005531311,Mon Feb 17 2025 17:48:01 GMT-0600 (Central Standard Time),289666.0999999996,A,book,O,k,162,1,1582.5999999996275,288083.5,7049,WL,A,1.0
2,2.6489999294281006,learn,57351.0000705719,Mon Feb 17 2025 17:48:01 GMT-0600 (Central Standard Time),290732.5999999996,A,bookenter,O,enter,1051,1,2649.0999999996275,288083.5,7049,WL,A,1.0
2,2.9660000801086426,learn,57033.99991989136,Mon Feb 17 2025 17:48:01 GMT-0600 (Central Standard Time),291049.0999999996,A,r,O,r,305,1,316.20000000018626,290732.89999999944,7049,WL,A,2.0
2,3.1659998893737793,learn,56834.00011062622,Mon Feb 17 2025 17:48:01 GMT-0600 (Central Standard Time),291248.89999999944,A,ru,O,u,180,1,516.0,290732.89999999944,7049,WL,A,2.0
2,3.365999937057495,learn,56634.000062942505,Mon Feb 17 2025 17:48:01 GMT-0600 (Central Standard Time),291448.89999999944,A,rug,O,g,189,1,716.0,290732.89999999944,7049,WL,A,2.0
2,4.2820000648498535,learn,55717.99993515015,Mon Feb 17 2025 17:48:01 GMT-0600 (Central Standard Time),292365.0999999996,A,rugenter,O,enter,908,1,1632.2000000001863,290732.89999999944,7049,WL,A,2.0
2,4.598999977111816,learn,55401.00002288818,Mon Feb 17 2025 17:48:01 GMT-0600 (Central Standard Time),292682.0,A,c,O,c,296,1,316.6000000005588,292365.39999999944,7049,WL,A,3.0
2,4.749000072479248,learn,55250.99992752075,Mon Feb 17 2025 17:48:01 GMT-0600 (Central Standard Time),292831.7999999998,A,ch,O,h,131,1,466.40000000037253,292365.39999999944,7049,WL,A,3.0
2,4.815000057220459,learn,55184.99994277954,Mon Feb 17 2025 17:48:01 GMT-0600 (Central Standard Time),292898.2999999998,A,chi,O,i,61,1,532.9000000003725,292365.39999999944,7049,WL,A,3.0
2,5.049000024795532,learn,54950.99997520447,Mon Feb 17 2025 17:48:01 GMT-0600 (Central Standard Time),293131.69999999925,A,chim,O,m,219,1,766.2999999998137,292365.39999999944,7049,WL,A,3.0
2,5.230999946594238,learn,54769.00005340576,Mon Feb 17 2025 17:48:01 GMT-0600 (Central Standard Time),293314.5999999996,A,chimn,O,n,177,1,949.2000000001863,292365.39999999944,7049,WL,A,3.0
2,5.332000017166138,learn,54667.99998283386,Mon Feb 17 2025 17:48:01 GMT-0600 (Central Standard Time),293415.0,A,chimne,O,e,91,1,1049.6000000005588,292365.39999999944,7049,WL,A,3.0
2,5.398000001907349,learn,54601.99999809265,Mon Feb 17 2025 17:48:01 GMT-0600 (Central Standard Time),293481.69999999925,A,chimney,O,y,54,1,1116.2999999998137,292365.39999999944,7049,WL,A,3.0
2,5.7149999141693115,learn,54285.00008583069,Mon Feb 17 2025 17:48:01 GMT-0600 (Central Standard Time),293798.0999999996,A,chimneyenter,O,enter,308,1,1432.7000000001863,292365.39999999944,7049,WL,A,3.0
2,6.04800009727478,learn,53951.99990272522,Mon Feb 17 2025 17:48:01 GMT-0600 (Central Standard Time),294131.2999999998,A,b,O,b,319,1,332.90000000037253,293798.39999999944,7049,WL,A,4.0
2,6.2809998989105225,learn,53719.00010108948,Mon Feb 17 2025 17:48:01 GMT-0600 (Central Standard Time),294364.5999999996,A,bu,O,u,226,1,566.2000000001863,293798.39999999944,7049,WL,A,4.0
2,6.447999954223633,learn,53552.00004577637,Mon Feb 17 2025 17:48:01 GMT-0600 (Central Standard Time),294531.0999999996,A,but,O,t,153,1,732.7000000001863,293798.39999999944,7049,WL,A,4.0
2,6.614000082015991,learn,53385.99991798401,Mon Feb 17 2025 17:48:01 GMT-0600 (Central Standard Time),294697.69999999925,A,butt,O,t,154,1,899.2999999998137,293798.39999999944,7049,WL,A,4.0
2,6.71399998664856,learn,53286.00001335144,Mon Feb 17 2025 17:48:01 GMT-0600 (Central Standard Time),294797.89999999944,A,butto,O,o,92,1,999.5,293798.39999999944,7049,WL,A,4.0
2,6.813999891281128,learn,53186.00010871887,Mon Feb 17 2025 17:48:01 GMT-0600 (Central Standard Time),294897.89999999944,A,button,O,n,87,1,1099.5,293798.39999999944,7049,WL,A,4.0
2,7.796999931335449,learn,52203.00006866455,Mon Feb 17 2025 17:48:01 GMT-0600 (Central Standard Time),295881.0999999996,A,buttonenter,O,enter,963,1,2082.7000000001863,293798.39999999944,7049,WL,A,4.0
2,8.02999997138977,learn,51970.00002861023,Mon Feb 17 2025 17:48:01 GMT-0600 (Central Standard Time),296113.89999999944,A,t,O,t,220,1,232.5,295881.39999999944,7049,WL,A,5.0
2,8.21399998664856,learn,51786.00001335144,Mon Feb 17 2025 17:48:01 GMT-0600 (Central Standard Time),296297.2999999998,A,tr,O,r,171,1,415.90000000037253,295881.39999999944,7049,WL,A,5.0
2,8.430000066757202,learn,51569.9999332428,Mon Feb 17 2025 17:48:01 GMT-0600 (Central Standard Time),296514.0,A,tra,O,a,196,1,632.6000000005588,295881.39999999944,7049,WL,A,5.0
2,8.54699993133545,learn,51453.00006866455,Mon Feb 17 2025 17:48:01 GMT-0600 (Central Standard Time),296630.39999999944,A,trai,O,i,99,1,749.0,295881.39999999944,7049,WL,A,5.0
2,8.614000082015991,learn,51385.99991798401,Mon Feb 17 2025 17:48:01 GMT-0600 (Central Standard Time),296697.39999999944,A,train,O,n,55,1,816.0,295881.39999999944,7049,WL,A,5.0
2,9.446000099182129,learn,50553.99990081787,Mon Feb 17 2025 17:48:01 GMT-0600 (Central Standard Time),297530.19999999925,A,trainenter,O,enter,812,1,1648.7999999998137,295881.39999999944,7049,WL,A,5.0
2,9.645999908447266,learn,50354.000091552734,Mon Feb 17 2025 17:48:01 GMT-0600 (Central Standard Time),297730.19999999925,A,f,O,f,195,1,199.79999999981374,297530.39999999944,7049,WL,A,6.0
2,9.829999923706055,learn,50170.000076293945,Mon Feb 17 2025 17:48:01 GMT-0600 (Central Standard Time),297913.5,A,fl,O,l,162,1,383.1000000005588,297530.39999999944,7049,WL,A,6.0
2,10.013000011444092,learn,49986.99998855591,Mon Feb 17 2025 17:48:01 GMT-0600 (Central Standard Time),298096.69999999925,A,flo,O,o,164,1,566.2999999998137,297530.39999999944,7049,WL,A,6.0
2,10.095999956130981,learn,49904.00004386902,Mon Feb 17 2025 17:48:01 GMT-0600 (Central Standard Time),298180.0,A,flow,O,w,76,1,649.6000000005588,297530.39999999944,7049,WL,A,6.0
2,10.296000003814697,learn,49703.9999961853,Mon Feb 17 2025 17:48:01 GMT-0600 (Central Standard Time),298379.89999999944,A,flowe,O,e,185,1,849.5,297530.39999999944,7049,WL,A,6.0
2,10.480000019073486,learn,49519.999980926514,Mon Feb 17 2025 17:48:01 GMT-0600 (Central Standard Time),298563.19999999925,A,flower,O,r,177,1,1032.7999999998137,297530.39999999944,7049,WL,A,6.0
2,10.828999996185303,learn,49171.0000038147,Mon Feb 17 2025 17:48:01 GMT-0600 (Central Standard Time),298913.19999999925,A,flowerenter,O,enter,330,1,1382.7999999998137,297530.39999999944,7049,WL,A,6.0
2,11.246000051498413,learn,48753.99994850159,Mon Feb 17 2025 17:48:01 GMT-0600 (Central Standard Time),299329.89999999944,A,m,O,m,404,1,416.3999999994412,298913.5,7049,WL,A,7.0
2,11.328999996185303,learn,48671.0000038147,Mon Feb 17 2025 17:48:01 GMT-0600 (Central Standard Time),299412.89999999944,A,me,O,e,75,1,499.3999999994412,298913.5,7049,WL,A,7.0
2,11.529000043869019,learn,48470.99995613098,Mon Feb 17 2025 17:48:01 GMT-0600 (Central Standard Time),299613.0,A,mea,O,a,192,1,699.5,298913.5,7049,WL,A,7.0
2,11.696000099182129,learn,48303.99990081787,Mon Feb 17 2025 17:48:01 GMT-0600 (Central Standard Time),299779.5999999996,A,mead,O,d,160,1,866.0999999996275,298913.5,7049,WL,A,7.0
2,11.796000003814697,learn,48203.9999961853,Mon Feb 17 2025 17:48:01 GMT-0600 (Central Standard Time),299879.5999999996,A,meado,O,o,81,1,966.0999999996275,298913.5,7049,WL,A,7.0
2,11.946000099182129,learn,48053.99990081787,Mon Feb 17 2025 17:48:01 GMT-0600 (Central Standard Time),300029.2999999998,A,meadow,O,w,134,1,1115.7999999998137,298913.5,7049,WL,A,7.0
2,12.461999893188477,learn,47538.00010681152,Mon Feb 17 2025 17:48:01 GMT-0600 (Central Standard Time),300546.0999999996,A,meadowenter,O,enter,512,1,1632.5999999996275,298913.5,7049,WL,A,7.0
2,12.711999893188477,learn,47288.00010681152,Mon Feb 17 2025 17:48:01 GMT-0600 (Central Standard Time),300795.89999999944,A,a,O,a,236,1,249.5,300546.39999999944,7049,WL,A,8.0
2,12.861999988555908,learn,47138.00001144409,Mon Feb 17 2025 17:48:01 GMT-0600 (Central Standard Time),300946.0,A,ap,O,p,129,1,399.6000000005588,300546.39999999944,7049,WL,A,8.0
2,12.994999885559082,learn,47005.00011444092,Mon Feb 17 2025 17:48:01 GMT-0600 (Central Standard Time),301079.0999999996,A,app,O,p,123,1,532.7000000001863,300546.39999999944,7049,WL,A,8.0
2,13.178999900817871,learn,46821.00009918213,Mon Feb 17 2025 17:48:01 GMT-0600 (Central Standard Time),301262.39999999944,A,appl,O,l,166,1,716.0,300546.39999999944,7049,WL,A,8.0
2,13.26200008392334,learn,46737.99991607666,Mon Feb 17 2025 17:48:01 GMT-0600 (Central Standard Time),301345.7999999998,A,apple,O,e,71,1,799.4000000003725,300546.39999999944,7049,WL,A,8.0
2,14.279000043869019,learn,45720.99995613098,Mon Feb 17 2025 17:48:01 GMT-0600 (Central Standard Time),302362.39999999944,A,appleenter,O,enter,995,1,1816.0,300546.39999999944,7049,WL,A,8.0
2,16.49399995803833,learn,43506.00004196167,Mon Feb 17 2025 17:48:01 GMT-0600 (Central Standard Time),304578.0999999996,A,l,O,l,2211,1,2215.2999999998137,302362.7999999998,7049,WL,A,9.0
2,16.72699999809265,learn,43273.00000190735,Mon Feb 17 2025 17:48:01 GMT-0600 (Central Standard Time),304811.2999999998,A,lo,O,o,227,1,2448.5,302362.7999999998,7049,WL,A,9.0
2,16.91100001335144,learn,43088.99998664856,Mon Feb 17 2025 17:48:01 GMT-0600 (Central Standard Time),304994.69999999925,A,log,O,g,170,1,2631.899999999441,302362.7999999998,7049,WL,A,9.0
2,17.07800006866455,learn,42921.99993133545,Mon Feb 17 2025 17:48:01 GMT-0600 (Central Standard Time),305161.2999999998,A,logenter,O,enter,146,1,2798.5,302362.7999999998,7049,WL,A,9.0
2,17.41100001335144,learn,42588.99998664856,Mon Feb 17 2025 17:48:01 GMT-0600 (Central Standard Time),305494.39999999944,A,s,O,s,316,1,332.70000000018626,305161.69999999925,7049,WL,A,10.0
2,17.57699990272522,learn,42423.00009727478,Mon Feb 17 2025 17:48:01 GMT-0600 (Central Standard Time),305661.0,A,sa,O,a,151,1,499.30000000074506,305161.69999999925,7049,WL,A,10.0
2,17.66100001335144,learn,42338.99998664856,Mon Feb 17 2025 17:48:01 GMT-0600 (Central Standard Time),305744.2999999998,A,sal,O,l,72,1,582.6000000005588,305161.69999999925,7049,WL,A,10.0
2,17.82699990272522,learn,42173.00009727478,Mon Feb 17 2025 17:48:01 GMT-0600 (Central Standard Time),305910.89999999944,A,salt,O,t,157,1,749.2000000001863,305161.69999999925,7049,WL,A,10.0
2,18.677000045776367,learn,41322.99995422363,Mon Feb 17 2025 17:48:01 GMT-0600 (Central Standard Time),306760.89999999944,A,saltenter,O,enter,838,1,1599.2000000001863,305161.69999999925,7049,WL,A,10.0
2,21.276000022888184,learn,38723.99997711182,Mon Feb 17 2025 17:48:01 GMT-0600 (Central Standard Time),309360.0999999996,A,r,O,r,2581,1,2598.9000000003725,306761.19999999925,7049,WL,A,11.0
2,21.493000030517578,learn,38506.99996948242,Mon Feb 17 2025 17:48:01 GMT-0600 (Central Standard Time),309576.5,A,ra,O,a,205,1,2815.300000000745,306761.19999999925,7049,WL,A,11.0
2,21.7260000705719,learn,38273.9999294281,Mon Feb 17 2025 17:48:01 GMT-0600 (Central Standard Time),309809.69999999925,A,rat,O,t,221,1,3048.5,306761.19999999925,7049,WL,A,11.0
2,22.00600004196167,learn,37993.99995803833,Mon Feb 17 2025 17:48:01 GMT-0600 (Central Standard Time),310089.39999999944,A,ratl,O,l,274,1,3328.2000000001863,306761.19999999925,7049,WL,A,11.0
2,22.152999877929688,learn,37847.00012207031,Mon Feb 17 2025 17:48:01 GMT-0600 (Central Standard Time),310237.0,A,ratle,O,e,142,1,3475.800000000745,306761.19999999925,7049,WL,A,11.0
2,23.39199995994568,learn,36608.00004005432,Mon Feb 17 2025 17:48:01 GMT-0600 (Central Standard Time),311475.89999999944,A,ratl,O,backspace,1232,1,4714.700000000186,306761.19999999925,7049,WL,A,11.0
2,24.04200005531311,learn,35957.99994468689,Mon Feb 17 2025 17:48:01 GMT-0600 (Central Standard Time),312125.69999999925,A,rat,O,backspace,642,1,5364.5,306761.19999999925,7049,WL,A,11.0
2,24.20799994468689,learn,35792.00005531311,Mon Feb 17 2025 17:48:01 GMT-0600 (Central Standard Time),312292.19999999925,A,ratt,O,t,160,1,5531.0,306761.19999999925,7049,WL,A,11.0
2,24.35800004005432,learn,35641.99995994568,Mon Feb 17 2025 17:48:01 GMT-0600 (Central Standard Time),312442.0999999996,A,rattl,O,l,145,1,5680.9000000003725,306761.19999999925,7049,WL,A,11.0
2,24.47499990463257,learn,35525.00009536743,Mon Feb 17 2025 17:48:01 GMT-0600 (Central Standard Time),312558.89999999944,A,rattle,O,e,107,1,5797.700000000186,306761.19999999925,7049,WL,A,11.0
2,25.441999912261963,learn,34558.00008773804,Mon Feb 17 2025 17:48:01 GMT-0600 (Central Standard Time),313525.2999999998,A,rattleenter,O,enter,958,1,6764.100000000559,306761.19999999925,7049,WL,A,11.0
2,29.823999881744385,learn,30176.000118255615,Mon Feb 17 2025 17:48:01 GMT-0600 (Central Standard Time),317908.19999999925,A,h,O,h,4376,1,4382.699999999255,313525.5,7049,WL,A,12.0
2,29.92300009727478,learn,30076.99990272522,Mon Feb 17 2025 17:48:01 GMT-0600 (Central Standard Time),318007.19999999925,A,ha,O,a,81,1,4481.699999999255,313525.5,7049,WL,A,12.0
2,30.072999954223633,learn,29927.000045776367,Mon Feb 17 2025 17:48:01 GMT-0600 (Central Standard Time),318156.89999999944,A,har,O,r,142,1,4631.399999999441,313525.5,7049,WL,A,12.0
2,30.473000049591064,learn,29526.999950408936,Mon Feb 17 2025 17:48:01 GMT-0600 (Central Standard Time),318557.0,A,harp,O,p,384,1,5031.5,313525.5,7049,WL,A,12.0
2,30.83999991416931,learn,29160.00008583069,Mon Feb 17 2025 17:48:01 GMT-0600 (Central Standard Time),318923.69999999925,A,harpenter,O,enter,360,1,5398.199999999255,313525.5,7049,WL,A,12.0
2,35.72199988365173,learn,24278.000116348267,Mon Feb 17 2025 17:48:01 GMT-0600 (Central Standard Time),323805.5999999996,A,t,O,t,4866,1,4881.5999999996275,318924.0,7049,WL,A,13.0
2,35.90499997138977,learn,24095.00002861023,Mon Feb 17 2025 17:48:01 GMT-0600 (Central Standard Time),323988.69999999925,A,tr,O,r,167,1,5064.699999999255,318924.0,7049,WL,A,13.0
2,36.105000019073486,learn,23894.999980926514,Mon Feb 17 2025 17:48:01 GMT-0600 (Central Standard Time),324188.5999999996,A,tra,O,a,185,1,5264.5999999996275,318924.0,7049,WL,A,13.0
2,36.204999923706055,learn,23795.000076293945,Mon Feb 17 2025 17:48:01 GMT-0600 (Central Standard Time),324288.69999999925,A,trai,O,i,89,1,5364.699999999255,318924.0,7049,WL,A,13.0
2,36.287999868392944,learn,23712.000131607056,Mon Feb 17 2025 17:48:01 GMT-0600 (Central Standard Time),324372.0,A,train,O,n,77,1,5448.0,318924.0,7049,WL,A,13.0
2,36.72099995613098,learn,23279.00004386902,Mon Feb 17 2025 17:48:01 GMT-0600 (Central Standard Time),324805.0,A,trainenter,O,enter,417,1,5881.0,318924.0,7049,WL,A,13.0
2,39.12100005149841,learn,20878.999948501587,Mon Feb 17 2025 17:48:01 GMT-0600 (Central Standard Time),327204.19999999925,A,c,O,c,2393,1,2399.0,324805.19999999925,7049,WL,A,14.0
2,39.187000036239624,learn,20812.999963760376,Mon Feb 17 2025 17:48:01 GMT-0600 (Central Standard Time),327271.0,A,ch,O,h,57,1,2465.800000000745,324805.19999999925,7049,WL,A,14.0
2,39.30399990081787,learn,20696.00009918213,Mon Feb 17 2025 17:48:01 GMT-0600 (Central Standard Time),327387.2999999998,A,chu,O,u,110,1,2582.100000000559,324805.19999999925,7049,WL,A,14.0
2,39.48699998855591,learn,20513.00001144409,Mon Feb 17 2025 17:48:01 GMT-0600 (Central Standard Time),327570.5999999996,A,chum,O,m,178,1,2765.4000000003725,324805.19999999925,7049,WL,A,14.0
2,40.3529999256134,learn,19647.000074386597,Mon Feb 17 2025 17:48:01 GMT-0600 (Central Standard Time),328437.0999999996,A,chu,O,backspace,859,1,3631.9000000003725,324805.19999999925,7049,WL,A,14.0
2,40.83699989318848,learn,19163.000106811523,Mon Feb 17 2025 17:48:01 GMT-0600 (Central Standard Time),328920.39999999944,A,ch,O,backspace,472,1,4115.200000000186,324805.19999999925,7049,WL,A,14.0
2,42.003000020980835,learn,17996.999979019165,Mon Feb 17 2025 17:48:01 GMT-0600 (Central Standard Time),330086.7999999998,A,c,O,backspace,1149,1,5281.600000000559,324805.19999999925,7049,WL,A,14.0
2,42.15299987792969,learn,17847.000122070312,Mon Feb 17 2025 17:48:01 GMT-0600 (Central Standard Time),330236.7999999998,A,,O,backspace,134,1,5431.600000000559,324805.19999999925,7049,WL,A,14.0
2,42.28600001335144,learn,17713.99998664856,Mon Feb 17 2025 17:48:01 GMT-0600 (Central Standard Time),330370.0999999996,A,,O,backspace,113,1,5564.9000000003725,324805.19999999925,7049,WL,A,14.0
2,42.418999910354614,learn,17581.000089645386,Mon Feb 17 2025 17:48:01 GMT-0600 (Central Standard Time),330503.19999999925,A,,O,backspace,116,1,5698.0,324805.19999999925,7049,WL,A,14.0
2,42.55299997329712,learn,17447.00002670288,Mon Feb 17 2025 17:48:01 GMT-0600 (Central Standard Time),330636.5999999996,A,,O,backspace,126,1,5831.4000000003725,324805.19999999925,7049,WL,A,14.0
2,43.95199990272522,learn,16048.00009727478,Mon Feb 17 2025 17:48:01 GMT-0600 (Central Standard Time),332036.0999999996,A,a,O,a,1384,1,7230.9000000003725,324805.19999999925,7049,WL,A,14.0
2,44.069000005722046,learn,15930.999994277954,Mon Feb 17 2025 17:48:01 GMT-0600 (Central Standard Time),332152.69999999925,A,ap,O,p,97,1,7347.5,324805.19999999925,7049,WL,A,14.0
2,44.18599987030029,learn,15814.000129699707,Mon Feb 17 2025 17:48:01 GMT-0600 (Central Standard Time),332269.5,A,app,O,p,109,1,7464.300000000745,324805.19999999925,7049,WL,A,14.0
2,44.36899995803833,learn,15631.00004196167,Mon Feb 17 2025 17:48:01 GMT-0600 (Central Standard Time),332452.69999999925,A,appl,O,l,168,1,7647.5,324805.19999999925,7049,WL,A,14.0
2,44.45300006866455,learn,15546.99993133545,Mon Feb 17 2025 17:48:01 GMT-0600 (Central Standard Time),332536.19999999925,A,apple,O,e,64,1,7731.0,324805.19999999925,7049,WL,A,14.0
2,44.68499994277954,learn,15315.000057220459,Mon Feb 17 2025 17:48:01 GMT-0600 (Central Standard Time),332769.0999999996,A,appleenter,O,enter,221,1,7963.9000000003725,324805.19999999925,7049,WL,A,14.0
2,47.41799998283386,learn,12582.000017166138,Mon Feb 17 2025 17:48:01 GMT-0600 (Central Standard Time),335501.7999999998,A,l,O,l,2716,1,2732.2999999998137,332769.5,7049,WL,A,15.0
2,47.58500003814697,learn,12414.999961853027,Mon Feb 17 2025 17:48:01 GMT-0600 (Central Standard Time),335668.39999999944,A,lo,O,o,159,1,2898.899999999441,332769.5,7049,WL,A,15.0
2,47.68499994277954,learn,12315.000057220459,Mon Feb 17 2025 17:48:01 GMT-0600 (Central Standard Time),335768.5,A,log,O,g,81,1,2999.0,332769.5,7049,WL,A,15.0
2,47.83399987220764,learn,12166.000127792358,Mon Feb 17 2025 17:48:01 GMT-0600 (Central Standard Time),335918.0999999996,A,logenter,O,enter,133,1,3148.5999999996275,332769.5,7049,WL,A,15.0
3,1.6319999694824219,learn,58368.00003051758,Mon Feb 17 2025 17:48:01 GMT-0600 (Central Standard Time),408378.69999999925,A,b,O,b,1628,1,1632.5,406746.19999999925,7049,WL,A,1.0
3,1.749000072479248,learn,58250.99992752075,Mon Feb 17 2025 17:48:01 GMT-0600 (Central Standard Time),408495.2999999998,A,bo,O,o,106,1,1749.1000000005588,406746.19999999925,7049,WL,A,1.0
3,1.8989999294281006,learn,58101.0000705719,Mon Feb 17 2025 17:48:01 GMT-0600 (Central Standard Time),408645.5999999996,A,boo,O,o,142,1,1899.4000000003725,406746.19999999925,7049,WL,A,1.0
3,2.065999984741211,learn,57934.00001525879,Mon Feb 17 2025 17:48:01 GMT-0600 (Central Standard Time),408811.7999999998,A,book,O,k,152,1,2065.600000000559,406746.19999999925,7049,WL,A,1.0
3,2.865999937057495,learn,57134.000062942505,Mon Feb 17 2025 17:48:01 GMT-0600 (Central Standard Time),409611.89999999944,A,bookenter,O,enter,794,1,2865.7000000001863,406746.19999999925,7049,WL,A,1.0
3,3.697999954223633,learn,56302.00004577637,Mon Feb 17 2025 17:48:01 GMT-0600 (Central Standard Time),410444.69999999925,A,f,O,f,817,1,832.3999999994412,409612.2999999998,7049,WL,A,2.0
3,3.7820000648498535,learn,56217.99993515015,Mon Feb 17 2025 17:48:01 GMT-0600 (Central Standard Time),410528.5,A,fl,O,l,73,1,916.2000000001863,409612.2999999998,7049,WL,A,2.0
3,3.949000120162964,learn,56050.999879837036,Mon Feb 17 2025 17:48:01 GMT-0600 (Central Standard Time),410694.69999999925,A,flo,O,o,149,1,1082.3999999994412,409612.2999999998,7049,WL,A,2.0
3,4.065000057220459,learn,55934.99994277954,Mon Feb 17 2025 17:48:01 GMT-0600 (Central Standard Time),410811.5,A,flow,O,w,102,1,1199.2000000001863,409612.2999999998,7049,WL,A,2.0
3,4.248000144958496,learn,55751.999855041504,Mon Feb 17 2025 17:48:01 GMT-0600 (Central Standard Time),410994.5999999996,A,flowe,O,e,178,1,1382.2999999998137,409612.2999999998,7049,WL,A,2.0
3,4.447999954223633,learn,55552.00004577637,Mon Feb 17 2025 17:48:01 GMT-0600 (Central Standard Time),411194.69999999925,A,flower,O,r,187,1,1582.3999999994412,409612.2999999998,7049,WL,A,2.0
3,5.115000009536743,learn,54884.99999046326,Mon Feb 17 2025 17:48:01 GMT-0600 (Central Standard Time),411861.0,A,flowerenter,O,enter,659,1,2248.7000000001863,409612.2999999998,7049,WL,A,2.0
3,5.498000144958496,learn,54501.999855041504,Mon Feb 17 2025 17:48:01 GMT-0600 (Central Standard Time),412244.2999999998,A,t,O,t,368,1,383.0,411861.2999999998,7049,WL,A,3.0
3,6.015000104904175,learn,53984.999895095825,Mon Feb 17 2025 17:48:01 GMT-0600 (Central Standard Time),412760.7999999998,A,tr,O,r,505,1,899.5,411861.2999999998,7049,WL,A,3.0
3,6.364000082015991,learn,53635.99991798401,Mon Feb 17 2025 17:48:01 GMT-0600 (Central Standard Time),413110.69999999925,A,tra,O,a,341,1,1249.3999999994412,411861.2999999998,7049,WL,A,3.0
3,6.515000104904175,learn,53484.999895095825,Mon Feb 17 2025 17:48:01 GMT-0600 (Central Standard Time),413260.89999999944,A,trai,O,i,143,1,1399.5999999996275,411861.2999999998,7049,WL,A,3.0
3,6.5980000495910645,learn,53401.999950408936,Mon Feb 17 2025 17:48:01 GMT-0600 (Central Standard Time),413343.89999999944,A,train,O,n,65,1,1482.5999999996275,411861.2999999998,7049,WL,A,3.0
3,7.398000001907349,learn,52601.99999809265,Mon Feb 17 2025 17:48:01 GMT-0600 (Central Standard Time),414143.89999999944,A,trainenter,O,enter,782,1,2282.5999999996275,411861.2999999998,7049,WL,A,3.0
3,7.763999938964844,learn,52236.000061035156,Mon Feb 17 2025 17:48:01 GMT-0600 (Central Standard Time),414510.0999999996,A,r,O,r,358,1,366.0,414144.0999999996,7049,WL,A,4.0
3,7.88100004196167,learn,52118.99995803833,Mon Feb 17 2025 17:48:01 GMT-0600 (Central Standard Time),414626.89999999944,A,ru,O,u,103,1,482.79999999981374,414144.0999999996,7049,WL,A,4.0
3,8.02999997138977,learn,51970.00002861023,Mon Feb 17 2025 17:48:01 GMT-0600 (Central Standard Time),414776.89999999944,A,rug,O,g,129,1,632.7999999998137,414144.0999999996,7049,WL,A,4.0
3,8.829999923706055,learn,51170.000076293945,Mon Feb 17 2025 17:48:01 GMT-0600 (Central Standard Time),415576.69999999925,A,rugenter,O,enter,788,1,1432.5999999996275,414144.0999999996,7049,WL,A,4.0
3,9.164000034332275,learn,50835.999965667725,Mon Feb 17 2025 17:48:01 GMT-0600 (Central Standard Time),415910.0999999996,A,m,O,m,316,1,333.09999999962747,415577.0,7049,WL,A,5.0
3,9.246999979019165,learn,50753.000020980835,Mon Feb 17 2025 17:48:01 GMT-0600 (Central Standard Time),415993.69999999925,A,me,O,e,78,1,416.69999999925494,415577.0,7049,WL,A,5.0
3,9.446000099182129,learn,50553.99990081787,Mon Feb 17 2025 17:48:01 GMT-0600 (Central Standard Time),416193.0,A,mea,O,a,188,1,616.0,415577.0,7049,WL,A,5.0
3,9.630000114440918,learn,50369.99988555908,Mon Feb 17 2025 17:48:01 GMT-0600 (Central Standard Time),416376.2999999998,A,mead,O,d,164,1,799.2999999998137,415577.0,7049,WL,A,5.0
3,9.680000066757202,learn,50319.9999332428,Mon Feb 17 2025 17:48:01 GMT-0600 (Central Standard Time),416426.19999999925,A,meado,O,o,45,1,849.1999999992549,415577.0,7049,WL,A,5.0
3,10.595999956130981,learn,49404.00004386902,Mon Feb 17 2025 17:48:01 GMT-0600 (Central Standard Time),417343.0,A,meadow,O,w,899,1,1766.0,415577.0,7049,WL,A,5.0
3,10.763000011444092,learn,49236.99998855591,Mon Feb 17 2025 17:48:01 GMT-0600 (Central Standard Time),417509.19999999925,A,meadowenter,O,enter,158,1,1932.199999999255,415577.0,7049,WL,A,5.0
3,11.861999988555908,learn,48138.00001144409,Mon Feb 17 2025 17:48:01 GMT-0600 (Central Standard Time),418609.0,A,h,O,h,1081,1,1099.5,417509.5,7049,WL,A,6.0
3,11.911999940872192,learn,48088.00005912781,Mon Feb 17 2025 17:48:01 GMT-0600 (Central Standard Time),418658.7999999998,A,ha,O,a,36,1,1149.2999999998137,417509.5,7049,WL,A,6.0
3,12.146000146865845,learn,47853.999853134155,Mon Feb 17 2025 17:48:01 GMT-0600 (Central Standard Time),418892.19999999925,A,har,O,r,227,1,1382.699999999255,417509.5,7049,WL,A,6.0
3,12.312000036239624,learn,47687.999963760376,Mon Feb 17 2025 17:48:01 GMT-0600 (Central Standard Time),419058.69999999925,A,harp,O,p,153,1,1549.199999999255,417509.5,7049,WL,A,6.0
3,12.796000003814697,learn,47203.9999961853,Mon Feb 17 2025 17:48:01 GMT-0600 (Central Standard Time),419542.0,A,harpenter,O,enter,475,1,2032.5,417509.5,7049,WL,A,6.0
3,13.111999988555908,learn,46888.00001144409,Mon Feb 17 2025 17:48:01 GMT-0600 (Central Standard Time),419858.69999999925,A,s,O,s,303,1,316.3999999994412,419542.2999999998,7049,WL,A,7.0
3,13.295000076293945,learn,46704.999923706055,Mon Feb 17 2025 17:48:01 GMT-0600 (Central Standard Time),420041.89999999944,A,sa,O,a,171,1,499.59999999962747,419542.2999999998,7049,WL,A,7.0
3,13.411999940872192,learn,46588.00005912781,Mon Feb 17 2025 17:48:01 GMT-0600 (Central Standard Time),420158.5,A,sal,O,l,99,1,616.2000000001863,419542.2999999998,7049,WL,A,7.0
3,14.128000020980835,learn,45871.999979019165,Mon Feb 17 2025 17:48:01 GMT-0600 (Central Standard Time),420874.89999999944,A,salt,O,t,703,1,1332.5999999996275,419542.2999999998,7049,WL,A,7.0
3,14.91100001335144,learn,45088.99998664856,Mon Feb 17 2025 17:48:01 GMT-0600 (Central Standard Time),421658.0,A,saltenter,O,enter,770,1,2115.7000000001863,419542.2999999998,7049,WL,A,7.0
3,15.128000020980835,learn,44871.999979019165,Mon Feb 17 2025 17:48:01 GMT-0600 (Central Standard Time),421874.5,A,f,O,f,212,1,216.20000000018626,421658.2999999998,7049,WL,A,8.0
3,15.311000108718872,learn,44688.99989128113,Mon Feb 17 2025 17:48:01 GMT-0600 (Central Standard Time),422057.7999999998,A,fi,O,i,163,1,399.5,421658.2999999998,7049,WL,A,8.0
3,15.378000020980835,learn,44621.999979019165,Mon Feb 17 2025 17:48:01 GMT-0600 (Central Standard Time),422124.39999999944,A,fin,O,n,60,1,466.09999999962747,421658.2999999998,7049,WL,A,8.0
3,15.511000156402588,learn,44488.99984359741,Mon Feb 17 2025 17:48:01 GMT-0600 (Central Standard Time),422258.0,A,find,O,d,110,1,599.7000000001863,421658.2999999998,7049,WL,A,8.0
3,15.761000156402588,learn,44238.99984359741,Mon Feb 17 2025 17:48:01 GMT-0600 (Central Standard Time),422507.7999999998,A,finde,O,e,243,1,849.5,421658.2999999998,7049,WL,A,8.0
3,15.960999965667725,learn,44039.000034332275,Mon Feb 17 2025 17:48:01 GMT-0600 (Central Standard Time),422707.69999999925,A,finder,O,r,185,1,1049.3999999994412,421658.2999999998,7049,WL,A,8.0
3,16.844000101089478,learn,43155.99989891052,Mon Feb 17 2025 17:48:01 GMT-0600 (Central Standard Time),423590.89999999944,A,finde,O,backspace,874,1,1932.5999999996275,421658.2999999998,7049,WL,A,8.0
3,16.977999925613403,learn,43022.0000743866,Mon Feb 17 2025 17:48:01 GMT-0600 (Central Standard Time),423724.0999999996,A,find,O,backspace,126,1,2065.7999999998137,421658.2999999998,7049,WL,A,8.0
3,17.511000156402588,learn,42488.99984359741,Mon Feb 17 2025 17:48:01 GMT-0600 (Central Standard Time),424257.2999999998,A,fin,O,backspace,521,1,2599.0,421658.2999999998,7049,WL,A,8.0
3,17.844000101089478,learn,42155.99989891052,Mon Feb 17 2025 17:48:01 GMT-0600 (Central Standard Time),424590.5,A,fing,O,g,316,1,2932.2000000001863,421658.2999999998,7049,WL,A,8.0
3,17.927000045776367,learn,42072.99995422363,Mon Feb 17 2025 17:48:01 GMT-0600 (Central Standard Time),424673.7999999998,A,finge,O,e,62,1,3015.5,421658.2999999998,7049,WL,A,8.0
3,18.094000101089478,learn,41905.99989891052,Mon Feb 17 2025 17:48:01 GMT-0600 (Central Standard Time),424840.19999999925,A,finger,O,r,156,1,3181.899999999441,421658.2999999998,7049,WL,A,8.0
3,18.544000148773193,learn,41455.99985122681,Mon Feb 17 2025 17:48:01 GMT-0600 (Central Standard Time),425290.19999999925,A,fingerenter,O,enter,437,1,3631.899999999441,421658.2999999998,7049,WL,A,8.0
3,20.009999990463257,learn,39990.00000953674,Mon Feb 17 2025 17:48:01 GMT-0600 (Central Standard Time),426756.39999999944,A,c,O,c,1451,1,1465.7999999998137,425290.5999999996,7049,WL,A,9.0
3,20.4760000705719,learn,39523.9999294281,Mon Feb 17 2025 17:48:01 GMT-0600 (Central Standard Time),427223.0,A,ch,O,h,457,1,1932.4000000003725,425290.5999999996,7049,WL,A,9.0
3,20.64300012588501,learn,39356.99987411499,Mon Feb 17 2025 17:48:01 GMT-0600 (Central Standard Time),427389.69999999925,A,chi,O,i,150,1,2099.0999999996275,425290.5999999996,7049,WL,A,9.0
3,20.776000022888184,learn,39223.99997711182,Mon Feb 17 2025 17:48:01 GMT-0600 (Central Standard Time),427522.69999999925,A,chim,O,m,128,1,2232.0999999996275,425290.5999999996,7049,WL,A,9.0
3,21.20900011062622,learn,38790.99988937378,Mon Feb 17 2025 17:48:01 GMT-0600 (Central Standard Time),427955.89999999944,A,chimn,O,n,418,1,2665.2999999998137,425290.5999999996,7049,WL,A,9.0
3,21.325999975204468,learn,38674.00002479553,Mon Feb 17 2025 17:48:01 GMT-0600 (Central Standard Time),428072.2999999998,A,chimne,O,e,93,1,2781.7000000001863,425290.5999999996,7049,WL,A,9.0
3,21.426000118255615,learn,38573.999881744385,Mon Feb 17 2025 17:48:01 GMT-0600 (Central Standard Time),428172.69999999925,A,chimney,O,y,93,1,2882.0999999996275,425290.5999999996,7049,WL,A,9.0
3,22.075999975204468,learn,37924.00002479553,Mon Feb 17 2025 17:48:01 GMT-0600 (Central Standard Time),428822.5,A,chimneyenter,O,enter,633,1,3531.9000000003725,425290.5999999996,7049,WL,A,9.0
3,22.55900001525879,learn,37440.99998474121,Mon Feb 17 2025 17:48:01 GMT-0600 (Central Standard Time),429305.5999999996,A,b,O,b,463,1,482.70000000018626,428822.89999999944,7049,WL,A,10.0
3,22.992000102996826,learn,37007.999897003174,Mon Feb 17 2025 17:48:01 GMT-0600 (Central Standard Time),429738.5999999996,A,bu,O,u,428,1,915.7000000001863,428822.89999999944,7049,WL,A,10.0
3,23.14199995994568,learn,36858.00004005432,Mon Feb 17 2025 17:48:01 GMT-0600 (Central Standard Time),429888.89999999944,A,but,O,t,139,1,1066.0,428822.89999999944,7049,WL,A,10.0
3,23.30900001525879,learn,36690.99998474121,Mon Feb 17 2025 17:48:01 GMT-0600 (Central Standard Time),430055.39999999944,A,butt,O,t,156,1,1232.5,428822.89999999944,7049,WL,A,10.0
3,23.4760000705719,learn,36523.9999294281,Mon Feb 17 2025 17:48:01 GMT-0600 (Central Standard Time),430222.19999999925,A,butto,O,o,158,1,1399.2999999998137,428822.89999999944,7049,WL,A,10.0
3,23.526000022888184,learn,36473.99997711182,Mon Feb 17 2025 17:48:01 GMT-0600 (Central Standard Time),430272.0,A,button,O,n,31,1,1449.1000000005588,428822.89999999944,7049,WL,A,10.0
3,24.442000150680542,learn,35557.99984931946,Mon Feb 17 2025 17:48:01 GMT-0600 (Central Standard Time),431188.5,A,buttonenter,O,enter,902,1,2365.600000000559,428822.89999999944,7049,WL,A,10.0
3,24.725000143051147,learn,35274.99985694885,Mon Feb 17 2025 17:48:01 GMT-0600 (Central Standard Time),431471.69999999925,A,l,O,l,272,1,282.8999999994412,431188.7999999998,7049,WL,A,11.0
3,24.907999992370605,learn,35092.000007629395,Mon Feb 17 2025 17:48:01 GMT-0600 (Central Standard Time),431654.7999999998,A,lo,O,o,166,1,466.0,431188.7999999998,7049,WL,A,11.0
3,25.157999992370605,learn,34842.000007629395,Mon Feb 17 2025 17:48:01 GMT-0600 (Central Standard Time),431904.7999999998,A,log,O,g,231,1,716.0,431188.7999999998,7049,WL,A,11.0
3,26.490999937057495,learn,33509.000062942505,Mon Feb 17 2025 17:48:01 GMT-0600 (Central Standard Time),433237.7999999998,A,logenter,O,enter,1317,1,2049.0,431188.7999999998,7049,WL,A,11.0
3,27.60800004005432,learn,32391.99995994568,Mon Feb 17 2025 17:48:01 GMT-0600 (Central Standard Time),434354.19999999925,A,g,O,g,1096,1,1116.0,433238.19999999925,7049,WL,A,12.0
3,27.69099998474121,learn,32309.00001525879,Mon Feb 17 2025 17:48:01 GMT-0600 (Central Standard Time),434437.5,A,go,O,o,67,1,1199.300000000745,433238.19999999925,7049,WL,A,12.0
3,27.85700011253357,learn,32142.99988746643,Mon Feb 17 2025 17:48:01 GMT-0600 (Central Standard Time),434603.7999999998,A,gol,O,l,152,1,1365.6000000005588,433238.19999999925,7049,WL,A,12.0
3,27.957000017166138,learn,32042.999982833862,Mon Feb 17 2025 17:48:01 GMT-0600 (Central Standard Time),434703.69999999925,A,gold,O,d,82,1,1465.5,433238.19999999925,7049,WL,A,12.0
3,29.157000064849854,learn,30842.999935150146,Mon Feb 17 2025 17:48:01 GMT-0600 (Central Standard Time),435903.69999999925,A,goldenter,O,enter,1182,1,2665.5,433238.19999999925,7049,WL,A,12.0
3,31.2739999294281,learn,28726.0000705719,Mon Feb 17 2025 17:48:01 GMT-0600 (Central Standard Time),438020.69999999925,A,t,O,t,2102,1,2116.5999999996275,435904.0999999996,7049,WL,A,13.0
3,31.439000129699707,learn,28560.999870300293,Mon Feb 17 2025 17:48:01 GMT-0600 (Central Standard Time),438185.89999999944,A,tr,O,r,144,1,2281.7999999998137,435904.0999999996,7049,WL,A,13.0
3,31.623000144958496,learn,28376.999855041504,Mon Feb 17 2025 17:48:01 GMT-0600 (Central Standard Time),438369.69999999925,A,tra,O,a,163,1,2465.5999999996275,435904.0999999996,7049,WL,A,13.0
3,31.69000005722046,learn,28309.99994277954,Mon Feb 17 2025 17:48:01 GMT-0600 (Central Standard Time),438436.19999999925,A,trai,O,i,60,1,2532.0999999996275,435904.0999999996,7049,WL,A,13.0
3,31.75600004196167,learn,28243.99995803833,Mon Feb 17 2025 17:48:01 GMT-0600 (Central Standard Time),438502.7999999998,A,train,O,n,57,1,2598.7000000001863,435904.0999999996,7049,WL,A,13.0
3,33.121999979019165,learn,26878.000020980835,Mon Feb 17 2025 17:48:01 GMT-0600 (Central Standard Time),439869.0,A,trainenter,O,enter,1358,1,3964.9000000003725,435904.0999999996,7049,WL,A,13.0
3,36.437999963760376,learn,23562.000036239624,Mon Feb 17 2025 17:48:01 GMT-0600 (Central Standard Time),443184.69999999925,A,m,O,m,3305,1,3315.399999999441,439869.2999999998,7049,WL,A,14.0
3,36.521000146865845,learn,23478.999853134155,Mon Feb 17 2025 17:48:01 GMT-0600 (Central Standard Time),443267.89999999944,A,me,O,e,68,1,3398.5999999996275,439869.2999999998,7049,WL,A,14.0
3,36.7039999961853,learn,23296.000003814697,Mon Feb 17 2025 17:48:01 GMT-0600 (Central Standard Time),443450.89999999944,A,mea,O,a,177,1,3581.5999999996275,439869.2999999998,7049,WL,A,14.0
3,36.88800001144409,learn,23111.99998855591,Mon Feb 17 2025 17:48:01 GMT-0600 (Central Standard Time),443634.5,A,mead,O,d,171,1,3765.2000000001863,439869.2999999998,7049,WL,A,14.0
3,37.00500011444092,learn,22994.999885559082,Mon Feb 17 2025 17:48:01 GMT-0600 (Central Standard Time),443751.0999999996,A,meado,O,o,107,1,3881.7999999998137,439869.2999999998,7049,WL,A,14.0
3,37.05400013923645,learn,22945.99986076355,Mon Feb 17 2025 17:48:01 GMT-0600 (Central Standard Time),443800.89999999944,A,meadoi,O,i,29,1,3931.5999999996275,439869.2999999998,7049,WL,A,14.0
3,37.13800001144409,learn,22861.99998855591,Mon Feb 17 2025 17:48:01 GMT-0600 (Central Standard Time),443884.2999999998,A,meadoiw,O,w,76,1,4015.0,439869.2999999998,7049,WL,A,14.0
3,37.854000091552734,learn,22145.999908447266,Mon Feb 17 2025 17:48:01 GMT-0600 (Central Standard Time),444600.7999999998,A,meadoi,O,backspace,697,1,4731.5,439869.2999999998,7049,WL,A,14.0
3,37.9539999961853,learn,22046.000003814697,Mon Feb 17 2025 17:48:01 GMT-0600 (Central Standard Time),444700.69999999925,A,meado,O,backspace,93,1,4831.399999999441,439869.2999999998,7049,WL,A,14.0
3,38.1710000038147,learn,21828.999996185303,Mon Feb 17 2025 17:48:01 GMT-0600 (Central Standard Time),444917.5999999996,A,meadow,O,w,201,1,5048.299999999814,439869.2999999998,7049,WL,A,14.0
3,38.80400013923645,learn,21195.99986076355,Mon Feb 17 2025 17:48:01 GMT-0600 (Central Standard Time),445550.5999999996,A,meadowenter,O,enter,615,1,5681.299999999814,439869.2999999998,7049,WL,A,14.0
3,60.013999938964844,learn,-13.99993896484375,Mon Feb 17 2025 17:48:01 GMT-0600 (Central Standard Time),466760.7999999998,A,None,O,None,21206,1,21209.900000000373,445550.89999999944,7049,WL,A,15.0
4,2.4660000801086426,learn,57533.99991989136,Mon Feb 17 2025 17:48:01 GMT-0600 (Central Standard Time),541354.1999999993,A,h,O,h,2446,1,2466.0,538888.1999999993,7049,WL,A,1.0
4,2.5490000247955322,learn,57450.99997520447,Mon Feb 17 2025 17:48:01 GMT-0600 (Central Standard Time),541437.0999999996,A,ha,O,a,74,1,2548.9000000003725,538888.1999999993,7049,WL,A,1.0
4,2.8489999771118164,learn,57151.00002288818,Mon Feb 17 2025 17:48:01 GMT-0600 (Central Standard Time),541737.0999999996,A,har,O,r,289,1,2848.9000000003725,538888.1999999993,7049,WL,A,1.0
4,3.1659998893737793,learn,56834.00011062622,Mon Feb 17 2025 17:48:01 GMT-0600 (Central Standard Time),542053.7999999998,A,harp,O,p,308,1,3165.600000000559,538888.1999999993,7049,WL,A,1.0
4,4.065000057220459,learn,55934.99994277954,Mon Feb 17 2025 17:48:01 GMT-0600 (Central Standard Time),542953.2999999998,A,harpenter,O,enter,887,1,4065.100000000559,538888.1999999993,7049,WL,A,1.0
4,5.914999961853027,learn,54085.00003814697,Mon Feb 17 2025 17:48:01 GMT-0600 (Central Standard Time),544802.6999999993,A,f,O,f,1836,1,1849.0999999996275,542953.5999999996,7049,WL,A,2.0
4,6.447999954223633,learn,53552.00004577637,Mon Feb 17 2025 17:48:01 GMT-0600 (Central Standard Time),545336.0,A,fi,O,i,515,1,2382.4000000003725,542953.5999999996,7049,WL,A,2.0
4,6.54800009727478,learn,53451.99990272522,Mon Feb 17 2025 17:48:01 GMT-0600 (Central Standard Time),545436.0,A,fin,O,n,93,1,2482.4000000003725,542953.5999999996,7049,WL,A,2.0
4,6.8399999141693115,learn,53160.00008583069,Mon Feb 17 2025 17:48:01 GMT-0600 (Central Standard Time),545727.7999999998,A,fing,O,g,287,1,2774.2000000001863,542953.5999999996,7049,WL,A,2.0
4,7.3480000495910645,learn,52651.999950408936,Mon Feb 17 2025 17:48:01 GMT-0600 (Central Standard Time),546235.6999999993,A,finge,O,e,493,1,3282.0999999996275,542953.5999999996,7049,WL,A,2.0
4,7.563999891281128,learn,52436.00010871887,Mon Feb 17 2025 17:48:01 GMT-0600 (Central Standard Time),546452.1999999993,A,finger,O,r,202,1,3498.5999999996275,542953.5999999996,7049,WL,A,2.0
4,8.29800009727478,learn,51701.99990272522,Mon Feb 17 2025 17:48:01 GMT-0600 (Central Standard Time),547185.5,A,fingerenter,O,enter,713,1,4231.9000000003725,542953.5999999996,7049,WL,A,2.0
4,8.530999898910522,learn,51469.00010108948,Mon Feb 17 2025 17:48:01 GMT-0600 (Central Standard Time),547418.7999999998,A,s,O,s,220,1,232.90000000037253,547185.8999999994,7049,WL,A,3.0
4,8.746999979019165,learn,51253.000020980835,Mon Feb 17 2025 17:48:01 GMT-0600 (Central Standard Time),547635.0999999996,A,sa,O,a,203,1,449.20000000018626,547185.8999999994,7049,WL,A,3.0
4,8.88100004196167,learn,51118.99995803833,Mon Feb 17 2025 17:48:01 GMT-0600 (Central Standard Time),547768.5999999996,A,sal,O,l,122,1,582.7000000001863,547185.8999999994,7049,WL,A,3.0
4,9.147000074386597,learn,50852.9999256134,Mon Feb 17 2025 17:48:01 GMT-0600 (Central Standard Time),548035.0999999996,A,salt,O,t,253,1,849.2000000001863,547185.8999999994,7049,WL,A,3.0
4,9.69700002670288,learn,50302.99997329712,Mon Feb 17 2025 17:48:01 GMT-0600 (Central Standard Time),548585.0,A,saltenter,O,enter,530,1,1399.1000000005588,547185.8999999994,7049,WL,A,3.0
4,12.546000003814697,learn,47453.9999961853,Mon Feb 17 2025 17:48:01 GMT-0600 (Central Standard Time),551433.8999999994,A,c,O,c,2836,1,2848.399999999441,548585.5,7049,WL,A,4.0
4,12.61299991607666,learn,47387.00008392334,Mon Feb 17 2025 17:48:01 GMT-0600 (Central Standard Time),551500.6999999993,A,ch,O,h,59,1,2915.199999999255,548585.5,7049,WL,A,4.0
4,12.76200008392334,learn,47237.99991607666,Mon Feb 17 2025 17:48:01 GMT-0600 (Central Standard Time),551650.5,A,chi,O,i,145,1,3065.0,548585.5,7049,WL,A,4.0
4,12.996000051498413,learn,47003.99994850159,Mon Feb 17 2025 17:48:01 GMT-0600 (Central Standard Time),551883.7999999998,A,chim,O,m,227,1,3298.2999999998137,548585.5,7049,WL,A,4.0
4,13.229000091552734,learn,46770.999908447266,Mon Feb 17 2025 17:48:01 GMT-0600 (Central Standard Time),552117.2999999998,A,chimn,O,n,218,1,3531.7999999998137,548585.5,7049,WL,A,4.0
4,13.296000003814697,learn,46703.9999961853,Mon Feb 17 2025 17:48:01 GMT-0600 (Central Standard Time),552184.0999999996,A,chimne,O,e,56,1,3598.5999999996275,548585.5,7049,WL,A,4.0
4,13.411999940872192,learn,46588.00005912781,Mon Feb 17 2025 17:48:01 GMT-0600 (Central Standard Time),552300.5,A,chimney,O,y,101,1,3715.0,548585.5,7049,WL,A,4.0
4,14.062000036239624,learn,45937.999963760376,Mon Feb 17 2025 17:48:01 GMT-0600 (Central Standard Time),552950.1999999993,A,chimneyenter,O,enter,640,1,4364.699999999255,548585.5,7049,WL,A,4.0
4,14.545000076293945,learn,45454.999923706055,Mon Feb 17 2025 17:48:01 GMT-0600 (Central Standard Time),553433.3999999994,A,b,O,b,471,1,482.8999999994412,552950.5,7049,WL,A,5.0
4,17.09500002861023,learn,42904.99997138977,Mon Feb 17 2025 17:48:01 GMT-0600 (Central Standard Time),555982.6999999993,A,,O,backspace,2532,1,3032.199999999255,552950.5,7049,WL,A,5.0
4,18.57800006866455,learn,41421.99993133545,Mon Feb 17 2025 17:48:01 GMT-0600 (Central Standard Time),557465.5,A,g,O,g,1471,1,4515.0,552950.5,7049,WL,A,5.0
4,18.66100001335144,learn,41338.99998664856,Mon Feb 17 2025 17:48:01 GMT-0600 (Central Standard Time),557548.7999999998,A,go,O,o,76,1,4598.299999999814,552950.5,7049,WL,A,5.0
4,18.844000101089478,learn,41155.99989891052,Mon Feb 17 2025 17:48:01 GMT-0600 (Central Standard Time),557732.0,A,gol,O,l,169,1,4781.5,552950.5,7049,WL,A,5.0
4,18.99399995803833,learn,41006.00004196167,Mon Feb 17 2025 17:48:01 GMT-0600 (Central Standard Time),557882.1999999993,A,gold,O,d,129,1,4931.699999999255,552950.5,7049,WL,A,5.0
4,20.24399995803833,learn,39756.00004196167,Mon Feb 17 2025 17:48:01 GMT-0600 (Central Standard Time),559131.5,A,goldenter,O,enter,1235,1,6181.0,552950.5,7049,WL,A,5.0
4,24.092000007629395,learn,35907.999992370605,Mon Feb 17 2025 17:48:01 GMT-0600 (Central Standard Time),562980.3999999994,A,r,O,r,3834,1,3848.5999999996275,559131.7999999998,7049,WL,A,6.0
4,24.30900001525879,learn,35690.99998474121,Mon Feb 17 2025 17:48:01 GMT-0600 (Central Standard Time),563197.0999999996,A,ra,O,a,209,1,4065.2999999998137,559131.7999999998,7049,WL,A,6.0
4,24.7260000705719,learn,35273.9999294281,Mon Feb 17 2025 17:48:01 GMT-0600 (Central Standard Time),563613.6999999993,A,rat,O,t,408,1,4481.899999999441,559131.7999999998,7049,WL,A,6.0
4,24.875999927520752,learn,35124.00007247925,Mon Feb 17 2025 17:48:01 GMT-0600 (Central Standard Time),563763.5999999996,A,ratt,O,t,143,1,4631.799999999814,559131.7999999998,7049,WL,A,6.0
4,24.941999912261963,learn,35058.00008773804,Mon Feb 17 2025 17:48:01 GMT-0600 (Central Standard Time),563830.0999999996,A,rattl,O,l,50,1,4698.299999999814,559131.7999999998,7049,WL,A,6.0
4,25.092000007629395,learn,34907.999992370605,Mon Feb 17 2025 17:48:01 GMT-0600 (Central Standard Time),563980.0,A,rattle,O,e,143,1,4848.200000000186,559131.7999999998,7049,WL,A,6.0
4,26.092000007629395,learn,33907.999992370605,Mon Feb 17 2025 17:48:01 GMT-0600 (Central Standard Time),564979.7999999998,A,rattleenter,O,enter,986,1,5848.0,559131.7999999998,7049,WL,A,6.0
4,28.341000080108643,learn,31658.999919891357,Mon Feb 17 2025 17:48:01 GMT-0600 (Central Standard Time),567229.0999999996,A,b,O,b,2242,1,2248.9000000003725,564980.1999999993,7049,WL,A,7.0
4,28.507999897003174,learn,31492.000102996826,Mon Feb 17 2025 17:48:01 GMT-0600 (Central Standard Time),567395.7999999998,A,bu,O,u,160,1,2415.600000000559,564980.1999999993,7049,WL,A,7.0
4,28.624000072479248,learn,31375.999927520752,Mon Feb 17 2025 17:48:01 GMT-0600 (Central Standard Time),567512.3999999994,A,but,O,t,106,1,2532.2000000001863,564980.1999999993,7049,WL,A,7.0
4,28.79099988937378,learn,31209.00011062622,Mon Feb 17 2025 17:48:01 GMT-0600 (Central Standard Time),567679.0,A,butt,O,t,149,1,2698.800000000745,564980.1999999993,7049,WL,A,7.0
4,28.841000080108643,learn,31158.999919891357,Mon Feb 17 2025 17:48:01 GMT-0600 (Central Standard Time),567728.7999999998,A,butto,O,o,39,1,2748.600000000559,564980.1999999993,7049,WL,A,7.0
4,28.94099998474121,learn,31059.00001525879,Mon Feb 17 2025 17:48:01 GMT-0600 (Central Standard Time),567829.0,A,button,O,n,84,1,2848.800000000745,564980.1999999993,7049,WL,A,7.0
4,29.424000024795532,learn,30575.999975204468,Mon Feb 17 2025 17:48:01 GMT-0600 (Central Standard Time),568312.0999999996,A,buttonenter,O,enter,472,1,3331.9000000003725,564980.1999999993,7049,WL,A,7.0
4,31.306999921798706,learn,28693.000078201294,Mon Feb 17 2025 17:48:01 GMT-0600 (Central Standard Time),570194.6999999993,A,r,O,r,1869,1,1882.199999999255,568312.5,7049,WL,A,8.0
4,31.390000104904175,learn,28609.999895095825,Mon Feb 17 2025 17:48:01 GMT-0600 (Central Standard Time),570278.0999999996,A,ru,O,u,67,1,1965.5999999996275,568312.5,7049,WL,A,8.0
4,31.5239999294281,learn,28476.0000705719,Mon Feb 17 2025 17:48:01 GMT-0600 (Central Standard Time),570411.5,A,rug,O,g,127,1,2099.0,568312.5,7049,WL,A,8.0
4,31.94000005722046,learn,28059.99994277954,Mon Feb 17 2025 17:48:01 GMT-0600 (Central Standard Time),570827.7999999998,A,rugenter,O,enter,410,1,2515.2999999998137,568312.5,7049,WL,A,8.0
4,32.473000049591064,learn,27526.999950408936,Mon Feb 17 2025 17:48:01 GMT-0600 (Central Standard Time),571361.1999999993,A,m,O,m,513,1,533.0999999996275,570828.0999999996,7049,WL,A,9.0
4,32.555999994277954,learn,27444.000005722046,Mon Feb 17 2025 17:48:01 GMT-0600 (Central Standard Time),571444.1999999993,A,me,O,e,76,1,616.0999999996275,570828.0999999996,7049,WL,A,9.0
4,32.75600004196167,learn,27243.99995803833,Mon Feb 17 2025 17:48:01 GMT-0600 (Central Standard Time),571644.3999999994,A,mea,O,a,193,1,816.2999999998137,570828.0999999996,7049,WL,A,9.0
4,32.92300009727478,learn,27076.99990272522,Mon Feb 17 2025 17:48:01 GMT-0600 (Central Standard Time),571810.7999999998,A,mead,O,d,161,1,982.7000000001863,570828.0999999996,7049,WL,A,9.0
4,33.03999996185303,learn,26960.000038146973,Mon Feb 17 2025 17:48:01 GMT-0600 (Central Standard Time),571927.6999999993,A,meado,O,o,99,1,1099.5999999996275,570828.0999999996,7049,WL,A,9.0
4,33.140000104904175,learn,26859.999895095825,Mon Feb 17 2025 17:48:01 GMT-0600 (Central Standard Time),572027.5999999996,A,meadow,O,w,86,1,1199.5,570828.0999999996,7049,WL,A,9.0
4,34.00600004196167,learn,25993.99995803833,Mon Feb 17 2025 17:48:01 GMT-0600 (Central Standard Time),572894.0,A,meadowenter,O,enter,850,1,2065.9000000003725,570828.0999999996,7049,WL,A,9.0
4,38.25500011444092,learn,21744.999885559082,Mon Feb 17 2025 17:48:01 GMT-0600 (Central Standard Time),577142.6999999993,A,f,O,f,4231,1,4248.399999999441,572894.2999999998,7049,WL,A,10.0
4,38.37100005149841,learn,21628.999948501587,Mon Feb 17 2025 17:48:01 GMT-0600 (Central Standard Time),577259.2999999998,A,fl,O,l,111,1,4365.0,572894.2999999998,7049,WL,A,10.0
4,38.53800010681152,learn,21461.999893188477,Mon Feb 17 2025 17:48:01 GMT-0600 (Central Standard Time),577426.0,A,flo,O,o,154,1,4531.700000000186,572894.2999999998,7049,WL,A,10.0
4,38.63800001144409,learn,21361.99998855591,Mon Feb 17 2025 17:48:01 GMT-0600 (Central Standard Time),577526.0,A,flow,O,w,84,1,4631.700000000186,572894.2999999998,7049,WL,A,10.0
4,38.80399990081787,learn,21196.00009918213,Mon Feb 17 2025 17:48:01 GMT-0600 (Central Standard Time),577692.3999999994,A,flowe,O,e,152,1,4798.0999999996275,572894.2999999998,7049,WL,A,10.0
4,38.97099995613098,learn,21029.00004386902,Mon Feb 17 2025 17:48:01 GMT-0600 (Central Standard Time),577859.0,A,flower,O,r,161,1,4964.700000000186,572894.2999999998,7049,WL,A,10.0
4,39.22099995613098,learn,20779.00004386902,Mon Feb 17 2025 17:48:01 GMT-0600 (Central Standard Time),578109.0,A,flowerenter,O,enter,235,1,5214.700000000186,572894.2999999998,7049,WL,A,10.0
4,39.82100009918213,learn,20178.99990081787,Mon Feb 17 2025 17:48:01 GMT-0600 (Central Standard Time),578709.0,A,b,O,b,592,1,599.7000000001863,578109.2999999998,7049,WL,A,11.0
4,39.9539999961853,learn,20046.000003814697,Mon Feb 17 2025 17:48:01 GMT-0600 (Central Standard Time),578842.0,A,bo,O,o,121,1,732.7000000001863,578109.2999999998,7049,WL,A,11.0
4,40.12100005149841,learn,19878.999948501587,Mon Feb 17 2025 17:48:01 GMT-0600 (Central Standard Time),579008.7999999998,A,boo,O,o,147,1,899.5,578109.2999999998,7049,WL,A,11.0
4,40.23699998855591,learn,19763.00001144409,Mon Feb 17 2025 17:48:01 GMT-0600 (Central Standard Time),579125.3999999994,A,book,O,k,109,1,1016.0999999996275,578109.2999999998,7049,WL,A,11.0
4,41.7039999961853,learn,18296.000003814697,Mon Feb 17 2025 17:48:01 GMT-0600 (Central Standard Time),580591.6999999993,A,bookenter,O,enter,1448,1,2482.399999999441,578109.2999999998,7049,WL,A,11.0
4,49.46799993515015,learn,10532.000064849854,Mon Feb 17 2025 17:48:01 GMT-0600 (Central Standard Time),588355.8999999994,A,f,O,f,7750,1,7763.899999999441,580592.0,7049,WL,A,12.0
4,49.568000078201294,learn,10431.999921798706,Mon Feb 17 2025 17:48:01 GMT-0600 (Central Standard Time),588455.8999999994,A,fl,O,l,81,1,7863.899999999441,580592.0,7049,WL,A,12.0
4,49.71799993515015,learn,10282.000064849854,Mon Feb 17 2025 17:48:01 GMT-0600 (Central Standard Time),588605.6999999993,A,flo,O,o,142,1,8013.699999999255,580592.0,7049,WL,A,12.0
4,49.83500003814697,learn,10164.999961853027,Mon Feb 17 2025 17:48:01 GMT-0600 (Central Standard Time),588722.5999999996,A,flow,O,w,96,1,8130.5999999996275,580592.0,7049,WL,A,12.0
4,50.01800012588501,learn,9981.99987411499,Mon Feb 17 2025 17:48:01 GMT-0600 (Central Standard Time),588905.6999999993,A,flowe,O,e,169,1,8313.699999999255,580592.0,7049,WL,A,12.0
4,50.20099997520447,learn,9799.000024795532,Mon Feb 17 2025 17:48:01 GMT-0600 (Central Standard Time),589088.7999999998,A,flower,O,r,172,1,8496.799999999814,580592.0,7049,WL,A,12.0
4,50.43400001525879,learn,9565.999984741211,Mon Feb 17 2025 17:48:01 GMT-0600 (Central Standard Time),589322.1999999993,A,flowerenter,O,enter,213,1,8730.199999999255,580592.0,7049,WL,A,12.0
4,54.299999952316284,learn,5700.000047683716,Mon Feb 17 2025 17:48:01 GMT-0600 (Central Standard Time),593187.6999999993,A,f,O,f,3851,1,3865.2999999998137,589322.3999999994,7049,WL,A,13.0
4,54.33299994468689,learn,5667.00005531311,Mon Feb 17 2025 17:48:01 GMT-0600 (Central Standard Time),593220.8999999994,A,fi,O,i,18,1,3898.5,589322.3999999994,7049,WL,A,13.0
4,54.41599988937378,learn,5584.000110626221,Mon Feb 17 2025 17:48:01 GMT-0600 (Central Standard Time),593304.2999999998,A,fin,O,n,73,1,3981.9000000003725,589322.3999999994,7049,WL,A,13.0
4,54.6489999294281,learn,5351.000070571899,Mon Feb 17 2025 17:48:01 GMT-0600 (Central Standard Time),593537.2999999998,A,fing,O,g,213,1,4214.9000000003725,589322.3999999994,7049,WL,A,13.0
4,54.700000047683716,learn,5299.999952316284,Mon Feb 17 2025 17:48:01 GMT-0600 (Central Standard Time),593587.5999999996,A,finge,O,e,43,1,4265.200000000186,589322.3999999994,7049,WL,A,13.0
4,54.865999937057495,learn,5134.000062942505,Mon Feb 17 2025 17:48:01 GMT-0600 (Central Standard Time),593754.0999999996,A,finger,O,r,154,1,4431.700000000186,589322.3999999994,7049,WL,A,13.0
4,55.098999977111816,learn,4901.000022888184,Mon Feb 17 2025 17:48:01 GMT-0600 (Central Standard Time),593987.5,A,fingerenter,O,enter,226,1,4665.100000000559,589322.3999999994,7049,WL,A,13.0
4,60.013999938964844,learn,-13.99993896484375,Mon Feb 17 2025 17:48:01 GMT-0600 (Central Standard Time),598902.3999999994,A,None,O,None,4910,1,4914.700000000186,593987.6999999993,7049,WL,A,14.0
5,1.3500001430511475,learn,60000.0,Mon Feb 17 2025 17:48:01 GMT-0600 (Central Standard Time),672279.6999999993,A,b,O,b,1340,1,1349.699999999255,670930.0,7049,WL,A,1.0
5,1.433000087738037,learn,60000.0,Mon Feb 17 2025 17:48:01 GMT-0600 (Central Standard Time),672362.5999999996,A,bu,O,u,76,1,1432.5999999996275,670930.0,7049,WL,A,1.0
5,1.6660001277923584,learn,60000.0,Mon Feb 17 2025 17:48:01 GMT-0600 (Central Standard Time),672595.8999999994,A,but,O,t,219,1,1665.8999999994412,670930.0,7049,WL,A,1.0
5,1.81600022315979,learn,60000.0,Mon Feb 17 2025 17:48:01 GMT-0600 (Central Standard Time),672745.5999999996,A,butt,O,t,136,1,1815.5999999996275,670930.0,7049,WL,A,1.0
5,1.933000087738037,learn,60000.0,Mon Feb 17 2025 17:48:01 GMT-0600 (Central Standard Time),672862.5,A,butto,O,o,107,1,1932.5,670930.0,7049,WL,A,1.0
5,2.017000198364258,learn,60000.0,Mon Feb 17 2025 17:48:01 GMT-0600 (Central Standard Time),672946.0999999996,A,button,O,n,62,1,2016.0999999996275,670930.0,7049,WL,A,1.0
5,2.9660000801086426,learn,60000.0,Mon Feb 17 2025 17:48:01 GMT-0600 (Central Standard Time),673895.2999999998,A,buttonenter,O,enter,938,1,2965.2999999998137,670930.0,7049,WL,A,1.0
5,3.9150002002716064,learn,60000.0,Mon Feb 17 2025 17:48:01 GMT-0600 (Central Standard Time),674844.8999999994,A,l,O,l,940,1,949.3999999994412,673895.5,7049,WL,A,2.0
5,4.082000017166138,learn,60000.0,Mon Feb 17 2025 17:48:01 GMT-0600 (Central Standard Time),675011.5999999996,A,lo,O,o,152,1,1116.0999999996275,673895.5,7049,WL,A,2.0
5,4.215000152587891,learn,60000.0,Mon Feb 17 2025 17:48:01 GMT-0600 (Central Standard Time),675144.8999999994,A,log,O,g,121,1,1249.3999999994412,673895.5,7049,WL,A,2.0
5,4.815000057220459,learn,60000.0,Mon Feb 17 2025 17:48:01 GMT-0600 (Central Standard Time),675744.6999999993,A,logenter,O,enter,580,1,1849.199999999255,673895.5,7049,WL,A,2.0
5,5.365000009536743,learn,60000.0,Mon Feb 17 2025 17:48:01 GMT-0600 (Central Standard Time),676294.8999999994,A,k,O,k,533,1,550.0,675744.8999999994,7049,WL,A,3.0
5,5.449000120162964,learn,60000.0,Mon Feb 17 2025 17:48:01 GMT-0600 (Central Standard Time),676378.1999999993,A,ke,O,e,78,1,633.2999999998137,675744.8999999994,7049,WL,A,3.0
5,5.5990002155303955,learn,60000.0,Mon Feb 17 2025 17:48:01 GMT-0600 (Central Standard Time),676528.1999999993,A,key,O,y,139,1,783.2999999998137,675744.8999999994,7049,WL,A,3.0
5,6.2820000648498535,learn,60000.0,Mon Feb 17 2025 17:48:01 GMT-0600 (Central Standard Time),677211.2999999998,A,keyenter,O,enter,677,1,1466.4000000003725,675744.8999999994,7049,WL,A,3.0
5,6.448000192642212,learn,60000.0,Mon Feb 17 2025 17:48:01 GMT-0600 (Central Standard Time),677377.6999999993,A,r,O,r,147,1,166.19999999925494,677211.5,7049,WL,A,4.0
5,6.682000160217285,learn,60000.0,Mon Feb 17 2025 17:48:01 GMT-0600 (Central Standard Time),677611.1999999993,A,ra,O,a,220,1,399.69999999925494,677211.5,7049,WL,A,4.0
5,6.965000152587891,learn,60000.0,Mon Feb 17 2025 17:48:01 GMT-0600 (Central Standard Time),677894.3999999994,A,rat,O,t,266,1,682.8999999994412,677211.5,7049,WL,A,4.0
5,7.115000009536743,learn,60000.0,Mon Feb 17 2025 17:48:01 GMT-0600 (Central Standard Time),678044.2999999998,A,ratt,O,t,143,1,832.7999999998137,677211.5,7049,WL,A,4.0
5,7.182000160217285,learn,60000.0,Mon Feb 17 2025 17:48:01 GMT-0600 (Central Standard Time),678111.0999999996,A,rattl,O,l,57,1,899.5999999996275,677211.5,7049,WL,A,4.0
5,7.29800009727478,learn,60000.0,Mon Feb 17 2025 17:48:01 GMT-0600 (Central Standard Time),678227.2999999998,A,rattle,O,e,110,1,1015.7999999998137,677211.5,7049,WL,A,4.0
5,8.648000001907349,learn,60000.0,Mon Feb 17 2025 17:48:01 GMT-0600 (Central Standard Time),679577.3999999994,A,rattleenter,O,enter,1330,1,2365.899999999441,677211.5,7049,WL,A,4.0
5,9.098000049591064,learn,60000.0,Mon Feb 17 2025 17:48:01 GMT-0600 (Central Standard Time),680027.0999999996,A,g,O,g,443,1,449.5,679577.5999999996,7049,WL,A,5.0
5,9.164000034332275,learn,60000.0,Mon Feb 17 2025 17:48:01 GMT-0600 (Central Standard Time),680094.0,A,go,O,o,50,1,516.4000000003725,679577.5999999996,7049,WL,A,5.0
5,9.331000089645386,learn,60000.0,Mon Feb 17 2025 17:48:01 GMT-0600 (Central Standard Time),680260.3999999994,A,gol,O,l,151,1,682.7999999998137,679577.5999999996,7049,WL,A,5.0
5,9.448000192642212,learn,60000.0,Mon Feb 17 2025 17:48:01 GMT-0600 (Central Standard Time),680377.1999999993,A,gold,O,d,105,1,799.5999999996275,679577.5999999996,7049,WL,A,5.0
5,9.714000225067139,learn,60000.0,Mon Feb 17 2025 17:48:01 GMT-0600 (Central Standard Time),680643.2999999998,A,goldenter,O,enter,260,1,1065.7000000001863,679577.5999999996,7049,WL,A,5.0
5,13.130000114440918,learn,60000.0,Mon Feb 17 2025 17:48:01 GMT-0600 (Central Standard Time),684059.0999999996,A,h,O,h,3410,1,3415.5999999996275,680643.5,7049,WL,A,6.0
5,13.196000099182129,learn,60000.0,Mon Feb 17 2025 17:48:01 GMT-0600 (Central Standard Time),684125.6999999993,A,ha,O,a,58,1,3482.199999999255,680643.5,7049,WL,A,6.0
5,13.446000099182129,learn,60000.0,Mon Feb 17 2025 17:48:01 GMT-0600 (Central Standard Time),684375.7999999998,A,har,O,r,240,1,3732.2999999998137,680643.5,7049,WL,A,6.0
5,13.663000106811523,learn,60000.0,Mon Feb 17 2025 17:48:01 GMT-0600 (Central Standard Time),684592.2999999998,A,harp,O,p,206,1,3948.7999999998137,680643.5,7049,WL,A,6.0
5,14.663000106811523,learn,60000.0,Mon Feb 17 2025 17:48:01 GMT-0600 (Central Standard Time),685592.1999999993,A,harpenter,O,enter,989,1,4948.699999999255,680643.5,7049,WL,A,6.0
5,15.562000036239624,learn,60000.0,Mon Feb 17 2025 17:48:01 GMT-0600 (Central Standard Time),686491.7999999998,A,s,O,s,885,1,899.1000000005588,685592.6999999993,7049,WL,A,7.0
5,15.729000091552734,learn,60000.0,Mon Feb 17 2025 17:48:01 GMT-0600 (Central Standard Time),686658.0999999996,A,sa,O,a,161,1,1065.4000000003725,685592.6999999993,7049,WL,A,7.0
5,15.812000036239624,learn,60000.0,Mon Feb 17 2025 17:48:01 GMT-0600 (Central Standard Time),686741.6999999993,A,sal,O,l,75,1,1149.0,685592.6999999993,7049,WL,A,7.0
5,16.127000093460083,learn,60000.0,Mon Feb 17 2025 17:48:01 GMT-0600 (Central Standard Time),687056.7999999998,A,salt,O,t,165,1,1464.1000000005588,685592.6999999993,7049,WL,A,7.0
5,16.231000185012817,learn,60000.0,Mon Feb 17 2025 17:48:01 GMT-0600 (Central Standard Time),687160.2999999998,A,saltenter,O,enter,84,1,1567.6000000005588,685592.6999999993,7049,WL,A,7.0
5,17.545000076293945,learn,60000.0,Mon Feb 17 2025 17:48:01 GMT-0600 (Central Standard Time),688474.3999999994,A,c,O,c,1308,1,1313.8999999994412,687160.5,7049,WL,A,8.0
5,17.645000219345093,learn,60000.0,Mon Feb 17 2025 17:48:01 GMT-0600 (Central Standard Time),688574.2999999998,A,ch,O,h,83,1,1413.7999999998137,687160.5,7049,WL,A,8.0
5,17.74500012397766,learn,60000.0,Mon Feb 17 2025 17:48:01 GMT-0600 (Central Standard Time),688674.2999999998,A,chi,O,i,87,1,1513.7999999998137,687160.5,7049,WL,A,8.0
5,17.945000171661377,learn,60000.0,Mon Feb 17 2025 17:48:01 GMT-0600 (Central Standard Time),688874.2999999998,A,chim,O,m,187,1,1713.7999999998137,687160.5,7049,WL,A,8.0
5,18.145000219345093,learn,60000.0,Mon Feb 17 2025 17:48:01 GMT-0600 (Central Standard Time),689074.5,A,chimn,O,n,179,1,1914.0,687160.5,7049,WL,A,8.0
5,18.228000164031982,learn,60000.0,Mon Feb 17 2025 17:48:01 GMT-0600 (Central Standard Time),689157.5999999996,A,chimne,O,e,75,1,1997.0999999996275,687160.5,7049,WL,A,8.0
5,18.380000114440918,learn,60000.0,Mon Feb 17 2025 17:48:01 GMT-0600 (Central Standard Time),689308.8999999994,A,chimney,O,y,136,1,2148.399999999441,687160.5,7049,WL,A,8.0
5,19.444000005722046,learn,60000.0,Mon Feb 17 2025 17:48:01 GMT-0600 (Central Standard Time),690373.7999999998,A,chimneyenter,O,enter,1056,1,3213.2999999998137,687160.5,7049,WL,A,8.0
5,19.66100001335144,learn,60000.0,Mon Feb 17 2025 17:48:01 GMT-0600 (Central Standard Time),690590.5,A,a,O,a,200,1,216.40000000037253,690374.0999999996,7049,WL,A,9.0
5,19.811000108718872,learn,60000.0,Mon Feb 17 2025 17:48:01 GMT-0600 (Central Standard Time),690740.2999999998,A,ap,O,p,135,1,366.20000000018626,690374.0999999996,7049,WL,A,9.0
5,19.9280002117157,learn,60000.0,Mon Feb 17 2025 17:48:01 GMT-0600 (Central Standard Time),690857.0999999996,A,app,O,p,105,1,483.0,690374.0999999996,7049,WL,A,9.0
5,20.094000101089478,learn,60000.0,Mon Feb 17 2025 17:48:01 GMT-0600 (Central Standard Time),691023.5,A,appl,O,l,148,1,649.4000000003725,690374.0999999996,7049,WL,A,9.0
5,20.211000204086304,learn,60000.0,Mon Feb 17 2025 17:48:01 GMT-0600 (Central Standard Time),691140.5,A,apple,O,e,110,1,766.4000000003725,690374.0999999996,7049,WL,A,9.0
5,22.14300012588501,learn,60000.0,Mon Feb 17 2025 17:48:01 GMT-0600 (Central Standard Time),693072.8999999994,A,appleenter,O,enter,1912,1,2698.7999999998137,690374.0999999996,7049,WL,A,9.0
5,26.55900001525879,learn,60000.0,Mon Feb 17 2025 17:48:01 GMT-0600 (Central Standard Time),697488.0999999996,A,t,O,t,4405,1,4414.9000000003725,693073.1999999993,7049,WL,A,10.0
5,26.725000143051147,learn,60000.0,Mon Feb 17 2025 17:48:01 GMT-0600 (Central Standard Time),697654.7999999998,A,tr,O,r,157,1,4581.600000000559,693073.1999999993,7049,WL,A,10.0
5,26.925000190734863,learn,60000.0,Mon Feb 17 2025 17:48:01 GMT-0600 (Central Standard Time),697854.8999999994,A,tra,O,a,191,1,4781.700000000186,693073.1999999993,7049,WL,A,10.0
5,27.009000062942505,learn,60000.0,Mon Feb 17 2025 17:48:01 GMT-0600 (Central Standard Time),697938.0999999996,A,trai,O,i,79,1,4864.9000000003725,693073.1999999993,7049,WL,A,10.0
5,27.092000007629395,learn,60000.0,Mon Feb 17 2025 17:48:01 GMT-0600 (Central Standard Time),698021.5,A,train,O,n,75,1,4948.300000000745,693073.1999999993,7049,WL,A,10.0
5,28.092000007629395,learn,60000.0,Mon Feb 17 2025 17:48:01 GMT-0600 (Central Standard Time),699021.2999999998,A,trainenter,O,enter,984,1,5948.100000000559,693073.1999999993,7049,WL,A,10.0
5,28.409000158309937,learn,60000.0,Mon Feb 17 2025 17:48:01 GMT-0600 (Central Standard Time),699338.0999999996,A,c,O,c,296,1,316.5,699021.5999999996,7049,WL,A,11.0
5,28.508000135421753,learn,60000.0,Mon Feb 17 2025 17:48:01 GMT-0600 (Central Standard Time),699437.6999999993,A,ch,O,h,84,1,416.09999999962747,699021.5999999996,7049,WL,A,11.0
5,28.60800004005432,learn,60000.0,Mon Feb 17 2025 17:48:01 GMT-0600 (Central Standard Time),699537.5999999996,A,chi,O,i,80,1,516.0,699021.5999999996,7049,WL,A,11.0
5,28.808000087738037,learn,60000.0,Mon Feb 17 2025 17:48:01 GMT-0600 (Central Standard Time),699737.5999999996,A,chim,O,m,180,1,716.0,699021.5999999996,7049,WL,A,11.0
5,29.02500009536743,learn,60000.0,Mon Feb 17 2025 17:48:01 GMT-0600 (Central Standard Time),699954.5,A,chimn,O,n,196,1,932.9000000003725,699021.5999999996,7049,WL,A,11.0
5,29.125,learn,60000.0,Mon Feb 17 2025 17:48:01 GMT-0600 (Central Standard Time),700054.2999999998,A,chimne,O,e,83,1,1032.7000000001863,699021.5999999996,7049,WL,A,11.0
5,29.325000047683716,learn,60000.0,Mon Feb 17 2025 17:48:01 GMT-0600 (Central Standard Time),700254.2999999998,A,chimney,O,y,183,1,1232.7000000001863,699021.5999999996,7049,WL,A,11.0
5,31.091000080108643,learn,60000.0,Mon Feb 17 2025 17:48:01 GMT-0600 (Central Standard Time),702020.0,A,chimneyenter,O,enter,1759,1,2998.4000000003725,699021.5999999996,7049,WL,A,11.0
5,31.957000017166138,learn,60000.0,Mon Feb 17 2025 17:48:01 GMT-0600 (Central Standard Time),702886.5999999996,A,b,O,b,857,1,866.2000000001863,702020.3999999994,7049,WL,A,12.0
5,32.24000000953674,learn,60000.0,Mon Feb 17 2025 17:48:01 GMT-0600 (Central Standard Time),703169.7999999998,A,bo,O,o,263,1,1149.4000000003725,702020.3999999994,7049,WL,A,12.0
5,32.37400007247925,learn,60000.0,Mon Feb 17 2025 17:48:01 GMT-0600 (Central Standard Time),703303.0999999996,A,boo,O,o,124,1,1282.7000000001863,702020.3999999994,7049,WL,A,12.0
5,32.473000049591064,learn,60000.0,Mon Feb 17 2025 17:48:01 GMT-0600 (Central Standard Time),703402.7999999998,A,book,O,k,94,1,1382.4000000003725,702020.3999999994,7049,WL,A,12.0
5,34.123000144958496,learn,60000.0,Mon Feb 17 2025 17:48:01 GMT-0600 (Central Standard Time),705052.5999999996,A,bookenter,O,enter,1635,1,3032.2000000001863,702020.3999999994,7049,WL,A,12.0
5,35.706000089645386,learn,60000.0,Mon Feb 17 2025 17:48:01 GMT-0600 (Central Standard Time),706635.2999999998,A,m,O,m,1577,1,1582.4000000003725,705052.8999999994,7049,WL,A,13.0
5,35.84000015258789,learn,60000.0,Mon Feb 17 2025 17:48:01 GMT-0600 (Central Standard Time),706768.8999999994,A,me,O,e,122,1,1716.0,705052.8999999994,7049,WL,A,13.0
5,36.039000034332275,learn,60000.0,Mon Feb 17 2025 17:48:01 GMT-0600 (Central Standard Time),706968.3999999994,A,mea,O,a,189,1,1915.5,705052.8999999994,7049,WL,A,13.0
5,36.88900017738342,learn,60000.0,Mon Feb 17 2025 17:48:01 GMT-0600 (Central Standard Time),707818.5999999996,A,me,O,backspace,837,1,2765.7000000001863,705052.8999999994,7049,WL,A,13.0
5,37.00600004196167,learn,60000.0,Mon Feb 17 2025 17:48:01 GMT-0600 (Central Standard Time),707935.0,A,m,O,backspace,107,1,2882.100000000559,705052.8999999994,7049,WL,A,13.0
5,37.13900017738342,learn,60000.0,Mon Feb 17 2025 17:48:01 GMT-0600 (Central Standard Time),708068.2999999998,A,,O,backspace,118,1,3015.4000000003725,705052.8999999994,7049,WL,A,13.0
5,37.25500011444092,learn,60000.0,Mon Feb 17 2025 17:48:01 GMT-0600 (Central Standard Time),708184.7999999998,A,,O,backspace,105,1,3131.9000000003725,705052.8999999994,7049,WL,A,13.0
5,37.540000200271606,learn,60000.0,Mon Feb 17 2025 17:48:01 GMT-0600 (Central Standard Time),708469.3999999994,A,f,O,f,277,1,3416.5,705052.8999999994,7049,WL,A,13.0
5,37.73900008201599,learn,60000.0,Mon Feb 17 2025 17:48:01 GMT-0600 (Central Standard Time),708668.1999999993,A,fl,O,l,192,1,3615.2999999998137,705052.8999999994,7049,WL,A,13.0
5,37.88900017738342,learn,60000.0,Mon Feb 17 2025 17:48:01 GMT-0600 (Central Standard Time),708818.0999999996,A,flo,O,o,129,1,3765.2000000001863,705052.8999999994,7049,WL,A,13.0
5,37.97200012207031,learn,60000.0,Mon Feb 17 2025 17:48:01 GMT-0600 (Central Standard Time),708901.3999999994,A,flow,O,w,75,1,3848.5,705052.8999999994,7049,WL,A,13.0
5,38.15500020980835,learn,60000.0,Mon Feb 17 2025 17:48:01 GMT-0600 (Central Standard Time),709084.7999999998,A,flowe,O,e,168,1,4031.9000000003725,705052.8999999994,7049,WL,A,13.0
5,38.32300019264221,learn,60000.0,Mon Feb 17 2025 17:48:01 GMT-0600 (Central Standard Time),709251.8999999994,A,flower,O,r,153,1,4199.0,705052.8999999994,7049,WL,A,13.0
5,39.682000160217285,learn,60000.0,Mon Feb 17 2025 17:48:01 GMT-0600 (Central Standard Time),710611.3999999994,A,flowerenter,O,enter,1354,1,5558.5,705052.8999999994,7049,WL,A,13.0
5,41.62100005149841,learn,60000.0,Mon Feb 17 2025 17:48:01 GMT-0600 (Central Standard Time),712550.1999999993,A,r,O,r,1930,1,1938.5,710611.6999999993,7049,WL,A,14.0
5,41.72100019454956,learn,60000.0,Mon Feb 17 2025 17:48:01 GMT-0600 (Central Standard Time),712650.1999999993,A,ru,O,u,79,1,2038.5,710611.6999999993,7049,WL,A,14.0
5,41.837000131607056,learn,60000.0,Mon Feb 17 2025 17:48:01 GMT-0600 (Central Standard Time),712766.7999999998,A,rug,O,g,99,1,2155.100000000559,710611.6999999993,7049,WL,A,14.0
5,42.80400013923645,learn,60000.0,Mon Feb 17 2025 17:48:01 GMT-0600 (Central Standard Time),713733.1999999993,A,rugenter,O,enter,959,1,3121.5,710611.6999999993,7049,WL,A,14.0
5,55.217000007629395,learn,60000.0,Mon Feb 17 2025 17:48:01 GMT-0600 (Central Standard Time),726146.0999999996,A,m,O,m,12408,1,12412.599999999627,713733.5,7049,WL,A,15.0
5,55.283000230789185,learn,60000.0,Mon Feb 17 2025 17:48:01 GMT-0600 (Central Standard Time),726212.5,A,me,O,e,59,1,12479.0,713733.5,7049,WL,A,15.0
5,55.51600003242493,learn,60000.0,Mon Feb 17 2025 17:48:01 GMT-0600 (Central Standard Time),726445.8999999994,A,mea,O,a,217,1,12712.399999999441,713733.5,7049,WL,A,15.0
5,55.71600008010864,learn,60000.0,Mon Feb 17 2025 17:48:01 GMT-0600 (Central Standard Time),726645.7999999998,A,mead,O,d,192,1,12912.299999999814,713733.5,7049,WL,A,15.0
5,55.866000175476074,learn,60000.0,Mon Feb 17 2025 17:48:01 GMT-0600 (Central Standard Time),726795.8999999994,A,meado,O,o,136,1,13062.399999999441,713733.5,7049,WL,A,15.0
5,55.91600012779236,learn,60000.0,Mon Feb 17 2025 17:48:01 GMT-0600 (Central Standard Time),726846.0,A,meadow,O,w,41,1,13112.5,713733.5,7049,WL,A,15.0
5,56.16600012779236,learn,60000.0,Mon Feb 17 2025 17:48:01 GMT-0600 (Central Standard Time),727095.6999999993,A,meadowenter,O,enter,232,1,13362.199999999255,713733.5,7049,WL,A,15.0
6,1.5989999771118164,distr,58401.00002288818,Mon Feb 17 2025 17:48:01 GMT-0600 (Central Standard Time),811219.0999999996,B,b,O,b,1594,1,1599.5,809619.5999999996,7049,WL,A,1.0
6,1.749000072479248,distr,58250.99992752075,Mon Feb 17 2025 17:48:01 GMT-0600 (Central Standard Time),811369.1999999993,B,bo,O,o,129,1,1749.5999999996275,809619.5999999996,7049,WL,A,1.0
6,2.0320000648498535,distr,57967.99993515015,Mon Feb 17 2025 17:48:01 GMT-0600 (Central Standard Time),811652.0999999996,B,bow,O,w,267,1,2032.5,809619.5999999996,7049,WL,A,1.0
6,2.131999969482422,distr,57868.00003051758,Mon Feb 17 2025 17:48:01 GMT-0600 (Central Standard Time),811752.1999999993,B,bowl,O,l,89,1,2132.5999999996275,809619.5999999996,7049,WL,A,1.0
6,2.949000120162964,distr,57050.999879837036,Mon Feb 17 2025 17:48:01 GMT-0600 (Central Standard Time),812568.5,B,bowlenter,O,enter,804,1,2948.9000000003725,809619.5999999996,7049,WL,A,1.0
6,3.265000104904175,distr,56734.999895095825,Mon Feb 17 2025 17:48:01 GMT-0600 (Central Standard Time),812885.1999999993,B,p,O,p,309,1,316.3999999994412,812568.7999999998,7049,WL,A,2.0
6,3.449000120162964,distr,56550.999879837036,Mon Feb 17 2025 17:48:01 GMT-0600 (Central Standard Time),813068.5,B,pl,O,l,167,1,499.70000000018626,812568.7999999998,7049,WL,A,2.0
6,3.5320000648498535,distr,56467.99993515015,Mon Feb 17 2025 17:48:01 GMT-0600 (Central Standard Time),813151.7999999998,B,pla,O,a,65,1,583.0,812568.7999999998,7049,WL,A,2.0
6,3.7990000247955322,distr,56200.99997520447,Mon Feb 17 2025 17:48:01 GMT-0600 (Central Standard Time),813418.5,B,plan,O,n,252,1,849.7000000001863,812568.7999999998,7049,WL,A,2.0
6,3.9820001125335693,distr,56017.99988746643,Mon Feb 17 2025 17:48:01 GMT-0600 (Central Standard Time),813601.7999999998,B,plane,O,e,179,1,1033.0,812568.7999999998,7049,WL,A,2.0
6,4.914999961853027,distr,55085.00003814697,Mon Feb 17 2025 17:48:01 GMT-0600 (Central Standard Time),814534.6999999993,B,planeenter,O,enter,924,1,1965.8999999994412,812568.7999999998,7049,WL,A,2.0
6,5.315000057220459,distr,54684.99994277954,Mon Feb 17 2025 17:48:01 GMT-0600 (Central Standard Time),814934.3999999994,B,j,O,j,390,1,399.5,814534.8999999994,7049,WL,A,3.0
6,5.498000144958496,distr,54501.999855041504,Mon Feb 17 2025 17:48:01 GMT-0600 (Central Standard Time),815117.6999999993,B,ju,O,u,166,1,582.7999999998137,814534.8999999994,7049,WL,A,3.0
6,5.615000009536743,distr,54384.99999046326,Mon Feb 17 2025 17:48:01 GMT-0600 (Central Standard Time),815234.3999999994,B,jud,O,d,96,1,699.5,814534.8999999994,7049,WL,A,3.0
6,5.697999954223633,distr,54302.00004577637,Mon Feb 17 2025 17:48:01 GMT-0600 (Central Standard Time),815318.0999999996,B,judg,O,g,75,1,783.2000000001863,814534.8999999994,7049,WL,A,3.0
6,5.815000057220459,distr,54184.99994277954,Mon Feb 17 2025 17:48:01 GMT-0600 (Central Standard Time),815434.5,B,judge,O,e,95,1,899.6000000005588,814534.8999999994,7049,WL,A,3.0
6,6.615000009536743,distr,53384.99999046326,Mon Feb 17 2025 17:48:01 GMT-0600 (Central Standard Time),816234.5,B,judgeenter,O,enter,779,1,1699.6000000005588,814534.8999999994,7049,WL,A,3.0
6,6.88100004196167,distr,53118.99995803833,Mon Feb 17 2025 17:48:01 GMT-0600 (Central Standard Time),816501.0,B,c,O,c,250,1,266.20000000018626,816234.7999999998,7049,WL,A,4.0
6,6.998000144958496,distr,53001.999855041504,Mon Feb 17 2025 17:48:01 GMT-0600 (Central Standard Time),816617.6999999993,B,co,O,o,96,1,382.8999999994412,816234.7999999998,7049,WL,A,4.0
6,7.13100004196167,distr,52868.99995803833,Mon Feb 17 2025 17:48:01 GMT-0600 (Central Standard Time),816751.0999999996,B,coa,O,a,116,1,516.2999999998137,816234.7999999998,7049,WL,A,4.0
6,7.281000137329102,distr,52718.9998626709,Mon Feb 17 2025 17:48:01 GMT-0600 (Central Standard Time),816900.8999999994,B,coat,O,t,134,1,666.0999999996275,816234.7999999998,7049,WL,A,4.0
6,8.21399998664856,distr,51786.00001335144,Mon Feb 17 2025 17:48:01 GMT-0600 (Central Standard Time),817833.7999999998,B,coatenter,O,enter,913,1,1599.0,816234.7999999998,7049,WL,A,4.0
6,8.44700002670288,distr,51552.99997329712,Mon Feb 17 2025 17:48:01 GMT-0600 (Central Standard Time),818067.0999999996,B,b,O,b,219,1,233.0,817834.0999999996,7049,WL,A,5.0
6,8.597000122070312,distr,51402.99987792969,Mon Feb 17 2025 17:48:01 GMT-0600 (Central Standard Time),818217.1999999993,B,bo,O,o,138,1,383.09999999962747,817834.0999999996,7049,WL,A,5.0
6,8.746999979019165,distr,51253.000020980835,Mon Feb 17 2025 17:48:01 GMT-0600 (Central Standard Time),818367.1999999993,B,bot,O,t,140,1,533.0999999996275,817834.0999999996,7049,WL,A,5.0
6,8.914000034332275,distr,51085.999965667725,Mon Feb 17 2025 17:48:01 GMT-0600 (Central Standard Time),818533.8999999994,B,bott,O,t,150,1,699.7999999998137,817834.0999999996,7049,WL,A,5.0
6,9.014000177383423,distr,50985.99982261658,Mon Feb 17 2025 17:48:01 GMT-0600 (Central Standard Time),818633.6999999993,B,bottl,O,l,80,1,799.5999999996275,817834.0999999996,7049,WL,A,5.0
6,9.114000082015991,distr,50885.99991798401,Mon Feb 17 2025 17:48:01 GMT-0600 (Central Standard Time),818733.6999999993,B,bottle,O,e,92,1,899.5999999996275,817834.0999999996,7049,WL,A,5.0
6,10.77999997138977,distr,49220.00002861023,Mon Feb 17 2025 17:48:01 GMT-0600 (Central Standard Time),820400.0999999996,B,bottleenter,O,enter,1648,1,2566.0,817834.0999999996,7049,WL,A,5.0
6,11.430000066757202,distr,48569.9999332428,Mon Feb 17 2025 17:48:01 GMT-0600 (Central Standard Time),821049.6999999993,B,j,O,j,638,1,649.3999999994412,820400.2999999998,7049,WL,A,6.0
6,11.496999979019165,distr,48503.000020980835,Mon Feb 17 2025 17:48:01 GMT-0600 (Central Standard Time),821116.5999999996,B,ju,O,u,60,1,716.2999999998137,820400.2999999998,7049,WL,A,6.0
6,11.61300015449524,distr,48386.99984550476,Mon Feb 17 2025 17:48:01 GMT-0600 (Central Standard Time),821232.8999999994,B,jud,O,d,97,1,832.5999999996275,820400.2999999998,7049,WL,A,6.0
6,11.730000019073486,distr,48269.999980926514,Mon Feb 17 2025 17:48:01 GMT-0600 (Central Standard Time),821349.5,B,judg,O,g,109,1,949.2000000001863,820400.2999999998,7049,WL,A,6.0
6,11.812999963760376,distr,48187.000036239624,Mon Feb 17 2025 17:48:01 GMT-0600 (Central Standard Time),821432.8999999994,B,judge,O,e,72,1,1032.5999999996275,820400.2999999998,7049,WL,A,6.0
6,14.345999956130981,distr,45654.00004386902,Mon Feb 17 2025 17:48:01 GMT-0600 (Central Standard Time),823965.2999999998,B,judgeenter,O,enter,2517,1,3565.0,820400.2999999998,7049,WL,A,6.0
6,16.545000076293945,distr,43454.999923706055,Mon Feb 17 2025 17:48:01 GMT-0600 (Central Standard Time),826164.6999999993,B,c,O,c,2192,1,2199.0999999996275,823965.5999999996,7049,WL,A,7.0
6,16.761000156402588,distr,43238.99984359741,Mon Feb 17 2025 17:48:01 GMT-0600 (Central Standard Time),826381.0999999996,B,ch,O,h,201,1,2415.5,823965.5999999996,7049,WL,A,7.0
6,16.861000061035156,distr,43138.999938964844,Mon Feb 17 2025 17:48:01 GMT-0600 (Central Standard Time),826481.1999999993,B,cha,O,a,89,1,2515.5999999996275,823965.5999999996,7049,WL,A,7.0
6,16.960999965667725,distr,43039.000034332275,Mon Feb 17 2025 17:48:01 GMT-0600 (Central Standard Time),826581.0999999996,B,chai,O,i,84,1,2615.5,823965.5999999996,7049,WL,A,7.0
6,17.128000020980835,distr,42871.999979019165,Mon Feb 17 2025 17:48:01 GMT-0600 (Central Standard Time),826747.6999999993,B,chair,O,r,160,1,2782.0999999996275,823965.5999999996,7049,WL,A,7.0
6,18.75600004196167,distr,41243.99995803833,Mon Feb 17 2025 17:48:01 GMT-0600 (Central Standard Time),828375.7999999998,B,chairenter,O,enter,1607,1,4410.200000000186,823965.5999999996,7049,WL,A,7.0
6,21.210000038146973,distr,38789.99996185303,Mon Feb 17 2025 17:48:01 GMT-0600 (Central Standard Time),830829.7999999998,B,s,O,s,2445,1,2453.7999999998137,828376.0,7049,WL,A,8.0
6,21.460000038146973,distr,38539.99996185303,Mon Feb 17 2025 17:48:01 GMT-0600 (Central Standard Time),831079.7999999998,B,se,O,e,232,1,2703.7999999998137,828376.0,7049,WL,A,8.0
6,21.610000133514404,distr,38389.999866485596,Mon Feb 17 2025 17:48:01 GMT-0600 (Central Standard Time),831229.6999999993,B,see,O,e,134,1,2853.699999999255,828376.0,7049,WL,A,8.0
6,21.776000022888184,distr,38223.99997711182,Mon Feb 17 2025 17:48:01 GMT-0600 (Central Standard Time),831396.1999999993,B,seed,O,d,160,1,3020.199999999255,828376.0,7049,WL,A,8.0
6,22.759999990463257,distr,37240.00000953674,Mon Feb 17 2025 17:48:01 GMT-0600 (Central Standard Time),832379.2999999998,B,seedenter,O,enter,969,1,4003.2999999998137,828376.0,7049,WL,A,8.0
6,26.04100012779236,distr,33958.99987220764,Mon Feb 17 2025 17:48:01 GMT-0600 (Central Standard Time),835662.0,B,enter,O,enter,3274,1,3282.5,832379.5,7049,WL,A,9.0
6,27.473999977111816,distr,32526.000022888184,Mon Feb 17 2025 17:48:01 GMT-0600 (Central Standard Time),837094.5,B,enter,O,enter,1423,1,1431.9000000003725,835662.5999999996,7049,WL,A,10.0
6,28.140000104904175,distr,31859.999895095825,Mon Feb 17 2025 17:48:01 GMT-0600 (Central Standard Time),837760.8999999994,B,enter,O,enter,655,1,666.0,837094.8999999994,7049,WL,A,11.0
6,28.657000064849854,distr,31342.999935150146,Mon Feb 17 2025 17:48:01 GMT-0600 (Central Standard Time),838277.5,B,enter,O,enter,509,1,516.1000000005588,837761.3999999994,7049,WL,A,12.0
6,29.822999954223633,distr,30177.000045776367,Mon Feb 17 2025 17:48:01 GMT-0600 (Central Standard Time),839443.8999999994,B,enter,O,enter,1152,1,1165.8999999994412,838278.0,7049,WL,A,13.0
6,30.439000129699707,distr,29560.999870300293,Mon Feb 17 2025 17:48:01 GMT-0600 (Central Standard Time),840060.1999999993,B,enter,O,enter,602,1,615.8999999994412,839444.2999999998,7049,WL,A,14.0
6,31.222000122070312,distr,28777.999877929688,Mon Feb 17 2025 17:48:01 GMT-0600 (Central Standard Time),840843.0999999996,B,enter,O,enter,777,1,782.5999999996275,840060.5,7049,WL,A,15.0
7,1.1499998569488525,immed,58850.00014305115,Mon Feb 17 2025 17:48:01 GMT-0600 (Central Standard Time),858587.7999999998,A,b,O,b,1136,1,1149.5,857438.2999999998,7049,WL,A,1.0
7,1.316999912261963,immed,58683.00008773804,Mon Feb 17 2025 17:48:01 GMT-0600 (Central Standard Time),858754.5,A,bo,O,o,161,1,1316.2000000001863,857438.2999999998,7049,WL,A,1.0
7,1.4829998016357422,immed,58517.00019836426,Mon Feb 17 2025 17:48:01 GMT-0600 (Central Standard Time),858920.8999999994,A,boo,O,o,147,1,1482.5999999996275,857438.2999999998,7049,WL,A,1.0
7,1.6159999370574951,immed,58384.000062942505,Mon Feb 17 2025 17:48:01 GMT-0600 (Central Standard Time),859054.2999999998,A,book,O,k,124,1,1616.0,857438.2999999998,7049,WL,A,1.0
7,2.482999801635742,immed,57517.00019836426,Mon Feb 17 2025 17:48:01 GMT-0600 (Central Standard Time),859920.5999999996,A,bookenter,O,enter,847,1,2482.2999999998137,857438.2999999998,7049,WL,A,1.0
7,2.9159998893737793,immed,57084.00011062622,Mon Feb 17 2025 17:48:01 GMT-0600 (Central Standard Time),860354.0,A,f,O,f,413,1,433.1000000005588,859920.8999999994,7049,WL,A,2.0
7,3.0329999923706055,immed,56967.000007629395,Mon Feb 17 2025 17:48:01 GMT-0600 (Central Standard Time),860470.7999999998,A,fl,O,l,99,1,549.9000000003725,859920.8999999994,7049,WL,A,2.0
7,3.182999849319458,immed,56817.00015068054,Mon Feb 17 2025 17:48:01 GMT-0600 (Central Standard Time),860620.5,A,flo,O,o,143,1,699.6000000005588,859920.8999999994,7049,WL,A,2.0
7,3.2829999923706055,immed,56717.000007629395,Mon Feb 17 2025 17:48:01 GMT-0600 (Central Standard Time),860720.6999999993,A,flow,O,w,89,1,799.7999999998137,859920.8999999994,7049,WL,A,2.0
7,3.4659998416900635,immed,56534.00015830994,Mon Feb 17 2025 17:48:01 GMT-0600 (Central Standard Time),860903.7999999998,A,flowe,O,e,165,1,982.9000000003725,859920.8999999994,7049,WL,A,2.0
7,3.632999897003174,immed,56367.000102996826,Mon Feb 17 2025 17:48:01 GMT-0600 (Central Standard Time),861070.5999999996,A,flower,O,r,149,1,1149.7000000001863,859920.8999999994,7049,WL,A,2.0
7,4.348999977111816,immed,55651.00002288818,Mon Feb 17 2025 17:48:01 GMT-0600 (Central Standard Time),861786.5,A,flowerenter,O,enter,711,1,1865.6000000005588,859920.8999999994,7049,WL,A,2.0
7,4.582000017166138,immed,55417.99998283386,Mon Feb 17 2025 17:48:01 GMT-0600 (Central Standard Time),862020.0999999996,A,r,O,r,219,1,233.29999999981374,861786.7999999998,7049,WL,A,3.0
7,5.06499981880188,immed,54935.00018119812,Mon Feb 17 2025 17:48:01 GMT-0600 (Central Standard Time),862503.1999999993,A,,O,backspace,473,1,716.3999999994412,861786.7999999998,7049,WL,A,3.0
7,5.181999921798706,immed,54818.000078201294,Mon Feb 17 2025 17:48:01 GMT-0600 (Central Standard Time),862620.0,A,t,O,t,103,1,833.2000000001863,861786.7999999998,7049,WL,A,3.0
7,5.332000017166138,immed,54667.99998283386,Mon Feb 17 2025 17:48:01 GMT-0600 (Central Standard Time),862769.8999999994,A,tr,O,r,137,1,983.0999999996275,861786.7999999998,7049,WL,A,3.0
7,5.549000024795532,immed,54450.99997520447,Mon Feb 17 2025 17:48:01 GMT-0600 (Central Standard Time),862986.5999999996,A,tra,O,a,195,1,1199.7999999998137,861786.7999999998,7049,WL,A,3.0
7,5.631999969482422,immed,54368.00003051758,Mon Feb 17 2025 17:48:01 GMT-0600 (Central Standard Time),863069.5999999996,A,trai,O,i,66,1,1282.7999999998137,861786.7999999998,7049,WL,A,3.0
7,5.681999921798706,immed,54318.000078201294,Mon Feb 17 2025 17:48:01 GMT-0600 (Central Standard Time),863119.6999999993,A,train,O,n,40,1,1332.8999999994412,861786.7999999998,7049,WL,A,3.0
7,6.447999954223633,immed,53552.00004577637,Mon Feb 17 2025 17:48:01 GMT-0600 (Central Standard Time),863886.0999999996,A,trainenter,O,enter,750,1,2099.2999999998137,861786.7999999998,7049,WL,A,3.0
7,6.81499981880188,immed,53185.00018119812,Mon Feb 17 2025 17:48:01 GMT-0600 (Central Standard Time),864252.6999999993,A,r,O,r,351,1,366.29999999981374,863886.3999999994,7049,WL,A,4.0
7,7.247999906539917,immed,52752.00009346008,Mon Feb 17 2025 17:48:01 GMT-0600 (Central Standard Time),864686.0999999996,A,ru,O,u,425,1,799.7000000001863,863886.3999999994,7049,WL,A,4.0
7,7.347999811172485,immed,52652.000188827515,Mon Feb 17 2025 17:48:01 GMT-0600 (Central Standard Time),864786.0999999996,A,rug,O,g,95,1,899.7000000001863,863886.3999999994,7049,WL,A,4.0
7,7.913999795913696,immed,52086.000204086304,Mon Feb 17 2025 17:48:01 GMT-0600 (Central Standard Time),865352.2999999998,A,rugenter,O,enter,547,1,1465.9000000003725,863886.3999999994,7049,WL,A,4.0
7,8.563999891281128,immed,51436.00010871887,Mon Feb 17 2025 17:48:01 GMT-0600 (Central Standard Time),866002.0,A,m,O,m,637,1,649.4000000003725,865352.5999999996,7049,WL,A,5.0
7,8.648000001907349,immed,51351.99999809265,Mon Feb 17 2025 17:48:01 GMT-0600 (Central Standard Time),866085.3999999994,A,me,O,e,75,1,732.7999999998137,865352.5999999996,7049,WL,A,5.0
7,8.863999843597412,immed,51136.00015640259,Mon Feb 17 2025 17:48:01 GMT-0600 (Central Standard Time),866302.3999999994,A,mea,O,a,200,1,949.7999999998137,865352.5999999996,7049,WL,A,5.0
7,9.047999858856201,immed,50952.0001411438,Mon Feb 17 2025 17:48:01 GMT-0600 (Central Standard Time),866485.5999999996,A,mead,O,d,167,1,1133.0,865352.5999999996,7049,WL,A,5.0
7,9.146999835968018,immed,50853.00016403198,Mon Feb 17 2025 17:48:01 GMT-0600 (Central Standard Time),866585.2999999998,A,meado,O,o,80,1,1232.7000000001863,865352.5999999996,7049,WL,A,5.0
7,9.263999938964844,immed,50736.000061035156,Mon Feb 17 2025 17:48:01 GMT-0600 (Central Standard Time),866702.0999999996,A,meadow,O,w,100,1,1349.5,865352.5999999996,7049,WL,A,5.0
7,10.246999979019165,immed,49753.000020980835,Mon Feb 17 2025 17:48:01 GMT-0600 (Central Standard Time),867684.8999999994,A,meadowenter,O,enter,968,1,2332.2999999998137,865352.5999999996,7049,WL,A,5.0
7,11.096999883651733,immed,48903.00011634827,Mon Feb 17 2025 17:48:01 GMT-0600 (Central Standard Time),868534.8999999994,A,s,O,s,832,1,849.7000000001863,867685.1999999993,7049,WL,A,6.0
7,11.263000011444092,immed,48736.99998855591,Mon Feb 17 2025 17:48:01 GMT-0600 (Central Standard Time),868701.1999999993,A,sa,O,a,151,1,1016.0,867685.1999999993,7049,WL,A,6.0
7,11.329999923706055,immed,48670.000076293945,Mon Feb 17 2025 17:48:01 GMT-0600 (Central Standard Time),868767.7999999998,A,sal,O,l,56,1,1082.6000000005588,867685.1999999993,7049,WL,A,6.0
7,11.513000011444092,immed,48486.99998855591,Mon Feb 17 2025 17:48:01 GMT-0600 (Central Standard Time),868951.1999999993,A,salt,O,t,174,1,1266.0,867685.1999999993,7049,WL,A,6.0
7,12.263000011444092,immed,47736.99998855591,Mon Feb 17 2025 17:48:01 GMT-0600 (Central Standard Time),869700.8999999994,A,saltenter,O,enter,734,1,2015.7000000001863,867685.1999999993,7049,WL,A,6.0
7,12.579999923706055,immed,47420.000076293945,Mon Feb 17 2025 17:48:01 GMT-0600 (Central Standard Time),870017.5,A,g,O,g,305,1,316.30000000074506,869701.1999999993,7049,WL,A,7.0
7,12.679999828338623,immed,47320.00017166138,Mon Feb 17 2025 17:48:01 GMT-0600 (Central Standard Time),870117.5999999996,A,go,O,o,84,1,416.40000000037253,869701.1999999993,7049,WL,A,7.0
7,12.845999956130981,immed,47154.00004386902,Mon Feb 17 2025 17:48:01 GMT-0600 (Central Standard Time),870284.0,A,gol,O,l,152,1,582.8000000007451,869701.1999999993,7049,WL,A,7.0
7,12.94599986076355,immed,47054.00013923645,Mon Feb 17 2025 17:48:01 GMT-0600 (Central Standard Time),870384.3999999994,A,gold,O,d,90,1,683.2000000001863,869701.1999999993,7049,WL,A,7.0
7,14.51199984550476,immed,45488.00015449524,Mon Feb 17 2025 17:48:01 GMT-0600 (Central Standard Time),871950.1999999993,A,goldenter,O,enter,1557,1,2249.0,869701.1999999993,7049,WL,A,7.0
7,16.777999877929688,immed,43222.00012207031,Mon Feb 17 2025 17:48:01 GMT-0600 (Central Standard Time),874216.1999999993,A,m,O,m,2247,1,2265.699999999255,871950.5,7049,WL,A,8.0
7,16.82799983024597,immed,43172.00016975403,Mon Feb 17 2025 17:48:01 GMT-0600 (Central Standard Time),874266.2999999998,A,me,O,e,45,1,2315.7999999998137,871950.5,7049,WL,A,8.0
7,17.02899980545044,immed,42971.00019454956,Mon Feb 17 2025 17:48:01 GMT-0600 (Central Standard Time),874466.5999999996,A,mea,O,a,179,1,2516.0999999996275,871950.5,7049,WL,A,8.0
7,17.17799997329712,immed,42822.00002670288,Mon Feb 17 2025 17:48:01 GMT-0600 (Central Standard Time),874616.0,A,mead,O,d,131,1,2665.5,871950.5,7049,WL,A,8.0
7,17.26099991798401,immed,42739.00008201599,Mon Feb 17 2025 17:48:01 GMT-0600 (Central Standard Time),874699.2999999998,A,meado,O,o,70,1,2748.7999999998137,871950.5,7049,WL,A,8.0
7,17.378000020980835,immed,42621.999979019165,Mon Feb 17 2025 17:48:01 GMT-0600 (Central Standard Time),874816.0,A,meadow,O,w,106,1,2865.5,871950.5,7049,WL,A,8.0
7,17.888999938964844,immed,42111.000061035156,Mon Feb 17 2025 17:48:01 GMT-0600 (Central Standard Time),875326.5999999996,A,meadowenter,O,enter,506,1,3376.0999999996275,871950.5,7049,WL,A,8.0
7,18.0939998626709,immed,41906.0001373291,Mon Feb 17 2025 17:48:01 GMT-0600 (Central Standard Time),875532.1999999993,A,t,O,t,191,1,205.29999999981374,875326.8999999994,7049,WL,A,9.0
7,18.293999910354614,immed,41706.000089645386,Mon Feb 17 2025 17:48:01 GMT-0600 (Central Standard Time),875732.2999999998,A,tr,O,r,193,1,405.40000000037253,875326.8999999994,7049,WL,A,9.0
7,18.544999837875366,immed,41455.000162124634,Mon Feb 17 2025 17:48:01 GMT-0600 (Central Standard Time),875983.1999999993,A,tra,O,a,233,1,656.2999999998137,875326.8999999994,7049,WL,A,9.0
7,19.32699990272522,immed,40673.00009727478,Mon Feb 17 2025 17:48:01 GMT-0600 (Central Standard Time),876765.2999999998,A,tr,O,backspace,766,1,1438.4000000003725,875326.8999999994,7049,WL,A,9.0
7,19.47699999809265,immed,40523.00000190735,Mon Feb 17 2025 17:48:01 GMT-0600 (Central Standard Time),876915.2999999998,A,t,O,backspace,136,1,1588.4000000003725,875326.8999999994,7049,WL,A,9.0
7,19.626999855041504,immed,40373.000144958496,Mon Feb 17 2025 17:48:01 GMT-0600 (Central Standard Time),877065.2999999998,A,,O,backspace,138,1,1738.4000000003725,875326.8999999994,7049,WL,A,9.0
7,19.82799983024597,immed,40172.00016975403,Mon Feb 17 2025 17:48:01 GMT-0600 (Central Standard Time),877265.5,A,,O,backspace,180,1,1938.6000000005588,875326.8999999994,7049,WL,A,9.0
7,20.30999994277954,immed,39690.00005722046,Mon Feb 17 2025 17:48:01 GMT-0600 (Central Standard Time),877748.3999999994,A,h,O,h,468,1,2421.5,875326.8999999994,7049,WL,A,9.0
7,20.393999814987183,immed,39606.00018501282,Mon Feb 17 2025 17:48:01 GMT-0600 (Central Standard Time),877831.8999999994,A,ha,O,a,73,1,2505.0,875326.8999999994,7049,WL,A,9.0
