acc_sum,block,block_c,block_cond,con_img,correct,correct_response,datetime,endtime,face,jitter,line,project,response,response_time,row_sel,session_number,start_end,starttime,subject_id,task,task_vers,trial
1,prac,1,A,haborder.png,1,m,Wed Feb 26 2025 10:47:08 GMT-0600 (Central Standard Time),67223.19999998808,CFD-WF-011-006-HC.jpg,1500,solid,O,m,1126,11,1,3415.7999999821186,63807.40000000596,7068,ATS,B,1
2,prac,1,A,haborder.png,1,m,Wed Feb 26 2025 10:47:08 GMT-0600 (Central Standard Time),70155.69999998808,CFD-WM-011-006-HC.jpg,1400,solid,O,m,738,7,1,6348.299999982119,63807.40000000596,7068,ATS,B,2
3,prac,1,A,haborder.png,1,m,Wed Feb 26 2025 10:47:08 GMT-0600 (Central Standard Time),73804.40000000596,CFD-WM-012-007-HC.jpg,1700,solid,O,m,1162,9,1,9997.0,63807.40000000596,7068,ATS,B,3
4,prac,1,A,haborder.png,1,m,Wed Feb 26 2025 10:47:08 GMT-0600 (Central Standard Time),77036.40000000596,CFD-BM-015-017-HC.jpg,1700,solid,O,m,744,1,1,13229.0,63807.40000000596,7068,ATS,B,4
5,prac,1,A,haborder.png,1,z,Wed Feb 26 2025 10:47:08 GMT-0600 (Central Standard Time),80385.79999998212,CFD-WF-026-008-A.jpg,1600,solid,O,z,965,10,1,16578.399999976158,63807.40000000596,7068,ATS,B,5
6,prac,1,A,haborder.png,1,z,Wed Feb 26 2025 10:47:08 GMT-0600 (Central Standard Time),83934.59999999404,CFD-BM-037-041-A.jpg,1600,solid,O,z,1159,2,1,20127.19999998808,63807.40000000596,7068,ATS,B,6
7,prac,1,A,haborder.png,1,z,Wed Feb 26 2025 10:47:08 GMT-0600 (Central Standard Time),86933.79999998212,CFD-BF-050-012-A.jpg,1200,solid,O,z,1011,6,1,23126.399999976158,63807.40000000596,7068,ATS,B,7
8,prac,1,A,haborder.png,1,z,Wed Feb 26 2025 10:47:08 GMT-0600 (Central Standard Time),89416.19999998808,CFD-BF-051-043-A.jpg,1000,solid,O,z,699,4,1,25608.79999998212,63807.40000000596,7068,ATS,B,8
9,prac,1,A,haborder.png,1,z,Wed Feb 26 2025 10:47:08 GMT-0600 (Central Standard Time),92915.09999999404,CFD-WM-009-009-A.jpg,1900,solid,O,z,813,8,1,29107.69999998808,63807.40000000596,7068,ATS,B,9
10,prac,1,A,haborder.png,1,m,Wed Feb 26 2025 10:47:08 GMT-0600 (Central Standard Time),96314.19999998808,CFD-BM-020-024-HC.jpg,1500,solid,O,m,1106,3,1,32506.79999998212,63807.40000000596,7068,ATS,B,10
11,prac,1,A,haborder.png,1,m,Wed Feb 26 2025 10:47:08 GMT-0600 (Central Standard Time),99896.29999998212,CFD-BF-035-007-HC.jpg,2000,solid,O,m,791,5,1,36088.89999997616,63807.40000000596,7068,ATS,B,11
12,prac,1,A,haborder.png,1,z,Wed Feb 26 2025 10:47:08 GMT-0600 (Central Standard Time),102428.79999998212,CFD-WF-013-015-A.jpg,1000,solid,O,z,745,12,1,38621.39999997616,63807.40000000596,7068,ATS,B,12
1,prac,1,B,mfborder.png,1,m,Wed Feb 26 2025 10:47:08 GMT-0600 (Central Standard Time),133102.69999998808,CFD-BM-041-048-A.jpg,1600,dash,O,m,1326,2,1,3715.699999988079,129387.0,7068,ATS,B,1
2,prac,1,B,mfborder.png,1,z,Wed Feb 26 2025 10:47:08 GMT-0600 (Central Standard Time),135968.29999998212,CFD-BF-051-043-A.jpg,1000,dash,O,z,1082,4,1,6581.299999982119,129387.0,7068,ATS,B,2
3,prac,1,B,mfborder.png,1,m,Wed Feb 26 2025 10:47:08 GMT-0600 (Central Standard Time),139133.79999998212,CFD-BM-020-024-HC.jpg,1700,dash,O,m,677,1,1,9746.799999982119,129387.0,7068,ATS,B,3
4,prac,1,B,mfborder.png,1,m,Wed Feb 26 2025 10:47:08 GMT-0600 (Central Standard Time),142332.90000000596,CFD-WM-012-007-HC.jpg,1600,dash,O,m,802,10,1,12945.90000000596,129387.0,7068,ATS,B,4
5,prac,1,B,mfborder.png,1,m,Wed Feb 26 2025 10:47:08 GMT-0600 (Central Standard Time),145748.90000000596,CFD-BM-037-041-A.jpg,2000,dash,O,m,620,5,1,16361.90000000596,129387.0,7068,ATS,B,5
5,prac,1,B,mfborder.png,0,z,Wed Feb 26 2025 10:47:08 GMT-0600 (Central Standard Time),148881.19999998808,CFD-BF-035-007-HC.jpg,1400,dash,O,m,941,7,1,19494.19999998808,129387.0,7068,ATS,B,6
5,prac,1,B,mfborder.png,0,z,Wed Feb 26 2025 10:47:08 GMT-0600 (Central Standard Time),152679.69999998808,CFD-BF-027-013-HC.jpg,1500,dash,O,None,1515,3,1,23292.69999998808,129387.0,7068,ATS,B,7
6,prac,1,B,mfborder.png,1,z,Wed Feb 26 2025 10:47:08 GMT-0600 (Central Standard Time),156295.29999998212,CFD-WF-026-008-A.jpg,1500,dash,O,z,1326,11,1,26908.29999998212,129387.0,7068,ATS,B,8
7,prac,1,B,mfborder.png,1,m,Wed Feb 26 2025 10:47:08 GMT-0600 (Central Standard Time),159194.5,CFD-WM-037-060-A.jpg,1200,dash,O,m,914,6,1,29807.5,129387.0,7068,ATS,B,9
8,prac,1,B,mfborder.png,1,m,Wed Feb 26 2025 10:47:08 GMT-0600 (Central Standard Time),162426.90000000596,CFD-WM-009-009-A.jpg,1700,dash,O,m,747,9,1,33039.90000000596,129387.0,7068,ATS,B,10
9,prac,1,B,mfborder.png,1,z,Wed Feb 26 2025 10:47:08 GMT-0600 (Central Standard Time),165792.40000000596,CFD-WF-027-007-HC.jpg,1900,dash,O,z,683,8,1,36405.40000000596,129387.0,7068,ATS,B,11
10,prac,1,B,mfborder.png,1,z,Wed Feb 26 2025 10:47:08 GMT-0600 (Central Standard Time),168574.90000000596,CFD-WF-011-006-HC.jpg,1000,dash,O,z,992,12,1,39187.90000000596,129387.0,7068,ATS,B,12
1,test,1,A,haborder.png,1,z,Wed Feb 26 2025 10:47:08 GMT-0600 (Central Standard Time),195233.19999998808,CFD-BM-037-041-A.jpg,1600,solid,O,z,796,2,1,2432.699999988079,192800.5,7068,ATS,B,1
2,test,1,A,haborder.png,1,m,Wed Feb 26 2025 10:47:08 GMT-0600 (Central Standard Time),197898.69999998808,CFD-BM-015-017-HC.jpg,1700,solid,O,m,948,1,1,5098.199999988079,192800.5,7068,ATS,B,2
3,test,1,A,haborder.png,1,z,Wed Feb 26 2025 10:47:08 GMT-0600 (Central Standard Time),200248.19999998808,CFD-BM-037-041-A.jpg,1600,solid,O,z,726,2,1,7447.699999988079,192800.5,7068,ATS,B,3
4,test,1,A,haborder.png,1,m,Wed Feb 26 2025 10:47:08 GMT-0600 (Central Standard Time),202447.40000000596,CFD-WM-011-006-HC.jpg,1400,solid,O,m,769,7,1,9646.90000000596,192800.5,7068,ATS,B,4
5,test,1,A,haborder.png,1,z,Wed Feb 26 2025 10:47:08 GMT-0600 (Central Standard Time),204197.0,CFD-BF-051-043-A.jpg,1000,solid,O,z,730,4,1,11396.5,192800.5,7068,ATS,B,5
6,test,1,A,haborder.png,1,m,Wed Feb 26 2025 10:47:08 GMT-0600 (Central Standard Time),206446.29999998212,CFD-BM-020-024-HC.jpg,1500,solid,O,m,728,3,1,13645.799999982119,192800.5,7068,ATS,B,6
7,test,1,A,haborder.png,1,m,Wed Feb 26 2025 10:47:08 GMT-0600 (Central Standard Time),208662.29999998212,CFD-WF-011-006-HC.jpg,1500,solid,O,m,687,11,1,15861.799999982119,192800.5,7068,ATS,B,7
8,test,1,A,haborder.png,1,z,Wed Feb 26 2025 10:47:08 GMT-0600 (Central Standard Time),211261.59999999404,CFD-WM-009-009-A.jpg,1900,solid,O,z,679,8,1,18461.09999999404,192800.5,7068,ATS,B,8
9,test,1,A,haborder.png,1,m,Wed Feb 26 2025 10:47:08 GMT-0600 (Central Standard Time),214243.90000000596,CFD-BF-035-007-HC.jpg,2000,solid,O,m,956,5,1,21443.40000000596,192800.5,7068,ATS,B,9
10,test,1,A,haborder.png,1,m,Wed Feb 26 2025 10:47:08 GMT-0600 (Central Standard Time),216759.90000000596,CFD-WM-012-007-HC.jpg,1700,solid,O,m,786,9,1,23959.40000000596,192800.5,7068,ATS,B,10
11,test,1,A,haborder.png,1,z,Wed Feb 26 2025 10:47:08 GMT-0600 (Central Standard Time),219125.69999998808,CFD-WF-026-008-A.jpg,1600,solid,O,z,738,10,1,26325.19999998808,192800.5,7068,ATS,B,11
12,test,1,A,haborder.png,1,m,Wed Feb 26 2025 10:47:08 GMT-0600 (Central Standard Time),221858.19999998808,CFD-BF-035-007-HC.jpg,2000,solid,O,m,716,5,1,29057.69999998808,192800.5,7068,ATS,B,12
13,test,1,A,haborder.png,1,z,Wed Feb 26 2025 10:47:08 GMT-0600 (Central Standard Time),223907.59999999404,CFD-BF-050-012-A.jpg,1200,solid,O,z,831,6,1,31107.09999999404,192800.5,7068,ATS,B,13
14,test,1,A,haborder.png,1,z,Wed Feb 26 2025 10:47:08 GMT-0600 (Central Standard Time),226623.19999998808,CFD-WM-009-009-A.jpg,1900,solid,O,z,786,8,1,33822.69999998808,192800.5,7068,ATS,B,14
15,test,1,A,haborder.png,1,m,Wed Feb 26 2025 10:47:08 GMT-0600 (Central Standard Time),229208.90000000596,CFD-BM-015-017-HC.jpg,1700,solid,O,m,854,1,1,36408.40000000596,192800.5,7068,ATS,B,15
16,test,1,A,haborder.png,1,z,Wed Feb 26 2025 10:47:08 GMT-0600 (Central Standard Time),231671.79999998212,CFD-WF-026-008-A.jpg,1600,solid,O,z,843,10,1,38871.29999998212,192800.5,7068,ATS,B,16
17,test,1,A,haborder.png,1,m,Wed Feb 26 2025 10:47:08 GMT-0600 (Central Standard Time),233949.29999998212,CFD-WF-011-006-HC.jpg,1500,solid,O,m,760,11,1,41148.79999998212,192800.5,7068,ATS,B,17
18,test,1,A,haborder.png,1,m,Wed Feb 26 2025 10:47:08 GMT-0600 (Central Standard Time),236403.59999999404,CFD-WM-012-007-HC.jpg,1700,solid,O,m,740,9,1,43603.09999999404,192800.5,7068,ATS,B,18
19,test,1,A,haborder.png,1,z,Wed Feb 26 2025 10:47:08 GMT-0600 (Central Standard Time),238153.0,CFD-WF-013-015-A.jpg,1000,solid,O,z,717,12,1,45352.5,192800.5,7068,ATS,B,19
20,test,1,A,haborder.png,1,m,Wed Feb 26 2025 10:47:08 GMT-0600 (Central Standard Time),240352.40000000596,CFD-BM-020-024-HC.jpg,1500,solid,O,m,668,3,1,47551.90000000596,192800.5,7068,ATS,B,20
21,test,1,A,haborder.png,1,z,Wed Feb 26 2025 10:47:08 GMT-0600 (Central Standard Time),242301.90000000596,CFD-BF-050-012-A.jpg,1200,solid,O,z,729,6,1,49501.40000000596,192800.5,7068,ATS,B,21
21,test,1,A,haborder.png,0,z,Wed Feb 26 2025 10:47:08 GMT-0600 (Central Standard Time),244301.0,CFD-WF-013-015-A.jpg,1000,solid,O,m,979,12,1,51500.5,192800.5,7068,ATS,B,22
22,test,1,A,haborder.png,1,z,Wed Feb 26 2025 10:47:08 GMT-0600 (Central Standard Time),246066.90000000596,CFD-BF-051-043-A.jpg,1000,solid,O,z,748,4,1,53266.40000000596,192800.5,7068,ATS,B,23
23,test,1,A,haborder.png,1,m,Wed Feb 26 2025 10:47:08 GMT-0600 (Central Standard Time),248366.5,CFD-WM-011-006-HC.jpg,1400,solid,O,m,870,7,1,55566.0,192800.5,7068,ATS,B,24
1,test,1,B,mfborder.png,1,m,Wed Feb 26 2025 10:47:08 GMT-0600 (Central Standard Time),275424.7999999821,CFD-BM-041-048-A.jpg,1600,dash,O,m,947,2,1,2582.699999988079,272842.09999999404,7068,ATS,B,1
2,test,1,B,mfborder.png,1,m,Wed Feb 26 2025 10:47:08 GMT-0600 (Central Standard Time),277640.7999999821,CFD-WM-037-060-A.jpg,1200,dash,O,m,984,6,1,4798.699999988079,272842.09999999404,7068,ATS,B,2
3,test,1,B,mfborder.png,1,m,Wed Feb 26 2025 10:47:08 GMT-0600 (Central Standard Time),279989.90000000596,CFD-BM-041-048-A.jpg,1600,dash,O,m,721,2,1,7147.800000011921,272842.09999999404,7068,ATS,B,3
4,test,1,B,mfborder.png,1,m,Wed Feb 26 2025 10:47:08 GMT-0600 (Central Standard Time),282639.09999999404,CFD-BM-037-041-A.jpg,2000,dash,O,m,619,5,1,9797.0,272842.09999999404,7068,ATS,B,4
4,test,1,B,mfborder.png,0,z,Wed Feb 26 2025 10:47:08 GMT-0600 (Central Standard Time),285438.2999999821,CFD-BF-035-007-HC.jpg,1400,dash,O,m,1370,7,1,12596.199999988079,272842.09999999404,7068,ATS,B,5
5,test,1,B,mfborder.png,1,m,Wed Feb 26 2025 10:47:08 GMT-0600 (Central Standard Time),288087.40000000596,CFD-BM-037-041-A.jpg,2000,dash,O,m,619,5,1,15245.300000011921,272842.09999999404,7068,ATS,B,6
6,test,1,B,mfborder.png,1,z,Wed Feb 26 2025 10:47:08 GMT-0600 (Central Standard Time),289786.90000000596,CFD-BF-051-043-A.jpg,1000,dash,O,z,674,4,1,16944.80000001192,272842.09999999404,7068,ATS,B,7
7,test,1,B,mfborder.png,1,m,Wed Feb 26 2025 10:47:08 GMT-0600 (Central Standard Time),292169.40000000596,CFD-WM-012-007-HC.jpg,1600,dash,O,m,749,10,1,19327.30000001192,272842.09999999404,7068,ATS,B,8
8,test,1,B,mfborder.png,1,z,Wed Feb 26 2025 10:47:08 GMT-0600 (Central Standard Time),294452.09999999404,CFD-BF-027-013-HC.jpg,1500,dash,O,z,756,3,1,21610.0,272842.09999999404,7068,ATS,B,9
9,test,1,B,mfborder.png,1,m,Wed Feb 26 2025 10:47:08 GMT-0600 (Central Standard Time),296601.6999999881,CFD-WM-037-060-A.jpg,1200,dash,O,m,917,6,1,23759.59999999404,272842.09999999404,7068,ATS,B,10
9,test,1,B,mfborder.png,0,z,Wed Feb 26 2025 10:47:08 GMT-0600 (Central Standard Time),298885.1999999881,CFD-BF-035-007-HC.jpg,1400,dash,O,m,864,7,1,26043.09999999404,272842.09999999404,7068,ATS,B,11
10,test,1,B,mfborder.png,1,z,Wed Feb 26 2025 10:47:08 GMT-0600 (Central Standard Time),300517.0,CFD-WF-011-006-HC.jpg,1000,dash,O,z,613,12,1,27674.90000000596,272842.09999999404,7068,ATS,B,12
11,test,1,B,mfborder.png,1,m,Wed Feb 26 2025 10:47:08 GMT-0600 (Central Standard Time),302866.2999999821,CFD-WM-009-009-A.jpg,1700,dash,O,m,632,9,1,30024.19999998808,272842.09999999404,7068,ATS,B,13
12,test,1,B,mfborder.png,1,z,Wed Feb 26 2025 10:47:08 GMT-0600 (Central Standard Time),304590.7999999821,CFD-WF-011-006-HC.jpg,1000,dash,O,z,708,12,1,31748.69999998808,272842.09999999404,7068,ATS,B,14
12,test,1,B,mfborder.png,0,z,Wed Feb 26 2025 10:47:08 GMT-0600 (Central Standard Time),307631.59999999404,CFD-WF-026-008-A.jpg,1500,dash,O,None,1515,11,1,34789.5,272842.09999999404,7068,ATS,B,15
13,test,1,B,mfborder.png,1,z,Wed Feb 26 2025 10:47:08 GMT-0600 (Central Standard Time),310297.1999999881,CFD-WF-027-007-HC.jpg,1900,dash,O,z,742,8,1,37455.09999999404,272842.09999999404,7068,ATS,B,16
14,test,1,B,mfborder.png,1,z,Wed Feb 26 2025 10:47:08 GMT-0600 (Central Standard Time),312779.7999999821,CFD-WF-027-007-HC.jpg,1900,dash,O,z,556,8,1,39937.69999998808,272842.09999999404,7068,ATS,B,17
15,test,1,B,mfborder.png,1,m,Wed Feb 26 2025 10:47:08 GMT-0600 (Central Standard Time),315078.90000000596,CFD-BM-020-024-HC.jpg,1700,dash,O,m,577,1,1,42236.80000001192,272842.09999999404,7068,ATS,B,18
16,test,1,B,mfborder.png,1,z,Wed Feb 26 2025 10:47:08 GMT-0600 (Central Standard Time),317461.6999999881,CFD-WF-026-008-A.jpg,1500,dash,O,z,854,11,1,44619.59999999404,272842.09999999404,7068,ATS,B,19
17,test,1,B,mfborder.png,1,z,Wed Feb 26 2025 10:47:08 GMT-0600 (Central Standard Time),319944.2999999821,CFD-BF-027-013-HC.jpg,1500,dash,O,z,959,3,1,47102.19999998808,272842.09999999404,7068,ATS,B,20
18,test,1,B,mfborder.png,1,m,Wed Feb 26 2025 10:47:08 GMT-0600 (Central Standard Time),322443.40000000596,CFD-BM-020-024-HC.jpg,1700,dash,O,m,781,1,1,49601.30000001192,272842.09999999404,7068,ATS,B,21
19,test,1,B,mfborder.png,1,z,Wed Feb 26 2025 10:47:08 GMT-0600 (Central Standard Time),324492.7999999821,CFD-BF-051-043-A.jpg,1000,dash,O,z,1030,4,1,51650.69999998808,272842.09999999404,7068,ATS,B,22
20,test,1,B,mfborder.png,1,m,Wed Feb 26 2025 10:47:08 GMT-0600 (Central Standard Time),326842.1999999881,CFD-WM-009-009-A.jpg,1700,dash,O,m,632,9,1,54000.09999999404,272842.09999999404,7068,ATS,B,23
21,test,1,B,mfborder.png,1,m,Wed Feb 26 2025 10:47:08 GMT-0600 (Central Standard Time),329177.7999999821,CFD-WM-012-007-HC.jpg,1600,dash,O,m,703,10,1,56335.69999998808,272842.09999999404,7068,ATS,B,24
0,11,1,C,haborder.png,0,m,Wed Feb 26 2025 10:47:08 GMT-0600 (Central Standard Time),382957.90000000596,CFD-WM-011-006-HC.jpg,1000,dash,O,None,1516,prac,1,3299.0,379658.90000000596,7068,ATS,B,1
1,12,1,C,haborder.png,1,m,Wed Feb 26 2025 10:47:08 GMT-0600 (Central Standard Time),386207.0,CFD-WM-011-006-HC.jpg,1400,solid,O,m,1047,prac,1,6548.0999999940395,379658.90000000596,7068,ATS,B,2
2,8,1,C,haborder.png,1,z,Wed Feb 26 2025 10:47:08 GMT-0600 (Central Standard Time),390039.2999999821,CFD-BF-050-012-A.jpg,1700,solid,O,z,1342,prac,1,10380.399999976158,379658.90000000596,7068,ATS,B,3
2,4,1,C,mfborder.png,0,m,Wed Feb 26 2025 10:47:08 GMT-0600 (Central Standard Time),394037.6999999881,CFD-BM-015-017-HC.jpg,2000,solid,O,z,1203,prac,1,14378.799999982119,379658.90000000596,7068,ATS,B,4
2,6,1,C,mfborder.png,0,m,Wed Feb 26 2025 10:47:08 GMT-0600 (Central Standard Time),398036.09999999404,CFD-WM-009-009-A.jpg,1700,solid,O,None,1517,prac,1,18377.19999998808,379658.90000000596,7068,ATS,B,5
3,9,1,C,haborder.png,1,z,Wed Feb 26 2025 10:47:08 GMT-0600 (Central Standard Time),401752.09999999404,CFD-WF-026-008-A.jpg,1600,dash,O,z,1325,prac,1,22093.19999998808,379658.90000000596,7068,ATS,B,6
3,2,1,C,mfborder.png,0,z,Wed Feb 26 2025 10:47:08 GMT-0600 (Central Standard Time),405550.7999999821,CFD-WF-013-015-A.jpg,1500,solid,O,None,1516,prac,1,25891.899999976158,379658.90000000596,7068,ATS,B,7
3,3,1,C,mfborder.png,0,z,Wed Feb 26 2025 10:47:08 GMT-0600 (Central Standard Time),408466.59999999404,CFD-BF-035-007-HC.jpg,1000,dash,O,m,1122,prac,1,28807.69999998808,379658.90000000596,7068,ATS,B,8
3,5,1,C,mfborder.png,0,m,Wed Feb 26 2025 10:47:08 GMT-0600 (Central Standard Time),411965.40000000596,CFD-BM-037-041-A.jpg,1200,dash,O,None,1516,prac,1,32306.5,379658.90000000596,7068,ATS,B,9
3,7,1,C,haborder.png,0,z,Wed Feb 26 2025 10:47:08 GMT-0600 (Central Standard Time),416014.1999999881,CFD-BF-051-043-A.jpg,1900,dash,O,m,1352,prac,1,36355.29999998212,379658.90000000596,7068,ATS,B,10
3,1,1,C,mfborder.png,0,z,Wed Feb 26 2025 10:47:08 GMT-0600 (Central Standard Time),419913.1999999881,CFD-WF-011-006-HC.jpg,1600,dash,O,None,1516,prac,1,40254.29999998212,379658.90000000596,7068,ATS,B,11
4,10,1,C,haborder.png,1,m,Wed Feb 26 2025 10:47:08 GMT-0600 (Central Standard Time),423362.09999999404,CFD-BM-020-024-HC.jpg,1500,solid,O,m,1156,prac,1,43703.19999998808,379658.90000000596,7068,ATS,B,12
0,10,2,C,haborder.png,0,m,Wed Feb 26 2025 10:47:08 GMT-0600 (Central Standard Time),438107.1999999881,CFD-BM-020-024-HC.jpg,1500,solid,O,None,1516,prac,1,58448.29999998212,379658.90000000596,7068,ATS,B,1
0,7,2,C,haborder.png,0,z,Wed Feb 26 2025 10:47:08 GMT-0600 (Central Standard Time),442306.0,CFD-BF-051-043-A.jpg,1900,dash,O,None,1515,prac,1,62647.09999999404,379658.90000000596,7068,ATS,B,2
1,9,2,C,haborder.png,1,z,Wed Feb 26 2025 10:47:08 GMT-0600 (Central Standard Time),446054.5,CFD-WF-026-008-A.jpg,1600,dash,O,z,1352,prac,1,66395.59999999404,379658.90000000596,7068,ATS,B,3
2,4,2,C,mfborder.png,1,m,Wed Feb 26 2025 10:47:08 GMT-0600 (Central Standard Time),449853.59999999404,CFD-BM-015-017-HC.jpg,2000,solid,O,m,1003,prac,1,70194.69999998808,379658.90000000596,7068,ATS,B,4
2,12,2,C,haborder.png,0,m,Wed Feb 26 2025 10:47:08 GMT-0600 (Central Standard Time),453236.0,CFD-WM-011-006-HC.jpg,1400,solid,O,z,1196,prac,1,73577.09999999404,379658.90000000596,7068,ATS,B,5
3,5,2,C,mfborder.png,1,m,Wed Feb 26 2025 10:47:08 GMT-0600 (Central Standard Time),456601.5,CFD-BM-037-041-A.jpg,1200,dash,O,m,1381,prac,1,76942.59999999404,379658.90000000596,7068,ATS,B,6
4,11,2,C,haborder.png,1,m,Wed Feb 26 2025 10:47:08 GMT-0600 (Central Standard Time),459350.59999999404,CFD-WM-011-006-HC.jpg,1000,dash,O,m,959,prac,1,79691.69999998808,379658.90000000596,7068,ATS,B,7
5,1,2,C,mfborder.png,1,z,Wed Feb 26 2025 10:47:08 GMT-0600 (Central Standard Time),463033.0,CFD-WF-011-006-HC.jpg,1600,dash,O,z,1291,prac,1,83374.09999999404,379658.90000000596,7068,ATS,B,8
6,8,2,C,haborder.png,1,z,Wed Feb 26 2025 10:47:08 GMT-0600 (Central Standard Time),466665.1999999881,CFD-BF-050-012-A.jpg,1700,solid,O,z,1148,prac,1,87006.29999998212,379658.90000000596,7068,ATS,B,9
6,3,2,C,mfborder.png,0,z,Wed Feb 26 2025 10:47:08 GMT-0600 (Central Standard Time),469964.09999999404,CFD-BF-035-007-HC.jpg,1000,dash,O,None,1515,prac,1,90305.19999998808,379658.90000000596,7068,ATS,B,10
7,2,2,C,mfborder.png,1,z,Wed Feb 26 2025 10:47:08 GMT-0600 (Central Standard Time),473329.90000000596,CFD-WF-013-015-A.jpg,1500,solid,O,z,1073,prac,1,93671.0,379658.90000000596,7068,ATS,B,11
8,6,2,C,mfborder.png,1,m,Wed Feb 26 2025 10:47:08 GMT-0600 (Central Standard Time),477161.6999999881,CFD-WM-009-009-A.jpg,1700,solid,O,m,1340,prac,1,97502.79999998212,379658.90000000596,7068,ATS,B,12
1,test,1,C,haborder.png,1,z,Wed Feb 26 2025 10:47:08 GMT-0600 (Central Standard Time),510568.1999999881,CFD-WM-009-009-A.jpg,1400,solid,O,z,1326,7,1,2749.2999999821186,507818.90000000596,7068,ATS,B,1
2,test,1,C,haborder.png,1,m,Wed Feb 26 2025 10:47:08 GMT-0600 (Central Standard Time),512767.1999999881,CFD-WF-011-006-HC.jpg,1000,solid,O,m,1173,12,1,4948.299999982119,507818.90000000596,7068,ATS,B,2
3,test,1,C,mfborder.png,1,z,Wed Feb 26 2025 10:47:08 GMT-0600 (Central Standard Time),515749.6999999881,CFD-WF-026-008-A.jpg,1500,dash,O,z,1462,3,1,7930.799999982119,507818.90000000596,7068,ATS,B,3
4,test,1,C,mfborder.png,1,z,Wed Feb 26 2025 10:47:08 GMT-0600 (Central Standard Time),518515.40000000596,CFD-BF-051-043-A.jpg,1600,dash,O,z,1148,2,1,10696.5,507818.90000000596,7068,ATS,B,4
4,test,1,C,haborder.png,0,z,Wed Feb 26 2025 10:47:08 GMT-0600 (Central Standard Time),521947.6999999881,CFD-BM-037-041-A.jpg,1900,solid,O,None,1516,8,1,14128.799999982119,507818.90000000596,7068,ATS,B,5
5,test,1,C,haborder.png,1,z,Wed Feb 26 2025 10:47:08 GMT-0600 (Central Standard Time),524681.400000006,CFD-BM-041-048-A.jpg,1700,solid,O,z,1010,9,1,16862.5,507818.90000000596,7068,ATS,B,6
6,test,1,C,haborder.png,1,m,Wed Feb 26 2025 10:47:08 GMT-0600 (Central Standard Time),527746.0,CFD-BF-035-007-HC.jpg,1600,solid,O,m,1441,10,1,19927.09999999404,507818.90000000596,7068,ATS,B,7
6,test,1,C,mfborder.png,0,m,Wed Feb 26 2025 10:47:08 GMT-0600 (Central Standard Time),531178.1999999881,CFD-WM-037-060-A.jpg,2000,dash,O,z,1408,5,1,23359.29999998212,507818.90000000596,7068,ATS,B,8
7,test,1,C,haborder.png,1,m,Wed Feb 26 2025 10:47:08 GMT-0600 (Central Standard Time),534060.6999999881,CFD-BF-035-007-HC.jpg,1600,solid,O,m,1263,10,1,26241.79999998212,507818.90000000596,7068,ATS,B,9
7,test,1,C,mfborder.png,0,z,Wed Feb 26 2025 10:47:08 GMT-0600 (Central Standard Time),536993.1999999881,CFD-BF-027-013-HC.jpg,1700,dash,O,m,1201,1,1,29174.29999998212,507818.90000000596,7068,ATS,B,10
7,test,1,C,mfborder.png,0,m,Wed Feb 26 2025 10:47:08 GMT-0600 (Central Standard Time),539725.599999994,CFD-BM-020-024-HC.jpg,1200,dash,O,None,1515,6,1,31906.69999998808,507818.90000000596,7068,ATS,B,11
8,test,1,C,haborder.png,1,z,Wed Feb 26 2025 10:47:08 GMT-0600 (Central Standard Time),542358.099999994,CFD-WM-009-009-A.jpg,1400,solid,O,z,1204,7,1,34539.19999998808,507818.90000000596,7068,ATS,B,12
8,test,1,C,haborder.png,0,z,Wed Feb 26 2025 10:47:08 GMT-0600 (Central Standard Time),545690.6999999881,CFD-BM-037-041-A.jpg,1900,solid,O,m,1415,8,1,37871.79999998212,507818.90000000596,7068,ATS,B,13
9,test,1,C,mfborder.png,1,z,Wed Feb 26 2025 10:47:08 GMT-0600 (Central Standard Time),548472.7999999821,CFD-WF-026-008-A.jpg,1500,dash,O,z,1251,3,1,40653.89999997616,507818.90000000596,7068,ATS,B,14
10,test,1,C,mfborder.png,1,m,Wed Feb 26 2025 10:47:08 GMT-0600 (Central Standard Time),550738.5,CFD-WM-012-007-HC.jpg,1000,dash,O,m,1240,4,1,42919.59999999404,507818.90000000596,7068,ATS,B,15
10,test,1,C,haborder.png,0,m,Wed Feb 26 2025 10:47:08 GMT-0600 (Central Standard Time),553587.7999999821,CFD-WF-027-007-HC.jpg,1500,solid,O,z,1330,11,1,45768.89999997616,507818.90000000596,7068,ATS,B,16
10,test,1,C,haborder.png,0,z,Wed Feb 26 2025 10:47:08 GMT-0600 (Central Standard Time),556820.2999999821,CFD-BM-041-048-A.jpg,1700,solid,O,None,1515,9,1,49001.39999997616,507818.90000000596,7068,ATS,B,17
10,test,1,C,mfborder.png,0,m,Wed Feb 26 2025 10:47:08 GMT-0600 (Central Standard Time),559552.6999999881,CFD-BM-020-024-HC.jpg,1200,dash,O,None,1516,6,1,51733.79999998212,507818.90000000596,7068,ATS,B,18
11,test,1,C,mfborder.png,1,m,Wed Feb 26 2025 10:47:08 GMT-0600 (Central Standard Time),561752.099999994,CFD-WM-012-007-HC.jpg,1000,dash,O,m,1176,4,1,53933.19999998808,507818.90000000596,7068,ATS,B,19
11,test,1,C,mfborder.png,0,m,Wed Feb 26 2025 10:47:08 GMT-0600 (Central Standard Time),564767.599999994,CFD-WM-037-060-A.jpg,2000,dash,O,z,990,5,1,56948.69999998808,507818.90000000596,7068,ATS,B,20
11,test,1,C,mfborder.png,0,z,Wed Feb 26 2025 10:47:08 GMT-0600 (Central Standard Time),567600.1999999881,CFD-BF-027-013-HC.jpg,1700,dash,O,m,1110,1,1,59781.29999998212,507818.90000000596,7068,ATS,B,21
11,test,1,C,mfborder.png,0,z,Wed Feb 26 2025 10:47:08 GMT-0600 (Central Standard Time),570549.1999999881,CFD-BF-051-043-A.jpg,1600,dash,O,m,1329,2,1,62730.29999998212,507818.90000000596,7068,ATS,B,22
11,test,1,C,haborder.png,0,m,Wed Feb 26 2025 10:47:08 GMT-0600 (Central Standard Time),573585.1999999881,CFD-WF-027-007-HC.jpg,1500,solid,O,None,1516,11,1,65766.29999998212,507818.90000000596,7068,ATS,B,23
11,test,1,C,haborder.png,0,m,Wed Feb 26 2025 10:47:08 GMT-0600 (Central Standard Time),575531.0,CFD-WF-011-006-HC.jpg,1000,solid,O,z,924,12,1,67712.09999999404,507818.90000000596,7068,ATS,B,24
1,test,2,C,haborder.png,1,m,Wed Feb 26 2025 10:47:08 GMT-0600 (Central Standard Time),586094.400000006,CFD-WM-011-006-HC.jpg,1500,solid,O,m,1399,11,1,2932.2000000178814,583162.1999999881,7068,ATS,B,1
2,test,2,C,haborder.png,1,z,Wed Feb 26 2025 10:47:08 GMT-0600 (Central Standard Time),589026.599999994,CFD-BF-050-012-A.jpg,1900,solid,O,z,1015,8,1,5864.4000000059605,583162.1999999881,7068,ATS,B,2
3,test,2,C,haborder.png,1,m,Wed Feb 26 2025 10:47:08 GMT-0600 (Central Standard Time),591426.099999994,CFD-BM-020-024-HC.jpg,1600,solid,O,m,766,10,1,8263.90000000596,583162.1999999881,7068,ATS,B,3
3,test,2,C,mfborder.png,0,m,Wed Feb 26 2025 10:47:08 GMT-0600 (Central Standard Time),594958.400000006,CFD-BM-037-041-A.jpg,2000,dash,O,None,1515,5,1,11796.200000017881,583162.1999999881,7068,ATS,B,4
3,test,2,C,mfborder.png,0,z,Wed Feb 26 2025 10:47:08 GMT-0600 (Central Standard Time),597824.2999999821,CFD-WF-011-006-HC.jpg,1700,dash,O,m,1135,1,1,14662.09999999404,583162.1999999881,7068,ATS,B,5
3,test,2,C,haborder.png,0,z,Wed Feb 26 2025 10:47:08 GMT-0600 (Central Standard Time),600756.6999999881,CFD-BF-051-043-A.jpg,1400,solid,O,None,1516,7,1,17594.5,583162.1999999881,7068,ATS,B,6
4,test,2,C,mfborder.png,1,m,Wed Feb 26 2025 10:47:08 GMT-0600 (Central Standard Time),602772.5,CFD-BM-015-017-HC.jpg,1000,dash,O,m,989,4,1,19610.30000001192,583162.1999999881,7068,ATS,B,7
5,test,2,C,haborder.png,1,z,Wed Feb 26 2025 10:47:08 GMT-0600 (Central Standard Time),605671.5,CFD-BF-051-043-A.jpg,1400,solid,O,z,1477,7,1,22509.30000001192,583162.1999999881,7068,ATS,B,8
6,test,2,C,haborder.png,1,m,Wed Feb 26 2025 10:47:08 GMT-0600 (Central Standard Time),607754.1999999881,CFD-WM-011-006-HC.jpg,1000,solid,O,m,1057,12,1,24592.0,583162.1999999881,7068,ATS,B,9
6,test,2,C,mfborder.png,0,z,Wed Feb 26 2025 10:47:08 GMT-0600 (Central Standard Time),610953.2999999821,CFD-WF-011-006-HC.jpg,1700,dash,O,m,1475,1,1,27791.09999999404,583162.1999999881,7068,ATS,B,10
6,test,2,C,mfborder.png,0,m,Wed Feb 26 2025 10:47:08 GMT-0600 (Central Standard Time),613169.1999999881,CFD-WM-009-009-A.jpg,1200,dash,O,z,987,6,1,30007.0,583162.1999999881,7068,ATS,B,11
6,test,2,C,mfborder.png,0,z,Wed Feb 26 2025 10:47:08 GMT-0600 (Central Standard Time),615768.599999994,CFD-BF-035-007-HC.jpg,1500,dash,O,m,1065,3,1,32606.40000000596,583162.1999999881,7068,ATS,B,12
7,test,2,C,haborder.png,1,m,Wed Feb 26 2025 10:47:08 GMT-0600 (Central Standard Time),618368.0,CFD-WM-011-006-HC.jpg,1500,solid,O,m,1068,11,1,35205.80000001192,583162.1999999881,7068,ATS,B,13
8,test,2,C,haborder.png,1,m,Wed Feb 26 2025 10:47:08 GMT-0600 (Central Standard Time),621366.5,CFD-BM-020-024-HC.jpg,1600,solid,O,m,1370,10,1,38204.30000001192,583162.1999999881,7068,ATS,B,14
9,test,2,C,haborder.png,1,z,Wed Feb 26 2025 10:47:08 GMT-0600 (Central Standard Time),624682.2999999821,CFD-BF-050-012-A.jpg,1900,solid,O,z,1390,8,1,41520.09999999404,583162.1999999881,7068,ATS,B,15
10,test,2,C,haborder.png,1,z,Wed Feb 26 2025 10:47:08 GMT-0600 (Central Standard Time),627548.099999994,CFD-WF-026-008-A.jpg,1700,solid,O,z,1147,9,1,44385.90000000596,583162.1999999881,7068,ATS,B,16
11,test,2,C,haborder.png,1,z,Wed Feb 26 2025 10:47:08 GMT-0600 (Central Standard Time),630280.7999999821,CFD-WF-026-008-A.jpg,1700,solid,O,z,1009,9,1,47118.59999999404,583162.1999999881,7068,ATS,B,17
11,test,2,C,mfborder.png,0,m,Wed Feb 26 2025 10:47:08 GMT-0600 (Central Standard Time),632813.400000006,CFD-BM-015-017-HC.jpg,1000,dash,O,None,1515,4,1,49651.20000001788,583162.1999999881,7068,ATS,B,18
11,test,2,C,haborder.png,0,m,Wed Feb 26 2025 10:47:08 GMT-0600 (Central Standard Time),635345.5,CFD-WM-011-006-HC.jpg,1000,solid,O,None,1516,12,1,52183.30000001192,583162.1999999881,7068,ATS,B,19
11,test,2,C,mfborder.png,0,m,Wed Feb 26 2025 10:47:08 GMT-0600 (Central Standard Time),638877.7999999821,CFD-BM-037-041-A.jpg,2000,dash,O,None,1516,5,1,55715.59999999404,583162.1999999881,7068,ATS,B,20
11,test,2,C,mfborder.png,0,z,Wed Feb 26 2025 10:47:08 GMT-0600 (Central Standard Time),641810.2999999821,CFD-BF-035-007-HC.jpg,1500,dash,O,m,1401,3,1,58648.09999999404,583162.1999999881,7068,ATS,B,21
11,test,2,C,mfborder.png,0,m,Wed Feb 26 2025 10:47:08 GMT-0600 (Central Standard Time),643926.2999999821,CFD-WM-009-009-A.jpg,1200,dash,O,z,894,6,1,60764.09999999404,583162.1999999881,7068,ATS,B,22
12,test,2,C,mfborder.png,1,z,Wed Feb 26 2025 10:47:08 GMT-0600 (Central Standard Time),646558.7999999821,CFD-WF-013-015-A.jpg,1600,dash,O,z,1003,2,1,63396.59999999404,583162.1999999881,7068,ATS,B,23
13,test,2,C,mfborder.png,1,z,Wed Feb 26 2025 10:47:08 GMT-0600 (Central Standard Time),649007.900000006,CFD-WF-013-015-A.jpg,1600,dash,O,z,819,2,1,65845.70000001788,583162.1999999881,7068,ATS,B,24
0,test,3,C,mfborder.png,0,m,Wed Feb 26 2025 10:47:08 GMT-0600 (Central Standard Time),664436.900000006,CFD-BM-020-024-HC.jpg,1200,dash,O,None,1512,6,1,2732.9000000059605,661704.0,7068,ATS,B,1
0,test,3,C,haborder.png,0,m,Wed Feb 26 2025 10:47:08 GMT-0600 (Central Standard Time),666969.2999999821,CFD-WF-011-006-HC.jpg,1000,solid,O,None,1516,12,1,5265.299999982119,661704.0,7068,ATS,B,2
0,test,3,C,mfborder.png,0,m,Wed Feb 26 2025 10:47:08 GMT-0600 (Central Standard Time),670501.5,CFD-WM-037-060-A.jpg,2000,dash,O,None,1515,5,1,8797.5,661704.0,7068,ATS,B,3
1,test,3,C,haborder.png,1,m,Wed Feb 26 2025 10:47:08 GMT-0600 (Central Standard Time),673450.400000006,CFD-WF-027-007-HC.jpg,1500,solid,O,m,1413,11,1,11746.40000000596,661704.0,7068,ATS,B,4
1,test,3,C,mfborder.png,0,m,Wed Feb 26 2025 10:47:08 GMT-0600 (Central Standard Time),676183.099999994,CFD-BM-020-024-HC.jpg,1200,dash,O,None,1516,6,1,14479.09999999404,661704.0,7068,ATS,B,5
2,test,3,C,haborder.png,1,z,Wed Feb 26 2025 10:47:08 GMT-0600 (Central Standard Time),678750.099999994,CFD-WM-009-009-A.jpg,1400,solid,O,z,1146,7,1,17046.09999999404,661704.0,7068,ATS,B,6
3,test,3,C,mfborder.png,1,m,Wed Feb 26 2025 10:47:08 GMT-0600 (Central Standard Time),681147.900000006,CFD-WM-012-007-HC.jpg,1000,dash,O,m,1380,4,1,19443.90000000596,661704.0,7068,ATS,B,7
4,test,3,C,mfborder.png,1,m,Wed Feb 26 2025 10:47:08 GMT-0600 (Central Standard Time),683480.7999999821,CFD-WM-012-007-HC.jpg,1000,dash,O,m,1301,4,1,21776.79999998212,661704.0,7068,ATS,B,8
5,test,3,C,haborder.png,1,m,Wed Feb 26 2025 10:47:08 GMT-0600 (Central Standard Time),685863.2999999821,CFD-WF-011-006-HC.jpg,1000,solid,O,m,1352,12,1,24159.29999998212,661704.0,7068,ATS,B,9
5,test,3,C,mfborder.png,0,m,Wed Feb 26 2025 10:47:08 GMT-0600 (Central Standard Time),689395.400000006,CFD-WM-037-060-A.jpg,2000,dash,O,None,1515,5,1,27691.40000000596,661704.0,7068,ATS,B,10
6,test,3,C,mfborder.png,1,z,Wed Feb 26 2025 10:47:08 GMT-0600 (Central Standard Time),692094.5,CFD-BF-051-043-A.jpg,1600,dash,O,z,1078,2,1,30390.5,661704.0,7068,ATS,B,11
6,test,3,C,haborder.png,0,z,Wed Feb 26 2025 10:47:08 GMT-0600 (Central Standard Time),695030.2999999821,CFD-WM-009-009-A.jpg,1400,solid,O,None,1516,7,1,33326.29999998212,661704.0,7068,ATS,B,12
7,test,3,C,mfborder.png,1,z,Wed Feb 26 2025 10:47:08 GMT-0600 (Central Standard Time),697409.7999999821,CFD-WF-026-008-A.jpg,1500,dash,O,z,850,3,1,35705.79999998212,661704.0,7068,ATS,B,13
8,test,3,C,haborder.png,1,m,Wed Feb 26 2025 10:47:08 GMT-0600 (Central Standard Time),700192.1999999881,CFD-WF-027-007-HC.jpg,1500,solid,O,m,1260,11,1,38488.19999998808,661704.0,7068,ATS,B,14
8,test,3,C,mfborder.png,0,z,Wed Feb 26 2025 10:47:08 GMT-0600 (Central Standard Time),703224.599999994,CFD-WF-026-008-A.jpg,1500,dash,O,None,1515,3,1,41520.59999999404,661704.0,7068,ATS,B,15
8,test,3,C,mfborder.png,0,z,Wed Feb 26 2025 10:47:08 GMT-0600 (Central Standard Time),706473.599999994,CFD-BF-027-013-HC.jpg,1700,dash,O,None,1505,1,1,44769.59999999404,661704.0,7068,ATS,B,16
9,test,3,C,haborder.png,1,z,Wed Feb 26 2025 10:47:08 GMT-0600 (Central Standard Time),709205.900000006,CFD-BM-041-048-A.jpg,1700,solid,O,z,1013,9,1,47501.90000000596,661704.0,7068,ATS,B,17
10,test,3,C,haborder.png,1,z,Wed Feb 26 2025 10:47:08 GMT-0600 (Central Standard Time),711988.2999999821,CFD-BM-041-048-A.jpg,1700,solid,O,z,1063,9,1,50284.29999998212,661704.0,7068,ATS,B,18
11,test,3,C,haborder.png,1,z,Wed Feb 26 2025 10:47:08 GMT-0600 (Central Standard Time),714737.6999999881,CFD-BM-037-041-A.jpg,1900,solid,O,z,817,8,1,53033.69999998808,661704.0,7068,ATS,B,19
12,test,3,C,mfborder.png,1,z,Wed Feb 26 2025 10:47:08 GMT-0600 (Central Standard Time),717654.599999994,CFD-BF-051-043-A.jpg,1600,dash,O,z,1295,2,1,55950.59999999404,661704.0,7068,ATS,B,20
12,test,3,C,mfborder.png,0,z,Wed Feb 26 2025 10:47:08 GMT-0600 (Central Standard Time),720369.099999994,CFD-BF-027-013-HC.jpg,1700,dash,O,m,992,1,1,58665.09999999404,661704.0,7068,ATS,B,21
12,test,3,C,haborder.png,0,m,Wed Feb 26 2025 10:47:08 GMT-0600 (Central Standard Time),723501.6999999881,CFD-BF-035-007-HC.jpg,1600,solid,O,None,1511,10,1,61797.69999998808,661704.0,7068,ATS,B,22
13,test,3,C,haborder.png,1,m,Wed Feb 26 2025 10:47:08 GMT-0600 (Central Standard Time),725750.900000006,CFD-BF-035-007-HC.jpg,1600,solid,O,m,620,10,1,64046.90000000596,661704.0,7068,ATS,B,23
14,test,3,C,haborder.png,1,z,Wed Feb 26 2025 10:47:08 GMT-0600 (Central Standard Time),728701.400000006,CFD-BM-037-041-A.jpg,1900,solid,O,z,1027,8,1,66997.40000000596,661704.0,7068,ATS,B,24
1,test,4,C,mfborder.png,1,m,Wed Feb 26 2025 10:47:08 GMT-0600 (Central Standard Time),735731.099999994,CFD-WM-009-009-A.jpg,1200,dash,O,m,1236,6,1,2466.0999999940395,733265.0,7068,ATS,B,1
2,test,4,C,mfborder.png,1,z,Wed Feb 26 2025 10:47:08 GMT-0600 (Central Standard Time),738446.900000006,CFD-WF-011-006-HC.jpg,1700,dash,O,z,986,1,1,5181.9000000059605,733265.0,7068,ATS,B,2
3,test,4,C,haborder.png,1,m,Wed Feb 26 2025 10:47:08 GMT-0600 (Central Standard Time),740462.900000006,CFD-WM-011-006-HC.jpg,1000,solid,O,m,995,12,1,7197.9000000059605,733265.0,7068,ATS,B,3
4,test,4,C,haborder.png,1,z,Wed Feb 26 2025 10:47:08 GMT-0600 (Central Standard Time),743178.900000006,CFD-BF-050-012-A.jpg,1900,solid,O,z,784,8,1,9913.90000000596,733265.0,7068,ATS,B,4
5,test,4,C,haborder.png,1,z,Wed Feb 26 2025 10:47:08 GMT-0600 (Central Standard Time),745311.400000006,CFD-BF-051-043-A.jpg,1400,solid,O,z,711,7,1,12046.40000000596,733265.0,7068,ATS,B,5
6,test,4,C,haborder.png,1,m,Wed Feb 26 2025 10:47:08 GMT-0600 (Central Standard Time),747610.7999999821,CFD-WM-011-006-HC.jpg,1500,solid,O,m,767,11,1,14345.799999982119,733265.0,7068,ATS,B,6
7,test,4,C,mfborder.png,1,m,Wed Feb 26 2025 10:47:08 GMT-0600 (Central Standard Time),749909.900000006,CFD-WM-009-009-A.jpg,1200,dash,O,m,1079,6,1,16644.90000000596,733265.0,7068,ATS,B,7
7,test,4,C,mfborder.png,0,z,Wed Feb 26 2025 10:47:08 GMT-0600 (Central Standard Time),752442.599999994,CFD-BF-035-007-HC.jpg,1500,dash,O,m,1007,3,1,19177.59999999404,733265.0,7068,ATS,B,8
8,test,4,C,haborder.png,1,m,Wed Feb 26 2025 10:47:08 GMT-0600 (Central Standard Time),755275.099999994,CFD-WM-011-006-HC.jpg,1500,solid,O,m,1315,11,1,22010.09999999404,733265.0,7068,ATS,B,9
9,test,4,C,mfborder.png,1,z,Wed Feb 26 2025 10:47:08 GMT-0600 (Central Standard Time),758390.5,CFD-WF-013-015-A.jpg,1600,dash,O,z,1494,2,1,25125.5,733265.0,7068,ATS,B,10
10,test,4,C,mfborder.png,1,m,Wed Feb 26 2025 10:47:08 GMT-0600 (Central Standard Time),760439.900000006,CFD-BM-015-017-HC.jpg,1000,dash,O,m,1019,4,1,27174.90000000596,733265.0,7068,ATS,B,11
11,test,4,C,haborder.png,1,z,Wed Feb 26 2025 10:47:08 GMT-0600 (Central Standard Time),762972.5,CFD-BF-051-043-A.jpg,1400,solid,O,z,1113,7,1,29707.5,733265.0,7068,ATS,B,12
11,test,4,C,mfborder.png,0,z,Wed Feb 26 2025 10:47:08 GMT-0600 (Central Standard Time),765821.6999999881,CFD-WF-013-015-A.jpg,1600,dash,O,m,1221,2,1,32556.69999998808,733265.0,7068,ATS,B,13
12,test,4,C,mfborder.png,1,m,Wed Feb 26 2025 10:47:08 GMT-0600 (Central Standard Time),768954.0,CFD-BM-037-041-A.jpg,2000,dash,O,m,1100,5,1,35689.0,733265.0,7068,ATS,B,14
13,test,4,C,haborder.png,1,z,Wed Feb 26 2025 10:47:08 GMT-0600 (Central Standard Time),771536.5,CFD-WF-026-008-A.jpg,1700,solid,O,z,859,9,1,38271.5,733265.0,7068,ATS,B,15
14,test,4,C,mfborder.png,1,m,Wed Feb 26 2025 10:47:08 GMT-0600 (Central Standard Time),774668.7999999821,CFD-BM-037-041-A.jpg,2000,dash,O,m,1114,5,1,41403.79999998212,733265.0,7068,ATS,B,16
15,test,4,C,haborder.png,1,z,Wed Feb 26 2025 10:47:08 GMT-0600 (Central Standard Time),777234.900000006,CFD-WF-026-008-A.jpg,1700,solid,O,z,849,9,1,43969.90000000596,733265.0,7068,ATS,B,17
16,test,4,C,haborder.png,1,z,Wed Feb 26 2025 10:47:08 GMT-0600 (Central Standard Time),779867.0,CFD-BF-050-012-A.jpg,1900,solid,O,z,715,8,1,46602.0,733265.0,7068,ATS,B,18
16,test,4,C,mfborder.png,0,z,Wed Feb 26 2025 10:47:08 GMT-0600 (Central Standard Time),782450.0,CFD-BF-035-007-HC.jpg,1500,dash,O,m,1054,3,1,49185.0,733265.0,7068,ATS,B,19
17,test,4,C,haborder.png,1,m,Wed Feb 26 2025 10:47:08 GMT-0600 (Central Standard Time),785082.1999999881,CFD-BM-020-024-HC.jpg,1600,solid,O,m,996,10,1,51817.19999998808,733265.0,7068,ATS,B,20
18,test,4,C,haborder.png,1,m,Wed Feb 26 2025 10:47:08 GMT-0600 (Central Standard Time),786798.599999994,CFD-WM-011-006-HC.jpg,1000,solid,O,m,687,12,1,53533.59999999404,733265.0,7068,ATS,B,21
18,test,4,C,mfborder.png,0,m,Wed Feb 26 2025 10:47:08 GMT-0600 (Central Standard Time),788947.599999994,CFD-BM-015-017-HC.jpg,1000,dash,O,z,1131,4,1,55682.59999999404,733265.0,7068,ATS,B,22
18,test,4,C,haborder.png,0,m,Wed Feb 26 2025 10:47:08 GMT-0600 (Central Standard Time),792080.2999999821,CFD-BM-020-024-HC.jpg,1600,solid,O,None,1516,10,1,58815.29999998212,733265.0,7068,ATS,B,23
18,test,4,C,mfborder.png,0,z,Wed Feb 26 2025 10:47:08 GMT-0600 (Central Standard Time),795312.400000006,CFD-WF-011-006-HC.jpg,1700,dash,O,None,1515,1,1,62047.40000000596,733265.0,7068,ATS,B,24
