acc_sum,block,block_c,change,condition,correct,correct_response,datetime,endtime,face,project,response,response_time,row_sel,session_number,start_end,starttime,subject_id,task,task_vers,trial
0,prac,1,,1-Back,,,Fri Mar 28 2025 12:57:59 GMT-0500 (Central Daylight Time),,093_m_f_n_a.png,O,space,12457,1,1,,,7114,NNB,C,0
1,prac,1,0.0,1-Back,1,m,Fri Mar 28 2025 12:57:59 GMT-0500 (Central Daylight Time),130206.19999992847,098_y_f_n_a.png,O,m,578,2,1,1476.5,128729.69999992847,7114,NNB,C,1
2,prac,1,1.0,1-Back,1,z,Fri Mar 28 2025 12:57:59 GMT-0500 (Central Daylight Time),132037.79999995232,098_y_f_n_a.png,O,z,1027,3,1,1799.0,130238.79999995232,7114,NNB,C,2
3,prac,1,0.0,1-Back,1,m,Fri Mar 28 2025 12:57:59 GMT-0500 (Central Daylight Time),133704.0,059_o_m_n_a.png,O,m,736,4,1,1658.8000000715256,132045.19999992847,7114,NNB,C,3
4,prac,1,0.0,1-Back,1,m,Fri Mar 28 2025 12:57:59 GMT-0500 (Central Daylight Time),135954.19999992847,092_m_m_n_a.png,O,m,1338,5,1,2243.0,133711.19999992847,7114,NNB,C,4
5,prac,1,1.0,1-Back,1,z,Fri Mar 28 2025 12:57:59 GMT-0500 (Central Daylight Time),137485.89999997616,092_m_m_n_a.png,O,z,723,6,1,1503.2000000476837,135982.69999992847,7114,NNB,C,5
6,prac,1,0.0,1-Back,1,m,Fri Mar 28 2025 12:57:59 GMT-0500 (Central Daylight Time),139786.39999997616,130_o_f_n_a.png,O,m,1355,7,1,2293.600000023842,137492.79999995232,7114,NNB,C,6
6,prac,1,0.0,1-Back,0,m,Fri Mar 28 2025 12:57:59 GMT-0500 (Central Daylight Time),141635.5,082_m_m_n_a.png,O,z,910,8,1,1819.1000000238419,139816.39999997616,7114,NNB,C,7
6,prac,1,0.0,1-Back,0,m,Fri Mar 28 2025 12:57:59 GMT-0500 (Central Daylight Time),144567.79999995232,093_m_f_n_a.png,O,None,2004,9,1,2896.2999999523163,141671.5,7114,NNB,C,8
7,prac,1,1.0,1-Back,1,z,Fri Mar 28 2025 12:57:59 GMT-0500 (Central Daylight Time),147300.5,093_m_f_n_a.png,O,z,1926,10,1,2696.7000000476837,144603.79999995232,7114,NNB,C,9
8,prac,1,0.0,1-Back,1,m,Fri Mar 28 2025 12:57:59 GMT-0500 (Central Daylight Time),149249.89999997616,059_o_m_n_a.png,O,m,1016,11,1,1926.1000000238419,147323.79999995232,7114,NNB,C,10
9,prac,1,0.0,1-Back,1,m,Fri Mar 28 2025 12:57:59 GMT-0500 (Central Daylight Time),151549.29999995232,028_y_f_n_a.png,O,m,1346,12,1,2268.2999999523163,149281.0,7114,NNB,C,11
0,test,1,0.0,1-Back,,,Fri Mar 28 2025 12:57:59 GMT-0500 (Central Daylight Time),151549.29999995232,098_y_f_n_a.png,O,space,91084,1,1,2268.2999999523163,149281.0,7114,NNB,C,0
1,test,1,0.0,1-Back,1,m,Fri Mar 28 2025 12:57:59 GMT-0500 (Central Daylight Time),253249.0,006_m_f_n_a.png,O,m,719,2,1,1744.7000000476837,251504.29999995232,7114,NNB,C,1
2,test,1,0.0,1-Back,1,m,Fri Mar 28 2025 12:57:59 GMT-0500 (Central Daylight Time),255481.5,028_y_f_n_a.png,O,m,1194,3,1,2211.8000000715256,253269.69999992847,7114,NNB,C,2
3,test,1,1.0,1-Back,1,z,Fri Mar 28 2025 12:57:59 GMT-0500 (Central Daylight Time),257247.39999997616,028_y_f_n_a.png,O,z,728,4,1,1744.6000000238419,255502.79999995232,7114,NNB,C,3
4,test,1,0.0,1-Back,1,m,Fri Mar 28 2025 12:57:59 GMT-0500 (Central Daylight Time),259363.60000002384,006_m_f_n_a.png,O,m,1075,5,1,2092.3000000715256,257271.29999995232,7114,NNB,C,4
5,test,1,0.0,1-Back,1,m,Fri Mar 28 2025 12:57:59 GMT-0500 (Central Daylight Time),261595.89999997616,059_o_m_n_a.png,O,m,1190,6,1,2208.7000000476837,259387.19999992847,7114,NNB,C,5
6,test,1,1.0,1-Back,1,z,Fri Mar 28 2025 12:57:59 GMT-0500 (Central Daylight Time),263478.60000002384,059_o_m_n_a.png,O,z,847,7,1,1858.2000000476837,261620.39999997616,7114,NNB,C,6
7,test,1,0.0,1-Back,1,m,Fri Mar 28 2025 12:57:59 GMT-0500 (Central Daylight Time),265528.2999999523,092_m_m_n_a.png,O,m,1004,8,1,2030.1999999284744,263498.10000002384,7114,NNB,C,7
8,test,1,0.0,1-Back,1,m,Fri Mar 28 2025 12:57:59 GMT-0500 (Central Daylight Time),267577.6999999285,130_o_f_n_a.png,O,m,1010,9,1,2026.6999999284744,265551.0,7114,NNB,C,8
9,test,1,0.0,1-Back,1,m,Fri Mar 28 2025 12:57:59 GMT-0500 (Central Daylight Time),269260.1999999285,092_m_m_n_a.png,O,m,641,10,1,1658.5999999046326,267601.60000002384,7114,NNB,C,9
10,test,1,0.0,1-Back,1,m,Fri Mar 28 2025 12:57:59 GMT-0500 (Central Daylight Time),271126.2999999523,057_y_m_n_a.png,O,m,822,11,1,1847.1000000238419,269279.1999999285,7114,NNB,C,10
11,test,1,1.0,1-Back,1,z,Fri Mar 28 2025 12:57:59 GMT-0500 (Central Daylight Time),272858.7999999523,057_y_m_n_a.png,O,z,692,12,1,1714.0,271144.7999999523,7114,NNB,C,11
12,test,1,0.0,1-Back,1,m,Fri Mar 28 2025 12:57:59 GMT-0500 (Central Daylight Time),274591.6999999285,030_o_f_n_a.png,O,m,698,13,1,1709.2999999523163,272882.39999997616,7114,NNB,C,12
13,test,1,1.0,1-Back,1,z,Fri Mar 28 2025 12:57:59 GMT-0500 (Central Daylight Time),276607.6999999285,030_o_f_n_a.png,O,z,981,14,1,1996.3999999761581,274611.2999999523,7114,NNB,C,13
14,test,1,0.0,1-Back,1,m,Fri Mar 28 2025 12:57:59 GMT-0500 (Central Daylight Time),278223.89999997616,031_y_m_n_a.png,O,m,570,15,1,1596.8999999761581,276627.0,7114,NNB,C,14
15,test,1,0.0,1-Back,1,m,Fri Mar 28 2025 12:57:59 GMT-0500 (Central Daylight Time),280173.5,093_m_f_n_a.png,O,m,915,16,1,1930.3000000715256,278243.1999999285,7114,NNB,C,15
16,test,1,0.0,1-Back,1,m,Fri Mar 28 2025 12:57:59 GMT-0500 (Central Daylight Time),281855.89999997616,146_o_m_n_a.png,O,m,637,17,1,1662.7999999523163,280193.10000002384,7114,NNB,C,16
17,test,1,0.0,1-Back,1,m,Fri Mar 28 2025 12:57:59 GMT-0500 (Central Daylight Time),283838.60000002384,093_m_f_n_a.png,O,m,945,18,1,1962.5,281876.10000002384,7114,NNB,C,17
0,test,2,0.0,1-Back,,,Fri Mar 28 2025 12:57:59 GMT-0500 (Central Daylight Time),283838.60000002384,092_m_m_n_a.png,O,space,3644,1,1,1962.5,281876.10000002384,7114,NNB,C,0
1,test,2,0.0,1-Back,1,m,Fri Mar 28 2025 12:57:59 GMT-0500 (Central Daylight Time),291835.89999997616,006_m_f_n_a.png,O,m,1148,2,1,2161.399999976158,289674.5,7114,NNB,C,1
2,test,2,1.0,1-Back,1,z,Fri Mar 28 2025 12:57:59 GMT-0500 (Central Daylight Time),293868.7999999523,006_m_f_n_a.png,O,z,1006,3,1,2024.1000000238419,291844.6999999285,7114,NNB,C,2
3,test,2,0.0,1-Back,1,m,Fri Mar 28 2025 12:57:59 GMT-0500 (Central Daylight Time),295584.60000002384,092_m_m_n_a.png,O,m,677,4,1,1692.2000000476837,293892.39999997616,7114,NNB,C,3
4,test,2,0.0,1-Back,1,m,Fri Mar 28 2025 12:57:59 GMT-0500 (Central Daylight Time),297684.1999999285,057_y_m_n_a.png,O,m,1058,5,1,2080.0,295604.1999999285,7114,NNB,C,4
5,test,2,0.0,1-Back,1,m,Fri Mar 28 2025 12:57:59 GMT-0500 (Central Daylight Time),299417.0,098_y_f_n_a.png,O,m,694,6,1,1713.0,297704.0,7114,NNB,C,5
6,test,2,1.0,1-Back,1,z,Fri Mar 28 2025 12:57:59 GMT-0500 (Central Daylight Time),300982.89999997616,098_y_f_n_a.png,O,z,530,7,1,1547.7999999523163,299435.10000002384,7114,NNB,C,6
7,test,2,0.0,1-Back,1,m,Fri Mar 28 2025 12:57:59 GMT-0500 (Central Daylight Time),302666.10000002384,057_y_m_n_a.png,O,m,643,8,1,1664.4000000953674,301001.6999999285,7114,NNB,C,7
8,test,2,0.0,1-Back,1,m,Fri Mar 28 2025 12:57:59 GMT-0500 (Central Daylight Time),304349.2999999523,030_o_f_n_a.png,O,m,649,9,1,1666.1000000238419,302683.1999999285,7114,NNB,C,8
9,test,2,0.0,1-Back,1,m,Fri Mar 28 2025 12:57:59 GMT-0500 (Central Daylight Time),305981.39999997616,082_m_m_n_a.png,O,m,598,10,1,1608.5,304372.89999997616,7114,NNB,C,9
10,test,2,1.0,1-Back,1,z,Fri Mar 28 2025 12:57:59 GMT-0500 (Central Daylight Time),307730.89999997616,082_m_m_n_a.png,O,z,709,11,1,1730.0,306000.89999997616,7114,NNB,C,10
11,test,2,0.0,1-Back,1,m,Fri Mar 28 2025 12:57:59 GMT-0500 (Central Daylight Time),309646.6999999285,030_o_f_n_a.png,O,m,871,12,1,1897.1999999284744,307749.5,7114,NNB,C,11
12,test,2,0.0,1-Back,1,m,Fri Mar 28 2025 12:57:59 GMT-0500 (Central Daylight Time),311529.10000002384,130_o_f_n_a.png,O,m,833,13,1,1861.9000000953674,309667.1999999285,7114,NNB,C,12
13,test,2,0.0,1-Back,1,m,Fri Mar 28 2025 12:57:59 GMT-0500 (Central Daylight Time),313229.10000002384,059_o_m_n_a.png,O,m,666,14,1,1694.9000000953674,311534.1999999285,7114,NNB,C,13
14,test,2,0.0,1-Back,1,m,Fri Mar 28 2025 12:57:59 GMT-0500 (Central Daylight Time),315044.10000002384,146_o_m_n_a.png,O,m,781,15,1,1795.3000000715256,313248.7999999523,7114,NNB,C,14
15,test,2,1.0,1-Back,1,z,Fri Mar 28 2025 12:57:59 GMT-0500 (Central Daylight Time),316776.89999997616,146_o_m_n_a.png,O,z,710,16,1,1728.7000000476837,315048.1999999285,7114,NNB,C,15
16,test,2,0.0,1-Back,1,m,Fri Mar 28 2025 12:57:59 GMT-0500 (Central Daylight Time),318443.10000002384,031_y_m_n_a.png,O,m,633,17,1,1661.8000000715256,316781.2999999523,7114,NNB,C,16
17,test,2,1.0,1-Back,1,z,Fri Mar 28 2025 12:57:59 GMT-0500 (Central Daylight Time),320125.7999999523,031_y_m_n_a.png,O,z,655,18,1,1678.8999999761581,318446.89999997616,7114,NNB,C,17
0,test,3,1.0,1-Back,,,Fri Mar 28 2025 12:57:59 GMT-0500 (Central Daylight Time),320125.7999999523,028_y_f_n_a.png,O,space,1773,1,1,1678.8999999761581,318446.89999997616,7114,NNB,C,0
1,test,3,0.0,1-Back,1,m,Fri Mar 28 2025 12:57:59 GMT-0500 (Central Daylight Time),325674.2999999523,146_o_m_n_a.png,O,m,609,1,1,1629.1000000238419,324045.1999999285,7114,NNB,C,1
2,test,3,1.0,1-Back,1,z,Fri Mar 28 2025 12:57:59 GMT-0500 (Central Daylight Time),327490.0,146_o_m_n_a.png,O,z,792,1,1,1811.8000000715256,325678.1999999285,7114,NNB,C,2
3,test,3,0.0,1-Back,1,m,Fri Mar 28 2025 12:57:59 GMT-0500 (Central Daylight Time),329406.1999999285,093_m_f_n_a.png,O,m,896,1,1,1912.3999999761581,327493.7999999523,7114,NNB,C,3
4,test,3,1.0,1-Back,1,z,Fri Mar 28 2025 12:57:59 GMT-0500 (Central Daylight Time),331455.39999997616,093_m_f_n_a.png,O,z,1028,1,1,2045.0,329410.39999997616,7114,NNB,C,4
5,test,3,0.0,1-Back,1,m,Fri Mar 28 2025 12:57:59 GMT-0500 (Central Daylight Time),333171.5,030_o_f_n_a.png,O,m,691,1,1,1712.0,331459.5,7114,NNB,C,5
6,test,3,0.0,1-Back,1,m,Fri Mar 28 2025 12:57:59 GMT-0500 (Central Daylight Time),335071.1999999285,057_y_m_n_a.png,O,m,879,1,1,1895.7999999523163,333175.39999997616,7114,NNB,C,6
7,test,3,0.0,1-Back,1,m,Fri Mar 28 2025 12:57:59 GMT-0500 (Central Daylight Time),336687.10000002384,030_o_f_n_a.png,O,m,595,1,1,1611.9000000953674,335075.1999999285,7114,NNB,C,7
8,test,3,0.0,1-Back,1,m,Fri Mar 28 2025 12:57:59 GMT-0500 (Central Daylight Time),338586.2999999523,031_y_m_n_a.png,O,m,875,1,1,1895.1999999284744,336691.10000002384,7114,NNB,C,8
9,test,3,1.0,1-Back,1,z,Fri Mar 28 2025 12:57:59 GMT-0500 (Central Daylight Time),340202.5,031_y_m_n_a.png,O,z,592,1,1,1612.2000000476837,338590.2999999523,7114,NNB,C,9
10,test,3,0.0,1-Back,1,m,Fri Mar 28 2025 12:57:59 GMT-0500 (Central Daylight Time),341835.5,006_m_f_n_a.png,O,m,600,1,1,1628.8999999761581,340206.60000002384,7114,NNB,C,10
11,test,3,0.0,1-Back,1,m,Fri Mar 28 2025 12:57:59 GMT-0500 (Central Daylight Time),343551.39999997616,098_y_f_n_a.png,O,m,687,1,1,1711.8999999761581,341839.5,7114,NNB,C,11
12,test,3,1.0,1-Back,1,z,Fri Mar 28 2025 12:57:59 GMT-0500 (Central Daylight Time),345101.10000002384,098_y_f_n_a.png,O,z,523,1,1,1545.6000000238419,343555.5,7114,NNB,C,12
13,test,3,0.0,1-Back,1,m,Fri Mar 28 2025 12:57:59 GMT-0500 (Central Daylight Time),346767.10000002384,006_m_f_n_a.png,O,m,645,1,1,1662.1000000238419,345105.0,7114,NNB,C,13
14,test,3,0.0,1-Back,1,m,Fri Mar 28 2025 12:57:59 GMT-0500 (Central Daylight Time),348616.60000002384,092_m_m_n_a.png,O,m,819,1,1,1845.3000000715256,346771.2999999523,7114,NNB,C,14
15,test,3,1.0,1-Back,1,z,Fri Mar 28 2025 12:57:59 GMT-0500 (Central Daylight Time),350316.1999999285,092_m_m_n_a.png,O,z,674,1,1,1695.6999999284744,348620.5,7114,NNB,C,15
16,test,3,0.0,1-Back,1,m,Fri Mar 28 2025 12:57:59 GMT-0500 (Central Daylight Time),352265.5,130_o_f_n_a.png,O,m,926,1,1,1945.6000000238419,350319.89999997616,7114,NNB,C,16
17,test,3,1.0,1-Back,1,z,Fri Mar 28 2025 12:57:59 GMT-0500 (Central Daylight Time),353898.0,130_o_f_n_a.png,O,z,609,1,1,1628.6000000238419,352269.39999997616,7114,NNB,C,17
0,test,4,1.0,1-Back,,,Fri Mar 28 2025 12:57:59 GMT-0500 (Central Daylight Time),353898.0,093_m_f_n_a.png,O,space,1848,1,1,1628.6000000238419,352269.39999997616,7114,NNB,C,0
1,test,4,0.0,1-Back,1,m,Fri Mar 28 2025 12:57:59 GMT-0500 (Central Daylight Time),359463.10000002384,146_o_m_n_a.png,O,m,554,2,1,1578.4000000953674,357884.6999999285,7114,NNB,C,1
1,test,4,0.0,1-Back,0,m,Fri Mar 28 2025 12:57:59 GMT-0500 (Central Daylight Time),361295.89999997616,093_m_f_n_a.png,O,z,812,3,1,1829.0,359466.89999997616,7114,NNB,C,2
2,test,4,0.0,1-Back,1,m,Fri Mar 28 2025 12:57:59 GMT-0500 (Central Daylight Time),363261.6999999285,030_o_f_n_a.png,O,m,946,4,1,1961.2999999523163,361300.39999997616,7114,NNB,C,3
3,test,4,1.0,1-Back,1,z,Fri Mar 28 2025 12:57:59 GMT-0500 (Central Daylight Time),365078.0,030_o_f_n_a.png,O,z,788,5,1,1812.1000000238419,363265.89999997616,7114,NNB,C,4
4,test,4,0.0,1-Back,1,m,Fri Mar 28 2025 12:57:59 GMT-0500 (Central Daylight Time),367060.60000002384,098_y_f_n_a.png,O,m,956,6,1,1978.5,365082.10000002384,7114,NNB,C,5
5,test,4,0.0,1-Back,1,m,Fri Mar 28 2025 12:57:59 GMT-0500 (Central Daylight Time),368759.7999999523,057_y_m_n_a.png,O,m,678,7,1,1695.5,367064.2999999523,7114,NNB,C,6
6,test,4,1.0,1-Back,1,z,Fri Mar 28 2025 12:57:59 GMT-0500 (Central Daylight Time),370426.2999999523,057_y_m_n_a.png,O,z,642,8,1,1662.5,368763.7999999523,7114,NNB,C,7
7,test,4,0.0,1-Back,1,m,Fri Mar 28 2025 12:57:59 GMT-0500 (Central Daylight Time),372275.5,098_y_f_n_a.png,O,m,816,9,1,1845.3999999761581,370430.10000002384,7114,NNB,C,8
8,test,4,0.0,1-Back,1,m,Fri Mar 28 2025 12:57:59 GMT-0500 (Central Daylight Time),374224.6999999285,082_m_m_n_a.png,O,m,927,10,1,1945.3999999761581,372279.2999999523,7114,NNB,C,9
9,test,4,1.0,1-Back,1,z,Fri Mar 28 2025 12:57:59 GMT-0500 (Central Daylight Time),375824.2999999523,082_m_m_n_a.png,O,z,577,11,1,1595.7999999523163,374228.5,7114,NNB,C,10
10,test,4,0.0,1-Back,1,m,Fri Mar 28 2025 12:57:59 GMT-0500 (Central Daylight Time),378006.6999999285,130_o_f_n_a.png,O,m,1162,12,1,2178.5,375828.1999999285,7114,NNB,C,11
11,test,4,0.0,1-Back,1,m,Fri Mar 28 2025 12:57:59 GMT-0500 (Central Daylight Time),379689.6999999285,059_o_m_n_a.png,O,m,659,13,1,1678.8999999761581,378010.7999999523,7114,NNB,C,12
12,test,4,0.0,1-Back,1,m,Fri Mar 28 2025 12:57:59 GMT-0500 (Central Daylight Time),382205.39999997616,130_o_f_n_a.png,O,m,1497,14,1,2510.600000023842,379694.7999999523,7114,NNB,C,13
13,test,4,0.0,1-Back,1,m,Fri Mar 28 2025 12:57:59 GMT-0500 (Central Daylight Time),383971.60000002384,028_y_f_n_a.png,O,m,733,15,1,1762.3000000715256,382209.2999999523,7114,NNB,C,14
14,test,4,1.0,1-Back,1,z,Fri Mar 28 2025 12:57:59 GMT-0500 (Central Daylight Time),385521.1999999285,028_y_f_n_a.png,O,z,519,16,1,1545.6999999284744,383975.5,7114,NNB,C,15
15,test,4,0.0,1-Back,1,m,Fri Mar 28 2025 12:57:59 GMT-0500 (Central Daylight Time),387237.0,006_m_f_n_a.png,O,m,689,17,1,1711.8999999761581,385525.10000002384,7114,NNB,C,16
16,test,4,1.0,1-Back,1,z,Fri Mar 28 2025 12:57:59 GMT-0500 (Central Daylight Time),389053.1999999285,006_m_f_n_a.png,O,z,797,18,1,1811.8999999761581,387241.2999999523,7114,NNB,C,17
0,test,5,1.0,1-Back,,,Fri Mar 28 2025 12:57:59 GMT-0500 (Central Daylight Time),389053.1999999285,059_o_m_n_a.png,O,space,3237,1,1,1811.8999999761581,387241.2999999523,7114,NNB,C,0
1,test,5,1.0,1-Back,1,z,Fri Mar 28 2025 12:57:59 GMT-0500 (Central Daylight Time),396184.60000002384,059_o_m_n_a.png,O,z,719,2,1,1745.8000000715256,394438.7999999523,7114,NNB,C,1
2,test,5,0.0,1-Back,1,m,Fri Mar 28 2025 12:57:59 GMT-0500 (Central Daylight Time),397817.7999999523,098_y_f_n_a.png,O,m,610,3,1,1625.1999999284744,396192.60000002384,7114,NNB,C,2
3,test,5,0.0,1-Back,1,m,Fri Mar 28 2025 12:57:59 GMT-0500 (Central Daylight Time),399733.89999997616,057_y_m_n_a.png,O,m,873,4,1,1895.7999999523163,397838.10000002384,7114,NNB,C,3
4,test,5,0.0,1-Back,1,m,Fri Mar 28 2025 12:57:59 GMT-0500 (Central Daylight Time),401399.89999997616,098_y_f_n_a.png,O,m,628,5,1,1640.7999999523163,399759.10000002384,7114,NNB,C,4
5,test,5,0.0,1-Back,1,m,Fri Mar 28 2025 12:57:59 GMT-0500 (Central Daylight Time),403149.2999999523,092_m_m_n_a.png,O,m,715,6,1,1729.8999999761581,401419.39999997616,7114,NNB,C,5
6,test,5,1.0,1-Back,1,z,Fri Mar 28 2025 12:57:59 GMT-0500 (Central Daylight Time),404681.2999999523,092_m_m_n_a.png,O,z,507,7,1,1524.8999999761581,403156.39999997616,7114,NNB,C,6
7,test,5,0.0,1-Back,1,m,Fri Mar 28 2025 12:57:59 GMT-0500 (Central Daylight Time),406664.10000002384,028_y_f_n_a.png,O,m,961,8,1,1977.6000000238419,404686.5,7114,NNB,C,7
8,test,5,0.0,1-Back,1,m,Fri Mar 28 2025 12:57:59 GMT-0500 (Central Daylight Time),408543.6999999285,031_y_m_n_a.png,O,m,860,9,1,1874.3999999761581,406669.2999999523,7114,NNB,C,8
9,test,5,0.0,1-Back,1,m,Fri Mar 28 2025 12:57:59 GMT-0500 (Central Daylight Time),410297.1999999285,028_y_f_n_a.png,O,m,719,10,1,1746.0,408551.1999999285,7114,NNB,C,9
10,test,5,0.0,1-Back,1,m,Fri Mar 28 2025 12:57:59 GMT-0500 (Central Daylight Time),411996.60000002384,130_o_f_n_a.png,O,m,656,11,1,1678.7000000476837,410317.89999997616,7114,NNB,C,10
11,test,5,1.0,1-Back,1,z,Fri Mar 28 2025 12:57:59 GMT-0500 (Central Daylight Time),413530.60000002384,130_o_f_n_a.png,O,z,485,12,1,1512.9000000953674,412017.6999999285,7114,NNB,C,11
12,test,5,0.0,1-Back,1,m,Fri Mar 28 2025 12:57:59 GMT-0500 (Central Daylight Time),415412.2999999523,146_o_m_n_a.png,O,m,849,13,1,1873.8999999761581,413538.39999997616,7114,NNB,C,12
13,test,5,0.0,1-Back,1,m,Fri Mar 28 2025 12:57:59 GMT-0500 (Central Daylight Time),417078.0,093_m_f_n_a.png,O,m,614,14,1,1643.3999999761581,415434.60000002384,7114,NNB,C,13
14,test,5,1.0,1-Back,1,z,Fri Mar 28 2025 12:57:59 GMT-0500 (Central Daylight Time),418611.1999999285,093_m_f_n_a.png,O,z,484,15,1,1516.0,417095.1999999285,7114,NNB,C,14
15,test,5,0.0,1-Back,1,m,Fri Mar 28 2025 12:57:59 GMT-0500 (Central Daylight Time),420260.60000002384,146_o_m_n_a.png,O,m,608,16,1,1632.3000000715256,418628.2999999523,7114,NNB,C,15
16,test,5,0.0,1-Back,1,m,Fri Mar 28 2025 12:57:59 GMT-0500 (Central Daylight Time),422260.10000002384,006_m_f_n_a.png,O,m,949,17,1,1980.6000000238419,420279.5,7114,NNB,C,16
17,test,5,0.0,1-Back,1,m,Fri Mar 28 2025 12:57:59 GMT-0500 (Central Daylight Time),423959.2999999523,082_m_m_n_a.png,O,m,664,18,1,1679.3999999761581,422279.89999997616,7114,NNB,C,17
0,prac,1,0.0,2-Back,,,Fri Mar 28 2025 12:57:59 GMT-0500 (Central Daylight Time),423959.2999999523,031_y_m_n_a.png,O,space,14979,1,1,1679.3999999761581,422279.89999997616,7114,NNB,C,0
0,prac,1,0.0,2-Back,,,Fri Mar 28 2025 12:57:59 GMT-0500 (Central Daylight Time),423959.2999999523,006_m_f_n_a.png,O,space,14979,2,1,1679.3999999761581,422279.89999997616,7114,NNB,C,0
1,prac,1,1.0,2-Back,1,m,Fri Mar 28 2025 12:57:59 GMT-0500 (Central Daylight Time),550866.8999999762,146_o_m_n_a.png,O,m,844,3,1,1777.7000000476837,549089.1999999285,7114,NNB,C,1
1,prac,1,0.0,2-Back,0,m,Fri Mar 28 2025 12:57:59 GMT-0500 (Central Daylight Time),553816.7999999523,130_o_f_n_a.png,O,None,2009,4,1,2939.1999999284744,550877.6000000238,7114,NNB,C,2
1,prac,1,0.0,2-Back,0,z,Fri Mar 28 2025 12:57:59 GMT-0500 (Central Daylight Time),555665.8999999762,146_o_m_n_a.png,O,m,859,5,1,1820.1000000238419,553845.7999999523,7114,NNB,C,3
1,prac,1,1.0,2-Back,0,z,Fri Mar 28 2025 12:57:59 GMT-0500 (Central Daylight Time),557782.1999999285,130_o_f_n_a.png,O,m,1123,6,1,2085.399999976158,555696.7999999523,7114,NNB,C,4
2,prac,1,0.0,2-Back,1,m,Fri Mar 28 2025 12:57:59 GMT-0500 (Central Daylight Time),560614.2999999523,082_m_m_n_a.png,O,m,1888,7,1,2802.2999999523163,557812.0,7114,NNB,C,5
3,prac,1,0.0,2-Back,1,m,Fri Mar 28 2025 12:57:59 GMT-0500 (Central Daylight Time),563430.1999999285,059_o_m_n_a.png,O,m,1844,8,1,2772.2999999523163,560657.8999999762,7114,NNB,C,6
4,prac,1,0.0,2-Back,1,m,Fri Mar 28 2025 12:57:59 GMT-0500 (Central Daylight Time),565479.6000000238,028_y_f_n_a.png,O,m,1101,9,1,2015.1000000238419,563464.5,7114,NNB,C,7
5,prac,1,1.0,2-Back,1,z,Fri Mar 28 2025 12:57:59 GMT-0500 (Central Daylight Time),567445.7999999523,059_o_m_n_a.png,O,z,1156,10,1,1934.5,565511.2999999523,7114,NNB,C,8
6,prac,1,0.0,2-Back,1,m,Fri Mar 28 2025 12:57:59 GMT-0500 (Central Daylight Time),569277.7999999523,098_y_f_n_a.png,O,m,912,11,1,1810.5,567467.2999999523,7114,NNB,C,9
7,prac,1,0.0,2-Back,1,m,Fri Mar 28 2025 12:57:59 GMT-0500 (Central Daylight Time),571544.3999999762,082_m_m_n_a.png,O,m,1336,12,1,2248.7000000476837,569295.6999999285,7114,NNB,C,10
0,test,1,0.0,2-Back,,,Fri Mar 28 2025 12:57:59 GMT-0500 (Central Daylight Time),571544.3999999762,057_y_m_n_a.png,O,space,27294,1,1,2248.7000000476837,569295.6999999285,7114,NNB,C,0
0,test,1,0.0,2-Back,,,Fri Mar 28 2025 12:57:59 GMT-0500 (Central Daylight Time),571544.3999999762,057_y_m_n_a.png,O,space,27294,2,1,2248.7000000476837,569295.6999999285,7114,NNB,C,0
1,test,1,0.0,2-Back,1,m,Fri Mar 28 2025 12:57:59 GMT-0500 (Central Daylight Time),614480.1999999285,130_o_f_n_a.png,O,m,522,3,1,1546.0999999046326,612934.1000000238,7114,NNB,C,1
2,test,1,0.0,2-Back,1,m,Fri Mar 28 2025 12:57:59 GMT-0500 (Central Daylight Time),616646.1000000238,092_m_m_n_a.png,O,m,1131,4,1,2146.8000000715256,614499.2999999523,7114,NNB,C,2
3,test,1,1.0,2-Back,1,z,Fri Mar 28 2025 12:57:59 GMT-0500 (Central Daylight Time),618911.6999999285,130_o_f_n_a.png,O,z,1226,5,1,2245.1999999284744,616666.5,7114,NNB,C,3
4,test,1,0.0,2-Back,1,m,Fri Mar 28 2025 12:57:59 GMT-0500 (Central Daylight Time),620878.0,098_y_f_n_a.png,O,m,923,6,1,1948.2000000476837,618929.7999999523,7114,NNB,C,4
4,test,1,0.0,2-Back,0,m,Fri Mar 28 2025 12:57:59 GMT-0500 (Central Daylight Time),622760.7999999523,092_m_m_n_a.png,O,z,836,7,1,1856.5,620904.2999999523,7114,NNB,C,5
4,test,1,1.0,2-Back,0,z,Fri Mar 28 2025 12:57:59 GMT-0500 (Central Daylight Time),624526.5,098_y_f_n_a.png,O,m,730,8,1,1745.2000000476837,622781.2999999523,7114,NNB,C,6
5,test,1,0.0,2-Back,1,m,Fri Mar 28 2025 12:57:59 GMT-0500 (Central Daylight Time),626942.1999999285,031_y_m_n_a.png,O,m,1380,9,1,2390.899999976158,624551.2999999523,7114,NNB,C,7
6,test,1,0.0,2-Back,1,m,Fri Mar 28 2025 12:57:59 GMT-0500 (Central Daylight Time),629108.8999999762,030_o_f_n_a.png,O,m,1116,10,1,2148.0,626960.8999999762,7114,NNB,C,8
7,test,1,1.0,2-Back,1,z,Fri Mar 28 2025 12:57:59 GMT-0500 (Central Daylight Time),630924.5,031_y_m_n_a.png,O,z,774,11,1,1796.5,629128.0,7114,NNB,C,9
8,test,1,0.0,2-Back,1,m,Fri Mar 28 2025 12:57:59 GMT-0500 (Central Daylight Time),632857.3999999762,006_m_f_n_a.png,O,m,886,12,1,1915.5,630941.8999999762,7114,NNB,C,10
8,test,1,0.0,2-Back,0,m,Fri Mar 28 2025 12:57:59 GMT-0500 (Central Daylight Time),635907.1000000238,006_m_f_n_a.png,O,None,2013,13,1,3029.5,632877.6000000238,7114,NNB,C,11
9,test,1,0.0,2-Back,1,m,Fri Mar 28 2025 12:57:59 GMT-0500 (Central Daylight Time),638105.6000000238,146_o_m_n_a.png,O,m,1169,14,1,2189.100000023842,635916.5,7114,NNB,C,12
10,test,1,0.0,2-Back,1,m,Fri Mar 28 2025 12:57:59 GMT-0500 (Central Daylight Time),640205.5,030_o_f_n_a.png,O,m,1082,15,1,2087.100000023842,638118.3999999762,7114,NNB,C,13
11,test,1,1.0,2-Back,1,z,Fri Mar 28 2025 12:57:59 GMT-0500 (Central Daylight Time),642021.1999999285,146_o_m_n_a.png,O,z,782,16,1,1795.2999999523163,640225.8999999762,7114,NNB,C,14
12,test,1,0.0,2-Back,1,m,Fri Mar 28 2025 12:57:59 GMT-0500 (Central Daylight Time),644037.1000000238,093_m_f_n_a.png,O,m,974,17,1,1998.2000000476837,642038.8999999762,7114,NNB,C,15
13,test,1,0.0,2-Back,1,m,Fri Mar 28 2025 12:57:59 GMT-0500 (Central Daylight Time),646102.6999999285,082_m_m_n_a.png,O,m,1030,18,1,2045.6999999284744,644057.0,7114,NNB,C,16
0,test,2,0.0,2-Back,,,Fri Mar 28 2025 12:57:59 GMT-0500 (Central Daylight Time),646102.6999999285,082_m_m_n_a.png,O,space,3609,1,1,2045.6999999284744,644057.0,7114,NNB,C,0
0,test,2,0.0,2-Back,,,Fri Mar 28 2025 12:57:59 GMT-0500 (Central Daylight Time),646102.6999999285,028_y_f_n_a.png,O,space,3609,2,1,2045.6999999284744,644057.0,7114,NNB,C,0
1,test,2,1.0,2-Back,1,z,Fri Mar 28 2025 12:57:59 GMT-0500 (Central Daylight Time),656532.7999999523,082_m_m_n_a.png,O,z,575,3,1,1596.1000000238419,654936.6999999285,7114,NNB,C,1
2,test,2,0.0,2-Back,1,m,Fri Mar 28 2025 12:57:59 GMT-0500 (Central Daylight Time),658831.5,093_m_f_n_a.png,O,m,1252,4,1,2278.2000000476837,656553.2999999523,7114,NNB,C,2
2,test,2,0.0,2-Back,0,m,Fri Mar 28 2025 12:57:59 GMT-0500 (Central Daylight Time),660464.6000000238,028_y_f_n_a.png,O,z,611,5,1,1627.4000000953674,658837.1999999285,7114,NNB,C,3
3,test,2,0.0,2-Back,1,m,Fri Mar 28 2025 12:57:59 GMT-0500 (Central Daylight Time),662864.1999999285,146_o_m_n_a.png,O,m,1354,6,1,2372.2999999523163,660491.8999999762,7114,NNB,C,4
4,test,2,0.0,2-Back,1,m,Fri Mar 28 2025 12:57:59 GMT-0500 (Central Daylight Time),664996.8999999762,098_y_f_n_a.png,O,m,1083,7,1,2111.2000000476837,662885.6999999285,7114,NNB,C,5
5,test,2,1.0,2-Back,1,z,Fri Mar 28 2025 12:57:59 GMT-0500 (Central Daylight Time),667063.0,146_o_m_n_a.png,O,z,1022,8,1,2047.5,665015.5,7114,NNB,C,6
6,test,2,0.0,2-Back,1,m,Fri Mar 28 2025 12:57:59 GMT-0500 (Central Daylight Time),668811.3999999762,031_y_m_n_a.png,O,m,700,9,1,1728.7000000476837,667082.6999999285,7114,NNB,C,7
7,test,2,0.0,2-Back,1,m,Fri Mar 28 2025 12:57:59 GMT-0500 (Central Daylight Time),670711.1999999285,031_y_m_n_a.png,O,m,879,10,1,1893.6999999284744,668817.5,7114,NNB,C,8
8,test,2,0.0,2-Back,1,m,Fri Mar 28 2025 12:57:59 GMT-0500 (Central Daylight Time),673160.7999999523,006_m_f_n_a.png,O,m,1411,11,1,2431.7999999523163,670729.0,7114,NNB,C,9
9,test,2,0.0,2-Back,1,m,Fri Mar 28 2025 12:57:59 GMT-0500 (Central Daylight Time),675776.6000000238,028_y_f_n_a.png,O,m,1578,12,1,2596.5,673180.1000000238,7114,NNB,C,10
9,test,2,1.0,2-Back,0,z,Fri Mar 28 2025 12:57:59 GMT-0500 (Central Daylight Time),678225.8999999762,006_m_f_n_a.png,O,m,1402,13,1,2431.399999976158,675794.5,7114,NNB,C,11
10,test,2,0.0,2-Back,1,m,Fri Mar 28 2025 12:57:59 GMT-0500 (Central Daylight Time),680241.7999999523,059_o_m_n_a.png,O,m,967,14,1,1994.2999999523163,678247.5,7114,NNB,C,12
10,test,2,0.0,2-Back,0,m,Fri Mar 28 2025 12:57:59 GMT-0500 (Central Daylight Time),683291.1000000238,059_o_m_n_a.png,O,None,2015,15,1,3029.5,680261.6000000238,7114,NNB,C,13
11,test,2,0.0,2-Back,1,m,Fri Mar 28 2025 12:57:59 GMT-0500 (Central Daylight Time),685273.7999999523,030_o_f_n_a.png,O,m,944,16,1,1964.1000000238419,683309.6999999285,7114,NNB,C,14
12,test,2,0.0,2-Back,1,m,Fri Mar 28 2025 12:57:59 GMT-0500 (Central Daylight Time),687289.3999999762,092_m_m_n_a.png,O,m,969,17,1,1995.0,685294.3999999762,7114,NNB,C,15
13,test,2,1.0,2-Back,1,z,Fri Mar 28 2025 12:57:59 GMT-0500 (Central Daylight Time),688904.6999999285,030_o_f_n_a.png,O,z,576,18,1,1597.0,687307.6999999285,7114,NNB,C,16
0,test,3,1.0,2-Back,,,Fri Mar 28 2025 12:57:59 GMT-0500 (Central Daylight Time),688904.6999999285,057_y_m_n_a.png,O,space,4057,1,1,1597.0,687307.6999999285,7114,NNB,C,0
0,test,3,1.0,2-Back,,,Fri Mar 28 2025 12:57:59 GMT-0500 (Central Daylight Time),688904.6999999285,057_y_m_n_a.png,O,space,4057,2,1,1597.0,687307.6999999285,7114,NNB,C,0
1,test,3,0.0,2-Back,1,m,Fri Mar 28 2025 12:57:59 GMT-0500 (Central Daylight Time),699802.1000000238,030_o_f_n_a.png,O,m,577,3,1,1590.7000000476837,698211.3999999762,7114,NNB,C,1
2,test,3,0.0,2-Back,1,m,Fri Mar 28 2025 12:57:59 GMT-0500 (Central Daylight Time),701668.0,082_m_m_n_a.png,O,m,808,4,1,1834.3999999761581,699833.6000000238,7114,NNB,C,2
3,test,3,1.0,2-Back,1,z,Fri Mar 28 2025 12:57:59 GMT-0500 (Central Daylight Time),703300.7999999523,030_o_f_n_a.png,O,z,583,5,1,1614.1999999284744,701686.6000000238,7114,NNB,C,3
4,test,3,0.0,2-Back,1,m,Fri Mar 28 2025 12:57:59 GMT-0500 (Central Daylight Time),705283.5,031_y_m_n_a.png,O,m,942,6,1,1965.6000000238419,703317.8999999762,7114,NNB,C,4
4,test,3,0.0,2-Back,0,m,Fri Mar 28 2025 12:57:59 GMT-0500 (Central Daylight Time),707816.0,082_m_m_n_a.png,O,z,1495,7,1,2514.3000000715256,705301.6999999285,7114,NNB,C,5
4,test,3,1.0,2-Back,0,z,Fri Mar 28 2025 12:57:59 GMT-0500 (Central Daylight Time),709598.5,031_y_m_n_a.png,O,m,746,8,1,1762.8999999761581,707835.6000000238,7114,NNB,C,6
5,test,3,0.0,2-Back,1,m,Fri Mar 28 2025 12:57:59 GMT-0500 (Central Daylight Time),712197.1000000238,028_y_f_n_a.png,O,m,1562,9,1,2575.8000000715256,709621.2999999523,7114,NNB,C,7
6,test,3,0.0,2-Back,1,m,Fri Mar 28 2025 12:57:59 GMT-0500 (Central Daylight Time),714597.5,092_m_m_n_a.png,O,m,1383,10,1,2395.0,712202.5,7114,NNB,C,8
7,test,3,1.0,2-Back,1,z,Fri Mar 28 2025 12:57:59 GMT-0500 (Central Daylight Time),716413.1000000238,028_y_f_n_a.png,O,z,773,11,1,1798.8000000715256,714614.2999999523,7114,NNB,C,9
8,test,3,1.0,2-Back,1,z,Fri Mar 28 2025 12:57:59 GMT-0500 (Central Daylight Time),718529.2999999523,092_m_m_n_a.png,O,z,1070,12,1,2090.7999999523163,716438.5,7114,NNB,C,10
9,test,3,0.0,2-Back,1,m,Fri Mar 28 2025 12:57:59 GMT-0500 (Central Daylight Time),720645.1999999285,030_o_f_n_a.png,O,m,1074,13,1,2095.6999999284744,718549.5,7114,NNB,C,11
10,test,3,0.0,2-Back,1,m,Fri Mar 28 2025 12:57:59 GMT-0500 (Central Daylight Time),722711.0,093_m_f_n_a.png,O,m,1023,14,1,2044.6000000238419,720666.3999999762,7114,NNB,C,12
11,test,3,0.0,2-Back,1,m,Fri Mar 28 2025 12:57:59 GMT-0500 (Central Daylight Time),724643.6999999285,146_o_m_n_a.png,O,m,892,15,1,1913.1999999284744,722730.5,7114,NNB,C,13
11,test,3,1.0,2-Back,0,z,Fri Mar 28 2025 12:57:59 GMT-0500 (Central Daylight Time),727076.6000000238,093_m_f_n_a.png,O,m,1383,16,1,2409.8000000715256,724666.7999999523,7114,NNB,C,14
12,test,3,0.0,2-Back,1,m,Fri Mar 28 2025 12:57:59 GMT-0500 (Central Daylight Time),729145.7999999523,130_o_f_n_a.png,O,m,1034,17,1,2051.899999976158,727093.8999999762,7114,NNB,C,15
13,test,3,0.0,2-Back,1,m,Fri Mar 28 2025 12:57:59 GMT-0500 (Central Daylight Time),731807.8999999762,130_o_f_n_a.png,O,m,1628,18,1,2642.399999976158,729165.5,7114,NNB,C,16
0,test,4,0.0,2-Back,,,Fri Mar 28 2025 12:57:59 GMT-0500 (Central Daylight Time),731807.8999999762,059_o_m_n_a.png,O,space,3659,1,1,2642.399999976158,729165.5,7114,NNB,C,0
0,test,4,0.0,2-Back,,,Fri Mar 28 2025 12:57:59 GMT-0500 (Central Daylight Time),731807.8999999762,098_y_f_n_a.png,O,space,3659,2,1,2642.399999976158,729165.5,7114,NNB,C,0
1,test,4,1.0,2-Back,1,z,Fri Mar 28 2025 12:57:59 GMT-0500 (Central Daylight Time),742521.1000000238,059_o_m_n_a.png,O,z,644,3,1,1654.7000000476837,740866.3999999762,7114,NNB,C,1
1,test,4,1.0,2-Back,0,z,Fri Mar 28 2025 12:57:59 GMT-0500 (Central Daylight Time),744454.0,098_y_f_n_a.png,O,m,897,4,1,1913.8999999761581,742540.1000000238,7114,NNB,C,2
2,test,4,0.0,2-Back,1,m,Fri Mar 28 2025 12:57:59 GMT-0500 (Central Daylight Time),746553.2999999523,030_o_f_n_a.png,O,m,1060,5,1,2079.399999976158,744473.8999999762,7114,NNB,C,3
3,test,4,0.0,2-Back,1,m,Fri Mar 28 2025 12:57:59 GMT-0500 (Central Daylight Time),749285.6999999285,030_o_f_n_a.png,O,m,1690,6,1,2714.0999999046326,746571.6000000238,7114,NNB,C,4
4,test,4,0.0,2-Back,1,m,Fri Mar 28 2025 12:57:59 GMT-0500 (Central Daylight Time),751401.6000000238,006_m_f_n_a.png,O,m,1075,7,1,2090.5,749311.1000000238,7114,NNB,C,5
5,test,4,0.0,2-Back,1,m,Fri Mar 28 2025 12:57:59 GMT-0500 (Central Daylight Time),753650.3999999762,031_y_m_n_a.png,O,m,1208,8,1,2229.2000000476837,751421.1999999285,7114,NNB,C,6
6,test,4,1.0,2-Back,1,z,Fri Mar 28 2025 12:57:59 GMT-0500 (Central Daylight Time),755333.6000000238,006_m_f_n_a.png,O,z,656,9,1,1675.4000000953674,753658.1999999285,7114,NNB,C,7
7,test,4,0.0,2-Back,1,m,Fri Mar 28 2025 12:57:59 GMT-0500 (Central Daylight Time),757532.7999999523,092_m_m_n_a.png,O,m,1150,10,1,2180.5,755352.2999999523,7114,NNB,C,8
7,test,4,0.0,2-Back,0,m,Fri Mar 28 2025 12:57:59 GMT-0500 (Central Daylight Time),759831.6000000238,031_y_m_n_a.png,O,z,1252,11,1,2276.7000000476837,757554.8999999762,7114,NNB,C,9
8,test,4,0.0,2-Back,1,m,Fri Mar 28 2025 12:57:59 GMT-0500 (Central Daylight Time),761714.8999999762,130_o_f_n_a.png,O,m,850,12,1,1877.7000000476837,759837.1999999285,7114,NNB,C,10
9,test,4,0.0,2-Back,1,m,Fri Mar 28 2025 12:57:59 GMT-0500 (Central Daylight Time),764064.2999999523,057_y_m_n_a.png,O,m,1302,13,1,2333.600000023842,761730.6999999285,7114,NNB,C,11
10,test,4,1.0,2-Back,1,z,Fri Mar 28 2025 12:57:59 GMT-0500 (Central Daylight Time),765646.1000000238,130_o_f_n_a.png,O,z,538,14,1,1563.4000000953674,764082.6999999285,7114,NNB,C,12
11,test,4,1.0,2-Back,1,z,Fri Mar 28 2025 12:57:59 GMT-0500 (Central Daylight Time),768079.6000000238,057_y_m_n_a.png,O,z,1404,15,1,2429.9000000953674,765649.6999999285,7114,NNB,C,13
12,test,4,0.0,2-Back,1,m,Fri Mar 28 2025 12:57:59 GMT-0500 (Central Daylight Time),770179.0,082_m_m_n_a.png,O,m,1050,16,1,2081.7000000476837,768097.2999999523,7114,NNB,C,14
13,test,4,0.0,2-Back,1,m,Fri Mar 28 2025 12:57:59 GMT-0500 (Central Daylight Time),772094.8999999762,093_m_f_n_a.png,O,m,871,17,1,1893.1000000238419,770201.7999999523,7114,NNB,C,15
14,test,4,1.0,2-Back,1,z,Fri Mar 28 2025 12:57:59 GMT-0500 (Central Daylight Time),773777.6000000238,082_m_m_n_a.png,O,z,643,18,1,1663.0,772114.6000000238,7114,NNB,C,16
0,test,5,1.0,2-Back,,,Fri Mar 28 2025 12:57:59 GMT-0500 (Central Daylight Time),773777.6000000238,057_y_m_n_a.png,O,space,2149,1,1,1663.0,772114.6000000238,7114,NNB,C,0
0,test,5,1.0,2-Back,,,Fri Mar 28 2025 12:57:59 GMT-0500 (Central Daylight Time),773777.6000000238,093_m_f_n_a.png,O,space,2149,2,1,1663.0,772114.6000000238,7114,NNB,C,0
1,test,5,1.0,2-Back,1,z,Fri Mar 28 2025 12:57:59 GMT-0500 (Central Daylight Time),782574.2999999523,057_y_m_n_a.png,O,z,543,3,1,1562.7999999523163,781011.5,7114,NNB,C,1
1,test,5,1.0,2-Back,0,z,Fri Mar 28 2025 12:57:59 GMT-0500 (Central Daylight Time),784274.3999999762,093_m_f_n_a.png,O,m,652,4,1,1681.7999999523163,782592.6000000238,7114,NNB,C,2
2,test,5,0.0,2-Back,1,m,Fri Mar 28 2025 12:57:59 GMT-0500 (Central Daylight Time),786223.7999999523,130_o_f_n_a.png,O,m,912,5,1,1928.1000000238419,784295.6999999285,7114,NNB,C,3
3,test,5,0.0,2-Back,1,m,Fri Mar 28 2025 12:57:59 GMT-0500 (Central Daylight Time),789039.5,057_y_m_n_a.png,O,m,1772,6,1,2799.899999976158,786239.6000000238,7114,NNB,C,4
4,test,5,0.0,2-Back,1,m,Fri Mar 28 2025 12:57:59 GMT-0500 (Central Daylight Time),791155.0,028_y_f_n_a.png,O,m,1050,7,1,2069.5,789085.5,7114,NNB,C,5
4,test,5,0.0,2-Back,0,m,Fri Mar 28 2025 12:57:59 GMT-0500 (Central Daylight Time),793488.0,130_o_f_n_a.png,O,z,1289,8,1,2312.399999976158,791175.6000000238,7114,NNB,C,6
5,test,5,1.0,2-Back,1,z,Fri Mar 28 2025 12:57:59 GMT-0500 (Central Daylight Time),795870.0,028_y_f_n_a.png,O,z,1346,9,1,2354.7000000476837,793515.2999999523,7114,NNB,C,7
6,test,5,0.0,2-Back,1,m,Fri Mar 28 2025 12:57:59 GMT-0500 (Central Daylight Time),797686.2999999523,146_o_m_n_a.png,O,m,780,10,1,1798.6999999284744,795887.6000000238,7114,NNB,C,8
7,test,5,0.0,2-Back,1,m,Fri Mar 28 2025 12:57:59 GMT-0500 (Central Daylight Time),800185.5,006_m_f_n_a.png,O,m,1460,11,1,2476.100000023842,797709.3999999762,7114,NNB,C,9
8,test,5,0.0,2-Back,1,m,Fri Mar 28 2025 12:57:59 GMT-0500 (Central Daylight Time),802254.0,092_m_m_n_a.png,O,m,1033,12,1,2050.100000023842,800203.8999999762,7114,NNB,C,10
9,test,5,0.0,2-Back,1,m,Fri Mar 28 2025 12:57:59 GMT-0500 (Central Daylight Time),804551.1000000238,146_o_m_n_a.png,O,m,1255,13,1,2273.7000000476837,802277.3999999762,7114,NNB,C,11
10,test,5,1.0,2-Back,1,z,Fri Mar 28 2025 12:57:59 GMT-0500 (Central Daylight Time),806400.1999999285,092_m_m_n_a.png,O,z,812,14,1,1828.0999999046326,804572.1000000238,7114,NNB,C,12
11,test,5,0.0,2-Back,1,m,Fri Mar 28 2025 12:57:59 GMT-0500 (Central Daylight Time),808433.1999999285,098_y_f_n_a.png,O,m,994,15,1,2014.8999999761581,806418.2999999523,7114,NNB,C,13
11,test,5,0.0,2-Back,0,m,Fri Mar 28 2025 12:57:59 GMT-0500 (Central Daylight Time),810615.6000000238,059_o_m_n_a.png,O,z,1138,16,1,2159.7000000476837,808455.8999999762,7114,NNB,C,14
12,test,5,0.0,2-Back,1,m,Fri Mar 28 2025 12:57:59 GMT-0500 (Central Daylight Time),812414.6999999285,006_m_f_n_a.png,O,m,763,17,1,1777.5999999046326,810637.1000000238,7114,NNB,C,15
13,test,5,1.0,2-Back,1,z,Fri Mar 28 2025 12:57:59 GMT-0500 (Central Daylight Time),814581.3999999762,059_o_m_n_a.png,O,z,1132,18,1,2145.100000023842,812436.2999999523,7114,NNB,C,16
