acc_sum,block,block_c,block_cond,con_img,correct,correct_response,datetime,endtime,face,jitter,line,project,response,response_time,row_sel,session_number,start_end,starttime,subject_id,task,task_vers,trial
1,prac,1,A,haborder.png,1,z,Fri Feb 28 2025 10:08:37 GMT-0600 (Central Standard Time),76540.30000001192,CFD-WF-013-015-A.jpg,1000,solid,O,z,937,12,1,2717.899999976158,73822.40000003576,7069,ATS,B,1
2,prac,1,A,haborder.png,1,m,Fri Feb 28 2025 10:08:37 GMT-0600 (Central Standard Time),79587.70000004768,CFD-BM-020-024-HC.jpg,1500,solid,O,m,764,3,1,5765.300000011921,73822.40000003576,7069,ATS,B,2
3,prac,1,A,haborder.png,1,m,Fri Feb 28 2025 10:08:37 GMT-0600 (Central Standard Time),83354.30000001192,CFD-BF-035-007-HC.jpg,2000,solid,O,m,974,5,1,9531.899999976158,73822.40000003576,7069,ATS,B,3
4,prac,1,A,haborder.png,1,z,Fri Feb 28 2025 10:08:37 GMT-0600 (Central Standard Time),86569.10000002384,CFD-WF-026-008-A.jpg,1600,solid,O,z,832,10,1,12746.699999988079,73822.40000003576,7069,ATS,B,4
5,prac,1,A,haborder.png,1,z,Fri Feb 28 2025 10:08:37 GMT-0600 (Central Standard Time),89635.40000003576,CFD-BF-051-043-A.jpg,1000,solid,O,z,1284,4,1,15813.0,73822.40000003576,7069,ATS,B,5
6,prac,1,A,haborder.png,1,m,Fri Feb 28 2025 10:08:37 GMT-0600 (Central Standard Time),92885.0,CFD-WM-012-007-HC.jpg,1700,solid,O,m,771,9,1,19062.599999964237,73822.40000003576,7069,ATS,B,6
7,prac,1,A,haborder.png,1,z,Fri Feb 28 2025 10:08:37 GMT-0600 (Central Standard Time),96382.20000004768,CFD-BM-037-041-A.jpg,1600,solid,O,z,1111,2,1,22559.80000001192,73822.40000003576,7069,ATS,B,7
8,prac,1,A,haborder.png,1,m,Fri Feb 28 2025 10:08:37 GMT-0600 (Central Standard Time),99531.0,CFD-WF-011-006-HC.jpg,1500,solid,O,m,854,11,1,25708.599999964237,73822.40000003576,7069,ATS,B,8
9,prac,1,A,haborder.png,1,z,Fri Feb 28 2025 10:08:37 GMT-0600 (Central Standard Time),102997.80000001192,CFD-WM-009-009-A.jpg,1900,solid,O,z,791,8,1,29175.399999976158,73822.40000003576,7069,ATS,B,9
9,prac,1,A,haborder.png,0,m,Fri Feb 28 2025 10:08:37 GMT-0600 (Central Standard Time),106280.0,CFD-WM-011-006-HC.jpg,1400,solid,O,z,1091,7,1,32457.599999964237,73822.40000003576,7069,ATS,B,10
10,prac,1,A,haborder.png,1,m,Fri Feb 28 2025 10:08:37 GMT-0600 (Central Standard Time),110011.90000003576,CFD-BM-015-017-HC.jpg,1700,solid,O,m,1239,1,1,36189.5,73822.40000003576,7069,ATS,B,11
11,prac,1,A,haborder.png,1,z,Fri Feb 28 2025 10:08:37 GMT-0600 (Central Standard Time),112944.80000001192,CFD-BF-050-012-A.jpg,1200,solid,O,z,942,6,1,39122.39999997616,73822.40000003576,7069,ATS,B,12
1,prac,1,B,mfborder.png,1,m,Fri Feb 28 2025 10:08:37 GMT-0600 (Central Standard Time),155564.30000001192,CFD-BM-041-048-A.jpg,1600,dash,O,m,1155,2,1,3549.899999976158,152014.40000003576,7069,ATS,B,1
2,prac,1,B,mfborder.png,1,m,Fri Feb 28 2025 10:08:37 GMT-0600 (Central Standard Time),159481.20000004768,CFD-BM-037-041-A.jpg,2000,dash,O,m,1132,5,1,7466.800000011921,152014.40000003576,7069,ATS,B,2
3,prac,1,B,mfborder.png,1,z,Fri Feb 28 2025 10:08:37 GMT-0600 (Central Standard Time),162128.90000003576,CFD-BF-051-043-A.jpg,1000,dash,O,z,859,4,1,10114.5,152014.40000003576,7069,ATS,B,3
4,prac,1,B,mfborder.png,1,z,Fri Feb 28 2025 10:08:37 GMT-0600 (Central Standard Time),166078.0,CFD-WF-027-007-HC.jpg,1900,dash,O,z,1253,8,1,14063.599999964237,152014.40000003576,7069,ATS,B,4
5,prac,1,B,mfborder.png,1,z,Fri Feb 28 2025 10:08:37 GMT-0600 (Central Standard Time),169193.5,CFD-BF-027-013-HC.jpg,1500,dash,O,z,823,3,1,17179.099999964237,152014.40000003576,7069,ATS,B,5
5,prac,1,B,mfborder.png,0,m,Fri Feb 28 2025 10:08:37 GMT-0600 (Central Standard Time),173207.90000003576,CFD-BM-020-024-HC.jpg,1700,dash,O,None,1515,1,1,21193.5,152014.40000003576,7069,ATS,B,6
5,prac,1,B,mfborder.png,0,z,Fri Feb 28 2025 10:08:37 GMT-0600 (Central Standard Time),177007.30000001192,CFD-WF-026-008-A.jpg,1500,dash,O,None,1517,11,1,24992.899999976158,152014.40000003576,7069,ATS,B,7
6,prac,1,B,mfborder.png,1,z,Fri Feb 28 2025 10:08:37 GMT-0600 (Central Standard Time),179806.60000002384,CFD-WF-011-006-HC.jpg,1000,dash,O,z,1002,12,1,27792.19999998808,152014.40000003576,7069,ATS,B,8
7,prac,1,B,mfborder.png,1,m,Fri Feb 28 2025 10:08:37 GMT-0600 (Central Standard Time),183306.20000004768,CFD-WM-009-009-A.jpg,1700,dash,O,m,1016,9,1,31291.80000001192,152014.40000003576,7069,ATS,B,9
8,prac,1,B,mfborder.png,1,z,Fri Feb 28 2025 10:08:37 GMT-0600 (Central Standard Time),186353.20000004768,CFD-BF-035-007-HC.jpg,1400,dash,O,z,856,7,1,34338.80000001192,152014.40000003576,7069,ATS,B,10
9,prac,1,B,mfborder.png,1,m,Fri Feb 28 2025 10:08:37 GMT-0600 (Central Standard Time),189468.80000001192,CFD-WM-012-007-HC.jpg,1600,dash,O,m,719,10,1,37454.39999997616,152014.40000003576,7069,ATS,B,11
10,prac,1,B,mfborder.png,1,m,Fri Feb 28 2025 10:08:37 GMT-0600 (Central Standard Time),192251.60000002384,CFD-WM-037-060-A.jpg,1200,dash,O,m,797,6,1,40237.19999998808,152014.40000003576,7069,ATS,B,12
1,test,1,A,haborder.png,1,m,Fri Feb 28 2025 10:08:37 GMT-0600 (Central Standard Time),218760.40000003576,CFD-BM-015-017-HC.jpg,1700,solid,O,m,688,1,1,2414.300000011921,216346.10000002384,7069,ATS,B,1
2,test,1,A,haborder.png,1,m,Fri Feb 28 2025 10:08:37 GMT-0600 (Central Standard Time),221125.20000004768,CFD-WM-012-007-HC.jpg,1700,solid,O,m,638,9,1,4779.100000023842,216346.10000002384,7069,ATS,B,2
3,test,1,A,haborder.png,1,m,Fri Feb 28 2025 10:08:37 GMT-0600 (Central Standard Time),223576.5,CFD-BM-015-017-HC.jpg,1700,solid,O,m,725,1,1,7230.399999976158,216346.10000002384,7069,ATS,B,3
3,test,1,A,haborder.png,0,m,Fri Feb 28 2025 10:08:37 GMT-0600 (Central Standard Time),225841.60000002384,CFD-WF-011-006-HC.jpg,1500,solid,O,z,737,11,1,9495.5,216346.10000002384,7069,ATS,B,4
3,test,1,A,haborder.png,0,z,Fri Feb 28 2025 10:08:37 GMT-0600 (Central Standard Time),228973.5,CFD-WF-026-008-A.jpg,1600,solid,O,None,1514,10,1,12627.399999976158,216346.10000002384,7069,ATS,B,5
4,test,1,A,haborder.png,1,z,Fri Feb 28 2025 10:08:37 GMT-0600 (Central Standard Time),230839.10000002384,CFD-BF-051-043-A.jpg,1000,solid,O,z,843,4,1,14493.0,216346.10000002384,7069,ATS,B,6
5,test,1,A,haborder.png,1,m,Fri Feb 28 2025 10:08:37 GMT-0600 (Central Standard Time),233254.60000002384,CFD-BM-020-024-HC.jpg,1500,solid,O,m,894,3,1,16908.5,216346.10000002384,7069,ATS,B,7
6,test,1,A,haborder.png,1,m,Fri Feb 28 2025 10:08:37 GMT-0600 (Central Standard Time),236358.30000001192,CFD-BF-035-007-HC.jpg,2000,solid,O,m,1085,5,1,20012.19999998808,216346.10000002384,7069,ATS,B,8
7,test,1,A,haborder.png,1,z,Fri Feb 28 2025 10:08:37 GMT-0600 (Central Standard Time),238404.10000002384,CFD-WF-013-015-A.jpg,1000,solid,O,z,1026,12,1,22058.0,216346.10000002384,7069,ATS,B,9
8,test,1,A,haborder.png,1,m,Fri Feb 28 2025 10:08:37 GMT-0600 (Central Standard Time),241602.60000002384,CFD-BF-035-007-HC.jpg,2000,solid,O,m,1181,5,1,25256.5,216346.10000002384,7069,ATS,B,10
9,test,1,A,haborder.png,1,m,Fri Feb 28 2025 10:08:37 GMT-0600 (Central Standard Time),243803.60000002384,CFD-BM-020-024-HC.jpg,1500,solid,O,m,683,3,1,27457.5,216346.10000002384,7069,ATS,B,11
10,test,1,A,haborder.png,1,z,Fri Feb 28 2025 10:08:37 GMT-0600 (Central Standard Time),246617.90000003576,CFD-WM-009-009-A.jpg,1900,solid,O,z,883,8,1,30271.80000001192,216346.10000002384,7069,ATS,B,12
11,test,1,A,haborder.png,1,m,Fri Feb 28 2025 10:08:37 GMT-0600 (Central Standard Time),249250.40000003576,CFD-WF-011-006-HC.jpg,1500,solid,O,m,1108,11,1,32904.30000001192,216346.10000002384,7069,ATS,B,13
12,test,1,A,haborder.png,1,z,Fri Feb 28 2025 10:08:37 GMT-0600 (Central Standard Time),251515.80000001192,CFD-BF-050-012-A.jpg,1200,solid,O,z,1041,6,1,35169.69999998808,216346.10000002384,7069,ATS,B,14
12,test,1,A,haborder.png,0,z,Fri Feb 28 2025 10:08:37 GMT-0600 (Central Standard Time),254949.0,CFD-WM-009-009-A.jpg,1900,solid,O,None,1509,8,1,38602.89999997616,216346.10000002384,7069,ATS,B,15
13,test,1,A,haborder.png,1,z,Fri Feb 28 2025 10:08:37 GMT-0600 (Central Standard Time),256781.0,CFD-WF-013-015-A.jpg,1000,solid,O,z,805,12,1,40434.89999997616,216346.10000002384,7069,ATS,B,16
14,test,1,A,haborder.png,1,m,Fri Feb 28 2025 10:08:37 GMT-0600 (Central Standard Time),259048.80000001192,CFD-WM-011-006-HC.jpg,1400,solid,O,m,835,7,1,42702.69999998808,216346.10000002384,7069,ATS,B,17
15,test,1,A,haborder.png,1,m,Fri Feb 28 2025 10:08:37 GMT-0600 (Central Standard Time),261480.30000001192,CFD-WM-012-007-HC.jpg,1700,solid,O,m,710,9,1,45134.19999998808,216346.10000002384,7069,ATS,B,18
16,test,1,A,haborder.png,1,z,Fri Feb 28 2025 10:08:37 GMT-0600 (Central Standard Time),264130.0,CFD-BM-037-041-A.jpg,1600,solid,O,z,1016,2,1,47783.89999997616,216346.10000002384,7069,ATS,B,19
17,test,1,A,haborder.png,1,z,Fri Feb 28 2025 10:08:37 GMT-0600 (Central Standard Time),266362.10000002384,CFD-BF-050-012-A.jpg,1200,solid,O,z,1011,6,1,50016.0,216346.10000002384,7069,ATS,B,20
18,test,1,A,haborder.png,1,m,Fri Feb 28 2025 10:08:37 GMT-0600 (Central Standard Time),268711.10000002384,CFD-WM-011-006-HC.jpg,1400,solid,O,m,921,7,1,52365.0,216346.10000002384,7069,ATS,B,21
19,test,1,A,haborder.png,1,z,Fri Feb 28 2025 10:08:37 GMT-0600 (Central Standard Time),270659.7000000477,CFD-BF-051-043-A.jpg,1000,solid,O,z,934,4,1,54313.60000002384,216346.10000002384,7069,ATS,B,22
20,test,1,A,haborder.png,1,z,Fri Feb 28 2025 10:08:37 GMT-0600 (Central Standard Time),273308.7000000477,CFD-BM-037-041-A.jpg,1600,solid,O,z,1029,2,1,56962.60000002384,216346.10000002384,7069,ATS,B,23
21,test,1,A,haborder.png,1,z,Fri Feb 28 2025 10:08:37 GMT-0600 (Central Standard Time),275693.2000000477,CFD-WF-026-008-A.jpg,1600,solid,O,z,766,10,1,59347.10000002384,216346.10000002384,7069,ATS,B,24
1,test,1,B,mfborder.png,1,z,Fri Feb 28 2025 10:08:37 GMT-0600 (Central Standard Time),300649.90000003576,CFD-WF-011-006-HC.jpg,1000,dash,O,z,766,12,1,1798.5,298851.40000003576,7069,ATS,B,1
2,test,1,B,mfborder.png,1,z,Fri Feb 28 2025 10:08:37 GMT-0600 (Central Standard Time),302686.10000002384,CFD-BF-035-007-HC.jpg,1400,dash,O,z,617,7,1,3834.699999988079,298851.40000003576,7069,ATS,B,2
3,test,1,B,mfborder.png,1,z,Fri Feb 28 2025 10:08:37 GMT-0600 (Central Standard Time),304432.3000000119,CFD-WF-011-006-HC.jpg,1000,dash,O,z,720,12,1,5580.899999976158,298851.40000003576,7069,ATS,B,3
4,test,1,B,mfborder.png,1,z,Fri Feb 28 2025 10:08:37 GMT-0600 (Central Standard Time),306615.3000000119,CFD-BF-027-013-HC.jpg,1500,dash,O,z,661,3,1,7763.899999976158,298851.40000003576,7069,ATS,B,4
5,test,1,B,mfborder.png,1,z,Fri Feb 28 2025 10:08:37 GMT-0600 (Central Standard Time),308931.8000000119,CFD-WF-026-008-A.jpg,1500,dash,O,z,779,11,1,10080.399999976158,298851.40000003576,7069,ATS,B,5
6,test,1,B,mfborder.png,1,m,Fri Feb 28 2025 10:08:37 GMT-0600 (Central Standard Time),311580.90000003576,CFD-BM-020-024-HC.jpg,1700,dash,O,m,916,1,1,12729.5,298851.40000003576,7069,ATS,B,6
7,test,1,B,mfborder.png,1,m,Fri Feb 28 2025 10:08:37 GMT-0600 (Central Standard Time),313814.3000000119,CFD-WM-012-007-HC.jpg,1600,dash,O,m,617,10,1,14962.899999976158,298851.40000003576,7069,ATS,B,7
8,test,1,B,mfborder.png,1,m,Fri Feb 28 2025 10:08:37 GMT-0600 (Central Standard Time),316079.0,CFD-WM-012-007-HC.jpg,1600,dash,O,m,644,10,1,17227.599999964237,298851.40000003576,7069,ATS,B,8
9,test,1,B,mfborder.png,1,m,Fri Feb 28 2025 10:08:37 GMT-0600 (Central Standard Time),318145.2000000477,CFD-WM-037-060-A.jpg,1200,dash,O,m,826,6,1,19293.80000001192,298851.40000003576,7069,ATS,B,9
10,test,1,B,mfborder.png,1,m,Fri Feb 28 2025 10:08:37 GMT-0600 (Central Standard Time),320428.2000000477,CFD-BM-041-048-A.jpg,1600,dash,O,m,660,2,1,21576.80000001192,298851.40000003576,7069,ATS,B,10
11,test,1,B,mfborder.png,1,z,Fri Feb 28 2025 10:08:37 GMT-0600 (Central Standard Time),323076.5,CFD-WF-027-007-HC.jpg,1900,dash,O,z,721,8,1,24225.099999964237,298851.40000003576,7069,ATS,B,11
12,test,1,B,mfborder.png,1,m,Fri Feb 28 2025 10:08:37 GMT-0600 (Central Standard Time),325758.40000003576,CFD-WM-009-009-A.jpg,1700,dash,O,m,944,9,1,26907.0,298851.40000003576,7069,ATS,B,12
13,test,1,B,mfborder.png,1,m,Fri Feb 28 2025 10:08:37 GMT-0600 (Central Standard Time),328108.0,CFD-BM-041-048-A.jpg,1600,dash,O,m,721,2,1,29256.599999964237,298851.40000003576,7069,ATS,B,13
14,test,1,B,mfborder.png,1,z,Fri Feb 28 2025 10:08:37 GMT-0600 (Central Standard Time),330408.40000003576,CFD-BF-027-013-HC.jpg,1500,dash,O,z,763,3,1,31557.0,298851.40000003576,7069,ATS,B,14
15,test,1,B,mfborder.png,1,m,Fri Feb 28 2025 10:08:37 GMT-0600 (Central Standard Time),332958.7000000477,CFD-BM-020-024-HC.jpg,1700,dash,O,m,834,1,1,34107.30000001192,298851.40000003576,7069,ATS,B,15
16,test,1,B,mfborder.png,1,z,Fri Feb 28 2025 10:08:37 GMT-0600 (Central Standard Time),334890.8000000119,CFD-BF-051-043-A.jpg,1000,dash,O,z,909,4,1,36039.39999997616,298851.40000003576,7069,ATS,B,16
17,test,1,B,mfborder.png,1,m,Fri Feb 28 2025 10:08:37 GMT-0600 (Central Standard Time),337706.7000000477,CFD-BM-037-041-A.jpg,2000,dash,O,m,798,5,1,38855.30000001192,298851.40000003576,7069,ATS,B,17
18,test,1,B,mfborder.png,1,m,Fri Feb 28 2025 10:08:37 GMT-0600 (Central Standard Time),340373.40000003576,CFD-BM-037-041-A.jpg,2000,dash,O,m,647,5,1,41522.0,298851.40000003576,7069,ATS,B,18
19,test,1,B,mfborder.png,1,m,Fri Feb 28 2025 10:08:37 GMT-0600 (Central Standard Time),342703.60000002384,CFD-WM-009-009-A.jpg,1700,dash,O,m,610,9,1,43852.19999998808,298851.40000003576,7069,ATS,B,19
20,test,1,B,mfborder.png,1,m,Fri Feb 28 2025 10:08:37 GMT-0600 (Central Standard Time),344669.10000002384,CFD-WM-037-060-A.jpg,1200,dash,O,m,732,6,1,45817.69999998808,298851.40000003576,7069,ATS,B,20
21,test,1,B,mfborder.png,1,z,Fri Feb 28 2025 10:08:37 GMT-0600 (Central Standard Time),346919.40000003576,CFD-WF-026-008-A.jpg,1500,dash,O,z,726,11,1,48068.0,298851.40000003576,7069,ATS,B,21
22,test,1,B,mfborder.png,1,z,Fri Feb 28 2025 10:08:37 GMT-0600 (Central Standard Time),348616.40000003576,CFD-BF-051-043-A.jpg,1000,dash,O,z,659,4,1,49765.0,298851.40000003576,7069,ATS,B,22
23,test,1,B,mfborder.png,1,z,Fri Feb 28 2025 10:08:37 GMT-0600 (Central Standard Time),351184.7000000477,CFD-WF-027-007-HC.jpg,1900,dash,O,z,635,8,1,52333.30000001192,298851.40000003576,7069,ATS,B,23
24,test,1,B,mfborder.png,1,z,Fri Feb 28 2025 10:08:37 GMT-0600 (Central Standard Time),353450.8000000119,CFD-BF-035-007-HC.jpg,1400,dash,O,z,834,7,1,54599.39999997616,298851.40000003576,7069,ATS,B,24
0,11,1,C,haborder.png,0,m,Fri Feb 28 2025 10:08:37 GMT-0600 (Central Standard Time),416664.40000003576,CFD-WM-011-006-HC.jpg,1000,dash,O,z,1202,prac,1,3000.5,413663.90000003576,7069,ATS,B,1
1,2,1,C,mfborder.png,1,z,Fri Feb 28 2025 10:08:37 GMT-0600 (Central Standard Time),420411.90000003576,CFD-WF-013-015-A.jpg,1500,solid,O,z,1462,prac,1,6748.0,413663.90000003576,7069,ATS,B,2
2,8,1,C,haborder.png,1,z,Fri Feb 28 2025 10:08:37 GMT-0600 (Central Standard Time),424278.8000000119,CFD-BF-050-012-A.jpg,1700,solid,O,z,1367,prac,1,10614.899999976158,413663.90000003576,7069,ATS,B,3
3,3,1,C,mfborder.png,1,z,Fri Feb 28 2025 10:08:37 GMT-0600 (Central Standard Time),427360.40000003576,CFD-BF-035-007-HC.jpg,1000,dash,O,z,1285,prac,1,13696.5,413663.90000003576,7069,ATS,B,4
4,10,1,C,haborder.png,1,m,Fri Feb 28 2025 10:08:37 GMT-0600 (Central Standard Time),430560.0,CFD-BM-020-024-HC.jpg,1500,solid,O,m,909,prac,1,16896.099999964237,413663.90000003576,7069,ATS,B,5
5,4,1,C,mfborder.png,1,m,Fri Feb 28 2025 10:08:37 GMT-0600 (Central Standard Time),434642.40000003576,CFD-BM-015-017-HC.jpg,2000,solid,O,m,1290,prac,1,20978.5,413663.90000003576,7069,ATS,B,6
6,1,1,C,mfborder.png,1,z,Fri Feb 28 2025 10:08:37 GMT-0600 (Central Standard Time),438058.3000000119,CFD-WF-011-006-HC.jpg,1600,dash,O,z,1017,prac,1,24394.399999976158,413663.90000003576,7069,ATS,B,7
6,5,1,C,mfborder.png,0,m,Fri Feb 28 2025 10:08:37 GMT-0600 (Central Standard Time),441423.8000000119,CFD-BM-037-041-A.jpg,1200,dash,O,z,1375,prac,1,27759.899999976158,413663.90000003576,7069,ATS,B,8
7,12,1,C,haborder.png,1,m,Fri Feb 28 2025 10:08:37 GMT-0600 (Central Standard Time),444522.40000003576,CFD-WM-011-006-HC.jpg,1400,solid,O,m,908,prac,1,30858.5,413663.90000003576,7069,ATS,B,9
8,9,1,C,haborder.png,1,z,Fri Feb 28 2025 10:08:37 GMT-0600 (Central Standard Time),448287.10000002384,CFD-WF-026-008-A.jpg,1600,dash,O,z,1376,prac,1,34623.19999998808,413663.90000003576,7069,ATS,B,10
8,6,1,C,mfborder.png,0,m,Fri Feb 28 2025 10:08:37 GMT-0600 (Central Standard Time),452302.8000000119,CFD-WM-009-009-A.jpg,1700,solid,O,None,1516,prac,1,38638.89999997616,413663.90000003576,7069,ATS,B,11
9,7,1,C,haborder.png,1,z,Fri Feb 28 2025 10:08:37 GMT-0600 (Central Standard Time),455916.90000003576,CFD-BF-051-043-A.jpg,1900,dash,O,z,909,prac,1,42253.0,413663.90000003576,7069,ATS,B,12
1,test,1,C,mfborder.png,1,z,Fri Feb 28 2025 10:08:37 GMT-0600 (Central Standard Time),491873.7000000477,CFD-WF-026-008-A.jpg,1500,dash,O,z,1024,3,1,2549.7000000476837,489324.0,7069,ATS,B,1
1,test,1,C,haborder.png,0,z,Fri Feb 28 2025 10:08:37 GMT-0600 (Central Standard Time),494739.90000003576,CFD-BM-041-048-A.jpg,1700,solid,O,m,1134,9,1,5415.900000035763,489324.0,7069,ATS,B,2
2,test,1,C,haborder.png,1,z,Fri Feb 28 2025 10:08:37 GMT-0600 (Central Standard Time),498139.7000000477,CFD-BM-037-041-A.jpg,1900,solid,O,z,1483,8,1,8815.700000047684,489324.0,7069,ATS,B,3
3,test,1,C,mfborder.png,1,z,Fri Feb 28 2025 10:08:37 GMT-0600 (Central Standard Time),501020.8000000119,CFD-BF-027-013-HC.jpg,1700,dash,O,z,1165,1,1,11696.800000011921,489324.0,7069,ATS,B,4
4,test,1,C,haborder.png,1,z,Fri Feb 28 2025 10:08:37 GMT-0600 (Central Standard Time),503554.60000002384,CFD-WM-009-009-A.jpg,1400,solid,O,z,1109,7,1,14230.600000023842,489324.0,7069,ATS,B,5
5,test,1,C,haborder.png,1,m,Fri Feb 28 2025 10:08:37 GMT-0600 (Central Standard Time),506435.10000002384,CFD-BF-035-007-HC.jpg,1600,solid,O,m,1257,10,1,17111.100000023842,489324.0,7069,ATS,B,6
5,test,1,C,haborder.png,0,m,Fri Feb 28 2025 10:08:37 GMT-0600 (Central Standard Time),508301.10000002384,CFD-WF-011-006-HC.jpg,1000,solid,O,z,829,12,1,18977.100000023842,489324.0,7069,ATS,B,7
6,test,1,C,haborder.png,1,z,Fri Feb 28 2025 10:08:37 GMT-0600 (Central Standard Time),511348.7000000477,CFD-BM-037-041-A.jpg,1900,solid,O,z,1123,8,1,22024.700000047684,489324.0,7069,ATS,B,8
6,test,1,C,mfborder.png,0,z,Fri Feb 28 2025 10:08:37 GMT-0600 (Central Standard Time),514483.60000002384,CFD-BF-051-043-A.jpg,1600,dash,O,None,1509,2,1,25159.600000023842,489324.0,7069,ATS,B,9
7,test,1,C,mfborder.png,1,m,Fri Feb 28 2025 10:08:37 GMT-0600 (Central Standard Time),517814.60000002384,CFD-WM-037-060-A.jpg,2000,dash,O,m,1311,5,1,28490.600000023842,489324.0,7069,ATS,B,10
8,test,1,C,mfborder.png,1,m,Fri Feb 28 2025 10:08:37 GMT-0600 (Central Standard Time),519731.40000003576,CFD-WM-012-007-HC.jpg,1000,dash,O,m,883,4,1,30407.400000035763,489324.0,7069,ATS,B,11
9,test,1,C,haborder.png,1,z,Fri Feb 28 2025 10:08:37 GMT-0600 (Central Standard Time),522330.10000002384,CFD-WM-009-009-A.jpg,1400,solid,O,z,1166,7,1,33006.10000002384,489324.0,7069,ATS,B,12
9,test,1,C,mfborder.png,0,z,Fri Feb 28 2025 10:08:37 GMT-0600 (Central Standard Time),525096.6000000238,CFD-BF-051-043-A.jpg,1600,dash,O,m,1134,2,1,35772.60000002384,489324.0,7069,ATS,B,13
9,test,1,C,haborder.png,0,m,Fri Feb 28 2025 10:08:37 GMT-0600 (Central Standard Time),527359.5,CFD-WF-011-006-HC.jpg,1000,solid,O,z,1231,12,1,38035.5,489324.0,7069,ATS,B,14
9,test,1,C,haborder.png,0,m,Fri Feb 28 2025 10:08:37 GMT-0600 (Central Standard Time),529844.3000000119,CFD-WF-027-007-HC.jpg,1500,solid,O,z,964,11,1,40520.30000001192,489324.0,7069,ATS,B,15
9,test,1,C,mfborder.png,0,m,Fri Feb 28 2025 10:08:37 GMT-0600 (Central Standard Time),532578.1000000238,CFD-BM-020-024-HC.jpg,1200,dash,O,None,1508,6,1,43254.10000002384,489324.0,7069,ATS,B,16
10,test,1,C,haborder.png,1,m,Fri Feb 28 2025 10:08:37 GMT-0600 (Central Standard Time),535328.2000000477,CFD-BF-035-007-HC.jpg,1600,solid,O,m,1117,10,1,46004.200000047684,489324.0,7069,ATS,B,17
11,test,1,C,haborder.png,1,m,Fri Feb 28 2025 10:08:37 GMT-0600 (Central Standard Time),537575.0,CFD-WF-027-007-HC.jpg,1500,solid,O,m,712,11,1,48251.0,489324.0,7069,ATS,B,18
12,test,1,C,mfborder.png,1,m,Fri Feb 28 2025 10:08:37 GMT-0600 (Central Standard Time),540840.9000000358,CFD-WM-037-060-A.jpg,2000,dash,O,m,1237,5,1,51516.90000003576,489324.0,7069,ATS,B,19
13,test,1,C,haborder.png,1,z,Fri Feb 28 2025 10:08:37 GMT-0600 (Central Standard Time),543841.0,CFD-BM-041-048-A.jpg,1700,solid,O,z,1277,9,1,54517.0,489324.0,7069,ATS,B,20
14,test,1,C,mfborder.png,1,m,Fri Feb 28 2025 10:08:37 GMT-0600 (Central Standard Time),545673.3000000119,CFD-WM-012-007-HC.jpg,1000,dash,O,m,796,4,1,56349.30000001192,489324.0,7069,ATS,B,21
15,test,1,C,mfborder.png,1,z,Fri Feb 28 2025 10:08:37 GMT-0600 (Central Standard Time),548305.7000000477,CFD-BF-027-013-HC.jpg,1700,dash,O,z,909,1,1,58981.700000047684,489324.0,7069,ATS,B,22
16,test,1,C,mfborder.png,1,m,Fri Feb 28 2025 10:08:37 GMT-0600 (Central Standard Time),550554.9000000358,CFD-BM-020-024-HC.jpg,1200,dash,O,m,1018,6,1,61230.90000003576,489324.0,7069,ATS,B,23
17,test,1,C,mfborder.png,1,z,Fri Feb 28 2025 10:08:37 GMT-0600 (Central Standard Time),553070.2000000477,CFD-WF-026-008-A.jpg,1500,dash,O,z,992,3,1,63746.200000047684,489324.0,7069,ATS,B,24
1,test,2,C,mfborder.png,1,z,Fri Feb 28 2025 10:08:37 GMT-0600 (Central Standard Time),577662.5,CFD-WF-011-006-HC.jpg,1700,dash,O,z,1101,1,1,2831.399999976158,574831.1000000238,7069,ATS,B,1
2,test,2,C,haborder.png,1,m,Fri Feb 28 2025 10:08:37 GMT-0600 (Central Standard Time),579945.4000000358,CFD-WM-011-006-HC.jpg,1000,solid,O,m,1243,12,1,5114.300000011921,574831.1000000238,7069,ATS,B,2
3,test,2,C,mfborder.png,1,z,Fri Feb 28 2025 10:08:37 GMT-0600 (Central Standard Time),582810.8000000119,CFD-BF-035-007-HC.jpg,1500,dash,O,z,1343,3,1,7979.699999988079,574831.1000000238,7069,ATS,B,3
4,test,2,C,haborder.png,1,z,Fri Feb 28 2025 10:08:37 GMT-0600 (Central Standard Time),585993.6000000238,CFD-BF-050-012-A.jpg,1900,solid,O,z,1250,8,1,11162.5,574831.1000000238,7069,ATS,B,4
5,test,2,C,haborder.png,1,z,Fri Feb 28 2025 10:08:37 GMT-0600 (Central Standard Time),588592.8000000119,CFD-WF-026-008-A.jpg,1700,solid,O,z,861,9,1,13761.699999988079,574831.1000000238,7069,ATS,B,5
6,test,2,C,haborder.png,1,z,Fri Feb 28 2025 10:08:37 GMT-0600 (Central Standard Time),590774.9000000358,CFD-BF-051-043-A.jpg,1400,solid,O,z,759,7,1,15943.800000011921,574831.1000000238,7069,ATS,B,6
7,test,2,C,mfborder.png,1,m,Fri Feb 28 2025 10:08:37 GMT-0600 (Central Standard Time),593224.1000000238,CFD-WM-009-009-A.jpg,1200,dash,O,m,1211,6,1,18393.0,574831.1000000238,7069,ATS,B,7
7,test,2,C,haborder.png,0,m,Fri Feb 28 2025 10:08:37 GMT-0600 (Central Standard Time),595990.0,CFD-WM-011-006-HC.jpg,1500,solid,O,z,1243,11,1,21158.899999976158,574831.1000000238,7069,ATS,B,8
8,test,2,C,mfborder.png,1,m,Fri Feb 28 2025 10:08:37 GMT-0600 (Central Standard Time),598554.2000000477,CFD-WM-009-009-A.jpg,1200,dash,O,m,1339,6,1,23723.100000023842,574831.1000000238,7069,ATS,B,9
9,test,2,C,mfborder.png,1,z,Fri Feb 28 2025 10:08:37 GMT-0600 (Central Standard Time),601155.8000000119,CFD-WF-013-015-A.jpg,1600,dash,O,z,976,2,1,26324.69999998808,574831.1000000238,7069,ATS,B,10
10,test,2,C,mfborder.png,1,m,Fri Feb 28 2025 10:08:37 GMT-0600 (Central Standard Time),604537.9000000358,CFD-BM-037-041-A.jpg,2000,dash,O,m,1351,5,1,29706.80000001192,574831.1000000238,7069,ATS,B,11
11,test,2,C,haborder.png,1,m,Fri Feb 28 2025 10:08:37 GMT-0600 (Central Standard Time),606952.9000000358,CFD-WM-011-006-HC.jpg,1000,solid,O,m,1392,12,1,32121.80000001192,574831.1000000238,7069,ATS,B,12
12,test,2,C,mfborder.png,1,z,Fri Feb 28 2025 10:08:37 GMT-0600 (Central Standard Time),609452.3000000119,CFD-WF-013-015-A.jpg,1600,dash,O,z,882,2,1,34621.19999998808,574831.1000000238,7069,ATS,B,13
13,test,2,C,haborder.png,1,m,Fri Feb 28 2025 10:08:37 GMT-0600 (Central Standard Time),612004.5,CFD-BM-020-024-HC.jpg,1600,solid,O,m,928,10,1,37173.39999997616,574831.1000000238,7069,ATS,B,14
13,test,2,C,mfborder.png,0,m,Fri Feb 28 2025 10:08:37 GMT-0600 (Central Standard Time),615467.2000000477,CFD-BM-037-041-A.jpg,2000,dash,O,z,1432,5,1,40636.10000002384,574831.1000000238,7069,ATS,B,15
14,test,2,C,haborder.png,1,m,Fri Feb 28 2025 10:08:37 GMT-0600 (Central Standard Time),618082.7000000477,CFD-BM-020-024-HC.jpg,1600,solid,O,m,990,10,1,43251.60000002384,574831.1000000238,7069,ATS,B,16
15,test,2,C,mfborder.png,1,z,Fri Feb 28 2025 10:08:37 GMT-0600 (Central Standard Time),620848.2000000477,CFD-BF-035-007-HC.jpg,1500,dash,O,z,1242,3,1,46017.10000002384,574831.1000000238,7069,ATS,B,17
16,test,2,C,mfborder.png,1,m,Fri Feb 28 2025 10:08:37 GMT-0600 (Central Standard Time),623282.1000000238,CFD-BM-015-017-HC.jpg,1000,dash,O,m,1397,4,1,48451.0,574831.1000000238,7069,ATS,B,18
17,test,2,C,mfborder.png,1,m,Fri Feb 28 2025 10:08:37 GMT-0600 (Central Standard Time),625098.1000000238,CFD-BM-015-017-HC.jpg,1000,dash,O,m,785,4,1,50267.0,574831.1000000238,7069,ATS,B,19
18,test,2,C,haborder.png,1,z,Fri Feb 28 2025 10:08:37 GMT-0600 (Central Standard Time),627963.8000000119,CFD-BF-051-043-A.jpg,1400,solid,O,z,1439,7,1,53132.69999998808,574831.1000000238,7069,ATS,B,20
19,test,2,C,mfborder.png,1,z,Fri Feb 28 2025 10:08:37 GMT-0600 (Central Standard Time),631013.0,CFD-WF-011-006-HC.jpg,1700,dash,O,z,1333,1,1,56181.89999997616,574831.1000000238,7069,ATS,B,21
19,test,2,C,haborder.png,0,z,Fri Feb 28 2025 10:08:37 GMT-0600 (Central Standard Time),634445.4000000358,CFD-BF-050-012-A.jpg,1900,solid,O,None,1508,8,1,59614.30000001192,574831.1000000238,7069,ATS,B,22
20,test,2,C,haborder.png,1,z,Fri Feb 28 2025 10:08:37 GMT-0600 (Central Standard Time),637427.0,CFD-WF-026-008-A.jpg,1700,solid,O,z,1258,9,1,62595.89999997616,574831.1000000238,7069,ATS,B,23
21,test,2,C,haborder.png,1,m,Fri Feb 28 2025 10:08:37 GMT-0600 (Central Standard Time),639975.0,CFD-WM-011-006-HC.jpg,1500,solid,O,m,1011,11,1,65143.89999997616,574831.1000000238,7069,ATS,B,24
1,test,3,C,haborder.png,1,m,Fri Feb 28 2025 10:08:37 GMT-0600 (Central Standard Time),646557.1000000238,CFD-BF-035-007-HC.jpg,1600,solid,O,m,1320,10,1,2948.699999988079,643608.4000000358,7069,ATS,B,1
2,test,3,C,mfborder.png,1,z,Fri Feb 28 2025 10:08:37 GMT-0600 (Central Standard Time),649106.2000000477,CFD-BF-051-043-A.jpg,1600,dash,O,z,924,2,1,5497.800000011921,643608.4000000358,7069,ATS,B,2
2,test,3,C,haborder.png,0,z,Fri Feb 28 2025 10:08:37 GMT-0600 (Central Standard Time),652537.3000000119,CFD-BM-037-041-A.jpg,1900,solid,O,None,1514,8,1,8928.899999976158,643608.4000000358,7069,ATS,B,3
2,test,3,C,haborder.png,0,m,Fri Feb 28 2025 10:08:37 GMT-0600 (Central Standard Time),654738.6000000238,CFD-WF-011-006-HC.jpg,1000,solid,O,z,1169,12,1,11130.199999988079,643608.4000000358,7069,ATS,B,4
3,test,3,C,mfborder.png,1,m,Fri Feb 28 2025 10:08:37 GMT-0600 (Central Standard Time),656871.0,CFD-WM-012-007-HC.jpg,1000,dash,O,m,1105,4,1,13262.599999964237,643608.4000000358,7069,ATS,B,5
4,test,3,C,haborder.png,1,z,Fri Feb 28 2025 10:08:37 GMT-0600 (Central Standard Time),659620.6000000238,CFD-WM-009-009-A.jpg,1400,solid,O,z,1326,7,1,16012.199999988079,643608.4000000358,7069,ATS,B,6
5,test,3,C,haborder.png,1,z,Fri Feb 28 2025 10:08:37 GMT-0600 (Central Standard Time),662819.8000000119,CFD-BM-037-041-A.jpg,1900,solid,O,z,1284,8,1,19211.399999976158,643608.4000000358,7069,ATS,B,7
6,test,3,C,mfborder.png,1,m,Fri Feb 28 2025 10:08:37 GMT-0600 (Central Standard Time),664917.1000000238,CFD-BM-020-024-HC.jpg,1200,dash,O,m,861,6,1,21308.69999998808,643608.4000000358,7069,ATS,B,8
7,test,3,C,mfborder.png,1,z,Fri Feb 28 2025 10:08:37 GMT-0600 (Central Standard Time),667234.5,CFD-BF-051-043-A.jpg,1600,dash,O,z,691,2,1,23626.099999964237,643608.4000000358,7069,ATS,B,9
8,test,3,C,haborder.png,1,z,Fri Feb 28 2025 10:08:37 GMT-0600 (Central Standard Time),670400.3000000119,CFD-BM-041-048-A.jpg,1700,solid,O,z,1429,9,1,26791.899999976158,643608.4000000358,7069,ATS,B,10
9,test,3,C,mfborder.png,1,m,Fri Feb 28 2025 10:08:37 GMT-0600 (Central Standard Time),672632.4000000358,CFD-BM-020-024-HC.jpg,1200,dash,O,m,992,6,1,29024.0,643608.4000000358,7069,ATS,B,11
10,test,3,C,mfborder.png,1,z,Fri Feb 28 2025 10:08:37 GMT-0600 (Central Standard Time),675231.4000000358,CFD-BF-027-013-HC.jpg,1700,dash,O,z,869,1,1,31623.0,643608.4000000358,7069,ATS,B,12
11,test,3,C,mfborder.png,1,z,Fri Feb 28 2025 10:08:37 GMT-0600 (Central Standard Time),677481.0,CFD-WF-026-008-A.jpg,1500,dash,O,z,723,3,1,33872.59999996424,643608.4000000358,7069,ATS,B,13
12,test,3,C,mfborder.png,1,z,Fri Feb 28 2025 10:08:37 GMT-0600 (Central Standard Time),679646.3000000119,CFD-WF-026-008-A.jpg,1500,dash,O,z,635,3,1,36037.89999997616,643608.4000000358,7069,ATS,B,14
12,test,3,C,mfborder.png,0,m,Fri Feb 28 2025 10:08:37 GMT-0600 (Central Standard Time),681429.7000000477,CFD-WM-012-007-HC.jpg,1000,dash,O,z,742,4,1,37821.30000001192,643608.4000000358,7069,ATS,B,15
13,test,3,C,haborder.png,1,m,Fri Feb 28 2025 10:08:37 GMT-0600 (Central Standard Time),684180.5,CFD-BF-035-007-HC.jpg,1600,solid,O,m,1128,10,1,40572.09999996424,643608.4000000358,7069,ATS,B,16
14,test,3,C,haborder.png,1,z,Fri Feb 28 2025 10:08:37 GMT-0600 (Central Standard Time),686645.3000000119,CFD-WM-009-009-A.jpg,1400,solid,O,z,1049,7,1,43036.89999997616,643608.4000000358,7069,ATS,B,17
15,test,3,C,mfborder.png,1,z,Fri Feb 28 2025 10:08:37 GMT-0600 (Central Standard Time),689294.6000000238,CFD-BF-027-013-HC.jpg,1700,dash,O,z,914,1,1,45686.19999998808,643608.4000000358,7069,ATS,B,18
16,test,3,C,haborder.png,1,m,Fri Feb 28 2025 10:08:37 GMT-0600 (Central Standard Time),692141.8000000119,CFD-WF-027-007-HC.jpg,1500,solid,O,m,1321,11,1,48533.39999997616,643608.4000000358,7069,ATS,B,19
17,test,3,C,haborder.png,1,z,Fri Feb 28 2025 10:08:37 GMT-0600 (Central Standard Time),694875.8000000119,CFD-BM-041-048-A.jpg,1700,solid,O,z,1009,9,1,51267.39999997616,643608.4000000358,7069,ATS,B,20
17,test,3,C,haborder.png,0,m,Fri Feb 28 2025 10:08:37 GMT-0600 (Central Standard Time),697342.1000000238,CFD-WF-027-007-HC.jpg,1500,solid,O,z,943,11,1,53733.69999998808,643608.4000000358,7069,ATS,B,21
18,test,3,C,mfborder.png,1,m,Fri Feb 28 2025 10:08:37 GMT-0600 (Central Standard Time),700523.4000000358,CFD-WM-037-060-A.jpg,2000,dash,O,m,1156,5,1,56915.0,643608.4000000358,7069,ATS,B,22
19,test,3,C,haborder.png,1,m,Fri Feb 28 2025 10:08:37 GMT-0600 (Central Standard Time),702823.2000000477,CFD-WF-011-006-HC.jpg,1000,solid,O,m,1269,12,1,59214.80000001192,643608.4000000358,7069,ATS,B,23
19,test,3,C,mfborder.png,0,m,Fri Feb 28 2025 10:08:37 GMT-0600 (Central Standard Time),706355.3000000119,CFD-WM-037-060-A.jpg,2000,dash,O,None,1511,5,1,62746.89999997616,643608.4000000358,7069,ATS,B,24
1,test,4,C,haborder.png,1,z,Fri Feb 28 2025 10:08:37 GMT-0600 (Central Standard Time),719332.8000000119,CFD-BF-050-012-A.jpg,1900,solid,O,z,820,8,1,2747.899999976158,716584.9000000358,7069,ATS,B,1
2,test,4,C,mfborder.png,1,z,Fri Feb 28 2025 10:08:37 GMT-0600 (Central Standard Time),721934.0,CFD-BF-035-007-HC.jpg,1500,dash,O,z,1061,3,1,5349.099999964237,716584.9000000358,7069,ATS,B,2
3,test,4,C,haborder.png,1,z,Fri Feb 28 2025 10:08:37 GMT-0600 (Central Standard Time),725132.4000000358,CFD-WF-026-008-A.jpg,1700,solid,O,z,1468,9,1,8547.5,716584.9000000358,7069,ATS,B,3
4,test,4,C,mfborder.png,1,m,Fri Feb 28 2025 10:08:37 GMT-0600 (Central Standard Time),727581.1000000238,CFD-WM-009-009-A.jpg,1200,dash,O,m,1231,6,1,10996.199999988079,716584.9000000358,7069,ATS,B,4
5,test,4,C,mfborder.png,1,m,Fri Feb 28 2025 10:08:37 GMT-0600 (Central Standard Time),729797.6000000238,CFD-BM-015-017-HC.jpg,1000,dash,O,m,1182,4,1,13212.699999988079,716584.9000000358,7069,ATS,B,5
6,test,4,C,mfborder.png,1,m,Fri Feb 28 2025 10:08:37 GMT-0600 (Central Standard Time),732614.5,CFD-BM-037-041-A.jpg,2000,dash,O,m,796,5,1,16029.599999964237,716584.9000000358,7069,ATS,B,6
7,test,4,C,haborder.png,1,z,Fri Feb 28 2025 10:08:37 GMT-0600 (Central Standard Time),734878.4000000358,CFD-BF-051-043-A.jpg,1400,solid,O,z,837,7,1,18293.5,716584.9000000358,7069,ATS,B,7
8,test,4,C,haborder.png,1,m,Fri Feb 28 2025 10:08:37 GMT-0600 (Central Standard Time),737595.7000000477,CFD-BM-020-024-HC.jpg,1600,solid,O,m,1089,10,1,21010.80000001192,716584.9000000358,7069,ATS,B,8
8,test,4,C,mfborder.png,0,m,Fri Feb 28 2025 10:08:37 GMT-0600 (Central Standard Time),740060.5,CFD-WM-009-009-A.jpg,1200,dash,O,z,1239,6,1,23475.599999964237,716584.9000000358,7069,ATS,B,9
9,test,4,C,haborder.png,1,z,Fri Feb 28 2025 10:08:37 GMT-0600 (Central Standard Time),742477.4000000358,CFD-BF-051-043-A.jpg,1400,solid,O,z,990,7,1,25892.5,716584.9000000358,7069,ATS,B,10
9,test,4,C,mfborder.png,0,z,Fri Feb 28 2025 10:08:37 GMT-0600 (Central Standard Time),745708.7000000477,CFD-WF-011-006-HC.jpg,1700,dash,O,None,1507,1,1,29123.80000001192,716584.9000000358,7069,ATS,B,11
10,test,4,C,mfborder.png,1,z,Fri Feb 28 2025 10:08:37 GMT-0600 (Central Standard Time),748291.6000000238,CFD-WF-013-015-A.jpg,1600,dash,O,z,957,2,1,31706.69999998808,716584.9000000358,7069,ATS,B,12
11,test,4,C,mfborder.png,1,z,Fri Feb 28 2025 10:08:37 GMT-0600 (Central Standard Time),750857.5,CFD-WF-011-006-HC.jpg,1700,dash,O,z,833,1,1,34272.59999996424,716584.9000000358,7069,ATS,B,13
12,test,4,C,haborder.png,1,m,Fri Feb 28 2025 10:08:37 GMT-0600 (Central Standard Time),753272.6000000238,CFD-WM-011-006-HC.jpg,1500,solid,O,m,880,11,1,36687.69999998808,716584.9000000358,7069,ATS,B,14
13,test,4,C,haborder.png,1,z,Fri Feb 28 2025 10:08:37 GMT-0600 (Central Standard Time),755739.9000000358,CFD-WF-026-008-A.jpg,1700,solid,O,z,750,9,1,39155.0,716584.9000000358,7069,ATS,B,15
14,test,4,C,haborder.png,1,m,Fri Feb 28 2025 10:08:37 GMT-0600 (Central Standard Time),758108.2000000477,CFD-WM-011-006-HC.jpg,1500,solid,O,m,842,11,1,41523.30000001192,716584.9000000358,7069,ATS,B,16
14,test,4,C,mfborder.png,0,m,Fri Feb 28 2025 10:08:37 GMT-0600 (Central Standard Time),761372.3000000119,CFD-BM-037-041-A.jpg,2000,dash,O,z,1249,5,1,44787.39999997616,716584.9000000358,7069,ATS,B,17
15,test,4,C,mfborder.png,1,z,Fri Feb 28 2025 10:08:37 GMT-0600 (Central Standard Time),763886.5,CFD-BF-035-007-HC.jpg,1500,dash,O,z,992,3,1,47301.59999996424,716584.9000000358,7069,ATS,B,18
16,test,4,C,mfborder.png,1,m,Fri Feb 28 2025 10:08:37 GMT-0600 (Central Standard Time),765803.2000000477,CFD-BM-015-017-HC.jpg,1000,dash,O,m,892,4,1,49218.30000001192,716584.9000000358,7069,ATS,B,19
17,test,4,C,haborder.png,1,m,Fri Feb 28 2025 10:08:37 GMT-0600 (Central Standard Time),767803.7000000477,CFD-WM-011-006-HC.jpg,1000,solid,O,m,960,12,1,51218.80000001192,716584.9000000358,7069,ATS,B,20
18,test,4,C,haborder.png,1,m,Fri Feb 28 2025 10:08:37 GMT-0600 (Central Standard Time),770235.8000000119,CFD-BM-020-024-HC.jpg,1600,solid,O,m,801,10,1,53650.89999997616,716584.9000000358,7069,ATS,B,21
19,test,4,C,haborder.png,1,m,Fri Feb 28 2025 10:08:37 GMT-0600 (Central Standard Time),771984.8000000119,CFD-WM-011-006-HC.jpg,1000,solid,O,m,718,12,1,55399.89999997616,716584.9000000358,7069,ATS,B,22
20,test,4,C,haborder.png,1,z,Fri Feb 28 2025 10:08:37 GMT-0600 (Central Standard Time),775233.7000000477,CFD-BF-050-012-A.jpg,1900,solid,O,z,1317,8,1,58648.80000001192,716584.9000000358,7069,ATS,B,23
21,test,4,C,mfborder.png,1,z,Fri Feb 28 2025 10:08:37 GMT-0600 (Central Standard Time),778316.2000000477,CFD-WF-013-015-A.jpg,1600,dash,O,z,1465,2,1,61731.30000001192,716584.9000000358,7069,ATS,B,24
