acc_sum,block,block_c,change,condition,correct,correct_response,datetime,endtime,face,project,response,response_time,row_sel,session_number,start_end,starttime,subject_id,task,task_vers,trial
0,prac,1,,1-Back,,,Mon Feb 24 2025 13:30:23 GMT-0600 (Central Standard Time),,097_m_f_n_a.png,O,space,12024,1,1,,,7063,NNB,B,0
1,prac,1,0.0,1-Back,1,m,Mon Feb 24 2025 13:30:23 GMT-0600 (Central Standard Time),160807.90000000014,152_y_f_n_a.png,O,m,1497,2,1,2389.600000000093,158418.30000000005,7063,NNB,B,1
1,prac,1,1.0,1-Back,0,z,Mon Feb 24 2025 13:30:23 GMT-0600 (Central Standard Time),162857.30000000005,152_y_f_n_a.png,O,m,1260,3,1,2043.0,160814.30000000005,7063,NNB,B,2
2,prac,1,0.0,1-Back,1,m,Mon Feb 24 2025 13:30:23 GMT-0600 (Central Standard Time),165239.69999999995,176_o_m_n_a.png,O,m,1494,4,1,2375.5999999998603,162864.1000000001,7063,NNB,B,3
3,prac,1,0.0,1-Back,1,m,Mon Feb 24 2025 13:30:23 GMT-0600 (Central Standard Time),167505.80000000005,126_m_m_n_a.png,O,m,1401,5,1,2259.399999999907,165246.40000000014,7063,NNB,B,4
4,prac,1,1.0,1-Back,1,z,Mon Feb 24 2025 13:30:23 GMT-0600 (Central Standard Time),169088.6000000001,126_m_m_n_a.png,O,z,793,6,1,1575.6999999999534,167512.90000000014,7063,NNB,B,5
5,prac,1,0.0,1-Back,1,m,Mon Feb 24 2025 13:30:23 GMT-0600 (Central Standard Time),170871.40000000014,086_o_f_n_a.png,O,m,879,7,1,1776.5,169094.90000000014,7063,NNB,B,6
6,prac,1,0.0,1-Back,1,m,Mon Feb 24 2025 13:30:23 GMT-0600 (Central Standard Time),173504.0,178_m_m_n_a.png,O,m,1750,8,1,2626.8000000000466,170877.19999999995,7063,NNB,B,7
7,prac,1,0.0,1-Back,1,m,Mon Feb 24 2025 13:30:23 GMT-0600 (Central Standard Time),175403.19999999995,097_m_f_n_a.png,O,m,1115,9,1,1891.8999999999069,173511.30000000005,7063,NNB,B,8
8,prac,1,1.0,1-Back,1,z,Mon Feb 24 2025 13:30:23 GMT-0600 (Central Standard Time),177035.90000000014,097_m_f_n_a.png,O,z,857,10,1,1627.2000000001863,175408.69999999995,7063,NNB,B,9
9,prac,1,0.0,1-Back,1,m,Mon Feb 24 2025 13:30:23 GMT-0600 (Central Standard Time),178885.69999999995,176_o_m_n_a.png,O,m,1073,11,1,1844.0,177041.69999999995,7063,NNB,B,10
10,prac,1,0.0,1-Back,1,m,Mon Feb 24 2025 13:30:23 GMT-0600 (Central Standard Time),180801.90000000014,173_y_f_n_a.png,O,m,1044,12,1,1908.1000000000931,178893.80000000005,7063,NNB,B,11
0,test,1,0.0,1-Back,,,Mon Feb 24 2025 13:30:23 GMT-0600 (Central Standard Time),180801.90000000014,152_y_f_n_a.png,O,space,12983,1,1,1908.1000000000931,178893.80000000005,7063,NNB,B,0
1,test,1,0.0,1-Back,1,m,Mon Feb 24 2025 13:30:23 GMT-0600 (Central Standard Time),204078.0,029_m_f_n_a.png,O,m,855,2,1,1877.0999999998603,202200.90000000014,7063,NNB,B,1
2,test,1,0.0,1-Back,1,m,Mon Feb 24 2025 13:30:23 GMT-0600 (Central Standard Time),206310.19999999995,173_y_f_n_a.png,O,m,1205,3,1,2228.399999999907,204081.80000000005,7063,NNB,B,2
3,test,1,1.0,1-Back,1,z,Mon Feb 24 2025 13:30:23 GMT-0600 (Central Standard Time),208142.90000000014,173_y_f_n_a.png,O,z,804,4,1,1828.8000000000466,206314.1000000001,7063,NNB,B,3
4,test,1,0.0,1-Back,1,m,Mon Feb 24 2025 13:30:23 GMT-0600 (Central Standard Time),210308.80000000005,029_m_f_n_a.png,O,m,1139,5,1,2161.5,208147.30000000005,7063,NNB,B,4
5,test,1,0.0,1-Back,1,m,Mon Feb 24 2025 13:30:23 GMT-0600 (Central Standard Time),212275.30000000005,176_o_m_n_a.png,O,m,933,6,1,1961.8000000000466,210313.5,7063,NNB,B,5
6,test,1,1.0,1-Back,1,z,Mon Feb 24 2025 13:30:23 GMT-0600 (Central Standard Time),215174.0,176_o_m_n_a.png,O,z,1871,7,1,2893.6999999999534,212280.30000000005,7063,NNB,B,6
7,test,1,0.0,1-Back,1,m,Mon Feb 24 2025 13:30:23 GMT-0600 (Central Standard Time),217123.5,126_m_m_n_a.png,O,m,924,8,1,1946.0,215177.5,7063,NNB,B,7
7,test,1,0.0,1-Back,0,m,Mon Feb 24 2025 13:30:23 GMT-0600 (Central Standard Time),218923.0,086_o_f_n_a.png,O,z,783,9,1,1794.8000000000466,217128.19999999995,7063,NNB,B,8
8,test,1,0.0,1-Back,1,m,Mon Feb 24 2025 13:30:23 GMT-0600 (Central Standard Time),220839.1000000001,126_m_m_n_a.png,O,m,887,10,1,1911.6000000000931,218927.5,7063,NNB,B,9
8,test,1,0.0,1-Back,0,m,Mon Feb 24 2025 13:30:23 GMT-0600 (Central Standard Time),222671.80000000005,153_y_m_n_a.png,O,z,811,11,1,1829.1000000000931,220842.69999999995,7063,NNB,B,10
9,test,1,1.0,1-Back,1,z,Mon Feb 24 2025 13:30:23 GMT-0600 (Central Standard Time),224971.30000000005,153_y_m_n_a.png,O,z,1266,12,1,2294.8000000000466,222676.5,7063,NNB,B,11
10,test,1,0.0,1-Back,1,m,Mon Feb 24 2025 13:30:23 GMT-0600 (Central Standard Time),226853.90000000014,110_o_f_n_a.png,O,m,855,13,1,1879.2000000001863,224974.69999999995,7063,NNB,B,12
11,test,1,1.0,1-Back,1,z,Mon Feb 24 2025 13:30:23 GMT-0600 (Central Standard Time),228883.90000000014,110_o_f_n_a.png,O,z,1013,14,1,2026.4000000001397,226857.5,7063,NNB,B,13
12,test,1,0.0,1-Back,1,m,Mon Feb 24 2025 13:30:23 GMT-0600 (Central Standard Time),230687.19999999995,013_y_m_n_a.png,O,m,780,15,1,1799.0999999998603,228888.1000000001,7063,NNB,B,14
13,test,1,0.0,1-Back,1,m,Mon Feb 24 2025 13:30:23 GMT-0600 (Central Standard Time),232835.1000000001,097_m_f_n_a.png,O,m,1124,16,1,2143.9000000001397,230691.19999999995,7063,NNB,B,15
14,test,1,0.0,1-Back,1,m,Mon Feb 24 2025 13:30:23 GMT-0600 (Central Standard Time),234851.40000000014,065_o_m_n_a.png,O,m,983,17,1,2011.3000000000466,232840.1000000001,7063,NNB,B,16
15,test,1,0.0,1-Back,1,m,Mon Feb 24 2025 13:30:23 GMT-0600 (Central Standard Time),236733.90000000014,097_m_f_n_a.png,O,m,855,18,1,1877.1000000000931,234856.80000000005,7063,NNB,B,17
0,test,2,0.0,1-Back,,,Mon Feb 24 2025 13:30:23 GMT-0600 (Central Standard Time),236733.90000000014,126_m_m_n_a.png,O,space,4548,1,1,1877.1000000000931,234856.80000000005,7063,NNB,B,0
1,test,2,0.0,1-Back,1,m,Mon Feb 24 2025 13:30:23 GMT-0600 (Central Standard Time),245131.19999999995,029_m_f_n_a.png,O,m,783,2,1,1811.3999999999069,243319.80000000005,7063,NNB,B,1
2,test,2,1.0,1-Back,1,z,Mon Feb 24 2025 13:30:23 GMT-0600 (Central Standard Time),246914.0,029_m_f_n_a.png,O,z,759,3,1,1778.3000000000466,245135.69999999995,7063,NNB,B,2
3,test,2,0.0,1-Back,1,m,Mon Feb 24 2025 13:30:23 GMT-0600 (Central Standard Time),248946.90000000014,126_m_m_n_a.png,O,m,1007,4,1,2028.8000000000466,246918.1000000001,7063,NNB,B,3
4,test,2,0.0,1-Back,1,m,Mon Feb 24 2025 13:30:23 GMT-0600 (Central Standard Time),250995.90000000014,153_y_m_n_a.png,O,m,1031,5,1,2044.3000000000466,248951.6000000001,7063,NNB,B,4
5,test,2,0.0,1-Back,1,m,Mon Feb 24 2025 13:30:23 GMT-0600 (Central Standard Time),252828.90000000014,152_y_f_n_a.png,O,m,814,6,1,1828.7000000001863,251000.19999999995,7063,NNB,B,5
6,test,2,1.0,1-Back,1,z,Mon Feb 24 2025 13:30:23 GMT-0600 (Central Standard Time),254728.30000000005,152_y_f_n_a.png,O,z,869,7,1,1896.1999999999534,252832.1000000001,7063,NNB,B,6
7,test,2,0.0,1-Back,1,m,Mon Feb 24 2025 13:30:23 GMT-0600 (Central Standard Time),256561.0,153_y_m_n_a.png,O,m,802,8,1,1828.3999999999069,254732.6000000001,7063,NNB,B,7
8,test,2,0.0,1-Back,1,m,Mon Feb 24 2025 13:30:23 GMT-0600 (Central Standard Time),258410.80000000005,110_o_f_n_a.png,O,m,816,9,1,1845.3999999999069,256565.40000000014,7063,NNB,B,8
9,test,2,0.0,1-Back,1,m,Mon Feb 24 2025 13:30:23 GMT-0600 (Central Standard Time),260343.1000000001,178_m_m_n_a.png,O,m,912,10,1,1928.8000000000466,258414.30000000005,7063,NNB,B,9
10,test,2,1.0,1-Back,1,z,Mon Feb 24 2025 13:30:23 GMT-0600 (Central Standard Time),262126.1000000001,178_m_m_n_a.png,O,z,755,11,1,1778.3000000000466,260347.80000000005,7063,NNB,B,10
11,test,2,0.0,1-Back,1,m,Mon Feb 24 2025 13:30:23 GMT-0600 (Central Standard Time),264125.40000000014,110_o_f_n_a.png,O,m,971,12,1,1995.9000000001397,262129.5,7063,NNB,B,11
12,test,2,0.0,1-Back,1,m,Mon Feb 24 2025 13:30:23 GMT-0600 (Central Standard Time),265875.0,086_o_f_n_a.png,O,m,733,13,1,1745.3000000000466,264129.69999999995,7063,NNB,B,12
13,test,2,0.0,1-Back,1,m,Mon Feb 24 2025 13:30:23 GMT-0600 (Central Standard Time),267740.90000000014,176_o_m_n_a.png,O,m,839,14,1,1860.8000000000466,265880.1000000001,7063,NNB,B,13
14,test,2,0.0,1-Back,1,m,Mon Feb 24 2025 13:30:23 GMT-0600 (Central Standard Time),269557.0,065_o_m_n_a.png,O,m,788,15,1,1811.6999999999534,267745.30000000005,7063,NNB,B,14
15,test,2,1.0,1-Back,1,z,Mon Feb 24 2025 13:30:23 GMT-0600 (Central Standard Time),271323.30000000005,065_o_m_n_a.png,O,z,734,16,1,1762.1999999999534,269561.1000000001,7063,NNB,B,15
16,test,2,0.0,1-Back,1,m,Mon Feb 24 2025 13:30:23 GMT-0600 (Central Standard Time),272989.19999999995,013_y_m_n_a.png,O,m,647,17,1,1661.6999999999534,271327.5,7063,NNB,B,16
17,test,2,1.0,1-Back,1,z,Mon Feb 24 2025 13:30:23 GMT-0600 (Central Standard Time),274788.69999999995,013_y_m_n_a.png,O,z,781,18,1,1795.5,272993.19999999995,7063,NNB,B,17
0,test,3,1.0,1-Back,,,Mon Feb 24 2025 13:30:23 GMT-0600 (Central Standard Time),274788.69999999995,173_y_f_n_a.png,O,space,2646,1,1,1795.5,272993.19999999995,7063,NNB,B,0
1,test,3,0.0,1-Back,1,m,Mon Feb 24 2025 13:30:23 GMT-0600 (Central Standard Time),281353.40000000014,065_o_m_n_a.png,O,m,785,1,1,1812.3000000000466,279541.1000000001,7063,NNB,B,1
2,test,3,1.0,1-Back,1,z,Mon Feb 24 2025 13:30:23 GMT-0600 (Central Standard Time),283169.5,065_o_m_n_a.png,O,z,784,1,1,1811.6999999999534,281357.80000000005,7063,NNB,B,2
3,test,3,0.0,1-Back,1,m,Mon Feb 24 2025 13:30:23 GMT-0600 (Central Standard Time),284885.30000000005,097_m_f_n_a.png,O,m,696,1,1,1712.1999999999534,283173.1000000001,7063,NNB,B,3
4,test,3,1.0,1-Back,1,z,Mon Feb 24 2025 13:30:23 GMT-0600 (Central Standard Time),287001.6000000001,097_m_f_n_a.png,O,z,1085,1,1,2112.3000000000466,284889.30000000005,7063,NNB,B,4
5,test,3,0.0,1-Back,1,m,Mon Feb 24 2025 13:30:23 GMT-0600 (Central Standard Time),288751.1000000001,110_o_f_n_a.png,O,m,728,1,1,1745.0,287006.1000000001,7063,NNB,B,5
6,test,3,0.0,1-Back,1,m,Mon Feb 24 2025 13:30:23 GMT-0600 (Central Standard Time),290700.5,153_y_m_n_a.png,O,m,923,1,1,1945.8999999999069,288754.6000000001,7063,NNB,B,6
7,test,3,0.0,1-Back,1,m,Mon Feb 24 2025 13:30:23 GMT-0600 (Central Standard Time),292450.0,110_o_f_n_a.png,O,m,718,1,1,1745.1999999999534,290704.80000000005,7063,NNB,B,7
8,test,3,0.0,1-Back,1,m,Mon Feb 24 2025 13:30:23 GMT-0600 (Central Standard Time),294182.80000000005,013_y_m_n_a.png,O,m,712,1,1,1728.5,292454.30000000005,7063,NNB,B,8
9,test,3,1.0,1-Back,1,z,Mon Feb 24 2025 13:30:23 GMT-0600 (Central Standard Time),295848.69999999995,013_y_m_n_a.png,O,z,636,1,1,1662.5999999998603,294186.1000000001,7063,NNB,B,9
10,test,3,0.0,1-Back,1,m,Mon Feb 24 2025 13:30:23 GMT-0600 (Central Standard Time),297598.40000000014,029_m_f_n_a.png,O,m,729,1,1,1746.4000000001397,295852.0,7063,NNB,B,10
11,test,3,0.0,1-Back,1,m,Mon Feb 24 2025 13:30:23 GMT-0600 (Central Standard Time),299642.6000000001,152_y_f_n_a.png,O,m,881,1,1,2040.9000000001397,297601.69999999995,7063,NNB,B,11
12,test,3,1.0,1-Back,1,z,Mon Feb 24 2025 13:30:23 GMT-0600 (Central Standard Time),301414.1000000001,152_y_f_n_a.png,O,z,738,1,1,1765.9000000001397,299648.19999999995,7063,NNB,B,12
13,test,3,0.0,1-Back,1,m,Mon Feb 24 2025 13:30:23 GMT-0600 (Central Standard Time),303246.6000000001,029_m_f_n_a.png,O,m,805,1,1,1827.5,301419.1000000001,7063,NNB,B,13
14,test,3,0.0,1-Back,1,m,Mon Feb 24 2025 13:30:23 GMT-0600 (Central Standard Time),305095.90000000014,126_m_m_n_a.png,O,m,820,1,1,1845.6000000000931,303250.30000000005,7063,NNB,B,14
15,test,3,1.0,1-Back,1,z,Mon Feb 24 2025 13:30:23 GMT-0600 (Central Standard Time),306845.69999999995,126_m_m_n_a.png,O,z,730,1,1,1745.3999999999069,305100.30000000005,7063,NNB,B,15
16,test,3,0.0,1-Back,1,m,Mon Feb 24 2025 13:30:23 GMT-0600 (Central Standard Time),308595.0,086_o_f_n_a.png,O,m,725,1,1,1745.1999999999534,306849.80000000005,7063,NNB,B,16
17,test,3,1.0,1-Back,1,z,Mon Feb 24 2025 13:30:23 GMT-0600 (Central Standard Time),310377.69999999995,086_o_f_n_a.png,O,z,759,1,1,1778.3999999999069,308599.30000000005,7063,NNB,B,17
0,test,4,1.0,1-Back,,,Mon Feb 24 2025 13:30:23 GMT-0600 (Central Standard Time),310377.69999999995,097_m_f_n_a.png,O,space,2240,1,1,1778.3999999999069,308599.30000000005,7063,NNB,B,0
1,test,4,0.0,1-Back,1,m,Mon Feb 24 2025 13:30:23 GMT-0600 (Central Standard Time),316409.19999999995,065_o_m_n_a.png,O,m,660,2,1,1678.2999999998137,314730.90000000014,7063,NNB,B,1
2,test,4,0.0,1-Back,1,m,Mon Feb 24 2025 13:30:23 GMT-0600 (Central Standard Time),318275.19999999995,097_m_f_n_a.png,O,m,849,3,1,1861.6999999999534,316413.5,7063,NNB,B,2
3,test,4,0.0,1-Back,1,m,Mon Feb 24 2025 13:30:23 GMT-0600 (Central Standard Time),320041.30000000005,110_o_f_n_a.png,O,m,735,4,1,1761.6999999999534,318279.6000000001,7063,NNB,B,3
4,test,4,1.0,1-Back,1,z,Mon Feb 24 2025 13:30:23 GMT-0600 (Central Standard Time),321707.5,110_o_f_n_a.png,O,z,648,5,1,1662.8999999999069,320044.6000000001,7063,NNB,B,4
5,test,4,0.0,1-Back,1,m,Mon Feb 24 2025 13:30:23 GMT-0600 (Central Standard Time),323673.5,152_y_f_n_a.png,O,m,935,6,1,1961.8999999999069,321711.6000000001,7063,NNB,B,5
6,test,4,0.0,1-Back,1,m,Mon Feb 24 2025 13:30:23 GMT-0600 (Central Standard Time),325456.30000000005,153_y_m_n_a.png,O,m,761,7,1,1779.5,323676.80000000005,7063,NNB,B,6
7,test,4,1.0,1-Back,1,z,Mon Feb 24 2025 13:30:23 GMT-0600 (Central Standard Time),327155.69999999995,153_y_m_n_a.png,O,z,674,8,1,1695.2999999998137,325460.40000000014,7063,NNB,B,7
8,test,4,0.0,1-Back,1,m,Mon Feb 24 2025 13:30:23 GMT-0600 (Central Standard Time),328988.5,152_y_f_n_a.png,O,m,814,9,1,1829.1999999999534,327159.30000000005,7063,NNB,B,8
9,test,4,0.0,1-Back,1,m,Mon Feb 24 2025 13:30:23 GMT-0600 (Central Standard Time),330987.80000000005,178_m_m_n_a.png,O,m,974,10,1,1995.6999999999534,328992.1000000001,7063,NNB,B,9
10,test,4,1.0,1-Back,1,z,Mon Feb 24 2025 13:30:23 GMT-0600 (Central Standard Time),332770.90000000014,178_m_m_n_a.png,O,z,766,11,1,1779.7000000001863,330991.19999999995,7063,NNB,B,10
11,test,4,0.0,1-Back,1,m,Mon Feb 24 2025 13:30:23 GMT-0600 (Central Standard Time),334553.5,086_o_f_n_a.png,O,m,752,12,1,1778.3000000000466,332775.19999999995,7063,NNB,B,11
12,test,4,0.0,1-Back,1,m,Mon Feb 24 2025 13:30:23 GMT-0600 (Central Standard Time),336419.5,176_o_m_n_a.png,O,m,833,13,1,1862.5999999998603,334556.90000000014,7063,NNB,B,12
13,test,4,0.0,1-Back,1,m,Mon Feb 24 2025 13:30:23 GMT-0600 (Central Standard Time),338318.69999999995,086_o_f_n_a.png,O,m,871,14,1,1892.5999999998603,336426.1000000001,7063,NNB,B,13
14,test,4,0.0,1-Back,1,m,Mon Feb 24 2025 13:30:23 GMT-0600 (Central Standard Time),340318.40000000014,173_y_f_n_a.png,O,m,971,15,1,1995.3000000000466,338323.1000000001,7063,NNB,B,14
15,test,4,1.0,1-Back,1,z,Mon Feb 24 2025 13:30:23 GMT-0600 (Central Standard Time),342067.69999999995,173_y_f_n_a.png,O,z,724,16,1,1745.0,340322.69999999995,7063,NNB,B,15
16,test,4,0.0,1-Back,1,m,Mon Feb 24 2025 13:30:23 GMT-0600 (Central Standard Time),343733.90000000014,029_m_f_n_a.png,O,m,638,17,1,1661.7000000001863,342072.19999999995,7063,NNB,B,16
17,test,4,1.0,1-Back,1,z,Mon Feb 24 2025 13:30:23 GMT-0600 (Central Standard Time),345467.0,029_m_f_n_a.png,O,z,699,18,1,1729.8999999999069,343737.1000000001,7063,NNB,B,17
0,test,5,1.0,1-Back,,,Mon Feb 24 2025 13:30:23 GMT-0600 (Central Standard Time),345467.0,176_o_m_n_a.png,O,space,2687,1,1,1729.8999999999069,343737.1000000001,7063,NNB,B,0
1,test,5,1.0,1-Back,1,z,Mon Feb 24 2025 13:30:23 GMT-0600 (Central Standard Time),351898.1000000001,176_o_m_n_a.png,O,z,692,2,1,1711.1999999999534,350186.90000000014,7063,NNB,B,1
2,test,5,0.0,1-Back,1,m,Mon Feb 24 2025 13:30:23 GMT-0600 (Central Standard Time),353597.5,152_y_f_n_a.png,O,m,673,3,1,1696.1999999999534,351901.30000000005,7063,NNB,B,2
3,test,5,0.0,1-Back,1,m,Mon Feb 24 2025 13:30:23 GMT-0600 (Central Standard Time),355513.5,153_y_m_n_a.png,O,m,885,4,1,1912.6999999999534,353600.80000000005,7063,NNB,B,3
4,test,5,0.0,1-Back,1,m,Mon Feb 24 2025 13:30:23 GMT-0600 (Central Standard Time),357331.0,152_y_f_n_a.png,O,m,800,5,1,1813.8000000000466,355517.19999999995,7063,NNB,B,4
5,test,5,0.0,1-Back,1,m,Mon Feb 24 2025 13:30:23 GMT-0600 (Central Standard Time),359078.90000000014,126_m_m_n_a.png,O,m,729,6,1,1744.1000000000931,357334.80000000005,7063,NNB,B,5
6,test,5,1.0,1-Back,1,z,Mon Feb 24 2025 13:30:23 GMT-0600 (Central Standard Time),360795.30000000005,126_m_m_n_a.png,O,z,699,7,1,1712.3000000000466,359083.0,7063,NNB,B,6
7,test,5,0.0,1-Back,1,m,Mon Feb 24 2025 13:30:23 GMT-0600 (Central Standard Time),362629.0,173_y_f_n_a.png,O,m,815,8,1,1830.5999999998603,360798.40000000014,7063,NNB,B,7
8,test,5,0.0,1-Back,1,m,Mon Feb 24 2025 13:30:23 GMT-0600 (Central Standard Time),364577.40000000014,013_y_m_n_a.png,O,m,918,9,1,1944.0,362633.40000000014,7063,NNB,B,8
9,test,5,0.0,1-Back,1,m,Mon Feb 24 2025 13:30:23 GMT-0600 (Central Standard Time),366410.1000000001,173_y_f_n_a.png,O,m,801,10,1,1829.1999999999534,364580.90000000014,7063,NNB,B,9
10,test,5,0.0,1-Back,1,m,Mon Feb 24 2025 13:30:23 GMT-0600 (Central Standard Time),368142.80000000005,086_o_f_n_a.png,O,m,712,11,1,1728.8000000000466,366414.0,7063,NNB,B,10
11,test,5,1.0,1-Back,1,z,Mon Feb 24 2025 13:30:23 GMT-0600 (Central Standard Time),369909.1000000001,086_o_f_n_a.png,O,z,739,12,1,1763.3000000000466,368145.80000000005,7063,NNB,B,11
12,test,5,0.0,1-Back,1,m,Mon Feb 24 2025 13:30:23 GMT-0600 (Central Standard Time),371642.0,065_o_m_n_a.png,O,m,701,13,1,1729.0999999998603,369912.90000000014,7063,NNB,B,12
13,test,5,0.0,1-Back,1,m,Mon Feb 24 2025 13:30:23 GMT-0600 (Central Standard Time),373593.0,097_m_f_n_a.png,O,m,929,14,1,1947.3999999999069,371645.6000000001,7063,NNB,B,13
14,test,5,1.0,1-Back,1,z,Mon Feb 24 2025 13:30:23 GMT-0600 (Central Standard Time),375290.6000000001,097_m_f_n_a.png,O,z,675,15,1,1693.1000000000931,373597.5,7063,NNB,B,14
15,test,5,0.0,1-Back,1,m,Mon Feb 24 2025 13:30:23 GMT-0600 (Central Standard Time),376939.90000000014,065_o_m_n_a.png,O,m,631,16,1,1645.2000000001863,375294.69999999995,7063,NNB,B,15
16,test,5,0.0,1-Back,1,m,Mon Feb 24 2025 13:30:23 GMT-0600 (Central Standard Time),378872.90000000014,029_m_f_n_a.png,O,m,902,17,1,1929.9000000001397,376943.0,7063,NNB,B,16
17,test,5,0.0,1-Back,1,m,Mon Feb 24 2025 13:30:23 GMT-0600 (Central Standard Time),380605.6000000001,178_m_m_n_a.png,O,m,713,18,1,1728.4000000001397,378877.19999999995,7063,NNB,B,17
0,prac,1,0.0,2-Back,,,Mon Feb 24 2025 13:30:23 GMT-0600 (Central Standard Time),380605.6000000001,013_y_m_n_a.png,O,space,12482,1,1,1728.4000000001397,378877.19999999995,7063,NNB,B,0
0,prac,1,0.0,2-Back,,,Mon Feb 24 2025 13:30:23 GMT-0600 (Central Standard Time),380605.6000000001,029_m_f_n_a.png,O,space,12482,2,1,1728.4000000001397,378877.19999999995,7063,NNB,B,0
1,prac,1,1.0,2-Back,1,m,Mon Feb 24 2025 13:30:23 GMT-0600 (Central Standard Time),502285.5,065_o_m_n_a.png,O,m,1803,3,1,2677.899999999907,499607.6000000001,7063,NNB,B,1
2,prac,1,0.0,2-Back,1,m,Mon Feb 24 2025 13:30:23 GMT-0600 (Central Standard Time),504034.0,086_o_f_n_a.png,O,m,853,4,1,1743.1999999999534,502290.80000000005,7063,NNB,B,2
3,prac,1,0.0,2-Back,1,z,Mon Feb 24 2025 13:30:23 GMT-0600 (Central Standard Time),505883.30000000005,065_o_m_n_a.png,O,z,1067,5,1,1843.8000000000466,504039.5,7063,NNB,B,3
4,prac,1,1.0,2-Back,1,z,Mon Feb 24 2025 13:30:23 GMT-0600 (Central Standard Time),508032.40000000014,086_o_f_n_a.png,O,z,1369,6,1,2143.100000000093,505889.30000000005,7063,NNB,B,4
5,prac,1,0.0,2-Back,1,m,Mon Feb 24 2025 13:30:23 GMT-0600 (Central Standard Time),509782.1000000001,178_m_m_n_a.png,O,m,869,7,1,1744.3000000000466,508037.80000000005,7063,NNB,B,5
6,prac,1,0.0,2-Back,1,m,Mon Feb 24 2025 13:30:23 GMT-0600 (Central Standard Time),511549.69999999995,176_o_m_n_a.png,O,m,910,8,1,1762.0,509787.69999999995,7063,NNB,B,6
7,prac,1,0.0,2-Back,1,m,Mon Feb 24 2025 13:30:23 GMT-0600 (Central Standard Time),513364.30000000005,173_y_f_n_a.png,O,m,942,9,1,1806.6999999999534,511557.6000000001,7063,NNB,B,7
7,prac,1,1.0,2-Back,0,z,Mon Feb 24 2025 13:30:23 GMT-0600 (Central Standard Time),516146.69999999995,176_o_m_n_a.png,O,None,2009,10,1,2776.6999999999534,513370.0,7063,NNB,B,8
7,prac,1,0.0,2-Back,0,m,Mon Feb 24 2025 13:30:23 GMT-0600 (Central Standard Time),519012.40000000014,152_y_f_n_a.png,O,None,2005,11,1,2860.100000000093,516152.30000000005,7063,NNB,B,9
7,prac,1,0.0,2-Back,0,m,Mon Feb 24 2025 13:30:23 GMT-0600 (Central Standard Time),521794.80000000005,178_m_m_n_a.png,O,None,2008,12,1,2775.0,519019.80000000005,7063,NNB,B,10
0,test,1,0.0,2-Back,,,Mon Feb 24 2025 13:30:23 GMT-0600 (Central Standard Time),521794.80000000005,153_y_m_n_a.png,O,space,12227,1,1,2775.0,519019.80000000005,7063,NNB,B,0
0,test,1,0.0,2-Back,,,Mon Feb 24 2025 13:30:23 GMT-0600 (Central Standard Time),521794.80000000005,153_y_m_n_a.png,O,space,12227,2,1,2775.0,519019.80000000005,7063,NNB,B,0
1,test,1,0.0,2-Back,1,m,Mon Feb 24 2025 13:30:23 GMT-0600 (Central Standard Time),551069.1000000001,086_o_f_n_a.png,O,m,897,3,1,1912.4000000001397,549156.7,7063,NNB,B,1
2,test,1,0.0,2-Back,1,m,Mon Feb 24 2025 13:30:23 GMT-0600 (Central Standard Time),552951.9000000001,126_m_m_n_a.png,O,m,853,4,1,1878.9000000001397,551073.0,7063,NNB,B,2
3,test,1,1.0,2-Back,1,z,Mon Feb 24 2025 13:30:23 GMT-0600 (Central Standard Time),554751.3,086_o_f_n_a.png,O,z,778,5,1,1795.3000000000466,552956.0,7063,NNB,B,3
4,test,1,0.0,2-Back,1,m,Mon Feb 24 2025 13:30:23 GMT-0600 (Central Standard Time),556600.7,152_y_f_n_a.png,O,m,819,6,1,1846.1999999999534,554754.5,7063,NNB,B,4
5,test,1,0.0,2-Back,1,m,Mon Feb 24 2025 13:30:23 GMT-0600 (Central Standard Time),559066.7,126_m_m_n_a.png,O,m,1433,7,1,2461.7999999998137,556604.9000000001,7063,NNB,B,5
6,test,1,1.0,2-Back,1,z,Mon Feb 24 2025 13:30:23 GMT-0600 (Central Standard Time),560949.3,152_y_f_n_a.png,O,z,856,8,1,1878.6000000000931,559070.7,7063,NNB,B,6
7,test,1,0.0,2-Back,1,m,Mon Feb 24 2025 13:30:23 GMT-0600 (Central Standard Time),562932.0,013_y_m_n_a.png,O,m,957,9,1,1978.8999999999069,560953.1000000001,7063,NNB,B,7
8,test,1,0.0,2-Back,1,m,Mon Feb 24 2025 13:30:23 GMT-0600 (Central Standard Time),564997.9000000001,110_o_f_n_a.png,O,m,1038,10,1,2061.9000000001397,562936.0,7063,NNB,B,8
9,test,1,1.0,2-Back,1,z,Mon Feb 24 2025 13:30:23 GMT-0600 (Central Standard Time),567014.2,013_y_m_n_a.png,O,z,988,11,1,2012.8999999999069,565001.3,7063,NNB,B,9
10,test,1,0.0,2-Back,1,m,Mon Feb 24 2025 13:30:23 GMT-0600 (Central Standard Time),569563.2,029_m_f_n_a.png,O,m,1524,12,1,2545.0,567018.2,7063,NNB,B,10
11,test,1,0.0,2-Back,1,m,Mon Feb 24 2025 13:30:23 GMT-0600 (Central Standard Time),571595.9000000001,029_m_f_n_a.png,O,m,1007,13,1,2029.3000000000466,569566.6000000001,7063,NNB,B,11
11,test,1,0.0,2-Back,0,m,Mon Feb 24 2025 13:30:23 GMT-0600 (Central Standard Time),574628.4000000001,065_o_m_n_a.png,O,None,2015,14,1,3028.4000000001397,571600.0,7063,NNB,B,12
12,test,1,0.0,2-Back,1,m,Mon Feb 24 2025 13:30:23 GMT-0600 (Central Standard Time),576577.8,110_o_f_n_a.png,O,m,918,15,1,1946.3999999999069,574631.4000000001,7063,NNB,B,13
12,test,1,1.0,2-Back,0,z,Mon Feb 24 2025 13:30:23 GMT-0600 (Central Standard Time),579610.3,065_o_m_n_a.png,O,None,2015,16,1,3028.6999999999534,576581.6000000001,7063,NNB,B,14
13,test,1,0.0,2-Back,1,m,Mon Feb 24 2025 13:30:23 GMT-0600 (Central Standard Time),581659.4000000001,097_m_f_n_a.png,O,m,1017,17,1,2045.2000000001863,579614.2,7063,NNB,B,15
14,test,1,0.0,2-Back,1,m,Mon Feb 24 2025 13:30:23 GMT-0600 (Central Standard Time),583608.8,178_m_m_n_a.png,O,m,927,18,1,1945.1000000000931,581663.7,7063,NNB,B,16
0,test,2,0.0,2-Back,,,Mon Feb 24 2025 13:30:23 GMT-0600 (Central Standard Time),583608.8,178_m_m_n_a.png,O,space,6505,1,1,1945.1000000000931,581663.7,7063,NNB,B,0
0,test,2,0.0,2-Back,,,Mon Feb 24 2025 13:30:23 GMT-0600 (Central Standard Time),583608.8,173_y_f_n_a.png,O,space,6505,2,1,1945.1000000000931,581663.7,7063,NNB,B,0
1,test,2,1.0,2-Back,1,z,Mon Feb 24 2025 13:30:23 GMT-0600 (Central Standard Time),597687.8,178_m_m_n_a.png,O,z,1403,3,1,2429.0,595258.8,7063,NNB,B,1
2,test,2,0.0,2-Back,1,m,Mon Feb 24 2025 13:30:23 GMT-0600 (Central Standard Time),599487.2,097_m_f_n_a.png,O,m,778,4,1,1796.2999999998137,597690.9000000001,7063,NNB,B,2
2,test,2,0.0,2-Back,0,m,Mon Feb 24 2025 13:30:23 GMT-0600 (Central Standard Time),601769.9000000001,173_y_f_n_a.png,O,z,1259,5,1,2278.5,599491.4000000001,7063,NNB,B,3
3,test,2,0.0,2-Back,1,m,Mon Feb 24 2025 13:30:23 GMT-0600 (Central Standard Time),603685.9000000001,065_o_m_n_a.png,O,m,896,6,1,1912.1000000000931,601773.8,7063,NNB,B,4
4,test,2,0.0,2-Back,1,m,Mon Feb 24 2025 13:30:23 GMT-0600 (Central Standard Time),605643.6000000001,152_y_f_n_a.png,O,m,940,7,1,1954.1000000000931,603689.5,7063,NNB,B,5
5,test,2,1.0,2-Back,1,z,Mon Feb 24 2025 13:30:23 GMT-0600 (Central Standard Time),607651.3,065_o_m_n_a.png,O,z,983,8,1,2003.6000000000931,605647.7,7063,NNB,B,6
6,test,2,0.0,2-Back,1,m,Mon Feb 24 2025 13:30:23 GMT-0600 (Central Standard Time),610233.9000000001,013_y_m_n_a.png,O,m,1551,9,1,2578.4000000001397,607655.5,7063,NNB,B,7
7,test,2,0.0,2-Back,1,m,Mon Feb 24 2025 13:30:23 GMT-0600 (Central Standard Time),612699.7,013_y_m_n_a.png,O,m,1440,10,1,2461.6999999997206,610238.0000000002,7063,NNB,B,8
8,test,2,0.0,2-Back,1,m,Mon Feb 24 2025 13:30:23 GMT-0600 (Central Standard Time),614666.0000000002,029_m_f_n_a.png,O,m,942,11,1,1962.4000000003725,612703.5999999999,7063,NNB,B,9
9,test,2,0.0,2-Back,1,m,Mon Feb 24 2025 13:30:23 GMT-0600 (Central Standard Time),616565.3,173_y_f_n_a.png,O,m,872,12,1,1895.8999999999069,614669.4000000001,7063,NNB,B,10
10,test,2,1.0,2-Back,1,z,Mon Feb 24 2025 13:30:23 GMT-0600 (Central Standard Time),618531.2,029_m_f_n_a.png,O,z,949,13,1,1962.3999999999069,616568.8,7063,NNB,B,11
11,test,2,0.0,2-Back,1,m,Mon Feb 24 2025 13:30:23 GMT-0600 (Central Standard Time),621147.4000000001,176_o_m_n_a.png,O,m,1599,14,1,2612.100000000093,618535.3,7063,NNB,B,12
12,test,2,0.0,2-Back,1,m,Mon Feb 24 2025 13:30:23 GMT-0600 (Central Standard Time),623446.3,176_o_m_n_a.png,O,m,1271,15,1,2294.899999999907,621151.4000000001,7063,NNB,B,13
13,test,2,0.0,2-Back,1,m,Mon Feb 24 2025 13:30:23 GMT-0600 (Central Standard Time),626195.5000000002,110_o_f_n_a.png,O,m,1724,16,1,2745.3000000002794,623450.2,7063,NNB,B,14
14,test,2,0.0,2-Back,1,m,Mon Feb 24 2025 13:30:23 GMT-0600 (Central Standard Time),628195.5000000002,126_m_m_n_a.png,O,m,982,17,1,1995.9000000003725,626199.5999999999,7063,NNB,B,15
15,test,2,1.0,2-Back,1,z,Mon Feb 24 2025 13:30:23 GMT-0600 (Central Standard Time),630377.5999999999,110_o_f_n_a.png,O,z,1159,18,1,2178.7999999998137,628198.8,7063,NNB,B,16
0,test,3,1.0,2-Back,,,Mon Feb 24 2025 13:30:23 GMT-0600 (Central Standard Time),630377.5999999999,153_y_m_n_a.png,O,space,3193,1,1,2178.7999999998137,628198.8,7063,NNB,B,0
0,test,3,1.0,2-Back,,,Mon Feb 24 2025 13:30:23 GMT-0600 (Central Standard Time),630377.5999999999,153_y_m_n_a.png,O,space,3193,2,1,2178.7999999998137,628198.8,7063,NNB,B,0
1,test,3,0.0,2-Back,1,m,Mon Feb 24 2025 13:30:23 GMT-0600 (Central Standard Time),640557.8,110_o_f_n_a.png,O,m,805,3,1,1828.7000000001863,638729.0999999999,7063,NNB,B,1
2,test,3,0.0,2-Back,1,m,Mon Feb 24 2025 13:30:23 GMT-0600 (Central Standard Time),642357.5000000002,178_m_m_n_a.png,O,m,772,4,1,1796.0,640561.5000000002,7063,NNB,B,2
3,test,3,1.0,2-Back,1,z,Mon Feb 24 2025 13:30:23 GMT-0600 (Central Standard Time),644106.8,110_o_f_n_a.png,O,z,717,5,1,1745.5,642361.3,7063,NNB,B,3
4,test,3,0.0,2-Back,1,m,Mon Feb 24 2025 13:30:23 GMT-0600 (Central Standard Time),645922.8,013_y_m_n_a.png,O,m,784,6,1,1812.2000000001863,644110.5999999999,7063,NNB,B,4
5,test,3,0.0,2-Back,1,m,Mon Feb 24 2025 13:30:23 GMT-0600 (Central Standard Time),648072.3,178_m_m_n_a.png,O,m,1119,7,1,2146.2000000001863,645926.0999999999,7063,NNB,B,5
6,test,3,1.0,2-Back,1,z,Mon Feb 24 2025 13:30:23 GMT-0600 (Central Standard Time),650338.0999999999,013_y_m_n_a.png,O,z,1242,8,1,2262.0,648076.0999999999,7063,NNB,B,6
7,test,3,0.0,2-Back,1,m,Mon Feb 24 2025 13:30:23 GMT-0600 (Central Standard Time),652730.5999999999,173_y_f_n_a.png,O,m,1229,9,1,2389.0,650341.5999999999,7063,NNB,B,7
8,test,3,0.0,2-Back,1,m,Mon Feb 24 2025 13:30:23 GMT-0600 (Central Standard Time),655203.2,126_m_m_n_a.png,O,m,1451,10,1,2467.5,652735.7,7063,NNB,B,8
9,test,3,1.0,2-Back,1,z,Mon Feb 24 2025 13:30:23 GMT-0600 (Central Standard Time),657285.9000000001,173_y_f_n_a.png,O,z,1055,11,1,2078.600000000093,655207.3,7063,NNB,B,9
10,test,3,1.0,2-Back,1,z,Mon Feb 24 2025 13:30:23 GMT-0600 (Central Standard Time),659151.9000000001,126_m_m_n_a.png,O,z,836,12,1,1862.5,657289.4000000001,7063,NNB,B,10
11,test,3,0.0,2-Back,1,m,Mon Feb 24 2025 13:30:23 GMT-0600 (Central Standard Time),661051.2,110_o_f_n_a.png,O,m,874,13,1,1895.0,659156.2,7063,NNB,B,11
12,test,3,0.0,2-Back,1,m,Mon Feb 24 2025 13:30:23 GMT-0600 (Central Standard Time),662884.0999999999,097_m_f_n_a.png,O,m,807,14,1,1829.0999999996275,661055.0000000002,7063,NNB,B,12
13,test,3,0.0,2-Back,1,m,Mon Feb 24 2025 13:30:23 GMT-0600 (Central Standard Time),664916.9000000001,065_o_m_n_a.png,O,m,1014,15,1,2029.6000000000931,662887.3,7063,NNB,B,13
14,test,3,1.0,2-Back,1,z,Mon Feb 24 2025 13:30:23 GMT-0600 (Central Standard Time),666866.3,097_m_f_n_a.png,O,z,925,16,1,1946.2000000001863,664920.0999999999,7063,NNB,B,14
15,test,3,0.0,2-Back,1,m,Mon Feb 24 2025 13:30:23 GMT-0600 (Central Standard Time),668865.5000000002,086_o_f_n_a.png,O,m,968,17,1,1995.3000000002794,666870.2,7063,NNB,B,15
16,test,3,0.0,2-Back,1,m,Mon Feb 24 2025 13:30:23 GMT-0600 (Central Standard Time),670948.3,086_o_f_n_a.png,O,m,1066,18,1,2078.5,668869.8,7063,NNB,B,16
0,test,4,0.0,2-Back,,,Mon Feb 24 2025 13:30:23 GMT-0600 (Central Standard Time),670948.3,176_o_m_n_a.png,O,space,3534,1,1,2078.5,668869.8,7063,NNB,B,0
0,test,4,0.0,2-Back,,,Mon Feb 24 2025 13:30:23 GMT-0600 (Central Standard Time),670948.3,152_y_f_n_a.png,O,space,3534,2,1,2078.5,668869.8,7063,NNB,B,0
1,test,4,1.0,2-Back,1,z,Mon Feb 24 2025 13:30:23 GMT-0600 (Central Standard Time),681811.4000000001,176_o_m_n_a.png,O,z,1050,3,1,2078.899999999907,679732.5000000002,7063,NNB,B,1
2,test,4,1.0,2-Back,1,z,Mon Feb 24 2025 13:30:23 GMT-0600 (Central Standard Time),683610.9000000001,152_y_f_n_a.png,O,z,775,4,1,1795.6000000000931,681815.3,7063,NNB,B,2
3,test,4,0.0,2-Back,1,m,Mon Feb 24 2025 13:30:23 GMT-0600 (Central Standard Time),685410.3,110_o_f_n_a.png,O,m,767,5,1,1795.3999999999069,683614.9000000001,7063,NNB,B,3
4,test,4,0.0,2-Back,1,m,Mon Feb 24 2025 13:30:23 GMT-0600 (Central Standard Time),687542.9000000001,110_o_f_n_a.png,O,m,1112,6,1,2128.7000000001863,685414.2,7063,NNB,B,4
5,test,4,0.0,2-Back,1,m,Mon Feb 24 2025 13:30:23 GMT-0600 (Central Standard Time),689442.4000000001,029_m_f_n_a.png,O,m,867,7,1,1895.7000000001863,687546.7,7063,NNB,B,5
6,test,4,0.0,2-Back,1,m,Mon Feb 24 2025 13:30:23 GMT-0600 (Central Standard Time),691326.3,013_y_m_n_a.png,O,m,864,8,1,1880.7999999998137,689445.5000000002,7063,NNB,B,6
7,test,4,1.0,2-Back,1,z,Mon Feb 24 2025 13:30:23 GMT-0600 (Central Standard Time),693091.0999999999,029_m_f_n_a.png,O,z,749,9,1,1760.0999999996275,691331.0000000002,7063,NNB,B,7
8,test,4,0.0,2-Back,1,m,Mon Feb 24 2025 13:30:23 GMT-0600 (Central Standard Time),695007.3,126_m_m_n_a.png,O,m,887,10,1,1912.2999999998137,693095.0000000002,7063,NNB,B,8
8,test,4,0.0,2-Back,0,m,Mon Feb 24 2025 13:30:23 GMT-0600 (Central Standard Time),697106.7,013_y_m_n_a.png,O,z,1075,11,1,2095.0,695011.7,7063,NNB,B,9
9,test,4,0.0,2-Back,1,m,Mon Feb 24 2025 13:30:23 GMT-0600 (Central Standard Time),699813.8,086_o_f_n_a.png,O,m,1673,12,1,2704.0,697109.8,7063,NNB,B,10
10,test,4,0.0,2-Back,1,m,Mon Feb 24 2025 13:30:23 GMT-0600 (Central Standard Time),701855.4000000001,153_y_m_n_a.png,O,m,1028,13,1,2037.8000000002794,699817.5999999999,7063,NNB,B,11
11,test,4,1.0,2-Back,1,z,Mon Feb 24 2025 13:30:23 GMT-0600 (Central Standard Time),703754.5000000002,086_o_f_n_a.png,O,z,875,14,1,1895.2000000001863,701859.3,7063,NNB,B,12
12,test,4,1.0,2-Back,1,z,Mon Feb 24 2025 13:30:23 GMT-0600 (Central Standard Time),706337.2,153_y_m_n_a.png,O,z,1551,15,1,2578.7999999998137,703758.4000000001,7063,NNB,B,13
13,test,4,0.0,2-Back,1,m,Mon Feb 24 2025 13:30:23 GMT-0600 (Central Standard Time),708686.5999999999,178_m_m_n_a.png,O,m,1329,16,1,2345.5999999996275,706341.0000000002,7063,NNB,B,14
14,test,4,0.0,2-Back,1,m,Mon Feb 24 2025 13:30:23 GMT-0600 (Central Standard Time),710435.7,097_m_f_n_a.png,O,m,732,17,1,1745.1999999997206,708690.5000000002,7063,NNB,B,15
15,test,4,1.0,2-Back,1,z,Mon Feb 24 2025 13:30:23 GMT-0600 (Central Standard Time),712485.0999999999,178_m_m_n_a.png,O,z,1030,18,1,2046.3999999999069,710438.7,7063,NNB,B,16
0,test,5,1.0,2-Back,,,Mon Feb 24 2025 13:30:23 GMT-0600 (Central Standard Time),712485.0999999999,153_y_m_n_a.png,O,space,2925,1,1,2046.3999999999069,710438.7,7063,NNB,B,0
0,test,5,1.0,2-Back,,,Mon Feb 24 2025 13:30:23 GMT-0600 (Central Standard Time),712485.0999999999,097_m_f_n_a.png,O,space,2925,2,1,2046.3999999999069,710438.7,7063,NNB,B,0
1,test,5,1.0,2-Back,1,z,Mon Feb 24 2025 13:30:23 GMT-0600 (Central Standard Time),722898.5000000002,153_y_m_n_a.png,O,z,1408,3,1,2428.2000000001863,720470.3,7063,NNB,B,1
2,test,5,1.0,2-Back,1,z,Mon Feb 24 2025 13:30:23 GMT-0600 (Central Standard Time),725014.7,097_m_f_n_a.png,O,z,1095,4,1,2113.0,722901.7,7063,NNB,B,2
3,test,5,0.0,2-Back,1,m,Mon Feb 24 2025 13:30:23 GMT-0600 (Central Standard Time),726864.2,086_o_f_n_a.png,O,m,819,5,1,1846.1999999997206,725018.0000000002,7063,NNB,B,3
4,test,5,0.0,2-Back,1,m,Mon Feb 24 2025 13:30:23 GMT-0600 (Central Standard Time),728979.8,153_y_m_n_a.png,O,m,1099,6,1,2112.2000000001863,726867.5999999999,7063,NNB,B,4
5,test,5,0.0,2-Back,1,m,Mon Feb 24 2025 13:30:23 GMT-0600 (Central Standard Time),730829.7,173_y_f_n_a.png,O,m,822,7,1,1846.8999999999069,728982.8,7063,NNB,B,5
5,test,5,0.0,2-Back,0,m,Mon Feb 24 2025 13:30:23 GMT-0600 (Central Standard Time),732778.9000000001,086_o_f_n_a.png,O,z,917,8,1,1946.0,730832.9000000001,7063,NNB,B,6
6,test,5,1.0,2-Back,1,z,Mon Feb 24 2025 13:30:23 GMT-0600 (Central Standard Time),735111.7,173_y_f_n_a.png,O,z,1311,9,1,2328.899999999907,732782.8,7063,NNB,B,7
7,test,5,0.0,2-Back,1,m,Mon Feb 24 2025 13:30:23 GMT-0600 (Central Standard Time),736894.4000000001,065_o_m_n_a.png,O,m,763,10,1,1779.6000000000931,735114.8,7063,NNB,B,8
8,test,5,0.0,2-Back,1,m,Mon Feb 24 2025 13:30:23 GMT-0600 (Central Standard Time),738810.5000000002,029_m_f_n_a.png,O,m,883,11,1,1913.0,736897.5000000002,7063,NNB,B,9
9,test,5,0.0,2-Back,1,m,Mon Feb 24 2025 13:30:23 GMT-0600 (Central Standard Time),740826.5000000002,126_m_m_n_a.png,O,m,992,12,1,2012.9000000003725,738813.5999999999,7063,NNB,B,10
9,test,5,0.0,2-Back,0,m,Mon Feb 24 2025 13:30:23 GMT-0600 (Central Standard Time),742892.3,065_o_m_n_a.png,O,z,1048,13,1,2062.399999999907,740829.9000000001,7063,NNB,B,11
10,test,5,1.0,2-Back,1,z,Mon Feb 24 2025 13:30:23 GMT-0600 (Central Standard Time),745341.5999999999,126_m_m_n_a.png,O,z,1422,14,1,2445.7999999998137,742895.8,7063,NNB,B,12
11,test,5,0.0,2-Back,1,m,Mon Feb 24 2025 13:30:23 GMT-0600 (Central Standard Time),747525.3,152_y_f_n_a.png,O,m,1165,15,1,2179.7000000001863,745345.5999999999,7063,NNB,B,13
12,test,5,0.0,2-Back,1,m,Mon Feb 24 2025 13:30:23 GMT-0600 (Central Standard Time),749423.9000000001,176_o_m_n_a.png,O,m,878,16,1,1894.3999999999069,747529.5000000002,7063,NNB,B,14
13,test,5,0.0,2-Back,1,m,Mon Feb 24 2025 13:30:23 GMT-0600 (Central Standard Time),751356.4000000001,029_m_f_n_a.png,O,m,907,17,1,1929.6000000000931,749426.8,7063,NNB,B,15
13,test,5,1.0,2-Back,0,z,Mon Feb 24 2025 13:30:23 GMT-0600 (Central Standard Time),753772.0999999999,176_o_m_n_a.png,O,m,1398,18,1,2412.0999999996275,751360.0000000002,7063,NNB,B,16
