acc_sum,block,block_c,change,condition,correct,correct_response,datetime,endtime,face,project,response,response_time,row_sel,session_number,start_end,starttime,subject_id,task,task_vers,trial
0,prac,1,,1-Back,,,Wed Mar 05 2025 17:15:50 GMT-0600 (Central Standard Time),,050_m_f_n_a.png,O,space,11852,1,1,,,7083,NNB,A,0
1,prac,1,0.0,1-Back,1,m,Wed Mar 05 2025 17:15:50 GMT-0600 (Central Standard Time),116262.0,063_y_f_n_a.png,O,m,1628,2,1,2441.699999988079,113820.30000001192,7083,NNB,A,1
2,prac,1,1.0,1-Back,1,z,Wed Mar 05 2025 17:15:50 GMT-0600 (Central Standard Time),117844.80000001192,063_y_f_n_a.png,O,z,805,3,1,1575.9000000059605,116268.90000000596,7083,NNB,A,2
3,prac,1,0.0,1-Back,1,m,Wed Mar 05 2025 17:15:50 GMT-0600 (Central Standard Time),119444.30000001192,053_o_m_n_a.png,O,m,796,4,1,1592.0,117852.30000001192,7083,NNB,A,3
4,prac,1,0.0,1-Back,1,m,Wed Mar 05 2025 17:15:50 GMT-0600 (Central Standard Time),121010.59999999404,058_m_m_n_a.png,O,m,757,5,1,1559.199999988079,119451.40000000596,7083,NNB,A,4
5,prac,1,1.0,1-Back,1,z,Wed Mar 05 2025 17:15:50 GMT-0600 (Central Standard Time),122926.70000001788,058_m_m_n_a.png,O,z,1128,6,1,1909.1000000238419,121017.59999999404,7083,NNB,A,5
6,prac,1,0.0,1-Back,1,m,Wed Mar 05 2025 17:15:50 GMT-0600 (Central Standard Time),125009.40000000596,047_o_f_n_a.png,O,m,1242,7,1,2075.0999999940395,122934.30000001192,7083,NNB,A,6
7,prac,1,0.0,1-Back,1,m,Wed Mar 05 2025 17:15:50 GMT-0600 (Central Standard Time),126842.09999999404,045_m_m_n_a.png,O,m,1026,8,1,1825.3999999761581,125016.70000001788,7083,NNB,A,7
7,prac,1,0.0,1-Back,0,m,Wed Mar 05 2025 17:15:50 GMT-0600 (Central Standard Time),128442.59999999404,050_m_f_n_a.png,O,z,816,9,1,1593.5,126849.09999999404,7083,NNB,A,8
7,prac,1,1.0,1-Back,0,z,Wed Mar 05 2025 17:15:50 GMT-0600 (Central Standard Time),130207.70000001788,050_m_f_n_a.png,O,m,984,10,1,1757.800000011921,128449.90000000596,7083,NNB,A,9
8,prac,1,0.0,1-Back,1,m,Wed Mar 05 2025 17:15:50 GMT-0600 (Central Standard Time),131790.5,053_o_m_n_a.png,O,m,795,11,1,1575.5999999940395,130214.90000000596,7083,NNB,A,10
9,prac,1,0.0,1-Back,1,m,Wed Mar 05 2025 17:15:50 GMT-0600 (Central Standard Time),133523.40000000596,010_y_f_n_a.png,O,m,895,12,1,1725.800000011921,131797.59999999404,7083,NNB,A,11
0,test,1,0.0,1-Back,,,Wed Mar 05 2025 17:15:50 GMT-0600 (Central Standard Time),133523.40000000596,063_y_f_n_a.png,O,space,12071,1,1,1725.800000011921,131797.59999999404,7083,NNB,A,0
1,test,1,0.0,1-Back,1,m,Wed Mar 05 2025 17:15:50 GMT-0600 (Central Standard Time),158981.90000000596,043_m_f_n_a.png,O,m,894,2,1,1910.0,157071.90000000596,7083,NNB,A,1
2,test,1,0.0,1-Back,1,m,Wed Mar 05 2025 17:15:50 GMT-0600 (Central Standard Time),161164.5,010_y_f_n_a.png,O,m,1163,3,1,2176.9000000059605,158987.59999999404,7083,NNB,A,2
3,test,1,1.0,1-Back,1,z,Wed Mar 05 2025 17:15:50 GMT-0600 (Central Standard Time),162930.40000000596,010_y_f_n_a.png,O,z,748,4,1,1760.0,161170.40000000596,7083,NNB,A,3
4,test,1,0.0,1-Back,1,m,Wed Mar 05 2025 17:15:50 GMT-0600 (Central Standard Time),164980.09999999404,043_m_f_n_a.png,O,m,1031,5,1,2043.5,162936.59999999404,7083,NNB,A,4
5,test,1,0.0,1-Back,1,m,Wed Mar 05 2025 17:15:50 GMT-0600 (Central Standard Time),166979.0,053_o_m_n_a.png,O,m,981,6,1,1992.699999988079,164986.30000001192,7083,NNB,A,5
6,test,1,1.0,1-Back,1,z,Wed Mar 05 2025 17:15:50 GMT-0600 (Central Standard Time),168745.30000001192,053_o_m_n_a.png,O,z,734,7,1,1760.5999999940395,166984.70000001788,7083,NNB,A,6
7,test,1,0.0,1-Back,1,m,Wed Mar 05 2025 17:15:50 GMT-0600 (Central Standard Time),171011.5,058_m_m_n_a.png,O,m,1240,8,1,2260.2999999821186,168751.20000001788,7083,NNB,A,7
8,test,1,0.0,1-Back,1,m,Wed Mar 05 2025 17:15:50 GMT-0600 (Central Standard Time),173077.59999999404,047_o_f_n_a.png,O,m,1038,9,1,2060.399999976158,171017.20000001788,7083,NNB,A,8
9,test,1,0.0,1-Back,1,m,Wed Mar 05 2025 17:15:50 GMT-0600 (Central Standard Time),175226.90000000596,058_m_m_n_a.png,O,m,1124,10,1,2143.5999999940395,173083.30000001192,7083,NNB,A,9
10,test,1,0.0,1-Back,1,m,Wed Mar 05 2025 17:15:50 GMT-0600 (Central Standard Time),177276.20000001788,041_y_m_n_a.png,O,m,1030,11,1,2043.5,175232.70000001788,7083,NNB,A,10
11,test,1,1.0,1-Back,1,z,Wed Mar 05 2025 17:15:50 GMT-0600 (Central Standard Time),179158.70000001788,041_y_m_n_a.png,O,z,766,12,1,1876.6000000238419,177282.09999999404,7083,NNB,A,11
12,test,1,0.0,1-Back,1,m,Wed Mar 05 2025 17:15:50 GMT-0600 (Central Standard Time),181024.80000001192,044_o_f_n_a.png,O,m,842,13,1,1859.9000000059605,179164.90000000596,7083,NNB,A,12
13,test,1,1.0,1-Back,1,z,Wed Mar 05 2025 17:15:50 GMT-0600 (Central Standard Time),183274.30000001192,044_o_f_n_a.png,O,z,1216,14,1,2243.4000000059605,181030.90000000596,7083,NNB,A,13
14,test,1,0.0,1-Back,1,m,Wed Mar 05 2025 17:15:50 GMT-0600 (Central Standard Time),185590.0,008_y_m_n_a.png,O,m,1295,15,1,2309.5,183280.5,7083,NNB,A,14
15,test,1,0.0,1-Back,1,m,Wed Mar 05 2025 17:15:50 GMT-0600 (Central Standard Time),187889.40000000596,050_m_f_n_a.png,O,m,1275,16,1,2293.5,185595.90000000596,7083,NNB,A,15
16,test,1,0.0,1-Back,1,m,Wed Mar 05 2025 17:15:50 GMT-0600 (Central Standard Time),190090.20000001788,046_o_m_n_a.png,O,m,1184,17,1,2194.7000000178814,187895.5,7083,NNB,A,16
17,test,1,0.0,1-Back,1,m,Wed Mar 05 2025 17:15:50 GMT-0600 (Central Standard Time),192404.90000000596,050_m_f_n_a.png,O,m,1296,18,1,2308.800000011921,190096.09999999404,7083,NNB,A,17
0,test,2,0.0,1-Back,,,Wed Mar 05 2025 17:15:50 GMT-0600 (Central Standard Time),192404.90000000596,058_m_m_n_a.png,O,space,2764,1,1,2308.800000011921,190096.09999999404,7083,NNB,A,0
1,test,2,0.0,1-Back,1,m,Wed Mar 05 2025 17:15:50 GMT-0600 (Central Standard Time),199302.59999999404,043_m_f_n_a.png,O,m,1087,2,1,2110.0,197192.59999999404,7083,NNB,A,1
2,test,2,1.0,1-Back,1,z,Wed Mar 05 2025 17:15:50 GMT-0600 (Central Standard Time),201118.59999999404,043_m_f_n_a.png,O,z,794,3,1,1809.7999999821186,199308.80000001192,7083,NNB,A,2
3,test,2,0.0,1-Back,1,m,Wed Mar 05 2025 17:15:50 GMT-0600 (Central Standard Time),203234.70000001788,058_m_m_n_a.png,O,m,1091,4,1,2110.0,201124.70000001788,7083,NNB,A,3
4,test,2,0.0,1-Back,1,m,Wed Mar 05 2025 17:15:50 GMT-0600 (Central Standard Time),205383.80000001192,041_y_m_n_a.png,O,m,1119,5,1,2142.800000011921,203241.0,7083,NNB,A,4
5,test,2,0.0,1-Back,1,m,Wed Mar 05 2025 17:15:50 GMT-0600 (Central Standard Time),207567.40000000596,063_y_f_n_a.png,O,m,1153,6,1,2177.699999988079,205389.70000001788,7083,NNB,A,5
5,test,2,1.0,1-Back,0,z,Wed Mar 05 2025 17:15:50 GMT-0600 (Central Standard Time),209832.59999999404,063_y_f_n_a.png,O,m,1235,7,1,2259.699999988079,207572.90000000596,7083,NNB,A,6
6,test,2,0.0,1-Back,1,m,Wed Mar 05 2025 17:15:50 GMT-0600 (Central Standard Time),211798.59999999404,041_y_m_n_a.png,O,m,937,8,1,1959.7999999821186,209838.80000001192,7083,NNB,A,7
7,test,2,0.0,1-Back,1,m,Wed Mar 05 2025 17:15:50 GMT-0600 (Central Standard Time),213914.59999999404,044_o_f_n_a.png,O,m,1090,9,1,2110.0,211804.59999999404,7083,NNB,A,8
8,test,2,0.0,1-Back,1,m,Wed Mar 05 2025 17:15:50 GMT-0600 (Central Standard Time),215980.59999999404,045_m_m_n_a.png,O,m,1039,10,1,2060.2999999821186,213920.30000001192,7083,NNB,A,9
9,test,2,1.0,1-Back,1,z,Wed Mar 05 2025 17:15:50 GMT-0600 (Central Standard Time),217830.0,045_m_m_n_a.png,O,z,820,11,1,1843.0,215987.0,7083,NNB,A,10
10,test,2,0.0,1-Back,1,m,Wed Mar 05 2025 17:15:50 GMT-0600 (Central Standard Time),219929.20000001788,044_o_f_n_a.png,O,m,1067,12,1,2093.100000023842,217836.09999999404,7083,NNB,A,11
11,test,2,0.0,1-Back,1,m,Wed Mar 05 2025 17:15:50 GMT-0600 (Central Standard Time),221978.70000001788,047_o_f_n_a.png,O,m,1024,13,1,2043.0,219935.70000001788,7083,NNB,A,12
12,test,2,0.0,1-Back,1,m,Wed Mar 05 2025 17:15:50 GMT-0600 (Central Standard Time),224044.90000000596,053_o_m_n_a.png,O,m,1047,14,1,2060.300000011921,221984.59999999404,7083,NNB,A,13
13,test,2,0.0,1-Back,1,m,Wed Mar 05 2025 17:15:50 GMT-0600 (Central Standard Time),225994.30000001192,046_o_m_n_a.png,O,m,916,15,1,1943.300000011921,224051.0,7083,NNB,A,14
14,test,2,1.0,1-Back,1,z,Wed Mar 05 2025 17:15:50 GMT-0600 (Central Standard Time),227776.90000000596,046_o_m_n_a.png,O,z,751,16,1,1776.5999999940395,226000.30000001192,7083,NNB,A,15
15,test,2,0.0,1-Back,1,m,Wed Mar 05 2025 17:15:50 GMT-0600 (Central Standard Time),229776.20000001788,008_y_m_n_a.png,O,m,968,17,1,1993.7000000178814,227782.5,7083,NNB,A,16
16,test,2,1.0,1-Back,1,z,Wed Mar 05 2025 17:15:50 GMT-0600 (Central Standard Time),231625.70000001788,008_y_m_n_a.png,O,z,817,18,1,1843.5,229782.20000001788,7083,NNB,A,17
0,test,3,1.0,1-Back,,,Wed Mar 05 2025 17:15:50 GMT-0600 (Central Standard Time),231625.70000001788,010_y_f_n_a.png,O,space,4704,1,1,1843.5,229782.20000001788,7083,NNB,A,0
1,test,3,0.0,1-Back,1,m,Wed Mar 05 2025 17:15:50 GMT-0600 (Central Standard Time),240673.0,046_o_m_n_a.png,O,m,1234,2,1,2260.0999999940395,238412.90000000596,7083,NNB,A,1
2,test,3,1.0,1-Back,1,z,Wed Mar 05 2025 17:15:50 GMT-0600 (Central Standard Time),242355.70000001788,046_o_m_n_a.png,O,z,657,3,1,1676.9000000059605,240678.80000001192,7083,NNB,A,2
3,test,3,0.0,1-Back,1,m,Wed Mar 05 2025 17:15:50 GMT-0600 (Central Standard Time),244356.09999999404,050_m_f_n_a.png,O,m,981,4,1,1994.2999999821186,242361.80000001192,7083,NNB,A,3
4,test,3,1.0,1-Back,1,z,Wed Mar 05 2025 17:15:50 GMT-0600 (Central Standard Time),245989.70000001788,050_m_f_n_a.png,O,z,614,5,1,1627.1000000238419,244362.59999999404,7083,NNB,A,4
5,test,3,0.0,1-Back,1,m,Wed Mar 05 2025 17:15:50 GMT-0600 (Central Standard Time),247770.5,044_o_f_n_a.png,O,m,765,6,1,1775.2999999821186,245995.20000001788,7083,NNB,A,5
6,test,3,0.0,1-Back,1,m,Wed Mar 05 2025 17:15:50 GMT-0600 (Central Standard Time),249653.5,041_y_m_n_a.png,O,m,862,7,1,1877.2999999821186,247776.20000001788,7083,NNB,A,6
7,test,3,0.0,1-Back,1,m,Wed Mar 05 2025 17:15:50 GMT-0600 (Central Standard Time),251386.30000001192,044_o_f_n_a.png,O,m,708,8,1,1727.0999999940395,249659.20000001788,7083,NNB,A,7
8,test,3,0.0,1-Back,1,m,Wed Mar 05 2025 17:15:50 GMT-0600 (Central Standard Time),253368.80000001192,008_y_m_n_a.png,O,m,959,9,1,1977.0,251391.80000001192,7083,NNB,A,8
9,test,3,1.0,1-Back,1,z,Wed Mar 05 2025 17:15:50 GMT-0600 (Central Standard Time),255151.70000001788,008_y_m_n_a.png,O,z,752,10,1,1776.0,253375.70000001788,7083,NNB,A,9
10,test,3,0.0,1-Back,1,m,Wed Mar 05 2025 17:15:50 GMT-0600 (Central Standard Time),257034.30000001192,043_m_f_n_a.png,O,m,866,11,1,1876.9000000059605,255157.40000000596,7083,NNB,A,10
11,test,3,0.0,1-Back,1,m,Wed Mar 05 2025 17:15:50 GMT-0600 (Central Standard Time),259150.30000001192,063_y_f_n_a.png,O,m,1087,12,1,2110.0,257040.30000001192,7083,NNB,A,11
12,test,3,1.0,1-Back,1,z,Wed Mar 05 2025 17:15:50 GMT-0600 (Central Standard Time),260833.30000001192,063_y_f_n_a.png,O,z,659,13,1,1677.0999999940395,259156.20000001788,7083,NNB,A,12
13,test,3,0.0,1-Back,1,m,Wed Mar 05 2025 17:15:50 GMT-0600 (Central Standard Time),262532.90000000596,043_m_f_n_a.png,O,m,672,14,1,1693.5999999940395,260839.30000001192,7083,NNB,A,13
14,test,3,0.0,1-Back,1,m,Wed Mar 05 2025 17:15:50 GMT-0600 (Central Standard Time),264299.0,058_m_m_n_a.png,O,m,741,15,1,1759.5999999940395,262539.40000000596,7083,NNB,A,14
14,test,3,1.0,1-Back,0,z,Wed Mar 05 2025 17:15:50 GMT-0600 (Central Standard Time),266398.09999999404,058_m_m_n_a.png,O,m,1078,16,1,2093.199999988079,264304.90000000596,7083,NNB,A,15
15,test,3,0.0,1-Back,1,m,Wed Mar 05 2025 17:15:50 GMT-0600 (Central Standard Time),268497.3000000119,047_o_f_n_a.png,O,m,1067,17,1,2093.0,266404.3000000119,7083,NNB,A,16
16,test,3,1.0,1-Back,1,z,Wed Mar 05 2025 17:15:50 GMT-0600 (Central Standard Time),270196.90000000596,047_o_f_n_a.png,O,z,680,18,1,1693.5,268503.40000000596,7083,NNB,A,17
0,test,4,1.0,1-Back,,,Wed Mar 05 2025 17:15:50 GMT-0600 (Central Standard Time),270196.90000000596,050_m_f_n_a.png,O,space,2044,1,1,1693.5,268503.40000000596,7083,NNB,A,0
1,test,4,0.0,1-Back,1,m,Wed Mar 05 2025 17:15:50 GMT-0600 (Central Standard Time),276128.59999999404,046_o_m_n_a.png,O,m,843,2,1,1860.199999988079,274268.40000000596,7083,NNB,A,1
2,test,4,0.0,1-Back,1,m,Wed Mar 05 2025 17:15:50 GMT-0600 (Central Standard Time),277878.09999999404,050_m_f_n_a.png,O,m,720,3,1,1743.2999999821186,276134.8000000119,7083,NNB,A,2
3,test,4,0.0,1-Back,1,m,Wed Mar 05 2025 17:15:50 GMT-0600 (Central Standard Time),279594.2000000179,044_o_f_n_a.png,O,m,691,4,1,1710.5,277883.7000000179,7083,NNB,A,3
4,test,4,1.0,1-Back,1,z,Wed Mar 05 2025 17:15:50 GMT-0600 (Central Standard Time),281276.8000000119,044_o_f_n_a.png,O,z,663,5,1,1676.7000000178814,279600.09999999404,7083,NNB,A,4
5,test,4,0.0,1-Back,1,m,Wed Mar 05 2025 17:15:50 GMT-0600 (Central Standard Time),283076.2000000179,063_y_f_n_a.png,O,m,780,6,1,1793.5,281282.7000000179,7083,NNB,A,5
6,test,4,0.0,1-Back,1,m,Wed Mar 05 2025 17:15:50 GMT-0600 (Central Standard Time),285077.0,041_y_m_n_a.png,O,m,980,7,1,1994.9000000059605,283082.09999999404,7083,NNB,A,6
7,test,4,1.0,1-Back,1,z,Wed Mar 05 2025 17:15:50 GMT-0600 (Central Standard Time),286824.90000000596,041_y_m_n_a.png,O,z,718,8,1,1741.800000011921,285083.09999999404,7083,NNB,A,7
8,test,4,0.0,1-Back,1,m,Wed Mar 05 2025 17:15:50 GMT-0600 (Central Standard Time),289040.90000000596,063_y_f_n_a.png,O,m,1184,9,1,2209.699999988079,286831.2000000179,7083,NNB,A,8
9,test,4,0.0,1-Back,1,m,Wed Mar 05 2025 17:15:50 GMT-0600 (Central Standard Time),291090.3000000119,045_m_m_n_a.png,O,m,1024,10,1,2043.0999999940395,289047.2000000179,7083,NNB,A,9
10,test,4,1.0,1-Back,1,z,Wed Mar 05 2025 17:15:50 GMT-0600 (Central Standard Time),292806.40000000596,045_m_m_n_a.png,O,z,687,11,1,1710.0,291096.40000000596,7083,NNB,A,10
11,test,4,0.0,1-Back,1,m,Wed Mar 05 2025 17:15:50 GMT-0600 (Central Standard Time),294805.90000000596,047_o_f_n_a.png,O,m,979,12,1,1993.699999988079,292812.2000000179,7083,NNB,A,11
12,test,4,0.0,1-Back,1,m,Wed Mar 05 2025 17:15:50 GMT-0600 (Central Standard Time),296605.40000000596,053_o_m_n_a.png,O,m,779,13,1,1792.9000000059605,294812.5,7083,NNB,A,12
13,test,4,0.0,1-Back,1,m,Wed Mar 05 2025 17:15:50 GMT-0600 (Central Standard Time),298371.40000000596,047_o_f_n_a.png,O,m,748,14,1,1759.800000011921,296611.59999999404,7083,NNB,A,13
14,test,4,0.0,1-Back,1,m,Wed Mar 05 2025 17:15:50 GMT-0600 (Central Standard Time),300220.90000000596,010_y_f_n_a.png,O,m,830,15,1,1843.4000000059605,298377.5,7083,NNB,A,14
15,test,4,1.0,1-Back,1,z,Wed Mar 05 2025 17:15:50 GMT-0600 (Central Standard Time),302153.59999999404,010_y_f_n_a.png,O,z,908,16,1,1926.7999999821186,300226.8000000119,7083,NNB,A,15
16,test,4,0.0,1-Back,1,m,Wed Mar 05 2025 17:15:50 GMT-0600 (Central Standard Time),304269.59999999404,043_m_f_n_a.png,O,m,1088,17,1,2110.0999999940395,302159.5,7083,NNB,A,16
17,test,4,1.0,1-Back,1,z,Wed Mar 05 2025 17:15:50 GMT-0600 (Central Standard Time),306085.7000000179,043_m_f_n_a.png,O,z,787,18,1,1810.2000000178814,304275.5,7083,NNB,A,17
0,test,5,1.0,1-Back,,,Wed Mar 05 2025 17:15:50 GMT-0600 (Central Standard Time),306085.7000000179,053_o_m_n_a.png,O,space,1467,1,1,1810.2000000178814,304275.5,7083,NNB,A,0
1,test,5,1.0,1-Back,1,z,Wed Mar 05 2025 17:15:50 GMT-0600 (Central Standard Time),311334.0,053_o_m_n_a.png,O,z,721,2,1,1743.4000000059605,309590.59999999404,7083,NNB,A,1
2,test,5,0.0,1-Back,1,m,Wed Mar 05 2025 17:15:50 GMT-0600 (Central Standard Time),312933.59999999404,063_y_f_n_a.png,O,m,579,3,1,1593.2999999821186,311340.3000000119,7083,NNB,A,2
3,test,5,0.0,1-Back,1,m,Wed Mar 05 2025 17:15:50 GMT-0600 (Central Standard Time),314632.59999999404,041_y_m_n_a.png,O,m,676,4,1,1691.0999999940395,312941.5,7083,NNB,A,3
4,test,5,0.0,1-Back,1,m,Wed Mar 05 2025 17:15:50 GMT-0600 (Central Standard Time),316765.5,063_y_f_n_a.png,O,m,1104,5,1,2125.2999999821186,314640.2000000179,7083,NNB,A,4
5,test,5,0.0,1-Back,1,m,Wed Mar 05 2025 17:15:50 GMT-0600 (Central Standard Time),318365.2000000179,058_m_m_n_a.png,O,m,572,6,1,1593.4000000059605,316771.8000000119,7083,NNB,A,5
6,test,5,1.0,1-Back,1,z,Wed Mar 05 2025 17:15:50 GMT-0600 (Central Standard Time),320131.40000000596,058_m_m_n_a.png,O,z,740,7,1,1760.300000011921,318371.09999999404,7083,NNB,A,6
7,test,5,0.0,1-Back,1,m,Wed Mar 05 2025 17:15:50 GMT-0600 (Central Standard Time),321897.40000000596,010_y_f_n_a.png,O,m,742,8,1,1759.9000000059605,320137.5,7083,NNB,A,7
8,test,5,0.0,1-Back,1,m,Wed Mar 05 2025 17:15:50 GMT-0600 (Central Standard Time),323763.5,008_y_m_n_a.png,O,m,848,9,1,1860.0999999940395,321903.40000000596,7083,NNB,A,8
9,test,5,0.0,1-Back,1,m,Wed Mar 05 2025 17:15:50 GMT-0600 (Central Standard Time),325679.7000000179,010_y_f_n_a.png,O,m,893,10,1,1909.9000000059605,323769.8000000119,7083,NNB,A,9
10,test,5,0.0,1-Back,1,m,Wed Mar 05 2025 17:15:50 GMT-0600 (Central Standard Time),327795.5,047_o_f_n_a.png,O,m,1090,11,1,2109.5999999940395,325685.90000000596,7083,NNB,A,10
11,test,5,1.0,1-Back,1,z,Wed Mar 05 2025 17:15:50 GMT-0600 (Central Standard Time),329461.7000000179,047_o_f_n_a.png,O,z,646,12,1,1660.5,327801.2000000179,7083,NNB,A,11
12,test,5,0.0,1-Back,1,m,Wed Mar 05 2025 17:15:50 GMT-0600 (Central Standard Time),331161.09999999404,046_o_m_n_a.png,O,m,668,13,1,1693.5,329467.59999999404,7083,NNB,A,12
13,test,5,0.0,1-Back,1,m,Wed Mar 05 2025 17:15:50 GMT-0600 (Central Standard Time),333127.09999999404,050_m_f_n_a.png,O,m,944,14,1,1959.7999999821186,331167.3000000119,7083,NNB,A,13
14,test,5,1.0,1-Back,1,z,Wed Mar 05 2025 17:15:50 GMT-0600 (Central Standard Time),334810.2000000179,050_m_f_n_a.png,O,z,658,15,1,1677.2000000178814,333133.0,7083,NNB,A,14
15,test,5,0.0,1-Back,1,m,Wed Mar 05 2025 17:15:50 GMT-0600 (Central Standard Time),336509.40000000596,046_o_m_n_a.png,O,m,679,16,1,1693.300000011921,334816.09999999404,7083,NNB,A,15
16,test,5,0.0,1-Back,1,m,Wed Mar 05 2025 17:15:50 GMT-0600 (Central Standard Time),338642.2000000179,043_m_f_n_a.png,O,m,1108,17,1,2127.100000023842,336515.09999999404,7083,NNB,A,16
17,test,5,0.0,1-Back,1,m,Wed Mar 05 2025 17:15:50 GMT-0600 (Central Standard Time),340458.3000000119,045_m_m_n_a.png,O,m,783,18,1,1810.0999999940395,338648.2000000179,7083,NNB,A,17
0,prac,1,0.0,2-Back,,,Wed Mar 05 2025 17:15:50 GMT-0600 (Central Standard Time),340458.3000000119,008_y_m_n_a.png,O,space,7484,1,1,1810.0999999940395,338648.2000000179,7083,NNB,A,0
0,prac,1,0.0,2-Back,,,Wed Mar 05 2025 17:15:50 GMT-0600 (Central Standard Time),340458.3000000119,043_m_f_n_a.png,O,space,7484,2,1,1810.0999999940395,338648.2000000179,7083,NNB,A,0
1,prac,1,1.0,2-Back,1,m,Wed Mar 05 2025 17:15:50 GMT-0600 (Central Standard Time),453689.40000000596,046_o_m_n_a.png,O,m,1435,3,1,2225.9000000059605,451463.5,7083,NNB,A,1
2,prac,1,0.0,2-Back,1,m,Wed Mar 05 2025 17:15:50 GMT-0600 (Central Standard Time),455540.0,047_o_f_n_a.png,O,m,1025,4,1,1843.199999988079,453696.8000000119,7083,NNB,A,2
3,prac,1,0.0,2-Back,1,z,Wed Mar 05 2025 17:15:50 GMT-0600 (Central Standard Time),457488.2000000179,046_o_m_n_a.png,O,z,1165,5,1,1940.0,455548.2000000179,7083,NNB,A,3
4,prac,1,1.0,2-Back,1,z,Wed Mar 05 2025 17:15:50 GMT-0600 (Central Standard Time),459388.7000000179,047_o_f_n_a.png,O,z,1138,6,1,1892.800000011921,457495.90000000596,7083,NNB,A,4
5,prac,1,0.0,2-Back,1,m,Wed Mar 05 2025 17:15:50 GMT-0600 (Central Standard Time),461320.2000000179,045_m_m_n_a.png,O,m,1126,7,1,1924.0,459396.2000000179,7083,NNB,A,5
6,prac,1,0.0,2-Back,1,m,Wed Mar 05 2025 17:15:50 GMT-0600 (Central Standard Time),463453.0,053_o_m_n_a.png,O,m,1322,8,1,2125.4000000059605,461327.59999999404,7083,NNB,A,6
7,prac,1,0.0,2-Back,1,m,Wed Mar 05 2025 17:15:50 GMT-0600 (Central Standard Time),465485.8000000119,010_y_f_n_a.png,O,m,1245,9,1,2025.5,463460.3000000119,7083,NNB,A,7
8,prac,1,1.0,2-Back,1,z,Wed Mar 05 2025 17:15:50 GMT-0600 (Central Standard Time),467235.40000000596,053_o_m_n_a.png,O,z,964,10,1,1742.199999988079,465493.2000000179,7083,NNB,A,8
9,prac,1,0.0,2-Back,1,m,Wed Mar 05 2025 17:15:50 GMT-0600 (Central Standard Time),469134.59999999404,063_y_f_n_a.png,O,m,1088,11,1,1892.3999999761581,467242.2000000179,7083,NNB,A,9
9,prac,1,0.0,2-Back,0,m,Wed Mar 05 2025 17:15:50 GMT-0600 (Central Standard Time),471117.09999999404,045_m_m_n_a.png,O,z,1196,12,1,1975.2999999821186,469141.8000000119,7083,NNB,A,10
0,test,1,0.0,2-Back,,,Wed Mar 05 2025 17:15:50 GMT-0600 (Central Standard Time),471117.09999999404,041_y_m_n_a.png,O,space,7827,1,1,1975.2999999821186,469141.8000000119,7083,NNB,A,0
0,test,1,0.0,2-Back,,,Wed Mar 05 2025 17:15:50 GMT-0600 (Central Standard Time),471117.09999999404,041_y_m_n_a.png,O,space,7827,2,1,1975.2999999821186,469141.8000000119,7083,NNB,A,0
1,test,1,0.0,2-Back,1,m,Wed Mar 05 2025 17:15:50 GMT-0600 (Central Standard Time),496476.0,047_o_f_n_a.png,O,m,1347,3,1,2359.5999999940395,494116.40000000596,7083,NNB,A,1
2,test,1,0.0,2-Back,1,m,Wed Mar 05 2025 17:15:50 GMT-0600 (Central Standard Time),498892.0,058_m_m_n_a.png,O,m,1389,4,1,2409.7999999821186,496482.2000000179,7083,NNB,A,2
3,test,1,1.0,2-Back,1,z,Wed Mar 05 2025 17:15:50 GMT-0600 (Central Standard Time),501158.0,047_o_f_n_a.png,O,z,1245,5,1,2259.5999999940395,498898.40000000596,7083,NNB,A,3
4,test,1,0.0,2-Back,1,m,Wed Mar 05 2025 17:15:50 GMT-0600 (Central Standard Time),503390.5,063_y_f_n_a.png,O,m,1211,6,1,2225.699999988079,501164.8000000119,7083,NNB,A,4
4,test,1,0.0,2-Back,0,m,Wed Mar 05 2025 17:15:50 GMT-0600 (Central Standard Time),506189.59999999404,058_m_m_n_a.png,O,z,1779,7,1,2792.7999999821186,503396.8000000119,7083,NNB,A,5
5,test,1,1.0,2-Back,1,z,Wed Mar 05 2025 17:15:50 GMT-0600 (Central Standard Time),508322.09999999404,063_y_f_n_a.png,O,z,1099,8,1,2126.399999976158,506195.7000000179,7083,NNB,A,6
6,test,1,0.0,2-Back,1,m,Wed Mar 05 2025 17:15:50 GMT-0600 (Central Standard Time),510288.2000000179,008_y_m_n_a.png,O,m,943,9,1,1959.6000000238419,508328.59999999404,7083,NNB,A,7
7,test,1,0.0,2-Back,1,m,Wed Mar 05 2025 17:15:50 GMT-0600 (Central Standard Time),512670.8000000119,044_o_f_n_a.png,O,m,1361,10,1,2376.300000011921,510294.5,7083,NNB,A,8
8,test,1,1.0,2-Back,1,z,Wed Mar 05 2025 17:15:50 GMT-0600 (Central Standard Time),514820.3000000119,008_y_m_n_a.png,O,z,1131,11,1,2143.7000000178814,512676.59999999404,7083,NNB,A,9
9,test,1,0.0,2-Back,1,m,Wed Mar 05 2025 17:15:50 GMT-0600 (Central Standard Time),517069.40000000596,043_m_f_n_a.png,O,m,1221,12,1,2242.9000000059605,514826.5,7083,NNB,A,10
10,test,1,0.0,2-Back,1,m,Wed Mar 05 2025 17:15:50 GMT-0600 (Central Standard Time),519518.8000000119,043_m_f_n_a.png,O,m,1426,13,1,2443.0999999940395,517075.7000000179,7083,NNB,A,11
11,test,1,0.0,2-Back,1,m,Wed Mar 05 2025 17:15:50 GMT-0600 (Central Standard Time),521884.59999999404,046_o_m_n_a.png,O,m,1339,14,1,2359.2999999821186,519525.3000000119,7083,NNB,A,12
12,test,1,0.0,2-Back,1,m,Wed Mar 05 2025 17:15:50 GMT-0600 (Central Standard Time),524300.599999994,044_o_f_n_a.png,O,m,1397,15,1,2410.199999988079,521890.40000000596,7083,NNB,A,13
13,test,1,1.0,2-Back,1,z,Wed Mar 05 2025 17:15:50 GMT-0600 (Central Standard Time),526267.7000000179,046_o_m_n_a.png,O,z,949,16,1,1960.1000000238419,524307.599999994,7083,NNB,A,14
14,test,1,0.0,2-Back,1,m,Wed Mar 05 2025 17:15:50 GMT-0600 (Central Standard Time),528332.7000000179,050_m_f_n_a.png,O,m,1047,17,1,2058.600000023842,526274.099999994,7083,NNB,A,15
15,test,1,0.0,2-Back,1,m,Wed Mar 05 2025 17:15:50 GMT-0600 (Central Standard Time),530682.0,045_m_m_n_a.png,O,m,1325,18,1,2343.199999988079,528338.8000000119,7083,NNB,A,16
0,test,2,0.0,2-Back,,,Wed Mar 05 2025 17:15:50 GMT-0600 (Central Standard Time),530682.0,045_m_m_n_a.png,O,space,2967,1,1,2343.199999988079,528338.8000000119,7083,NNB,A,0
0,test,2,0.0,2-Back,,,Wed Mar 05 2025 17:15:50 GMT-0600 (Central Standard Time),530682.0,010_y_f_n_a.png,O,space,2967,2,1,2343.199999988079,528338.8000000119,7083,NNB,A,0
1,test,2,1.0,2-Back,1,z,Wed Mar 05 2025 17:15:50 GMT-0600 (Central Standard Time),540728.900000006,045_m_m_n_a.png,O,z,943,3,1,1959.9000000059605,538769.0,7083,NNB,A,1
2,test,2,0.0,2-Back,1,m,Wed Mar 05 2025 17:15:50 GMT-0600 (Central Standard Time),542894.8000000119,050_m_f_n_a.png,O,m,1144,4,1,2159.9000000059605,540734.900000006,7083,NNB,A,2
2,test,2,0.0,2-Back,0,m,Wed Mar 05 2025 17:15:50 GMT-0600 (Central Standard Time),545929.2000000179,010_y_f_n_a.png,O,None,2018,5,1,3028.4000000059605,542900.8000000119,7083,NNB,A,3
3,test,2,0.0,2-Back,1,m,Wed Mar 05 2025 17:15:50 GMT-0600 (Central Standard Time),547993.2000000179,046_o_m_n_a.png,O,m,1042,6,1,2057.7000000178814,545935.5,7083,NNB,A,4
4,test,2,0.0,2-Back,1,m,Wed Mar 05 2025 17:15:50 GMT-0600 (Central Standard Time),549892.599999994,063_y_f_n_a.png,O,m,880,7,1,1893.3999999761581,547999.2000000179,7083,NNB,A,5
5,test,2,1.0,2-Back,1,z,Wed Mar 05 2025 17:15:50 GMT-0600 (Central Standard Time),551608.5,046_o_m_n_a.png,O,z,685,8,1,1710.0,549898.5,7083,NNB,A,6
6,test,2,0.0,2-Back,1,m,Wed Mar 05 2025 17:15:50 GMT-0600 (Central Standard Time),553524.7000000179,008_y_m_n_a.png,O,m,897,9,1,1909.9000000059605,551614.8000000119,7083,NNB,A,7
7,test,2,0.0,2-Back,1,m,Wed Mar 05 2025 17:15:50 GMT-0600 (Central Standard Time),555874.3000000119,008_y_m_n_a.png,O,m,1332,10,1,2343.300000011921,553531.0,7083,NNB,A,8
8,test,2,0.0,2-Back,1,m,Wed Mar 05 2025 17:15:50 GMT-0600 (Central Standard Time),557972.900000006,043_m_f_n_a.png,O,m,1078,11,1,2092.4000000059605,555880.5,7083,NNB,A,9
9,test,2,0.0,2-Back,1,m,Wed Mar 05 2025 17:15:50 GMT-0600 (Central Standard Time),560072.599999994,010_y_f_n_a.png,O,m,1068,12,1,2093.699999988079,557978.900000006,7083,NNB,A,10
10,test,2,1.0,2-Back,1,z,Wed Mar 05 2025 17:15:50 GMT-0600 (Central Standard Time),562105.3000000119,043_m_f_n_a.png,O,z,1000,13,1,2026.300000011921,560079.0,7083,NNB,A,11
11,test,2,0.0,2-Back,1,m,Wed Mar 05 2025 17:15:50 GMT-0600 (Central Standard Time),564104.599999994,053_o_m_n_a.png,O,m,976,14,1,1993.0,562111.599999994,7083,NNB,A,12
12,test,2,0.0,2-Back,1,m,Wed Mar 05 2025 17:15:50 GMT-0600 (Central Standard Time),566587.099999994,053_o_m_n_a.png,O,m,1457,15,1,2476.0999999940395,564111.0,7083,NNB,A,13
13,test,2,0.0,2-Back,1,m,Wed Mar 05 2025 17:15:50 GMT-0600 (Central Standard Time),568619.900000006,044_o_f_n_a.png,O,m,1014,16,1,2026.4000000059605,566593.5,7083,NNB,A,14
14,test,2,0.0,2-Back,1,m,Wed Mar 05 2025 17:15:50 GMT-0600 (Central Standard Time),570552.8000000119,058_m_m_n_a.png,O,m,909,17,1,1926.4000000059605,568626.400000006,7083,NNB,A,15
15,test,2,1.0,2-Back,1,z,Wed Mar 05 2025 17:15:50 GMT-0600 (Central Standard Time),572385.5,044_o_f_n_a.png,O,z,809,18,1,1825.7999999821186,570559.7000000179,7083,NNB,A,16
0,test,3,1.0,2-Back,,,Wed Mar 05 2025 17:15:50 GMT-0600 (Central Standard Time),572385.5,041_y_m_n_a.png,O,space,2856,1,1,1825.7999999821186,570559.7000000179,7083,NNB,A,0
0,test,3,1.0,2-Back,,,Wed Mar 05 2025 17:15:50 GMT-0600 (Central Standard Time),572385.5,041_y_m_n_a.png,O,space,2856,2,1,1825.7999999821186,570559.7000000179,7083,NNB,A,0
1,test,3,0.0,2-Back,1,m,Wed Mar 05 2025 17:15:50 GMT-0600 (Central Standard Time),582165.8000000119,044_o_f_n_a.png,O,m,804,3,1,1827.300000011921,580338.5,7083,NNB,A,1
2,test,3,0.0,2-Back,1,m,Wed Mar 05 2025 17:15:50 GMT-0600 (Central Standard Time),584181.7000000179,045_m_m_n_a.png,O,m,995,4,1,2009.5,582172.2000000179,7083,NNB,A,2
3,test,3,1.0,2-Back,1,z,Wed Mar 05 2025 17:15:50 GMT-0600 (Central Standard Time),586015.099999994,044_o_f_n_a.png,O,z,803,5,1,1827.0999999940395,584188.0,7083,NNB,A,3
4,test,3,0.0,2-Back,1,m,Wed Mar 05 2025 17:15:50 GMT-0600 (Central Standard Time),588030.400000006,008_y_m_n_a.png,O,m,995,6,1,2009.4000000059605,586021.0,7083,NNB,A,4
5,test,3,0.0,2-Back,1,m,Wed Mar 05 2025 17:15:50 GMT-0600 (Central Standard Time),590080.099999994,045_m_m_n_a.png,O,m,1019,7,1,2043.199999988079,588036.900000006,7083,NNB,A,5
6,test,3,1.0,2-Back,1,z,Wed Mar 05 2025 17:15:50 GMT-0600 (Central Standard Time),592212.599999994,008_y_m_n_a.png,O,z,1106,8,1,2125.0,590087.599999994,7083,NNB,A,6
7,test,3,0.0,2-Back,1,m,Wed Mar 05 2025 17:15:50 GMT-0600 (Central Standard Time),594178.7000000179,010_y_f_n_a.png,O,m,941,9,1,1959.1000000238419,592219.599999994,7083,NNB,A,7
8,test,3,0.0,2-Back,1,m,Wed Mar 05 2025 17:15:50 GMT-0600 (Central Standard Time),596078.0,058_m_m_n_a.png,O,m,871,10,1,1893.199999988079,594184.8000000119,7083,NNB,A,8
9,test,3,1.0,2-Back,1,z,Wed Mar 05 2025 17:15:50 GMT-0600 (Central Standard Time),597877.400000006,010_y_f_n_a.png,O,z,771,11,1,1793.300000011921,596084.099999994,7083,NNB,A,9
10,test,3,1.0,2-Back,1,z,Wed Mar 05 2025 17:15:50 GMT-0600 (Central Standard Time),599793.7000000179,058_m_m_n_a.png,O,z,892,12,1,1909.5,597884.2000000179,7083,NNB,A,10
11,test,3,0.0,2-Back,1,m,Wed Mar 05 2025 17:15:50 GMT-0600 (Central Standard Time),601543.0,044_o_f_n_a.png,O,m,727,13,1,1743.4000000059605,599799.599999994,7083,NNB,A,11
12,test,3,0.0,2-Back,1,m,Wed Mar 05 2025 17:15:50 GMT-0600 (Central Standard Time),603409.0,050_m_f_n_a.png,O,m,842,14,1,1859.7999999821186,601549.2000000179,7083,NNB,A,12
13,test,3,0.0,2-Back,1,m,Wed Mar 05 2025 17:15:50 GMT-0600 (Central Standard Time),605258.599999994,046_o_m_n_a.png,O,m,832,15,1,1842.8999999761581,603415.7000000179,7083,NNB,A,13
13,test,3,1.0,2-Back,0,z,Wed Mar 05 2025 17:15:50 GMT-0600 (Central Standard Time),607407.8000000119,050_m_f_n_a.png,O,m,1118,16,1,2143.2000000178814,605264.599999994,7083,NNB,A,14
14,test,3,0.0,2-Back,1,m,Wed Mar 05 2025 17:15:50 GMT-0600 (Central Standard Time),609340.400000006,047_o_f_n_a.png,O,m,905,17,1,1926.300000011921,607414.099999994,7083,NNB,A,15
15,test,3,0.0,2-Back,1,m,Wed Mar 05 2025 17:15:50 GMT-0600 (Central Standard Time),611406.5,047_o_f_n_a.png,O,m,1045,18,1,2059.699999988079,609346.8000000119,7083,NNB,A,16
0,test,4,0.0,2-Back,,,Wed Mar 05 2025 17:15:50 GMT-0600 (Central Standard Time),611406.5,053_o_m_n_a.png,O,space,1987,1,1,2059.699999988079,609346.8000000119,7083,NNB,A,0
0,test,4,0.0,2-Back,,,Wed Mar 05 2025 17:15:50 GMT-0600 (Central Standard Time),611406.5,063_y_f_n_a.png,O,space,1987,2,1,2059.699999988079,609346.8000000119,7083,NNB,A,0
1,test,4,1.0,2-Back,1,z,Wed Mar 05 2025 17:15:50 GMT-0600 (Central Standard Time),620703.599999994,053_o_m_n_a.png,O,z,1168,3,1,2192.699999988079,618510.900000006,7083,NNB,A,1
2,test,4,1.0,2-Back,1,z,Wed Mar 05 2025 17:15:50 GMT-0600 (Central Standard Time),622869.7000000179,063_y_f_n_a.png,O,z,1138,4,1,2159.600000023842,620710.099999994,7083,NNB,A,2
3,test,4,0.0,2-Back,1,m,Wed Mar 05 2025 17:15:50 GMT-0600 (Central Standard Time),624735.7000000179,044_o_f_n_a.png,O,m,836,5,1,1859.7000000178814,622876.0,7083,NNB,A,3
4,test,4,0.0,2-Back,1,m,Wed Mar 05 2025 17:15:50 GMT-0600 (Central Standard Time),626851.599999994,044_o_f_n_a.png,O,m,1028,6,1,2109.899999976158,624741.7000000179,7083,NNB,A,4
5,test,4,0.0,2-Back,1,m,Wed Mar 05 2025 17:15:50 GMT-0600 (Central Standard Time),628734.3000000119,043_m_f_n_a.png,O,m,854,7,1,1875.5999999940395,626858.7000000179,7083,NNB,A,5
6,test,4,0.0,2-Back,1,m,Wed Mar 05 2025 17:15:50 GMT-0600 (Central Standard Time),630550.7000000179,008_y_m_n_a.png,O,m,795,8,1,1810.0,628740.7000000179,7083,NNB,A,6
7,test,4,1.0,2-Back,1,z,Wed Mar 05 2025 17:15:50 GMT-0600 (Central Standard Time),632316.8000000119,043_m_f_n_a.png,O,z,747,9,1,1759.4000000059605,630557.400000006,7083,NNB,A,7
8,test,4,0.0,2-Back,1,m,Wed Mar 05 2025 17:15:50 GMT-0600 (Central Standard Time),634082.8000000119,058_m_m_n_a.png,O,m,740,10,1,1759.7000000178814,632323.099999994,7083,NNB,A,8
9,test,4,0.0,2-Back,1,m,Wed Mar 05 2025 17:15:50 GMT-0600 (Central Standard Time),636233.099999994,008_y_m_n_a.png,O,m,1118,11,1,2143.7999999821186,634089.3000000119,7083,NNB,A,9
10,test,4,0.0,2-Back,1,m,Wed Mar 05 2025 17:15:50 GMT-0600 (Central Standard Time),638264.8000000119,047_o_f_n_a.png,O,m,1001,12,1,2025.2000000178814,636239.599999994,7083,NNB,A,10
11,test,4,0.0,2-Back,1,m,Wed Mar 05 2025 17:15:50 GMT-0600 (Central Standard Time),640280.8000000119,041_y_m_n_a.png,O,m,993,13,1,2009.800000011921,638271.0,7083,NNB,A,11
12,test,4,1.0,2-Back,1,z,Wed Mar 05 2025 17:15:50 GMT-0600 (Central Standard Time),642713.2000000179,047_o_f_n_a.png,O,z,1400,14,1,2425.7000000178814,640287.5,7083,NNB,A,12
13,test,4,1.0,2-Back,1,z,Wed Mar 05 2025 17:15:50 GMT-0600 (Central Standard Time),644845.900000006,041_y_m_n_a.png,O,z,1104,15,1,2126.4000000059605,642719.5,7083,NNB,A,13
14,test,4,0.0,2-Back,1,m,Wed Mar 05 2025 17:15:50 GMT-0600 (Central Standard Time),646662.0,045_m_m_n_a.png,O,m,795,16,1,1809.7999999821186,644852.2000000179,7083,NNB,A,14
15,test,4,0.0,2-Back,1,m,Wed Mar 05 2025 17:15:50 GMT-0600 (Central Standard Time),648494.900000006,050_m_f_n_a.png,O,m,803,17,1,1826.9000000059605,646668.0,7083,NNB,A,15
16,test,4,1.0,2-Back,1,z,Wed Mar 05 2025 17:15:50 GMT-0600 (Central Standard Time),650427.599999994,045_m_m_n_a.png,O,z,906,18,1,1926.5,648501.099999994,7083,NNB,A,16
0,test,5,1.0,2-Back,,,Wed Mar 05 2025 17:15:50 GMT-0600 (Central Standard Time),650427.599999994,041_y_m_n_a.png,O,space,1350,1,1,1926.5,648501.099999994,7083,NNB,A,0
0,test,5,1.0,2-Back,,,Wed Mar 05 2025 17:15:50 GMT-0600 (Central Standard Time),650427.599999994,050_m_f_n_a.png,O,space,1350,2,1,1926.5,648501.099999994,7083,NNB,A,0
1,test,5,1.0,2-Back,1,z,Wed Mar 05 2025 17:15:50 GMT-0600 (Central Standard Time),658808.3000000119,041_y_m_n_a.png,O,z,943,3,1,1960.300000011921,656848.0,7083,NNB,A,1
2,test,5,1.0,2-Back,1,z,Wed Mar 05 2025 17:15:50 GMT-0600 (Central Standard Time),660407.7000000179,050_m_f_n_a.png,O,z,577,4,1,1592.9000000059605,658814.8000000119,7083,NNB,A,2
3,test,5,0.0,2-Back,1,m,Wed Mar 05 2025 17:15:50 GMT-0600 (Central Standard Time),662257.2000000179,047_o_f_n_a.png,O,m,817,5,1,1843.0,660414.2000000179,7083,NNB,A,3
4,test,5,0.0,2-Back,1,m,Wed Mar 05 2025 17:15:50 GMT-0600 (Central Standard Time),664273.5,041_y_m_n_a.png,O,m,984,6,1,2009.9000000059605,662263.599999994,7083,NNB,A,4
5,test,5,0.0,2-Back,1,m,Wed Mar 05 2025 17:15:50 GMT-0600 (Central Standard Time),666172.7000000179,010_y_f_n_a.png,O,m,872,7,1,1892.7000000178814,664280.0,7083,NNB,A,5
6,test,5,0.0,2-Back,1,m,Wed Mar 05 2025 17:15:50 GMT-0600 (Central Standard Time),668405.3000000119,047_o_f_n_a.png,O,m,1212,8,1,2226.7000000178814,666178.599999994,7083,NNB,A,6
7,test,5,1.0,2-Back,1,z,Wed Mar 05 2025 17:15:50 GMT-0600 (Central Standard Time),670771.2000000179,010_y_f_n_a.png,O,z,1340,9,1,2359.7000000178814,668411.5,7083,NNB,A,7
8,test,5,0.0,2-Back,1,m,Wed Mar 05 2025 17:15:50 GMT-0600 (Central Standard Time),672847.3000000119,046_o_m_n_a.png,O,m,913,10,1,2070.0,670777.3000000119,7083,NNB,A,8
9,test,5,0.0,2-Back,1,m,Wed Mar 05 2025 17:15:50 GMT-0600 (Central Standard Time),674786.5,043_m_f_n_a.png,O,m,915,11,1,1932.199999988079,672854.3000000119,7083,NNB,A,9
10,test,5,0.0,2-Back,1,m,Wed Mar 05 2025 17:15:50 GMT-0600 (Central Standard Time),676736.0,058_m_m_n_a.png,O,m,917,12,1,1943.699999988079,674792.3000000119,7083,NNB,A,10
10,test,5,0.0,2-Back,0,m,Wed Mar 05 2025 17:15:50 GMT-0600 (Central Standard Time),678852.0,046_o_m_n_a.png,O,z,1089,13,1,2109.5999999940395,676742.400000006,7083,NNB,A,11
11,test,5,1.0,2-Back,1,z,Wed Mar 05 2025 17:15:50 GMT-0600 (Central Standard Time),680584.8000000119,058_m_m_n_a.png,O,z,701,14,1,1727.0,678857.8000000119,7083,NNB,A,12
12,test,5,0.0,2-Back,1,m,Wed Mar 05 2025 17:15:50 GMT-0600 (Central Standard Time),682434.400000006,063_y_f_n_a.png,O,m,816,15,1,1843.300000011921,680591.099999994,7083,NNB,A,13
13,test,5,0.0,2-Back,1,m,Wed Mar 05 2025 17:15:50 GMT-0600 (Central Standard Time),684250.3000000119,053_o_m_n_a.png,O,m,799,16,1,1809.7000000178814,682440.599999994,7083,NNB,A,14
14,test,5,0.0,2-Back,1,m,Wed Mar 05 2025 17:15:50 GMT-0600 (Central Standard Time),686299.7000000179,043_m_f_n_a.png,O,m,1031,17,1,2043.300000011921,684256.400000006,7083,NNB,A,15
15,test,5,1.0,2-Back,1,z,Wed Mar 05 2025 17:15:50 GMT-0600 (Central Standard Time),688015.900000006,053_o_m_n_a.png,O,z,685,18,1,1710.0,686305.900000006,7083,NNB,A,16
