acc_sum,block,block_c,change,condition,correct,correct_response,datetime,endtime,face,project,response,response_time,row_sel,session_number,start_end,starttime,subject_id,task,task_vers,trial
0,prac,1,,1-Back,,,Fri Nov 22 2024 14:53:47 GMT-0600 (Central Standard Time),,050_m_f_n_a.png,I,space,11205,1,2,,,8004,NNB,A,0
1,prac,1,0.0,1-Back,1,m,Fri Nov 22 2024 14:53:47 GMT-0600 (Central Standard Time),148526.70000000298,063_y_f_n_a.png,I,m,1096,2,2,1908.2000000029802,146618.5,8004,NNB,A,1
2,prac,1,1.0,1-Back,1,z,Fri Nov 22 2024 14:53:47 GMT-0600 (Central Standard Time),150276.30000000447,063_y_f_n_a.png,I,z,964,3,2,1742.3999999985099,148533.90000000596,8004,NNB,A,2
3,prac,1,0.0,1-Back,1,m,Fri Nov 22 2024 14:53:47 GMT-0600 (Central Standard Time),151908.80000000447,053_o_m_n_a.png,I,m,830,4,2,1625.5,150283.30000000447,8004,NNB,A,3
4,prac,1,0.0,1-Back,1,m,Fri Nov 22 2024 14:53:47 GMT-0600 (Central Standard Time),153441.5,058_m_m_n_a.png,I,m,733,5,2,1525.6999999955297,151915.80000000447,8004,NNB,A,4
5,prac,1,1.0,1-Back,1,z,Fri Nov 22 2024 14:53:47 GMT-0600 (Central Standard Time),154841.0,058_m_m_n_a.png,I,z,626,6,2,1393.0,153448.0,8004,NNB,A,5
6,prac,1,0.0,1-Back,1,m,Fri Nov 22 2024 14:53:47 GMT-0600 (Central Standard Time),156525.1000000015,047_o_f_n_a.png,I,m,843,7,2,1677.2999999970198,154847.80000000447,8004,NNB,A,6
7,prac,1,0.0,1-Back,1,m,Fri Nov 22 2024 14:53:47 GMT-0600 (Central Standard Time),158173.40000000596,045_m_m_n_a.png,I,m,839,8,2,1641.3000000044703,156532.1000000015,8004,NNB,A,7
8,prac,1,0.0,1-Back,1,m,Fri Nov 22 2024 14:53:47 GMT-0600 (Central Standard Time),159622.20000000298,050_m_f_n_a.png,I,m,581,9,2,1441.3999999985099,158180.80000000447,8004,NNB,A,8
9,prac,1,1.0,1-Back,1,z,Fri Nov 22 2024 14:53:47 GMT-0600 (Central Standard Time),161205.70000000298,050_m_f_n_a.png,I,z,796,10,2,1576.1000000014901,159629.6000000015,8004,NNB,A,9
10,prac,1,0.0,1-Back,1,m,Fri Nov 22 2024 14:53:47 GMT-0600 (Central Standard Time),162821.70000000298,053_o_m_n_a.png,I,m,837,11,2,1608.7999999970198,161212.90000000596,8004,NNB,A,10
11,prac,1,0.0,1-Back,1,m,Fri Nov 22 2024 14:53:47 GMT-0600 (Central Standard Time),164304.80000000447,010_y_f_n_a.png,I,m,632,12,2,1474.1000000014901,162830.70000000298,8004,NNB,A,11
0,test,1,0.0,1-Back,,,Fri Nov 22 2024 14:53:47 GMT-0600 (Central Standard Time),164304.80000000447,063_y_f_n_a.png,I,space,9773,1,2,1474.1000000014901,162830.70000000298,8004,NNB,A,0
1,test,1,0.0,1-Back,1,m,Fri Nov 22 2024 14:53:47 GMT-0600 (Central Standard Time),184065.1000000015,043_m_f_n_a.png,I,m,749,2,2,1825.0,182240.1000000015,8004,NNB,A,1
2,test,1,0.0,1-Back,1,m,Fri Nov 22 2024 14:53:47 GMT-0600 (Central Standard Time),185564.80000000447,010_y_f_n_a.png,I,m,472,3,2,1493.5,184071.30000000447,8004,NNB,A,2
3,test,1,1.0,1-Back,1,z,Fri Nov 22 2024 14:53:47 GMT-0600 (Central Standard Time),187264.20000000298,010_y_f_n_a.png,I,z,677,4,2,1693.6000000014901,185570.6000000015,8004,NNB,A,3
4,test,1,0.0,1-Back,1,m,Fri Nov 22 2024 14:53:47 GMT-0600 (Central Standard Time),188913.6000000015,043_m_f_n_a.png,I,m,625,5,2,1643.2999999970198,187270.30000000447,8004,NNB,A,4
5,test,1,0.0,1-Back,1,m,Fri Nov 22 2024 14:53:47 GMT-0600 (Central Standard Time),190646.40000000596,053_o_m_n_a.png,I,m,704,6,2,1726.9000000059605,188919.5,8004,NNB,A,5
6,test,1,1.0,1-Back,1,z,Fri Nov 22 2024 14:53:47 GMT-0600 (Central Standard Time),192346.1000000015,053_o_m_n_a.png,I,z,675,7,2,1693.2999999970198,190652.80000000447,8004,NNB,A,6
7,test,1,0.0,1-Back,1,m,Fri Nov 22 2024 14:53:47 GMT-0600 (Central Standard Time),194045.40000000596,058_m_m_n_a.png,I,m,671,8,2,1693.3000000044703,192352.1000000015,8004,NNB,A,7
8,test,1,0.0,1-Back,1,m,Fri Nov 22 2024 14:53:47 GMT-0600 (Central Standard Time),195977.90000000596,047_o_f_n_a.png,I,m,907,9,2,1926.6000000014901,194051.30000000447,8004,NNB,A,8
9,test,1,0.0,1-Back,1,m,Fri Nov 22 2024 14:53:47 GMT-0600 (Central Standard Time),197627.90000000596,058_m_m_n_a.png,I,m,623,10,2,1643.9000000059605,195984.0,8004,NNB,A,9
10,test,1,0.0,1-Back,1,m,Fri Nov 22 2024 14:53:47 GMT-0600 (Central Standard Time),199327.1000000015,041_y_m_n_a.png,I,m,678,11,2,1692.3999999985099,197634.70000000298,8004,NNB,A,10
11,test,1,1.0,1-Back,1,z,Fri Nov 22 2024 14:53:47 GMT-0600 (Central Standard Time),201110.0,041_y_m_n_a.png,I,z,762,12,2,1776.6999999955297,199333.30000000447,8004,NNB,A,11
12,test,1,0.0,1-Back,1,m,Fri Nov 22 2024 14:53:47 GMT-0600 (Central Standard Time),203059.20000000298,044_o_f_n_a.png,I,m,923,13,2,1943.2999999970198,201115.90000000596,8004,NNB,A,12
13,test,1,1.0,1-Back,1,z,Fri Nov 22 2024 14:53:47 GMT-0600 (Central Standard Time),204975.20000000298,044_o_f_n_a.png,I,z,886,14,2,1909.6000000014901,203065.6000000015,8004,NNB,A,13
14,test,1,0.0,1-Back,1,m,Fri Nov 22 2024 14:53:47 GMT-0600 (Central Standard Time),206853.30000000447,008_y_m_n_a.png,I,m,861,15,2,1872.3999999985099,204980.90000000596,8004,NNB,A,14
15,test,1,0.0,1-Back,1,m,Fri Nov 22 2024 14:53:47 GMT-0600 (Central Standard Time),208724.20000000298,050_m_f_n_a.png,I,m,839,16,2,1864.1000000014901,206860.1000000015,8004,NNB,A,15
16,test,1,0.0,1-Back,1,m,Fri Nov 22 2024 14:53:47 GMT-0600 (Central Standard Time),210473.6000000015,046_o_m_n_a.png,I,m,725,17,2,1743.1000000014901,208730.5,8004,NNB,A,16
17,test,1,0.0,1-Back,1,m,Fri Nov 22 2024 14:53:47 GMT-0600 (Central Standard Time),212256.20000000298,050_m_f_n_a.png,I,m,752,18,2,1776.8999999985099,210479.30000000447,8004,NNB,A,17
0,test,2,0.0,1-Back,,,Fri Nov 22 2024 14:53:47 GMT-0600 (Central Standard Time),212256.20000000298,058_m_m_n_a.png,I,space,2737,1,2,1776.8999999985099,210479.30000000447,8004,NNB,A,0
1,test,2,0.0,1-Back,1,m,Fri Nov 22 2024 14:53:47 GMT-0600 (Central Standard Time),218937.70000000298,043_m_f_n_a.png,I,m,884,2,2,1909.7999999970198,217027.90000000596,8004,NNB,A,1
2,test,2,1.0,1-Back,1,z,Fri Nov 22 2024 14:53:47 GMT-0600 (Central Standard Time),220986.70000000298,043_m_f_n_a.png,I,z,1030,3,2,2043.2000000029802,218943.5,8004,NNB,A,2
3,test,2,0.0,1-Back,1,m,Fri Nov 22 2024 14:53:47 GMT-0600 (Central Standard Time),222886.30000000447,058_m_m_n_a.png,I,m,878,4,2,1893.8999999985099,220992.40000000596,8004,NNB,A,3
4,test,2,0.0,1-Back,1,m,Fri Nov 22 2024 14:53:47 GMT-0600 (Central Standard Time),224669.20000000298,041_y_m_n_a.png,I,m,763,5,2,1777.0,222892.20000000298,8004,NNB,A,4
5,test,2,0.0,1-Back,1,m,Fri Nov 22 2024 14:53:47 GMT-0600 (Central Standard Time),226235.20000000298,063_y_f_n_a.png,I,m,540,6,2,1560.2000000029802,224675.0,8004,NNB,A,5
6,test,2,1.0,1-Back,1,z,Fri Nov 22 2024 14:53:47 GMT-0600 (Central Standard Time),227884.70000000298,063_y_f_n_a.png,I,z,622,7,2,1643.5,226241.20000000298,8004,NNB,A,6
7,test,2,0.0,1-Back,1,m,Fri Nov 22 2024 14:53:47 GMT-0600 (Central Standard Time),229600.90000000596,041_y_m_n_a.png,I,m,685,8,2,1710.2000000029802,227890.70000000298,8004,NNB,A,7
8,test,2,0.0,1-Back,1,m,Fri Nov 22 2024 14:53:47 GMT-0600 (Central Standard Time),231300.30000000447,044_o_f_n_a.png,I,m,681,9,2,1693.0,229607.30000000447,8004,NNB,A,8
9,test,2,0.0,1-Back,1,m,Fri Nov 22 2024 14:53:47 GMT-0600 (Central Standard Time),232983.0,045_m_m_n_a.png,I,m,661,10,2,1677.0,231306.0,8004,NNB,A,9
10,test,2,1.0,1-Back,1,z,Fri Nov 22 2024 14:53:47 GMT-0600 (Central Standard Time),234649.40000000596,045_m_m_n_a.png,I,z,634,11,2,1660.5,232988.90000000596,8004,NNB,A,10
11,test,2,0.0,1-Back,1,m,Fri Nov 22 2024 14:53:47 GMT-0600 (Central Standard Time),236282.40000000596,044_o_f_n_a.png,I,m,600,12,2,1627.2000000029802,234655.20000000298,8004,NNB,A,11
12,test,2,0.0,1-Back,1,m,Fri Nov 22 2024 14:53:47 GMT-0600 (Central Standard Time),237931.40000000596,047_o_f_n_a.png,I,m,623,13,2,1643.1000000014901,236288.30000000447,8004,NNB,A,12
13,test,2,0.0,1-Back,1,m,Fri Nov 22 2024 14:53:47 GMT-0600 (Central Standard Time),239647.90000000596,053_o_m_n_a.png,I,m,694,14,2,1709.3000000044703,237938.6000000015,8004,NNB,A,13
14,test,2,0.0,1-Back,1,m,Fri Nov 22 2024 14:53:47 GMT-0600 (Central Standard Time),241247.1000000015,046_o_m_n_a.png,I,m,569,15,2,1593.3999999985099,239653.70000000298,8004,NNB,A,14
15,test,2,1.0,1-Back,1,z,Fri Nov 22 2024 14:53:47 GMT-0600 (Central Standard Time),242896.90000000596,046_o_m_n_a.png,I,z,625,16,2,1643.4000000059605,241253.5,8004,NNB,A,15
16,test,2,0.0,1-Back,1,m,Fri Nov 22 2024 14:53:47 GMT-0600 (Central Standard Time),244529.6000000015,008_y_m_n_a.png,I,m,600,17,2,1626.6000000014901,242903.0,8004,NNB,A,16
17,test,2,1.0,1-Back,1,z,Fri Nov 22 2024 14:53:47 GMT-0600 (Central Standard Time),246295.80000000447,008_y_m_n_a.png,I,z,744,18,2,1759.8999999985099,244535.90000000596,8004,NNB,A,17
0,test,3,1.0,1-Back,,,Fri Nov 22 2024 14:53:47 GMT-0600 (Central Standard Time),246295.80000000447,010_y_f_n_a.png,I,space,2186,1,2,1759.8999999985099,244535.90000000596,8004,NNB,A,0
1,test,3,0.0,1-Back,1,m,Fri Nov 22 2024 14:53:47 GMT-0600 (Central Standard Time),252193.90000000596,046_o_m_n_a.png,I,m,608,2,2,1626.8000000044703,250567.1000000015,8004,NNB,A,1
2,test,3,1.0,1-Back,1,z,Fri Nov 22 2024 14:53:47 GMT-0600 (Central Standard Time),253969.90000000596,046_o_m_n_a.png,I,z,760,3,2,1770.2000000029802,252199.70000000298,8004,NNB,A,2
3,test,3,0.0,1-Back,1,m,Fri Nov 22 2024 14:53:47 GMT-0600 (Central Standard Time),255859.0,050_m_f_n_a.png,I,m,865,4,2,1882.7999999970198,253976.20000000298,8004,NNB,A,3
4,test,3,1.0,1-Back,1,z,Fri Nov 22 2024 14:53:47 GMT-0600 (Central Standard Time),257725.5,050_m_f_n_a.png,I,z,846,5,2,1860.3999999985099,255865.1000000015,8004,NNB,A,4
5,test,3,0.0,1-Back,1,m,Fri Nov 22 2024 14:53:47 GMT-0600 (Central Standard Time),259341.70000000298,044_o_f_n_a.png,I,m,588,6,2,1610.2999999970198,257731.40000000596,8004,NNB,A,5
6,test,3,0.0,1-Back,1,m,Fri Nov 22 2024 14:53:47 GMT-0600 (Central Standard Time),261091.1000000015,041_y_m_n_a.png,I,m,724,7,2,1743.2999999970198,259347.80000000447,8004,NNB,A,6
7,test,3,0.0,1-Back,1,m,Fri Nov 22 2024 14:53:47 GMT-0600 (Central Standard Time),262807.1000000015,044_o_f_n_a.png,I,m,686,8,2,1710.1999999955297,261096.90000000596,8004,NNB,A,7
8,test,3,0.0,1-Back,1,m,Fri Nov 22 2024 14:53:47 GMT-0600 (Central Standard Time),264573.30000000447,008_y_m_n_a.png,I,m,746,9,2,1759.8999999985099,262813.40000000596,8004,NNB,A,8
9,test,3,1.0,1-Back,1,z,Fri Nov 22 2024 14:53:47 GMT-0600 (Central Standard Time),266339.200000003,008_y_m_n_a.png,I,z,748,10,2,1759.7999999970198,264579.40000000596,8004,NNB,A,9
10,test,3,0.0,1-Back,1,m,Fri Nov 22 2024 14:53:47 GMT-0600 (Central Standard Time),268005.5,043_m_f_n_a.png,I,m,638,11,2,1660.3999999985099,266345.1000000015,8004,NNB,A,10
11,test,3,0.0,1-Back,1,m,Fri Nov 22 2024 14:53:47 GMT-0600 (Central Standard Time),269688.40000000596,063_y_f_n_a.png,I,m,660,12,2,1676.6000000014901,268011.80000000447,8004,NNB,A,11
12,test,3,1.0,1-Back,1,z,Fri Nov 22 2024 14:53:47 GMT-0600 (Central Standard Time),271387.90000000596,063_y_f_n_a.png,I,z,681,13,2,1692.9000000059605,269695.0,8004,NNB,A,12
13,test,3,0.0,1-Back,1,m,Fri Nov 22 2024 14:53:47 GMT-0600 (Central Standard Time),273087.30000000447,043_m_f_n_a.png,I,m,677,14,2,1693.1000000014901,271394.200000003,8004,NNB,A,13
14,test,3,0.0,1-Back,1,m,Fri Nov 22 2024 14:53:47 GMT-0600 (Central Standard Time),274620.1000000015,058_m_m_n_a.png,I,m,513,15,2,1526.3999999985099,273093.700000003,8004,NNB,A,14
15,test,3,1.0,1-Back,1,z,Fri Nov 22 2024 14:53:47 GMT-0600 (Central Standard Time),276219.700000003,058_m_m_n_a.png,I,z,581,16,2,1593.6000000014901,274626.1000000015,8004,NNB,A,15
16,test,3,0.0,1-Back,1,m,Fri Nov 22 2024 14:53:47 GMT-0600 (Central Standard Time),277952.30000000447,047_o_f_n_a.png,I,m,702,17,2,1726.8000000044703,276225.5,8004,NNB,A,16
17,test,3,1.0,1-Back,1,z,Fri Nov 22 2024 14:53:47 GMT-0600 (Central Standard Time),279718.5,047_o_f_n_a.png,I,z,737,18,2,1760.2999999970198,277958.200000003,8004,NNB,A,17
0,test,4,1.0,1-Back,,,Fri Nov 22 2024 14:53:47 GMT-0600 (Central Standard Time),279718.5,050_m_f_n_a.png,I,space,2691,1,2,1760.2999999970198,277958.200000003,8004,NNB,A,0
1,test,4,0.0,1-Back,1,m,Fri Nov 22 2024 14:53:47 GMT-0600 (Central Standard Time),286483.0,046_o_m_n_a.png,I,m,1032,2,2,2043.1999999955297,284439.80000000447,8004,NNB,A,1
2,test,4,0.0,1-Back,1,m,Fri Nov 22 2024 14:53:47 GMT-0600 (Central Standard Time),288166.1000000015,050_m_f_n_a.png,I,m,662,3,2,1676.8999999985099,286489.200000003,8004,NNB,A,2
3,test,4,0.0,1-Back,1,m,Fri Nov 22 2024 14:53:47 GMT-0600 (Central Standard Time),289965.30000000447,044_o_f_n_a.png,I,m,780,4,2,1793.1000000014901,288172.200000003,8004,NNB,A,3
4,test,4,1.0,1-Back,1,z,Fri Nov 22 2024 14:53:47 GMT-0600 (Central Standard Time),291581.700000003,044_o_f_n_a.png,I,z,588,5,2,1610.5,289971.200000003,8004,NNB,A,4
5,test,4,0.0,1-Back,1,m,Fri Nov 22 2024 14:53:47 GMT-0600 (Central Standard Time),293231.200000003,063_y_f_n_a.png,I,m,628,6,2,1643.6000000014901,291587.6000000015,8004,NNB,A,5
6,test,4,0.0,1-Back,1,m,Fri Nov 22 2024 14:53:47 GMT-0600 (Central Standard Time),294880.5,041_y_m_n_a.png,I,m,618,7,2,1643.1999999955297,293237.30000000447,8004,NNB,A,6
7,test,4,1.0,1-Back,1,z,Fri Nov 22 2024 14:53:47 GMT-0600 (Central Standard Time),296613.40000000596,041_y_m_n_a.png,I,z,705,8,2,1726.8000000044703,294886.6000000015,8004,NNB,A,7
8,test,4,0.0,1-Back,1,m,Fri Nov 22 2024 14:53:47 GMT-0600 (Central Standard Time),298229.1000000015,063_y_f_n_a.png,I,m,588,9,2,1609.6000000014901,296619.5,8004,NNB,A,8
9,test,4,0.0,1-Back,1,m,Fri Nov 22 2024 14:53:47 GMT-0600 (Central Standard Time),300012.1000000015,045_m_m_n_a.png,I,m,756,10,2,1776.1000000014901,298236.0,8004,NNB,A,9
10,test,4,1.0,1-Back,1,z,Fri Nov 22 2024 14:53:47 GMT-0600 (Central Standard Time),301795.0,045_m_m_n_a.png,I,z,711,11,2,1776.7999999970198,300018.200000003,8004,NNB,A,10
11,test,4,0.0,1-Back,1,m,Fri Nov 22 2024 14:53:47 GMT-0600 (Central Standard Time),303327.80000000447,047_o_f_n_a.png,I,m,502,12,2,1526.3000000044703,301801.5,8004,NNB,A,11
12,test,4,0.0,1-Back,1,m,Fri Nov 22 2024 14:53:47 GMT-0600 (Central Standard Time),304944.700000003,053_o_m_n_a.png,I,m,585,13,2,1610.2000000029802,303334.5,8004,NNB,A,12
13,test,4,0.0,1-Back,1,m,Fri Nov 22 2024 14:53:47 GMT-0600 (Central Standard Time),306676.80000000447,047_o_f_n_a.png,I,m,714,14,2,1725.0,304951.80000000447,8004,NNB,A,13
14,test,4,0.0,1-Back,1,m,Fri Nov 22 2024 14:53:47 GMT-0600 (Central Standard Time),308376.200000003,010_y_f_n_a.png,I,m,669,15,2,1692.8999999985099,306683.30000000447,8004,NNB,A,14
15,test,4,1.0,1-Back,1,z,Fri Nov 22 2024 14:53:47 GMT-0600 (Central Standard Time),309925.80000000447,010_y_f_n_a.png,I,z,529,16,2,1543.3999999985099,308382.40000000596,8004,NNB,A,15
16,test,4,0.0,1-Back,1,m,Fri Nov 22 2024 14:53:47 GMT-0600 (Central Standard Time),311625.1000000015,043_m_f_n_a.png,I,m,676,17,2,1693.0,309932.1000000015,8004,NNB,A,16
17,test,4,1.0,1-Back,1,z,Fri Nov 22 2024 14:53:47 GMT-0600 (Central Standard Time),313241.30000000447,043_m_f_n_a.png,I,z,592,18,2,1610.0,311631.30000000447,8004,NNB,A,17
0,test,5,1.0,1-Back,,,Fri Nov 22 2024 14:53:47 GMT-0600 (Central Standard Time),313241.30000000447,053_o_m_n_a.png,I,space,1896,1,2,1610.0,311631.30000000447,8004,NNB,A,0
1,test,5,1.0,1-Back,1,z,Fri Nov 22 2024 14:53:47 GMT-0600 (Central Standard Time),318739.700000003,053_o_m_n_a.png,I,z,557,2,2,1576.2000000029802,317163.5,8004,NNB,A,1
2,test,5,0.0,1-Back,1,m,Fri Nov 22 2024 14:53:47 GMT-0600 (Central Standard Time),320355.90000000596,063_y_f_n_a.png,I,m,598,3,2,1610.2000000029802,318745.700000003,8004,NNB,A,2
3,test,5,0.0,1-Back,1,m,Fri Nov 22 2024 14:53:47 GMT-0600 (Central Standard Time),322055.200000003,041_y_m_n_a.png,I,m,669,4,2,1693.0,320362.200000003,8004,NNB,A,3
4,test,5,0.0,1-Back,1,m,Fri Nov 22 2024 14:53:47 GMT-0600 (Central Standard Time),323704.80000000447,063_y_f_n_a.png,I,m,618,5,2,1643.0,322061.80000000447,8004,NNB,A,4
5,test,5,0.0,1-Back,1,m,Fri Nov 22 2024 14:53:47 GMT-0600 (Central Standard Time),325337.5,058_m_m_n_a.png,I,m,601,6,2,1626.5,323711.0,8004,NNB,A,5
6,test,5,1.0,1-Back,1,z,Fri Nov 22 2024 14:53:47 GMT-0600 (Central Standard Time),326786.90000000596,058_m_m_n_a.png,I,z,432,7,2,1442.7000000029802,325344.200000003,8004,NNB,A,6
7,test,5,0.0,1-Back,1,m,Fri Nov 22 2024 14:53:47 GMT-0600 (Central Standard Time),328453.200000003,010_y_f_n_a.png,I,m,638,8,2,1660.3999999985099,326792.80000000447,8004,NNB,A,7
8,test,5,0.0,1-Back,1,m,Fri Nov 22 2024 14:53:47 GMT-0600 (Central Standard Time),330352.6000000015,008_y_m_n_a.png,I,m,868,9,2,1892.7999999970198,328459.80000000447,8004,NNB,A,8
9,test,5,0.0,1-Back,1,m,Fri Nov 22 2024 14:53:47 GMT-0600 (Central Standard Time),332135.5,010_y_f_n_a.png,I,m,761,10,2,1776.2999999970198,330359.200000003,8004,NNB,A,9
10,test,5,0.0,1-Back,1,m,Fri Nov 22 2024 14:53:47 GMT-0600 (Central Standard Time),333885.0,047_o_f_n_a.png,I,m,722,11,2,1743.3999999985099,332141.6000000015,8004,NNB,A,10
11,test,5,1.0,1-Back,1,z,Fri Nov 22 2024 14:53:47 GMT-0600 (Central Standard Time),335484.40000000596,047_o_f_n_a.png,I,z,581,12,2,1593.6000000014901,333890.80000000447,8004,NNB,A,11
12,test,5,0.0,1-Back,1,m,Fri Nov 22 2024 14:53:47 GMT-0600 (Central Standard Time),337117.30000000447,046_o_m_n_a.png,I,m,613,13,2,1626.6000000014901,335490.700000003,8004,NNB,A,12
13,test,5,0.0,1-Back,1,m,Fri Nov 22 2024 14:53:47 GMT-0600 (Central Standard Time),338666.700000003,050_m_f_n_a.png,I,m,524,14,2,1543.3999999985099,337123.30000000447,8004,NNB,A,13
13,test,5,1.0,1-Back,0,z,Fri Nov 22 2024 14:53:47 GMT-0600 (Central Standard Time),340283.0,050_m_f_n_a.png,I,m,591,15,2,1609.8999999985099,338673.1000000015,8004,NNB,A,14
13,test,5,0.0,1-Back,0,m,Fri Nov 22 2024 14:53:47 GMT-0600 (Central Standard Time),342482.40000000596,046_o_m_n_a.png,I,z,1174,16,2,2193.5,340288.90000000596,8004,NNB,A,15
14,test,5,0.0,1-Back,1,m,Fri Nov 22 2024 14:53:47 GMT-0600 (Central Standard Time),344498.1000000015,043_m_f_n_a.png,I,m,991,17,2,2009.3999999985099,342488.700000003,8004,NNB,A,16
15,test,5,0.0,1-Back,1,m,Fri Nov 22 2024 14:53:47 GMT-0600 (Central Standard Time),346031.0,045_m_m_n_a.png,I,m,503,18,2,1526.7999999970198,344504.200000003,8004,NNB,A,17
0,prac,1,0.0,2-Back,,,Fri Nov 22 2024 14:53:47 GMT-0600 (Central Standard Time),346031.0,008_y_m_n_a.png,I,space,6795,1,2,1526.7999999970198,344504.200000003,8004,NNB,A,0
0,prac,1,0.0,2-Back,,,Fri Nov 22 2024 14:53:47 GMT-0600 (Central Standard Time),346031.0,043_m_f_n_a.png,I,space,6795,2,2,1526.7999999970198,344504.200000003,8004,NNB,A,0
1,prac,1,1.0,2-Back,1,m,Fri Nov 22 2024 14:53:47 GMT-0600 (Central Standard Time),453414.30000000447,046_o_m_n_a.png,I,m,762,3,2,1558.8000000044703,451855.5,8004,NNB,A,1
2,prac,1,0.0,2-Back,1,m,Fri Nov 22 2024 14:53:47 GMT-0600 (Central Standard Time),455563.700000003,047_o_f_n_a.png,I,m,1308,4,2,2142.0,453421.700000003,8004,NNB,A,2
3,prac,1,0.0,2-Back,1,z,Fri Nov 22 2024 14:53:47 GMT-0600 (Central Standard Time),457796.5,046_o_m_n_a.png,I,z,1455,5,2,2225.39999999851,455571.1000000015,8004,NNB,A,3
4,prac,1,1.0,2-Back,1,z,Fri Nov 22 2024 14:53:47 GMT-0600 (Central Standard Time),459995.40000000596,047_o_f_n_a.png,I,z,1414,6,2,2191.3000000044703,457804.1000000015,8004,NNB,A,4
5,prac,1,0.0,2-Back,1,m,Fri Nov 22 2024 14:53:47 GMT-0600 (Central Standard Time),461945.0,045_m_m_n_a.png,I,m,1137,7,2,1942.5,460002.5,8004,NNB,A,5
6,prac,1,0.0,2-Back,1,m,Fri Nov 22 2024 14:53:47 GMT-0600 (Central Standard Time),463678.90000000596,053_o_m_n_a.png,I,m,937,8,2,1726.5,461952.40000000596,8004,NNB,A,6
7,prac,1,0.0,2-Back,1,m,Fri Nov 22 2024 14:53:47 GMT-0600 (Central Standard Time),465805.1000000015,010_y_f_n_a.png,I,m,1248,9,2,2118.7999999970198,463686.30000000447,8004,NNB,A,7
8,prac,1,1.0,2-Back,1,z,Fri Nov 22 2024 14:53:47 GMT-0600 (Central Standard Time),468092.90000000596,053_o_m_n_a.png,I,z,1506,10,2,2277.3000000044703,465815.6000000015,8004,NNB,A,8
8,prac,1,0.0,2-Back,0,m,Fri Nov 22 2024 14:53:47 GMT-0600 (Central Standard Time),470075.5,063_y_f_n_a.png,I,z,1167,11,2,1975.5,468100.0,8004,NNB,A,9
8,prac,1,0.0,2-Back,0,m,Fri Nov 22 2024 14:53:47 GMT-0600 (Central Standard Time),472858.200000003,045_m_m_n_a.png,I,None,2008,12,2,2775.39999999851,470082.80000000447,8004,NNB,A,10
0,test,1,0.0,2-Back,,,Fri Nov 22 2024 14:53:47 GMT-0600 (Central Standard Time),472858.200000003,041_y_m_n_a.png,I,space,6447,1,2,2775.39999999851,470082.80000000447,8004,NNB,A,0
0,test,1,0.0,2-Back,,,Fri Nov 22 2024 14:53:47 GMT-0600 (Central Standard Time),472858.200000003,041_y_m_n_a.png,I,space,6447,2,2,2775.39999999851,470082.80000000447,8004,NNB,A,0
1,test,1,0.0,2-Back,1,m,Fri Nov 22 2024 14:53:47 GMT-0600 (Central Standard Time),492268.700000003,047_o_f_n_a.png,I,m,780,3,2,1793.0,490475.700000003,8004,NNB,A,1
2,test,1,0.0,2-Back,1,m,Fri Nov 22 2024 14:53:47 GMT-0600 (Central Standard Time),494018.0,058_m_m_n_a.png,I,m,717,4,2,1743.2999999970198,492274.700000003,8004,NNB,A,2
3,test,1,1.0,2-Back,1,z,Fri Nov 22 2024 14:53:47 GMT-0600 (Central Standard Time),495884.0,047_o_f_n_a.png,I,z,847,5,2,1859.7999999970198,494024.200000003,8004,NNB,A,3
4,test,1,0.0,2-Back,1,m,Fri Nov 22 2024 14:53:47 GMT-0600 (Central Standard Time),498050.30000000447,063_y_f_n_a.png,I,m,1133,6,2,2159.0,495891.30000000447,8004,NNB,A,4
5,test,1,0.0,2-Back,1,m,Fri Nov 22 2024 14:53:47 GMT-0600 (Central Standard Time),500332.80000000447,058_m_m_n_a.png,I,m,1263,7,2,2276.39999999851,498056.40000000596,8004,NNB,A,5
6,test,1,1.0,2-Back,1,z,Fri Nov 22 2024 14:53:47 GMT-0600 (Central Standard Time),502132.1000000015,063_y_f_n_a.png,I,z,781,8,2,1792.3999999985099,500339.700000003,8004,NNB,A,6
7,test,1,0.0,2-Back,1,m,Fri Nov 22 2024 14:53:47 GMT-0600 (Central Standard Time),504314.80000000447,008_y_m_n_a.png,I,m,1165,9,2,2176.2000000029802,502138.6000000015,8004,NNB,A,7
8,test,1,0.0,2-Back,1,m,Fri Nov 22 2024 14:53:47 GMT-0600 (Central Standard Time),506697.30000000447,044_o_f_n_a.png,I,m,1358,10,2,2376.39999999851,504320.90000000596,8004,NNB,A,8
9,test,1,1.0,2-Back,1,z,Fri Nov 22 2024 14:53:47 GMT-0600 (Central Standard Time),508297.1000000015,008_y_m_n_a.png,I,z,568,11,2,1593.1999999955297,506703.90000000596,8004,NNB,A,9
10,test,1,0.0,2-Back,1,m,Fri Nov 22 2024 14:53:47 GMT-0600 (Central Standard Time),510314.200000003,043_m_f_n_a.png,I,m,992,12,2,2010.8999999985099,508303.30000000447,8004,NNB,A,10
11,test,1,0.0,2-Back,1,m,Fri Nov 22 2024 14:53:47 GMT-0600 (Central Standard Time),512246.0,043_m_f_n_a.png,I,m,904,13,2,1925.3999999985099,510320.6000000015,8004,NNB,A,11
12,test,1,0.0,2-Back,1,m,Fri Nov 22 2024 14:53:47 GMT-0600 (Central Standard Time),514561.5,046_o_m_n_a.png,I,m,1292,14,2,2308.7999999970198,512252.700000003,8004,NNB,A,12
12,test,1,0.0,2-Back,0,m,Fri Nov 22 2024 14:53:47 GMT-0600 (Central Standard Time),516544.30000000447,044_o_f_n_a.png,I,z,960,15,2,1976.7000000029802,514567.6000000015,8004,NNB,A,13
12,test,1,1.0,2-Back,0,z,Fri Nov 22 2024 14:53:47 GMT-0600 (Central Standard Time),519010.30000000447,046_o_m_n_a.png,I,m,1449,16,2,2459.89999999851,516550.40000000596,8004,NNB,A,14
13,test,1,0.0,2-Back,1,m,Fri Nov 22 2024 14:53:47 GMT-0600 (Central Standard Time),521576.200000003,050_m_f_n_a.png,I,m,1543,17,2,2559.89999999851,519016.30000000447,8004,NNB,A,15
14,test,1,0.0,2-Back,1,m,Fri Nov 22 2024 14:53:47 GMT-0600 (Central Standard Time),523825.5,045_m_m_n_a.png,I,m,1225,18,2,2243.2999999970198,521582.200000003,8004,NNB,A,16
0,test,2,0.0,2-Back,,,Fri Nov 22 2024 14:53:47 GMT-0600 (Central Standard Time),523825.5,045_m_m_n_a.png,I,space,23928,1,2,2243.2999999970198,521582.200000003,8004,NNB,A,0
0,test,2,0.0,2-Back,,,Fri Nov 22 2024 14:53:47 GMT-0600 (Central Standard Time),523825.5,010_y_f_n_a.png,I,space,23928,2,2,2243.2999999970198,521582.200000003,8004,NNB,A,0
1,test,2,1.0,2-Back,1,z,Fri Nov 22 2024 14:53:47 GMT-0600 (Central Standard Time),554399.400000006,045_m_m_n_a.png,I,z,503,3,2,1526.8000000044703,552872.6000000015,8004,NNB,A,1
2,test,2,0.0,2-Back,1,m,Fri Nov 22 2024 14:53:47 GMT-0600 (Central Standard Time),556516.200000003,050_m_f_n_a.png,I,m,1098,4,2,2110.89999999851,554405.3000000045,8004,NNB,A,2
3,test,2,0.0,2-Back,1,m,Fri Nov 22 2024 14:53:47 GMT-0600 (Central Standard Time),558548.0,010_y_f_n_a.png,I,m,1014,5,2,2025.7999999970198,556522.200000003,8004,NNB,A,3
4,test,2,0.0,2-Back,1,m,Fri Nov 22 2024 14:53:47 GMT-0600 (Central Standard Time),560847.0,046_o_m_n_a.png,I,m,1278,6,2,2292.39999999851,558554.6000000015,8004,NNB,A,4
4,test,2,0.0,2-Back,0,m,Fri Nov 22 2024 14:53:47 GMT-0600 (Central Standard Time),563113.200000003,063_y_f_n_a.png,I,z,1242,7,2,2260.0,560853.200000003,8004,NNB,A,5
5,test,2,1.0,2-Back,1,z,Fri Nov 22 2024 14:53:47 GMT-0600 (Central Standard Time),565079.1000000015,046_o_m_n_a.png,I,z,936,8,2,1959.3999999985099,563119.700000003,8004,NNB,A,6
6,test,2,0.0,2-Back,1,m,Fri Nov 22 2024 14:53:47 GMT-0600 (Central Standard Time),566812.1000000015,008_y_m_n_a.png,I,m,706,9,2,1726.7999999970198,565085.3000000045,8004,NNB,A,7
7,test,2,0.0,2-Back,1,m,Fri Nov 22 2024 14:53:47 GMT-0600 (Central Standard Time),569194.5,008_y_m_n_a.png,I,m,1365,10,2,2376.0999999940395,566818.400000006,8004,NNB,A,8
8,test,2,0.0,2-Back,1,m,Fri Nov 22 2024 14:53:47 GMT-0600 (Central Standard Time),571427.200000003,043_m_f_n_a.png,I,m,1207,11,2,2226.2999999970198,569200.900000006,8004,NNB,A,9
9,test,2,0.0,2-Back,1,m,Fri Nov 22 2024 14:53:47 GMT-0600 (Central Standard Time),573476.400000006,010_y_f_n_a.png,I,m,1022,12,2,2042.5,571433.900000006,8004,NNB,A,10
10,test,2,1.0,2-Back,1,z,Fri Nov 22 2024 14:53:47 GMT-0600 (Central Standard Time),575592.400000006,043_m_f_n_a.png,I,z,1093,13,2,2109.8000000044703,573482.6000000015,8004,NNB,A,11
11,test,2,0.0,2-Back,1,m,Fri Nov 22 2024 14:53:47 GMT-0600 (Central Standard Time),577974.900000006,053_o_m_n_a.png,I,m,1353,14,2,2375.5,575599.400000006,8004,NNB,A,12
12,test,2,0.0,2-Back,1,m,Fri Nov 22 2024 14:53:47 GMT-0600 (Central Standard Time),580341.200000003,053_o_m_n_a.png,I,m,1346,15,2,2359.2000000029802,577982.0,8004,NNB,A,13
13,test,2,0.0,2-Back,1,m,Fri Nov 22 2024 14:53:47 GMT-0600 (Central Standard Time),582240.3000000045,044_o_f_n_a.png,I,m,876,16,2,1893.0,580347.3000000045,8004,NNB,A,14
14,test,2,0.0,2-Back,1,m,Fri Nov 22 2024 14:53:47 GMT-0600 (Central Standard Time),584806.400000006,058_m_m_n_a.png,I,m,1537,17,2,2559.8000000044703,582246.6000000015,8004,NNB,A,15
15,test,2,1.0,2-Back,1,z,Fri Nov 22 2024 14:53:47 GMT-0600 (Central Standard Time),586872.3000000045,044_o_f_n_a.png,I,z,1035,18,2,2059.8000000044703,584812.5,8004,NNB,A,16
0,test,3,1.0,2-Back,,,Fri Nov 22 2024 14:53:47 GMT-0600 (Central Standard Time),586872.3000000045,041_y_m_n_a.png,I,space,5513,1,2,2059.8000000044703,584812.5,8004,NNB,A,0
0,test,3,1.0,2-Back,,,Fri Nov 22 2024 14:53:47 GMT-0600 (Central Standard Time),586872.3000000045,041_y_m_n_a.png,I,space,5513,2,2,2059.8000000044703,584812.5,8004,NNB,A,0
1,test,3,0.0,2-Back,1,m,Fri Nov 22 2024 14:53:47 GMT-0600 (Central Standard Time),599418.5,044_o_f_n_a.png,I,m,949,3,2,1960.2999999970198,597458.200000003,8004,NNB,A,1
2,test,3,0.0,2-Back,1,m,Fri Nov 22 2024 14:53:47 GMT-0600 (Central Standard Time),601534.3000000045,045_m_m_n_a.png,I,m,1095,4,2,2109.2000000029802,599425.1000000015,8004,NNB,A,2
3,test,3,1.0,2-Back,1,z,Fri Nov 22 2024 14:53:47 GMT-0600 (Central Standard Time),603767.1000000015,044_o_f_n_a.png,I,z,1210,5,2,2226.7999999970198,601540.3000000045,8004,NNB,A,3
4,test,3,0.0,2-Back,1,m,Fri Nov 22 2024 14:53:47 GMT-0600 (Central Standard Time),605766.3000000045,008_y_m_n_a.png,I,m,978,6,2,1992.8000000044703,603773.5,8004,NNB,A,4
4,test,3,0.0,2-Back,0,m,Fri Nov 22 2024 14:53:47 GMT-0600 (Central Standard Time),608116.400000006,045_m_m_n_a.png,I,z,1331,7,2,2343.7000000029802,605772.700000003,8004,NNB,A,5
4,test,3,1.0,2-Back,0,z,Fri Nov 22 2024 14:53:47 GMT-0600 (Central Standard Time),610681.900000006,008_y_m_n_a.png,I,m,1534,8,2,2559.0,608122.900000006,8004,NNB,A,6
5,test,3,0.0,2-Back,1,m,Fri Nov 22 2024 14:53:47 GMT-0600 (Central Standard Time),613080.900000006,010_y_f_n_a.png,I,m,1376,9,2,2392.7000000029802,610688.200000003,8004,NNB,A,7
6,test,3,0.0,2-Back,1,m,Fri Nov 22 2024 14:53:47 GMT-0600 (Central Standard Time),615296.8000000045,058_m_m_n_a.png,I,m,1185,10,2,2208.5,613088.3000000045,8004,NNB,A,8
7,test,3,1.0,2-Back,1,z,Fri Nov 22 2024 14:53:47 GMT-0600 (Central Standard Time),617412.8000000045,010_y_f_n_a.png,I,z,1088,11,2,2109.89999999851,615302.900000006,8004,NNB,A,9
8,test,3,1.0,2-Back,1,z,Fri Nov 22 2024 14:53:47 GMT-0600 (Central Standard Time),620028.5,058_m_m_n_a.png,I,z,1589,12,2,2609.5,617419.0,8004,NNB,A,10
9,test,3,0.0,2-Back,1,m,Fri Nov 22 2024 14:53:47 GMT-0600 (Central Standard Time),622427.700000003,044_o_f_n_a.png,I,m,1381,13,2,2393.2000000029802,620034.5,8004,NNB,A,11
10,test,3,0.0,2-Back,1,m,Fri Nov 22 2024 14:53:47 GMT-0600 (Central Standard Time),624610.3000000045,050_m_f_n_a.png,I,m,1150,14,2,2175.89999999851,622434.400000006,8004,NNB,A,12
11,test,3,0.0,2-Back,1,m,Fri Nov 22 2024 14:53:47 GMT-0600 (Central Standard Time),626659.900000006,046_o_m_n_a.png,I,m,1031,15,2,2042.8000000044703,624617.1000000015,8004,NNB,A,13
12,test,3,1.0,2-Back,1,z,Fri Nov 22 2024 14:53:47 GMT-0600 (Central Standard Time),628492.5,050_m_f_n_a.png,I,z,806,16,2,1826.2999999970198,626666.200000003,8004,NNB,A,14
13,test,3,0.0,2-Back,1,m,Fri Nov 22 2024 14:53:47 GMT-0600 (Central Standard Time),630991.900000006,047_o_f_n_a.png,I,m,1469,17,2,2493.3000000044703,628498.6000000015,8004,NNB,A,15
14,test,3,0.0,2-Back,1,m,Fri Nov 22 2024 14:53:47 GMT-0600 (Central Standard Time),633390.900000006,047_o_f_n_a.png,I,m,1370,18,2,2392.5,630998.400000006,8004,NNB,A,16
0,test,4,0.0,2-Back,,,Fri Nov 22 2024 14:53:47 GMT-0600 (Central Standard Time),633390.900000006,053_o_m_n_a.png,I,space,6051,1,2,2392.5,630998.400000006,8004,NNB,A,0
0,test,4,0.0,2-Back,,,Fri Nov 22 2024 14:53:47 GMT-0600 (Central Standard Time),633390.900000006,063_y_f_n_a.png,I,space,6051,2,2,2392.5,630998.400000006,8004,NNB,A,0
1,test,4,1.0,2-Back,1,z,Fri Nov 22 2024 14:53:47 GMT-0600 (Central Standard Time),646386.8000000045,053_o_m_n_a.png,I,z,799,3,2,1810.0,644576.8000000045,8004,NNB,A,1
2,test,4,1.0,2-Back,1,z,Fri Nov 22 2024 14:53:47 GMT-0600 (Central Standard Time),648969.700000003,063_y_f_n_a.png,I,z,1558,4,2,2576.2999999970198,646393.400000006,8004,NNB,A,2
3,test,4,0.0,2-Back,1,m,Fri Nov 22 2024 14:53:47 GMT-0600 (Central Standard Time),650836.5,044_o_f_n_a.png,I,m,848,5,2,1860.5,648976.0,8004,NNB,A,3
4,test,4,0.0,2-Back,1,m,Fri Nov 22 2024 14:53:47 GMT-0600 (Central Standard Time),652818.5,044_o_f_n_a.png,I,m,951,6,2,1975.6999999955297,650842.8000000045,8004,NNB,A,4
5,test,4,0.0,2-Back,1,m,Fri Nov 22 2024 14:53:47 GMT-0600 (Central Standard Time),654951.0,043_m_f_n_a.png,I,m,1103,7,2,2125.5999999940395,652825.400000006,8004,NNB,A,5
6,test,4,0.0,2-Back,1,m,Fri Nov 22 2024 14:53:47 GMT-0600 (Central Standard Time),657100.3000000045,008_y_m_n_a.png,I,m,1122,8,2,2143.2000000029802,654957.1000000015,8004,NNB,A,6
6,test,4,1.0,2-Back,0,z,Fri Nov 22 2024 14:53:47 GMT-0600 (Central Standard Time),659366.200000003,043_m_f_n_a.png,I,m,1245,9,2,2259.7999999970198,657106.400000006,8004,NNB,A,7
7,test,4,0.0,2-Back,1,m,Fri Nov 22 2024 14:53:47 GMT-0600 (Central Standard Time),661566.8000000045,058_m_m_n_a.png,I,m,1171,10,2,2194.10000000149,659372.700000003,8004,NNB,A,8
8,test,4,0.0,2-Back,1,m,Fri Nov 22 2024 14:53:47 GMT-0600 (Central Standard Time),664081.5,008_y_m_n_a.png,I,m,1483,11,2,2508.0,661573.5,8004,NNB,A,9
9,test,4,0.0,2-Back,1,m,Fri Nov 22 2024 14:53:47 GMT-0600 (Central Standard Time),666097.8000000045,047_o_f_n_a.png,I,m,984,12,2,2009.8999999985099,664087.900000006,8004,NNB,A,10
10,test,4,0.0,2-Back,1,m,Fri Nov 22 2024 14:53:47 GMT-0600 (Central Standard Time),668229.900000006,041_y_m_n_a.png,I,m,1104,13,2,2125.7000000029802,666104.200000003,8004,NNB,A,11
11,test,4,1.0,2-Back,1,z,Fri Nov 22 2024 14:53:47 GMT-0600 (Central Standard Time),670213.0,047_o_f_n_a.png,I,z,955,14,2,1976.1999999955297,668236.8000000045,8004,NNB,A,12
11,test,4,1.0,2-Back,0,z,Fri Nov 22 2024 14:53:47 GMT-0600 (Central Standard Time),672445.5,041_y_m_n_a.png,I,m,1204,15,2,2226.2999999970198,670219.200000003,8004,NNB,A,13
12,test,4,0.0,2-Back,1,m,Fri Nov 22 2024 14:53:47 GMT-0600 (Central Standard Time),674328.400000006,045_m_m_n_a.png,I,m,852,16,2,1876.6000000014901,672451.8000000045,8004,NNB,A,14
13,test,4,0.0,2-Back,1,m,Fri Nov 22 2024 14:53:47 GMT-0600 (Central Standard Time),676377.6000000015,050_m_f_n_a.png,I,m,1017,17,2,2043.0,674334.6000000015,8004,NNB,A,15
14,test,4,1.0,2-Back,1,z,Fri Nov 22 2024 14:53:47 GMT-0600 (Central Standard Time),678410.3000000045,045_m_m_n_a.png,I,z,1015,18,2,2025.8999999985099,676384.400000006,8004,NNB,A,16
0,test,5,1.0,2-Back,,,Fri Nov 22 2024 14:53:47 GMT-0600 (Central Standard Time),678410.3000000045,041_y_m_n_a.png,I,space,3607,1,2,2025.8999999985099,676384.400000006,8004,NNB,A,0
0,test,5,1.0,2-Back,,,Fri Nov 22 2024 14:53:47 GMT-0600 (Central Standard Time),678410.3000000045,050_m_f_n_a.png,I,space,3607,2,2,2025.8999999985099,676384.400000006,8004,NNB,A,0
1,test,5,1.0,2-Back,1,z,Fri Nov 22 2024 14:53:47 GMT-0600 (Central Standard Time),688940.3000000045,041_y_m_n_a.png,I,z,839,3,2,1858.3999999985099,687081.900000006,8004,NNB,A,1
2,test,5,1.0,2-Back,1,z,Fri Nov 22 2024 14:53:47 GMT-0600 (Central Standard Time),691156.3000000045,050_m_f_n_a.png,I,z,1197,4,2,2209.5,688946.8000000045,8004,NNB,A,2
3,test,5,0.0,2-Back,1,m,Fri Nov 22 2024 14:53:47 GMT-0600 (Central Standard Time),693089.0,047_o_f_n_a.png,I,m,910,5,2,1925.8999999985099,691163.1000000015,8004,NNB,A,3
3,test,5,0.0,2-Back,0,m,Fri Nov 22 2024 14:53:47 GMT-0600 (Central Standard Time),695588.1000000015,041_y_m_n_a.png,I,z,1480,6,2,2493.0,693095.1000000015,8004,NNB,A,4
4,test,5,0.0,2-Back,1,m,Fri Nov 22 2024 14:53:47 GMT-0600 (Central Standard Time),697454.3000000045,010_y_f_n_a.png,I,m,845,7,2,1859.6000000014901,695594.700000003,8004,NNB,A,5
5,test,5,0.0,2-Back,1,m,Fri Nov 22 2024 14:53:47 GMT-0600 (Central Standard Time),699570.700000003,047_o_f_n_a.png,I,m,1084,8,2,2110.10000000149,697460.6000000015,8004,NNB,A,6
5,test,5,1.0,2-Back,0,z,Fri Nov 22 2024 14:53:47 GMT-0600 (Central Standard Time),701952.900000006,010_y_f_n_a.png,I,m,1351,9,2,2376.10000000149,699576.8000000045,8004,NNB,A,7
6,test,5,0.0,2-Back,1,m,Fri Nov 22 2024 14:53:47 GMT-0600 (Central Standard Time),704218.8000000045,046_o_m_n_a.png,I,m,1248,10,2,2259.89999999851,701958.900000006,8004,NNB,A,8
7,test,5,0.0,2-Back,1,m,Fri Nov 22 2024 14:53:47 GMT-0600 (Central Standard Time),706268.200000003,043_m_f_n_a.png,I,m,1023,11,2,2043.0,704225.200000003,8004,NNB,A,9
8,test,5,0.0,2-Back,1,m,Fri Nov 22 2024 14:53:47 GMT-0600 (Central Standard Time),708450.700000003,058_m_m_n_a.png,I,m,1165,12,2,2175.7999999970198,706274.900000006,8004,NNB,A,10
8,test,5,0.0,2-Back,0,m,Fri Nov 22 2024 14:53:47 GMT-0600 (Central Standard Time),710583.5,046_o_m_n_a.png,I,z,1101,13,2,2126.5999999940395,708456.900000006,8004,NNB,A,11
8,test,5,1.0,2-Back,0,z,Fri Nov 22 2024 14:53:47 GMT-0600 (Central Standard Time),713266.0,058_m_m_n_a.png,I,m,1658,14,2,2676.0999999940395,710589.900000006,8004,NNB,A,12
9,test,5,0.0,2-Back,1,m,Fri Nov 22 2024 14:53:47 GMT-0600 (Central Standard Time),715582.1000000015,063_y_f_n_a.png,I,m,1295,15,2,2309.39999999851,713272.700000003,8004,NNB,A,13
10,test,5,0.0,2-Back,1,m,Fri Nov 22 2024 14:53:47 GMT-0600 (Central Standard Time),717881.3000000045,053_o_m_n_a.png,I,m,1267,16,2,2292.5,715588.8000000045,8004,NNB,A,14
11,test,5,0.0,2-Back,1,m,Fri Nov 22 2024 14:53:47 GMT-0600 (Central Standard Time),720430.5,043_m_f_n_a.png,I,m,1528,17,2,2542.7999999970198,717887.700000003,8004,NNB,A,15
12,test,5,1.0,2-Back,1,z,Fri Nov 22 2024 14:53:47 GMT-0600 (Central Standard Time),722296.700000003,053_o_m_n_a.png,I,z,835,18,2,1859.7999999970198,720436.900000006,8004,NNB,A,16
