acc_sum,block,block_c,change,condition,correct,correct_response,datetime,endtime,face,project,response,response_time,row_sel,session_number,start_end,starttime,subject_id,task,task_vers,trial
0,prac,1,,1-Back,,,Wed Sep 25 2024 08:27:45 GMT-0500 (Central Daylight Time),,093_m_f_n_a.png,I,space,11129,1,1,,,8004,NNB,C,0
1,prac,1,0.0,1-Back,1,m,Wed Sep 25 2024 08:27:45 GMT-0500 (Central Daylight Time),200846.19999999925,098_y_f_n_a.png,I,m,1020,2,1,1891.8999999985099,198954.30000000075,8004,NNB,C,1
2,prac,1,1.0,1-Back,1,z,Wed Sep 25 2024 08:27:45 GMT-0500 (Central Daylight Time),203278.69999999925,098_y_f_n_a.png,I,z,1653,3,1,2427.300000000745,200851.3999999985,8004,NNB,C,2
3,prac,1,0.0,1-Back,1,m,Wed Sep 25 2024 08:27:45 GMT-0500 (Central Daylight Time),205411.09999999776,059_o_m_n_a.png,I,m,1259,4,1,2127.099999997765,203284.0,8004,NNB,C,3
4,prac,1,0.0,1-Back,1,m,Wed Sep 25 2024 08:27:45 GMT-0500 (Central Daylight Time),207443.80000000075,092_m_m_n_a.png,I,m,1152,5,1,2027.2000000029802,205416.59999999776,8004,NNB,C,4
5,prac,1,1.0,1-Back,1,z,Wed Sep 25 2024 08:27:45 GMT-0500 (Central Daylight Time),209226.69999999925,092_m_m_n_a.png,I,z,1008,6,1,1776.8999999985099,207449.80000000075,8004,NNB,C,5
6,prac,1,0.0,1-Back,1,m,Wed Sep 25 2024 08:27:45 GMT-0500 (Central Daylight Time),211076.0,130_o_f_n_a.png,I,m,957,7,1,1843.699999999255,209232.30000000075,8004,NNB,C,6
7,prac,1,0.0,1-Back,1,m,Wed Sep 25 2024 08:27:45 GMT-0500 (Central Daylight Time),213092.09999999776,082_m_m_n_a.png,I,m,1137,8,1,2010.8999999985099,211081.19999999925,8004,NNB,C,7
8,prac,1,0.0,1-Back,1,m,Wed Sep 25 2024 08:27:45 GMT-0500 (Central Daylight Time),214791.59999999776,093_m_f_n_a.png,I,m,911,9,1,1694.0999999977648,213097.5,8004,NNB,C,8
9,prac,1,1.0,1-Back,1,z,Wed Sep 25 2024 08:27:45 GMT-0500 (Central Daylight Time),216508.0,093_m_f_n_a.png,I,z,941,10,1,1710.9000000022352,214797.09999999776,8004,NNB,C,9
10,prac,1,0.0,1-Back,1,m,Wed Sep 25 2024 08:27:45 GMT-0500 (Central Daylight Time),218173.69999999925,059_o_m_n_a.png,I,m,888,11,1,1660.1000000014901,216513.59999999776,8004,NNB,C,10
11,prac,1,0.0,1-Back,1,m,Wed Sep 25 2024 08:27:45 GMT-0500 (Central Daylight Time),219989.8999999985,028_y_f_n_a.png,I,m,929,12,1,1809.3999999985099,218180.5,8004,NNB,C,11
0,test,1,0.0,1-Back,,,Wed Sep 25 2024 08:27:45 GMT-0500 (Central Daylight Time),219989.8999999985,098_y_f_n_a.png,I,space,12303,1,1,1809.3999999985099,218180.5,8004,NNB,C,0
1,test,1,0.0,1-Back,1,m,Wed Sep 25 2024 08:27:45 GMT-0500 (Central Daylight Time),243782.3999999985,006_m_f_n_a.png,I,m,987,2,1,2010.5,241771.8999999985,8004,NNB,C,1
2,test,1,0.0,1-Back,1,m,Wed Sep 25 2024 08:27:45 GMT-0500 (Central Daylight Time),245715.09999999776,028_y_f_n_a.png,I,m,907,3,1,1928.699999999255,243786.3999999985,8004,NNB,C,2
3,test,1,1.0,1-Back,1,z,Wed Sep 25 2024 08:27:45 GMT-0500 (Central Daylight Time),247564.5,028_y_f_n_a.png,I,z,821,4,1,1845.199999999255,245719.30000000075,8004,NNB,C,3
4,test,1,0.0,1-Back,1,m,Wed Sep 25 2024 08:27:45 GMT-0500 (Central Daylight Time),249130.3999999985,006_m_f_n_a.png,I,m,549,5,1,1562.0999999977648,247568.30000000075,8004,NNB,C,4
5,test,1,0.0,1-Back,1,m,Wed Sep 25 2024 08:27:45 GMT-0500 (Central Daylight Time),251080.19999999925,059_o_m_n_a.png,I,m,918,6,1,1946.1000000014901,249134.09999999776,8004,NNB,C,5
6,test,1,1.0,1-Back,1,z,Wed Sep 25 2024 08:27:45 GMT-0500 (Central Daylight Time),252879.19999999925,059_o_m_n_a.png,I,z,776,7,1,1794.8999999985099,251084.30000000075,8004,NNB,C,6
7,test,1,0.0,1-Back,1,m,Wed Sep 25 2024 08:27:45 GMT-0500 (Central Daylight Time),254778.80000000075,092_m_m_n_a.png,I,m,882,8,1,1895.9000000022352,252882.8999999985,8004,NNB,C,7
8,test,1,0.0,1-Back,1,m,Wed Sep 25 2024 08:27:45 GMT-0500 (Central Daylight Time),256911.3999999985,130_o_f_n_a.png,I,m,1102,9,1,2129.199999999255,254782.19999999925,8004,NNB,C,8
9,test,1,0.0,1-Back,1,m,Wed Sep 25 2024 08:27:45 GMT-0500 (Central Daylight Time),258677.69999999925,092_m_m_n_a.png,I,m,746,10,1,1762.5,256915.19999999925,8004,NNB,C,9
10,test,1,0.0,1-Back,1,m,Wed Sep 25 2024 08:27:45 GMT-0500 (Central Daylight Time),260643.80000000075,057_y_m_n_a.png,I,m,940,11,1,1962.2000000029802,258681.59999999776,8004,NNB,C,10
10,test,1,1.0,1-Back,0,z,Wed Sep 25 2024 08:27:45 GMT-0500 (Central Daylight Time),262459.80000000075,057_y_m_n_a.png,I,m,790,12,1,1812.300000000745,260647.5,8004,NNB,C,11
11,test,1,0.0,1-Back,1,m,Wed Sep 25 2024 08:27:45 GMT-0500 (Central Daylight Time),264375.80000000075,030_o_f_n_a.png,I,m,886,13,1,1912.0,262463.80000000075,8004,NNB,C,12
12,test,1,1.0,1-Back,1,z,Wed Sep 25 2024 08:27:45 GMT-0500 (Central Daylight Time),266225.30000000075,030_o_f_n_a.png,I,z,825,14,1,1845.6000000014901,264379.69999999925,8004,NNB,C,13
13,test,1,0.0,1-Back,1,m,Wed Sep 25 2024 08:27:45 GMT-0500 (Central Daylight Time),268191.30000000075,031_y_m_n_a.png,I,m,936,15,1,1962.300000000745,266229.0,8004,NNB,C,14
14,test,1,0.0,1-Back,1,m,Wed Sep 25 2024 08:27:45 GMT-0500 (Central Daylight Time),269841.0,093_m_f_n_a.png,I,m,626,16,1,1645.9000000022352,268195.09999999776,8004,NNB,C,15
15,test,1,0.0,1-Back,1,m,Wed Sep 25 2024 08:27:45 GMT-0500 (Central Daylight Time),271673.59999999776,146_o_m_n_a.png,I,m,808,17,1,1829.199999999255,269844.3999999985,8004,NNB,C,16
16,test,1,0.0,1-Back,1,m,Wed Sep 25 2024 08:27:45 GMT-0500 (Central Daylight Time),273539.69999999925,093_m_f_n_a.png,I,m,848,18,1,1862.1000000014901,271677.59999999776,8004,NNB,C,17
0,test,2,0.0,1-Back,,,Wed Sep 25 2024 08:27:45 GMT-0500 (Central Daylight Time),273539.69999999925,092_m_m_n_a.png,I,space,4214,1,1,1862.1000000014901,271677.59999999776,8004,NNB,C,0
1,test,2,0.0,1-Back,1,m,Wed Sep 25 2024 08:27:45 GMT-0500 (Central Daylight Time),281737.0,006_m_f_n_a.png,I,m,943,2,1,1962.0,279775.0,8004,NNB,C,1
2,test,2,1.0,1-Back,1,z,Wed Sep 25 2024 08:27:45 GMT-0500 (Central Daylight Time),283636.59999999776,006_m_f_n_a.png,I,z,880,3,1,1895.7999999970198,281740.80000000075,8004,NNB,C,2
3,test,2,0.0,1-Back,1,m,Wed Sep 25 2024 08:27:45 GMT-0500 (Central Daylight Time),285386.19999999925,092_m_m_n_a.png,I,m,717,4,1,1745.699999999255,283640.5,8004,NNB,C,3
4,test,2,0.0,1-Back,1,m,Wed Sep 25 2024 08:27:45 GMT-0500 (Central Daylight Time),287185.3999999985,057_y_m_n_a.png,I,m,775,5,1,1795.0999999977648,285390.30000000075,8004,NNB,C,4
5,test,2,0.0,1-Back,1,m,Wed Sep 25 2024 08:27:45 GMT-0500 (Central Daylight Time),289369.19999999925,098_y_f_n_a.png,I,m,1160,6,1,2180.10000000149,287189.09999999776,8004,NNB,C,5
6,test,2,1.0,1-Back,1,z,Wed Sep 25 2024 08:27:45 GMT-0500 (Central Daylight Time),291200.8999999985,098_y_f_n_a.png,I,z,802,7,1,1827.8999999985099,289373.0,8004,NNB,C,6
7,test,2,0.0,1-Back,1,m,Wed Sep 25 2024 08:27:45 GMT-0500 (Central Daylight Time),292968.09999999776,057_y_m_n_a.png,I,m,745,8,1,1763.2999999970198,291204.80000000075,8004,NNB,C,7
8,test,2,0.0,1-Back,1,m,Wed Sep 25 2024 08:27:45 GMT-0500 (Central Daylight Time),294766.5,030_o_f_n_a.png,I,m,770,9,1,1794.300000000745,292972.19999999925,8004,NNB,C,8
9,test,2,0.0,1-Back,1,m,Wed Sep 25 2024 08:27:45 GMT-0500 (Central Daylight Time),296465.80000000075,082_m_m_n_a.png,I,m,683,10,1,1695.2000000029802,294770.59999999776,8004,NNB,C,9
10,test,2,1.0,1-Back,1,z,Wed Sep 25 2024 08:27:45 GMT-0500 (Central Daylight Time),298415.5,082_m_m_n_a.png,I,z,919,11,1,1945.699999999255,296469.80000000075,8004,NNB,C,10
11,test,2,0.0,1-Back,1,m,Wed Sep 25 2024 08:27:45 GMT-0500 (Central Daylight Time),300164.59999999776,030_o_f_n_a.png,I,m,722,12,1,1745.7999999970198,298418.80000000075,8004,NNB,C,11
12,test,2,0.0,1-Back,1,m,Wed Sep 25 2024 08:27:45 GMT-0500 (Central Daylight Time),301914.09999999776,130_o_f_n_a.png,I,m,717,13,1,1745.8999999985099,300168.19999999925,8004,NNB,C,12
13,test,2,0.0,1-Back,1,m,Wed Sep 25 2024 08:27:45 GMT-0500 (Central Daylight Time),304046.80000000075,059_o_m_n_a.png,I,m,1103,14,1,2128.60000000149,301918.19999999925,8004,NNB,C,13
14,test,2,0.0,1-Back,1,m,Wed Sep 25 2024 08:27:45 GMT-0500 (Central Daylight Time),305929.59999999776,146_o_m_n_a.png,I,m,851,15,1,1879.0999999977648,304050.5,8004,NNB,C,14
15,test,2,1.0,1-Back,1,z,Wed Sep 25 2024 08:27:45 GMT-0500 (Central Daylight Time),308022.0,146_o_m_n_a.png,I,z,929,16,1,2088.400000002235,305933.59999999776,8004,NNB,C,15
16,test,2,0.0,1-Back,1,m,Wed Sep 25 2024 08:27:45 GMT-0500 (Central Daylight Time),309961.80000000075,031_y_m_n_a.png,I,m,917,17,1,1935.6000000014901,308026.19999999925,8004,NNB,C,16
16,test,2,1.0,1-Back,0,z,Wed Sep 25 2024 08:27:45 GMT-0500 (Central Daylight Time),311978.8999999985,031_y_m_n_a.png,I,m,984,18,1,2013.199999999255,309965.69999999925,8004,NNB,C,17
0,test,3,1.0,1-Back,,,Wed Sep 25 2024 08:27:45 GMT-0500 (Central Daylight Time),311978.8999999985,028_y_f_n_a.png,I,space,3479,1,1,2013.199999999255,309965.69999999925,8004,NNB,C,0
1,test,3,0.0,1-Back,1,m,Wed Sep 25 2024 08:27:45 GMT-0500 (Central Daylight Time),319291.8999999985,146_o_m_n_a.png,I,m,690,1,1,1728.8999999985099,317563.0,8004,NNB,C,1
2,test,3,1.0,1-Back,1,z,Wed Sep 25 2024 08:27:45 GMT-0500 (Central Daylight Time),321274.69999999925,146_o_m_n_a.png,I,z,957,1,1,1979.3999999985099,319295.30000000075,8004,NNB,C,2
3,test,3,0.0,1-Back,1,m,Wed Sep 25 2024 08:27:45 GMT-0500 (Central Daylight Time),323107.3999999985,093_m_f_n_a.png,I,m,807,1,1,1828.699999999255,321278.69999999925,8004,NNB,C,3
4,test,3,1.0,1-Back,1,z,Wed Sep 25 2024 08:27:45 GMT-0500 (Central Daylight Time),324940.3999999985,093_m_f_n_a.png,I,z,814,1,1,1828.8999999985099,323111.5,8004,NNB,C,4
5,test,3,0.0,1-Back,1,m,Wed Sep 25 2024 08:27:45 GMT-0500 (Central Daylight Time),326806.30000000075,030_o_f_n_a.png,I,m,845,1,1,1862.5,324943.80000000075,8004,NNB,C,5
6,test,3,0.0,1-Back,1,m,Wed Sep 25 2024 08:27:45 GMT-0500 (Central Daylight Time),328672.3999999985,057_y_m_n_a.png,I,m,843,1,1,1861.8999999985099,326810.5,8004,NNB,C,6
7,test,3,0.0,1-Back,1,m,Wed Sep 25 2024 08:27:45 GMT-0500 (Central Daylight Time),330622.80000000075,030_o_f_n_a.png,I,m,920,1,1,1946.300000000745,328676.5,8004,NNB,C,7
8,test,3,0.0,1-Back,1,m,Wed Sep 25 2024 08:27:45 GMT-0500 (Central Daylight Time),332487.69999999925,031_y_m_n_a.png,I,m,835,1,1,1860.699999999255,330627.0,8004,NNB,C,8
9,test,3,1.0,1-Back,1,z,Wed Sep 25 2024 08:27:45 GMT-0500 (Central Daylight Time),334187.3999999985,031_y_m_n_a.png,I,z,681,1,1,1696.5999999977648,332490.80000000075,8004,NNB,C,9
10,test,3,0.0,1-Back,1,m,Wed Sep 25 2024 08:27:45 GMT-0500 (Central Daylight Time),336236.80000000075,006_m_f_n_a.png,I,m,1022,1,1,2046.1000000014901,334190.69999999925,8004,NNB,C,10
11,test,3,0.0,1-Back,1,m,Wed Sep 25 2024 08:27:45 GMT-0500 (Central Daylight Time),337969.5,098_y_f_n_a.png,I,m,701,1,1,1729.6000000014901,336239.8999999985,8004,NNB,C,11
12,test,3,1.0,1-Back,1,z,Wed Sep 25 2024 08:27:45 GMT-0500 (Central Daylight Time),339618.69999999925,098_y_f_n_a.png,I,z,632,1,1,1645.699999999255,337973.0,8004,NNB,C,12
13,test,3,0.0,1-Back,1,m,Wed Sep 25 2024 08:27:45 GMT-0500 (Central Daylight Time),341601.59999999776,006_m_f_n_a.png,I,m,966,1,1,1979.2999999970198,339622.30000000075,8004,NNB,C,13
14,test,3,0.0,1-Back,1,m,Wed Sep 25 2024 08:27:45 GMT-0500 (Central Daylight Time),343501.0,092_m_m_n_a.png,I,m,880,1,1,1895.5,341605.5,8004,NNB,C,14
15,test,3,1.0,1-Back,1,z,Wed Sep 25 2024 08:27:45 GMT-0500 (Central Daylight Time),345433.5,092_m_m_n_a.png,I,z,900,1,1,1928.6000000014901,343504.8999999985,8004,NNB,C,15
16,test,3,0.0,1-Back,1,m,Wed Sep 25 2024 08:27:45 GMT-0500 (Central Daylight Time),347449.80000000075,130_o_f_n_a.png,I,m,1000,1,1,2012.7000000029802,345437.09999999776,8004,NNB,C,16
17,test,3,1.0,1-Back,1,z,Wed Sep 25 2024 08:27:45 GMT-0500 (Central Daylight Time),349265.8999999985,130_o_f_n_a.png,I,z,798,1,1,1812.3999999985099,347453.5,8004,NNB,C,17
0,test,4,1.0,1-Back,,,Wed Sep 25 2024 08:27:45 GMT-0500 (Central Daylight Time),349265.8999999985,093_m_f_n_a.png,I,space,4504,1,1,1812.3999999985099,347453.5,8004,NNB,C,0
1,test,4,0.0,1-Back,1,m,Wed Sep 25 2024 08:27:45 GMT-0500 (Central Daylight Time),357530.0,146_o_m_n_a.png,I,m,616,2,1,1628.4000000022352,355901.59999999776,8004,NNB,C,1
2,test,4,0.0,1-Back,1,m,Wed Sep 25 2024 08:27:45 GMT-0500 (Central Daylight Time),359562.5,093_m_f_n_a.png,I,m,1014,3,1,2028.699999999255,357533.80000000075,8004,NNB,C,2
3,test,4,0.0,1-Back,1,m,Wed Sep 25 2024 08:27:45 GMT-0500 (Central Daylight Time),361328.69999999925,030_o_f_n_a.png,I,m,733,4,1,1763.1000000014901,359565.59999999776,8004,NNB,C,3
4,test,4,1.0,1-Back,1,z,Wed Sep 25 2024 08:27:45 GMT-0500 (Central Daylight Time),363128.19999999925,030_o_f_n_a.png,I,z,768,5,1,1795.699999999255,361332.5,8004,NNB,C,4
5,test,4,0.0,1-Back,1,m,Wed Sep 25 2024 08:27:45 GMT-0500 (Central Daylight Time),365127.69999999925,098_y_f_n_a.png,I,m,969,6,1,1995.8999999985099,363131.80000000075,8004,NNB,C,5
6,test,4,0.0,1-Back,1,m,Wed Sep 25 2024 08:27:45 GMT-0500 (Central Daylight Time),366877.30000000075,057_y_m_n_a.png,I,m,730,7,1,1746.300000000745,365131.0,8004,NNB,C,6
7,test,4,1.0,1-Back,1,z,Wed Sep 25 2024 08:27:45 GMT-0500 (Central Daylight Time),368976.59999999776,057_y_m_n_a.png,I,z,1067,8,1,2095.599999997765,366881.0,8004,NNB,C,7
8,test,4,0.0,1-Back,1,m,Wed Sep 25 2024 08:27:45 GMT-0500 (Central Daylight Time),370859.19999999925,098_y_f_n_a.png,I,m,857,9,1,1878.8999999985099,368980.30000000075,8004,NNB,C,8
9,test,4,0.0,1-Back,1,m,Wed Sep 25 2024 08:27:45 GMT-0500 (Central Daylight Time),372841.69999999925,082_m_m_n_a.png,I,m,950,10,1,1979.199999999255,370862.5,8004,NNB,C,9
10,test,4,1.0,1-Back,1,z,Wed Sep 25 2024 08:27:45 GMT-0500 (Central Daylight Time),375290.8999999985,082_m_m_n_a.png,I,z,1423,11,1,2445.0,372845.8999999985,8004,NNB,C,10
11,test,4,0.0,1-Back,1,m,Wed Sep 25 2024 08:27:45 GMT-0500 (Central Daylight Time),377007.30000000075,130_o_f_n_a.png,I,m,694,12,1,1712.4000000022352,375294.8999999985,8004,NNB,C,11
12,test,4,0.0,1-Back,1,m,Wed Sep 25 2024 08:27:45 GMT-0500 (Central Daylight Time),378873.30000000075,059_o_m_n_a.png,I,m,842,13,1,1861.9000000022352,377011.3999999985,8004,NNB,C,12
13,test,4,0.0,1-Back,1,m,Wed Sep 25 2024 08:27:45 GMT-0500 (Central Daylight Time),381122.59999999776,130_o_f_n_a.png,I,m,1224,14,1,2244.39999999851,378878.19999999925,8004,NNB,C,13
14,test,4,0.0,1-Back,1,m,Wed Sep 25 2024 08:27:45 GMT-0500 (Central Daylight Time),382972.09999999776,028_y_f_n_a.png,I,m,831,15,1,1845.5999999977648,381126.5,8004,NNB,C,14
15,test,4,1.0,1-Back,1,z,Wed Sep 25 2024 08:27:45 GMT-0500 (Central Daylight Time),384738.0,028_y_f_n_a.png,I,z,733,16,1,1762.6000000014901,382975.3999999985,8004,NNB,C,15
16,test,4,0.0,1-Back,1,m,Wed Sep 25 2024 08:27:45 GMT-0500 (Central Daylight Time),386570.80000000075,006_m_f_n_a.png,I,m,807,17,1,1828.9000000022352,384741.8999999985,8004,NNB,C,16
17,test,4,1.0,1-Back,1,z,Wed Sep 25 2024 08:27:45 GMT-0500 (Central Daylight Time),388370.19999999925,006_m_f_n_a.png,I,z,781,18,1,1795.5,386574.69999999925,8004,NNB,C,17
0,test,5,1.0,1-Back,,,Wed Sep 25 2024 08:27:45 GMT-0500 (Central Daylight Time),388370.19999999925,059_o_m_n_a.png,I,space,5631,1,1,1795.5,386574.69999999925,8004,NNB,C,0
1,test,5,1.0,1-Back,1,z,Wed Sep 25 2024 08:27:45 GMT-0500 (Central Daylight Time),398250.30000000075,059_o_m_n_a.png,I,z,1215,2,1,2227.900000002235,396022.3999999985,8004,NNB,C,1
2,test,5,0.0,1-Back,1,m,Wed Sep 25 2024 08:27:45 GMT-0500 (Central Daylight Time),399899.8999999985,098_y_f_n_a.png,I,m,622,3,1,1646.5999999977648,398253.30000000075,8004,NNB,C,2
3,test,5,0.0,1-Back,1,m,Wed Sep 25 2024 08:27:45 GMT-0500 (Central Daylight Time),401915.8999999985,057_y_m_n_a.png,I,m,989,4,1,2011.8999999985099,399904.0,8004,NNB,C,3
4,test,5,0.0,1-Back,1,m,Wed Sep 25 2024 08:27:45 GMT-0500 (Central Daylight Time),403848.69999999925,098_y_f_n_a.png,I,m,900,5,1,1928.699999999255,401920.0,8004,NNB,C,4
5,test,5,0.0,1-Back,1,m,Wed Sep 25 2024 08:27:45 GMT-0500 (Central Daylight Time),405898.09999999776,092_m_m_n_a.png,I,m,1033,6,1,2046.199999999255,403851.8999999985,8004,NNB,C,5
6,test,5,1.0,1-Back,1,z,Wed Sep 25 2024 08:27:45 GMT-0500 (Central Daylight Time),407981.09999999776,092_m_m_n_a.png,I,z,1063,7,1,2079.89999999851,405901.19999999925,8004,NNB,C,6
7,test,5,0.0,1-Back,1,m,Wed Sep 25 2024 08:27:45 GMT-0500 (Central Daylight Time),409513.8999999985,028_y_f_n_a.png,I,m,500,8,1,1529.0999999977648,407984.80000000075,8004,NNB,C,7
8,test,5,0.0,1-Back,1,m,Wed Sep 25 2024 08:27:45 GMT-0500 (Central Daylight Time),411179.69999999925,031_y_m_n_a.png,I,m,647,9,1,1662.6000000014901,409517.09999999776,8004,NNB,C,8
9,test,5,0.0,1-Back,1,m,Wed Sep 25 2024 08:27:45 GMT-0500 (Central Daylight Time),413862.19999999925,028_y_f_n_a.png,I,m,1661,10,1,2678.39999999851,411183.80000000075,8004,NNB,C,9
10,test,5,0.0,1-Back,1,m,Wed Sep 25 2024 08:27:45 GMT-0500 (Central Daylight Time),415546.30000000075,130_o_f_n_a.png,I,m,659,11,1,1680.1000000014901,413866.19999999925,8004,NNB,C,10
11,test,5,1.0,1-Back,1,z,Wed Sep 25 2024 08:27:45 GMT-0500 (Central Daylight Time),417594.5,130_o_f_n_a.png,I,z,1024,12,1,2044.300000000745,415550.19999999925,8004,NNB,C,11
12,test,5,0.0,1-Back,1,m,Wed Sep 25 2024 08:27:45 GMT-0500 (Central Daylight Time),419927.0,146_o_m_n_a.png,I,m,1311,13,1,2328.699999999255,417598.30000000075,8004,NNB,C,12
13,test,5,0.0,1-Back,1,m,Wed Sep 25 2024 08:27:45 GMT-0500 (Central Daylight Time),421726.5,093_m_f_n_a.png,I,m,778,14,1,1795.800000000745,419930.69999999925,8004,NNB,C,13
14,test,5,1.0,1-Back,1,z,Wed Sep 25 2024 08:27:45 GMT-0500 (Central Daylight Time),423325.80000000075,093_m_f_n_a.png,I,z,579,15,1,1595.4000000022352,421730.3999999985,8004,NNB,C,14
15,test,5,0.0,1-Back,1,m,Wed Sep 25 2024 08:27:45 GMT-0500 (Central Daylight Time),425719.0,146_o_m_n_a.png,I,m,1229,16,1,2389.10000000149,423329.8999999985,8004,NNB,C,15
16,test,5,0.0,1-Back,1,m,Wed Sep 25 2024 08:27:45 GMT-0500 (Central Daylight Time),427774.59999999776,006_m_f_n_a.png,I,m,1045,17,1,2051.5,425723.09999999776,8004,NNB,C,16
17,test,5,0.0,1-Back,1,m,Wed Sep 25 2024 08:27:45 GMT-0500 (Central Daylight Time),429790.59999999776,082_m_m_n_a.png,I,m,993,18,1,2012.0999999977648,427778.5,8004,NNB,C,17
0,prac,1,0.0,2-Back,,,Wed Sep 25 2024 08:27:45 GMT-0500 (Central Daylight Time),429790.59999999776,031_y_m_n_a.png,I,space,10541,1,1,2012.0999999977648,427778.5,8004,NNB,C,0
0,prac,1,0.0,2-Back,,,Wed Sep 25 2024 08:27:45 GMT-0500 (Central Daylight Time),429790.59999999776,006_m_f_n_a.png,I,space,10541,2,1,2012.0999999977648,427778.5,8004,NNB,C,0
1,prac,1,1.0,2-Back,1,m,Wed Sep 25 2024 08:27:45 GMT-0500 (Central Daylight Time),562215.8999999985,146_o_m_n_a.png,I,m,1807,3,1,2693.599999997765,559522.3000000007,8004,NNB,C,1
1,prac,1,0.0,2-Back,0,m,Wed Sep 25 2024 08:27:45 GMT-0500 (Central Daylight Time),565114.8000000007,130_o_f_n_a.png,I,None,2006,4,1,2892.800000000745,562222.0,8004,NNB,C,2
1,prac,1,0.0,2-Back,0,z,Wed Sep 25 2024 08:27:45 GMT-0500 (Central Daylight Time),567564.1999999993,146_o_m_n_a.png,I,m,1692,5,1,2444.0,565120.1999999993,8004,NNB,C,3
1,prac,1,1.0,2-Back,0,z,Wed Sep 25 2024 08:27:45 GMT-0500 (Central Daylight Time),570346.5,130_o_f_n_a.png,I,None,2010,6,1,2777.0,567569.5,8004,NNB,C,4
1,prac,1,0.0,2-Back,0,m,Wed Sep 25 2024 08:27:45 GMT-0500 (Central Daylight Time),572195.8999999985,082_m_m_n_a.png,I,z,963,7,1,1843.5,570352.3999999985,8004,NNB,C,5
1,prac,1,0.0,2-Back,0,m,Wed Sep 25 2024 08:27:45 GMT-0500 (Central Daylight Time),574661.8999999985,059_o_m_n_a.png,I,z,1580,8,1,2460.199999999255,572201.6999999993,8004,NNB,C,6
1,prac,1,0.0,2-Back,0,m,Wed Sep 25 2024 08:27:45 GMT-0500 (Central Daylight Time),576977.5999999978,028_y_f_n_a.png,I,z,1438,9,1,2310.599999997765,574667.0,8004,NNB,C,7
1,prac,1,1.0,2-Back,0,z,Wed Sep 25 2024 08:27:45 GMT-0500 (Central Daylight Time),579744.5999999978,059_o_m_n_a.png,I,None,2009,10,1,2760.39999999851,576984.1999999993,8004,NNB,C,8
2,prac,1,0.0,2-Back,1,m,Wed Sep 25 2024 08:27:45 GMT-0500 (Central Daylight Time),582509.3000000007,098_y_f_n_a.png,I,m,1884,11,1,2758.7000000029802,579750.5999999978,8004,NNB,C,9
3,prac,1,0.0,2-Back,1,m,Wed Sep 25 2024 08:27:45 GMT-0500 (Central Daylight Time),585208.5,082_m_m_n_a.png,I,m,1919,12,1,2693.300000000745,582515.1999999993,8004,NNB,C,10
0,prac,2,0.0,2-Back,,,Wed Sep 25 2024 08:27:45 GMT-0500 (Central Daylight Time),585208.5,031_y_m_n_a.png,I,a,27542,1,1,2693.300000000745,582515.1999999993,8004,NNB,C,0
0,prac,2,0.0,2-Back,,,Wed Sep 25 2024 08:27:45 GMT-0500 (Central Daylight Time),585208.5,006_m_f_n_a.png,I,a,27542,2,1,2693.300000000745,582515.1999999993,8004,NNB,C,0
1,prac,2,1.0,2-Back,1,m,Wed Sep 25 2024 08:27:45 GMT-0500 (Central Daylight Time),620314.3000000007,146_o_m_n_a.png,I,m,1403,3,1,2293.400000002235,618020.8999999985,8004,NNB,C,1
2,prac,2,0.0,2-Back,1,m,Wed Sep 25 2024 08:27:45 GMT-0500 (Central Daylight Time),622130.3000000007,130_o_f_n_a.png,I,m,918,4,1,1810.9000000022352,620319.3999999985,8004,NNB,C,2
3,prac,2,0.0,2-Back,1,z,Wed Sep 25 2024 08:27:45 GMT-0500 (Central Daylight Time),623996.3999999985,146_o_m_n_a.png,I,z,1082,5,1,1861.0,622135.3999999985,8004,NNB,C,3
4,prac,2,1.0,2-Back,1,z,Wed Sep 25 2024 08:27:45 GMT-0500 (Central Daylight Time),626645.8000000007,130_o_f_n_a.png,I,z,1864,6,1,2644.60000000149,624001.1999999993,8004,NNB,C,4
4,prac,2,0.0,2-Back,0,m,Wed Sep 25 2024 08:27:45 GMT-0500 (Central Daylight Time),629527.8999999985,082_m_m_n_a.png,I,None,2013,7,1,2877.099999997765,626650.8000000007,8004,NNB,C,5
5,prac,2,0.0,2-Back,1,m,Wed Sep 25 2024 08:27:45 GMT-0500 (Central Daylight Time),631610.6999999993,059_o_m_n_a.png,I,m,1202,8,1,2077.699999999255,629533.0,8004,NNB,C,6
6,prac,2,0.0,2-Back,1,m,Wed Sep 25 2024 08:27:45 GMT-0500 (Central Daylight Time),634143.3999999985,028_y_f_n_a.png,I,m,1644,9,1,2527.0,631616.3999999985,8004,NNB,C,7
7,prac,2,1.0,2-Back,1,z,Wed Sep 25 2024 08:27:45 GMT-0500 (Central Daylight Time),636459.3999999985,059_o_m_n_a.png,I,z,1532,10,1,2310.599999997765,634148.8000000007,8004,NNB,C,8
8,prac,2,0.0,2-Back,1,m,Wed Sep 25 2024 08:27:45 GMT-0500 (Central Daylight Time),639041.6999999993,098_y_f_n_a.png,I,m,1718,11,1,2577.300000000745,636464.3999999985,8004,NNB,C,9
8,prac,2,0.0,2-Back,0,m,Wed Sep 25 2024 08:27:45 GMT-0500 (Central Daylight Time),641824.0999999978,082_m_m_n_a.png,I,None,2011,12,1,2777.099999997765,639047.0,8004,NNB,C,10
0,test,1,0.0,2-Back,,,Wed Sep 25 2024 08:27:45 GMT-0500 (Central Daylight Time),641824.0999999978,057_y_m_n_a.png,I,space,11114,1,1,2777.099999997765,639047.0,8004,NNB,C,0
0,test,1,0.0,2-Back,,,Wed Sep 25 2024 08:27:45 GMT-0500 (Central Daylight Time),641824.0999999978,057_y_m_n_a.png,I,space,11114,2,1,2777.099999997765,639047.0,8004,NNB,C,0
1,test,1,0.0,2-Back,1,m,Wed Sep 25 2024 08:27:45 GMT-0500 (Central Daylight Time),672631.0,130_o_f_n_a.png,I,m,1227,3,1,2245.300000000745,670385.6999999993,8004,NNB,C,1
2,test,1,0.0,2-Back,1,m,Wed Sep 25 2024 08:27:45 GMT-0500 (Central Daylight Time),674464.8999999985,092_m_m_n_a.png,I,m,800,4,1,1830.0999999977648,672634.8000000007,8004,NNB,C,2
3,test,1,1.0,2-Back,1,z,Wed Sep 25 2024 08:27:45 GMT-0500 (Central Daylight Time),676713.0,130_o_f_n_a.png,I,z,1217,5,1,2244.60000000149,674468.3999999985,8004,NNB,C,3
4,test,1,0.0,2-Back,1,m,Wed Sep 25 2024 08:27:45 GMT-0500 (Central Daylight Time),678612.3999999985,098_y_f_n_a.png,I,m,880,6,1,1895.699999999255,676716.6999999993,8004,NNB,C,4
5,test,1,0.0,2-Back,1,m,Wed Sep 25 2024 08:27:45 GMT-0500 (Central Daylight Time),680295.1999999993,092_m_m_n_a.png,I,m,653,7,1,1678.8999999985099,678616.3000000007,8004,NNB,C,5
6,test,1,1.0,2-Back,1,z,Wed Sep 25 2024 08:27:45 GMT-0500 (Central Daylight Time),682044.5999999978,098_y_f_n_a.png,I,z,721,8,1,1746.199999999255,680298.3999999985,8004,NNB,C,6
7,test,1,0.0,2-Back,1,m,Wed Sep 25 2024 08:27:45 GMT-0500 (Central Daylight Time),684893.6999999993,031_y_m_n_a.png,I,m,1828,9,1,2845.800000000745,682047.8999999985,8004,NNB,C,7
8,test,1,0.0,2-Back,1,m,Wed Sep 25 2024 08:27:45 GMT-0500 (Central Daylight Time),687394.1999999993,030_o_f_n_a.png,I,m,1467,10,1,2496.800000000745,684897.3999999985,8004,NNB,C,8
9,test,1,1.0,2-Back,1,z,Wed Sep 25 2024 08:27:45 GMT-0500 (Central Daylight Time),689825.5999999978,031_y_m_n_a.png,I,z,1400,11,1,2427.89999999851,687397.6999999993,8004,NNB,C,9
10,test,1,0.0,2-Back,1,m,Wed Sep 25 2024 08:27:45 GMT-0500 (Central Daylight Time),692424.8999999985,006_m_f_n_a.png,I,m,1568,12,1,2595.39999999851,689829.5,8004,NNB,C,10
11,test,1,0.0,2-Back,1,m,Wed Sep 25 2024 08:27:45 GMT-0500 (Central Daylight Time),694607.6999999993,006_m_f_n_a.png,I,m,1161,13,1,2179.0,692428.6999999993,8004,NNB,C,11
12,test,1,0.0,2-Back,1,m,Wed Sep 25 2024 08:27:45 GMT-0500 (Central Daylight Time),697189.8000000007,146_o_m_n_a.png,I,m,1562,14,1,2579.0,694610.8000000007,8004,NNB,C,12
13,test,1,0.0,2-Back,1,m,Wed Sep 25 2024 08:27:45 GMT-0500 (Central Daylight Time),699422.6999999993,030_o_f_n_a.png,I,m,1203,15,1,2229.699999999255,697193.0,8004,NNB,C,13
14,test,1,1.0,2-Back,1,z,Wed Sep 25 2024 08:27:45 GMT-0500 (Central Daylight Time),701371.8000000007,146_o_m_n_a.png,I,z,923,16,1,1945.4000000022352,699426.3999999985,8004,NNB,C,14
15,test,1,0.0,2-Back,1,m,Wed Sep 25 2024 08:27:45 GMT-0500 (Central Daylight Time),703371.3000000007,093_m_f_n_a.png,I,m,973,17,1,1995.800000000745,701375.5,8004,NNB,C,15
16,test,1,0.0,2-Back,1,m,Wed Sep 25 2024 08:27:45 GMT-0500 (Central Daylight Time),705903.8000000007,082_m_m_n_a.png,I,m,1502,18,1,2528.800000000745,703375.0,8004,NNB,C,16
0,test,2,0.0,2-Back,,,Wed Sep 25 2024 08:27:45 GMT-0500 (Central Daylight Time),705903.8000000007,082_m_m_n_a.png,I,space,5594,1,1,2528.800000000745,703375.0,8004,NNB,C,0
0,test,2,0.0,2-Back,,,Wed Sep 25 2024 08:27:45 GMT-0500 (Central Daylight Time),705903.8000000007,028_y_f_n_a.png,I,space,5594,2,1,2528.800000000745,703375.0,8004,NNB,C,0
1,test,2,1.0,2-Back,1,z,Wed Sep 25 2024 08:27:45 GMT-0500 (Central Daylight Time),718833.3000000007,082_m_m_n_a.png,I,z,1166,3,1,2195.2000000029802,716638.0999999978,8004,NNB,C,1
2,test,2,0.0,2-Back,1,m,Wed Sep 25 2024 08:27:45 GMT-0500 (Central Daylight Time),720982.5,093_m_f_n_a.png,I,m,1120,4,1,2145.800000000745,718836.6999999993,8004,NNB,C,2
3,test,2,0.0,2-Back,1,m,Wed Sep 25 2024 08:27:45 GMT-0500 (Central Daylight Time),722615.3999999985,028_y_f_n_a.png,I,m,603,5,1,1629.8999999985099,720985.5,8004,NNB,C,3
4,test,2,0.0,2-Back,1,m,Wed Sep 25 2024 08:27:45 GMT-0500 (Central Daylight Time),725181.0999999978,146_o_m_n_a.png,I,m,1546,6,1,2562.5,722618.5999999978,8004,NNB,C,4
5,test,2,0.0,2-Back,1,m,Wed Sep 25 2024 08:27:45 GMT-0500 (Central Daylight Time),727547.0,098_y_f_n_a.png,I,m,1348,7,1,2362.300000000745,725184.6999999993,8004,NNB,C,5
6,test,2,1.0,2-Back,1,z,Wed Sep 25 2024 08:27:45 GMT-0500 (Central Daylight Time),729379.8999999985,146_o_m_n_a.png,I,z,806,8,1,1829.8999999985099,727550.0,8004,NNB,C,6
7,test,2,0.0,2-Back,1,m,Wed Sep 25 2024 08:27:45 GMT-0500 (Central Daylight Time),731295.8999999985,031_y_m_n_a.png,I,m,893,9,1,1912.199999999255,729383.6999999993,8004,NNB,C,7
8,test,2,0.0,2-Back,1,m,Wed Sep 25 2024 08:27:45 GMT-0500 (Central Daylight Time),734144.8999999985,031_y_m_n_a.png,I,m,1826,10,1,2846.0,731298.8999999985,8004,NNB,C,8
9,test,2,0.0,2-Back,1,m,Wed Sep 25 2024 08:27:45 GMT-0500 (Central Daylight Time),736827.5,006_m_f_n_a.png,I,m,1664,11,1,2679.10000000149,734148.3999999985,8004,NNB,C,9
10,test,2,0.0,2-Back,1,m,Wed Sep 25 2024 08:27:45 GMT-0500 (Central Daylight Time),738960.0999999978,028_y_f_n_a.png,I,m,1110,12,1,2129.199999999255,736830.8999999985,8004,NNB,C,10
11,test,2,1.0,2-Back,1,z,Wed Sep 25 2024 08:27:45 GMT-0500 (Central Daylight Time),740942.6999999993,006_m_f_n_a.png,I,z,953,13,1,1978.8999999985099,738963.8000000007,8004,NNB,C,11
12,test,2,0.0,2-Back,1,m,Wed Sep 25 2024 08:27:45 GMT-0500 (Central Daylight Time),743525.3000000007,059_o_m_n_a.png,I,m,1554,14,1,2578.5,740946.8000000007,8004,NNB,C,12
13,test,2,0.0,2-Back,1,m,Wed Sep 25 2024 08:27:45 GMT-0500 (Central Daylight Time),745741.3000000007,059_o_m_n_a.png,I,m,1196,15,1,2212.2000000029802,743529.0999999978,8004,NNB,C,13
14,test,2,0.0,2-Back,1,m,Wed Sep 25 2024 08:27:45 GMT-0500 (Central Daylight Time),748257.1999999993,030_o_f_n_a.png,I,m,1483,16,1,2512.5,745744.6999999993,8004,NNB,C,14
15,test,2,0.0,2-Back,1,m,Wed Sep 25 2024 08:27:45 GMT-0500 (Central Daylight Time),750673.1999999993,092_m_m_n_a.png,I,m,1383,17,1,2412.39999999851,748260.8000000007,8004,NNB,C,15
15,test,2,1.0,2-Back,0,z,Wed Sep 25 2024 08:27:45 GMT-0500 (Central Daylight Time),752839.0999999978,030_o_f_n_a.png,I,m,1144,18,1,2162.199999999255,750676.8999999985,8004,NNB,C,16
0,test,3,1.0,2-Back,,,Wed Sep 25 2024 08:27:45 GMT-0500 (Central Daylight Time),752839.0999999978,057_y_m_n_a.png,I,space,6474,1,1,2162.199999999255,750676.8999999985,8004,NNB,C,0
0,test,3,1.0,2-Back,,,Wed Sep 25 2024 08:27:45 GMT-0500 (Central Daylight Time),752839.0999999978,057_y_m_n_a.png,I,space,6474,2,1,2162.199999999255,750676.8999999985,8004,NNB,C,0
1,test,3,0.0,2-Back,1,m,Wed Sep 25 2024 08:27:45 GMT-0500 (Central Daylight Time),766651.3999999985,030_o_f_n_a.png,I,m,1157,3,1,2178.699999999255,764472.6999999993,8004,NNB,C,1
2,test,3,0.0,2-Back,1,m,Wed Sep 25 2024 08:27:45 GMT-0500 (Central Daylight Time),768417.6999999993,082_m_m_n_a.png,I,m,742,4,1,1763.1000000014901,766654.5999999978,8004,NNB,C,2
3,test,3,1.0,2-Back,1,z,Wed Sep 25 2024 08:27:45 GMT-0500 (Central Daylight Time),770116.8999999985,030_o_f_n_a.png,I,z,680,5,1,1695.300000000745,768421.5999999978,8004,NNB,C,3
4,test,3,0.0,2-Back,1,m,Wed Sep 25 2024 08:27:45 GMT-0500 (Central Daylight Time),772099.5,031_y_m_n_a.png,I,m,955,6,1,1979.0,770120.5,8004,NNB,C,4
4,test,3,0.0,2-Back,0,m,Wed Sep 25 2024 08:27:45 GMT-0500 (Central Daylight Time),774482.3000000007,082_m_m_n_a.png,I,z,1350,7,1,2379.2000000029802,772103.0999999978,8004,NNB,C,5
5,test,3,1.0,2-Back,1,z,Wed Sep 25 2024 08:27:45 GMT-0500 (Central Daylight Time),777298.0,031_y_m_n_a.png,I,z,1783,8,1,2812.60000000149,774485.3999999985,8004,NNB,C,6
6,test,3,0.0,2-Back,1,m,Wed Sep 25 2024 08:27:45 GMT-0500 (Central Daylight Time),779098.0,028_y_f_n_a.png,I,m,783,9,1,1796.300000000745,777301.6999999993,8004,NNB,C,7
7,test,3,0.0,2-Back,1,m,Wed Sep 25 2024 08:27:45 GMT-0500 (Central Daylight Time),780930.0999999978,092_m_m_n_a.png,I,m,815,10,1,1828.5999999977648,779101.5,8004,NNB,C,8
8,test,3,1.0,2-Back,1,z,Wed Sep 25 2024 08:27:45 GMT-0500 (Central Daylight Time),782829.8999999985,028_y_f_n_a.png,I,z,879,11,1,1896.0999999977648,780933.8000000007,8004,NNB,C,9
9,test,3,1.0,2-Back,1,z,Wed Sep 25 2024 08:27:45 GMT-0500 (Central Daylight Time),784845.8000000007,092_m_m_n_a.png,I,z,988,12,1,2013.0,782832.8000000007,8004,NNB,C,10
10,test,3,0.0,2-Back,1,m,Wed Sep 25 2024 08:27:45 GMT-0500 (Central Daylight Time),786661.5999999978,030_o_f_n_a.png,I,m,796,13,1,1812.699999999255,784848.8999999985,8004,NNB,C,11
11,test,3,0.0,2-Back,1,m,Wed Sep 25 2024 08:27:45 GMT-0500 (Central Daylight Time),788678.0,093_m_f_n_a.png,I,m,995,14,1,2012.699999999255,786665.3000000007,8004,NNB,C,12
12,test,3,0.0,2-Back,1,m,Wed Sep 25 2024 08:27:45 GMT-0500 (Central Daylight Time),790560.8000000007,146_o_m_n_a.png,I,m,857,15,1,1878.9000000022352,788681.8999999985,8004,NNB,C,13
13,test,3,1.0,2-Back,1,z,Wed Sep 25 2024 08:27:45 GMT-0500 (Central Daylight Time),792659.8000000007,093_m_f_n_a.png,I,z,1073,16,1,2095.10000000149,790564.6999999993,8004,NNB,C,14
14,test,3,0.0,2-Back,1,m,Wed Sep 25 2024 08:27:45 GMT-0500 (Central Daylight Time),794759.0999999978,130_o_f_n_a.png,I,m,1069,17,1,2096.199999999255,792662.8999999985,8004,NNB,C,15
15,test,3,0.0,2-Back,1,m,Wed Sep 25 2024 08:27:45 GMT-0500 (Central Daylight Time),797108.5,130_o_f_n_a.png,I,m,1322,18,1,2345.60000000149,794762.8999999985,8004,NNB,C,16
0,test,4,0.0,2-Back,,,Wed Sep 25 2024 08:27:45 GMT-0500 (Central Daylight Time),797108.5,059_o_m_n_a.png,I,space,4277,1,1,2345.60000000149,794762.8999999985,8004,NNB,C,0
0,test,4,0.0,2-Back,,,Wed Sep 25 2024 08:27:45 GMT-0500 (Central Daylight Time),797108.5,098_y_f_n_a.png,I,space,4277,2,1,2345.60000000149,794762.8999999985,8004,NNB,C,0
1,test,4,1.0,2-Back,1,z,Wed Sep 25 2024 08:27:45 GMT-0500 (Central Daylight Time),808572.8000000007,059_o_m_n_a.png,I,z,931,3,1,1947.4000000022352,806625.3999999985,8004,NNB,C,1
2,test,4,1.0,2-Back,1,z,Wed Sep 25 2024 08:27:45 GMT-0500 (Central Daylight Time),810872.0,098_y_f_n_a.png,I,z,1278,4,1,2296.0,808576.0,8004,NNB,C,2
3,test,4,0.0,2-Back,1,m,Wed Sep 25 2024 08:27:45 GMT-0500 (Central Daylight Time),812703.5999999978,030_o_f_n_a.png,I,m,802,5,1,1828.3999999985099,810875.1999999993,8004,NNB,C,3
4,test,4,0.0,2-Back,1,m,Wed Sep 25 2024 08:27:45 GMT-0500 (Central Daylight Time),815053.0,030_o_f_n_a.png,I,m,1330,6,1,2345.60000000149,812707.3999999985,8004,NNB,C,4
5,test,4,0.0,2-Back,1,m,Wed Sep 25 2024 08:27:45 GMT-0500 (Central Daylight Time),817069.0,006_m_f_n_a.png,I,m,997,7,1,2012.5,815056.5,8004,NNB,C,5
6,test,4,0.0,2-Back,1,m,Wed Sep 25 2024 08:27:45 GMT-0500 (Central Daylight Time),819585.8000000007,031_y_m_n_a.png,I,m,1483,8,1,2513.10000000149,817072.6999999993,8004,NNB,C,6
7,test,4,1.0,2-Back,1,z,Wed Sep 25 2024 08:27:45 GMT-0500 (Central Daylight Time),821150.8000000007,006_m_f_n_a.png,I,z,537,9,1,1561.300000000745,819589.5,8004,NNB,C,7
8,test,4,0.0,2-Back,1,m,Wed Sep 25 2024 08:27:45 GMT-0500 (Central Daylight Time),823033.6999999993,092_m_m_n_a.png,I,m,850,10,1,1879.199999999255,821154.5,8004,NNB,C,8
9,test,4,0.0,2-Back,1,m,Wed Sep 25 2024 08:27:45 GMT-0500 (Central Daylight Time),825861.8000000007,031_y_m_n_a.png,I,m,1794,11,1,2824.400000002235,823037.3999999985,8004,NNB,C,9
10,test,4,0.0,2-Back,1,m,Wed Sep 25 2024 08:27:45 GMT-0500 (Central Daylight Time),828015.5999999978,130_o_f_n_a.png,I,m,1127,12,1,2149.599999997765,825866.0,8004,NNB,C,10
11,test,4,0.0,2-Back,1,m,Wed Sep 25 2024 08:27:45 GMT-0500 (Central Daylight Time),830265.5,057_y_m_n_a.png,I,m,1208,13,1,2246.699999999255,828018.8000000007,8004,NNB,C,11
12,test,4,1.0,2-Back,1,z,Wed Sep 25 2024 08:27:45 GMT-0500 (Central Daylight Time),832480.8000000007,130_o_f_n_a.png,I,z,1168,14,1,2210.10000000149,830270.6999999993,8004,NNB,C,12
12,test,4,1.0,2-Back,0,z,Wed Sep 25 2024 08:27:45 GMT-0500 (Central Daylight Time),835530.1999999993,057_y_m_n_a.png,I,None,2016,15,1,3046.39999999851,832483.8000000007,8004,NNB,C,13
13,test,4,0.0,2-Back,1,m,Wed Sep 25 2024 08:27:45 GMT-0500 (Central Daylight Time),837662.5999999978,082_m_m_n_a.png,I,m,1103,16,1,2128.599999997765,835534.0,8004,NNB,C,14
14,test,4,0.0,2-Back,1,m,Wed Sep 25 2024 08:27:45 GMT-0500 (Central Daylight Time),839545.1999999993,093_m_f_n_a.png,I,m,851,17,1,1879.300000000745,837665.8999999985,8004,NNB,C,15
15,test,4,1.0,2-Back,1,z,Wed Sep 25 2024 08:27:45 GMT-0500 (Central Daylight Time),841594.5,082_m_m_n_a.png,I,z,1024,18,1,2045.4000000022352,839549.0999999978,8004,NNB,C,16
0,test,5,1.0,2-Back,,,Wed Sep 25 2024 08:27:45 GMT-0500 (Central Daylight Time),841594.5,057_y_m_n_a.png,I,space,4759,1,1,2045.4000000022352,839549.0999999978,8004,NNB,C,0
0,test,5,1.0,2-Back,,,Wed Sep 25 2024 08:27:45 GMT-0500 (Central Daylight Time),841594.5,093_m_f_n_a.png,I,space,4759,2,1,2045.4000000022352,839549.0999999978,8004,NNB,C,0
1,test,5,1.0,2-Back,1,z,Wed Sep 25 2024 08:27:45 GMT-0500 (Central Daylight Time),853374.3999999985,057_y_m_n_a.png,I,z,962,3,1,1979.5,851394.8999999985,8004,NNB,C,1
2,test,5,1.0,2-Back,1,z,Wed Sep 25 2024 08:27:45 GMT-0500 (Central Daylight Time),855806.8999999985,093_m_f_n_a.png,I,z,1402,4,1,2429.300000000745,853377.5999999978,8004,NNB,C,2
3,test,5,0.0,2-Back,1,m,Wed Sep 25 2024 08:27:45 GMT-0500 (Central Daylight Time),857723.0,130_o_f_n_a.png,I,m,890,5,1,1913.1000000014901,855809.8999999985,8004,NNB,C,3
3,test,5,0.0,2-Back,0,m,Wed Sep 25 2024 08:27:45 GMT-0500 (Central Daylight Time),860005.5,057_y_m_n_a.png,I,z,1255,6,1,2279.300000000745,857726.1999999993,8004,NNB,C,4
4,test,5,0.0,2-Back,1,m,Wed Sep 25 2024 08:27:45 GMT-0500 (Central Daylight Time),862004.8000000007,028_y_f_n_a.png,I,m,971,7,1,1995.7000000029802,860009.0999999978,8004,NNB,C,5
5,test,5,0.0,2-Back,1,m,Wed Sep 25 2024 08:27:45 GMT-0500 (Central Daylight Time),863637.6999999993,130_o_f_n_a.png,I,m,605,8,1,1629.699999999255,862008.0,8004,NNB,C,6
6,test,5,1.0,2-Back,1,z,Wed Sep 25 2024 08:27:45 GMT-0500 (Central Daylight Time),865603.8000000007,028_y_f_n_a.png,I,z,940,9,1,1962.9000000022352,863640.8999999985,8004,NNB,C,7
7,test,5,0.0,2-Back,1,m,Wed Sep 25 2024 08:27:45 GMT-0500 (Central Daylight Time),867586.3999999985,146_o_m_n_a.png,I,m,950,10,1,1978.699999999255,865607.6999999993,8004,NNB,C,8
8,test,5,0.0,2-Back,1,m,Wed Sep 25 2024 08:27:45 GMT-0500 (Central Daylight Time),870202.1999999993,006_m_f_n_a.png,I,m,1599,11,1,2612.199999999255,867590.0,8004,NNB,C,9
8,test,5,0.0,2-Back,0,m,Wed Sep 25 2024 08:27:45 GMT-0500 (Central Daylight Time),873234.8000000007,092_m_m_n_a.png,I,None,2016,12,1,3029.5,870205.3000000007,8004,NNB,C,10
9,test,5,0.0,2-Back,1,m,Wed Sep 25 2024 08:27:45 GMT-0500 (Central Daylight Time),875284.0,146_o_m_n_a.png,I,m,1031,13,1,2045.699999999255,873238.3000000007,8004,NNB,C,11
10,test,5,1.0,2-Back,1,z,Wed Sep 25 2024 08:27:45 GMT-0500 (Central Daylight Time),877383.5,092_m_m_n_a.png,I,z,1069,14,1,2095.800000000745,875287.6999999993,8004,NNB,C,12
11,test,5,0.0,2-Back,1,m,Wed Sep 25 2024 08:27:45 GMT-0500 (Central Daylight Time),879333.0,098_y_f_n_a.png,I,m,922,15,1,1946.1000000014901,877386.8999999985,8004,NNB,C,13
12,test,5,0.0,2-Back,1,m,Wed Sep 25 2024 08:27:45 GMT-0500 (Central Daylight Time),881415.5999999978,059_o_m_n_a.png,I,m,1051,16,1,2079.099999997765,879336.5,8004,NNB,C,14
13,test,5,0.0,2-Back,1,m,Wed Sep 25 2024 08:27:45 GMT-0500 (Central Daylight Time),883764.8999999985,006_m_f_n_a.png,I,m,1322,17,1,2346.099999997765,881418.8000000007,8004,NNB,C,15
14,test,5,1.0,2-Back,1,z,Wed Sep 25 2024 08:27:45 GMT-0500 (Central Daylight Time),885780.8999999985,059_o_m_n_a.png,I,z,989,18,1,2012.8999999985099,883768.0,8004,NNB,C,16
