block_c,block_dur,condition,countdown,datetime,endtime,list,multichar_response,project,response,response_time,session_number,start_end,starttime,subject_id,task,task_vers,trial
,,,,Fri Sep 13 2024 11:48:03 GMT-0500 (Central Daylight Time),,,,I,space,2219,1,,,8002,WL,A,
prac,,0,,Fri Sep 13 2024 11:48:03 GMT-0500 (Central Daylight Time),,NA,b,I,b,12032,1,,,8002,WL,A,1.0
prac,,0,,Fri Sep 13 2024 11:48:03 GMT-0500 (Central Daylight Time),,NA,bo,I,o,557,1,,,8002,WL,A,1.0
prac,,0,,Fri Sep 13 2024 11:48:03 GMT-0500 (Central Daylight Time),,NA,boo,I,o,279,1,,,8002,WL,A,1.0
prac,,0,,Fri Sep 13 2024 11:48:03 GMT-0500 (Central Daylight Time),,NA,boos,I,s,835,1,,,8002,WL,A,1.0
prac,,0,,Fri Sep 13 2024 11:48:03 GMT-0500 (Central Daylight Time),,NA,boost,I,t,402,1,,,8002,WL,A,1.0
prac,,0,,Fri Sep 13 2024 11:48:03 GMT-0500 (Central Daylight Time),,NA,boostenter,I,enter,1513,1,,,8002,WL,A,1.0
1,1.0499999523162842,learn,58950.000047683716,Fri Sep 13 2024 11:48:03 GMT-0500 (Central Daylight Time),174409.1000000015,A,f,I,f,1036,1,1047.8000000044703,173361.29999999702,8002,WL,A,1.0
1,1.182999849319458,learn,58817.00015068054,Fri Sep 13 2024 11:48:03 GMT-0500 (Central Daylight Time),174542.1000000015,A,fl,I,l,122,1,1180.8000000044703,173361.29999999702,8002,WL,A,1.0
1,1.5,learn,58500.0,Fri Sep 13 2024 11:48:03 GMT-0500 (Central Daylight Time),174858.6000000015,A,flo,I,o,303,1,1497.3000000044703,173361.29999999702,8002,WL,A,1.0
1,1.6669998168945312,learn,58333.00018310547,Fri Sep 13 2024 11:48:03 GMT-0500 (Central Daylight Time),175025.3999999985,A,flow,I,w,154,1,1664.1000000014901,173361.29999999702,8002,WL,A,1.0
1,1.8659999370574951,learn,58134.000062942505,Fri Sep 13 2024 11:48:03 GMT-0500 (Central Daylight Time),175225.19999999553,A,flowe,I,e,179,1,1863.8999999985099,173361.29999999702,8002,WL,A,1.0
1,2.065999984741211,learn,57934.00001525879,Fri Sep 13 2024 11:48:03 GMT-0500 (Central Daylight Time),175425.19999999553,A,flower,I,r,188,1,2063.89999999851,173361.29999999702,8002,WL,A,1.0
1,2.7659997940063477,learn,57234.00020599365,Fri Sep 13 2024 11:48:03 GMT-0500 (Central Daylight Time),176125.0,A,flowerenter,I,enter,692,1,2763.7000000029802,173361.29999999702,8002,WL,A,1.0
1,4.048999786376953,learn,55951.00021362305,Fri Sep 13 2024 11:48:03 GMT-0500 (Central Daylight Time),177407.6000000015,A,b,I,b,1271,1,1281.9000000059605,176125.69999999553,8002,WL,A,2.0
1,4.315999984741211,learn,55684.00001525879,Fri Sep 13 2024 11:48:03 GMT-0500 (Central Daylight Time),177674.3999999985,A,bo,I,o,253,1,1548.7000000029802,176125.69999999553,8002,WL,A,2.0
1,4.48199987411499,learn,55518.00012588501,Fri Sep 13 2024 11:48:03 GMT-0500 (Central Daylight Time),177841.1000000015,A,boo,I,o,155,1,1715.4000000059605,176125.69999999553,8002,WL,A,2.0
1,4.7149999141693115,learn,55285.00008583069,Fri Sep 13 2024 11:48:03 GMT-0500 (Central Daylight Time),178074.29999999702,A,book,I,k,227,1,1948.6000000014901,176125.69999999553,8002,WL,A,2.0
1,5.048999786376953,learn,54951.00021362305,Fri Sep 13 2024 11:48:03 GMT-0500 (Central Daylight Time),178407.5,A,bookenter,I,enter,315,1,2281.8000000044703,176125.69999999553,8002,WL,A,2.0
1,5.497999906539917,learn,54502.00009346008,Fri Sep 13 2024 11:48:03 GMT-0500 (Central Daylight Time),178857.29999999702,A,r,I,r,429,1,449.29999999701977,178408.0,8002,WL,A,3.0
1,5.698999881744385,learn,54301.000118255615,Fri Sep 13 2024 11:48:03 GMT-0500 (Central Daylight Time),179057.5,A,ru,I,u,188,1,649.5,178408.0,8002,WL,A,3.0
1,5.9649999141693115,learn,54035.00008583069,Fri Sep 13 2024 11:48:03 GMT-0500 (Central Daylight Time),179324.0,A,rug,I,g,252,1,916.0,178408.0,8002,WL,A,3.0
1,6.697999954223633,learn,53302.00004577637,Fri Sep 13 2024 11:48:03 GMT-0500 (Central Daylight Time),180057.1000000015,A,rugenter,I,enter,721,1,1649.1000000014901,178408.0,8002,WL,A,3.0
1,7.114999771118164,learn,52885.000228881836,Fri Sep 13 2024 11:48:03 GMT-0500 (Central Daylight Time),180473.6000000015,A,g,I,g,396,1,416.1000000014901,180057.5,8002,WL,A,4.0
1,7.247999906539917,learn,52752.00009346008,Fri Sep 13 2024 11:48:03 GMT-0500 (Central Daylight Time),180606.79999999702,A,go,I,o,115,1,549.2999999970198,180057.5,8002,WL,A,4.0
1,7.547999858856201,learn,52452.0001411438,Fri Sep 13 2024 11:48:03 GMT-0500 (Central Daylight Time),180906.5,A,gol,I,l,294,1,849.0,180057.5,8002,WL,A,4.0
1,7.797999858856201,learn,52202.0001411438,Fri Sep 13 2024 11:48:03 GMT-0500 (Central Daylight Time),181156.6000000015,A,gold,I,d,243,1,1099.1000000014901,180057.5,8002,WL,A,4.0
1,8.148000001907349,learn,51851.99999809265,Fri Sep 13 2024 11:48:03 GMT-0500 (Central Daylight Time),181506.79999999702,A,goldenter,I,enter,329,1,1449.2999999970198,180057.5,8002,WL,A,4.0
1,9.813999891281128,learn,50186.00010871887,Fri Sep 13 2024 11:48:03 GMT-0500 (Central Daylight Time),183172.69999999553,A,m,I,m,1650,1,1665.3999999985099,181507.29999999702,8002,WL,A,5.0
1,10.596999883651733,learn,49403.00011634827,Fri Sep 13 2024 11:48:03 GMT-0500 (Central Daylight Time),183955.69999999553,A,,I,backspace,776,1,2448.39999999851,181507.29999999702,8002,WL,A,5.0
1,10.946999788284302,learn,49053.0002117157,Fri Sep 13 2024 11:48:03 GMT-0500 (Central Daylight Time),184305.6000000015,A,m,I,m,338,1,2798.3000000044703,181507.29999999702,8002,WL,A,5.0
1,11.229999780654907,learn,48770.00021934509,Fri Sep 13 2024 11:48:03 GMT-0500 (Central Daylight Time),184589.0,A,me,I,e,268,1,3081.7000000029802,181507.29999999702,8002,WL,A,5.0
1,11.396999835968018,learn,48603.00016403198,Fri Sep 13 2024 11:48:03 GMT-0500 (Central Daylight Time),184755.5,A,mea,I,a,160,1,3248.2000000029802,181507.29999999702,8002,WL,A,5.0
1,11.696999788284302,learn,48303.0002117157,Fri Sep 13 2024 11:48:03 GMT-0500 (Central Daylight Time),185055.5,A,mead,I,d,281,1,3548.2000000029802,181507.29999999702,8002,WL,A,5.0
1,12.162999868392944,learn,47837.000131607056,Fri Sep 13 2024 11:48:03 GMT-0500 (Central Daylight Time),185522.1000000015,A,meado,I,o,446,1,4014.8000000044703,181507.29999999702,8002,WL,A,5.0
1,12.27999997138977,learn,47720.00002861023,Fri Sep 13 2024 11:48:03 GMT-0500 (Central Daylight Time),185638.3999999985,A,meadow,I,w,107,1,4131.10000000149,181507.29999999702,8002,WL,A,5.0
1,12.763999938964844,learn,47236.000061035156,Fri Sep 13 2024 11:48:03 GMT-0500 (Central Daylight Time),186122.79999999702,A,meadowenter,I,enter,471,1,4615.5,181507.29999999702,8002,WL,A,5.0
1,13.223999977111816,learn,46776.00002288818,Fri Sep 13 2024 11:48:03 GMT-0500 (Central Daylight Time),186583.19999999553,A,a,I,a,455,1,459.79999999701977,186123.3999999985,8002,WL,A,6.0
1,13.378999948501587,learn,46621.00005149841,Fri Sep 13 2024 11:48:03 GMT-0500 (Central Daylight Time),186738.0,A,al,I,l,132,1,614.6000000014901,186123.3999999985,8002,WL,A,6.0
1,13.628999948501587,learn,46371.00005149841,Fri Sep 13 2024 11:48:03 GMT-0500 (Central Daylight Time),186988.19999999553,A,alt,I,t,235,1,864.7999999970198,186123.3999999985,8002,WL,A,6.0
1,14.095999956130981,learn,45904.00004386902,Fri Sep 13 2024 11:48:03 GMT-0500 (Central Daylight Time),187454.6000000015,A,altenter,I,enter,449,1,1331.2000000029802,186123.3999999985,8002,WL,A,6.0
1,14.478999853134155,learn,45521.000146865845,Fri Sep 13 2024 11:48:03 GMT-0500 (Central Daylight Time),187838.0,A,r,I,r,365,1,382.8999999985099,187455.1000000015,8002,WL,A,7.0
1,14.77899980545044,learn,45221.00019454956,Fri Sep 13 2024 11:48:03 GMT-0500 (Central Daylight Time),188137.79999999702,A,ru,I,u,287,1,682.6999999955297,187455.1000000015,8002,WL,A,7.0
1,14.911999940872192,learn,45088.00005912781,Fri Sep 13 2024 11:48:03 GMT-0500 (Central Daylight Time),188271.29999999702,A,rug,I,g,123,1,816.1999999955297,187455.1000000015,8002,WL,A,7.0
1,15.228999853134155,learn,44771.000146865845,Fri Sep 13 2024 11:48:03 GMT-0500 (Central Daylight Time),188587.69999999553,A,rugenter,I,enter,302,1,1132.5999999940395,187455.1000000015,8002,WL,A,7.0
1,17.127999782562256,learn,42872.000217437744,Fri Sep 13 2024 11:48:03 GMT-0500 (Central Daylight Time),190486.8999999985,A,k,I,k,1881,1,1898.7999999970198,188588.1000000015,8002,WL,A,8.0
1,17.34599995613098,learn,42654.00004386902,Fri Sep 13 2024 11:48:03 GMT-0500 (Central Daylight Time),190704.5,A,ke,I,e,198,1,2116.39999999851,188588.1000000015,8002,WL,A,8.0
1,17.67799997329712,learn,42322.00002670288,Fri Sep 13 2024 11:48:03 GMT-0500 (Central Daylight Time),191036.8999999985,A,key,I,y,325,1,2448.7999999970198,188588.1000000015,8002,WL,A,8.0
1,18.227999925613403,learn,41772.0000743866,Fri Sep 13 2024 11:48:03 GMT-0500 (Central Daylight Time),191586.69999999553,A,keyenter,I,enter,536,1,2998.5999999940395,188588.1000000015,8002,WL,A,8.0
1,18.643999814987183,learn,41356.00018501282,Fri Sep 13 2024 11:48:03 GMT-0500 (Central Daylight Time),192003.1000000015,A,r,I,r,410,1,416.0,191587.1000000015,8002,WL,A,9.0
1,19.044999837875366,learn,40955.000162124634,Fri Sep 13 2024 11:48:03 GMT-0500 (Central Daylight Time),192403.3999999985,A,ra,I,a,386,1,816.2999999970198,191587.1000000015,8002,WL,A,9.0
1,19.378999948501587,learn,40621.00005149841,Fri Sep 13 2024 11:48:03 GMT-0500 (Central Daylight Time),192737.5,A,rat,I,t,314,1,1150.3999999985099,191587.1000000015,8002,WL,A,9.0
1,19.560999870300293,learn,40439.00012969971,Fri Sep 13 2024 11:48:03 GMT-0500 (Central Daylight Time),192919.79999999702,A,ratt,I,t,164,1,1332.6999999955297,191587.1000000015,8002,WL,A,9.0
1,19.810999870300293,learn,40189.00012969971,Fri Sep 13 2024 11:48:03 GMT-0500 (Central Daylight Time),193169.5,A,rattl,I,l,238,1,1582.3999999985099,191587.1000000015,8002,WL,A,9.0
1,20.176999807357788,learn,39823.00019264221,Fri Sep 13 2024 11:48:03 GMT-0500 (Central Daylight Time),193536.0,A,rattle,I,e,348,1,1948.8999999985099,191587.1000000015,8002,WL,A,9.0
1,21.07699990272522,learn,38923.00009727478,Fri Sep 13 2024 11:48:03 GMT-0500 (Central Daylight Time),194435.79999999702,A,rattleenter,I,enter,893,1,2848.6999999955297,191587.1000000015,8002,WL,A,9.0
1,26.05899977684021,learn,33941.00022315979,Fri Sep 13 2024 11:48:03 GMT-0500 (Central Daylight Time),199417.79999999702,A,c,I,c,4962,1,4981.69999999553,194436.1000000015,8002,WL,A,10.0
1,26.22499990463257,learn,33775.00009536743,Fri Sep 13 2024 11:48:03 GMT-0500 (Central Daylight Time),199584.19999999553,A,ch,I,h,147,1,5148.0999999940395,194436.1000000015,8002,WL,A,10.0
1,26.274999856948853,learn,33725.00014305115,Fri Sep 13 2024 11:48:03 GMT-0500 (Central Daylight Time),199634.0,A,chi,I,i,37,1,5197.89999999851,194436.1000000015,8002,WL,A,10.0
1,26.64199995994568,learn,33358.00004005432,Fri Sep 13 2024 11:48:03 GMT-0500 (Central Daylight Time),200000.69999999553,A,chim,I,m,356,1,5564.5999999940395,194436.1000000015,8002,WL,A,10.0
1,27.04199981689453,learn,32958.00018310547,Fri Sep 13 2024 11:48:03 GMT-0500 (Central Daylight Time),200400.79999999702,A,chimn,I,n,381,1,5964.69999999553,194436.1000000015,8002,WL,A,10.0
1,27.275999784469604,learn,32724.000215530396,Fri Sep 13 2024 11:48:03 GMT-0500 (Central Daylight Time),200634.79999999702,A,chimne,I,e,221,1,6198.69999999553,194436.1000000015,8002,WL,A,10.0
1,27.54199981689453,learn,32458.00018310547,Fri Sep 13 2024 11:48:03 GMT-0500 (Central Daylight Time),200900.3999999985,A,chimney,I,y,250,1,6464.29999999702,194436.1000000015,8002,WL,A,10.0
1,27.924999952316284,learn,32075.000047683716,Fri Sep 13 2024 11:48:03 GMT-0500 (Central Daylight Time),201283.69999999553,A,chimneyenter,I,enter,369,1,6847.5999999940395,194436.1000000015,8002,WL,A,10.0
1,28.95799994468689,learn,31042.00005531311,Fri Sep 13 2024 11:48:03 GMT-0500 (Central Daylight Time),202316.6000000015,A,l,I,l,1026,1,1032.6000000014901,201284.0,8002,WL,A,11.0
1,29.890999794006348,learn,30109.000205993652,Fri Sep 13 2024 11:48:03 GMT-0500 (Central Daylight Time),203249.6000000015,A,lo,I,o,913,1,1965.6000000014901,201284.0,8002,WL,A,11.0
1,30.056999921798706,learn,29943.000078201294,Fri Sep 13 2024 11:48:03 GMT-0500 (Central Daylight Time),203416.19999999553,A,log,I,g,147,1,2132.1999999955297,201284.0,8002,WL,A,11.0
1,30.45699977874756,learn,29543.00022125244,Fri Sep 13 2024 11:48:03 GMT-0500 (Central Daylight Time),203816.1000000015,A,logenter,I,enter,389,1,2532.10000000149,201284.0,8002,WL,A,11.0
1,60.11199998855591,learn,-111.9999885559082,Fri Sep 13 2024 11:48:03 GMT-0500 (Central Daylight Time),233471.69999999553,A,None,I,None,29650,1,29655.09999999404,203816.6000000015,8002,WL,A,12.0
2,0.6169998645782471,learn,59383.00013542175,Fri Sep 13 2024 11:48:03 GMT-0500 (Central Daylight Time),336407.8999999985,A,f,I,f,606,1,616.2999999970198,335791.6000000015,8002,WL,A,1.0
2,1.066999912261963,learn,58933.00008773804,Fri Sep 13 2024 11:48:03 GMT-0500 (Central Daylight Time),336858.19999999553,A,fi,I,i,445,1,1066.5999999940395,335791.6000000015,8002,WL,A,1.0
2,1.2829999923706055,learn,58717.000007629395,Fri Sep 13 2024 11:48:03 GMT-0500 (Central Daylight Time),337074.5,A,fin,I,n,195,1,1282.8999999985099,335791.6000000015,8002,WL,A,1.0
2,1.4829998016357422,learn,58517.00019836426,Fri Sep 13 2024 11:48:03 GMT-0500 (Central Daylight Time),337274.19999999553,A,fing,I,g,187,1,1482.5999999940395,335791.6000000015,8002,WL,A,1.0
2,1.6999998092651367,learn,58300.00019073486,Fri Sep 13 2024 11:48:03 GMT-0500 (Central Daylight Time),337490.799999997,A,finge,I,e,211,1,1699.1999999955297,335791.6000000015,8002,WL,A,1.0
2,1.8659999370574951,learn,58134.000062942505,Fri Sep 13 2024 11:48:03 GMT-0500 (Central Daylight Time),337657.5,A,finger,I,r,155,1,1865.8999999985099,335791.6000000015,8002,WL,A,1.0
2,2.9489998817443848,learn,57051.000118255615,Fri Sep 13 2024 11:48:03 GMT-0500 (Central Daylight Time),338740.5,A,fingerenter,I,enter,1076,1,2948.89999999851,335791.6000000015,8002,WL,A,1.0
2,3.382999897003174,learn,56617.000102996826,Fri Sep 13 2024 11:48:03 GMT-0500 (Central Daylight Time),339173.69999999553,A,h,I,h,417,1,432.79999999701977,338740.8999999985,8002,WL,A,2.0
2,3.548999786376953,learn,56451.00021362305,Fri Sep 13 2024 11:48:03 GMT-0500 (Central Daylight Time),339340.3999999985,A,ha,I,a,151,1,599.5,338740.8999999985,8002,WL,A,2.0
2,3.7319998741149902,learn,56268.00012588501,Fri Sep 13 2024 11:48:03 GMT-0500 (Central Daylight Time),339523.3999999985,A,har,I,r,176,1,782.5,338740.8999999985,8002,WL,A,2.0
2,3.982999801635742,learn,56017.00019836426,Fri Sep 13 2024 11:48:03 GMT-0500 (Central Daylight Time),339774.6000000015,A,harp,I,p,242,1,1033.7000000029802,338740.8999999985,8002,WL,A,2.0
2,4.298999786376953,learn,55701.00021362305,Fri Sep 13 2024 11:48:03 GMT-0500 (Central Daylight Time),340090.1000000015,A,harpenter,I,enter,303,1,1349.2000000029802,338740.8999999985,8002,WL,A,2.0
2,4.648999929428101,learn,55351.0000705719,Fri Sep 13 2024 11:48:03 GMT-0500 (Central Daylight Time),340440.19999999553,A,a,I,a,331,1,349.79999999701977,340090.3999999985,8002,WL,A,3.0
2,4.815999984741211,learn,55184.00001525879,Fri Sep 13 2024 11:48:03 GMT-0500 (Central Daylight Time),340606.69999999553,A,ap,I,p,157,1,516.2999999970198,340090.3999999985,8002,WL,A,3.0
2,4.998999834060669,learn,55001.00016593933,Fri Sep 13 2024 11:48:03 GMT-0500 (Central Daylight Time),340789.799999997,A,app,I,p,175,1,699.3999999985099,340090.3999999985,8002,WL,A,3.0
2,5.248999834060669,learn,54751.00016593933,Fri Sep 13 2024 11:48:03 GMT-0500 (Central Daylight Time),341039.799999997,A,appl,I,l,240,1,949.3999999985099,340090.3999999985,8002,WL,A,3.0
2,6.097999811172485,learn,53902.000188827515,Fri Sep 13 2024 11:48:03 GMT-0500 (Central Daylight Time),341889.3999999985,A,apple,I,e,838,1,1799.0,340090.3999999985,8002,WL,A,3.0
2,7.031999826431274,learn,52968.000173568726,Fri Sep 13 2024 11:48:03 GMT-0500 (Central Daylight Time),342822.6000000015,A,appleb,I,b,916,1,2732.2000000029802,340090.3999999985,8002,WL,A,3.0
2,7.4649999141693115,learn,52535.00008583069,Fri Sep 13 2024 11:48:03 GMT-0500 (Central Daylight Time),343255.799999997,A,applebu,I,u,415,1,3165.39999999851,340090.3999999985,8002,WL,A,3.0
2,7.747999906539917,learn,52252.00009346008,Fri Sep 13 2024 11:48:03 GMT-0500 (Central Daylight Time),343539.1000000015,A,applebut,I,t,270,1,3448.7000000029802,340090.3999999985,8002,WL,A,3.0
2,7.947999954223633,learn,52052.00004577637,Fri Sep 13 2024 11:48:03 GMT-0500 (Central Daylight Time),343738.8999999985,A,applebutt,I,t,194,1,3648.5,340090.3999999985,8002,WL,A,3.0
2,8.113999843597412,learn,51886.00015640259,Fri Sep 13 2024 11:48:03 GMT-0500 (Central Daylight Time),343905.5,A,applebutto,I,o,155,1,3815.10000000149,340090.3999999985,8002,WL,A,3.0
2,8.31499981880188,learn,51685.00018119812,Fri Sep 13 2024 11:48:03 GMT-0500 (Central Daylight Time),344105.799999997,A,applebutton,I,n,180,1,4015.39999999851,340090.3999999985,8002,WL,A,3.0
2,9.696999788284302,learn,50303.0002117157,Fri Sep 13 2024 11:48:03 GMT-0500 (Central Daylight Time),345488.299999997,A,applebutto,I,backspace,1372,1,5397.89999999851,340090.3999999985,8002,WL,A,3.0
2,9.930999994277954,learn,50069.000005722046,Fri Sep 13 2024 11:48:03 GMT-0500 (Central Daylight Time),345721.8999999985,A,applebutt,I,backspace,213,1,5631.5,340090.3999999985,8002,WL,A,3.0
2,10.096999883651733,learn,49903.00011634827,Fri Sep 13 2024 11:48:03 GMT-0500 (Central Daylight Time),345888.5,A,applebut,I,backspace,156,1,5798.10000000149,340090.3999999985,8002,WL,A,3.0
2,10.313999891281128,learn,49686.00010871887,Fri Sep 13 2024 11:48:03 GMT-0500 (Central Daylight Time),346104.799999997,A,applebu,I,backspace,205,1,6014.39999999851,340090.3999999985,8002,WL,A,3.0
2,10.446999788284302,learn,49553.0002117157,Fri Sep 13 2024 11:48:03 GMT-0500 (Central Daylight Time),346238.1000000015,A,appleb,I,backspace,116,1,6147.70000000298,340090.3999999985,8002,WL,A,3.0
2,10.629999876022339,learn,49370.00012397766,Fri Sep 13 2024 11:48:03 GMT-0500 (Central Daylight Time),346421.5,A,apple,I,backspace,175,1,6331.10000000149,340090.3999999985,8002,WL,A,3.0
2,11.096999883651733,learn,48903.00011634827,Fri Sep 13 2024 11:48:03 GMT-0500 (Central Daylight Time),346888.19999999553,A,appleenter,I,enter,456,1,6797.79999999702,340090.3999999985,8002,WL,A,3.0
2,12.11299991607666,learn,47887.00008392334,Fri Sep 13 2024 11:48:03 GMT-0500 (Central Daylight Time),347904.299999997,A,b,I,b,1006,1,1015.7999999970198,346888.5,8002,WL,A,4.0
2,12.246999979019165,learn,47753.000020980835,Fri Sep 13 2024 11:48:03 GMT-0500 (Central Daylight Time),348037.69999999553,A,bu,I,u,125,1,1149.1999999955297,346888.5,8002,WL,A,4.0
2,12.512999773025513,learn,47487.00022697449,Fri Sep 13 2024 11:48:03 GMT-0500 (Central Daylight Time),348304.1000000015,A,but,I,t,255,1,1415.6000000014901,346888.5,8002,WL,A,4.0
2,12.712999820709229,learn,47287.00017929077,Fri Sep 13 2024 11:48:03 GMT-0500 (Central Daylight Time),348504.19999999553,A,butt,I,t,181,1,1615.6999999955297,346888.5,8002,WL,A,4.0
2,12.879999876022339,learn,47120.00012397766,Fri Sep 13 2024 11:48:03 GMT-0500 (Central Daylight Time),348670.799999997,A,butto,I,o,157,1,1782.2999999970198,346888.5,8002,WL,A,4.0
2,13.512999773025513,learn,46487.00022697449,Fri Sep 13 2024 11:48:03 GMT-0500 (Central Daylight Time),349303.8999999985,A,button,I,n,623,1,2415.39999999851,346888.5,8002,WL,A,4.0
2,14.211999893188477,learn,45788.00010681152,Fri Sep 13 2024 11:48:03 GMT-0500 (Central Daylight Time),350003.5,A,buttonenter,I,enter,686,1,3115.0,346888.5,8002,WL,A,4.0
2,15.211999893188477,learn,44788.00010681152,Fri Sep 13 2024 11:48:03 GMT-0500 (Central Daylight Time),351003.299999997,A,f,I,f,994,1,999.3999999985099,350003.8999999985,8002,WL,A,5.0
2,15.51199984550476,learn,44488.00015449524,Fri Sep 13 2024 11:48:03 GMT-0500 (Central Daylight Time),351303.1000000015,A,fl,I,l,295,1,1299.2000000029802,350003.8999999985,8002,WL,A,5.0
2,16.860999822616577,learn,43139.00017738342,Fri Sep 13 2024 11:48:03 GMT-0500 (Central Daylight Time),352652.6000000015,A,flo,I,o,1342,1,2648.7000000029802,350003.8999999985,8002,WL,A,5.0
2,17.044999837875366,learn,42955.000162124634,Fri Sep 13 2024 11:48:03 GMT-0500 (Central Daylight Time),352836.1000000015,A,flow,I,w,169,1,2832.2000000029802,350003.8999999985,8002,WL,A,5.0
2,17.227999925613403,learn,42772.0000743866,Fri Sep 13 2024 11:48:03 GMT-0500 (Central Daylight Time),353019.3999999985,A,flowe,I,e,169,1,3015.5,350003.8999999985,8002,WL,A,5.0
2,17.360999822616577,learn,42639.00017738342,Fri Sep 13 2024 11:48:03 GMT-0500 (Central Daylight Time),353152.69999999553,A,flower,I,r,114,1,3148.7999999970198,350003.8999999985,8002,WL,A,5.0
2,17.994999885559082,learn,42005.00011444092,Fri Sep 13 2024 11:48:03 GMT-0500 (Central Daylight Time),353785.799999997,A,flowerenter,I,enter,621,1,3781.89999999851,350003.8999999985,8002,WL,A,5.0
2,18.444000005722046,learn,41555.999994277954,Fri Sep 13 2024 11:48:03 GMT-0500 (Central Daylight Time),354235.69999999553,A,b,I,b,436,1,449.5,353786.19999999553,8002,WL,A,6.0
2,18.610999822616577,learn,41389.00017738342,Fri Sep 13 2024 11:48:03 GMT-0500 (Central Daylight Time),354402.19999999553,A,bo,I,o,154,1,616.0,353786.19999999553,8002,WL,A,6.0
2,18.810999870300293,learn,41189.00012969971,Fri Sep 13 2024 11:48:03 GMT-0500 (Central Daylight Time),354602.3999999985,A,boo,I,o,179,1,816.2000000029802,353786.19999999553,8002,WL,A,6.0
2,18.977999925613403,learn,41022.0000743866,Fri Sep 13 2024 11:48:03 GMT-0500 (Central Daylight Time),354768.799999997,A,book,I,k,147,1,982.6000000014901,353786.19999999553,8002,WL,A,6.0
2,20.444999933242798,learn,39555.0000667572,Fri Sep 13 2024 11:48:03 GMT-0500 (Central Daylight Time),356236.299999997,A,bookenter,I,enter,1460,1,2450.10000000149,353786.19999999553,8002,WL,A,6.0
2,20.859999895095825,learn,39140.000104904175,Fri Sep 13 2024 11:48:03 GMT-0500 (Central Daylight Time),356651.6000000015,A,r,I,r,409,1,414.90000000596046,356236.69999999553,8002,WL,A,7.0
2,21.109999895095825,learn,38890.000104904175,Fri Sep 13 2024 11:48:03 GMT-0500 (Central Daylight Time),356901.5,A,ru,I,u,242,1,664.8000000044703,356236.69999999553,8002,WL,A,7.0
2,21.32699990272522,learn,38673.00009727478,Fri Sep 13 2024 11:48:03 GMT-0500 (Central Daylight Time),357118.0,A,rug,I,g,208,1,881.3000000044703,356236.69999999553,8002,WL,A,7.0
2,21.80999994277954,learn,38190.00005722046,Fri Sep 13 2024 11:48:03 GMT-0500 (Central Daylight Time),357601.1000000015,A,rugenter,I,enter,472,1,1364.4000000059605,356236.69999999553,8002,WL,A,7.0
2,22.97599983215332,learn,37024.00016784668,Fri Sep 13 2024 11:48:03 GMT-0500 (Central Daylight Time),358767.6000000015,A,k,I,k,1156,1,1166.1000000014901,357601.5,8002,WL,A,8.0
2,23.16099977493286,learn,36839.00022506714,Fri Sep 13 2024 11:48:03 GMT-0500 (Central Daylight Time),358952.0,A,ke,I,e,165,1,1350.5,357601.5,8002,WL,A,8.0
2,23.45899987220764,learn,36541.00012779236,Fri Sep 13 2024 11:48:03 GMT-0500 (Central Daylight Time),359250.6000000015,A,key,I,y,293,1,1649.1000000014901,357601.5,8002,WL,A,8.0
2,24.40999984741211,learn,35590.00015258789,Fri Sep 13 2024 11:48:03 GMT-0500 (Central Daylight Time),360200.799999997,A,keyr,I,r,931,1,2599.2999999970198,357601.5,8002,WL,A,8.0
2,24.72599983215332,learn,35274.00016784668,Fri Sep 13 2024 11:48:03 GMT-0500 (Central Daylight Time),360516.8999999985,A,keyra,I,a,301,1,2915.39999999851,357601.5,8002,WL,A,8.0
2,25.025999784469604,learn,34974.000215530396,Fri Sep 13 2024 11:48:03 GMT-0500 (Central Daylight Time),360817.1000000015,A,keyrat,I,t,281,1,3215.60000000149,357601.5,8002,WL,A,8.0
2,25.425999879837036,learn,34574.000120162964,Fri Sep 13 2024 11:48:03 GMT-0500 (Central Daylight Time),361216.799999997,A,keyratt,I,t,388,1,3615.2999999970198,357601.5,8002,WL,A,8.0
2,25.674999952316284,learn,34325.000047683716,Fri Sep 13 2024 11:48:03 GMT-0500 (Central Daylight Time),361466.6000000015,A,keyrattl,I,l,244,1,3865.10000000149,357601.5,8002,WL,A,8.0
2,25.842000007629395,learn,34157.999992370605,Fri Sep 13 2024 11:48:03 GMT-0500 (Central Daylight Time),361633.5,A,keyrattle,I,e,147,1,4032.0,357601.5,8002,WL,A,8.0
2,27.45799994468689,learn,32542.00005531311,Fri Sep 13 2024 11:48:03 GMT-0500 (Central Daylight Time),363249.6000000015,A,keyrattl,I,backspace,1596,1,5648.10000000149,357601.5,8002,WL,A,8.0
2,27.64199995994568,learn,32358.00004005432,Fri Sep 13 2024 11:48:03 GMT-0500 (Central Daylight Time),363432.799999997,A,keyratt,I,backspace,172,1,5831.29999999702,357601.5,8002,WL,A,8.0
2,27.807999849319458,learn,32192.000150680542,Fri Sep 13 2024 11:48:03 GMT-0500 (Central Daylight Time),363599.6000000015,A,keyrat,I,backspace,149,1,5998.10000000149,357601.5,8002,WL,A,8.0
2,27.97499990463257,learn,32025.00009536743,Fri Sep 13 2024 11:48:03 GMT-0500 (Central Daylight Time),363766.19999999553,A,keyra,I,backspace,150,1,6164.69999999553,357601.5,8002,WL,A,8.0
2,28.14199995994568,learn,31858.00004005432,Fri Sep 13 2024 11:48:03 GMT-0500 (Central Daylight Time),363932.69999999553,A,keyr,I,backspace,151,1,6331.19999999553,357601.5,8002,WL,A,8.0
2,28.307999849319458,learn,31692.000150680542,Fri Sep 13 2024 11:48:03 GMT-0500 (Central Daylight Time),364099.299999997,A,key,I,backspace,153,1,6497.79999999702,357601.5,8002,WL,A,8.0
2,29.090999841690063,learn,30909.000158309937,Fri Sep 13 2024 11:48:03 GMT-0500 (Central Daylight Time),364882.3999999985,A,keyenter,I,enter,778,1,7280.89999999851,357601.5,8002,WL,A,8.0
2,29.45799994468689,learn,30542.00005531311,Fri Sep 13 2024 11:48:03 GMT-0500 (Central Daylight Time),365248.8999999985,A,r,I,r,355,1,366.29999999701977,364882.6000000015,8002,WL,A,9.0
2,29.673999786376953,learn,30326.000213623047,Fri Sep 13 2024 11:48:03 GMT-0500 (Central Daylight Time),365465.5,A,ra,I,a,205,1,582.8999999985099,364882.6000000015,8002,WL,A,9.0
2,29.87399983406067,learn,30126.00016593933,Fri Sep 13 2024 11:48:03 GMT-0500 (Central Daylight Time),365665.3999999985,A,rat,I,t,188,1,782.7999999970198,364882.6000000015,8002,WL,A,9.0
2,30.04099988937378,learn,29959.00011062622,Fri Sep 13 2024 11:48:03 GMT-0500 (Central Daylight Time),365832.0,A,ratt,I,t,156,1,949.3999999985099,364882.6000000015,8002,WL,A,9.0
2,30.173999786376953,learn,29826.000213623047,Fri Sep 13 2024 11:48:03 GMT-0500 (Central Daylight Time),365965.299999997,A,rattl,I,l,125,1,1082.6999999955297,364882.6000000015,8002,WL,A,9.0
2,30.29099988937378,learn,29709.00011062622,Fri Sep 13 2024 11:48:03 GMT-0500 (Central Daylight Time),366082.1000000015,A,rattle,I,e,96,1,1199.5,364882.6000000015,8002,WL,A,9.0
2,30.94099998474121,learn,29059.00001525879,Fri Sep 13 2024 11:48:03 GMT-0500 (Central Daylight Time),366731.799999997,A,rattleenter,I,enter,635,1,1849.1999999955297,364882.6000000015,8002,WL,A,9.0
2,31.323999881744385,learn,28676.000118255615,Fri Sep 13 2024 11:48:03 GMT-0500 (Central Daylight Time),367114.8999999985,A,t,I,t,370,1,382.79999999701977,366732.1000000015,8002,WL,A,10.0
2,31.539999961853027,learn,28460.000038146973,Fri Sep 13 2024 11:48:03 GMT-0500 (Central Daylight Time),367331.5,A,tr,I,r,210,1,599.3999999985099,366732.1000000015,8002,WL,A,10.0
2,31.723999977111816,learn,28276.000022888184,Fri Sep 13 2024 11:48:03 GMT-0500 (Central Daylight Time),367514.799999997,A,tra,I,a,178,1,782.6999999955297,366732.1000000015,8002,WL,A,10.0
2,31.93999981880188,learn,28060.00018119812,Fri Sep 13 2024 11:48:03 GMT-0500 (Central Daylight Time),367731.299999997,A,trai,I,i,211,1,999.1999999955297,366732.1000000015,8002,WL,A,10.0
2,32.10699987411499,learn,27893.00012588501,Fri Sep 13 2024 11:48:03 GMT-0500 (Central Daylight Time),367898.19999999553,A,train,I,n,154,1,1166.0999999940395,366732.1000000015,8002,WL,A,10.0
2,32.45699977874756,learn,27543.00022125244,Fri Sep 13 2024 11:48:03 GMT-0500 (Central Daylight Time),368247.8999999985,A,trainenter,I,enter,339,1,1515.7999999970198,366732.1000000015,8002,WL,A,10.0
2,33.6729998588562,learn,26327.0001411438,Fri Sep 13 2024 11:48:03 GMT-0500 (Central Daylight Time),369464.299999997,A,g,I,g,1205,1,1216.1000000014901,368248.19999999553,8002,WL,A,11.0
2,33.82299995422363,learn,26177.000045776367,Fri Sep 13 2024 11:48:03 GMT-0500 (Central Daylight Time),369614.19999999553,A,go,I,o,133,1,1366.0,368248.19999999553,8002,WL,A,11.0
2,34.10599994659424,learn,25894.00005340576,Fri Sep 13 2024 11:48:03 GMT-0500 (Central Daylight Time),369897.3999999985,A,gol,I,l,263,1,1649.2000000029802,368248.19999999553,8002,WL,A,11.0
2,34.288999795913696,learn,25711.000204086304,Fri Sep 13 2024 11:48:03 GMT-0500 (Central Daylight Time),370080.5,A,gold,I,d,164,1,1832.3000000044703,368248.19999999553,8002,WL,A,11.0
2,35.8219997882843,learn,24178.0002117157,Fri Sep 13 2024 11:48:03 GMT-0500 (Central Daylight Time),371613.5,A,goldenter,I,enter,1517,1,3365.3000000044703,368248.19999999553,8002,WL,A,11.0
2,37.47199988365173,learn,22528.000116348267,Fri Sep 13 2024 11:48:03 GMT-0500 (Central Daylight Time),373263.19999999553,A,s,I,s,1632,1,1649.3999999985099,371613.799999997,8002,WL,A,12.0
2,37.638999938964844,learn,22361.000061035156,Fri Sep 13 2024 11:48:03 GMT-0500 (Central Daylight Time),373429.799999997,A,sa,I,a,158,1,1816.0,371613.799999997,8002,WL,A,12.0
2,37.85499978065491,learn,22145.000219345093,Fri Sep 13 2024 11:48:03 GMT-0500 (Central Daylight Time),373646.1000000015,A,sal,I,l,200,1,2032.3000000044703,371613.799999997,8002,WL,A,12.0
2,38.05499982833862,learn,21945.000171661377,Fri Sep 13 2024 11:48:03 GMT-0500 (Central Daylight Time),373846.0,A,salt,I,t,191,1,2232.2000000029802,371613.799999997,8002,WL,A,12.0
2,38.901999950408936,learn,21098.000049591064,Fri Sep 13 2024 11:48:03 GMT-0500 (Central Daylight Time),374693.1000000015,A,saltenter,I,enter,842,1,3079.3000000044703,371613.799999997,8002,WL,A,12.0
2,43.8529999256134,learn,16147.000074386597,Fri Sep 13 2024 11:48:03 GMT-0500 (Central Daylight Time),379644.3999999985,A,m,I,m,4936,1,4950.89999999851,374693.5,8002,WL,A,13.0
2,44.03699994087219,learn,15963.000059127808,Fri Sep 13 2024 11:48:03 GMT-0500 (Central Daylight Time),379827.69999999553,A,me,I,e,177,1,5134.19999999553,374693.5,8002,WL,A,13.0
2,44.15299987792969,learn,15847.000122070312,Fri Sep 13 2024 11:48:03 GMT-0500 (Central Daylight Time),379944.19999999553,A,mea,I,a,106,1,5250.69999999553,374693.5,8002,WL,A,13.0
2,44.38599991798401,learn,15614.000082015991,Fri Sep 13 2024 11:48:03 GMT-0500 (Central Daylight Time),380177.6000000015,A,mead,I,d,213,1,5484.10000000149,374693.5,8002,WL,A,13.0
2,44.585999965667725,learn,15414.000034332275,Fri Sep 13 2024 11:48:03 GMT-0500 (Central Daylight Time),380377.3999999985,A,meado,I,o,180,1,5683.89999999851,374693.5,8002,WL,A,13.0
2,44.71999979019165,learn,15280.00020980835,Fri Sep 13 2024 11:48:03 GMT-0500 (Central Daylight Time),380510.799999997,A,meadow,I,w,124,1,5817.29999999702,374693.5,8002,WL,A,13.0
2,45.15299987792969,learn,14847.000122070312,Fri Sep 13 2024 11:48:03 GMT-0500 (Central Daylight Time),380944.0,A,meadowenter,I,enter,423,1,6250.5,374693.5,8002,WL,A,13.0
2,46.10199999809265,learn,13898.000001907349,Fri Sep 13 2024 11:48:03 GMT-0500 (Central Daylight Time),381893.5,A,c,I,c,933,1,949.1000000014901,380944.3999999985,8002,WL,A,14.0
2,46.23599982261658,learn,13764.000177383423,Fri Sep 13 2024 11:48:03 GMT-0500 (Central Daylight Time),382026.6000000015,A,ch,I,h,129,1,1082.2000000029802,380944.3999999985,8002,WL,A,14.0
2,46.335999965667725,learn,13664.000034332275,Fri Sep 13 2024 11:48:03 GMT-0500 (Central Daylight Time),382127.1000000015,A,chi,I,i,83,1,1182.7000000029802,380944.3999999985,8002,WL,A,14.0
2,46.61899995803833,learn,13381.00004196167,Fri Sep 13 2024 11:48:03 GMT-0500 (Central Daylight Time),382410.19999999553,A,chim,I,m,262,1,1465.7999999970198,380944.3999999985,8002,WL,A,14.0
2,46.751999855041504,learn,13248.000144958496,Fri Sep 13 2024 11:48:03 GMT-0500 (Central Daylight Time),382543.3999999985,A,chime,I,e,115,1,1599.0,380944.3999999985,8002,WL,A,14.0
2,47.069000005722046,learn,12930.999994277954,Fri Sep 13 2024 11:48:03 GMT-0500 (Central Daylight Time),382860.299999997,A,chimey,I,y,302,1,1915.8999999985099,380944.3999999985,8002,WL,A,14.0
2,48.11899995803833,learn,11881.00004196167,Fri Sep 13 2024 11:48:03 GMT-0500 (Central Daylight Time),383909.69999999553,A,chimeyenter,I,enter,1041,1,2965.2999999970198,380944.3999999985,8002,WL,A,14.0
2,60.014999866485596,learn,-14.999866485595703,Fri Sep 13 2024 11:48:03 GMT-0500 (Central Daylight Time),395806.19999999553,A,None,I,None,11892,1,11896.09999999404,383910.1000000015,8002,WL,A,15.0
3,0.9500000476837158,learn,59049.999952316284,Fri Sep 13 2024 11:48:03 GMT-0500 (Central Daylight Time),480712.69999999553,A,g,I,g,931,1,949.5999999940395,479763.1000000015,8002,WL,A,1.0
3,1.116999864578247,learn,58883.00013542175,Fri Sep 13 2024 11:48:03 GMT-0500 (Central Daylight Time),480879.3999999985,A,go,I,o,148,1,1116.2999999970198,479763.1000000015,8002,WL,A,1.0
3,1.366999864578247,learn,58633.00013542175,Fri Sep 13 2024 11:48:03 GMT-0500 (Central Daylight Time),481129.19999999553,A,gol,I,l,238,1,1366.0999999940395,479763.1000000015,8002,WL,A,1.0
3,1.5829999446868896,learn,58417.00005531311,Fri Sep 13 2024 11:48:03 GMT-0500 (Central Daylight Time),481346.0,A,gold,I,d,196,1,1582.8999999985099,479763.1000000015,8002,WL,A,1.0
3,1.932999849319458,learn,58067.00015068054,Fri Sep 13 2024 11:48:03 GMT-0500 (Central Daylight Time),481695.799999997,A,goldenter,I,enter,340,1,1932.6999999955297,479763.1000000015,8002,WL,A,1.0
3,2.565999984741211,learn,57434.00001525879,Fri Sep 13 2024 11:48:03 GMT-0500 (Central Daylight Time),482328.69999999553,A,f,I,f,614,1,632.5999999940395,481696.1000000015,8002,WL,A,2.0
3,2.815999984741211,learn,57184.00001525879,Fri Sep 13 2024 11:48:03 GMT-0500 (Central Daylight Time),482578.799999997,A,fi,I,i,237,1,882.6999999955297,481696.1000000015,8002,WL,A,2.0
3,2.9830000400543213,learn,57016.99995994568,Fri Sep 13 2024 11:48:03 GMT-0500 (Central Daylight Time),482745.6000000015,A,fin,I,n,155,1,1049.5,481696.1000000015,8002,WL,A,2.0
3,3.182999849319458,learn,56817.00015068054,Fri Sep 13 2024 11:48:03 GMT-0500 (Central Daylight Time),482945.299999997,A,fing,I,g,188,1,1249.1999999955297,481696.1000000015,8002,WL,A,2.0
3,3.4489998817443848,learn,56551.000118255615,Fri Sep 13 2024 11:48:03 GMT-0500 (Central Daylight Time),483212.0,A,finge,I,e,252,1,1515.8999999985099,481696.1000000015,8002,WL,A,2.0
3,3.5490000247955322,learn,56450.99997520447,Fri Sep 13 2024 11:48:03 GMT-0500 (Central Daylight Time),483312.1000000015,A,finger,I,r,82,1,1616.0,481696.1000000015,8002,WL,A,2.0
3,3.9659998416900635,learn,56034.00015830994,Fri Sep 13 2024 11:48:03 GMT-0500 (Central Daylight Time),483728.6000000015,A,fingerenter,I,enter,405,1,2032.5,481696.1000000015,8002,WL,A,2.0
3,4.648999929428101,learn,55351.0000705719,Fri Sep 13 2024 11:48:03 GMT-0500 (Central Daylight Time),484411.5,A,h,I,h,669,1,682.6000000014901,483728.8999999985,8002,WL,A,3.0
3,4.81499981880188,learn,55185.00018119812,Fri Sep 13 2024 11:48:03 GMT-0500 (Central Daylight Time),484578.1000000015,A,ha,I,a,146,1,849.2000000029802,483728.8999999985,8002,WL,A,3.0
3,4.9659998416900635,learn,55034.00015830994,Fri Sep 13 2024 11:48:03 GMT-0500 (Central Daylight Time),484728.19999999553,A,har,I,r,131,1,999.2999999970198,483728.8999999985,8002,WL,A,3.0
3,5.9649999141693115,learn,54035.00008583069,Fri Sep 13 2024 11:48:03 GMT-0500 (Central Daylight Time),485727.799999997,A,harp,I,p,981,1,1998.8999999985099,483728.8999999985,8002,WL,A,3.0
3,6.497999906539917,learn,53502.00009346008,Fri Sep 13 2024 11:48:03 GMT-0500 (Central Daylight Time),486261.1000000015,A,harpenter,I,enter,518,1,2532.2000000029802,483728.8999999985,8002,WL,A,3.0
3,6.781999826431274,learn,53218.000173568726,Fri Sep 13 2024 11:48:03 GMT-0500 (Central Daylight Time),486544.19999999553,A,a,I,a,264,1,282.69999999552965,486261.5,8002,WL,A,4.0
3,6.930999994277954,learn,53069.000005722046,Fri Sep 13 2024 11:48:03 GMT-0500 (Central Daylight Time),486694.0,A,ap,I,p,133,1,432.5,486261.5,8002,WL,A,4.0
3,7.0980000495910645,learn,52901.999950408936,Fri Sep 13 2024 11:48:03 GMT-0500 (Central Daylight Time),486860.6000000015,A,app,I,p,151,1,599.1000000014901,486261.5,8002,WL,A,4.0
3,7.330999851226807,learn,52669.00014877319,Fri Sep 13 2024 11:48:03 GMT-0500 (Central Daylight Time),487094.0,A,appl,I,l,225,1,832.5,486261.5,8002,WL,A,4.0
3,7.7809998989105225,learn,52219.00010108948,Fri Sep 13 2024 11:48:03 GMT-0500 (Central Daylight Time),487543.8999999985,A,apple,I,e,432,1,1282.3999999985099,486261.5,8002,WL,A,4.0
3,8.180999994277954,learn,51819.000005722046,Fri Sep 13 2024 11:48:03 GMT-0500 (Central Daylight Time),487943.6000000015,A,appleenter,I,enter,390,1,1682.1000000014901,486261.5,8002,WL,A,4.0
3,8.763999938964844,learn,51236.000061035156,Fri Sep 13 2024 11:48:03 GMT-0500 (Central Daylight Time),488527.0,A,b,I,b,566,1,583.1000000014901,487943.8999999985,8002,WL,A,5.0
3,9.013999938964844,learn,50986.000061035156,Fri Sep 13 2024 11:48:03 GMT-0500 (Central Daylight Time),488776.799999997,A,bu,I,u,238,1,832.8999999985099,487943.8999999985,8002,WL,A,5.0
3,9.263999938964844,learn,50736.000061035156,Fri Sep 13 2024 11:48:03 GMT-0500 (Central Daylight Time),489026.69999999553,A,but,I,t,237,1,1082.7999999970198,487943.8999999985,8002,WL,A,5.0
3,9.513999938964844,learn,50486.000061035156,Fri Sep 13 2024 11:48:03 GMT-0500 (Central Daylight Time),489276.6000000015,A,butt,I,t,235,1,1332.7000000029802,487943.8999999985,8002,WL,A,5.0
3,9.914000034332275,learn,50085.999965667725,Fri Sep 13 2024 11:48:03 GMT-0500 (Central Daylight Time),489676.69999999553,A,butto,I,o,385,1,1732.7999999970198,487943.8999999985,8002,WL,A,5.0
3,10.063999891281128,learn,49936.00010871887,Fri Sep 13 2024 11:48:03 GMT-0500 (Central Daylight Time),489826.6000000015,A,button,I,n,145,1,1882.7000000029802,487943.8999999985,8002,WL,A,5.0
3,10.646999835968018,learn,49353.00016403198,Fri Sep 13 2024 11:48:03 GMT-0500 (Central Daylight Time),490409.6000000015,A,buttonenter,I,enter,571,1,2465.7000000029802,487943.8999999985,8002,WL,A,5.0
3,11.179999828338623,learn,48820.00017166138,Fri Sep 13 2024 11:48:03 GMT-0500 (Central Daylight Time),490942.69999999553,A,f,I,f,516,1,532.7999999970198,490409.8999999985,8002,WL,A,6.0
3,11.329999923706055,learn,48670.000076293945,Fri Sep 13 2024 11:48:03 GMT-0500 (Central Daylight Time),491092.3999999985,A,fl,I,l,142,1,682.5,490409.8999999985,8002,WL,A,6.0
3,11.629999876022339,learn,48370.00012397766,Fri Sep 13 2024 11:48:03 GMT-0500 (Central Daylight Time),491392.6000000015,A,flo,I,o,281,1,982.7000000029802,490409.8999999985,8002,WL,A,6.0
3,11.763000011444092,learn,48236.99998855591,Fri Sep 13 2024 11:48:03 GMT-0500 (Central Daylight Time),491526.0,A,flow,I,w,125,1,1116.1000000014901,490409.8999999985,8002,WL,A,6.0
3,11.929999828338623,learn,48070.00017166138,Fri Sep 13 2024 11:48:03 GMT-0500 (Central Daylight Time),491692.3999999985,A,flowe,I,e,160,1,1282.5,490409.8999999985,8002,WL,A,6.0
3,12.079999923706055,learn,47920.000076293945,Fri Sep 13 2024 11:48:03 GMT-0500 (Central Daylight Time),491842.5,A,flower,I,r,145,1,1432.6000000014901,490409.8999999985,8002,WL,A,6.0
3,12.741999864578247,learn,47258.00013542175,Fri Sep 13 2024 11:48:03 GMT-0500 (Central Daylight Time),492504.3999999985,A,flowerenter,I,enter,510,1,2094.5,490409.8999999985,8002,WL,A,6.0
3,12.980000019073486,learn,47019.999980926514,Fri Sep 13 2024 11:48:03 GMT-0500 (Central Daylight Time),492742.299999997,A,b,I,b,228,1,237.5,492504.799999997,8002,WL,A,7.0
3,13.27999997138977,learn,46720.00002861023,Fri Sep 13 2024 11:48:03 GMT-0500 (Central Daylight Time),493042.1000000015,A,bo,I,o,279,1,537.3000000044703,492504.799999997,8002,WL,A,7.0
3,13.44599986076355,learn,46554.00013923645,Fri Sep 13 2024 11:48:03 GMT-0500 (Central Daylight Time),493208.799999997,A,boo,I,o,147,1,704.0,492504.799999997,8002,WL,A,7.0
3,13.662999868392944,learn,46337.000131607056,Fri Sep 13 2024 11:48:03 GMT-0500 (Central Daylight Time),493425.299999997,A,book,I,k,205,1,920.5,492504.799999997,8002,WL,A,7.0
3,14.328999996185303,learn,45671.0000038147,Fri Sep 13 2024 11:48:03 GMT-0500 (Central Daylight Time),494091.799999997,A,bookenter,I,enter,660,1,1587.0,492504.799999997,8002,WL,A,7.0
3,14.711999893188477,learn,45288.00010681152,Fri Sep 13 2024 11:48:03 GMT-0500 (Central Daylight Time),494474.799999997,A,r,I,r,379,1,382.6000000014901,494092.19999999553,8002,WL,A,8.0
3,14.961999893188477,learn,45038.00010681152,Fri Sep 13 2024 11:48:03 GMT-0500 (Central Daylight Time),494725.0,A,ru,I,u,243,1,632.8000000044703,494092.19999999553,8002,WL,A,8.0
3,15.145999908447266,learn,44854.000091552734,Fri Sep 13 2024 11:48:03 GMT-0500 (Central Daylight Time),494908.299999997,A,rug,I,g,177,1,816.1000000014901,494092.19999999553,8002,WL,A,8.0
3,15.395999908447266,learn,44604.000091552734,Fri Sep 13 2024 11:48:03 GMT-0500 (Central Daylight Time),495158.299999997,A,rugenter,I,enter,242,1,1066.1000000014901,494092.19999999553,8002,WL,A,8.0
3,15.84500002861023,learn,44154.99997138977,Fri Sep 13 2024 11:48:03 GMT-0500 (Central Daylight Time),495607.799999997,A,s,I,s,440,1,449.19999999552965,495158.6000000015,8002,WL,A,9.0
3,15.994999885559082,learn,44005.00011444092,Fri Sep 13 2024 11:48:03 GMT-0500 (Central Daylight Time),495758.1000000015,A,sa,I,a,142,1,599.5,495158.6000000015,8002,WL,A,9.0
3,16.312000036239624,learn,43687.999963760376,Fri Sep 13 2024 11:48:03 GMT-0500 (Central Daylight Time),496074.6000000015,A,sal,I,l,312,1,916.0,495158.6000000015,8002,WL,A,9.0
3,16.546000003814697,learn,43453.9999961853,Fri Sep 13 2024 11:48:03 GMT-0500 (Central Daylight Time),496308.69999999553,A,salt,I,t,227,1,1150.0999999940395,495158.6000000015,8002,WL,A,9.0
3,17.09500002861023,learn,42904.99997138977,Fri Sep 13 2024 11:48:03 GMT-0500 (Central Daylight Time),496857.3999999985,A,saltenter,I,enter,537,1,1698.7999999970198,495158.6000000015,8002,WL,A,9.0
3,17.777999877929688,learn,42222.00012207031,Fri Sep 13 2024 11:48:03 GMT-0500 (Central Daylight Time),497540.8999999985,A,l,I,l,677,1,683.1000000014901,496857.799999997,8002,WL,A,10.0
3,18.07799983024597,learn,41922.00016975403,Fri Sep 13 2024 11:48:03 GMT-0500 (Central Daylight Time),497840.3999999985,A,lo,I,o,289,1,982.6000000014901,496857.799999997,8002,WL,A,10.0
3,18.227999925613403,learn,41772.0000743866,Fri Sep 13 2024 11:48:03 GMT-0500 (Central Daylight Time),497990.799999997,A,log,I,g,133,1,1133.0,496857.799999997,8002,WL,A,10.0
3,18.42799997329712,learn,41572.00002670288,Fri Sep 13 2024 11:48:03 GMT-0500 (Central Daylight Time),498190.3999999985,A,logenter,I,enter,191,1,1332.6000000014901,496857.799999997,8002,WL,A,10.0
3,18.944000005722046,learn,41055.999994277954,Fri Sep 13 2024 11:48:03 GMT-0500 (Central Daylight Time),498706.8999999985,A,m,I,m,512,1,516.2000000029802,498190.69999999553,8002,WL,A,11.0
3,19.210999965667725,learn,40789.000034332275,Fri Sep 13 2024 11:48:03 GMT-0500 (Central Daylight Time),498973.6000000015,A,me,I,e,259,1,782.9000000059605,498190.69999999553,8002,WL,A,11.0
3,19.378000020980835,learn,40621.999979019165,Fri Sep 13 2024 11:48:03 GMT-0500 (Central Daylight Time),499140.3999999985,A,mea,I,a,152,1,949.7000000029802,498190.69999999553,8002,WL,A,11.0
3,20.060999870300293,learn,39939.00012969971,Fri Sep 13 2024 11:48:03 GMT-0500 (Central Daylight Time),499823.5,A,mead,I,d,665,1,1632.8000000044703,498190.69999999553,8002,WL,A,11.0
3,20.276999950408936,learn,39723.000049591064,Fri Sep 13 2024 11:48:03 GMT-0500 (Central Daylight Time),500039.8999999985,A,meado,I,o,206,1,1849.2000000029802,498190.69999999553,8002,WL,A,11.0
3,20.42799997329712,learn,39572.00002670288,Fri Sep 13 2024 11:48:03 GMT-0500 (Central Daylight Time),500190.5,A,meadow,I,w,134,1,1999.8000000044703,498190.69999999553,8002,WL,A,11.0
3,21.05999994277954,learn,38940.00005722046,Fri Sep 13 2024 11:48:03 GMT-0500 (Central Daylight Time),500823.1000000015,A,meadowenter,I,enter,615,1,2632.4000000059605,498190.69999999553,8002,WL,A,11.0
3,21.40999984741211,learn,38590.00015258789,Fri Sep 13 2024 11:48:03 GMT-0500 (Central Daylight Time),501172.8999999985,A,c,I,c,334,1,349.3999999985099,500823.5,8002,WL,A,12.0
3,21.710000038146973,learn,38289.99996185303,Fri Sep 13 2024 11:48:03 GMT-0500 (Central Daylight Time),501472.799999997,A,ch,I,h,289,1,649.2999999970198,500823.5,8002,WL,A,12.0
3,21.876999855041504,learn,38123.000144958496,Fri Sep 13 2024 11:48:03 GMT-0500 (Central Daylight Time),501639.5,A,chi,I,i,149,1,816.0,500823.5,8002,WL,A,12.0
3,22.0939998626709,learn,37906.0001373291,Fri Sep 13 2024 11:48:03 GMT-0500 (Central Daylight Time),501856.19999999553,A,chim,I,m,206,1,1032.6999999955297,500823.5,8002,WL,A,12.0
3,22.592999935150146,learn,37407.00006484985,Fri Sep 13 2024 11:48:03 GMT-0500 (Central Daylight Time),502355.8999999985,A,chimn,I,n,494,1,1532.3999999985099,500823.5,8002,WL,A,12.0
3,22.759999990463257,learn,37240.00000953674,Fri Sep 13 2024 11:48:03 GMT-0500 (Central Daylight Time),502522.5,A,chimne,I,e,154,1,1699.0,500823.5,8002,WL,A,12.0
3,22.993000030517578,learn,37006.99996948242,Fri Sep 13 2024 11:48:03 GMT-0500 (Central Daylight Time),502755.69999999553,A,chimney,I,y,219,1,1932.1999999955297,500823.5,8002,WL,A,12.0
3,23.509999990463257,learn,36490.00000953674,Fri Sep 13 2024 11:48:03 GMT-0500 (Central Daylight Time),503272.1000000015,A,chimneyenter,I,enter,506,1,2448.60000000149,500823.5,8002,WL,A,12.0
3,23.792999982833862,learn,36207.00001716614,Fri Sep 13 2024 11:48:03 GMT-0500 (Central Daylight Time),503555.19999999553,A,t,I,t,278,1,282.79999999701977,503272.3999999985,8002,WL,A,13.0
3,24.042999982833862,learn,35957.00001716614,Fri Sep 13 2024 11:48:03 GMT-0500 (Central Daylight Time),503805.299999997,A,tr,I,r,234,1,532.8999999985099,503272.3999999985,8002,WL,A,13.0
3,24.258999824523926,learn,35741.000175476074,Fri Sep 13 2024 11:48:03 GMT-0500 (Central Daylight Time),504022.1000000015,A,tra,I,a,208,1,749.7000000029802,503272.3999999985,8002,WL,A,13.0
3,24.375999927520752,learn,35624.00007247925,Fri Sep 13 2024 11:48:03 GMT-0500 (Central Daylight Time),504138.8999999985,A,trai,I,i,112,1,866.5,503272.3999999985,8002,WL,A,13.0
3,24.575999975204468,learn,35424.00002479553,Fri Sep 13 2024 11:48:03 GMT-0500 (Central Daylight Time),504338.8999999985,A,train,I,n,180,1,1066.5,503272.3999999985,8002,WL,A,13.0
3,25.05900001525879,learn,34940.99998474121,Fri Sep 13 2024 11:48:03 GMT-0500 (Central Daylight Time),504821.799999997,A,trainenter,I,enter,475,1,1549.3999999985099,503272.3999999985,8002,WL,A,13.0
3,25.924999952316284,learn,34075.000047683716,Fri Sep 13 2024 11:48:03 GMT-0500 (Central Daylight Time),505688.1000000015,A,k,I,k,856,1,866.1000000014901,504822.0,8002,WL,A,14.0
3,26.05900001525879,learn,33940.99998474121,Fri Sep 13 2024 11:48:03 GMT-0500 (Central Daylight Time),505821.3999999985,A,ke,I,e,117,1,999.3999999985099,504822.0,8002,WL,A,14.0
3,26.39299988746643,learn,33607.00011253357,Fri Sep 13 2024 11:48:03 GMT-0500 (Central Daylight Time),506155.799999997,A,key,I,y,313,1,1333.7999999970198,504822.0,8002,WL,A,14.0
3,27.157999992370605,learn,32842.000007629395,Fri Sep 13 2024 11:48:03 GMT-0500 (Central Daylight Time),506921.19999999553,A,keyr,I,r,746,1,2099.1999999955297,504822.0,8002,WL,A,14.0
3,27.85800004005432,learn,32141.99995994568,Fri Sep 13 2024 11:48:03 GMT-0500 (Central Daylight Time),507621.1000000015,A,key,I,backspace,684,1,2799.10000000149,504822.0,8002,WL,A,14.0
3,28.14199995994568,learn,31858.00004005432,Fri Sep 13 2024 11:48:03 GMT-0500 (Central Daylight Time),507904.19999999553,A,keyenter,I,enter,265,1,3082.1999999955297,504822.0,8002,WL,A,14.0
3,28.60800004005432,learn,31391.99995994568,Fri Sep 13 2024 11:48:03 GMT-0500 (Central Daylight Time),508370.6000000015,A,r,I,r,453,1,466.1000000014901,507904.5,8002,WL,A,15.0
3,28.875,learn,31125.0,Fri Sep 13 2024 11:48:03 GMT-0500 (Central Daylight Time),508637.3999999985,A,ra,I,a,259,1,732.8999999985099,507904.5,8002,WL,A,15.0
3,29.057999849319458,learn,30942.000150680542,Fri Sep 13 2024 11:48:03 GMT-0500 (Central Daylight Time),508820.3999999985,A,rat,I,t,176,1,915.8999999985099,507904.5,8002,WL,A,15.0
3,29.223999977111816,learn,30776.000022888184,Fri Sep 13 2024 11:48:03 GMT-0500 (Central Daylight Time),508987.0,A,ratt,I,t,161,1,1082.5,507904.5,8002,WL,A,15.0
3,29.45799994468689,learn,30542.00005531311,Fri Sep 13 2024 11:48:03 GMT-0500 (Central Daylight Time),509220.5,A,rattl,I,l,227,1,1316.0,507904.5,8002,WL,A,15.0
3,30.007999897003174,learn,29992.000102996826,Fri Sep 13 2024 11:48:03 GMT-0500 (Central Daylight Time),509770.3999999985,A,rattle,I,e,545,1,1865.8999999985099,507904.5,8002,WL,A,15.0
3,30.2739999294281,learn,29726.0000705719,Fri Sep 13 2024 11:48:03 GMT-0500 (Central Daylight Time),510036.8999999985,A,rattleenter,I,enter,251,1,2132.39999999851,507904.5,8002,WL,A,15.0
4,1.2170000076293945,learn,58782.999992370605,Fri Sep 13 2024 11:48:03 GMT-0500 (Central Daylight Time),587912.6000000015,A,g,I,g,1206,1,1216.5,586696.1000000015,8002,WL,A,1.0
4,1.3500001430511475,learn,58649.99985694885,Fri Sep 13 2024 11:48:03 GMT-0500 (Central Daylight Time),588045.6000000015,A,go,I,o,117,1,1349.5,586696.1000000015,8002,WL,A,1.0
4,1.6000001430511475,learn,58399.99985694885,Fri Sep 13 2024 11:48:03 GMT-0500 (Central Daylight Time),588295.5,A,gol,I,l,232,1,1599.3999999985099,586696.1000000015,8002,WL,A,1.0
4,1.7660000324249268,learn,58233.99996757507,Fri Sep 13 2024 11:48:03 GMT-0500 (Central Daylight Time),588462.299999997,A,gold,I,d,158,1,1766.1999999955297,586696.1000000015,8002,WL,A,1.0
4,2.116000175476074,learn,57883.999824523926,Fri Sep 13 2024 11:48:03 GMT-0500 (Central Daylight Time),588812.1999999955,A,goldenter,I,enter,344,1,2116.0999999940395,586696.1000000015,8002,WL,A,1.0
4,2.5490000247955322,learn,57450.99997520447,Fri Sep 13 2024 11:48:03 GMT-0500 (Central Daylight Time),589245.3999999985,A,k,I,k,417,1,432.70000000298023,588812.6999999955,8002,WL,A,2.0
4,2.7330000400543213,learn,57266.99995994568,Fri Sep 13 2024 11:48:03 GMT-0500 (Central Daylight Time),589428.6000000015,A,ke,I,e,168,1,615.9000000059605,588812.6999999955,8002,WL,A,2.0
4,3.0160000324249268,learn,56983.99996757507,Fri Sep 13 2024 11:48:03 GMT-0500 (Central Daylight Time),589712.0,A,key,I,y,273,1,899.3000000044703,588812.6999999955,8002,WL,A,2.0
4,3.699000120162964,learn,56300.999879837036,Fri Sep 13 2024 11:48:03 GMT-0500 (Central Daylight Time),590394.8999999985,A,keyenter,I,enter,670,1,1582.2000000029802,588812.6999999955,8002,WL,A,2.0
4,3.949000120162964,learn,56050.999879837036,Fri Sep 13 2024 11:48:03 GMT-0500 (Central Daylight Time),590645.0,A,r,I,r,244,1,249.70000000298023,590395.299999997,8002,WL,A,3.0
4,4.2820000648498535,learn,55717.99993515015,Fri Sep 13 2024 11:48:03 GMT-0500 (Central Daylight Time),590978.0,A,ra,I,a,320,1,582.7000000029802,590395.299999997,8002,WL,A,3.0
4,4.598999977111816,learn,55401.00002288818,Fri Sep 13 2024 11:48:03 GMT-0500 (Central Daylight Time),591294.799999997,A,rat,I,t,300,1,899.5,590395.299999997,8002,WL,A,3.0
4,4.765000104904175,learn,55234.999895095825,Fri Sep 13 2024 11:48:03 GMT-0500 (Central Daylight Time),591461.3999999985,A,ratt,I,t,151,1,1066.1000000014901,590395.299999997,8002,WL,A,3.0
4,4.932000160217285,learn,55067.999839782715,Fri Sep 13 2024 11:48:03 GMT-0500 (Central Daylight Time),591628.0,A,rattl,I,l,160,1,1232.7000000029802,590395.299999997,8002,WL,A,3.0
4,5.115000009536743,learn,54884.99999046326,Fri Sep 13 2024 11:48:03 GMT-0500 (Central Daylight Time),591811.1999999955,A,rattle,I,e,170,1,1415.8999999985099,590395.299999997,8002,WL,A,3.0
4,5.898000001907349,learn,54101.99999809265,Fri Sep 13 2024 11:48:03 GMT-0500 (Central Daylight Time),592594.1000000015,A,rattleenter,I,enter,762,1,2198.8000000044703,590395.299999997,8002,WL,A,3.0
4,6.6650002002716064,learn,53334.99979972839,Fri Sep 13 2024 11:48:03 GMT-0500 (Central Daylight Time),593360.799999997,A,m,I,m,747,1,766.3999999985099,592594.3999999985,8002,WL,A,4.0
4,6.79800009727478,learn,53201.99990272522,Fri Sep 13 2024 11:48:03 GMT-0500 (Central Daylight Time),593494.0,A,me,I,e,125,1,899.6000000014901,592594.3999999985,8002,WL,A,4.0
4,6.948000192642212,learn,53051.99980735779,Fri Sep 13 2024 11:48:03 GMT-0500 (Central Daylight Time),593643.8999999985,A,mea,I,a,137,1,1049.5,592594.3999999985,8002,WL,A,4.0
4,7.281000137329102,learn,52718.9998626709,Fri Sep 13 2024 11:48:03 GMT-0500 (Central Daylight Time),593977.299999997,A,mead,I,d,314,1,1382.8999999985099,592594.3999999985,8002,WL,A,4.0
4,7.46399998664856,learn,52536.00001335144,Fri Sep 13 2024 11:48:03 GMT-0500 (Central Daylight Time),594160.5,A,meado,I,o,164,1,1566.1000000014901,592594.3999999985,8002,WL,A,4.0
4,7.581000089645386,learn,52418.999910354614,Fri Sep 13 2024 11:48:03 GMT-0500 (Central Daylight Time),594276.8999999985,A,meadow,I,w,109,1,1682.5,592594.3999999985,8002,WL,A,4.0
4,7.930999994277954,learn,52069.000005722046,Fri Sep 13 2024 11:48:03 GMT-0500 (Central Daylight Time),594626.799999997,A,meadowenter,I,enter,338,1,2032.3999999985099,592594.3999999985,8002,WL,A,4.0
4,8.364000082015991,learn,51635.99991798401,Fri Sep 13 2024 11:48:03 GMT-0500 (Central Daylight Time),595060.299999997,A,c,I,c,419,1,433.19999999552965,594627.1000000015,8002,WL,A,5.0
4,8.581000089645386,learn,51418.999910354614,Fri Sep 13 2024 11:48:03 GMT-0500 (Central Daylight Time),595276.799999997,A,ch,I,h,201,1,649.6999999955297,594627.1000000015,8002,WL,A,5.0
4,8.647000074386597,learn,51352.9999256134,Fri Sep 13 2024 11:48:03 GMT-0500 (Central Daylight Time),595343.5,A,chi,I,i,57,1,716.3999999985099,594627.1000000015,8002,WL,A,5.0
4,8.930999994277954,learn,51069.000005722046,Fri Sep 13 2024 11:48:03 GMT-0500 (Central Daylight Time),595626.6000000015,A,chim,I,m,263,1,999.5,594627.1000000015,8002,WL,A,5.0
4,9.231000185012817,learn,50768.99981498718,Fri Sep 13 2024 11:48:03 GMT-0500 (Central Daylight Time),595927.5,A,chimn,I,n,292,1,1300.3999999985099,594627.1000000015,8002,WL,A,5.0
4,9.430000066757202,learn,50569.9999332428,Fri Sep 13 2024 11:48:03 GMT-0500 (Central Daylight Time),596126.5,A,chimne,I,e,182,1,1499.3999999985099,594627.1000000015,8002,WL,A,5.0
4,9.647000074386597,learn,50352.9999256134,Fri Sep 13 2024 11:48:03 GMT-0500 (Central Daylight Time),596343.1000000015,A,chimney,I,y,208,1,1716.0,594627.1000000015,8002,WL,A,5.0
4,10.86300015449524,learn,49136.99984550476,Fri Sep 13 2024 11:48:03 GMT-0500 (Central Daylight Time),597559.5,A,chimneyenter,I,enter,1198,1,2932.39999999851,594627.1000000015,8002,WL,A,5.0
4,14.34500002861023,learn,45654.99997138977,Fri Sep 13 2024 11:48:03 GMT-0500 (Central Daylight Time),601041.6000000015,A,f,I,f,3462,1,3481.9000000059605,597559.6999999955,8002,WL,A,6.0
4,14.462000131607056,learn,45537.999868392944,Fri Sep 13 2024 11:48:03 GMT-0500 (Central Daylight Time),601158.299999997,A,fl,I,l,100,1,3598.60000000149,597559.6999999955,8002,WL,A,6.0
4,14.712000131607056,learn,45287.999868392944,Fri Sep 13 2024 11:48:03 GMT-0500 (Central Daylight Time),601408.1999999955,A,flo,I,o,231,1,3848.5,597559.6999999955,8002,WL,A,6.0
4,14.828999996185303,learn,45171.0000038147,Fri Sep 13 2024 11:48:03 GMT-0500 (Central Daylight Time),601524.8999999985,A,flow,I,w,109,1,3965.2000000029802,597559.6999999955,8002,WL,A,6.0
4,14.945000171661377,learn,45054.99982833862,Fri Sep 13 2024 11:48:03 GMT-0500 (Central Daylight Time),601641.3999999985,A,flowe,I,e,105,1,4081.7000000029802,597559.6999999955,8002,WL,A,6.0
4,15.111999988555908,learn,44888.00001144409,Fri Sep 13 2024 11:48:03 GMT-0500 (Central Daylight Time),601808.1000000015,A,flower,I,r,148,1,4248.4000000059605,597559.6999999955,8002,WL,A,6.0
4,15.67799997329712,learn,44322.00002670288,Fri Sep 13 2024 11:48:03 GMT-0500 (Central Daylight Time),602374.3999999985,A,flowerenter,I,enter,558,1,4814.70000000298,597559.6999999955,8002,WL,A,6.0
4,16.09500002861023,learn,43904.99997138977,Fri Sep 13 2024 11:48:03 GMT-0500 (Central Daylight Time),602791.1000000015,A,b,I,b,407,1,416.30000000447035,602374.799999997,8002,WL,A,7.0
4,16.311000108718872,learn,43688.99989128113,Fri Sep 13 2024 11:48:03 GMT-0500 (Central Daylight Time),603007.6000000015,A,bo,I,o,199,1,632.8000000044703,602374.799999997,8002,WL,A,7.0
4,16.49500012397766,learn,43504.99987602234,Fri Sep 13 2024 11:48:03 GMT-0500 (Central Daylight Time),603190.8999999985,A,boo,I,o,166,1,816.1000000014901,602374.799999997,8002,WL,A,7.0
4,16.728000164031982,learn,43271.99983596802,Fri Sep 13 2024 11:48:03 GMT-0500 (Central Daylight Time),603424.1999999955,A,book,I,k,215,1,1049.3999999985099,602374.799999997,8002,WL,A,7.0
4,17.111000061035156,learn,42888.999938964844,Fri Sep 13 2024 11:48:03 GMT-0500 (Central Daylight Time),603807.5,A,bookenter,I,enter,374,1,1432.7000000029802,602374.799999997,8002,WL,A,7.0
4,17.49400019645691,learn,42505.99980354309,Fri Sep 13 2024 11:48:03 GMT-0500 (Central Daylight Time),604190.5,A,s,I,s,366,1,382.80000000447035,603807.6999999955,8002,WL,A,8.0
4,17.66100001335144,learn,42338.99998664856,Fri Sep 13 2024 11:48:03 GMT-0500 (Central Daylight Time),604357.299999997,A,sa,I,a,159,1,549.6000000014901,603807.6999999955,8002,WL,A,8.0
4,17.844000101089478,learn,42155.99989891052,Fri Sep 13 2024 11:48:03 GMT-0500 (Central Daylight Time),604540.1999999955,A,sal,I,l,176,1,732.5,603807.6999999955,8002,WL,A,8.0
4,18.078999996185303,learn,41921.0000038147,Fri Sep 13 2024 11:48:03 GMT-0500 (Central Daylight Time),604775.0,A,salt,I,t,226,1,967.3000000044703,603807.6999999955,8002,WL,A,8.0
4,18.41100001335144,learn,41588.99998664856,Fri Sep 13 2024 11:48:03 GMT-0500 (Central Daylight Time),605106.799999997,A,saltenter,I,enter,327,1,1299.1000000014901,603807.6999999955,8002,WL,A,8.0
4,18.861000061035156,learn,41138.999938964844,Fri Sep 13 2024 11:48:03 GMT-0500 (Central Daylight Time),605556.799999997,A,r,I,r,435,1,449.79999999701977,605107.0,8002,WL,A,9.0
4,19.127000093460083,learn,40872.99990653992,Fri Sep 13 2024 11:48:03 GMT-0500 (Central Daylight Time),605823.3999999985,A,ru,I,u,257,1,716.3999999985099,605107.0,8002,WL,A,9.0
4,19.3270001411438,learn,40672.9998588562,Fri Sep 13 2024 11:48:03 GMT-0500 (Central Daylight Time),606023.3999999985,A,rug,I,g,182,1,916.3999999985099,605107.0,8002,WL,A,9.0
4,19.66000008583069,learn,40339.99991416931,Fri Sep 13 2024 11:48:03 GMT-0500 (Central Daylight Time),606356.6000000015,A,rugenter,I,enter,318,1,1249.6000000014901,605107.0,8002,WL,A,9.0
4,19.97699999809265,learn,40023.00000190735,Fri Sep 13 2024 11:48:03 GMT-0500 (Central Daylight Time),606673.299999997,A,t,I,t,305,1,316.5,606356.799999997,8002,WL,A,10.0
4,20.210000038146973,learn,39789.99996185303,Fri Sep 13 2024 11:48:03 GMT-0500 (Central Daylight Time),606906.5,A,tr,I,r,228,1,549.7000000029802,606356.799999997,8002,WL,A,10.0
4,20.460000038146973,learn,39539.99996185303,Fri Sep 13 2024 11:48:03 GMT-0500 (Central Daylight Time),607156.5,A,tra,I,a,243,1,799.7000000029802,606356.799999997,8002,WL,A,10.0
4,20.66000008583069,learn,39339.99991416931,Fri Sep 13 2024 11:48:03 GMT-0500 (Central Daylight Time),607356.299999997,A,trai,I,i,185,1,999.5,606356.799999997,8002,WL,A,10.0
4,20.81000018119812,learn,39189.99981880188,Fri Sep 13 2024 11:48:03 GMT-0500 (Central Daylight Time),607506.3999999985,A,train,I,n,129,1,1149.6000000014901,606356.799999997,8002,WL,A,10.0
4,22.093000173568726,learn,37906.999826431274,Fri Sep 13 2024 11:48:03 GMT-0500 (Central Daylight Time),608789.299999997,A,trainenter,I,enter,1276,1,2432.5,606356.799999997,8002,WL,A,10.0
4,33.824000120162964,learn,26175.999879837036,Fri Sep 13 2024 11:48:03 GMT-0500 (Central Daylight Time),620519.8999999985,A,k,I,k,11721,1,11730.29999999702,608789.6000000015,8002,WL,A,11.0
4,35.039000034332275,learn,24960.999965667725,Fri Sep 13 2024 11:48:03 GMT-0500 (Central Daylight Time),621735.0,A,,I,backspace,1197,1,12945.39999999851,608789.6000000015,8002,WL,A,11.0
4,48.78500008583069,learn,11214.999914169312,Fri Sep 13 2024 11:48:03 GMT-0500 (Central Daylight Time),635480.799999997,A,m,I,m,13727,1,26691.19999999553,608789.6000000015,8002,WL,A,11.0
4,49.03400015830994,learn,10965.999841690063,Fri Sep 13 2024 11:48:03 GMT-0500 (Central Daylight Time),635730.6000000015,A,me,I,e,229,1,26941.0,608789.6000000015,8002,WL,A,11.0
4,50.551000118255615,learn,9448.999881744385,Fri Sep 13 2024 11:48:03 GMT-0500 (Central Daylight Time),637246.8999999985,A,mea,I,a,1507,1,28457.29999999702,608789.6000000015,8002,WL,A,11.0
4,51.134000062942505,learn,8865.999937057495,Fri Sep 13 2024 11:48:03 GMT-0500 (Central Daylight Time),637830.1999999955,A,mead,I,d,575,1,29040.59999999404,608789.6000000015,8002,WL,A,11.0
4,51.58400011062622,learn,8415.99988937378,Fri Sep 13 2024 11:48:03 GMT-0500 (Central Daylight Time),638279.799999997,A,meado,I,o,431,1,29490.19999999553,608789.6000000015,8002,WL,A,11.0
4,51.76700019836426,learn,8232.999801635742,Fri Sep 13 2024 11:48:03 GMT-0500 (Central Daylight Time),638462.8999999985,A,meadow,I,w,166,1,29673.29999999702,608789.6000000015,8002,WL,A,11.0
4,52.91600012779236,learn,7083.999872207642,Fri Sep 13 2024 11:48:03 GMT-0500 (Central Daylight Time),639612.6000000015,A,meadowenter,I,enter,1143,1,30823.0,608789.6000000015,8002,WL,A,11.0
4,60.01600003242493,learn,-16.000032424926758,Fri Sep 13 2024 11:48:03 GMT-0500 (Central Daylight Time),646712.0,A,None,I,None,7094,1,7099.10000000149,639612.8999999985,8002,WL,A,12.0
5,0.9499998092651367,learn,60000.0,Fri Sep 13 2024 11:48:03 GMT-0500 (Central Daylight Time),715739.299999997,A,f,I,f,930,1,949.8999999985099,714789.3999999985,8002,WL,A,1.0
5,1.2159998416900635,learn,60000.0,Fri Sep 13 2024 11:48:03 GMT-0500 (Central Daylight Time),716005.5,A,fi,I,i,258,1,1216.1000000014901,714789.3999999985,8002,WL,A,1.0
5,1.4829998016357422,learn,60000.0,Fri Sep 13 2024 11:48:03 GMT-0500 (Central Daylight Time),716272.299999997,A,fin,I,n,257,1,1482.8999999985099,714789.3999999985,8002,WL,A,1.0
5,1.7329998016357422,learn,60000.0,Fri Sep 13 2024 11:48:03 GMT-0500 (Central Daylight Time),716521.8999999985,A,fing,I,g,229,1,1732.5,714789.3999999985,8002,WL,A,1.0
5,1.998999834060669,learn,60000.0,Fri Sep 13 2024 11:48:03 GMT-0500 (Central Daylight Time),716788.799999997,A,finge,I,e,259,1,1999.3999999985099,714789.3999999985,8002,WL,A,1.0
5,2.1659998893737793,learn,60000.0,Fri Sep 13 2024 11:48:03 GMT-0500 (Central Daylight Time),716955.3999999985,A,finger,I,r,153,1,2166.0,714789.3999999985,8002,WL,A,1.0
5,2.5820000171661377,learn,60000.0,Fri Sep 13 2024 11:48:03 GMT-0500 (Central Daylight Time),717371.8999999985,A,fingerenter,I,enter,410,1,2582.5,714789.3999999985,8002,WL,A,1.0
5,3.3489999771118164,learn,60000.0,Fri Sep 13 2024 11:48:03 GMT-0500 (Central Daylight Time),718138.299999997,A,h,I,h,755,1,766.1000000014901,717372.1999999955,8002,WL,A,2.0
5,3.5319998264312744,learn,60000.0,Fri Sep 13 2024 11:48:03 GMT-0500 (Central Daylight Time),718321.299999997,A,ha,I,a,163,1,949.1000000014901,717372.1999999955,8002,WL,A,2.0
5,3.6989998817443848,learn,60000.0,Fri Sep 13 2024 11:48:03 GMT-0500 (Central Daylight Time),718488.0,A,har,I,r,148,1,1115.8000000044703,717372.1999999955,8002,WL,A,2.0
5,4.148999929428101,learn,60000.0,Fri Sep 13 2024 11:48:03 GMT-0500 (Central Daylight Time),718938.0,A,harp,I,p,429,1,1565.8000000044703,717372.1999999955,8002,WL,A,2.0
5,4.797999858856201,learn,60000.0,Fri Sep 13 2024 11:48:03 GMT-0500 (Central Daylight Time),719587.6999999955,A,harpenter,I,enter,636,1,2215.5,717372.1999999955,8002,WL,A,2.0
5,5.197999954223633,learn,60000.0,Fri Sep 13 2024 11:48:03 GMT-0500 (Central Daylight Time),719987.6999999955,A,a,I,a,394,1,399.59999999403954,719588.1000000015,8002,WL,A,3.0
5,5.497999906539917,learn,60000.0,Fri Sep 13 2024 11:48:03 GMT-0500 (Central Daylight Time),720287.5,A,ap,I,p,282,1,699.3999999985099,719588.1000000015,8002,WL,A,3.0
5,5.664999961853027,learn,60000.0,Fri Sep 13 2024 11:48:03 GMT-0500 (Central Daylight Time),720454.1000000015,A,app,I,p,150,1,866.0,719588.1000000015,8002,WL,A,3.0
5,5.947999954223633,learn,60000.0,Fri Sep 13 2024 11:48:03 GMT-0500 (Central Daylight Time),720737.5,A,appl,I,l,263,1,1149.3999999985099,719588.1000000015,8002,WL,A,3.0
5,6.680999994277954,learn,60000.0,Fri Sep 13 2024 11:48:03 GMT-0500 (Central Daylight Time),721470.6000000015,A,apple,I,e,717,1,1882.5,719588.1000000015,8002,WL,A,3.0
5,7.580999851226807,learn,60000.0,Fri Sep 13 2024 11:48:03 GMT-0500 (Central Daylight Time),722370.299999997,A,appleenter,I,enter,888,1,2782.1999999955297,719588.1000000015,8002,WL,A,3.0
5,7.947000026702881,learn,60000.0,Fri Sep 13 2024 11:48:03 GMT-0500 (Central Daylight Time),722736.6999999955,A,b,I,b,356,1,366.09999999403954,722370.6000000015,8002,WL,A,4.0
5,8.163999795913696,learn,60000.0,Fri Sep 13 2024 11:48:03 GMT-0500 (Central Daylight Time),722953.5,A,bu,I,u,206,1,582.8999999985099,722370.6000000015,8002,WL,A,4.0
5,8.480000019073486,learn,60000.0,Fri Sep 13 2024 11:48:03 GMT-0500 (Central Daylight Time),723269.6999999955,A,but,I,t,300,1,899.0999999940395,722370.6000000015,8002,WL,A,4.0
5,8.69700002670288,learn,60000.0,Fri Sep 13 2024 11:48:03 GMT-0500 (Central Daylight Time),723486.3999999985,A,butt,I,t,208,1,1115.7999999970198,722370.6000000015,8002,WL,A,4.0
5,8.996999979019165,learn,60000.0,Fri Sep 13 2024 11:48:03 GMT-0500 (Central Daylight Time),723786.1999999955,A,butto,I,o,279,1,1415.5999999940395,722370.6000000015,8002,WL,A,4.0
5,9.19700002670288,learn,60000.0,Fri Sep 13 2024 11:48:03 GMT-0500 (Central Daylight Time),723986.3999999985,A,button,I,n,194,1,1615.7999999970198,722370.6000000015,8002,WL,A,4.0
5,9.96399998664856,learn,60000.0,Fri Sep 13 2024 11:48:03 GMT-0500 (Central Daylight Time),724753.1000000015,A,buttonenter,I,enter,755,1,2382.5,722370.6000000015,8002,WL,A,4.0
5,10.52999997138977,learn,60000.0,Fri Sep 13 2024 11:48:03 GMT-0500 (Central Daylight Time),725319.1000000015,A,f,I,f,557,1,565.7000000029802,724753.3999999985,8002,WL,A,5.0
5,10.712999820709229,learn,60000.0,Fri Sep 13 2024 11:48:03 GMT-0500 (Central Daylight Time),725502.3999999985,A,fl,I,l,174,1,749.0,724753.3999999985,8002,WL,A,5.0
5,11.013000011444092,learn,60000.0,Fri Sep 13 2024 11:48:03 GMT-0500 (Central Daylight Time),725802.6000000015,A,flo,I,o,295,1,1049.2000000029802,724753.3999999985,8002,WL,A,5.0
5,11.212999820709229,learn,60000.0,Fri Sep 13 2024 11:48:03 GMT-0500 (Central Daylight Time),726002.3999999985,A,flow,I,w,179,1,1249.0,724753.3999999985,8002,WL,A,5.0
5,11.36299991607666,learn,60000.0,Fri Sep 13 2024 11:48:03 GMT-0500 (Central Daylight Time),726152.299999997,A,flowe,I,e,140,1,1398.8999999985099,724753.3999999985,8002,WL,A,5.0
5,11.52999997138977,learn,60000.0,Fri Sep 13 2024 11:48:03 GMT-0500 (Central Daylight Time),726319.0,A,flower,I,r,158,1,1565.6000000014901,724753.3999999985,8002,WL,A,5.0
5,12.395999908447266,learn,60000.0,Fri Sep 13 2024 11:48:03 GMT-0500 (Central Daylight Time),727185.5,A,flowerenter,I,enter,847,1,2432.10000000149,724753.3999999985,8002,WL,A,5.0
5,13.115000009536743,learn,60000.0,Fri Sep 13 2024 11:48:03 GMT-0500 (Central Daylight Time),727903.8999999985,A,b,I,b,708,1,718.1000000014901,727185.799999997,8002,WL,A,6.0
5,13.361999988555908,learn,60000.0,Fri Sep 13 2024 11:48:03 GMT-0500 (Central Daylight Time),728151.5,A,bo,I,o,237,1,965.7000000029802,727185.799999997,8002,WL,A,6.0
5,13.546000003814697,learn,60000.0,Fri Sep 13 2024 11:48:03 GMT-0500 (Central Daylight Time),728335.0,A,boo,I,o,166,1,1149.2000000029802,727185.799999997,8002,WL,A,6.0
5,13.79699993133545,learn,60000.0,Fri Sep 13 2024 11:48:03 GMT-0500 (Central Daylight Time),728586.1000000015,A,book,I,k,231,1,1400.3000000044703,727185.799999997,8002,WL,A,6.0
5,14.194999933242798,learn,60000.0,Fri Sep 13 2024 11:48:03 GMT-0500 (Central Daylight Time),728984.799999997,A,bookenter,I,enter,379,1,1799.0,727185.799999997,8002,WL,A,6.0
5,14.661999940872192,learn,60000.0,Fri Sep 13 2024 11:48:03 GMT-0500 (Central Daylight Time),729451.299999997,A,r,I,r,453,1,466.19999999552965,728985.1000000015,8002,WL,A,7.0
5,14.92799997329712,learn,60000.0,Fri Sep 13 2024 11:48:03 GMT-0500 (Central Daylight Time),729717.8999999985,A,ru,I,u,258,1,732.7999999970198,728985.1000000015,8002,WL,A,7.0
5,15.194999933242798,learn,60000.0,Fri Sep 13 2024 11:48:03 GMT-0500 (Central Daylight Time),729984.5,A,rug,I,g,255,1,999.3999999985099,728985.1000000015,8002,WL,A,7.0
5,15.67799997329712,learn,60000.0,Fri Sep 13 2024 11:48:03 GMT-0500 (Central Daylight Time),730467.299999997,A,rugenter,I,enter,477,1,1482.1999999955297,728985.1000000015,8002,WL,A,7.0
5,16.128000020980835,learn,60000.0,Fri Sep 13 2024 11:48:03 GMT-0500 (Central Daylight Time),730917.3999999985,A,t,I,t,443,1,449.8999999985099,730467.5,8002,WL,A,8.0
5,16.394999980926514,learn,60000.0,Fri Sep 13 2024 11:48:03 GMT-0500 (Central Daylight Time),731184.1000000015,A,tr,I,r,256,1,716.6000000014901,730467.5,8002,WL,A,8.0
5,16.694999933242798,learn,60000.0,Fri Sep 13 2024 11:48:03 GMT-0500 (Central Daylight Time),731484.0,A,tra,I,a,285,1,1016.5,730467.5,8002,WL,A,8.0
5,16.878000020980835,learn,60000.0,Fri Sep 13 2024 11:48:03 GMT-0500 (Central Daylight Time),731667.6000000015,A,trai,I,i,170,1,1200.1000000014901,730467.5,8002,WL,A,8.0
5,17.027999877929688,learn,60000.0,Fri Sep 13 2024 11:48:03 GMT-0500 (Central Daylight Time),731817.1999999955,A,train,I,n,130,1,1349.6999999955297,730467.5,8002,WL,A,8.0
5,17.460999965667725,learn,60000.0,Fri Sep 13 2024 11:48:03 GMT-0500 (Central Daylight Time),732250.3999999985,A,trainenter,I,enter,420,1,1782.8999999985099,730467.5,8002,WL,A,8.0
5,17.91100001335144,learn,60000.0,Fri Sep 13 2024 11:48:03 GMT-0500 (Central Daylight Time),732700.3999999985,A,m,I,m,443,1,449.6000000014901,732250.799999997,8002,WL,A,9.0
5,18.0939998626709,learn,60000.0,Fri Sep 13 2024 11:48:03 GMT-0500 (Central Daylight Time),732883.299999997,A,me,I,e,178,1,632.5,732250.799999997,8002,WL,A,9.0
5,18.293999910354614,learn,60000.0,Fri Sep 13 2024 11:48:03 GMT-0500 (Central Daylight Time),733083.3999999985,A,mea,I,a,194,1,832.6000000014901,732250.799999997,8002,WL,A,9.0
5,18.543999910354614,learn,60000.0,Fri Sep 13 2024 11:48:03 GMT-0500 (Central Daylight Time),733333.3999999985,A,mead,I,d,243,1,1082.6000000014901,732250.799999997,8002,WL,A,9.0
5,19.526999950408936,learn,60000.0,Fri Sep 13 2024 11:48:03 GMT-0500 (Central Daylight Time),734316.3999999985,A,meado,I,o,968,1,2065.60000000149,732250.799999997,8002,WL,A,9.0
5,19.676999807357788,learn,60000.0,Fri Sep 13 2024 11:48:03 GMT-0500 (Central Daylight Time),734466.3999999985,A,meadow,I,w,145,1,2215.60000000149,732250.799999997,8002,WL,A,9.0
5,20.15999984741211,learn,60000.0,Fri Sep 13 2024 11:48:03 GMT-0500 (Central Daylight Time),734949.299999997,A,meadowenter,I,enter,475,1,2698.5,732250.799999997,8002,WL,A,9.0
5,20.609999895095825,learn,60000.0,Fri Sep 13 2024 11:48:03 GMT-0500 (Central Daylight Time),735399.6000000015,A,c,I,c,433,1,450.1000000014901,734949.5,8002,WL,A,10.0
5,20.876999855041504,learn,60000.0,Fri Sep 13 2024 11:48:03 GMT-0500 (Central Daylight Time),735666.0,A,ch,I,h,254,1,716.5,734949.5,8002,WL,A,10.0
5,20.942999839782715,learn,60000.0,Fri Sep 13 2024 11:48:03 GMT-0500 (Central Daylight Time),735732.6999999955,A,chi,I,i,51,1,783.1999999955297,734949.5,8002,WL,A,10.0
5,21.22699999809265,learn,60000.0,Fri Sep 13 2024 11:48:03 GMT-0500 (Central Daylight Time),736016.0,A,chim,I,m,265,1,1066.5,734949.5,8002,WL,A,10.0
5,21.609999895095825,learn,60000.0,Fri Sep 13 2024 11:48:03 GMT-0500 (Central Daylight Time),736399.0,A,chimn,I,n,366,1,1449.5,734949.5,8002,WL,A,10.0
5,21.825999975204468,learn,60000.0,Fri Sep 13 2024 11:48:03 GMT-0500 (Central Daylight Time),736615.799999997,A,chimne,I,e,198,1,1666.2999999970198,734949.5,8002,WL,A,10.0
5,22.243000030517578,learn,60000.0,Fri Sep 13 2024 11:48:03 GMT-0500 (Central Daylight Time),737032.299999997,A,chimney,I,y,406,1,2082.7999999970198,734949.5,8002,WL,A,10.0
5,23.441999912261963,learn,60000.0,Fri Sep 13 2024 11:48:03 GMT-0500 (Central Daylight Time),738231.8999999985,A,chimneyenter,I,enter,1189,1,3282.39999999851,734949.5,8002,WL,A,10.0
5,24.342000007629395,learn,60000.0,Fri Sep 13 2024 11:48:03 GMT-0500 (Central Daylight Time),739131.3999999985,A,g,I,g,894,1,899.2000000029802,738232.1999999955,8002,WL,A,11.0
5,24.526000022888184,learn,60000.0,Fri Sep 13 2024 11:48:03 GMT-0500 (Central Daylight Time),739314.8999999985,A,go,I,o,163,1,1082.7000000029802,738232.1999999955,8002,WL,A,11.0
5,24.757999897003174,learn,60000.0,Fri Sep 13 2024 11:48:03 GMT-0500 (Central Daylight Time),739547.8999999985,A,gol,I,l,227,1,1315.7000000029802,738232.1999999955,8002,WL,A,11.0
5,24.908999919891357,learn,60000.0,Fri Sep 13 2024 11:48:03 GMT-0500 (Central Daylight Time),739698.0,A,gold,I,d,138,1,1465.8000000044703,738232.1999999955,8002,WL,A,11.0
5,25.408999919891357,learn,60000.0,Fri Sep 13 2024 11:48:03 GMT-0500 (Central Daylight Time),740197.8999999985,A,goldenter,I,enter,483,1,1965.7000000029802,738232.1999999955,8002,WL,A,11.0
5,26.375,learn,60000.0,Fri Sep 13 2024 11:48:03 GMT-0500 (Central Daylight Time),741164.299999997,A,k,I,k,952,1,966.0,740198.299999997,8002,WL,A,12.0
5,26.557999849319458,learn,60000.0,Fri Sep 13 2024 11:48:03 GMT-0500 (Central Daylight Time),741347.5,A,ke,I,e,169,1,1149.2000000029802,740198.299999997,8002,WL,A,12.0
5,26.807999849319458,learn,60000.0,Fri Sep 13 2024 11:48:03 GMT-0500 (Central Daylight Time),741597.6999999955,A,key,I,y,243,1,1399.3999999985099,740198.299999997,8002,WL,A,12.0
5,28.5239999294281,learn,60000.0,Fri Sep 13 2024 11:48:03 GMT-0500 (Central Daylight Time),743313.8999999985,A,keyenter,I,enter,1696,1,3115.60000000149,740198.299999997,8002,WL,A,12.0
5,28.87399983406067,learn,60000.0,Fri Sep 13 2024 11:48:03 GMT-0500 (Central Daylight Time),743663.3999999985,A,r,I,r,340,1,349.20000000298023,743314.1999999955,8002,WL,A,13.0
5,29.240999937057495,learn,60000.0,Fri Sep 13 2024 11:48:03 GMT-0500 (Central Daylight Time),744030.0,A,ra,I,a,350,1,715.8000000044703,743314.1999999955,8002,WL,A,13.0
5,29.473999977111816,learn,60000.0,Fri Sep 13 2024 11:48:03 GMT-0500 (Central Daylight Time),744263.3999999985,A,rat,I,t,225,1,949.2000000029802,743314.1999999955,8002,WL,A,13.0
5,29.674000024795532,learn,60000.0,Fri Sep 13 2024 11:48:03 GMT-0500 (Central Daylight Time),744463.3999999985,A,ratt,I,t,190,1,1149.2000000029802,743314.1999999955,8002,WL,A,13.0
5,29.924000024795532,learn,60000.0,Fri Sep 13 2024 11:48:03 GMT-0500 (Central Daylight Time),744713.299999997,A,rattl,I,l,230,1,1399.1000000014901,743314.1999999955,8002,WL,A,13.0
5,30.090999841690063,learn,60000.0,Fri Sep 13 2024 11:48:03 GMT-0500 (Central Daylight Time),744879.8999999985,A,rattle,I,e,157,1,1565.7000000029802,743314.1999999955,8002,WL,A,13.0
5,33.58899998664856,learn,60000.0,Fri Sep 13 2024 11:48:03 GMT-0500 (Central Daylight Time),748378.8999999985,A,rattleenter,I,enter,3494,1,5064.70000000298,743314.1999999955,8002,WL,A,13.0
5,40.4210000038147,learn,60000.0,Fri Sep 13 2024 11:48:03 GMT-0500 (Central Daylight Time),755210.0,A,s,I,s,6816,1,6830.80000000447,748379.1999999955,8002,WL,A,14.0
5,40.57099986076355,learn,60000.0,Fri Sep 13 2024 11:48:03 GMT-0500 (Central Daylight Time),755360.1999999955,A,sa,I,a,133,1,6981.0,748379.1999999955,8002,WL,A,14.0
5,40.73699998855591,learn,60000.0,Fri Sep 13 2024 11:48:03 GMT-0500 (Central Daylight Time),755526.5,A,sal,I,l,149,1,7147.30000000447,748379.1999999955,8002,WL,A,14.0
5,40.90399980545044,learn,60000.0,Fri Sep 13 2024 11:48:03 GMT-0500 (Central Daylight Time),755693.1999999955,A,salt,I,t,151,1,7314.0,748379.1999999955,8002,WL,A,14.0
5,41.103999853134155,learn,60000.0,Fri Sep 13 2024 11:48:03 GMT-0500 (Central Daylight Time),755893.1999999955,A,saltenter,I,enter,193,1,7514.0,748379.1999999955,8002,WL,A,14.0
5,101.11699986457825,learn,60000.0,Fri Sep 13 2024 11:48:03 GMT-0500 (Central Daylight Time),815907.799999997,A,None,I,None,60011,1,60014.39999999851,755893.3999999985,8002,WL,A,15.0
6,0.7070000171661377,distr,59292.99998283386,Fri Sep 13 2024 11:48:03 GMT-0500 (Central Daylight Time),893300.0,B,b,I,b,700,1,706.3000000044703,892593.6999999955,8002,WL,A,1.0
6,1.4900000095367432,distr,58509.99999046326,Fri Sep 13 2024 11:48:03 GMT-0500 (Central Daylight Time),894083.299999997,B,bo,I,o,770,1,1489.6000000014901,892593.6999999955,8002,WL,A,1.0
6,1.940000057220459,distr,58059.99994277954,Fri Sep 13 2024 11:48:03 GMT-0500 (Central Daylight Time),894532.799999997,B,bow,I,w,442,1,1939.1000000014901,892593.6999999955,8002,WL,A,1.0
6,2.122999906539917,distr,57877.00009346008,Fri Sep 13 2024 11:48:03 GMT-0500 (Central Daylight Time),894716.1000000015,B,bowl,I,l,169,1,2122.4000000059605,892593.6999999955,8002,WL,A,1.0
6,2.75600004196167,distr,57243.99995803833,Fri Sep 13 2024 11:48:03 GMT-0500 (Central Daylight Time),895349.3999999985,B,bowlenter,I,enter,618,1,2755.7000000029802,892593.6999999955,8002,WL,A,1.0
6,3.2730000019073486,distr,56726.99999809265,Fri Sep 13 2024 11:48:03 GMT-0500 (Central Daylight Time),895865.799999997,B,d,I,d,496,1,516.1000000014901,895349.6999999955,8002,WL,A,2.0
6,3.5889999866485596,distr,56411.00001335144,Fri Sep 13 2024 11:48:03 GMT-0500 (Central Daylight Time),896182.5,B,da,I,a,309,1,832.8000000044703,895349.6999999955,8002,WL,A,2.0
6,3.8559999465942383,distr,56144.00005340576,Fri Sep 13 2024 11:48:03 GMT-0500 (Central Daylight Time),896449.0,B,daw,I,w,255,1,1099.3000000044703,895349.6999999955,8002,WL,A,2.0
6,4.555000066757202,distr,55444.9999332428,Fri Sep 13 2024 11:48:03 GMT-0500 (Central Daylight Time),897148.6000000015,B,dawn,I,n,693,1,1798.9000000059605,895349.6999999955,8002,WL,A,2.0
6,5.204999923706055,distr,54795.000076293945,Fri Sep 13 2024 11:48:03 GMT-0500 (Central Daylight Time),897798.6000000015,B,dawnenter,I,enter,634,1,2448.9000000059605,895349.6999999955,8002,WL,A,2.0
6,5.621999979019165,distr,54378.000020980835,Fri Sep 13 2024 11:48:03 GMT-0500 (Central Daylight Time),898215.0,B,m,I,m,407,1,416.1000000014901,897798.8999999985,8002,WL,A,3.0
6,6.105000019073486,distr,53894.999980926514,Fri Sep 13 2024 11:48:03 GMT-0500 (Central Daylight Time),898698.299999997,B,me,I,e,463,1,899.3999999985099,897798.8999999985,8002,WL,A,3.0
6,6.355000019073486,distr,53644.999980926514,Fri Sep 13 2024 11:48:03 GMT-0500 (Central Daylight Time),898948.1999999955,B,mea,I,a,235,1,1149.2999999970198,897798.8999999985,8002,WL,A,3.0
6,6.555000066757202,distr,53444.9999332428,Fri Sep 13 2024 11:48:03 GMT-0500 (Central Daylight Time),899148.0,B,meal,I,l,194,1,1349.1000000014901,897798.8999999985,8002,WL,A,3.0
6,7.4709999561309814,distr,52529.00004386902,Fri Sep 13 2024 11:48:03 GMT-0500 (Central Daylight Time),900064.5,B,mealenter,I,enter,906,1,2265.60000000149,897798.8999999985,8002,WL,A,3.0
6,8.020999908447266,distr,51979.000091552734,Fri Sep 13 2024 11:48:03 GMT-0500 (Central Daylight Time),900614.5,B,j,I,j,533,1,549.7000000029802,900064.799999997,8002,WL,A,4.0
6,8.32099986076355,distr,51679.00013923645,Fri Sep 13 2024 11:48:03 GMT-0500 (Central Daylight Time),900914.1999999955,B,ju,I,u,279,1,849.3999999985099,900064.799999997,8002,WL,A,4.0
6,8.520999908447266,distr,51479.000091552734,Fri Sep 13 2024 11:48:03 GMT-0500 (Central Daylight Time),901114.299999997,B,jud,I,d,179,1,1049.5,900064.799999997,8002,WL,A,4.0
6,8.753999948501587,distr,51246.00005149841,Fri Sep 13 2024 11:48:03 GMT-0500 (Central Daylight Time),901347.299999997,B,judg,I,g,228,1,1282.5,900064.799999997,8002,WL,A,4.0
6,8.871000051498413,distr,51128.99994850159,Fri Sep 13 2024 11:48:03 GMT-0500 (Central Daylight Time),901464.1000000015,B,judge,I,e,106,1,1399.3000000044703,900064.799999997,8002,WL,A,4.0
6,9.303999900817871,distr,50696.00009918213,Fri Sep 13 2024 11:48:03 GMT-0500 (Central Daylight Time),901897.299999997,B,judgeenter,I,enter,413,1,1832.5,900064.799999997,8002,WL,A,4.0
6,10.236999988555908,distr,49763.00001144409,Fri Sep 13 2024 11:48:03 GMT-0500 (Central Daylight Time),902830.299999997,B,g,I,g,917,1,932.6000000014901,901897.6999999955,8002,WL,A,5.0
6,10.553999900817871,distr,49446.00009918213,Fri Sep 13 2024 11:48:03 GMT-0500 (Central Daylight Time),903147.0,B,gr,I,r,311,1,1249.3000000044703,901897.6999999955,8002,WL,A,5.0
6,10.853999853134155,distr,49146.000146865845,Fri Sep 13 2024 11:48:03 GMT-0500 (Central Daylight Time),903447.0,B,gra,I,a,292,1,1549.3000000044703,901897.6999999955,8002,WL,A,5.0
6,11.103999853134155,distr,48896.000146865845,Fri Sep 13 2024 11:48:03 GMT-0500 (Central Daylight Time),903696.799999997,B,gran,I,n,231,1,1799.1000000014901,901897.6999999955,8002,WL,A,5.0
6,11.286999940872192,distr,48713.00005912781,Fri Sep 13 2024 11:48:03 GMT-0500 (Central Daylight Time),903880.0,B,grant,I,t,166,1,1982.3000000044703,901897.6999999955,8002,WL,A,5.0
6,11.72000002861023,distr,48279.99997138977,Fri Sep 13 2024 11:48:03 GMT-0500 (Central Daylight Time),904313.1999999955,B,grantenter,I,enter,414,1,2415.5,901897.6999999955,8002,WL,A,5.0
6,12.102999925613403,distr,47897.0000743866,Fri Sep 13 2024 11:48:03 GMT-0500 (Central Daylight Time),904696.1999999955,B,c,I,c,366,1,382.69999999552965,904313.5,8002,WL,A,6.0
6,12.319999933242798,distr,47680.0000667572,Fri Sep 13 2024 11:48:03 GMT-0500 (Central Daylight Time),904912.8999999985,B,co,I,o,205,1,599.3999999985099,904313.5,8002,WL,A,6.0
6,12.503000020980835,distr,47496.999979019165,Fri Sep 13 2024 11:48:03 GMT-0500 (Central Daylight Time),905096.299999997,B,cou,I,u,173,1,782.7999999970198,904313.5,8002,WL,A,6.0
6,12.78600001335144,distr,47213.99998664856,Fri Sep 13 2024 11:48:03 GMT-0500 (Central Daylight Time),905379.1999999955,B,coun,I,n,278,1,1065.6999999955297,904313.5,8002,WL,A,6.0
6,12.97000002861023,distr,47029.99997138977,Fri Sep 13 2024 11:48:03 GMT-0500 (Central Daylight Time),905562.799999997,B,count,I,t,172,1,1249.2999999970198,904313.5,8002,WL,A,6.0
6,13.20300006866455,distr,46796.99993133545,Fri Sep 13 2024 11:48:03 GMT-0500 (Central Daylight Time),905796.0,B,county,I,y,227,1,1482.5,904313.5,8002,WL,A,6.0
6,13.819000005722046,distr,46180.999994277954,Fri Sep 13 2024 11:48:03 GMT-0500 (Central Daylight Time),906412.5,B,countyenter,I,enter,602,1,2099.0,904313.5,8002,WL,A,6.0
6,14.335999965667725,distr,45664.000034332275,Fri Sep 13 2024 11:48:03 GMT-0500 (Central Daylight Time),906928.8999999985,B,i,I,i,497,1,516.0,906412.8999999985,8002,WL,A,7.0
6,14.501999855041504,distr,45498.000144958496,Fri Sep 13 2024 11:48:03 GMT-0500 (Central Daylight Time),907095.5,B,in,I,n,157,1,682.6000000014901,906412.8999999985,8002,WL,A,7.0
6,14.651999950408936,distr,45348.000049591064,Fri Sep 13 2024 11:48:03 GMT-0500 (Central Daylight Time),907245.5,B,ins,I,s,142,1,832.6000000014901,906412.8999999985,8002,WL,A,7.0
6,14.885999917984009,distr,45114.00008201599,Fri Sep 13 2024 11:48:03 GMT-0500 (Central Daylight Time),907478.799999997,B,inse,I,e,224,1,1065.8999999985099,906412.8999999985,8002,WL,A,7.0
6,15.185999870300293,distr,44814.00012969971,Fri Sep 13 2024 11:48:03 GMT-0500 (Central Daylight Time),907778.799999997,B,insec,I,c,287,1,1365.8999999985099,906412.8999999985,8002,WL,A,7.0
6,15.501999855041504,distr,44498.000144958496,Fri Sep 13 2024 11:48:03 GMT-0500 (Central Daylight Time),908095.0,B,insect,I,t,300,1,1682.1000000014901,906412.8999999985,8002,WL,A,7.0
6,15.868000030517578,distr,44131.99996948242,Fri Sep 13 2024 11:48:03 GMT-0500 (Central Daylight Time),908461.6000000015,B,insectenter,I,enter,360,1,2048.7000000029802,906412.8999999985,8002,WL,A,7.0
6,16.302000045776367,distr,43697.99995422363,Fri Sep 13 2024 11:48:03 GMT-0500 (Central Daylight Time),908895.0,B,s,I,s,424,1,433.1000000014901,908461.8999999985,8002,WL,A,8.0
6,16.569000005722046,distr,43430.999994277954,Fri Sep 13 2024 11:48:03 GMT-0500 (Central Daylight Time),909162.0,B,se,I,e,247,1,700.1000000014901,908461.8999999985,8002,WL,A,8.0
6,16.76900005340576,distr,43230.99994659424,Fri Sep 13 2024 11:48:03 GMT-0500 (Central Daylight Time),909361.799999997,B,see,I,e,189,1,899.8999999985099,908461.8999999985,8002,WL,A,8.0
6,18.417999982833862,distr,41582.00001716614,Fri Sep 13 2024 11:48:03 GMT-0500 (Central Daylight Time),911010.8999999985,B,seed,I,d,1645,1,2549.0,908461.8999999985,8002,WL,A,8.0
6,18.76799988746643,distr,41232.00011253357,Fri Sep 13 2024 11:48:03 GMT-0500 (Central Daylight Time),911360.8999999985,B,seedenter,I,enter,339,1,2899.0,908461.8999999985,8002,WL,A,8.0
6,21.882999897003174,distr,38117.000102996826,Fri Sep 13 2024 11:48:03 GMT-0500 (Central Daylight Time),914476.6000000015,B,p,I,p,3109,1,3115.4000000059605,911361.1999999955,8002,WL,A,9.0
6,24.365999937057495,distr,35634.000062942505,Fri Sep 13 2024 11:48:03 GMT-0500 (Central Daylight Time),916959.299999997,B,pl,I,l,2474,1,5598.10000000149,911361.1999999955,8002,WL,A,9.0
6,25.66599988937378,distr,34334.00011062622,Fri Sep 13 2024 11:48:03 GMT-0500 (Central Daylight Time),918258.799999997,B,pla,I,a,1279,1,6897.60000000149,911361.1999999955,8002,WL,A,9.0
6,25.848999977111816,distr,34151.00002288818,Fri Sep 13 2024 11:48:03 GMT-0500 (Central Daylight Time),918442.0,B,plan,I,n,171,1,7080.80000000447,911361.1999999955,8002,WL,A,9.0
6,26.06500005722046,distr,33934.99994277954,Fri Sep 13 2024 11:48:03 GMT-0500 (Central Daylight Time),918658.6000000015,B,plane,I,e,204,1,7297.4000000059605,911361.1999999955,8002,WL,A,9.0
6,27.431999921798706,distr,32568.000078201294,Fri Sep 13 2024 11:48:03 GMT-0500 (Central Daylight Time),920024.6999999955,B,planeenter,I,enter,1347,1,8663.5,911361.1999999955,8002,WL,A,9.0
6,60.00399994850159,distr,-3.999948501586914,Fri Sep 13 2024 11:48:03 GMT-0500 (Central Daylight Time),952598.1000000015,B,None,I,None,32569,1,32573.20000000298,920024.8999999985,8002,WL,A,10.0
7,1.7780001163482666,immed,58221.99988365173,Fri Sep 13 2024 11:48:03 GMT-0500 (Central Daylight Time),963206.1000000015,A,l,I,l,1627,1,1777.7000000029802,961428.3999999985,8002,WL,A,1.0
7,1.8990001678466797,immed,58100.99983215332,Fri Sep 13 2024 11:48:03 GMT-0500 (Central Daylight Time),963327.6999999955,A,lo,I,o,103,1,1899.2999999970198,961428.3999999985,8002,WL,A,1.0
7,2.0329999923706055,immed,57967.000007629395,Fri Sep 13 2024 11:48:03 GMT-0500 (Central Daylight Time),963461.1000000015,A,low,I,w,118,1,2032.7000000029802,961428.3999999985,8002,WL,A,1.0
7,2.199000120162964,immed,57800.999879837036,Fri Sep 13 2024 11:48:03 GMT-0500 (Central Daylight Time),963627.8999999985,A,lowe,I,e,161,1,2199.5,961428.3999999985,8002,WL,A,1.0
7,2.315999984741211,immed,57684.00001525879,Fri Sep 13 2024 11:48:03 GMT-0500 (Central Daylight Time),963744.6999999955,A,lower,I,r,106,1,2316.2999999970198,961428.3999999985,8002,WL,A,1.0
7,3.6660001277923584,immed,56333.99987220764,Fri Sep 13 2024 11:48:03 GMT-0500 (Central Daylight Time),965094.0,A,lowe,I,backspace,1342,1,3665.60000000149,961428.3999999985,8002,WL,A,1.0
7,3.815999984741211,immed,56184.00001525879,Fri Sep 13 2024 11:48:03 GMT-0500 (Central Daylight Time),965244.1000000015,A,low,I,backspace,137,1,3815.7000000029802,961428.3999999985,8002,WL,A,1.0
7,3.9820001125335693,immed,56017.99988746643,Fri Sep 13 2024 11:48:03 GMT-0500 (Central Daylight Time),965410.6999999955,A,lo,I,backspace,147,1,3982.2999999970198,961428.3999999985,8002,WL,A,1.0
7,4.131999969482422,immed,55868.00003051758,Fri Sep 13 2024 11:48:03 GMT-0500 (Central Daylight Time),965560.6999999955,A,l,I,backspace,140,1,4132.29999999702,961428.3999999985,8002,WL,A,1.0
7,4.332000017166138,immed,55667.99998283386,Fri Sep 13 2024 11:48:03 GMT-0500 (Central Daylight Time),965760.5,A,,I,backspace,182,1,4332.10000000149,961428.3999999985,8002,WL,A,1.0
7,5.0320000648498535,immed,54967.99993515015,Fri Sep 13 2024 11:48:03 GMT-0500 (Central Daylight Time),966460.5,A,f,I,f,686,1,5032.10000000149,961428.3999999985,8002,WL,A,1.0
7,5.215000152587891,immed,54784.99984741211,Fri Sep 13 2024 11:48:03 GMT-0500 (Central Daylight Time),966643.6000000015,A,fl,I,l,170,1,5215.20000000298,961428.3999999985,8002,WL,A,1.0
7,5.498000144958496,immed,54501.999855041504,Fri Sep 13 2024 11:48:03 GMT-0500 (Central Daylight Time),966926.8999999985,A,flo,I,o,267,1,5498.5,961428.3999999985,8002,WL,A,1.0
7,5.699000120162964,immed,54300.999879837036,Fri Sep 13 2024 11:48:03 GMT-0500 (Central Daylight Time),967127.0,A,flow,I,w,183,1,5698.60000000149,961428.3999999985,8002,WL,A,1.0
7,5.832000017166138,immed,54167.99998283386,Fri Sep 13 2024 11:48:03 GMT-0500 (Central Daylight Time),967260.1000000015,A,flowe,I,e,119,1,5831.70000000298,961428.3999999985,8002,WL,A,1.0
7,5.982000112533569,immed,54017.99988746643,Fri Sep 13 2024 11:48:03 GMT-0500 (Central Daylight Time),967410.0,A,flower,I,r,130,1,5981.60000000149,961428.3999999985,8002,WL,A,1.0
7,6.765000104904175,immed,53234.999895095825,Fri Sep 13 2024 11:48:03 GMT-0500 (Central Daylight Time),968193.1000000015,A,flowerenter,I,enter,764,1,6764.70000000298,961428.3999999985,8002,WL,A,1.0
7,7.897000074386597,immed,52102.9999256134,Fri Sep 13 2024 11:48:03 GMT-0500 (Central Daylight Time),969325.8999999985,A,b,I,b,1117,1,1132.5,968193.3999999985,8002,WL,A,2.0
7,8.098000049591064,immed,51901.999950408936,Fri Sep 13 2024 11:48:03 GMT-0500 (Central Daylight Time),969526.0,A,bo,I,o,193,1,1332.6000000014901,968193.3999999985,8002,WL,A,2.0
7,8.264000177383423,immed,51735.99982261658,Fri Sep 13 2024 11:48:03 GMT-0500 (Central Daylight Time),969692.6999999955,A,boo,I,o,161,1,1499.2999999970198,968193.3999999985,8002,WL,A,2.0
7,8.514000177383423,immed,51485.99982261658,Fri Sep 13 2024 11:48:03 GMT-0500 (Central Daylight Time),969942.6000000015,A,book,I,k,242,1,1749.2000000029802,968193.3999999985,8002,WL,A,2.0
7,9.531000137329102,immed,50468.9998626709,Fri Sep 13 2024 11:48:03 GMT-0500 (Central Daylight Time),970959.1999999955,A,bookenter,I,enter,1008,1,2765.7999999970198,968193.3999999985,8002,WL,A,2.0
7,9.864000082015991,immed,50135.99991798401,Fri Sep 13 2024 11:48:03 GMT-0500 (Central Daylight Time),971291.8999999985,A,t,I,t,328,1,332.3999999985099,970959.5,8002,WL,A,3.0
7,10.147000074386597,immed,49852.9999256134,Fri Sep 13 2024 11:48:03 GMT-0500 (Central Daylight Time),971575.5,A,tr,I,r,265,1,616.0,970959.5,8002,WL,A,3.0
7,10.314000129699707,immed,49685.99987030029,Fri Sep 13 2024 11:48:03 GMT-0500 (Central Daylight Time),971742.1000000015,A,tra,I,a,159,1,782.6000000014901,970959.5,8002,WL,A,3.0
7,10.513000011444092,immed,49486.99998855591,Fri Sep 13 2024 11:48:03 GMT-0500 (Central Daylight Time),971941.799999997,A,trai,I,i,191,1,982.2999999970198,970959.5,8002,WL,A,3.0
7,10.61300015449524,immed,49386.99984550476,Fri Sep 13 2024 11:48:03 GMT-0500 (Central Daylight Time),972041.8999999985,A,train,I,n,80,1,1082.3999999985099,970959.5,8002,WL,A,3.0
7,11.246999979019165,immed,48753.000020980835,Fri Sep 13 2024 11:48:03 GMT-0500 (Central Daylight Time),972674.8999999985,A,trainenter,I,enter,628,1,1715.3999999985099,970959.5,8002,WL,A,3.0
7,11.580000162124634,immed,48419.999837875366,Fri Sep 13 2024 11:48:03 GMT-0500 (Central Daylight Time),973008.1000000015,A,s,I,s,315,1,332.90000000596046,972675.1999999955,8002,WL,A,4.0
7,11.646000146865845,immed,48353.999853134155,Fri Sep 13 2024 11:48:03 GMT-0500 (Central Daylight Time),973074.5,A,sa,I,a,61,1,399.30000000447035,972675.1999999955,8002,WL,A,4.0
7,11.86300015449524,immed,48136.99984550476,Fri Sep 13 2024 11:48:03 GMT-0500 (Central Daylight Time),973291.1999999955,A,sal,I,l,211,1,616.0,972675.1999999955,8002,WL,A,4.0
7,12.27999997138977,immed,47720.00002861023,Fri Sep 13 2024 11:48:03 GMT-0500 (Central Daylight Time),973707.8999999985,A,salt,I,t,403,1,1032.7000000029802,972675.1999999955,8002,WL,A,4.0
7,12.979000091552734,immed,47020.999908447266,Fri Sep 13 2024 11:48:03 GMT-0500 (Central Daylight Time),974407.799999997,A,saltenter,I,enter,690,1,1732.6000000014901,972675.1999999955,8002,WL,A,4.0
7,13.446000099182129,immed,46553.99990081787,Fri Sep 13 2024 11:48:03 GMT-0500 (Central Daylight Time),974874.3999999985,A,r,I,r,455,1,466.3999999985099,974408.0,8002,WL,A,5.0
7,13.646000146865845,immed,46353.999853134155,Fri Sep 13 2024 11:48:03 GMT-0500 (Central Daylight Time),975074.3999999985,A,ru,I,u,188,1,666.3999999985099,974408.0,8002,WL,A,5.0
7,13.946000099182129,immed,46053.99990081787,Fri Sep 13 2024 11:48:03 GMT-0500 (Central Daylight Time),975374.1000000015,A,rug,I,g,284,1,966.1000000014901,974408.0,8002,WL,A,5.0
7,14.479000091552734,immed,45520.999908447266,Fri Sep 13 2024 11:48:03 GMT-0500 (Central Daylight Time),975907.3999999985,A,rugenter,I,enter,512,1,1499.3999999985099,974408.0,8002,WL,A,5.0
7,14.76200008392334,immed,45237.99991607666,Fri Sep 13 2024 11:48:03 GMT-0500 (Central Daylight Time),976190.5,A,t,I,t,266,1,282.80000000447035,975907.6999999955,8002,WL,A,6.0
7,15.013000011444092,immed,44986.99998855591,Fri Sep 13 2024 11:48:03 GMT-0500 (Central Daylight Time),976441.6999999955,A,tr,I,r,230,1,534.0,975907.6999999955,8002,WL,A,6.0
7,15.229000091552734,immed,44770.999908447266,Fri Sep 13 2024 11:48:03 GMT-0500 (Central Daylight Time),976657.1000000015,A,tra,I,a,195,1,749.4000000059605,975907.6999999955,8002,WL,A,6.0
7,15.412000179290771,immed,44587.99982070923,Fri Sep 13 2024 11:48:03 GMT-0500 (Central Daylight Time),976840.3999999985,A,trai,I,i,173,1,932.7000000029802,975907.6999999955,8002,WL,A,6.0
7,15.578999996185303,immed,44421.0000038147,Fri Sep 13 2024 11:48:03 GMT-0500 (Central Daylight Time),977007.0,A,train,I,n,150,1,1099.3000000044703,975907.6999999955,8002,WL,A,6.0
7,16.74500012397766,immed,43254.99987602234,Fri Sep 13 2024 11:48:03 GMT-0500 (Central Daylight Time),978173.3999999985,A,trainenter,I,enter,1150,1,2265.7000000029802,975907.6999999955,8002,WL,A,6.0
7,19.177000045776367,immed,40822.99995422363,Fri Sep 13 2024 11:48:03 GMT-0500 (Central Daylight Time),980605.799999997,A,f,I,f,2424,1,2432.10000000149,978173.6999999955,8002,WL,A,7.0
7,19.427000045776367,immed,40572.99995422363,Fri Sep 13 2024 11:48:03 GMT-0500 (Central Daylight Time),980855.799999997,A,fi,I,i,233,1,2682.10000000149,978173.6999999955,8002,WL,A,7.0
7,19.5770001411438,immed,40422.9998588562,Fri Sep 13 2024 11:48:03 GMT-0500 (Central Daylight Time),981005.8999999985,A,fin,I,n,143,1,2832.2000000029802,978173.6999999955,8002,WL,A,7.0
7,19.728000164031982,immed,40271.99983596802,Fri Sep 13 2024 11:48:03 GMT-0500 (Central Daylight Time),981156.799999997,A,fing,I,g,144,1,2983.10000000149,978173.6999999955,8002,WL,A,7.0
7,19.927000045776367,immed,40072.99995422363,Fri Sep 13 2024 11:48:03 GMT-0500 (Central Daylight Time),981355.799999997,A,finge,I,e,186,1,3182.10000000149,978173.6999999955,8002,WL,A,7.0
7,20.009999990463257,immed,39990.00000953674,Fri Sep 13 2024 11:48:03 GMT-0500 (Central Daylight Time),981438.8999999985,A,finger,I,r,75,1,3265.2000000029802,978173.6999999955,8002,WL,A,7.0
7,20.460000038146973,immed,39539.99996185303,Fri Sep 13 2024 11:48:03 GMT-0500 (Central Daylight Time),981888.8999999985,A,fingerenter,I,enter,440,1,3715.2000000029802,978173.6999999955,8002,WL,A,7.0
7,21.042999982833862,immed,38957.00001716614,Fri Sep 13 2024 11:48:03 GMT-0500 (Central Daylight Time),982471.8999999985,A,b,I,b,566,1,582.7000000029802,981889.1999999955,8002,WL,A,8.0
7,21.292999982833862,immed,38707.00001716614,Fri Sep 13 2024 11:48:03 GMT-0500 (Central Daylight Time),982721.799999997,A,bu,I,u,230,1,832.6000000014901,981889.1999999955,8002,WL,A,8.0
7,21.509999990463257,immed,38490.00000953674,Fri Sep 13 2024 11:48:03 GMT-0500 (Central Daylight Time),982938.5,A,but,I,t,196,1,1049.3000000044703,981889.1999999955,8002,WL,A,8.0
7,21.693000078201294,immed,38306.999921798706,Fri Sep 13 2024 11:48:03 GMT-0500 (Central Daylight Time),983121.799999997,A,butt,I,t,172,1,1232.6000000014901,981889.1999999955,8002,WL,A,8.0
7,21.89300012588501,immed,38106.99987411499,Fri Sep 13 2024 11:48:03 GMT-0500 (Central Daylight Time),983321.6000000015,A,butto,I,o,189,1,1432.4000000059605,981889.1999999955,8002,WL,A,8.0
7,21.993000030517578,immed,38006.99996948242,Fri Sep 13 2024 11:48:03 GMT-0500 (Central Daylight Time),983421.6999999955,A,button,I,n,93,1,1532.5,981889.1999999955,8002,WL,A,8.0
7,22.542999982833862,immed,37457.00001716614,Fri Sep 13 2024 11:48:03 GMT-0500 (Central Daylight Time),983971.3999999985,A,buttonenter,I,enter,545,1,2082.2000000029802,981889.1999999955,8002,WL,A,8.0
7,23.20900011062622,immed,36790.99988937378,Fri Sep 13 2024 11:48:03 GMT-0500 (Central Daylight Time),984637.799999997,A,h,I,h,651,1,666.1999999955297,983971.6000000015,8002,WL,A,9.0
7,23.37600016593933,immed,36623.99983406067,Fri Sep 13 2024 11:48:03 GMT-0500 (Central Daylight Time),984804.5,A,ha,I,a,152,1,832.8999999985099,983971.6000000015,8002,WL,A,9.0
7,23.526000022888184,immed,36473.99997711182,Fri Sep 13 2024 11:48:03 GMT-0500 (Central Daylight Time),984954.6000000015,A,har,I,r,145,1,983.0,983971.6000000015,8002,WL,A,9.0
7,23.759000062942505,immed,36240.999937057495,Fri Sep 13 2024 11:48:03 GMT-0500 (Central Daylight Time),985187.6999999955,A,harp,I,p,220,1,1216.0999999940395,983971.6000000015,8002,WL,A,9.0
7,24.109000205993652,immed,35890.99979400635,Fri Sep 13 2024 11:48:03 GMT-0500 (Central Daylight Time),985537.6999999955,A,harpenter,I,enter,330,1,1566.0999999940395,983971.6000000015,8002,WL,A,9.0
7,24.426000118255615,immed,35573.999881744385,Fri Sep 13 2024 11:48:03 GMT-0500 (Central Daylight Time),985854.1000000015,A,a,I,a,300,1,316.1000000014901,985538.0,8002,WL,A,10.0
7,24.575999975204468,immed,35424.00002479553,Fri Sep 13 2024 11:48:03 GMT-0500 (Central Daylight Time),986004.1999999955,A,ap,I,p,144,1,466.19999999552965,985538.0,8002,WL,A,10.0
7,24.776000022888184,immed,35223.99997711182,Fri Sep 13 2024 11:48:03 GMT-0500 (Central Daylight Time),986204.1000000015,A,app,I,p,194,1,666.1000000014901,985538.0,8002,WL,A,10.0
7,25.009000062942505,immed,34990.999937057495,Fri Sep 13 2024 11:48:03 GMT-0500 (Central Daylight Time),986437.5,A,appl,I,l,227,1,899.5,985538.0,8002,WL,A,10.0
7,25.302000045776367,immed,34697.99995422363,Fri Sep 13 2024 11:48:03 GMT-0500 (Central Daylight Time),986730.1999999955,A,apple,I,e,141,1,1192.1999999955297,985538.0,8002,WL,A,10.0
7,26.175000190734863,immed,33824.99980926514,Fri Sep 13 2024 11:48:03 GMT-0500 (Central Daylight Time),987603.3999999985,A,appleenter,I,enter,867,1,2065.39999999851,985538.0,8002,WL,A,10.0
7,27.125,immed,32875.0,Fri Sep 13 2024 11:48:03 GMT-0500 (Central Daylight Time),988553.5,A,k,I,k,930,1,949.8999999985099,987603.6000000015,8002,WL,A,11.0
7,27.29200005531311,immed,32707.99994468689,Fri Sep 13 2024 11:48:03 GMT-0500 (Central Daylight Time),988720.1000000015,A,ke,I,e,148,1,1116.5,987603.6000000015,8002,WL,A,11.0
7,27.558000087738037,immed,32441.999912261963,Fri Sep 13 2024 11:48:03 GMT-0500 (Central Daylight Time),988986.6000000015,A,key,I,y,255,1,1383.0,987603.6000000015,8002,WL,A,11.0
7,28.425000190734863,immed,31574.999809265137,Fri Sep 13 2024 11:48:03 GMT-0500 (Central Daylight Time),989853.1000000015,A,keyenter,I,enter,859,1,2249.5,987603.6000000015,8002,WL,A,11.0
7,30.02400016784668,immed,29975.99983215332,Fri Sep 13 2024 11:48:03 GMT-0500 (Central Daylight Time),991452.6999999955,A,g,I,g,1586,1,1599.2999999970198,989853.3999999985,8002,WL,A,12.0
7,30.391000032424927,immed,29608.999967575073,Fri Sep 13 2024 11:48:03 GMT-0500 (Central Daylight Time),991819.1000000015,A,go,I,o,346,1,1965.7000000029802,989853.3999999985,8002,WL,A,12.0
7,30.60700011253357,immed,29392.99988746643,Fri Sep 13 2024 11:48:03 GMT-0500 (Central Daylight Time),992035.6999999955,A,gol,I,l,204,1,2182.2999999970198,989853.3999999985,8002,WL,A,12.0
7,30.723999977111816,immed,29276.000022888184,Fri Sep 13 2024 11:48:03 GMT-0500 (Central Daylight Time),992152.1999999955,A,gold,I,d,106,1,2298.7999999970198,989853.3999999985,8002,WL,A,12.0
7,31.02400016784668,immed,28975.99983215332,Fri Sep 13 2024 11:48:03 GMT-0500 (Central Daylight Time),992452.1000000015,A,goldenter,I,enter,294,1,2598.7000000029802,989853.3999999985,8002,WL,A,12.0
7,31.490000009536743,immed,28509.999990463257,Fri Sep 13 2024 11:48:03 GMT-0500 (Central Daylight Time),992918.6999999955,A,r,I,r,458,1,466.3999999985099,992452.299999997,8002,WL,A,13.0
7,31.790000200271606,immed,28209.999799728394,Fri Sep 13 2024 11:48:03 GMT-0500 (Central Daylight Time),993218.5,A,ra,I,a,287,1,766.2000000029802,992452.299999997,8002,WL,A,13.0
7,32.040000200271606,immed,27959.999799728394,Fri Sep 13 2024 11:48:03 GMT-0500 (Central Daylight Time),993468.6000000015,A,rat,I,t,236,1,1016.3000000044703,992452.299999997,8002,WL,A,13.0
7,32.20700001716614,immed,27792.999982833862,Fri Sep 13 2024 11:48:03 GMT-0500 (Central Daylight Time),993635.0,A,ratt,I,t,162,1,1182.7000000029802,992452.299999997,8002,WL,A,13.0
