block_c,block_dur,condition,countdown,datetime,endtime,list,multichar_response,project,response,response_time,session_number,start_end,starttime,subject_id,task,task_vers,trial
,,,,Wed Nov 06 2024 13:46:17 GMT-0600 (Central Standard Time),,,,I,space,175,2,,,8002,WL,B,
prac,,0,,Wed Nov 06 2024 13:46:17 GMT-0600 (Central Standard Time),,NA,b,I,b,13448,2,,,8002,WL,B,1.0
prac,,0,,Wed Nov 06 2024 13:46:17 GMT-0600 (Central Standard Time),,NA,bo,I,o,366,2,,,8002,WL,B,1.0
prac,,0,,Wed Nov 06 2024 13:46:17 GMT-0600 (Central Standard Time),,NA,boo,I,o,191,2,,,8002,WL,B,1.0
prac,,0,,Wed Nov 06 2024 13:46:17 GMT-0600 (Central Standard Time),,NA,boos,I,s,367,2,,,8002,WL,B,1.0
prac,,0,,Wed Nov 06 2024 13:46:17 GMT-0600 (Central Standard Time),,NA,boost,I,t,368,2,,,8002,WL,B,1.0
prac,,0,,Wed Nov 06 2024 13:46:17 GMT-0600 (Central Standard Time),,NA,boostenter,I,enter,3313,2,,,8002,WL,B,1.0
1,0.9330000877380371,learn,59066.99991226196,Wed Nov 06 2024 13:46:17 GMT-0600 (Central Standard Time),169057.3999999985,A,f,I,f,920,2,933.1000000014901,168124.29999999702,8002,WL,B,1.0
1,1.1159999370574951,learn,58884.000062942505,Wed Nov 06 2024 13:46:17 GMT-0600 (Central Standard Time),169240.3999999985,A,fi,I,i,170,2,1116.1000000014901,168124.29999999702,8002,WL,B,1.0
1,1.2829999923706055,learn,58717.000007629395,Wed Nov 06 2024 13:46:17 GMT-0600 (Central Standard Time),169407.09999999404,A,fir,I,r,156,2,1282.7999999970198,168124.29999999702,8002,WL,B,1.0
1,1.5160000324249268,learn,58483.99996757507,Wed Nov 06 2024 13:46:17 GMT-0600 (Central Standard Time),169640.29999999702,A,fire,I,e,213,2,1516.0,168124.29999999702,8002,WL,B,1.0
1,2.2990000247955322,learn,57700.99997520447,Wed Nov 06 2024 13:46:17 GMT-0600 (Central Standard Time),170423.3999999985,A,fireenter,I,enter,764,2,2299.10000000149,168124.29999999702,8002,WL,B,1.0
1,2.815999984741211,learn,57184.00001525879,Wed Nov 06 2024 13:46:17 GMT-0600 (Central Standard Time),170939.79999999702,A,c,I,c,501,2,516.0,170423.79999999702,8002,WL,B,2.0
1,3.2929999828338623,learn,56707.00001716614,Wed Nov 06 2024 13:46:17 GMT-0600 (Central Standard Time),171417.09999999404,A,cl,I,l,326,2,993.2999999970198,170423.79999999702,8002,WL,B,2.0
1,3.881999969482422,learn,56118.00003051758,Wed Nov 06 2024 13:46:17 GMT-0600 (Central Standard Time),172006.0,A,clo,I,o,569,2,1582.2000000029802,170423.79999999702,8002,WL,B,2.0
1,4.2149999141693115,learn,55785.00008583069,Wed Nov 06 2024 13:46:17 GMT-0600 (Central Standard Time),172339.29999999702,A,cloc,I,c,319,2,1915.5,170423.79999999702,8002,WL,B,2.0
1,4.4649999141693115,learn,55535.00008583069,Wed Nov 06 2024 13:46:17 GMT-0600 (Central Standard Time),172589.3999999985,A,clock,I,k,242,2,2165.60000000149,170423.79999999702,8002,WL,B,2.0
1,5.148000001907349,learn,54851.99999809265,Wed Nov 06 2024 13:46:17 GMT-0600 (Central Standard Time),173272.5,A,clockenter,I,enter,671,2,2848.7000000029802,170423.79999999702,8002,WL,B,2.0
1,6.414000034332275,learn,53585.999965667725,Wed Nov 06 2024 13:46:17 GMT-0600 (Central Standard Time),174538.59999999404,A,s,I,s,1260,2,1265.2999999970198,173273.29999999702,8002,WL,B,3.0
1,6.747999906539917,learn,53252.00009346008,Wed Nov 06 2024 13:46:17 GMT-0600 (Central Standard Time),174872.0,A,st,I,t,322,2,1598.7000000029802,173273.29999999702,8002,WL,B,3.0
1,7.04800009727478,learn,52951.99990272522,Wed Nov 06 2024 13:46:17 GMT-0600 (Central Standard Time),175171.79999999702,A,str,I,r,285,2,1898.5,173273.29999999702,8002,WL,B,3.0
1,7.346999883651733,learn,52653.00011634827,Wed Nov 06 2024 13:46:17 GMT-0600 (Central Standard Time),175471.59999999404,A,stre,I,e,289,2,2198.2999999970198,173273.29999999702,8002,WL,B,3.0
1,7.563999891281128,learn,52436.00010871887,Wed Nov 06 2024 13:46:17 GMT-0600 (Central Standard Time),175688.29999999702,A,stree,I,e,205,2,2415.0,173273.29999999702,8002,WL,B,3.0
1,7.947000026702881,learn,52052.99997329712,Wed Nov 06 2024 13:46:17 GMT-0600 (Central Standard Time),176071.5,A,street,I,t,364,2,2798.2000000029802,173273.29999999702,8002,WL,B,3.0
1,8.397000074386597,learn,51602.9999256134,Wed Nov 06 2024 13:46:17 GMT-0600 (Central Standard Time),176521.29999999702,A,streetenter,I,enter,430,2,3248.0,173273.29999999702,8002,WL,B,3.0
1,9.52999997138977,learn,50470.00002861023,Wed Nov 06 2024 13:46:17 GMT-0600 (Central Standard Time),177654.3999999985,A,c,I,c,1124,2,1132.8000000044703,176521.59999999404,8002,WL,B,4.0
1,9.846999883651733,learn,50153.00011634827,Wed Nov 06 2024 13:46:17 GMT-0600 (Central Standard Time),177971.0,A,ci,I,i,303,2,1449.4000000059605,176521.59999999404,8002,WL,B,4.0
1,10.062999963760376,learn,49937.000036239624,Wed Nov 06 2024 13:46:17 GMT-0600 (Central Standard Time),178187.3999999985,A,cit,I,t,210,2,1665.8000000044703,176521.59999999404,8002,WL,B,4.0
1,10.446000099182129,learn,49553.99990081787,Wed Nov 06 2024 13:46:17 GMT-0600 (Central Standard Time),178570.59999999404,A,city,I,y,370,2,2049.0,176521.59999999404,8002,WL,B,4.0
1,11.213000059127808,learn,48786.99994087219,Wed Nov 06 2024 13:46:17 GMT-0600 (Central Standard Time),179337.19999999553,A,cityenter,I,enter,746,2,2815.60000000149,176521.59999999404,8002,WL,B,4.0
1,11.796000003814697,learn,48203.9999961853,Wed Nov 06 2024 13:46:17 GMT-0600 (Central Standard Time),179920.19999999553,A,g,I,g,563,2,582.6000000014901,179337.59999999404,8002,WL,B,5.0
1,12.078999996185303,learn,47921.0000038147,Wed Nov 06 2024 13:46:17 GMT-0600 (Central Standard Time),180203.5,A,gr,I,r,269,2,865.9000000059605,179337.59999999404,8002,WL,B,5.0
1,12.36299991607666,learn,47637.00008392334,Wed Nov 06 2024 13:46:17 GMT-0600 (Central Standard Time),180486.79999999702,A,gra,I,a,266,2,1149.2000000029802,179337.59999999404,8002,WL,B,5.0
1,12.696000099182129,learn,47303.99990081787,Wed Nov 06 2024 13:46:17 GMT-0600 (Central Standard Time),180819.8999999985,A,gras,I,s,318,2,1482.3000000044703,179337.59999999404,8002,WL,B,5.0
1,12.946000099182129,learn,47053.99990081787,Wed Nov 06 2024 13:46:17 GMT-0600 (Central Standard Time),181070.09999999404,A,grass,I,s,241,2,1732.5,179337.59999999404,8002,WL,B,5.0
1,13.411999940872192,learn,46588.00005912781,Wed Nov 06 2024 13:46:17 GMT-0600 (Central Standard Time),181536.59999999404,A,grassenter,I,enter,455,2,2199.0,179337.59999999404,8002,WL,B,5.0
1,13.779000043869019,learn,46220.99995613098,Wed Nov 06 2024 13:46:17 GMT-0600 (Central Standard Time),181903.19999999553,A,a,I,a,356,2,366.29999999701977,181536.8999999985,8002,WL,B,6.0
1,14.01200008392334,learn,45987.99991607666,Wed Nov 06 2024 13:46:17 GMT-0600 (Central Standard Time),182136.5,A,ar,I,r,222,2,599.6000000014901,181536.8999999985,8002,WL,B,6.0
1,15.295000076293945,learn,44704.999923706055,Wed Nov 06 2024 13:46:17 GMT-0600 (Central Standard Time),183419.19999999553,A,arm,I,m,1277,2,1882.2999999970198,181536.8999999985,8002,WL,B,6.0
1,15.944999933242798,learn,44055.0000667572,Wed Nov 06 2024 13:46:17 GMT-0600 (Central Standard Time),184069.09999999404,A,armenter,I,enter,642,2,2532.1999999955297,181536.8999999985,8002,WL,B,6.0
1,16.311000108718872,learn,43688.99989128113,Wed Nov 06 2024 13:46:17 GMT-0600 (Central Standard Time),184435.5,A,w,I,w,352,2,366.0,184069.5,8002,WL,B,7.0
1,16.628000020980835,learn,43371.999979019165,Wed Nov 06 2024 13:46:17 GMT-0600 (Central Standard Time),184752.0,A,wi,I,i,296,2,682.5,184069.5,8002,WL,B,7.0
1,16.76099991798401,learn,43239.00008201599,Wed Nov 06 2024 13:46:17 GMT-0600 (Central Standard Time),184885.5,A,win,I,n,125,2,816.0,184069.5,8002,WL,B,7.0
1,16.977999925613403,learn,43022.0000743866,Wed Nov 06 2024 13:46:17 GMT-0600 (Central Standard Time),185101.8999999985,A,wind,I,d,200,2,1032.3999999985099,184069.5,8002,WL,B,7.0
1,17.17799997329712,learn,42822.00002670288,Wed Nov 06 2024 13:46:17 GMT-0600 (Central Standard Time),185302.09999999404,A,windo,I,o,192,2,1232.5999999940395,184069.5,8002,WL,B,7.0
1,17.32800006866455,learn,42671.99993133545,Wed Nov 06 2024 13:46:17 GMT-0600 (Central Standard Time),185452.19999999553,A,window,I,w,144,2,1382.6999999955297,184069.5,8002,WL,B,7.0
1,17.76099991798401,learn,42239.00008201599,Wed Nov 06 2024 13:46:17 GMT-0600 (Central Standard Time),185885.19999999553,A,windowenter,I,enter,424,2,1815.6999999955297,184069.5,8002,WL,B,7.0
1,18.111000061035156,learn,41888.999938964844,Wed Nov 06 2024 13:46:17 GMT-0600 (Central Standard Time),186234.8999999985,A,w,I,w,344,2,349.30000000447035,185885.59999999404,8002,WL,B,8.0
1,18.47699999809265,learn,41523.00000190735,Wed Nov 06 2024 13:46:17 GMT-0600 (Central Standard Time),186601.3999999985,A,wi,I,i,354,2,715.8000000044703,185885.59999999404,8002,WL,B,8.0
1,18.877000093460083,learn,41122.99990653992,Wed Nov 06 2024 13:46:17 GMT-0600 (Central Standard Time),187001.5,A,wif,I,f,380,2,1115.9000000059605,185885.59999999404,8002,WL,B,8.0
1,19.194000005722046,learn,40805.999994277954,Wed Nov 06 2024 13:46:17 GMT-0600 (Central Standard Time),187318.0,A,wife,I,e,300,2,1432.4000000059605,185885.59999999404,8002,WL,B,8.0
1,19.694000005722046,learn,40305.999994277954,Wed Nov 06 2024 13:46:17 GMT-0600 (Central Standard Time),187817.8999999985,A,wifeenter,I,enter,480,2,1932.3000000044703,185885.59999999404,8002,WL,B,8.0
1,20.16000008583069,learn,39839.99991416931,Wed Nov 06 2024 13:46:17 GMT-0600 (Central Standard Time),188284.5,A,s,I,s,451,2,466.1000000014901,187818.3999999985,8002,WL,B,9.0
1,20.55999994277954,learn,39440.00005722046,Wed Nov 06 2024 13:46:17 GMT-0600 (Central Standard Time),188684.09999999404,A,st,I,t,393,2,865.6999999955297,187818.3999999985,8002,WL,B,9.0
1,21.009999990463257,learn,38990.00000953674,Wed Nov 06 2024 13:46:17 GMT-0600 (Central Standard Time),189134.09999999404,A,sta,I,a,442,2,1315.6999999955297,187818.3999999985,8002,WL,B,9.0
1,21.14299988746643,learn,38857.00011253357,Wed Nov 06 2024 13:46:17 GMT-0600 (Central Standard Time),189267.3999999985,A,star,I,r,127,2,1449.0,187818.3999999985,8002,WL,B,9.0
1,22.408999919891357,learn,37591.00008010864,Wed Nov 06 2024 13:46:17 GMT-0600 (Central Standard Time),190533.5,A,starenter,I,enter,1250,2,2715.10000000149,187818.3999999985,8002,WL,B,9.0
1,23.026000022888184,learn,36973.99997711182,Wed Nov 06 2024 13:46:17 GMT-0600 (Central Standard Time),191150.19999999553,A,p,I,p,600,2,616.2999999970198,190533.8999999985,8002,WL,B,10.0
1,23.441999912261963,learn,36558.00008773804,Wed Nov 06 2024 13:46:17 GMT-0600 (Central Standard Time),191566.69999999553,A,pu,I,u,407,2,1032.7999999970198,190533.8999999985,8002,WL,B,10.0
1,23.80900001525879,learn,36190.99998474121,Wed Nov 06 2024 13:46:17 GMT-0600 (Central Standard Time),191933.0,A,pup,I,p,359,2,1399.1000000014901,190533.8999999985,8002,WL,B,10.0
1,24.342000007629395,learn,35657.999992370605,Wed Nov 06 2024 13:46:17 GMT-0600 (Central Standard Time),192466.59999999404,A,pupi,I,i,513,2,1932.6999999955297,190533.8999999985,8002,WL,B,10.0
1,24.691999912261963,learn,35308.00008773804,Wed Nov 06 2024 13:46:17 GMT-0600 (Central Standard Time),192816.29999999702,A,pupil,I,l,331,2,2282.39999999851,190533.8999999985,8002,WL,B,10.0
1,26.44099998474121,learn,33559.00001525879,Wed Nov 06 2024 13:46:17 GMT-0600 (Central Standard Time),194565.69999999553,A,pupilenter,I,enter,1733,2,4031.7999999970198,190533.8999999985,8002,WL,B,10.0
1,30.006999969482422,learn,29993.000030517578,Wed Nov 06 2024 13:46:17 GMT-0600 (Central Standard Time),198131.5,A,f,I,f,3552,2,3565.4000000059605,194566.09999999404,8002,WL,B,11.0
1,32.305999994277954,learn,27694.000005722046,Wed Nov 06 2024 13:46:17 GMT-0600 (Central Standard Time),200430.5,A,,I,backspace,2282,2,5864.4000000059605,194566.09999999404,8002,WL,B,11.0
1,33.055999994277954,learn,26944.000005722046,Wed Nov 06 2024 13:46:17 GMT-0600 (Central Standard Time),201180.29999999702,A,c,I,c,743,2,6614.20000000298,194566.09999999404,8002,WL,B,11.0
1,33.223000049591064,learn,26776.999950408936,Wed Nov 06 2024 13:46:17 GMT-0600 (Central Standard Time),201346.79999999702,A,ca,I,a,161,2,6780.70000000298,194566.09999999404,8002,WL,B,11.0
1,33.40599989891052,learn,26594.000101089478,Wed Nov 06 2024 13:46:17 GMT-0600 (Central Standard Time),201529.8999999985,A,cai,I,i,179,2,6963.80000000447,194566.09999999404,8002,WL,B,11.0
1,33.555999994277954,learn,26444.000005722046,Wed Nov 06 2024 13:46:17 GMT-0600 (Central Standard Time),201680.29999999702,A,cain,I,n,131,2,7114.20000000298,194566.09999999404,8002,WL,B,11.0
1,34.57200002670288,learn,25427.99997329712,Wed Nov 06 2024 13:46:17 GMT-0600 (Central Standard Time),202696.5,A,cai,I,backspace,1005,2,8130.4000000059605,194566.09999999404,8002,WL,B,11.0
1,34.75600004196167,learn,25243.99995803833,Wed Nov 06 2024 13:46:17 GMT-0600 (Central Standard Time),202879.79999999702,A,ca,I,backspace,173,2,8313.70000000298,194566.09999999404,8002,WL,B,11.0
1,35.72199988365173,learn,24278.000116348267,Wed Nov 06 2024 13:46:17 GMT-0600 (Central Standard Time),203846.29999999702,A,cab,I,b,949,2,9280.20000000298,194566.09999999404,8002,WL,B,11.0
1,35.90499997138977,learn,24095.00002861023,Wed Nov 06 2024 13:46:17 GMT-0600 (Central Standard Time),204029.59999999404,A,cabi,I,i,167,2,9463.5,194566.09999999404,8002,WL,B,11.0
1,36.03800010681152,learn,23961.999893188477,Wed Nov 06 2024 13:46:17 GMT-0600 (Central Standard Time),204162.69999999553,A,cabin,I,n,112,2,9596.60000000149,194566.09999999404,8002,WL,B,11.0
1,36.53800010681152,learn,23461.999893188477,Wed Nov 06 2024 13:46:17 GMT-0600 (Central Standard Time),204662.59999999404,A,cabinenter,I,enter,483,2,10096.5,194566.09999999404,8002,WL,B,11.0
1,37.53800010681152,learn,22461.999893188477,Wed Nov 06 2024 13:46:17 GMT-0600 (Central Standard Time),205662.19999999553,A,l,I,l,983,2,999.1999999955297,204663.0,8002,WL,B,12.0
1,37.704999923706055,learn,22295.000076293945,Wed Nov 06 2024 13:46:17 GMT-0600 (Central Standard Time),205829.0,A,la,I,a,159,2,1166.0,204663.0,8002,WL,B,12.0
1,37.88800001144409,learn,22111.99998855591,Wed Nov 06 2024 13:46:17 GMT-0600 (Central Standard Time),206012.19999999553,A,lak,I,k,169,2,1349.1999999955297,204663.0,8002,WL,B,12.0
1,38.05399990081787,learn,21946.00009918213,Wed Nov 06 2024 13:46:17 GMT-0600 (Central Standard Time),206178.5,A,lake,I,e,161,2,1515.5,204663.0,8002,WL,B,12.0
1,38.65400004386902,learn,21345.99995613098,Wed Nov 06 2024 13:46:17 GMT-0600 (Central Standard Time),206778.5,A,lakeenter,I,enter,595,2,2115.5,204663.0,8002,WL,B,12.0
1,43.503000020980835,learn,16496.999979019165,Wed Nov 06 2024 13:46:17 GMT-0600 (Central Standard Time),211626.79999999702,A,d,I,d,4843,2,4848.10000000149,206778.69999999553,8002,WL,B,13.0
1,43.819000005722046,learn,16180.999994277954,Wed Nov 06 2024 13:46:17 GMT-0600 (Central Standard Time),211943.59999999404,A,do,I,o,307,2,5164.89999999851,206778.69999999553,8002,WL,B,13.0
1,44.01900005340576,learn,15980.999946594238,Wed Nov 06 2024 13:46:17 GMT-0600 (Central Standard Time),212143.3999999985,A,doo,I,o,182,2,5364.70000000298,206778.69999999553,8002,WL,B,13.0
1,44.18600010871887,learn,15813.999891281128,Wed Nov 06 2024 13:46:17 GMT-0600 (Central Standard Time),212310.19999999553,A,door,I,r,158,2,5531.5,206778.69999999553,8002,WL,B,13.0
1,44.569000005722046,learn,15430.999994277954,Wed Nov 06 2024 13:46:17 GMT-0600 (Central Standard Time),212693.29999999702,A,doorenter,I,enter,368,2,5914.60000000149,206778.69999999553,8002,WL,B,13.0
1,52.76699995994568,learn,7233.000040054321,Wed Nov 06 2024 13:46:17 GMT-0600 (Central Standard Time),220891.0,A,n,I,n,8184,2,8197.40000000596,212693.59999999404,8002,WL,B,14.0
1,52.91700005531311,learn,7082.99994468689,Wed Nov 06 2024 13:46:17 GMT-0600 (Central Standard Time),221040.79999999702,A,ni,I,i,138,2,8347.20000000298,212693.59999999404,8002,WL,B,14.0
1,53.049999952316284,learn,6950.000047683716,Wed Nov 06 2024 13:46:17 GMT-0600 (Central Standard Time),221174.3999999985,A,nig,I,g,117,2,8480.80000000447,212693.59999999404,8002,WL,B,14.0
1,53.18300008773804,learn,6816.999912261963,Wed Nov 06 2024 13:46:17 GMT-0600 (Central Standard Time),221307.09999999404,A,nigh,I,h,127,2,8613.5,212693.59999999404,8002,WL,B,14.0
1,53.365999937057495,learn,6634.000062942505,Wed Nov 06 2024 13:46:17 GMT-0600 (Central Standard Time),221490.59999999404,A,night,I,t,163,2,8797.0,212693.59999999404,8002,WL,B,14.0
1,53.75,learn,6250.0,Wed Nov 06 2024 13:46:17 GMT-0600 (Central Standard Time),221873.8999999985,A,nightenter,I,enter,371,2,9180.30000000447,212693.59999999404,8002,WL,B,14.0
1,60.013999938964844,learn,-13.99993896484375,Wed Nov 06 2024 13:46:17 GMT-0600 (Central Standard Time),228138.3999999985,A,None,I,None,6259,2,6264.10000000149,221874.29999999702,8002,WL,B,15.0
2,1.315999984741211,learn,58684.00001525879,Wed Nov 06 2024 13:46:17 GMT-0600 (Central Standard Time),300315.59999999404,A,p,I,p,1310,2,1316.0,298999.59999999404,8002,WL,B,1.0
2,2.0820000171661377,learn,57917.99998283386,Wed Nov 06 2024 13:46:17 GMT-0600 (Central Standard Time),301082.09999999404,A,pi,I,i,746,2,2082.5,298999.59999999404,8002,WL,B,1.0
2,2.381999969482422,learn,57618.00003051758,Wed Nov 06 2024 13:46:17 GMT-0600 (Central Standard Time),301382.0,A,pip,I,p,283,2,2382.4000000059605,298999.59999999404,8002,WL,B,1.0
2,3.381999969482422,learn,56618.00003051758,Wed Nov 06 2024 13:46:17 GMT-0600 (Central Standard Time),302381.799999997,A,pipe,I,e,983,2,3382.2000000029802,298999.59999999404,8002,WL,B,1.0
2,4.697999954223633,learn,55302.00004577637,Wed Nov 06 2024 13:46:17 GMT-0600 (Central Standard Time),303698.0,A,pipeenter,I,enter,1311,2,4698.4000000059605,298999.59999999404,8002,WL,B,1.0
2,5.265000104904175,learn,54734.999895095825,Wed Nov 06 2024 13:46:17 GMT-0600 (Central Standard Time),304264.299999997,A,s,I,s,547,2,566.1000000014901,303698.19999999553,8002,WL,B,2.0
2,5.4649999141693115,learn,54535.00008583069,Wed Nov 06 2024 13:46:17 GMT-0600 (Central Standard Time),304464.299999997,A,sk,I,k,179,2,766.1000000014901,303698.19999999553,8002,WL,B,2.0
2,5.730999946594238,learn,54269.00005340576,Wed Nov 06 2024 13:46:17 GMT-0600 (Central Standard Time),304730.69999999553,A,ski,I,i,261,2,1032.5,303698.19999999553,8002,WL,B,2.0
2,5.88100004196167,learn,54118.99995803833,Wed Nov 06 2024 13:46:17 GMT-0600 (Central Standard Time),304880.69999999553,A,skin,I,n,136,2,1182.5,303698.19999999553,8002,WL,B,2.0
2,6.430999994277954,learn,53569.000005722046,Wed Nov 06 2024 13:46:17 GMT-0600 (Central Standard Time),305430.69999999553,A,skinenter,I,enter,541,2,1732.5,303698.19999999553,8002,WL,B,2.0
2,6.897000074386597,learn,53102.9999256134,Wed Nov 06 2024 13:46:17 GMT-0600 (Central Standard Time),305897.09999999404,A,c,I,c,446,2,466.09999999403954,305431.0,8002,WL,B,3.0
2,7.0309998989105225,learn,52969.00010108948,Wed Nov 06 2024 13:46:17 GMT-0600 (Central Standard Time),306030.3999999985,A,cl,I,l,115,2,599.3999999985099,305431.0,8002,WL,B,3.0
2,7.263999938964844,learn,52736.000061035156,Wed Nov 06 2024 13:46:17 GMT-0600 (Central Standard Time),306263.59999999404,A,clo,I,o,223,2,832.5999999940395,305431.0,8002,WL,B,3.0
2,7.430999994277954,learn,52569.000005722046,Wed Nov 06 2024 13:46:17 GMT-0600 (Central Standard Time),306430.299999997,A,cloc,I,c,148,2,999.2999999970198,305431.0,8002,WL,B,3.0
2,7.563999891281128,learn,52436.00010871887,Wed Nov 06 2024 13:46:17 GMT-0600 (Central Standard Time),306563.59999999404,A,clock,I,k,126,2,1132.5999999940395,305431.0,8002,WL,B,3.0
2,8.414000034332275,learn,51585.999965667725,Wed Nov 06 2024 13:46:17 GMT-0600 (Central Standard Time),307413.299999997,A,clockenter,I,enter,833,2,1982.2999999970198,305431.0,8002,WL,B,3.0
2,10.096999883651733,learn,49903.00011634827,Wed Nov 06 2024 13:46:17 GMT-0600 (Central Standard Time),309096.299999997,A,g,I,g,1663,2,1682.7000000029802,307413.59999999404,8002,WL,B,4.0
2,10.413000106811523,learn,49586.99989318848,Wed Nov 06 2024 13:46:17 GMT-0600 (Central Standard Time),309412.69999999553,A,gr,I,r,301,2,1999.1000000014901,307413.59999999404,8002,WL,B,4.0
2,10.845999956130981,learn,49154.00004386902,Wed Nov 06 2024 13:46:17 GMT-0600 (Central Standard Time),309845.8999999985,A,gra,I,a,425,2,2432.3000000044703,307413.59999999404,8002,WL,B,4.0
2,11.479000091552734,learn,48520.999908447266,Wed Nov 06 2024 13:46:17 GMT-0600 (Central Standard Time),310479.0,A,gras,I,s,615,2,3065.4000000059605,307413.59999999404,8002,WL,B,4.0
2,11.746000051498413,learn,48253.99994850159,Wed Nov 06 2024 13:46:17 GMT-0600 (Central Standard Time),310745.5,A,grass,I,s,254,2,3331.9000000059605,307413.59999999404,8002,WL,B,4.0
2,12.163000106811523,learn,47836.99989318848,Wed Nov 06 2024 13:46:17 GMT-0600 (Central Standard Time),311162.299999997,A,grassenter,I,enter,404,2,3748.7000000029802,307413.59999999404,8002,WL,B,4.0
2,13.26200008392334,learn,46737.99991607666,Wed Nov 06 2024 13:46:17 GMT-0600 (Central Standard Time),312262.0,A,c,I,c,1082,2,1099.4000000059605,311162.59999999404,8002,WL,B,5.0
2,13.70799994468689,learn,46292.00005531311,Wed Nov 06 2024 13:46:17 GMT-0600 (Central Standard Time),312707.3999999985,A,ci,I,i,422,2,1544.8000000044703,311162.59999999404,8002,WL,B,5.0
2,13.878999948501587,learn,46121.00005149841,Wed Nov 06 2024 13:46:17 GMT-0600 (Central Standard Time),312878.299999997,A,cit,I,t,153,2,1715.7000000029802,311162.59999999404,8002,WL,B,5.0
2,14.111999988555908,learn,45888.00001144409,Wed Nov 06 2024 13:46:17 GMT-0600 (Central Standard Time),313111.3999999985,A,city,I,y,214,2,1948.8000000044703,311162.59999999404,8002,WL,B,5.0
2,14.913000106811523,learn,45086.99989318848,Wed Nov 06 2024 13:46:17 GMT-0600 (Central Standard Time),313912.5,A,cityenter,I,enter,790,2,2749.9000000059605,311162.59999999404,8002,WL,B,5.0
2,15.17799997329712,learn,44822.00002670288,Wed Nov 06 2024 13:46:17 GMT-0600 (Central Standard Time),314177.8999999985,A,s,I,s,252,2,265.1000000014901,313912.799999997,8002,WL,B,6.0
2,15.528000116348267,learn,44471.99988365173,Wed Nov 06 2024 13:46:17 GMT-0600 (Central Standard Time),314527.69999999553,A,st,I,t,338,2,614.8999999985099,313912.799999997,8002,WL,B,6.0
2,15.811000108718872,learn,44188.99989128113,Wed Nov 06 2024 13:46:17 GMT-0600 (Central Standard Time),314811.09999999404,A,str,I,r,269,2,898.2999999970198,313912.799999997,8002,WL,B,6.0
2,16.128000020980835,learn,43871.999979019165,Wed Nov 06 2024 13:46:17 GMT-0600 (Central Standard Time),315127.799999997,A,stre,I,e,304,2,1215.0,313912.799999997,8002,WL,B,6.0
2,16.378000020980835,learn,43621.999979019165,Wed Nov 06 2024 13:46:17 GMT-0600 (Central Standard Time),315377.69999999553,A,stree,I,e,229,2,1464.8999999985099,313912.799999997,8002,WL,B,6.0
2,16.710999965667725,learn,43289.000034332275,Wed Nov 06 2024 13:46:17 GMT-0600 (Central Standard Time),315710.8999999985,A,street,I,t,323,2,1798.1000000014901,313912.799999997,8002,WL,B,6.0
2,17.227999925613403,learn,42772.0000743866,Wed Nov 06 2024 13:46:17 GMT-0600 (Central Standard Time),316227.3999999985,A,streetenter,I,enter,503,2,2314.60000000149,313912.799999997,8002,WL,B,6.0
2,17.844000101089478,learn,42155.99989891052,Wed Nov 06 2024 13:46:17 GMT-0600 (Central Standard Time),316843.69999999553,A,s,I,s,602,2,615.8999999985099,316227.799999997,8002,WL,B,7.0
2,18.161999940872192,learn,41838.00005912781,Wed Nov 06 2024 13:46:17 GMT-0600 (Central Standard Time),317161.19999999553,A,st,I,t,305,2,933.3999999985099,316227.799999997,8002,WL,B,7.0
2,18.41100001335144,learn,41588.99998664856,Wed Nov 06 2024 13:46:17 GMT-0600 (Central Standard Time),317410.19999999553,A,sta,I,a,236,2,1182.3999999985099,316227.799999997,8002,WL,B,7.0
2,18.526999950408936,learn,41473.000049591064,Wed Nov 06 2024 13:46:17 GMT-0600 (Central Standard Time),317526.69999999553,A,star,I,r,99,2,1298.8999999985099,316227.799999997,8002,WL,B,7.0
2,19.377000093460083,learn,40622.99990653992,Wed Nov 06 2024 13:46:17 GMT-0600 (Central Standard Time),318376.5,A,starenter,I,enter,831,2,2148.7000000029802,316227.799999997,8002,WL,B,7.0
2,19.89400005340576,learn,40105.99994659424,Wed Nov 06 2024 13:46:17 GMT-0600 (Central Standard Time),318893.3999999985,A,p,I,p,501,2,516.6000000014901,318376.799999997,8002,WL,B,8.0
2,20.293999910354614,learn,39706.000089645386,Wed Nov 06 2024 13:46:17 GMT-0600 (Central Standard Time),319293.09999999404,A,pu,I,u,383,2,916.2999999970198,318376.799999997,8002,WL,B,8.0
2,20.509999990463257,learn,39490.00000953674,Wed Nov 06 2024 13:46:17 GMT-0600 (Central Standard Time),319509.3999999985,A,pup,I,p,208,2,1132.6000000014901,318376.799999997,8002,WL,B,8.0
2,20.759999990463257,learn,39240.00000953674,Wed Nov 06 2024 13:46:17 GMT-0600 (Central Standard Time),319759.59999999404,A,pupi,I,i,240,2,1382.7999999970198,318376.799999997,8002,WL,B,8.0
2,21.042999982833862,learn,38957.00001716614,Wed Nov 06 2024 13:46:17 GMT-0600 (Central Standard Time),320042.799999997,A,pupil,I,l,270,2,1666.0,318376.799999997,8002,WL,B,8.0
2,21.425999879837036,learn,38574.000120162964,Wed Nov 06 2024 13:46:17 GMT-0600 (Central Standard Time),320426.0,A,pupilenter,I,enter,370,2,2049.2000000029802,318376.799999997,8002,WL,B,8.0
2,22.425999879837036,learn,37574.000120162964,Wed Nov 06 2024 13:46:17 GMT-0600 (Central Standard Time),321425.69999999553,A,c,I,c,987,2,999.3999999985099,320426.299999997,8002,WL,B,9.0
2,22.608999967575073,learn,37391.00003242493,Wed Nov 06 2024 13:46:17 GMT-0600 (Central Standard Time),321609.0,A,ca,I,a,171,2,1182.7000000029802,320426.299999997,8002,WL,B,9.0
2,22.95900011062622,learn,37040.99988937378,Wed Nov 06 2024 13:46:17 GMT-0600 (Central Standard Time),321958.8999999985,A,cab,I,b,341,2,1532.6000000014901,320426.299999997,8002,WL,B,9.0
2,23.108999967575073,learn,36891.00003242493,Wed Nov 06 2024 13:46:17 GMT-0600 (Central Standard Time),322108.8999999985,A,cabi,I,i,134,2,1682.6000000014901,320426.299999997,8002,WL,B,9.0
2,23.243000030517578,learn,36756.99996948242,Wed Nov 06 2024 13:46:17 GMT-0600 (Central Standard Time),322242.09999999404,A,cabin,I,n,129,2,1815.7999999970198,320426.299999997,8002,WL,B,9.0
2,23.875999927520752,learn,36124.00007247925,Wed Nov 06 2024 13:46:17 GMT-0600 (Central Standard Time),322875.19999999553,A,cabinenter,I,enter,627,2,2448.89999999851,320426.299999997,8002,WL,B,9.0
2,24.759000062942505,learn,35240.999937057495,Wed Nov 06 2024 13:46:17 GMT-0600 (Central Standard Time),323758.19999999553,A,f,I,f,874,2,882.7999999970198,322875.3999999985,8002,WL,B,10.0
2,24.97499990463257,learn,35025.00009536743,Wed Nov 06 2024 13:46:17 GMT-0600 (Central Standard Time),323974.799999997,A,fi,I,i,198,2,1099.3999999985099,322875.3999999985,8002,WL,B,10.0
2,25.125,learn,34875.0,Wed Nov 06 2024 13:46:17 GMT-0600 (Central Standard Time),324124.59999999404,A,fir,I,r,142,2,1249.1999999955297,322875.3999999985,8002,WL,B,10.0
2,25.407999992370605,learn,34592.000007629395,Wed Nov 06 2024 13:46:17 GMT-0600 (Central Standard Time),324407.8999999985,A,fire,I,e,264,2,1532.5,322875.3999999985,8002,WL,B,10.0
2,26.39199995994568,learn,33608.00004005432,Wed Nov 06 2024 13:46:17 GMT-0600 (Central Standard Time),325391.19999999553,A,fireenter,I,enter,972,2,2515.7999999970198,322875.3999999985,8002,WL,B,10.0
2,26.757999897003174,learn,33242.000102996826,Wed Nov 06 2024 13:46:17 GMT-0600 (Central Standard Time),325757.799999997,A,d,I,d,349,2,366.20000000298023,325391.59999999404,8002,WL,B,11.0
2,27.058000087738037,learn,32941.99991226196,Wed Nov 06 2024 13:46:17 GMT-0600 (Central Standard Time),326057.59999999404,A,do,I,o,279,2,666.0,325391.59999999404,8002,WL,B,11.0
2,27.22499990463257,learn,32775.00009536743,Wed Nov 06 2024 13:46:17 GMT-0600 (Central Standard Time),326224.19999999553,A,doo,I,o,147,2,832.6000000014901,325391.59999999404,8002,WL,B,11.0
2,27.375,learn,32625.0,Wed Nov 06 2024 13:46:17 GMT-0600 (Central Standard Time),326374.09999999404,A,door,I,r,133,2,982.5,325391.59999999404,8002,WL,B,11.0
2,27.723999977111816,learn,32276.000022888184,Wed Nov 06 2024 13:46:17 GMT-0600 (Central Standard Time),326724.09999999404,A,doorenter,I,enter,342,2,1332.5,325391.59999999404,8002,WL,B,11.0
2,28.04099988937378,learn,31959.00011062622,Wed Nov 06 2024 13:46:17 GMT-0600 (Central Standard Time),327040.5,A,w,I,w,296,2,316.20000000298023,326724.299999997,8002,WL,B,12.0
2,28.2739999294281,learn,31726.0000705719,Wed Nov 06 2024 13:46:17 GMT-0600 (Central Standard Time),327273.799999997,A,wi,I,i,212,2,549.5,326724.299999997,8002,WL,B,12.0
2,28.44099998474121,learn,31559.00001525879,Wed Nov 06 2024 13:46:17 GMT-0600 (Central Standard Time),327440.59999999404,A,win,I,n,155,2,716.2999999970198,326724.299999997,8002,WL,B,12.0
2,28.657999992370605,learn,31342.000007629395,Wed Nov 06 2024 13:46:17 GMT-0600 (Central Standard Time),327657.19999999553,A,wind,I,d,204,2,932.8999999985099,326724.299999997,8002,WL,B,12.0
2,28.907000064849854,learn,31092.999935150146,Wed Nov 06 2024 13:46:17 GMT-0600 (Central Standard Time),327906.8999999985,A,windp,I,p,244,2,1182.6000000014901,326724.299999997,8002,WL,B,12.0
2,29.990000009536743,learn,30009.999990463257,Wed Nov 06 2024 13:46:17 GMT-0600 (Central Standard Time),328990.09999999404,A,wind,I,backspace,1064,2,2265.7999999970198,326724.299999997,8002,WL,B,12.0
2,30.323999881744385,learn,29676.000118255615,Wed Nov 06 2024 13:46:17 GMT-0600 (Central Standard Time),329323.09999999404,A,windo,I,o,327,2,2598.7999999970198,326724.299999997,8002,WL,B,12.0
2,30.457000017166138,learn,29542.999982833862,Wed Nov 06 2024 13:46:17 GMT-0600 (Central Standard Time),329456.3999999985,A,window,I,w,122,2,2732.10000000149,326724.299999997,8002,WL,B,12.0
2,31.08999991416931,learn,28910.00008583069,Wed Nov 06 2024 13:46:17 GMT-0600 (Central Standard Time),330089.799999997,A,windowenter,I,enter,619,2,3365.5,326724.299999997,8002,WL,B,12.0
2,33.456000089645386,learn,26543.999910354614,Wed Nov 06 2024 13:46:17 GMT-0600 (Central Standard Time),332455.59999999404,A,a,I,a,2356,2,2365.6999999955297,330089.8999999985,8002,WL,B,13.0
2,33.68899989128113,learn,26311.000108718872,Wed Nov 06 2024 13:46:17 GMT-0600 (Central Standard Time),332688.8999999985,A,ar,I,r,221,2,2599.0,330089.8999999985,8002,WL,B,13.0
2,33.82299995422363,learn,26177.000045776367,Wed Nov 06 2024 13:46:17 GMT-0600 (Central Standard Time),332822.09999999404,A,arm,I,m,124,2,2732.1999999955297,330089.8999999985,8002,WL,B,13.0
2,34.32200002670288,learn,25677.99997329712,Wed Nov 06 2024 13:46:17 GMT-0600 (Central Standard Time),333322.09999999404,A,armenter,I,enter,495,2,3232.1999999955297,330089.8999999985,8002,WL,B,13.0
2,60.013999938964844,learn,-13.99993896484375,Wed Nov 06 2024 13:46:17 GMT-0600 (Central Standard Time),359014.0,A,None,I,None,25687,2,25691.60000000149,333322.3999999985,8002,WL,B,14.0
3,1.0649998188018799,learn,58935.00018119812,Wed Nov 06 2024 13:46:17 GMT-0600 (Central Standard Time),437972.59999999404,A,f,I,f,1050,2,1064.7999999970198,436907.799999997,8002,WL,B,1.0
3,1.2149999141693115,learn,58785.00008583069,Wed Nov 06 2024 13:46:17 GMT-0600 (Central Standard Time),438122.5,A,fi,I,i,130,2,1214.7000000029802,436907.799999997,8002,WL,B,1.0
3,1.5479998588562012,learn,58452.0001411438,Wed Nov 06 2024 13:46:17 GMT-0600 (Central Standard Time),438456.0,A,fir,I,r,323,2,1548.2000000029802,436907.799999997,8002,WL,B,1.0
3,1.7979998588562012,learn,58202.0001411438,Wed Nov 06 2024 13:46:17 GMT-0600 (Central Standard Time),438705.799999997,A,fire,I,e,237,2,1798.0,436907.799999997,8002,WL,B,1.0
3,2.56499981880188,learn,57435.00018119812,Wed Nov 06 2024 13:46:17 GMT-0600 (Central Standard Time),439472.19999999553,A,fireenter,I,enter,755,2,2564.39999999851,436907.799999997,8002,WL,B,1.0
3,3.047999858856201,learn,56952.0001411438,Wed Nov 06 2024 13:46:17 GMT-0600 (Central Standard Time),439955.59999999404,A,p,I,p,470,2,483.19999999552965,439472.3999999985,8002,WL,B,2.0
3,3.497999906539917,learn,56502.00009346008,Wed Nov 06 2024 13:46:17 GMT-0600 (Central Standard Time),440405.3999999985,A,pi,I,i,442,2,933.0,439472.3999999985,8002,WL,B,2.0
3,4.480999946594238,learn,55519.00005340576,Wed Nov 06 2024 13:46:17 GMT-0600 (Central Standard Time),441388.59999999404,A,pip,I,p,968,2,1916.1999999955297,439472.3999999985,8002,WL,B,2.0
3,4.697000026702881,learn,55302.99997329712,Wed Nov 06 2024 13:46:17 GMT-0600 (Central Standard Time),441605.0,A,pipe,I,e,201,2,2132.60000000149,439472.3999999985,8002,WL,B,2.0
3,4.947000026702881,learn,55052.99997329712,Wed Nov 06 2024 13:46:17 GMT-0600 (Central Standard Time),441854.8999999985,A,pipeenter,I,enter,240,2,2382.5,439472.3999999985,8002,WL,B,2.0
3,5.7799999713897705,learn,54220.00002861023,Wed Nov 06 2024 13:46:17 GMT-0600 (Central Standard Time),442688.0,A,c,I,c,823,2,832.7000000029802,441855.299999997,8002,WL,B,3.0
3,5.914000034332275,learn,54085.999965667725,Wed Nov 06 2024 13:46:17 GMT-0600 (Central Standard Time),442821.299999997,A,cl,I,l,126,2,966.0,441855.299999997,8002,WL,B,3.0
3,6.146999835968018,learn,53853.00016403198,Wed Nov 06 2024 13:46:17 GMT-0600 (Central Standard Time),443054.5,A,clo,I,o,216,2,1199.2000000029802,441855.299999997,8002,WL,B,3.0
3,6.296999931335449,learn,53703.00006866455,Wed Nov 06 2024 13:46:17 GMT-0600 (Central Standard Time),443204.5,A,cloc,I,c,143,2,1349.2000000029802,441855.299999997,8002,WL,B,3.0
3,6.429999828338623,learn,53570.00017166138,Wed Nov 06 2024 13:46:17 GMT-0600 (Central Standard Time),443337.69999999553,A,clock,I,k,113,2,1482.3999999985099,441855.299999997,8002,WL,B,3.0
3,7.11299991607666,learn,52887.00008392334,Wed Nov 06 2024 13:46:17 GMT-0600 (Central Standard Time),444020.799999997,A,clockenter,I,enter,676,2,2165.5,441855.299999997,8002,WL,B,3.0
3,8.212999820709229,learn,51787.00017929077,Wed Nov 06 2024 13:46:17 GMT-0600 (Central Standard Time),445120.3999999985,A,g,I,g,1080,2,1099.1000000014901,444021.299999997,8002,WL,B,4.0
3,8.480000019073486,learn,51519.999980926514,Wed Nov 06 2024 13:46:17 GMT-0600 (Central Standard Time),445387.09999999404,A,gr,I,r,253,2,1365.7999999970198,444021.299999997,8002,WL,B,4.0
3,8.728999853134155,learn,51271.000146865845,Wed Nov 06 2024 13:46:17 GMT-0600 (Central Standard Time),445636.8999999985,A,gra,I,a,235,2,1615.6000000014901,444021.299999997,8002,WL,B,4.0
3,8.94599986076355,learn,51054.00013923645,Wed Nov 06 2024 13:46:17 GMT-0600 (Central Standard Time),445853.5,A,gras,I,s,201,2,1832.2000000029802,444021.299999997,8002,WL,B,4.0
3,9.246000051498413,learn,50753.99994850159,Wed Nov 06 2024 13:46:17 GMT-0600 (Central Standard Time),446153.59999999404,A,grass,I,s,288,2,2132.2999999970198,444021.299999997,8002,WL,B,4.0
3,9.779000043869019,learn,50220.99995613098,Wed Nov 06 2024 13:46:17 GMT-0600 (Central Standard Time),446686.59999999404,A,grassenter,I,enter,516,2,2665.2999999970198,444021.299999997,8002,WL,B,4.0
3,10.062000036239624,learn,49937.999963760376,Wed Nov 06 2024 13:46:17 GMT-0600 (Central Standard Time),446969.799999997,A,s,I,s,263,2,282.8999999985099,446686.8999999985,8002,WL,B,5.0
3,10.395999908447266,learn,49604.000091552734,Wed Nov 06 2024 13:46:17 GMT-0600 (Central Standard Time),447303.09999999404,A,st,I,t,324,2,616.1999999955297,446686.8999999985,8002,WL,B,5.0
3,10.678999900817871,learn,49321.00009918213,Wed Nov 06 2024 13:46:17 GMT-0600 (Central Standard Time),447586.69999999553,A,str,I,r,262,2,899.7999999970198,446686.8999999985,8002,WL,B,5.0
3,10.944999933242798,learn,49055.0000667572,Wed Nov 06 2024 13:46:17 GMT-0600 (Central Standard Time),447853.0,A,stre,I,e,259,2,1166.1000000014901,446686.8999999985,8002,WL,B,5.0
3,11.128000020980835,learn,48871.999979019165,Wed Nov 06 2024 13:46:17 GMT-0600 (Central Standard Time),448036.09999999404,A,stree,I,e,177,2,1349.1999999955297,446686.8999999985,8002,WL,B,5.0
3,11.394999980926514,learn,48605.000019073486,Wed Nov 06 2024 13:46:17 GMT-0600 (Central Standard Time),448302.69999999553,A,street,I,t,249,2,1615.7999999970198,446686.8999999985,8002,WL,B,5.0
3,11.861999988555908,learn,48138.00001144409,Wed Nov 06 2024 13:46:17 GMT-0600 (Central Standard Time),448769.299999997,A,streetenter,I,enter,447,2,2082.39999999851,446686.8999999985,8002,WL,B,5.0
3,12.26199984550476,learn,47738.00015449524,Wed Nov 06 2024 13:46:17 GMT-0600 (Central Standard Time),449169.19999999553,A,a,I,a,380,2,399.6000000014901,448769.59999999404,8002,WL,B,6.0
3,12.41100001335144,learn,47588.99998664856,Wed Nov 06 2024 13:46:17 GMT-0600 (Central Standard Time),449319.0,A,ar,I,r,140,2,549.4000000059605,448769.59999999404,8002,WL,B,6.0
3,12.794999837875366,learn,47205.000162124634,Wed Nov 06 2024 13:46:17 GMT-0600 (Central Standard Time),449702.19999999553,A,arm,I,m,375,2,932.6000000014901,448769.59999999404,8002,WL,B,6.0
3,13.227999925613403,learn,46772.0000743866,Wed Nov 06 2024 13:46:17 GMT-0600 (Central Standard Time),450135.19999999553,A,armenter,I,enter,423,2,1365.6000000014901,448769.59999999404,8002,WL,B,6.0
3,13.562000036239624,learn,46437.999963760376,Wed Nov 06 2024 13:46:17 GMT-0600 (Central Standard Time),450469.8999999985,A,d,I,d,318,2,334.30000000447035,450135.59999999404,8002,WL,B,7.0
3,13.760999917984009,learn,46239.00008201599,Wed Nov 06 2024 13:46:17 GMT-0600 (Central Standard Time),450668.69999999553,A,do,I,o,192,2,533.1000000014901,450135.59999999404,8002,WL,B,7.0
3,13.92799997329712,learn,46072.00002670288,Wed Nov 06 2024 13:46:17 GMT-0600 (Central Standard Time),450835.19999999553,A,doo,I,o,161,2,699.6000000014901,450135.59999999404,8002,WL,B,7.0
3,14.227999925613403,learn,45772.0000743866,Wed Nov 06 2024 13:46:17 GMT-0600 (Central Standard Time),451135.09999999404,A,door,I,r,291,2,999.5,450135.59999999404,8002,WL,B,7.0
3,14.66100001335144,learn,45338.99998664856,Wed Nov 06 2024 13:46:17 GMT-0600 (Central Standard Time),451568.3999999985,A,doorenter,I,enter,422,2,1432.8000000044703,450135.59999999404,8002,WL,B,7.0
3,15.476999998092651,learn,44523.00000190735,Wed Nov 06 2024 13:46:17 GMT-0600 (Central Standard Time),452384.8999999985,A,w,I,w,797,2,816.1000000014901,451568.799999997,8002,WL,B,8.0
3,15.643999814987183,learn,44356.00018501282,Wed Nov 06 2024 13:46:17 GMT-0600 (Central Standard Time),452551.09999999404,A,wi,I,i,149,2,982.2999999970198,451568.799999997,8002,WL,B,8.0
3,15.810999870300293,learn,44189.00012969971,Wed Nov 06 2024 13:46:17 GMT-0600 (Central Standard Time),452718.299999997,A,win,I,n,159,2,1149.5,451568.799999997,8002,WL,B,8.0
3,15.960999965667725,learn,44039.000034332275,Wed Nov 06 2024 13:46:17 GMT-0600 (Central Standard Time),452868.19999999553,A,wind,I,d,143,2,1299.3999999985099,451568.799999997,8002,WL,B,8.0
3,16.109999895095825,learn,43890.000104904175,Wed Nov 06 2024 13:46:17 GMT-0600 (Central Standard Time),453018.09999999404,A,windo,I,o,137,2,1449.2999999970198,451568.799999997,8002,WL,B,8.0
3,16.24399995803833,learn,43756.00004196167,Wed Nov 06 2024 13:46:17 GMT-0600 (Central Standard Time),453151.299999997,A,window,I,w,123,2,1582.5,451568.799999997,8002,WL,B,8.0
3,16.526999950408936,learn,43473.000049591064,Wed Nov 06 2024 13:46:17 GMT-0600 (Central Standard Time),453434.5,A,windowenter,I,enter,263,2,1865.7000000029802,451568.799999997,8002,WL,B,8.0
3,16.9229998588562,learn,43077.0001411438,Wed Nov 06 2024 13:46:17 GMT-0600 (Central Standard Time),453830.59999999404,A,w,I,w,391,2,395.69999999552965,453434.8999999985,8002,WL,B,9.0
3,17.126999855041504,learn,42873.000144958496,Wed Nov 06 2024 13:46:17 GMT-0600 (Central Standard Time),454034.299999997,A,wi,I,i,198,2,599.3999999985099,453434.8999999985,8002,WL,B,9.0
3,17.292999982833862,learn,42707.00001716614,Wed Nov 06 2024 13:46:17 GMT-0600 (Central Standard Time),454201.0,A,wif,I,f,148,2,766.1000000014901,453434.8999999985,8002,WL,B,9.0
3,17.427000045776367,learn,42572.99995422363,Wed Nov 06 2024 13:46:17 GMT-0600 (Central Standard Time),454334.3999999985,A,wife,I,e,117,2,899.5,453434.8999999985,8002,WL,B,9.0
3,18.009999990463257,learn,41990.00000953674,Wed Nov 06 2024 13:46:17 GMT-0600 (Central Standard Time),454917.3999999985,A,wifeenter,I,enter,567,2,1482.5,453434.8999999985,8002,WL,B,9.0
3,18.509999990463257,learn,41490.00000953674,Wed Nov 06 2024 13:46:17 GMT-0600 (Central Standard Time),455417.3999999985,A,p,I,p,480,2,499.70000000298023,454917.69999999553,8002,WL,B,10.0
3,19.026000022888184,learn,40973.99997711182,Wed Nov 06 2024 13:46:17 GMT-0600 (Central Standard Time),455933.69999999553,A,pu,I,u,508,2,1016.0,454917.69999999553,8002,WL,B,10.0
3,19.425999879837036,learn,40574.000120162964,Wed Nov 06 2024 13:46:17 GMT-0600 (Central Standard Time),456333.5,A,pup,I,p,392,2,1415.8000000044703,454917.69999999553,8002,WL,B,10.0
3,19.758999824523926,learn,40241.000175476074,Wed Nov 06 2024 13:46:17 GMT-0600 (Central Standard Time),456666.799999997,A,pupi,I,i,328,2,1749.1000000014901,454917.69999999553,8002,WL,B,10.0
3,20.092000007629395,learn,39907.999992370605,Wed Nov 06 2024 13:46:17 GMT-0600 (Central Standard Time),457000.09999999404,A,pupil,I,l,323,2,2082.39999999851,454917.69999999553,8002,WL,B,10.0
3,21.22599983215332,learn,38774.00016784668,Wed Nov 06 2024 13:46:17 GMT-0600 (Central Standard Time),458133.09999999404,A,pupilenter,I,enter,1117,2,3215.39999999851,454917.69999999553,8002,WL,B,10.0
3,24.490999937057495,learn,35509.000062942505,Wed Nov 06 2024 13:46:17 GMT-0600 (Central Standard Time),461398.69999999553,A,c,I,c,3256,2,3265.2999999970198,458133.3999999985,8002,WL,B,11.0
3,24.7739999294281,learn,35226.0000705719,Wed Nov 06 2024 13:46:17 GMT-0600 (Central Standard Time),461681.8999999985,A,ca,I,a,271,2,3548.5,458133.3999999985,8002,WL,B,11.0
3,25.006999969482422,learn,34993.00003051758,Wed Nov 06 2024 13:46:17 GMT-0600 (Central Standard Time),461915.09999999404,A,cab,I,b,219,2,3781.6999999955297,458133.3999999985,8002,WL,B,11.0
3,25.141000032424927,learn,34858.99996757507,Wed Nov 06 2024 13:46:17 GMT-0600 (Central Standard Time),462048.5,A,cabi,I,i,115,2,3915.10000000149,458133.3999999985,8002,WL,B,11.0
3,25.240999937057495,learn,34759.000062942505,Wed Nov 06 2024 13:46:17 GMT-0600 (Central Standard Time),462148.69999999553,A,cabin,I,n,85,2,4015.2999999970198,458133.3999999985,8002,WL,B,11.0
3,25.691999912261963,learn,34308.00008773804,Wed Nov 06 2024 13:46:17 GMT-0600 (Central Standard Time),462599.3999999985,A,cabinenter,I,enter,441,2,4466.0,458133.3999999985,8002,WL,B,11.0
3,26.29099988937378,learn,33709.00011062622,Wed Nov 06 2024 13:46:17 GMT-0600 (Central Standard Time),463198.19999999553,A,l,I,l,590,2,598.3999999985099,462599.799999997,8002,WL,B,12.0
3,26.473999977111816,learn,33526.00002288818,Wed Nov 06 2024 13:46:17 GMT-0600 (Central Standard Time),463381.5,A,la,I,a,175,2,781.7000000029802,462599.799999997,8002,WL,B,12.0
3,26.656999826431274,learn,33343.000173568726,Wed Nov 06 2024 13:46:17 GMT-0600 (Central Standard Time),463564.69999999553,A,lak,I,k,176,2,964.8999999985099,462599.799999997,8002,WL,B,12.0
3,26.83999991416931,learn,33160.00008583069,Wed Nov 06 2024 13:46:17 GMT-0600 (Central Standard Time),463748.09999999404,A,lake,I,e,177,2,1148.2999999970198,462599.799999997,8002,WL,B,12.0
3,28.4229998588562,learn,31577.0001411438,Wed Nov 06 2024 13:46:17 GMT-0600 (Central Standard Time),465330.69999999553,A,lakeenter,I,enter,1578,2,2730.89999999851,462599.799999997,8002,WL,B,12.0
3,37.83699989318848,learn,22163.000106811523,Wed Nov 06 2024 13:46:17 GMT-0600 (Central Standard Time),474744.5,A,s,I,s,9403,2,9413.60000000149,465330.8999999985,8002,WL,B,13.0
3,37.937000036239624,learn,22062.999963760376,Wed Nov 06 2024 13:46:17 GMT-0600 (Central Standard Time),474844.5,A,sk,I,k,93,2,9513.60000000149,465330.8999999985,8002,WL,B,13.0
3,38.419999837875366,learn,21580.000162124634,Wed Nov 06 2024 13:46:17 GMT-0600 (Central Standard Time),475327.69999999553,A,ski,I,i,465,2,9996.79999999702,465330.8999999985,8002,WL,B,13.0
3,38.61999988555908,learn,21380.000114440918,Wed Nov 06 2024 13:46:17 GMT-0600 (Central Standard Time),475527.5,A,skin,I,n,182,2,10196.60000000149,465330.8999999985,8002,WL,B,13.0
3,39.187000036239624,learn,20812.999963760376,Wed Nov 06 2024 13:46:17 GMT-0600 (Central Standard Time),476094.09999999404,A,skinenter,I,enter,550,2,10763.19999999553,465330.8999999985,8002,WL,B,13.0
3,60.01199984550476,learn,-11.999845504760742,Wed Nov 06 2024 13:46:17 GMT-0600 (Central Standard Time),496920.799999997,A,None,I,None,20823,2,20826.39999999851,476094.3999999985,8002,WL,B,14.0
4,1.8339998722076416,learn,58166.00012779236,Wed Nov 06 2024 13:46:17 GMT-0600 (Central Standard Time),569681.6999999955,A,f,I,f,1814,2,1833.1000000014901,567848.599999994,8002,WL,B,1.0
4,2.0,learn,58000.0,Wed Nov 06 2024 13:46:17 GMT-0600 (Central Standard Time),569848.299999997,A,fi,I,i,156,2,1999.7000000029802,567848.599999994,8002,WL,B,1.0
4,2.1499998569488525,learn,57850.00014305115,Wed Nov 06 2024 13:46:17 GMT-0600 (Central Standard Time),569998.099999994,A,fir,I,r,133,2,2149.5,567848.599999994,8002,WL,B,1.0
4,2.2669999599456787,learn,57733.00004005432,Wed Nov 06 2024 13:46:17 GMT-0600 (Central Standard Time),570114.599999994,A,fire,I,e,103,2,2266.0,567848.599999994,8002,WL,B,1.0
4,3.116999864578247,learn,56883.00013542175,Wed Nov 06 2024 13:46:17 GMT-0600 (Central Standard Time),570964.599999994,A,fireenter,I,enter,835,2,3116.0,567848.599999994,8002,WL,B,1.0
4,3.382999897003174,learn,56617.000102996826,Wed Nov 06 2024 13:46:17 GMT-0600 (Central Standard Time),571231.0,A,s,I,s,249,2,266.1000000014901,570964.8999999985,8002,WL,B,2.0
4,3.4830000400543213,learn,56516.99995994568,Wed Nov 06 2024 13:46:17 GMT-0600 (Central Standard Time),571330.799999997,A,sk,I,k,96,2,365.8999999985099,570964.8999999985,8002,WL,B,2.0
4,3.7769999504089355,learn,56223.000049591064,Wed Nov 06 2024 13:46:17 GMT-0600 (Central Standard Time),571624.5,A,ski,I,i,289,2,659.6000000014901,570964.8999999985,8002,WL,B,2.0
4,4.049999952316284,learn,55950.000047683716,Wed Nov 06 2024 13:46:17 GMT-0600 (Central Standard Time),571897.6999999955,A,skin,I,n,260,2,932.7999999970198,570964.8999999985,8002,WL,B,2.0
4,4.799000024795532,learn,55200.99997520447,Wed Nov 06 2024 13:46:17 GMT-0600 (Central Standard Time),572647.3999999985,A,skinenter,I,enter,732,2,1682.5,570964.8999999985,8002,WL,B,2.0
4,5.698999881744385,learn,54301.000118255615,Wed Nov 06 2024 13:46:17 GMT-0600 (Central Standard Time),573546.799999997,A,c,I,c,894,2,899.2000000029802,572647.599999994,8002,WL,B,3.0
4,5.865999937057495,learn,54134.000062942505,Wed Nov 06 2024 13:46:17 GMT-0600 (Central Standard Time),573713.599999994,A,ca,I,a,155,2,1066.0,572647.599999994,8002,WL,B,3.0
4,6.148999929428101,learn,53851.0000705719,Wed Nov 06 2024 13:46:17 GMT-0600 (Central Standard Time),573996.799999997,A,cab,I,b,276,2,1349.2000000029802,572647.599999994,8002,WL,B,3.0
4,6.348999977111816,learn,53651.00002288818,Wed Nov 06 2024 13:46:17 GMT-0600 (Central Standard Time),574196.599999994,A,cabi,I,i,185,2,1549.0,572647.599999994,8002,WL,B,3.0
4,6.48199987411499,learn,53518.00012588501,Wed Nov 06 2024 13:46:17 GMT-0600 (Central Standard Time),574330.0,A,cabin,I,n,113,2,1682.4000000059605,572647.599999994,8002,WL,B,3.0
4,6.947999954223633,learn,53052.00004577637,Wed Nov 06 2024 13:46:17 GMT-0600 (Central Standard Time),574796.3999999985,A,cabinenter,I,enter,460,2,2148.8000000044703,572647.599999994,8002,WL,B,3.0
4,8.547999858856201,learn,51452.0001411438,Wed Nov 06 2024 13:46:17 GMT-0600 (Central Standard Time),576396.099999994,A,p,I,p,1593,2,1599.3999999985099,574796.6999999955,8002,WL,B,4.0
4,8.947999954223633,learn,51052.00004577637,Wed Nov 06 2024 13:46:17 GMT-0600 (Central Standard Time),576795.8999999985,A,pi,I,i,386,2,1999.2000000029802,574796.6999999955,8002,WL,B,4.0
4,9.313999891281128,learn,50686.00010871887,Wed Nov 06 2024 13:46:17 GMT-0600 (Central Standard Time),577162.299999997,A,pip,I,p,346,2,2365.60000000149,574796.6999999955,8002,WL,B,4.0
4,10.013999938964844,learn,49986.000061035156,Wed Nov 06 2024 13:46:17 GMT-0600 (Central Standard Time),577862.299999997,A,pipe,I,e,683,2,3065.60000000149,574796.6999999955,8002,WL,B,4.0
4,10.48199987411499,learn,49518.00012588501,Wed Nov 06 2024 13:46:17 GMT-0600 (Central Standard Time),578330.0,A,pipeenter,I,enter,455,2,3533.3000000044703,574796.6999999955,8002,WL,B,4.0
4,10.848000049591064,learn,49151.999950408936,Wed Nov 06 2024 13:46:17 GMT-0600 (Central Standard Time),578695.5,A,l,I,l,356,2,365.20000000298023,578330.299999997,8002,WL,B,5.0
4,10.96399998664856,learn,49036.00001335144,Wed Nov 06 2024 13:46:17 GMT-0600 (Central Standard Time),578812.0,A,la,I,a,110,2,481.70000000298023,578330.299999997,8002,WL,B,5.0
4,11.364000082015991,learn,48635.99991798401,Wed Nov 06 2024 13:46:17 GMT-0600 (Central Standard Time),579211.799999997,A,lac,I,c,393,2,881.5,578330.299999997,8002,WL,B,5.0
4,11.897000074386597,learn,48102.9999256134,Wed Nov 06 2024 13:46:17 GMT-0600 (Central Standard Time),579744.8999999985,A,lack,I,k,514,2,1414.6000000014901,578330.299999997,8002,WL,B,5.0
4,12.329999923706055,learn,47670.000076293945,Wed Nov 06 2024 13:46:17 GMT-0600 (Central Standard Time),580178.1999999955,A,lackenter,I,enter,412,2,1847.8999999985099,578330.299999997,8002,WL,B,5.0
4,12.562999963760376,learn,47437.000036239624,Wed Nov 06 2024 13:46:17 GMT-0600 (Central Standard Time),580411.1999999955,A,c,I,c,227,2,232.69999999552965,580178.5,8002,WL,B,6.0
4,12.713000059127808,learn,47286.99994087219,Wed Nov 06 2024 13:46:17 GMT-0600 (Central Standard Time),580561.3999999985,A,cl,I,l,139,2,382.8999999985099,580178.5,8002,WL,B,6.0
4,12.963000059127808,learn,47036.99994087219,Wed Nov 06 2024 13:46:17 GMT-0600 (Central Standard Time),580811.1999999955,A,clo,I,o,244,2,632.6999999955297,580178.5,8002,WL,B,6.0
4,13.162999868392944,learn,46837.000131607056,Wed Nov 06 2024 13:46:17 GMT-0600 (Central Standard Time),581011.299999997,A,cloc,I,c,187,2,832.7999999970198,580178.5,8002,WL,B,6.0
4,13.296000003814697,learn,46703.9999961853,Wed Nov 06 2024 13:46:17 GMT-0600 (Central Standard Time),581144.299999997,A,clock,I,k,122,2,965.7999999970198,580178.5,8002,WL,B,6.0
4,13.763000011444092,learn,46236.99998855591,Wed Nov 06 2024 13:46:17 GMT-0600 (Central Standard Time),581611.0,A,clockenter,I,enter,453,2,1432.5,580178.5,8002,WL,B,6.0
4,14.61299991607666,learn,45387.00008392334,Wed Nov 06 2024 13:46:17 GMT-0600 (Central Standard Time),582461.0,A,g,I,g,842,2,849.5,581611.5,8002,WL,B,7.0
4,14.912999868392944,learn,45087.000131607056,Wed Nov 06 2024 13:46:17 GMT-0600 (Central Standard Time),582760.799999997,A,gr,I,r,289,2,1149.2999999970198,581611.5,8002,WL,B,7.0
4,15.145999908447266,learn,44854.000091552734,Wed Nov 06 2024 13:46:17 GMT-0600 (Central Standard Time),582994.0,A,gra,I,a,220,2,1382.5,581611.5,8002,WL,B,7.0
4,15.36299991607666,learn,44637.00008392334,Wed Nov 06 2024 13:46:17 GMT-0600 (Central Standard Time),583210.5,A,gras,I,s,196,2,1599.0,581611.5,8002,WL,B,7.0
4,15.61299991607666,learn,44387.00008392334,Wed Nov 06 2024 13:46:17 GMT-0600 (Central Standard Time),583460.3999999985,A,grass,I,s,243,2,1848.8999999985099,581611.5,8002,WL,B,7.0
4,16.19599986076355,learn,43804.00013923645,Wed Nov 06 2024 13:46:17 GMT-0600 (Central Standard Time),584043.5,A,grassenter,I,enter,569,2,2432.0,581611.5,8002,WL,B,7.0
4,16.562000036239624,learn,43437.999963760376,Wed Nov 06 2024 13:46:17 GMT-0600 (Central Standard Time),584410.0,A,s,I,s,346,2,366.1000000014901,584043.8999999985,8002,WL,B,8.0
4,16.878999948501587,learn,43121.00005149841,Wed Nov 06 2024 13:46:17 GMT-0600 (Central Standard Time),584726.6999999955,A,st,I,t,308,2,682.7999999970198,584043.8999999985,8002,WL,B,8.0
4,17.144999980926514,learn,42855.000019073486,Wed Nov 06 2024 13:46:17 GMT-0600 (Central Standard Time),584993.3999999985,A,str,I,r,255,2,949.5,584043.8999999985,8002,WL,B,8.0
4,17.394999980926514,learn,42605.000019073486,Wed Nov 06 2024 13:46:17 GMT-0600 (Central Standard Time),585243.1999999955,A,stre,I,e,244,2,1199.2999999970198,584043.8999999985,8002,WL,B,8.0
4,17.628999948501587,learn,42371.00005149841,Wed Nov 06 2024 13:46:17 GMT-0600 (Central Standard Time),585476.5,A,stree,I,e,218,2,1432.6000000014901,584043.8999999985,8002,WL,B,8.0
4,17.894999980926514,learn,42105.000019073486,Wed Nov 06 2024 13:46:17 GMT-0600 (Central Standard Time),585743.099999994,A,street,I,t,249,2,1699.1999999955297,584043.8999999985,8002,WL,B,8.0
4,18.34500002861023,learn,41654.99997138977,Wed Nov 06 2024 13:46:17 GMT-0600 (Central Standard Time),586192.8999999985,A,streetenter,I,enter,439,2,2149.0,584043.8999999985,8002,WL,B,8.0
4,19.32800006866455,learn,40671.99993133545,Wed Nov 06 2024 13:46:17 GMT-0600 (Central Standard Time),587176.099999994,A,c,I,c,973,2,982.8999999985099,586193.1999999955,8002,WL,B,9.0
4,19.527999877929688,learn,40472.00012207031,Wed Nov 06 2024 13:46:17 GMT-0600 (Central Standard Time),587376.0,A,ci,I,i,182,2,1182.8000000044703,586193.1999999955,8002,WL,B,9.0
4,19.74399995803833,learn,40256.00004196167,Wed Nov 06 2024 13:46:17 GMT-0600 (Central Standard Time),587592.5,A,cit,I,t,206,2,1399.3000000044703,586193.1999999955,8002,WL,B,9.0
4,19.92799997329712,learn,40072.00002670288,Wed Nov 06 2024 13:46:17 GMT-0600 (Central Standard Time),587775.6999999955,A,city,I,y,165,2,1582.5,586193.1999999955,8002,WL,B,9.0
4,20.5939998626709,learn,39406.0001373291,Wed Nov 06 2024 13:46:17 GMT-0600 (Central Standard Time),588442.1999999955,A,cityenter,I,enter,654,2,2249.0,586193.1999999955,8002,WL,B,9.0
4,21.0939998626709,learn,38906.0001373291,Wed Nov 06 2024 13:46:17 GMT-0600 (Central Standard Time),588942.1999999955,A,a,I,a,491,2,499.69999999552965,588442.5,8002,WL,B,10.0
4,21.26099991798401,learn,38739.00008201599,Wed Nov 06 2024 13:46:17 GMT-0600 (Central Standard Time),589108.599999994,A,ar,I,r,151,2,666.0999999940395,588442.5,8002,WL,B,10.0
4,21.76099991798401,learn,38239.00008201599,Wed Nov 06 2024 13:46:17 GMT-0600 (Central Standard Time),589608.599999994,A,arm,I,m,481,2,1166.0999999940395,588442.5,8002,WL,B,10.0
4,22.32699990272522,learn,37673.00009727478,Wed Nov 06 2024 13:46:17 GMT-0600 (Central Standard Time),590175.099999994,A,armenter,I,enter,549,2,1732.5999999940395,588442.5,8002,WL,B,10.0
4,22.776999950408936,learn,37223.000049591064,Wed Nov 06 2024 13:46:17 GMT-0600 (Central Standard Time),590624.799999997,A,d,I,d,430,2,449.29999999701977,590175.5,8002,WL,B,11.0
4,22.99399995803833,learn,37006.00004196167,Wed Nov 06 2024 13:46:17 GMT-0600 (Central Standard Time),590841.599999994,A,do,I,o,205,2,666.0999999940395,590175.5,8002,WL,B,11.0
4,23.177000045776367,learn,36822.99995422363,Wed Nov 06 2024 13:46:17 GMT-0600 (Central Standard Time),591024.799999997,A,doo,I,o,164,2,849.2999999970198,590175.5,8002,WL,B,11.0
4,23.626999855041504,learn,36373.000144958496,Wed Nov 06 2024 13:46:17 GMT-0600 (Central Standard Time),591474.5,A,door,I,r,445,2,1299.0,590175.5,8002,WL,B,11.0
4,24.22699999809265,learn,35773.00000190735,Wed Nov 06 2024 13:46:17 GMT-0600 (Central Standard Time),592074.3999999985,A,doorenter,I,enter,595,2,1898.8999999985099,590175.5,8002,WL,B,11.0
4,24.55999994277954,learn,35440.00005722046,Wed Nov 06 2024 13:46:17 GMT-0600 (Central Standard Time),592407.5,A,w,I,w,316,2,332.80000000447035,592074.6999999955,8002,WL,B,12.0
4,24.743000030517578,learn,35256.99996948242,Wed Nov 06 2024 13:46:17 GMT-0600 (Central Standard Time),592591.0,A,wi,I,i,174,2,516.3000000044703,592074.6999999955,8002,WL,B,12.0
4,25.375999927520752,learn,34624.00007247925,Wed Nov 06 2024 13:46:17 GMT-0600 (Central Standard Time),593224.099999994,A,win,I,n,615,2,1149.3999999985099,592074.6999999955,8002,WL,B,12.0
4,25.542999982833862,learn,34457.00001716614,Wed Nov 06 2024 13:46:17 GMT-0600 (Central Standard Time),593390.799999997,A,wind,I,d,158,2,1316.1000000014901,592074.6999999955,8002,WL,B,12.0
4,25.7260000705719,learn,34273.9999294281,Wed Nov 06 2024 13:46:17 GMT-0600 (Central Standard Time),593573.8999999985,A,windo,I,o,167,2,1499.2000000029802,592074.6999999955,8002,WL,B,12.0
4,25.89299988746643,learn,34107.00011253357,Wed Nov 06 2024 13:46:17 GMT-0600 (Central Standard Time),593740.6999999955,A,window,I,w,160,2,1666.0,592074.6999999955,8002,WL,B,12.0
4,26.259000062942505,learn,33740.999937057495,Wed Nov 06 2024 13:46:17 GMT-0600 (Central Standard Time),594107.099999994,A,windowenter,I,enter,353,2,2032.3999999985099,592074.6999999955,8002,WL,B,12.0
4,26.658999919891357,learn,33341.00008010864,Wed Nov 06 2024 13:46:17 GMT-0600 (Central Standard Time),594506.799999997,A,w,I,w,395,2,399.3999999985099,594107.3999999985,8002,WL,B,13.0
4,26.825999975204468,learn,33174.00002479553,Wed Nov 06 2024 13:46:17 GMT-0600 (Central Standard Time),594673.6999999955,A,wi,I,i,155,2,566.2999999970198,594107.3999999985,8002,WL,B,13.0
4,27.15400004386902,learn,32845.99995613098,Wed Nov 06 2024 13:46:17 GMT-0600 (Central Standard Time),595002.0,A,wif,I,f,324,2,894.6000000014901,594107.3999999985,8002,WL,B,13.0
4,27.302000045776367,learn,32697.999954223633,Wed Nov 06 2024 13:46:17 GMT-0600 (Central Standard Time),595149.599999994,A,wife,I,e,141,2,1042.1999999955297,594107.3999999985,8002,WL,B,13.0
4,27.80900001525879,learn,32190.99998474121,Wed Nov 06 2024 13:46:17 GMT-0600 (Central Standard Time),595656.799999997,A,wifeenter,I,enter,496,2,1549.3999999985099,594107.3999999985,8002,WL,B,13.0
4,29.125,learn,30875.0,Wed Nov 06 2024 13:46:17 GMT-0600 (Central Standard Time),596973.099999994,A,p,I,p,1301,2,1315.8999999985099,595657.1999999955,8002,WL,B,14.0
4,29.47499990463257,learn,30525.00009536743,Wed Nov 06 2024 13:46:17 GMT-0600 (Central Standard Time),597322.5,A,pu,I,u,345,2,1665.3000000044703,595657.1999999955,8002,WL,B,14.0
4,30.2739999294281,learn,29726.0000705719,Wed Nov 06 2024 13:46:17 GMT-0600 (Central Standard Time),598122.3999999985,A,pup,I,p,787,2,2465.2000000029802,595657.1999999955,8002,WL,B,14.0
4,30.490999937057495,learn,29509.000062942505,Wed Nov 06 2024 13:46:17 GMT-0600 (Central Standard Time),598339.0,A,pupi,I,i,203,2,2681.8000000044703,595657.1999999955,8002,WL,B,14.0
4,30.774999856948853,learn,29225.000143051147,Wed Nov 06 2024 13:46:17 GMT-0600 (Central Standard Time),598622.5,A,pupil,I,l,275,2,2965.3000000044703,595657.1999999955,8002,WL,B,14.0
4,31.5239999294281,learn,28476.0000705719,Wed Nov 06 2024 13:46:17 GMT-0600 (Central Standard Time),599372.099999994,A,pupilenter,I,enter,743,2,3714.89999999851,595657.1999999955,8002,WL,B,14.0
4,52.8989999294281,learn,7101.000070571899,Wed Nov 06 2024 13:46:17 GMT-0600 (Central Standard Time),620748.599999994,A,s,I,s,21370,2,21376.09999999404,599372.5,8002,WL,B,15.0
4,53.08299994468689,learn,6917.00005531311,Wed Nov 06 2024 13:46:17 GMT-0600 (Central Standard Time),620931.8999999985,A,sk,I,k,168,2,21559.39999999851,599372.5,8002,WL,B,15.0
4,53.31599998474121,learn,6684.000015258789,Wed Nov 06 2024 13:46:17 GMT-0600 (Central Standard Time),621165.299999997,A,ski,I,i,225,2,21792.79999999702,599372.5,8002,WL,B,15.0
4,53.5,learn,6500.0,Wed Nov 06 2024 13:46:17 GMT-0600 (Central Standard Time),621348.6999999955,A,skin,I,n,168,2,21976.19999999553,599372.5,8002,WL,B,15.0
4,54.01600003242493,learn,5983.999967575073,Wed Nov 06 2024 13:46:17 GMT-0600 (Central Standard Time),621865.1999999955,A,skinenter,I,enter,497,2,22492.69999999553,599372.5,8002,WL,B,15.0
5,0.932999849319458,learn,60000.0,Wed Nov 06 2024 13:46:17 GMT-0600 (Central Standard Time),698424.599999994,A,c,I,c,915,2,933.2999999970198,697491.299999997,8002,WL,B,1.0
5,1.3329999446868896,learn,60000.0,Wed Nov 06 2024 13:46:17 GMT-0600 (Central Standard Time),698824.299999997,A,cl,I,l,381,2,1333.0,697491.299999997,8002,WL,B,1.0
5,1.7159998416900635,learn,60000.0,Wed Nov 06 2024 13:46:17 GMT-0600 (Central Standard Time),699207.299999997,A,clo,I,o,365,2,1716.0,697491.299999997,8002,WL,B,1.0
5,1.9830000400543213,learn,60000.0,Wed Nov 06 2024 13:46:17 GMT-0600 (Central Standard Time),699473.8999999985,A,cloc,I,c,254,2,1982.6000000014901,697491.299999997,8002,WL,B,1.0
5,2.1989998817443848,learn,60000.0,Wed Nov 06 2024 13:46:17 GMT-0600 (Central Standard Time),699690.599999994,A,clock,I,k,204,2,2199.2999999970198,697491.299999997,8002,WL,B,1.0
5,3.0490000247955322,learn,60000.0,Wed Nov 06 2024 13:46:17 GMT-0600 (Central Standard Time),700540.3999999985,A,clockenter,I,enter,843,2,3049.10000000149,697491.299999997,8002,WL,B,1.0
5,3.8989999294281006,learn,60000.0,Wed Nov 06 2024 13:46:17 GMT-0600 (Central Standard Time),701390.299999997,A,g,I,g,833,2,849.5,700540.799999997,8002,WL,B,2.0
5,4.264999866485596,learn,60000.0,Wed Nov 06 2024 13:46:17 GMT-0600 (Central Standard Time),701756.599999994,A,gr,I,r,359,2,1215.7999999970198,700540.799999997,8002,WL,B,2.0
5,4.56499981880188,learn,60000.0,Wed Nov 06 2024 13:46:17 GMT-0600 (Central Standard Time),702056.5,A,gra,I,a,289,2,1515.7000000029802,700540.799999997,8002,WL,B,2.0
5,4.98199987411499,learn,60000.0,Wed Nov 06 2024 13:46:17 GMT-0600 (Central Standard Time),702473.1999999955,A,gras,I,s,397,2,1932.3999999985099,700540.799999997,8002,WL,B,2.0
5,5.2149999141693115,learn,60000.0,Wed Nov 06 2024 13:46:17 GMT-0600 (Central Standard Time),702706.5,A,grass,I,s,228,2,2165.7000000029802,700540.799999997,8002,WL,B,2.0
5,5.648000001907349,learn,60000.0,Wed Nov 06 2024 13:46:17 GMT-0600 (Central Standard Time),703139.599999994,A,grassenter,I,enter,419,2,2598.7999999970198,700540.799999997,8002,WL,B,2.0
5,6.047999858856201,learn,60000.0,Wed Nov 06 2024 13:46:17 GMT-0600 (Central Standard Time),703539.299999997,A,s,I,s,394,2,399.5,703139.799999997,8002,WL,B,3.0
5,6.4649999141693115,learn,60000.0,Wed Nov 06 2024 13:46:17 GMT-0600 (Central Standard Time),703955.8999999985,A,st,I,t,410,2,816.1000000014901,703139.799999997,8002,WL,B,3.0
5,6.7809998989105225,learn,60000.0,Wed Nov 06 2024 13:46:17 GMT-0600 (Central Standard Time),704272.3999999985,A,str,I,r,306,2,1132.6000000014901,703139.799999997,8002,WL,B,3.0
5,7.080999851226807,learn,60000.0,Wed Nov 06 2024 13:46:17 GMT-0600 (Central Standard Time),704572.599999994,A,stre,I,e,293,2,1432.7999999970198,703139.799999997,8002,WL,B,3.0
5,7.297999858856201,learn,60000.0,Wed Nov 06 2024 13:46:17 GMT-0600 (Central Standard Time),704789.099999994,A,stree,I,e,201,2,1649.2999999970198,703139.799999997,8002,WL,B,3.0
5,7.81499981880188,learn,60000.0,Wed Nov 06 2024 13:46:17 GMT-0600 (Central Standard Time),705306.3999999985,A,street,I,t,497,2,2166.60000000149,703139.799999997,8002,WL,B,3.0
5,8.596999883651733,learn,60000.0,Wed Nov 06 2024 13:46:17 GMT-0600 (Central Standard Time),706088.6999999955,A,streetenter,I,enter,771,2,2948.89999999851,703139.799999997,8002,WL,B,3.0
5,9.04699993133545,learn,60000.0,Wed Nov 06 2024 13:46:17 GMT-0600 (Central Standard Time),706538.6999999955,A,a,I,a,437,2,449.69999999552965,706089.0,8002,WL,B,4.0
5,9.230000019073486,learn,60000.0,Wed Nov 06 2024 13:46:17 GMT-0600 (Central Standard Time),706721.6999999955,A,ar,I,r,171,2,632.6999999955297,706089.0,8002,WL,B,4.0
5,10.013999938964844,learn,60000.0,Wed Nov 06 2024 13:46:17 GMT-0600 (Central Standard Time),707504.8999999985,A,arm,I,m,764,2,1415.8999999985099,706089.0,8002,WL,B,4.0
5,10.480000019073486,learn,60000.0,Wed Nov 06 2024 13:46:17 GMT-0600 (Central Standard Time),707971.1999999955,A,armenter,I,enter,461,2,1882.1999999955297,706089.0,8002,WL,B,4.0
5,10.86299991607666,learn,60000.0,Wed Nov 06 2024 13:46:17 GMT-0600 (Central Standard Time),708354.5,A,d,I,d,378,2,382.90000000596046,707971.599999994,8002,WL,B,5.0
5,11.212999820709229,learn,60000.0,Wed Nov 06 2024 13:46:17 GMT-0600 (Central Standard Time),708704.5,A,do,I,o,331,2,732.9000000059605,707971.599999994,8002,WL,B,5.0
5,11.412999868392944,learn,60000.0,Wed Nov 06 2024 13:46:17 GMT-0600 (Central Standard Time),708904.5,A,doo,I,o,189,2,932.9000000059605,707971.599999994,8002,WL,B,5.0
5,11.895999908447266,learn,60000.0,Wed Nov 06 2024 13:46:17 GMT-0600 (Central Standard Time),709387.5,A,door,I,r,477,2,1415.9000000059605,707971.599999994,8002,WL,B,5.0
5,12.412999868392944,learn,60000.0,Wed Nov 06 2024 13:46:17 GMT-0600 (Central Standard Time),709904.099999994,A,doorenter,I,enter,498,2,1932.5,707971.599999994,8002,WL,B,5.0
5,12.796000003814697,learn,60000.0,Wed Nov 06 2024 13:46:17 GMT-0600 (Central Standard Time),710287.5,A,w,I,w,374,2,383.0,709904.5,8002,WL,B,6.0
5,12.996000051498413,learn,60000.0,Wed Nov 06 2024 13:46:17 GMT-0600 (Central Standard Time),710487.299999997,A,wi,I,i,190,2,582.7999999970198,709904.5,8002,WL,B,6.0
5,13.095999956130981,learn,60000.0,Wed Nov 06 2024 13:46:17 GMT-0600 (Central Standard Time),710587.0,A,win,I,n,87,2,682.5,709904.5,8002,WL,B,6.0
5,13.345999956130981,learn,60000.0,Wed Nov 06 2024 13:46:17 GMT-0600 (Central Standard Time),710837.1999999955,A,wind,I,d,235,2,932.6999999955297,709904.5,8002,WL,B,6.0
5,13.546000003814697,learn,60000.0,Wed Nov 06 2024 13:46:17 GMT-0600 (Central Standard Time),711037.099999994,A,windo,I,o,184,2,1132.5999999940395,709904.5,8002,WL,B,6.0
5,13.69599986076355,learn,60000.0,Wed Nov 06 2024 13:46:17 GMT-0600 (Central Standard Time),711186.799999997,A,window,I,w,144,2,1282.2999999970198,709904.5,8002,WL,B,6.0
5,14.128999948501587,learn,60000.0,Wed Nov 06 2024 13:46:17 GMT-0600 (Central Standard Time),711620.3999999985,A,windowenter,I,enter,427,2,1715.8999999985099,709904.5,8002,WL,B,6.0
5,14.494999885559082,learn,60000.0,Wed Nov 06 2024 13:46:17 GMT-0600 (Central Standard Time),711986.799999997,A,w,I,w,361,2,366.20000000298023,711620.599999994,8002,WL,B,7.0
5,14.678999900817871,learn,60000.0,Wed Nov 06 2024 13:46:17 GMT-0600 (Central Standard Time),712170.299999997,A,wi,I,i,163,2,549.7000000029802,711620.599999994,8002,WL,B,7.0
5,15.141999959945679,learn,60000.0,Wed Nov 06 2024 13:46:17 GMT-0600 (Central Standard Time),712633.3999999985,A,wif,I,f,458,2,1012.8000000044703,711620.599999994,8002,WL,B,7.0
5,15.3989999294281,learn,60000.0,Wed Nov 06 2024 13:46:17 GMT-0600 (Central Standard Time),712890.1999999955,A,wife,I,e,236,2,1269.6000000014901,711620.599999994,8002,WL,B,7.0
5,15.744999885559082,learn,60000.0,Wed Nov 06 2024 13:46:17 GMT-0600 (Central Standard Time),713236.3999999985,A,wifeenter,I,enter,339,2,1615.8000000044703,711620.599999994,8002,WL,B,7.0
5,16.078999996185303,learn,60000.0,Wed Nov 06 2024 13:46:17 GMT-0600 (Central Standard Time),713569.8999999985,A,s,I,s,313,2,333.20000000298023,713236.6999999955,8002,WL,B,8.0
5,16.42799997329712,learn,60000.0,Wed Nov 06 2024 13:46:17 GMT-0600 (Central Standard Time),713919.5,A,st,I,t,332,2,682.8000000044703,713236.6999999955,8002,WL,B,8.0
5,16.82799983024597,learn,60000.0,Wed Nov 06 2024 13:46:17 GMT-0600 (Central Standard Time),714319.1999999955,A,sta,I,a,382,2,1082.5,713236.6999999955,8002,WL,B,8.0
5,17.16100001335144,learn,60000.0,Wed Nov 06 2024 13:46:17 GMT-0600 (Central Standard Time),714652.5,A,star,I,r,326,2,1415.8000000044703,713236.6999999955,8002,WL,B,8.0
5,17.560999870300293,learn,60000.0,Wed Nov 06 2024 13:46:17 GMT-0600 (Central Standard Time),715052.599999994,A,starenter,I,enter,385,2,1815.8999999985099,713236.6999999955,8002,WL,B,8.0
5,18.32799983024597,learn,60000.0,Wed Nov 06 2024 13:46:17 GMT-0600 (Central Standard Time),715819.1999999955,A,p,I,p,753,2,766.0,715053.1999999955,8002,WL,B,9.0
5,19.41100001335144,learn,60000.0,Wed Nov 06 2024 13:46:17 GMT-0600 (Central Standard Time),716901.8999999985,A,pu,I,u,1066,2,1848.7000000029802,715053.1999999955,8002,WL,B,9.0
5,19.960000038146973,learn,60000.0,Wed Nov 06 2024 13:46:17 GMT-0600 (Central Standard Time),717451.799999997,A,pup,I,p,543,2,2398.60000000149,715053.1999999955,8002,WL,B,9.0
5,20.67799997329712,learn,60000.0,Wed Nov 06 2024 13:46:17 GMT-0600 (Central Standard Time),718169.3999999985,A,pupi,I,i,698,2,3116.2000000029802,715053.1999999955,8002,WL,B,9.0
5,20.993000030517578,learn,60000.0,Wed Nov 06 2024 13:46:17 GMT-0600 (Central Standard Time),718484.6999999955,A,pupil,I,l,300,2,3431.5,715053.1999999955,8002,WL,B,9.0
5,21.55999994277954,learn,60000.0,Wed Nov 06 2024 13:46:17 GMT-0600 (Central Standard Time),719051.0,A,pupilenter,I,enter,561,2,3997.8000000044703,715053.1999999955,8002,WL,B,9.0
5,22.359999895095825,learn,60000.0,Wed Nov 06 2024 13:46:17 GMT-0600 (Central Standard Time),719851.099999994,A,c,I,c,787,2,799.7999999970198,719051.299999997,8002,WL,B,10.0
5,22.64299988746643,learn,60000.0,Wed Nov 06 2024 13:46:17 GMT-0600 (Central Standard Time),720134.299999997,A,ci,I,i,267,2,1083.0,719051.299999997,8002,WL,B,10.0
5,22.907999992370605,learn,60000.0,Wed Nov 06 2024 13:46:17 GMT-0600 (Central Standard Time),720400.799999997,A,cit,I,t,247,2,1349.5,719051.299999997,8002,WL,B,10.0
5,23.39199995994568,learn,60000.0,Wed Nov 06 2024 13:46:17 GMT-0600 (Central Standard Time),720884.099999994,A,city,I,y,477,2,1832.7999999970198,719051.299999997,8002,WL,B,10.0
5,24.008999824523926,learn,60000.0,Wed Nov 06 2024 13:46:17 GMT-0600 (Central Standard Time),721501.6999999955,A,cityenter,I,enter,610,2,2450.39999999851,719051.299999997,8002,WL,B,10.0
5,24.5239999294281,learn,60000.0,Wed Nov 06 2024 13:46:17 GMT-0600 (Central Standard Time),722017.0,A,c,I,c,505,2,515.0,721502.0,8002,WL,B,11.0
5,24.657999992370605,learn,60000.0,Wed Nov 06 2024 13:46:17 GMT-0600 (Central Standard Time),722150.1999999955,A,ca,I,a,124,2,648.1999999955297,721502.0,8002,WL,B,11.0
5,25.141000032424927,learn,60000.0,Wed Nov 06 2024 13:46:17 GMT-0600 (Central Standard Time),722633.5,A,cai,I,i,464,2,1131.5,721502.0,8002,WL,B,11.0
5,25.240999937057495,learn,60000.0,Wed Nov 06 2024 13:46:17 GMT-0600 (Central Standard Time),722733.5,A,cain,I,n,84,2,1231.5,721502.0,8002,WL,B,11.0
5,26.073999881744385,learn,60000.0,Wed Nov 06 2024 13:46:17 GMT-0600 (Central Standard Time),723566.5,A,cai,I,backspace,824,2,2064.5,721502.0,8002,WL,B,11.0
5,26.2739999294281,learn,60000.0,Wed Nov 06 2024 13:46:17 GMT-0600 (Central Standard Time),723766.6999999955,A,ca,I,backspace,183,2,2264.6999999955297,721502.0,8002,WL,B,11.0
5,27.10699987411499,learn,60000.0,Wed Nov 06 2024 13:46:17 GMT-0600 (Central Standard Time),724599.599999994,A,cab,I,b,823,2,3097.5999999940395,721502.0,8002,WL,B,11.0
5,27.289999961853027,learn,60000.0,Wed Nov 06 2024 13:46:17 GMT-0600 (Central Standard Time),724782.799999997,A,cabi,I,i,166,2,3280.7999999970198,721502.0,8002,WL,B,11.0
5,27.389999866485596,learn,60000.0,Wed Nov 06 2024 13:46:17 GMT-0600 (Central Standard Time),724882.799999997,A,cabin,I,n,87,2,3380.7999999970198,721502.0,8002,WL,B,11.0
5,27.85699987411499,learn,60000.0,Wed Nov 06 2024 13:46:17 GMT-0600 (Central Standard Time),725349.5,A,cabinenter,I,enter,460,2,3847.5,721502.0,8002,WL,B,11.0
5,28.33999991416931,learn,60000.0,Wed Nov 06 2024 13:46:17 GMT-0600 (Central Standard Time),725832.599999994,A,l,I,l,470,2,482.69999999552965,725349.8999999985,8002,WL,B,12.0
5,28.490000009536743,learn,60000.0,Wed Nov 06 2024 13:46:17 GMT-0600 (Central Standard Time),725982.3999999985,A,la,I,a,133,2,632.5,725349.8999999985,8002,WL,B,12.0
5,28.656999826431274,learn,60000.0,Wed Nov 06 2024 13:46:17 GMT-0600 (Central Standard Time),726149.1999999955,A,lak,I,k,159,2,799.2999999970198,725349.8999999985,8002,WL,B,12.0
5,28.789999961853027,learn,60000.0,Wed Nov 06 2024 13:46:17 GMT-0600 (Central Standard Time),726282.1999999955,A,lake,I,e,121,2,932.2999999970198,725349.8999999985,8002,WL,B,12.0
5,29.322999954223633,learn,60000.0,Wed Nov 06 2024 13:46:17 GMT-0600 (Central Standard Time),726815.5,A,lakeenter,I,enter,523,2,1465.6000000014901,725349.8999999985,8002,WL,B,12.0
5,30.77300000190735,learn,60000.0,Wed Nov 06 2024 13:46:17 GMT-0600 (Central Standard Time),728265.1999999955,A,p,I,p,1438,2,1449.3999999985099,726815.799999997,8002,WL,B,13.0
5,31.155999898910522,learn,60000.0,Wed Nov 06 2024 13:46:17 GMT-0600 (Central Standard Time),728648.299999997,A,pi,I,i,373,2,1832.5,726815.799999997,8002,WL,B,13.0
5,31.471999883651733,learn,60000.0,Wed Nov 06 2024 13:46:17 GMT-0600 (Central Standard Time),728964.799999997,A,pip,I,p,302,2,2149.0,726815.799999997,8002,WL,B,13.0
5,31.655999898910522,learn,60000.0,Wed Nov 06 2024 13:46:17 GMT-0600 (Central Standard Time),729148.099999994,A,pipe,I,e,169,2,2332.2999999970198,726815.799999997,8002,WL,B,13.0
5,32.055999994277954,learn,60000.0,Wed Nov 06 2024 13:46:17 GMT-0600 (Central Standard Time),729548.0,A,pipeenter,I,enter,393,2,2732.2000000029802,726815.799999997,8002,WL,B,13.0
5,32.77199983596802,learn,60000.0,Wed Nov 06 2024 13:46:17 GMT-0600 (Central Standard Time),730264.5,A,s,I,s,705,2,716.1000000014901,729548.3999999985,8002,WL,B,14.0
5,32.97199988365173,learn,60000.0,Wed Nov 06 2024 13:46:17 GMT-0600 (Central Standard Time),730464.5,A,sk,I,k,181,2,916.1000000014901,729548.3999999985,8002,WL,B,14.0
5,33.30499982833862,learn,60000.0,Wed Nov 06 2024 13:46:17 GMT-0600 (Central Standard Time),730797.6999999955,A,ski,I,i,325,2,1249.2999999970198,729548.3999999985,8002,WL,B,14.0
5,33.48799991607666,learn,60000.0,Wed Nov 06 2024 13:46:17 GMT-0600 (Central Standard Time),730980.799999997,A,skin,I,n,176,2,1432.3999999985099,729548.3999999985,8002,WL,B,14.0
5,34.270999908447266,learn,60000.0,Wed Nov 06 2024 13:46:17 GMT-0600 (Central Standard Time),731763.8999999985,A,skinenter,I,enter,777,2,2215.5,729548.3999999985,8002,WL,B,14.0
5,49.365999937057495,learn,60000.0,Wed Nov 06 2024 13:46:17 GMT-0600 (Central Standard Time),746858.8999999985,A,c,I,c,15090,2,15094.80000000447,731764.099999994,8002,WL,B,15.0
5,49.73300004005432,learn,60000.0,Wed Nov 06 2024 13:46:17 GMT-0600 (Central Standard Time),747225.6999999955,A,cl,I,l,347,2,15461.60000000149,731764.099999994,8002,WL,B,15.0
5,50.01600003242493,learn,60000.0,Wed Nov 06 2024 13:46:17 GMT-0600 (Central Standard Time),747509.1999999955,A,clo,I,o,268,2,15745.10000000149,731764.099999994,8002,WL,B,15.0
5,50.23300004005432,learn,60000.0,Wed Nov 06 2024 13:46:17 GMT-0600 (Central Standard Time),747725.599999994,A,cloc,I,c,201,2,15961.5,731764.099999994,8002,WL,B,15.0
5,50.365999937057495,learn,60000.0,Wed Nov 06 2024 13:46:17 GMT-0600 (Central Standard Time),747858.599999994,A,clock,I,k,128,2,16094.5,731764.099999994,8002,WL,B,15.0
5,50.632999897003174,learn,60000.0,Wed Nov 06 2024 13:46:17 GMT-0600 (Central Standard Time),748125.3999999985,A,clockenter,I,enter,251,2,16361.30000000447,731764.099999994,8002,WL,B,15.0
6,0.9670000076293945,distr,59032.999992370605,Wed Nov 06 2024 13:46:17 GMT-0600 (Central Standard Time),822385.6999999955,B,v,I,v,956,2,966.6999999955297,821419.0,8002,WL,B,1.0
6,1.2170000076293945,distr,58782.999992370605,Wed Nov 06 2024 13:46:17 GMT-0600 (Central Standard Time),822635.1999999955,B,vi,I,i,243,2,1216.1999999955297,821419.0,8002,WL,B,1.0
6,1.5340001583099365,distr,58465.99984169006,Wed Nov 06 2024 13:46:17 GMT-0600 (Central Standard Time),822952.0,B,vil,I,l,307,2,1533.0,821419.0,8002,WL,B,1.0
6,1.75,distr,58250.0,Wed Nov 06 2024 13:46:17 GMT-0600 (Central Standard Time),823168.599999994,B,vill,I,l,198,2,1749.5999999940395,821419.0,8002,WL,B,1.0
6,1.8340001106262207,distr,58165.99988937378,Wed Nov 06 2024 13:46:17 GMT-0600 (Central Standard Time),823252.599999994,B,villa,I,a,78,2,1833.5999999940395,821419.0,8002,WL,B,1.0
6,2.567000150680542,distr,57432.99984931946,Wed Nov 06 2024 13:46:17 GMT-0600 (Central Standard Time),823985.099999994,B,villag,I,g,721,2,2566.0999999940395,821419.0,8002,WL,B,1.0
6,2.7660000324249268,distr,57233.99996757507,Wed Nov 06 2024 13:46:17 GMT-0600 (Central Standard Time),824185.0,B,village,I,e,189,2,2766.0,821419.0,8002,WL,B,1.0
6,3.1660001277923584,distr,56833.99987220764,Wed Nov 06 2024 13:46:17 GMT-0600 (Central Standard Time),824584.8999999985,B,villageenter,I,enter,381,2,3165.89999999851,821419.0,8002,WL,B,1.0
6,4.58299994468689,distr,55417.00005531311,Wed Nov 06 2024 13:46:17 GMT-0600 (Central Standard Time),826001.099999994,B,c,I,c,1397,2,1415.8999999985099,824585.1999999955,8002,WL,B,2.0
6,4.749000072479248,distr,55250.99992752075,Wed Nov 06 2024 13:46:17 GMT-0600 (Central Standard Time),826167.599999994,B,ce,I,e,148,2,1582.3999999985099,824585.1999999955,8002,WL,B,2.0
6,5.0320000648498535,distr,54967.99993515015,Wed Nov 06 2024 13:46:17 GMT-0600 (Central Standard Time),826450.6999999955,B,cel,I,l,278,2,1865.5,824585.1999999955,8002,WL,B,2.0
6,5.216000080108643,distr,54783.99991989136,Wed Nov 06 2024 13:46:17 GMT-0600 (Central Standard Time),826634.1999999955,B,cell,I,l,171,2,2049.0,824585.1999999955,8002,WL,B,2.0
6,5.631999969482422,distr,54368.00003051758,Wed Nov 06 2024 13:46:17 GMT-0600 (Central Standard Time),827050.5,B,cellenter,I,enter,412,2,2465.3000000044703,824585.1999999955,8002,WL,B,2.0
6,5.932000160217285,distr,54067.999839782715,Wed Nov 06 2024 13:46:17 GMT-0600 (Central Standard Time),827350.6999999955,B,f,I,f,284,2,299.8999999985099,827050.799999997,8002,WL,B,3.0
6,6.199000120162964,distr,53800.999879837036,Wed Nov 06 2024 13:46:17 GMT-0600 (Central Standard Time),827617.3999999985,B,fr,I,r,247,2,566.6000000014901,827050.799999997,8002,WL,B,3.0
6,6.39900016784668,distr,53600.99983215332,Wed Nov 06 2024 13:46:17 GMT-0600 (Central Standard Time),827817.099999994,B,fri,I,i,188,2,766.2999999970198,827050.799999997,8002,WL,B,3.0
6,6.549000024795532,distr,53450.99997520447,Wed Nov 06 2024 13:46:17 GMT-0600 (Central Standard Time),827967.1999999955,B,frie,I,e,141,2,916.3999999985099,827050.799999997,8002,WL,B,3.0
6,6.765000104904175,distr,53234.999895095825,Wed Nov 06 2024 13:46:17 GMT-0600 (Central Standard Time),828183.599999994,B,frien,I,n,199,2,1132.7999999970198,827050.799999997,8002,WL,B,3.0
6,7.315999984741211,distr,52684.00001525879,Wed Nov 06 2024 13:46:17 GMT-0600 (Central Standard Time),828734.6999999955,B,friend,I,d,542,2,1683.8999999985099,827050.799999997,8002,WL,B,3.0
6,8.815000057220459,distr,51184.99994277954,Wed Nov 06 2024 13:46:17 GMT-0600 (Central Standard Time),830233.299999997,B,friendenter,I,enter,1487,2,3182.5,827050.799999997,8002,WL,B,3.0
6,9.96399998664856,distr,50036.00001335144,Wed Nov 06 2024 13:46:17 GMT-0600 (Central Standard Time),831382.799999997,B,b,I,b,1142,2,1149.2000000029802,830233.599999994,8002,WL,B,4.0
6,10.164000034332275,distr,49835.999965667725,Wed Nov 06 2024 13:46:17 GMT-0600 (Central Standard Time),831582.599999994,B,ba,I,a,191,2,1349.0,830233.599999994,8002,WL,B,4.0
6,10.331000089645386,distr,49668.999910354614,Wed Nov 06 2024 13:46:17 GMT-0600 (Central Standard Time),831749.299999997,B,bab,I,b,151,2,1515.7000000029802,830233.599999994,8002,WL,B,4.0
6,11.21399998664856,distr,48786.00001335144,Wed Nov 06 2024 13:46:17 GMT-0600 (Central Standard Time),832632.3999999985,B,baby,I,y,864,2,2398.8000000044703,830233.599999994,8002,WL,B,4.0
6,12.263000011444092,distr,47736.99998855591,Wed Nov 06 2024 13:46:17 GMT-0600 (Central Standard Time),833681.5,B,babyenter,I,enter,1029,2,3447.9000000059605,830233.599999994,8002,WL,B,4.0
6,13.946000099182129,distr,46053.99990081787,Wed Nov 06 2024 13:46:17 GMT-0600 (Central Standard Time),835364.599999994,B,o,I,o,1668,2,1682.7999999970198,833681.799999997,8002,WL,B,5.0
6,14.213000059127808,distr,45786.99994087219,Wed Nov 06 2024 13:46:17 GMT-0600 (Central Standard Time),835631.299999997,B,oc,I,c,257,2,1949.5,833681.799999997,8002,WL,B,5.0
6,14.578999996185303,distr,45421.0000038147,Wed Nov 06 2024 13:46:17 GMT-0600 (Central Standard Time),835997.8999999985,B,oce,I,e,358,2,2316.10000000149,833681.799999997,8002,WL,B,5.0
6,14.713000059127808,distr,45286.99994087219,Wed Nov 06 2024 13:46:17 GMT-0600 (Central Standard Time),836131.1999999955,B,ocea,I,a,120,2,2449.39999999851,833681.799999997,8002,WL,B,5.0
6,14.86300015449524,distr,45136.99984550476,Wed Nov 06 2024 13:46:17 GMT-0600 (Central Standard Time),836281.1999999955,B,ocean,I,n,130,2,2599.39999999851,833681.799999997,8002,WL,B,5.0
6,15.296000003814697,distr,44703.9999961853,Wed Nov 06 2024 13:46:17 GMT-0600 (Central Standard Time),836714.3999999985,B,oceanenter,I,enter,421,2,3032.60000000149,833681.799999997,8002,WL,B,5.0
6,15.845999956130981,distr,44154.00004386902,Wed Nov 06 2024 13:46:17 GMT-0600 (Central Standard Time),837264.299999997,B,p,I,p,539,2,549.5,836714.799999997,8002,WL,B,6.0
6,16.062999963760376,distr,43937.000036239624,Wed Nov 06 2024 13:46:17 GMT-0600 (Central Standard Time),837481.099999994,B,pa,I,a,206,2,766.2999999970198,836714.799999997,8002,WL,B,6.0
6,16.26200008392334,distr,43737.99991607666,Wed Nov 06 2024 13:46:17 GMT-0600 (Central Standard Time),837680.299999997,B,pal,I,l,181,2,965.5,836714.799999997,8002,WL,B,6.0
6,16.411999940872192,distr,43588.00005912781,Wed Nov 06 2024 13:46:17 GMT-0600 (Central Standard Time),837830.6999999955,B,pala,I,a,133,2,1115.8999999985099,836714.799999997,8002,WL,B,6.0
6,17.49500012397766,distr,42504.99987602234,Wed Nov 06 2024 13:46:17 GMT-0600 (Central Standard Time),838913.6999999955,B,palac,I,c,1071,2,2198.89999999851,836714.799999997,8002,WL,B,6.0
6,17.82800006866455,distr,42171.99993133545,Wed Nov 06 2024 13:46:17 GMT-0600 (Central Standard Time),839246.799999997,B,palace,I,e,316,2,2532.0,836714.799999997,8002,WL,B,6.0
6,18.776999950408936,distr,41223.000049591064,Wed Nov 06 2024 13:46:17 GMT-0600 (Central Standard Time),840196.3999999985,B,palaceenter,I,enter,935,2,3481.60000000149,836714.799999997,8002,WL,B,6.0
6,19.07800006866455,distr,40921.99993133545,Wed Nov 06 2024 13:46:17 GMT-0600 (Central Standard Time),840496.599999994,B,a,I,a,289,2,299.8999999985099,840196.6999999955,8002,WL,B,7.0
6,20.026999950408936,distr,39973.000049591064,Wed Nov 06 2024 13:46:17 GMT-0600 (Central Standard Time),841446.3999999985,B,ar,I,r,933,2,1249.7000000029802,840196.6999999955,8002,WL,B,7.0
6,20.294000148773193,distr,39705.99985122681,Wed Nov 06 2024 13:46:17 GMT-0600 (Central Standard Time),841712.8999999985,B,arm,I,m,248,2,1516.2000000029802,840196.6999999955,8002,WL,B,7.0
6,20.5770001411438,distr,39422.9998588562,Wed Nov 06 2024 13:46:17 GMT-0600 (Central Standard Time),841996.0,B,army,I,y,269,2,1799.3000000044703,840196.6999999955,8002,WL,B,7.0
6,20.8270001411438,distr,39172.9998588562,Wed Nov 06 2024 13:46:17 GMT-0600 (Central Standard Time),842245.799999997,B,armyenter,I,enter,242,2,2049.10000000149,840196.6999999955,8002,WL,B,7.0
6,24.259000062942505,distr,35740.999937057495,Wed Nov 06 2024 13:46:17 GMT-0600 (Central Standard Time),845678.3999999985,B,d,I,d,3415,2,3432.2000000029802,842246.1999999955,8002,WL,B,8.0
6,24.608999967575073,distr,35391.00003242493,Wed Nov 06 2024 13:46:17 GMT-0600 (Central Standard Time),846028.099999994,B,dr,I,r,341,2,3781.89999999851,842246.1999999955,8002,WL,B,8.0
6,24.842000007629395,distr,35157.999992370605,Wed Nov 06 2024 13:46:17 GMT-0600 (Central Standard Time),846261.5,B,dre,I,e,226,2,4015.3000000044703,842246.1999999955,8002,WL,B,8.0
6,25.2260000705719,distr,34773.9999294281,Wed Nov 06 2024 13:46:17 GMT-0600 (Central Standard Time),846644.6999999955,B,drew,I,w,368,2,4398.5,842246.1999999955,8002,WL,B,8.0
6,26.009000062942505,distr,33990.999937057495,Wed Nov 06 2024 13:46:17 GMT-0600 (Central Standard Time),847427.599999994,B,dre,I,backspace,769,2,5181.39999999851,842246.1999999955,8002,WL,B,8.0
6,26.192000150680542,distr,33807.99984931946,Wed Nov 06 2024 13:46:17 GMT-0600 (Central Standard Time),847610.6999999955,B,dres,I,s,178,2,5364.5,842246.1999999955,8002,WL,B,8.0
6,26.407999992370605,distr,33592.000007629395,Wed Nov 06 2024 13:46:17 GMT-0600 (Central Standard Time),847827.1999999955,B,dress,I,s,211,2,5581.0,842246.1999999955,8002,WL,B,8.0
6,26.842000007629395,distr,33157.999992370605,Wed Nov 06 2024 13:46:17 GMT-0600 (Central Standard Time),848260.799999997,B,dressenter,I,enter,427,2,6014.60000000149,842246.1999999955,8002,WL,B,8.0
6,27.424999952316284,distr,32575.000047683716,Wed Nov 06 2024 13:46:17 GMT-0600 (Central Standard Time),848843.799999997,B,s,I,s,577,2,582.7000000029802,848261.099999994,8002,WL,B,9.0
6,27.79200005531311,distr,32207.99994468689,Wed Nov 06 2024 13:46:17 GMT-0600 (Central Standard Time),849210.799999997,B,st,I,t,346,2,949.7000000029802,848261.099999994,8002,WL,B,9.0
6,28.02500009536743,distr,31974.99990463257,Wed Nov 06 2024 13:46:17 GMT-0600 (Central Standard Time),849443.6999999955,B,ste,I,e,227,2,1182.6000000014901,848261.099999994,8002,WL,B,9.0
6,28.092000007629395,distr,31907.999992370605,Wed Nov 06 2024 13:46:17 GMT-0600 (Central Standard Time),849510.599999994,B,stea,I,a,50,2,1249.5,848261.099999994,8002,WL,B,9.0
6,28.341000080108643,distr,31658.999919891357,Wed Nov 06 2024 13:46:17 GMT-0600 (Central Standard Time),849760.1999999955,B,steam,I,m,239,2,1499.1000000014901,848261.099999994,8002,WL,B,9.0
6,28.891000032424927,distr,31108.999967575073,Wed Nov 06 2024 13:46:17 GMT-0600 (Central Standard Time),850310.0,B,steamenter,I,enter,533,2,2048.9000000059605,848261.099999994,8002,WL,B,9.0
6,29.741000175476074,distr,30258.999824523926,Wed Nov 06 2024 13:46:17 GMT-0600 (Central Standard Time),851159.6999999955,B,c,I,c,839,2,849.1000000014901,850310.599999994,8002,WL,B,10.0
6,29.907000064849854,distr,30092.999935150146,Wed Nov 06 2024 13:46:17 GMT-0600 (Central Standard Time),851326.3999999985,B,co,I,o,150,2,1015.8000000044703,850310.599999994,8002,WL,B,10.0
6,30.223999977111816,distr,29776.000022888184,Wed Nov 06 2024 13:46:17 GMT-0600 (Central Standard Time),851643.0,B,coi,I,i,304,2,1332.4000000059605,850310.599999994,8002,WL,B,10.0
6,30.324000120162964,distr,29675.999879837036,Wed Nov 06 2024 13:46:17 GMT-0600 (Central Standard Time),851742.599999994,B,coin,I,n,90,2,1432.0,850310.599999994,8002,WL,B,10.0
6,31.60700011253357,distr,28392.99988746643,Wed Nov 06 2024 13:46:17 GMT-0600 (Central Standard Time),853025.799999997,B,coinenter,I,enter,1271,2,2715.2000000029802,850310.599999994,8002,WL,B,10.0
6,36.07200002670288,distr,23927.99997329712,Wed Nov 06 2024 13:46:17 GMT-0600 (Central Standard Time),857490.8999999985,B,r,I,r,4461,2,4464.80000000447,853026.099999994,8002,WL,B,11.0
6,36.3050000667572,distr,23694.999933242798,Wed Nov 06 2024 13:46:17 GMT-0600 (Central Standard Time),857724.1999999955,B,ro,I,o,227,2,4698.10000000149,853026.099999994,8002,WL,B,11.0
6,36.57200002670288,distr,23427.99997329712,Wed Nov 06 2024 13:46:17 GMT-0600 (Central Standard Time),857991.1999999955,B,roc,I,c,249,2,4965.10000000149,853026.099999994,8002,WL,B,11.0
6,36.73900008201599,distr,23260.99991798401,Wed Nov 06 2024 13:46:17 GMT-0600 (Central Standard Time),858157.5,B,rock,I,k,151,2,5131.4000000059605,853026.099999994,8002,WL,B,11.0
6,37.140000104904175,distr,22859.999895095825,Wed Nov 06 2024 13:46:17 GMT-0600 (Central Standard Time),858558.6999999955,B,rockenter,I,enter,392,2,5532.60000000149,853026.099999994,8002,WL,B,11.0
6,51.66700005531311,distr,8332.99994468689,Wed Nov 06 2024 13:46:17 GMT-0600 (Central Standard Time),873086.3999999985,B,s,I,s,14512,2,14527.60000000149,858558.799999997,8002,WL,B,12.0
6,51.950000047683716,distr,8049.999952316284,Wed Nov 06 2024 13:46:17 GMT-0600 (Central Standard Time),873369.5,B,st,I,t,271,2,14810.70000000298,858558.799999997,8002,WL,B,12.0
6,52.367000102996826,distr,7632.999897003174,Wed Nov 06 2024 13:46:17 GMT-0600 (Central Standard Time),873785.6999999955,B,sto,I,o,404,2,15226.89999999851,858558.799999997,8002,WL,B,12.0
6,52.51699995994568,distr,7483.000040054321,Wed Nov 06 2024 13:46:17 GMT-0600 (Central Standard Time),873936.099999994,B,stor,I,r,140,2,15377.29999999702,858558.799999997,8002,WL,B,12.0
6,52.700000047683716,distr,7299.999952316284,Wed Nov 06 2024 13:46:17 GMT-0600 (Central Standard Time),874119.299999997,B,storm,I,m,166,2,15560.5,858558.799999997,8002,WL,B,12.0
6,52.867000102996826,distr,7132.999897003174,Wed Nov 06 2024 13:46:17 GMT-0600 (Central Standard Time),874285.6999999955,B,stormenter,I,enter,150,2,15726.89999999851,858558.799999997,8002,WL,B,12.0
6,60.015000104904175,distr,-15.000104904174805,Wed Nov 06 2024 13:46:17 GMT-0600 (Central Standard Time),881433.6999999955,B,None,I,None,7143,2,7147.60000000149,874286.099999994,8002,WL,B,13.0
7,4.98199987411499,immed,55018.00012588501,Wed Nov 06 2024 13:46:17 GMT-0600 (Central Standard Time),913823.3999999985,A,g,I,g,4964,2,4981.5,908841.8999999985,8002,WL,B,1.0
7,5.381999969482422,immed,54618.00003051758,Wed Nov 06 2024 13:46:17 GMT-0600 (Central Standard Time),914223.1999999955,A,gr,I,r,389,2,5381.29999999702,908841.8999999985,8002,WL,B,1.0
7,5.81499981880188,immed,54185.00018119812,Wed Nov 06 2024 13:46:17 GMT-0600 (Central Standard Time),914656.5,A,gra,I,a,414,2,5814.60000000149,908841.8999999985,8002,WL,B,1.0
7,6.2149999141693115,immed,53785.00008583069,Wed Nov 06 2024 13:46:17 GMT-0600 (Central Standard Time),915056.599999994,A,gras,I,s,381,2,6214.69999999553,908841.8999999985,8002,WL,B,1.0
7,6.4649999141693115,immed,53535.00008583069,Wed Nov 06 2024 13:46:17 GMT-0600 (Central Standard Time),915306.5,A,grass,I,s,229,2,6464.60000000149,908841.8999999985,8002,WL,B,1.0
7,7.2809998989105225,immed,52719.00010108948,Wed Nov 06 2024 13:46:17 GMT-0600 (Central Standard Time),916122.6999999955,A,grassenter,I,enter,796,2,7280.79999999702,908841.8999999985,8002,WL,B,1.0
7,8.946999788284302,immed,51053.0002117157,Wed Nov 06 2024 13:46:17 GMT-0600 (Central Standard Time),917788.799999997,A,c,I,c,1651,2,1665.7999999970198,916123.0,8002,WL,B,2.0
7,9.113999843597412,immed,50886.00015640259,Wed Nov 06 2024 13:46:17 GMT-0600 (Central Standard Time),917955.299999997,A,ci,I,i,161,2,1832.2999999970198,916123.0,8002,WL,B,2.0
7,9.398000001907349,immed,50601.99999809265,Wed Nov 06 2024 13:46:17 GMT-0600 (Central Standard Time),918239.0,A,cit,I,t,275,2,2116.0,916123.0,8002,WL,B,2.0
7,9.54699993133545,immed,50453.00006866455,Wed Nov 06 2024 13:46:17 GMT-0600 (Central Standard Time),918388.6999999955,A,city,I,y,143,2,2265.6999999955297,916123.0,8002,WL,B,2.0
7,10.346999883651733,immed,49653.00011634827,Wed Nov 06 2024 13:46:17 GMT-0600 (Central Standard Time),919188.599999994,A,cityenter,I,enter,785,2,3065.5999999940395,916123.0,8002,WL,B,2.0
7,10.597999811172485,immed,49402.000188827515,Wed Nov 06 2024 13:46:17 GMT-0600 (Central Standard Time),919439.5,A,s,I,s,241,2,250.70000000298023,919188.799999997,8002,WL,B,3.0
7,10.912999868392944,immed,49087.000131607056,Wed Nov 06 2024 13:46:17 GMT-0600 (Central Standard Time),919755.0,A,st,I,t,302,2,566.2000000029802,919188.799999997,8002,WL,B,3.0
7,11.146999835968018,immed,48853.00016403198,Wed Nov 06 2024 13:46:17 GMT-0600 (Central Standard Time),919988.1999999955,A,str,I,r,219,2,799.3999999985099,919188.799999997,8002,WL,B,3.0
7,11.38099980354309,immed,48619.00019645691,Wed Nov 06 2024 13:46:17 GMT-0600 (Central Standard Time),920222.299999997,A,stre,I,e,225,2,1033.5,919188.799999997,8002,WL,B,3.0
7,11.61299991607666,immed,48387.00008392334,Wed Nov 06 2024 13:46:17 GMT-0600 (Central Standard Time),920454.799999997,A,stree,I,e,223,2,1266.0,919188.799999997,8002,WL,B,3.0
7,11.962999820709229,immed,48037.00017929077,Wed Nov 06 2024 13:46:17 GMT-0600 (Central Standard Time),920804.5,A,street,I,t,343,2,1615.7000000029802,919188.799999997,8002,WL,B,3.0
7,12.479999780654907,immed,47520.00021934509,Wed Nov 06 2024 13:46:17 GMT-0600 (Central Standard Time),921321.3999999985,A,streetenter,I,enter,505,2,2132.60000000149,919188.799999997,8002,WL,B,3.0
7,12.912999868392944,immed,47087.000131607056,Wed Nov 06 2024 13:46:17 GMT-0600 (Central Standard Time),921754.5,A,a,I,a,412,2,432.80000000447035,921321.6999999955,8002,WL,B,4.0
7,13.095999956130981,immed,46904.00004386902,Wed Nov 06 2024 13:46:17 GMT-0600 (Central Standard Time),921937.299999997,A,ar,I,r,171,2,615.6000000014901,921321.6999999955,8002,WL,B,4.0
7,13.329999923706055,immed,46670.000076293945,Wed Nov 06 2024 13:46:17 GMT-0600 (Central Standard Time),922170.8999999985,A,arm,I,m,212,2,849.2000000029802,921321.6999999955,8002,WL,B,4.0
7,13.77899980545044,immed,46221.00019454956,Wed Nov 06 2024 13:46:17 GMT-0600 (Central Standard Time),922621.0,A,armenter,I,enter,434,2,1299.3000000044703,921321.6999999955,8002,WL,B,4.0
7,14.11299991607666,immed,45887.00008392334,Wed Nov 06 2024 13:46:17 GMT-0600 (Central Standard Time),922954.0,A,d,I,d,313,2,332.70000000298023,922621.299999997,8002,WL,B,5.0
7,14.328999996185303,immed,45671.0000038147,Wed Nov 06 2024 13:46:17 GMT-0600 (Central Standard Time),923170.799999997,A,do,I,o,196,2,549.5,922621.299999997,8002,WL,B,5.0
7,14.495999813079834,immed,45504.000186920166,Wed Nov 06 2024 13:46:17 GMT-0600 (Central Standard Time),923337.1999999955,A,doo,I,o,155,2,715.8999999985099,922621.299999997,8002,WL,B,5.0
7,14.69599986076355,immed,45304.00013923645,Wed Nov 06 2024 13:46:17 GMT-0600 (Central Standard Time),923537.1999999955,A,door,I,r,189,2,915.8999999985099,922621.299999997,8002,WL,B,5.0
7,15.211999893188477,immed,44788.00010681152,Wed Nov 06 2024 13:46:17 GMT-0600 (Central Standard Time),924053.599999994,A,doorenter,I,enter,508,2,1432.2999999970198,922621.299999997,8002,WL,B,5.0
7,15.639999866485596,immed,44360.000133514404,Wed Nov 06 2024 13:46:17 GMT-0600 (Central Standard Time),924481.799999997,A,w,I,w,423,2,427.79999999701977,924054.0,8002,WL,B,6.0
7,15.786999940872192,immed,44213.00005912781,Wed Nov 06 2024 13:46:17 GMT-0600 (Central Standard Time),924628.8999999985,A,wi,I,i,142,2,574.8999999985099,924054.0,8002,WL,B,6.0
7,15.846999883651733,immed,44153.00011634827,Wed Nov 06 2024 13:46:17 GMT-0600 (Central Standard Time),924688.6999999955,A,win,I,n,48,2,634.6999999955297,924054.0,8002,WL,B,6.0
7,16.027999877929688,immed,43972.00012207031,Wed Nov 06 2024 13:46:17 GMT-0600 (Central Standard Time),924869.6999999955,A,wind,I,d,173,2,815.6999999955297,924054.0,8002,WL,B,6.0
7,16.17899990081787,immed,43821.00009918213,Wed Nov 06 2024 13:46:17 GMT-0600 (Central Standard Time),925020.0,A,windo,I,o,144,2,966.0,924054.0,8002,WL,B,6.0
7,16.361999988555908,immed,43638.00001144409,Wed Nov 06 2024 13:46:17 GMT-0600 (Central Standard Time),925203.3999999985,A,window,I,w,170,2,1149.3999999985099,924054.0,8002,WL,B,6.0
7,16.694999933242798,immed,43305.0000667572,Wed Nov 06 2024 13:46:17 GMT-0600 (Central Standard Time),925536.5,A,windowenter,I,enter,314,2,1482.5,924054.0,8002,WL,B,6.0
7,16.944999933242798,immed,43055.0000667572,Wed Nov 06 2024 13:46:17 GMT-0600 (Central Standard Time),925786.599999994,A,w,I,w,230,2,249.89999999850988,925536.6999999955,8002,WL,B,7.0
7,17.111999988555908,immed,42888.00001144409,Wed Nov 06 2024 13:46:17 GMT-0600 (Central Standard Time),925953.799999997,A,wi,I,i,155,2,417.1000000014901,925536.6999999955,8002,WL,B,7.0
7,17.34499979019165,immed,42655.00020980835,Wed Nov 06 2024 13:46:17 GMT-0600 (Central Standard Time),926186.299999997,A,wif,I,f,212,2,649.6000000014901,925536.6999999955,8002,WL,B,7.0
7,17.560999870300293,immed,42439.00012969971,Wed Nov 06 2024 13:46:17 GMT-0600 (Central Standard Time),926402.799999997,A,wife,I,e,213,2,866.1000000014901,925536.6999999955,8002,WL,B,7.0
7,17.91099977493286,immed,42089.00022506714,Wed Nov 06 2024 13:46:17 GMT-0600 (Central Standard Time),926752.799999997,A,wifeenter,I,enter,331,2,1216.1000000014901,925536.6999999955,8002,WL,B,7.0
7,18.16099977493286,immed,41839.00022506714,Wed Nov 06 2024 13:46:17 GMT-0600 (Central Standard Time),927002.5,A,s,I,s,244,2,249.40000000596046,926753.099999994,8002,WL,B,8.0
7,18.444000005722046,immed,41555.999994277954,Wed Nov 06 2024 13:46:17 GMT-0600 (Central Standard Time),927285.8999999985,A,st,I,t,267,2,532.8000000044703,926753.099999994,8002,WL,B,8.0
7,18.694000005722046,immed,41305.999994277954,Wed Nov 06 2024 13:46:17 GMT-0600 (Central Standard Time),927535.8999999985,A,sta,I,a,232,2,782.8000000044703,926753.099999994,8002,WL,B,8.0
7,18.793999910354614,immed,41206.000089645386,Wed Nov 06 2024 13:46:17 GMT-0600 (Central Standard Time),927635.8999999985,A,star,I,r,86,2,882.8000000044703,926753.099999994,8002,WL,B,8.0
7,19.194000005722046,immed,40805.999994277954,Wed Nov 06 2024 13:46:17 GMT-0600 (Central Standard Time),928035.5,A,starenter,I,enter,394,2,1282.4000000059605,926753.099999994,8002,WL,B,8.0
7,20.210999965667725,immed,39789.000034332275,Wed Nov 06 2024 13:46:17 GMT-0600 (Central Standard Time),929052.099999994,A,p,I,p,1010,2,1016.2999999970198,928035.799999997,8002,WL,B,9.0
7,20.676999807357788,immed,39323.00019264221,Wed Nov 06 2024 13:46:17 GMT-0600 (Central Standard Time),929518.6999999955,A,pu,I,u,450,2,1482.8999999985099,928035.799999997,8002,WL,B,9.0
7,20.97699999809265,immed,39023.00000190735,Wed Nov 06 2024 13:46:17 GMT-0600 (Central Standard Time),929818.3999999985,A,pup,I,p,287,2,1782.6000000014901,928035.799999997,8002,WL,B,9.0
7,21.22699999809265,immed,38773.00000190735,Wed Nov 06 2024 13:46:17 GMT-0600 (Central Standard Time),930068.5,A,pupi,I,i,244,2,2032.7000000029802,928035.799999997,8002,WL,B,9.0
7,21.444000005722046,immed,38555.999994277954,Wed Nov 06 2024 13:46:17 GMT-0600 (Central Standard Time),930285.0,A,pupil,I,l,209,2,2249.2000000029802,928035.799999997,8002,WL,B,9.0
7,22.192999839782715,immed,37807.000160217285,Wed Nov 06 2024 13:46:17 GMT-0600 (Central Standard Time),931034.599999994,A,pupilenter,I,enter,737,2,2998.7999999970198,928035.799999997,8002,WL,B,9.0
7,22.742999792099,immed,37257.000207901,Wed Nov 06 2024 13:46:17 GMT-0600 (Central Standard Time),931584.5,A,c,I,c,539,2,549.7000000029802,931034.799999997,8002,WL,B,10.0
7,22.926999807357788,immed,37073.00019264221,Wed Nov 06 2024 13:46:17 GMT-0600 (Central Standard Time),931768.099999994,A,ci,I,i,165,2,733.2999999970198,931034.799999997,8002,WL,B,10.0
7,23.20899987220764,immed,36791.00012779236,Wed Nov 06 2024 13:46:17 GMT-0600 (Central Standard Time),932050.6999999955,A,cit,I,t,269,2,1015.8999999985099,931034.799999997,8002,WL,B,10.0
7,23.39299988746643,immed,36607.00011253357,Wed Nov 06 2024 13:46:17 GMT-0600 (Central Standard Time),932234.299999997,A,city,I,y,178,2,1199.5,931034.799999997,8002,WL,B,10.0
7,23.908999919891357,immed,36091.00008010864,Wed Nov 06 2024 13:46:17 GMT-0600 (Central Standard Time),932750.6999999955,A,cityenter,I,enter,507,2,1715.8999999985099,931034.799999997,8002,WL,B,10.0
7,24.591999769210815,immed,35408.000230789185,Wed Nov 06 2024 13:46:17 GMT-0600 (Central Standard Time),933434.0,A,c,I,c,671,2,682.9000000059605,932751.099999994,8002,WL,B,11.0
7,24.79199981689453,immed,35208.00018310547,Wed Nov 06 2024 13:46:17 GMT-0600 (Central Standard Time),933633.8999999985,A,ca,I,a,188,2,882.8000000044703,932751.099999994,8002,WL,B,11.0
7,25.591999769210815,immed,34408.000230789185,Wed Nov 06 2024 13:46:17 GMT-0600 (Central Standard Time),934433.599999994,A,cab,I,b,788,2,1682.5,932751.099999994,8002,WL,B,11.0
7,25.774999856948853,immed,34225.00014305115,Wed Nov 06 2024 13:46:17 GMT-0600 (Central Standard Time),934616.8999999985,A,cabi,I,i,164,2,1865.8000000044703,932751.099999994,8002,WL,B,11.0
7,25.908999919891357,immed,34091.00008010864,Wed Nov 06 2024 13:46:17 GMT-0600 (Central Standard Time),934750.299999997,A,cabin,I,n,125,2,1999.2000000029802,932751.099999994,8002,WL,B,11.0
7,26.39199995994568,immed,33608.00004005432,Wed Nov 06 2024 13:46:17 GMT-0600 (Central Standard Time),935233.599999994,A,cabinenter,I,enter,472,2,2482.5,932751.099999994,8002,WL,B,11.0
7,26.941999912261963,immed,33058.00008773804,Wed Nov 06 2024 13:46:17 GMT-0600 (Central Standard Time),935783.3999999985,A,l,I,l,540,2,549.5,935233.8999999985,8002,WL,B,12.0
7,27.091999769210815,immed,32908.000230789185,Wed Nov 06 2024 13:46:17 GMT-0600 (Central Standard Time),935933.099999994,A,la,I,a,134,2,699.1999999955297,935233.8999999985,8002,WL,B,12.0
7,27.274999856948853,immed,32725.000143051147,Wed Nov 06 2024 13:46:17 GMT-0600 (Central Standard Time),936116.5,A,lak,I,k,168,2,882.6000000014901,935233.8999999985,8002,WL,B,12.0
7,27.407999992370605,immed,32592.000007629395,Wed Nov 06 2024 13:46:17 GMT-0600 (Central Standard Time),936249.6999999955,A,lake,I,e,121,2,1015.7999999970198,935233.8999999985,8002,WL,B,12.0
7,28.140999794006348,immed,31859.000205993652,Wed Nov 06 2024 13:46:17 GMT-0600 (Central Standard Time),936982.799999997,A,lakeenter,I,enter,716,2,1748.8999999985099,935233.8999999985,8002,WL,B,12.0
7,28.973999977111816,immed,31026.000022888184,Wed Nov 06 2024 13:46:17 GMT-0600 (Central Standard Time),937815.8999999985,A,p,I,p,823,2,832.8000000044703,936983.099999994,8002,WL,B,13.0
7,29.29099988937378,immed,30709.00011062622,Wed Nov 06 2024 13:46:17 GMT-0600 (Central Standard Time),938132.3999999985,A,pi,I,i,302,2,1149.3000000044703,936983.099999994,8002,WL,B,13.0
7,29.573999881744385,immed,30426.000118255615,Wed Nov 06 2024 13:46:17 GMT-0600 (Central Standard Time),938415.599999994,A,pip,I,p,273,2,1432.5,936983.099999994,8002,WL,B,13.0
7,29.907999992370605,immed,30092.000007629395,Wed Nov 06 2024 13:46:17 GMT-0600 (Central Standard Time),938749.0,A,pipe,I,e,318,2,1765.9000000059605,936983.099999994,8002,WL,B,13.0
