block_c,block_dur,condition,countdown,datetime,endtime,list,multichar_response,project,response,response_time,session_number,start_end,starttime,subject_id,task,task_vers,trial
,,,,Tue Feb 25 2025 10:17:48 GMT-0600 (Central Standard Time),,,,I,space,374,3,,,8002,WL,C,
prac,,0,,Tue Feb 25 2025 10:17:48 GMT-0600 (Central Standard Time),,NA,b,I,b,9311,3,,,8002,WL,C,1.0
prac,,0,,Tue Feb 25 2025 10:17:48 GMT-0600 (Central Standard Time),,NA,bo,I,o,320,3,,,8002,WL,C,1.0
prac,,0,,Tue Feb 25 2025 10:17:48 GMT-0600 (Central Standard Time),,NA,boo,I,o,195,3,,,8002,WL,C,1.0
prac,,0,,Tue Feb 25 2025 10:17:48 GMT-0600 (Central Standard Time),,NA,boos,I,s,1083,3,,,8002,WL,C,1.0
prac,,0,,Tue Feb 25 2025 10:17:48 GMT-0600 (Central Standard Time),,NA,boost,I,t,392,3,,,8002,WL,C,1.0
prac,,0,,Tue Feb 25 2025 10:17:48 GMT-0600 (Central Standard Time),,NA,boostenter,I,enter,3216,3,,,8002,WL,C,1.0
1,1.5500001907348633,learn,58449.99980926514,Tue Feb 25 2025 10:17:48 GMT-0600 (Central Standard Time),191097.20000000298,A,t,I,t,1534,3,1549.5,189547.70000000298,8002,WL,C,1.0
1,1.8000001907348633,learn,58199.99980926514,Tue Feb 25 2025 10:17:48 GMT-0600 (Central Standard Time),191346.90000000596,A,to,I,o,240,3,1799.2000000029802,189547.70000000298,8002,WL,C,1.0
1,2.133000135421753,learn,57866.99986457825,Tue Feb 25 2025 10:17:48 GMT-0600 (Central Standard Time),191680.0,A,tow,I,w,319,3,2132.2999999970198,189547.70000000298,8002,WL,C,1.0
1,2.3330001831054688,learn,57666.99981689453,Tue Feb 25 2025 10:17:48 GMT-0600 (Central Standard Time),191879.90000000596,A,towe,I,e,186,3,2332.2000000029802,189547.70000000298,8002,WL,C,1.0
1,2.5340001583099365,learn,57465.99984169006,Tue Feb 25 2025 10:17:48 GMT-0600 (Central Standard Time),192080.70000000298,A,tower,I,r,194,3,2533.0,189547.70000000298,8002,WL,C,1.0
1,3.5490000247955322,learn,56450.99997520447,Tue Feb 25 2025 10:17:48 GMT-0600 (Central Standard Time),193096.20000000298,A,towerenter,I,enter,1000,3,3548.5,189547.70000000298,8002,WL,C,1.0
1,5.0320000648498535,learn,54967.99993515015,Tue Feb 25 2025 10:17:48 GMT-0600 (Central Standard Time),194579.20000000298,A,w,I,w,1473,3,1482.3999999910593,193096.80000001192,8002,WL,C,2.0
1,5.2820000648498535,learn,54717.99993515015,Tue Feb 25 2025 10:17:48 GMT-0600 (Central Standard Time),194829.10000000894,A,wh,I,h,238,3,1732.2999999970198,193096.80000001192,8002,WL,C,2.0
1,5.432000160217285,learn,54567.999839782715,Tue Feb 25 2025 10:17:48 GMT-0600 (Central Standard Time),194979.10000000894,A,whe,I,e,140,3,1882.2999999970198,193096.80000001192,8002,WL,C,2.0
1,5.6650002002716064,learn,54334.99979972839,Tue Feb 25 2025 10:17:48 GMT-0600 (Central Standard Time),195212.10000000894,A,whea,I,a,215,3,2115.2999999970198,193096.80000001192,8002,WL,C,2.0
1,5.9150002002716064,learn,54084.99979972839,Tue Feb 25 2025 10:17:48 GMT-0600 (Central Standard Time),195462.10000000894,A,wheat,I,t,229,3,2365.2999999970198,193096.80000001192,8002,WL,C,2.0
1,6.832000017166138,learn,53167.99998283386,Tue Feb 25 2025 10:17:48 GMT-0600 (Central Standard Time),196378.70000000298,A,wheatenter,I,enter,907,3,3281.8999999910593,193096.80000001192,8002,WL,C,2.0
1,8.430999994277954,learn,51569.000005722046,Tue Feb 25 2025 10:17:48 GMT-0600 (Central Standard Time),197977.90000000596,A,q,I,q,1591,3,1598.7999999970198,196379.10000000894,8002,WL,C,3.0
1,8.864000082015991,learn,51135.99991798401,Tue Feb 25 2025 10:17:48 GMT-0600 (Central Standard Time),198411.20000000298,A,qu,I,u,424,3,2032.0999999940395,196379.10000000894,8002,WL,C,3.0
1,9.098000049591064,learn,50901.999950408936,Tue Feb 25 2025 10:17:48 GMT-0600 (Central Standard Time),198644.5,A,que,I,e,215,3,2265.3999999910593,196379.10000000894,8002,WL,C,3.0
1,9.71399998664856,learn,50286.00001335144,Tue Feb 25 2025 10:17:48 GMT-0600 (Central Standard Time),199260.80000001192,A,quee,I,e,605,3,2881.7000000029802,196379.10000000894,8002,WL,C,3.0
1,10.664000034332275,learn,49335.999965667725,Tue Feb 25 2025 10:17:48 GMT-0600 (Central Standard Time),200210.90000000596,A,queen,I,n,933,3,3831.7999999970198,196379.10000000894,8002,WL,C,3.0
1,11.19700002670288,learn,48802.99997329712,Tue Feb 25 2025 10:17:48 GMT-0600 (Central Standard Time),200743.60000000894,A,queenenter,I,enter,527,3,4364.5,196379.10000000894,8002,WL,C,3.0
1,11.647000074386597,learn,48352.9999256134,Tue Feb 25 2025 10:17:48 GMT-0600 (Central Standard Time),201193.70000000298,A,s,I,s,442,3,449.79999999701977,200743.90000000596,8002,WL,C,4.0
1,12.013000011444092,learn,47986.99998855591,Tue Feb 25 2025 10:17:48 GMT-0600 (Central Standard Time),201560.20000000298,A,su,I,u,360,3,816.2999999970198,200743.90000000596,8002,WL,C,4.0
1,12.21399998664856,learn,47786.00001335144,Tue Feb 25 2025 10:17:48 GMT-0600 (Central Standard Time),201761.0,A,sug,I,g,194,3,1017.0999999940395,200743.90000000596,8002,WL,C,4.0
1,12.430000066757202,learn,47569.9999332428,Tue Feb 25 2025 10:17:48 GMT-0600 (Central Standard Time),201977.0,A,suga,I,a,209,3,1233.0999999940395,200743.90000000596,8002,WL,C,4.0
1,12.563000202178955,learn,47436.999797821045,Tue Feb 25 2025 10:17:48 GMT-0600 (Central Standard Time),202110.10000000894,A,sugar,I,r,121,3,1366.2000000029802,200743.90000000596,8002,WL,C,4.0
1,13.92900013923645,learn,46070.99986076355,Tue Feb 25 2025 10:17:48 GMT-0600 (Central Standard Time),203476.20000000298,A,sugarenter,I,enter,1356,3,2732.2999999970198,200743.90000000596,8002,WL,C,4.0
1,14.812000036239624,learn,45187.999963760376,Tue Feb 25 2025 10:17:48 GMT-0600 (Central Standard Time),204359.20000000298,A,h,I,h,878,3,882.5999999940395,203476.60000000894,8002,WL,C,5.0
1,14.96399998664856,learn,45036.00001335144,Tue Feb 25 2025 10:17:48 GMT-0600 (Central Standard Time),204510.40000000596,A,ho,I,o,130,3,1033.7999999970198,203476.60000000894,8002,WL,C,5.0
1,15.212000131607056,learn,44787.999868392944,Tue Feb 25 2025 10:17:48 GMT-0600 (Central Standard Time),204759.20000000298,A,hom,I,m,227,3,1282.5999999940395,203476.60000000894,8002,WL,C,5.0
1,15.526000022888184,learn,44473.99997711182,Tue Feb 25 2025 10:17:48 GMT-0600 (Central Standard Time),205072.5,A,home,I,e,308,3,1595.8999999910593,203476.60000000894,8002,WL,C,5.0
1,16.796000003814697,learn,43203.9999961853,Tue Feb 25 2025 10:17:48 GMT-0600 (Central Standard Time),206342.5,A,homeenter,I,enter,1256,3,2865.8999999910593,203476.60000000894,8002,WL,C,5.0
1,17.644999980926514,learn,42355.000019073486,Tue Feb 25 2025 10:17:48 GMT-0600 (Central Standard Time),207191.60000000894,A,b,I,b,843,3,848.7999999970198,206342.80000001192,8002,WL,C,6.0
1,17.82800006866455,learn,42171.99993133545,Tue Feb 25 2025 10:17:48 GMT-0600 (Central Standard Time),207375.10000000894,A,bo,I,o,170,3,1032.2999999970198,206342.80000001192,8002,WL,C,6.0
1,18.128000020980835,learn,41871.999979019165,Tue Feb 25 2025 10:17:48 GMT-0600 (Central Standard Time),207675.20000000298,A,boy,I,y,291,3,1332.3999999910593,206342.80000001192,8002,WL,C,6.0
1,19.295000076293945,learn,40704.999923706055,Tue Feb 25 2025 10:17:48 GMT-0600 (Central Standard Time),208841.40000000596,A,boyenter,I,enter,1159,3,2498.5999999940395,206342.80000001192,8002,WL,C,6.0
1,20.377000093460083,learn,39622.99990653992,Tue Feb 25 2025 10:17:48 GMT-0600 (Central Standard Time),209924.30000001192,A,g,I,g,1072,3,1082.6000000089407,208841.70000000298,8002,WL,C,7.0
1,20.627000093460083,learn,39372.99990653992,Tue Feb 25 2025 10:17:48 GMT-0600 (Central Standard Time),210174.10000000894,A,gl,I,l,228,3,1332.4000000059605,208841.70000000298,8002,WL,C,7.0
1,20.877000093460083,learn,39122.99990653992,Tue Feb 25 2025 10:17:48 GMT-0600 (Central Standard Time),210424.10000000894,A,gla,I,a,236,3,1582.4000000059605,208841.70000000298,8002,WL,C,7.0
1,21.127000093460083,learn,38872.99990653992,Tue Feb 25 2025 10:17:48 GMT-0600 (Central Standard Time),210674.10000000894,A,glaf,I,f,234,3,1832.4000000059605,208841.70000000298,8002,WL,C,7.0
1,21.694000005722046,learn,38305.999994277954,Tue Feb 25 2025 10:17:48 GMT-0600 (Central Standard Time),211240.70000000298,A,glafenter,I,enter,560,3,2399.0,208841.70000000298,8002,WL,C,7.0
1,23.41000008583069,learn,36589.99991416931,Tue Feb 25 2025 10:17:48 GMT-0600 (Central Standard Time),212956.80000001192,A,f,I,f,1697,3,1715.6000000089407,211241.20000000298,8002,WL,C,8.0
1,23.627000093460083,learn,36372.99990653992,Tue Feb 25 2025 10:17:48 GMT-0600 (Central Standard Time),213173.5,A,fl,I,l,197,3,1932.2999999970198,211241.20000000298,8002,WL,C,8.0
1,23.743000030517578,learn,36256.99996948242,Tue Feb 25 2025 10:17:48 GMT-0600 (Central Standard Time),213290.0,A,fla,I,a,109,3,2048.7999999970198,211241.20000000298,8002,WL,C,8.0
1,23.91000008583069,learn,36089.99991416931,Tue Feb 25 2025 10:17:48 GMT-0600 (Central Standard Time),213456.70000000298,A,flag,I,g,152,3,2215.5,211241.20000000298,8002,WL,C,8.0
1,24.360000133514404,learn,35639.999866485596,Tue Feb 25 2025 10:17:48 GMT-0600 (Central Standard Time),213906.40000000596,A,flagenter,I,enter,434,3,2665.2000000029802,211241.20000000298,8002,WL,C,8.0
1,24.776000022888184,learn,35223.99997711182,Tue Feb 25 2025 10:17:48 GMT-0600 (Central Standard Time),214323.10000000894,A,d,I,d,400,3,416.29999999701977,213906.80000001192,8002,WL,C,9.0
1,25.075999975204468,learn,34924.00002479553,Tue Feb 25 2025 10:17:48 GMT-0600 (Central Standard Time),214623.10000000894,A,do,I,o,287,3,716.2999999970198,213906.80000001192,8002,WL,C,9.0
1,25.359000205993652,learn,34640.99979400635,Tue Feb 25 2025 10:17:48 GMT-0600 (Central Standard Time),214906.0,A,doc,I,c,267,3,999.1999999880791,213906.80000001192,8002,WL,C,9.0
1,25.70900011062622,learn,34290.99988937378,Tue Feb 25 2025 10:17:48 GMT-0600 (Central Standard Time),215255.80000001192,A,doct,I,t,344,3,1349.0,213906.80000001192,8002,WL,C,9.0
1,25.942000150680542,learn,34057.99984931946,Tue Feb 25 2025 10:17:48 GMT-0600 (Central Standard Time),215489.30000001192,A,docto,I,o,219,3,1582.5,213906.80000001192,8002,WL,C,9.0
1,26.04200005531311,learn,33957.99994468689,Tue Feb 25 2025 10:17:48 GMT-0600 (Central Standard Time),215589.30000001192,A,doctor,I,r,89,3,1682.5,213906.80000001192,8002,WL,C,9.0
1,27.259000062942505,learn,32740.999937057495,Tue Feb 25 2025 10:17:48 GMT-0600 (Central Standard Time),216805.40000000596,A,doctorenter,I,enter,1205,3,2898.5999999940395,213906.80000001192,8002,WL,C,9.0
1,28.225000143051147,learn,31774.999856948853,Tue Feb 25 2025 10:17:48 GMT-0600 (Central Standard Time),217771.90000000596,A,s,I,s,949,3,966.0,216805.90000000596,8002,WL,C,10.0
1,28.375,learn,31625.0,Tue Feb 25 2025 10:17:48 GMT-0600 (Central Standard Time),217921.80000001192,A,sh,I,h,142,3,1115.9000000059605,216805.90000000596,8002,WL,C,10.0
1,28.492000102996826,learn,31507.999897003174,Tue Feb 25 2025 10:17:48 GMT-0600 (Central Standard Time),218038.60000000894,A,sho,I,o,104,3,1232.7000000029802,216805.90000000596,8002,WL,C,10.0
1,28.825000047683716,learn,31174.999952316284,Tue Feb 25 2025 10:17:48 GMT-0600 (Central Standard Time),218371.70000000298,A,shor,I,r,324,3,1565.7999999970198,216805.90000000596,8002,WL,C,10.0
1,28.942000150680542,learn,31057.999849319458,Tue Feb 25 2025 10:17:48 GMT-0600 (Central Standard Time),218488.40000000596,A,shore,I,e,111,3,1682.5,216805.90000000596,8002,WL,C,10.0
1,29.85800004005432,learn,30141.99995994568,Tue Feb 25 2025 10:17:48 GMT-0600 (Central Standard Time),219404.80000001192,A,shoreenter,I,enter,898,3,2598.9000000059605,216805.90000000596,8002,WL,C,10.0
1,34.09000015258789,learn,25909.99984741211,Tue Feb 25 2025 10:17:48 GMT-0600 (Central Standard Time),223637.10000000894,A,b,I,b,4221,3,4231.9000000059605,219405.20000000298,8002,WL,C,11.0
1,34.32300019264221,learn,25676.999807357788,Tue Feb 25 2025 10:17:48 GMT-0600 (Central Standard Time),223869.80000001192,A,bo,I,o,221,3,4464.600000008941,219405.20000000298,8002,WL,C,11.0
1,34.49000000953674,learn,25509.999990463257,Tue Feb 25 2025 10:17:48 GMT-0600 (Central Standard Time),224036.60000000894,A,bod,I,d,157,3,4631.4000000059605,219405.20000000298,8002,WL,C,11.0
1,34.82300019264221,learn,25176.999807357788,Tue Feb 25 2025 10:17:48 GMT-0600 (Central Standard Time),224370.0,A,body,I,y,318,3,4964.79999999702,219405.20000000298,8002,WL,C,11.0
1,35.17300009727478,learn,24826.99990272522,Tue Feb 25 2025 10:17:48 GMT-0600 (Central Standard Time),224719.60000000894,A,bodyenter,I,enter,344,3,5314.4000000059605,219405.20000000298,8002,WL,C,11.0
1,35.75600004196167,learn,24243.99995803833,Tue Feb 25 2025 10:17:48 GMT-0600 (Central Standard Time),225303.0,A,n,I,n,571,3,583.0999999940395,224719.90000000596,8002,WL,C,12.0
1,35.92300009727478,learn,24076.99990272522,Tue Feb 25 2025 10:17:48 GMT-0600 (Central Standard Time),225469.60000000894,A,na,I,a,155,3,749.7000000029802,224719.90000000596,8002,WL,C,12.0
1,36.08899998664856,learn,23911.00001335144,Tue Feb 25 2025 10:17:48 GMT-0600 (Central Standard Time),225636.0,A,nai,I,i,157,3,916.0999999940395,224719.90000000596,8002,WL,C,12.0
1,36.4060001373291,learn,23593.9998626709,Tue Feb 25 2025 10:17:48 GMT-0600 (Central Standard Time),225952.80000001192,A,nail,I,l,302,3,1232.9000000059605,224719.90000000596,8002,WL,C,12.0
1,36.98900008201599,learn,23010.99991798401,Tue Feb 25 2025 10:17:48 GMT-0600 (Central Standard Time),226536.0,A,nailenter,I,enter,570,3,1816.0999999940395,224719.90000000596,8002,WL,C,12.0
1,39.28800010681152,learn,20711.999893188477,Tue Feb 25 2025 10:17:48 GMT-0600 (Central Standard Time),228834.80000001192,A,c,I,c,2282,3,2298.4000000059605,226536.40000000596,8002,WL,C,13.0
1,39.47200012207031,learn,20527.999877929688,Tue Feb 25 2025 10:17:48 GMT-0600 (Central Standard Time),229018.40000000596,A,co,I,o,165,3,2482.0,226536.40000000596,8002,WL,C,13.0
1,39.6710000038147,learn,20328.999996185303,Tue Feb 25 2025 10:17:48 GMT-0600 (Central Standard Time),229218.20000000298,A,cor,I,r,184,3,2681.7999999970198,226536.40000000596,8002,WL,C,13.0
1,40.688000202178955,learn,19311.999797821045,Tue Feb 25 2025 10:17:48 GMT-0600 (Central Standard Time),230234.70000000298,A,corn,I,n,1008,3,3698.2999999970198,226536.40000000596,8002,WL,C,13.0
1,41.271000146865845,learn,18728.999853134155,Tue Feb 25 2025 10:17:48 GMT-0600 (Central Standard Time),230817.90000000596,A,cornenter,I,enter,567,3,4281.5,226536.40000000596,8002,WL,C,13.0
1,55.665000200271606,learn,4334.999799728394,Tue Feb 25 2025 10:17:48 GMT-0600 (Central Standard Time),245213.5,A,c,I,c,14384,3,14395.09999999404,230818.40000000596,8002,WL,C,14.0
1,56.14900016784668,learn,3850.9998321533203,Tue Feb 25 2025 10:17:48 GMT-0600 (Central Standard Time),245696.60000000894,A,ca,I,a,476,3,14878.20000000298,230818.40000000596,8002,WL,C,14.0
1,56.33300018310547,learn,3666.9998168945312,Tue Feb 25 2025 10:17:48 GMT-0600 (Central Standard Time),245880.80000001192,A,cas,I,s,178,3,15062.40000000596,230818.40000000596,8002,WL,C,14.0
1,56.58200001716614,learn,3417.9999828338623,Tue Feb 25 2025 10:17:48 GMT-0600 (Central Standard Time),246129.80000001192,A,cast,I,t,241,3,15311.40000000596,230818.40000000596,8002,WL,C,14.0
1,56.86500000953674,learn,3134.999990463257,Tue Feb 25 2025 10:17:48 GMT-0600 (Central Standard Time),246413.10000000894,A,castl,I,l,264,3,15594.70000000298,230818.40000000596,8002,WL,C,14.0
1,57.03200006484985,learn,2967.9999351501465,Tue Feb 25 2025 10:17:48 GMT-0600 (Central Standard Time),246579.60000000894,A,castle,I,e,149,3,15761.20000000298,230818.40000000596,8002,WL,C,14.0
1,57.29800009727478,learn,2701.9999027252197,Tue Feb 25 2025 10:17:48 GMT-0600 (Central Standard Time),246846.40000000596,A,castleenter,I,enter,255,3,16028.0,230818.40000000596,8002,WL,C,14.0
1,60.01400017738342,learn,-14.000177383422852,Tue Feb 25 2025 10:17:48 GMT-0600 (Central Standard Time),249562.10000000894,A,None,I,None,2711,3,2715.4000000059605,246846.70000000298,8002,WL,C,15.0
2,1.0830001831054688,learn,58916.99981689453,Tue Feb 25 2025 10:17:48 GMT-0600 (Central Standard Time),328237.3000000119,A,t,I,t,1065,3,1082.9000000059605,327154.40000000596,8002,WL,C,1.0
2,1.3500001430511475,learn,58649.99985694885,Tue Feb 25 2025 10:17:48 GMT-0600 (Central Standard Time),328504.10000000894,A,to,I,o,252,3,1349.7000000029802,327154.40000000596,8002,WL,C,1.0
2,1.565999984741211,learn,58434.00001525879,Tue Feb 25 2025 10:17:48 GMT-0600 (Central Standard Time),328720.60000000894,A,tow,I,w,202,3,1566.2000000029802,327154.40000000596,8002,WL,C,1.0
2,1.7330000400543213,learn,58266.99995994568,Tue Feb 25 2025 10:17:48 GMT-0600 (Central Standard Time),328887.3000000119,A,towe,I,e,162,3,1732.9000000059605,327154.40000000596,8002,WL,C,1.0
2,1.9830000400543213,learn,58016.99995994568,Tue Feb 25 2025 10:17:48 GMT-0600 (Central Standard Time),329137.0,A,tower,I,r,235,3,1982.5999999940395,327154.40000000596,8002,WL,C,1.0
2,2.5329999923706055,learn,57467.000007629395,Tue Feb 25 2025 10:17:48 GMT-0600 (Central Standard Time),329686.90000000596,A,towerenter,I,enter,537,3,2532.5,327154.40000000596,8002,WL,C,1.0
2,3.0160000324249268,learn,56983.99996757507,Tue Feb 25 2025 10:17:48 GMT-0600 (Central Standard Time),330170.10000000894,A,w,I,w,467,3,482.79999999701977,329687.3000000119,8002,WL,C,2.0
2,3.2660000324249268,learn,56733.99996757507,Tue Feb 25 2025 10:17:48 GMT-0600 (Central Standard Time),330420.10000000894,A,wh,I,h,240,3,732.7999999970198,329687.3000000119,8002,WL,C,2.0
2,3.499000072479248,learn,56500.99992752075,Tue Feb 25 2025 10:17:48 GMT-0600 (Central Standard Time),330653.40000000596,A,whe,I,e,214,3,966.0999999940395,329687.3000000119,8002,WL,C,2.0
2,3.682000160217285,learn,56317.999839782715,Tue Feb 25 2025 10:17:48 GMT-0600 (Central Standard Time),330836.5,A,whea,I,a,165,3,1149.199999988079,329687.3000000119,8002,WL,C,2.0
2,3.932000160217285,learn,56067.999839782715,Tue Feb 25 2025 10:17:48 GMT-0600 (Central Standard Time),331086.8000000119,A,wheat,I,t,229,3,1399.5,329687.3000000119,8002,WL,C,2.0
2,4.932000160217285,learn,55067.999839782715,Tue Feb 25 2025 10:17:48 GMT-0600 (Central Standard Time),332086.200000003,A,wheatenter,I,enter,980,3,2398.8999999910593,329687.3000000119,8002,WL,C,2.0
2,5.365000009536743,learn,54634.99999046326,Tue Feb 25 2025 10:17:48 GMT-0600 (Central Standard Time),332519.3000000119,A,q,I,q,428,3,432.80000001192093,332086.5,8002,WL,C,3.0
2,5.615000009536743,learn,54384.99999046326,Tue Feb 25 2025 10:17:48 GMT-0600 (Central Standard Time),332769.40000000596,A,qu,I,u,243,3,682.9000000059605,332086.5,8002,WL,C,3.0
2,5.898000001907349,learn,54101.99999809265,Tue Feb 25 2025 10:17:48 GMT-0600 (Central Standard Time),333052.700000003,A,que,I,e,265,3,966.2000000029802,332086.5,8002,WL,C,3.0
2,6.148000001907349,learn,53851.99999809265,Tue Feb 25 2025 10:17:48 GMT-0600 (Central Standard Time),333302.40000000596,A,quee,I,e,238,3,1215.9000000059605,332086.5,8002,WL,C,3.0
2,6.433000087738037,learn,53566.99991226196,Tue Feb 25 2025 10:17:48 GMT-0600 (Central Standard Time),333587.200000003,A,queen,I,n,276,3,1500.7000000029802,332086.5,8002,WL,C,3.0
2,7.231000185012817,learn,52768.99981498718,Tue Feb 25 2025 10:17:48 GMT-0600 (Central Standard Time),334385.40000000596,A,queenenter,I,enter,791,3,2298.9000000059605,332086.5,8002,WL,C,3.0
2,7.831000089645386,learn,52168.999910354614,Tue Feb 25 2025 10:17:48 GMT-0600 (Central Standard Time),334985.3000000119,A,s,I,s,585,3,599.6000000089407,334385.700000003,8002,WL,C,4.0
2,8.064000129699707,learn,51935.99987030029,Tue Feb 25 2025 10:17:48 GMT-0600 (Central Standard Time),335218.60000000894,A,su,I,u,217,3,832.9000000059605,334385.700000003,8002,WL,C,4.0
2,8.314000129699707,learn,51685.99987030029,Tue Feb 25 2025 10:17:48 GMT-0600 (Central Standard Time),335468.40000000596,A,sug,I,g,240,3,1082.7000000029802,334385.700000003,8002,WL,C,4.0
2,8.531000137329102,learn,51468.9998626709,Tue Feb 25 2025 10:17:48 GMT-0600 (Central Standard Time),335685.200000003,A,suga,I,a,206,3,1299.5,334385.700000003,8002,WL,C,4.0
2,8.63100004196167,learn,51368.99995803833,Tue Feb 25 2025 10:17:48 GMT-0600 (Central Standard Time),335785.10000000894,A,sugar,I,r,85,3,1399.4000000059605,334385.700000003,8002,WL,C,4.0
2,9.264000177383423,learn,50735.99982261658,Tue Feb 25 2025 10:17:48 GMT-0600 (Central Standard Time),336418.10000000894,A,sugarenter,I,enter,625,3,2032.4000000059605,334385.700000003,8002,WL,C,4.0
2,9.797000169754028,learn,50202.99983024597,Tue Feb 25 2025 10:17:48 GMT-0600 (Central Standard Time),336951.5,A,h,I,h,520,3,533.0999999940395,336418.40000000596,8002,WL,C,5.0
2,9.94700002670288,learn,50052.99997329712,Tue Feb 25 2025 10:17:48 GMT-0600 (Central Standard Time),337101.3000000119,A,ho,I,o,130,3,682.9000000059605,336418.40000000596,8002,WL,C,5.0
2,10.164000034332275,learn,49835.999965667725,Tue Feb 25 2025 10:17:48 GMT-0600 (Central Standard Time),337317.90000000596,A,hom,I,m,197,3,899.5,336418.40000000596,8002,WL,C,5.0
2,10.380000114440918,learn,49619.99988555908,Tue Feb 25 2025 10:17:48 GMT-0600 (Central Standard Time),337534.40000000596,A,home,I,e,204,3,1116.0,336418.40000000596,8002,WL,C,5.0
2,11.213000059127808,learn,48786.99994087219,Tue Feb 25 2025 10:17:48 GMT-0600 (Central Standard Time),338367.60000000894,A,homeenter,I,enter,820,3,1949.2000000029802,336418.40000000596,8002,WL,C,5.0
2,12.11300015449524,learn,47886.99984550476,Tue Feb 25 2025 10:17:48 GMT-0600 (Central Standard Time),339267.10000000894,A,b,I,b,882,3,899.2000000029802,338367.90000000596,8002,WL,C,6.0
2,12.296000003814697,learn,47703.9999961853,Tue Feb 25 2025 10:17:48 GMT-0600 (Central Standard Time),339450.5,A,bo,I,o,167,3,1082.5999999940395,338367.90000000596,8002,WL,C,6.0
2,12.646000146865845,learn,47353.999853134155,Tue Feb 25 2025 10:17:48 GMT-0600 (Central Standard Time),339800.700000003,A,boy,I,y,336,3,1432.7999999970198,338367.90000000596,8002,WL,C,6.0
2,13.463000059127808,learn,46536.99994087219,Tue Feb 25 2025 10:17:48 GMT-0600 (Central Standard Time),340617.0,A,boyenter,I,enter,810,3,2249.0999999940395,338367.90000000596,8002,WL,C,6.0
2,13.963000059127808,learn,46036.99994087219,Tue Feb 25 2025 10:17:48 GMT-0600 (Central Standard Time),341116.8000000119,A,c,I,c,489,3,499.5,340617.3000000119,8002,WL,C,7.0
2,14.095999956130981,learn,45904.00004386902,Tue Feb 25 2025 10:17:48 GMT-0600 (Central Standard Time),341250.200000003,A,ca,I,a,126,3,632.8999999910593,340617.3000000119,8002,WL,C,7.0
2,14.26200008392334,learn,45737.99991607666,Tue Feb 25 2025 10:17:48 GMT-0600 (Central Standard Time),341416.60000000894,A,cam,I,m,160,3,799.2999999970198,340617.3000000119,8002,WL,C,7.0
2,14.578999996185303,learn,45421.0000038147,Tue Feb 25 2025 10:17:48 GMT-0600 (Central Standard Time),341733.200000003,A,camp,I,p,298,3,1115.8999999910593,340617.3000000119,8002,WL,C,7.0
2,15.129000186920166,learn,44870.999813079834,Tue Feb 25 2025 10:17:48 GMT-0600 (Central Standard Time),342282.8000000119,A,campenter,I,enter,541,3,1665.5,340617.3000000119,8002,WL,C,7.0
2,15.479000091552734,learn,44520.999908447266,Tue Feb 25 2025 10:17:48 GMT-0600 (Central Standard Time),342632.90000000596,A,d,I,d,335,3,349.79999999701977,342283.10000000894,8002,WL,C,8.0
2,16.42799997329712,learn,43572.00002670288,Tue Feb 25 2025 10:17:48 GMT-0600 (Central Standard Time),343582.8000000119,A,do,I,o,929,3,1299.7000000029802,342283.10000000894,8002,WL,C,8.0
2,16.59500002861023,learn,43404.99997138977,Tue Feb 25 2025 10:17:48 GMT-0600 (Central Standard Time),343749.200000003,A,doc,I,c,147,3,1466.0999999940395,342283.10000000894,8002,WL,C,8.0
2,16.978000164031982,learn,43021.99983596802,Tue Feb 25 2025 10:17:48 GMT-0600 (Central Standard Time),344132.60000000894,A,doct,I,t,373,3,1849.5,342283.10000000894,8002,WL,C,8.0
2,17.16100001335144,learn,42838.99998664856,Tue Feb 25 2025 10:17:48 GMT-0600 (Central Standard Time),344315.700000003,A,docto,I,o,174,3,2032.5999999940395,342283.10000000894,8002,WL,C,8.0
2,17.32800006866455,learn,42671.99993133545,Tue Feb 25 2025 10:17:48 GMT-0600 (Central Standard Time),344482.200000003,A,doctor,I,r,151,3,2199.0999999940395,342283.10000000894,8002,WL,C,8.0
2,18.878000020980835,learn,41121.999979019165,Tue Feb 25 2025 10:17:48 GMT-0600 (Central Standard Time),346031.90000000596,A,doctorenter,I,enter,1536,3,3748.7999999970198,342283.10000000894,8002,WL,C,8.0
2,20.194000005722046,learn,39805.999994277954,Tue Feb 25 2025 10:17:48 GMT-0600 (Central Standard Time),347347.90000000596,A,f,I,f,1299,3,1315.7999999970198,346032.10000000894,8002,WL,C,9.0
2,20.377000093460083,learn,39622.99990653992,Tue Feb 25 2025 10:17:48 GMT-0600 (Central Standard Time),347531.3000000119,A,fl,I,l,174,3,1499.2000000029802,346032.10000000894,8002,WL,C,9.0
2,20.509999990463257,learn,39490.00000953674,Tue Feb 25 2025 10:17:48 GMT-0600 (Central Standard Time),347664.700000003,A,fla,I,a,127,3,1632.5999999940395,346032.10000000894,8002,WL,C,9.0
2,20.677000045776367,learn,39322.99995422363,Tue Feb 25 2025 10:17:48 GMT-0600 (Central Standard Time),347831.3000000119,A,flag,I,g,146,3,1799.2000000029802,346032.10000000894,8002,WL,C,9.0
2,21.0770001411438,learn,38922.9998588562,Tue Feb 25 2025 10:17:48 GMT-0600 (Central Standard Time),348231.40000000596,A,flagenter,I,enter,379,3,2199.2999999970198,346032.10000000894,8002,WL,C,9.0
2,21.443000078201294,learn,38556.999921798706,Tue Feb 25 2025 10:17:48 GMT-0600 (Central Standard Time),348597.700000003,A,l,I,l,347,3,366.0,348231.700000003,8002,WL,C,10.0
2,21.677000045776367,learn,38322.99995422363,Tue Feb 25 2025 10:17:48 GMT-0600 (Central Standard Time),348831.0,A,le,I,e,212,3,599.2999999970198,348231.700000003,8002,WL,C,10.0
2,21.960000038146973,learn,38039.99996185303,Tue Feb 25 2025 10:17:48 GMT-0600 (Central Standard Time),349114.200000003,A,let,I,t,275,3,882.5,348231.700000003,8002,WL,C,10.0
2,22.14300012588501,learn,37856.99987411499,Tue Feb 25 2025 10:17:48 GMT-0600 (Central Standard Time),349297.5,A,lett,I,t,168,3,1065.7999999970198,348231.700000003,8002,WL,C,10.0
2,22.56000018119812,learn,37439.99981880188,Tue Feb 25 2025 10:17:48 GMT-0600 (Central Standard Time),349714.10000000894,A,lette,I,e,409,3,1482.4000000059605,348231.700000003,8002,WL,C,10.0
2,22.743000030517578,learn,37256.99996948242,Tue Feb 25 2025 10:17:48 GMT-0600 (Central Standard Time),349897.3000000119,A,letter,I,r,168,3,1665.6000000089407,348231.700000003,8002,WL,C,10.0
2,23.62600016593933,learn,36373.99983406067,Tue Feb 25 2025 10:17:48 GMT-0600 (Central Standard Time),350780.40000000596,A,letterenter,I,enter,873,3,2548.7000000029802,348231.700000003,8002,WL,C,10.0
2,24.12600016593933,learn,35873.99983406067,Tue Feb 25 2025 10:17:48 GMT-0600 (Central Standard Time),351280.0,A,c,I,c,493,3,499.09999999403954,350780.90000000596,8002,WL,C,11.0
2,24.30900001525879,learn,35690.99998474121,Tue Feb 25 2025 10:17:48 GMT-0600 (Central Standard Time),351463.40000000596,A,ca,I,a,179,3,682.5,350780.90000000596,8002,WL,C,11.0
2,24.62600016593933,learn,35373.99983406067,Tue Feb 25 2025 10:17:48 GMT-0600 (Central Standard Time),351779.90000000596,A,cat,I,t,299,3,999.0,350780.90000000596,8002,WL,C,11.0
2,24.776000022888184,learn,35223.99997711182,Tue Feb 25 2025 10:17:48 GMT-0600 (Central Standard Time),351929.90000000596,A,catt,I,t,142,3,1149.0,350780.90000000596,8002,WL,C,11.0
2,24.942000150680542,learn,35057.99984931946,Tue Feb 25 2025 10:17:48 GMT-0600 (Central Standard Time),352096.700000003,A,cattl,I,l,153,3,1315.7999999970198,350780.90000000596,8002,WL,C,11.0
2,25.125,learn,34875.0,Tue Feb 25 2025 10:17:48 GMT-0600 (Central Standard Time),352279.700000003,A,cattle,I,e,178,3,1498.7999999970198,350780.90000000596,8002,WL,C,11.0
2,25.592000007629395,learn,34407.999992370605,Tue Feb 25 2025 10:17:48 GMT-0600 (Central Standard Time),352746.40000000596,A,cattleenter,I,enter,459,3,1965.5,350780.90000000596,8002,WL,C,11.0
2,25.79200005531311,learn,34207.99994468689,Tue Feb 25 2025 10:17:48 GMT-0600 (Central Standard Time),352946.10000000894,A,c,I,c,191,3,199.29999999701977,352746.8000000119,8002,WL,C,12.0
2,26.29200005531311,learn,33707.99994468689,Tue Feb 25 2025 10:17:48 GMT-0600 (Central Standard Time),353446.0,A,co,I,o,487,3,699.1999999880791,352746.8000000119,8002,WL,C,12.0
2,26.52500009536743,learn,33474.99990463257,Tue Feb 25 2025 10:17:48 GMT-0600 (Central Standard Time),353679.10000000894,A,cor,I,r,227,3,932.2999999970198,352746.8000000119,8002,WL,C,12.0
2,26.842000007629395,learn,33157.999992370605,Tue Feb 25 2025 10:17:48 GMT-0600 (Central Standard Time),353995.90000000596,A,corn,I,n,298,3,1249.0999999940395,352746.8000000119,8002,WL,C,12.0
2,27.94099998474121,learn,32059.00001525879,Tue Feb 25 2025 10:17:48 GMT-0600 (Central Standard Time),355095.5,A,cornenter,I,enter,1086,3,2348.699999988079,352746.8000000119,8002,WL,C,12.0
2,28.723999977111816,learn,31276.000022888184,Tue Feb 25 2025 10:17:48 GMT-0600 (Central Standard Time),355878.40000000596,A,n,I,n,771,3,782.7000000029802,355095.700000003,8002,WL,C,13.0
2,28.874000072479248,learn,31125.999927520752,Tue Feb 25 2025 10:17:48 GMT-0600 (Central Standard Time),356028.5,A,na,I,a,140,3,932.7999999970198,355095.700000003,8002,WL,C,13.0
2,29.057000160217285,learn,30942.999839782715,Tue Feb 25 2025 10:17:48 GMT-0600 (Central Standard Time),356211.60000000894,A,nai,I,i,174,3,1115.9000000059605,355095.700000003,8002,WL,C,13.0
2,29.341000080108643,learn,30658.999919891357,Tue Feb 25 2025 10:17:48 GMT-0600 (Central Standard Time),356495.10000000894,A,nail,I,l,270,3,1399.4000000059605,355095.700000003,8002,WL,C,13.0
2,29.824000120162964,learn,30175.999879837036,Tue Feb 25 2025 10:17:48 GMT-0600 (Central Standard Time),356978.5,A,nailenter,I,enter,475,3,1882.7999999970198,355095.700000003,8002,WL,C,13.0
2,30.29100012779236,learn,29708.99987220764,Tue Feb 25 2025 10:17:48 GMT-0600 (Central Standard Time),357445.0,A,s,I,s,448,3,466.09999999403954,356978.90000000596,8002,WL,C,14.0
2,30.557000160217285,learn,29442.999839782715,Tue Feb 25 2025 10:17:48 GMT-0600 (Central Standard Time),357711.8000000119,A,sh,I,h,245,3,732.9000000059605,356978.90000000596,8002,WL,C,14.0
2,30.674000024795532,learn,29325.999975204468,Tue Feb 25 2025 10:17:48 GMT-0600 (Central Standard Time),357828.0,A,sho,I,o,99,3,849.0999999940395,356978.90000000596,8002,WL,C,14.0
2,31.039000034332275,learn,28960.999965667725,Tue Feb 25 2025 10:17:48 GMT-0600 (Central Standard Time),358194.700000003,A,shor,I,r,350,3,1215.7999999970198,356978.90000000596,8002,WL,C,14.0
2,31.472000122070312,learn,28527.999877929688,Tue Feb 25 2025 10:17:48 GMT-0600 (Central Standard Time),358627.90000000596,A,shore,I,e,423,3,1649.0,356978.90000000596,8002,WL,C,14.0
2,33.605000019073486,learn,26394.999980926514,Tue Feb 25 2025 10:17:48 GMT-0600 (Central Standard Time),360760.700000003,A,shoreenter,I,enter,2126,3,3781.7999999970198,356978.90000000596,8002,WL,C,14.0
2,46.26800012588501,learn,13731.99987411499,Tue Feb 25 2025 10:17:48 GMT-0600 (Central Standard Time),373423.5,A,f,I,f,12641,3,12662.5,360761.0,8002,WL,C,15.0
2,46.48399996757507,learn,13516.000032424927,Tue Feb 25 2025 10:17:48 GMT-0600 (Central Standard Time),373639.90000000596,A,fl,I,l,202,3,12878.90000000596,360761.0,8002,WL,C,15.0
2,46.70099997520447,learn,13299.000024795532,Tue Feb 25 2025 10:17:48 GMT-0600 (Central Standard Time),373856.40000000596,A,fla,I,a,210,3,13095.40000000596,360761.0,8002,WL,C,15.0
2,46.88499999046326,learn,13115.000009536743,Tue Feb 25 2025 10:17:48 GMT-0600 (Central Standard Time),374040.90000000596,A,flag,I,g,178,3,13279.90000000596,360761.0,8002,WL,C,15.0
2,47.2020001411438,learn,12797.999858856201,Tue Feb 25 2025 10:17:48 GMT-0600 (Central Standard Time),374357.200000003,A,flagenter,I,enter,297,3,13596.20000000298,360761.0,8002,WL,C,15.0
3,1.0829999446868896,learn,58917.00005531311,Tue Feb 25 2025 10:17:48 GMT-0600 (Central Standard Time),445334.10000000894,A,t,I,t,1072,3,1082.7999999970198,444251.3000000119,8002,WL,C,1.0
3,1.3329999446868896,learn,58667.00005531311,Tue Feb 25 2025 10:17:48 GMT-0600 (Central Standard Time),445584.10000000894,A,to,I,o,236,3,1332.7999999970198,444251.3000000119,8002,WL,C,1.0
3,1.5829999446868896,learn,58417.00005531311,Tue Feb 25 2025 10:17:48 GMT-0600 (Central Standard Time),445834.10000000894,A,tow,I,w,242,3,1582.7999999970198,444251.3000000119,8002,WL,C,1.0
3,1.7669999599456787,learn,58233.00004005432,Tue Feb 25 2025 10:17:48 GMT-0600 (Central Standard Time),446017.40000000596,A,towe,I,e,168,3,1766.0999999940395,444251.3000000119,8002,WL,C,1.0
3,1.9830000400543213,learn,58016.99995994568,Tue Feb 25 2025 10:17:48 GMT-0600 (Central Standard Time),446234.10000000894,A,tower,I,r,200,3,1982.7999999970198,444251.3000000119,8002,WL,C,1.0
3,2.5999999046325684,learn,57400.00009536743,Tue Feb 25 2025 10:17:48 GMT-0600 (Central Standard Time),446850.5,A,towerenter,I,enter,608,3,2599.199999988079,444251.3000000119,8002,WL,C,1.0
3,3.4830000400543213,learn,56516.99995994568,Tue Feb 25 2025 10:17:48 GMT-0600 (Central Standard Time),447733.40000000596,A,w,I,w,864,3,882.7000000029802,446850.700000003,8002,WL,C,2.0
3,3.749000072479248,learn,56250.99992752075,Tue Feb 25 2025 10:17:48 GMT-0600 (Central Standard Time),448000.10000000894,A,wh,I,h,253,3,1149.4000000059605,446850.700000003,8002,WL,C,2.0
3,3.9660000801086426,learn,56033.99991989136,Tue Feb 25 2025 10:17:48 GMT-0600 (Central Standard Time),448216.60000000894,A,whe,I,e,202,3,1365.9000000059605,446850.700000003,8002,WL,C,2.0
3,4.365999937057495,learn,55634.000062942505,Tue Feb 25 2025 10:17:48 GMT-0600 (Central Standard Time),448616.700000003,A,whea,I,a,386,3,1766.0,446850.700000003,8002,WL,C,2.0
3,4.648999929428101,learn,55351.0000705719,Tue Feb 25 2025 10:17:48 GMT-0600 (Central Standard Time),448899.8000000119,A,wheat,I,t,266,3,2049.1000000089407,446850.700000003,8002,WL,C,2.0
3,5.2170000076293945,learn,54782.999992370605,Tue Feb 25 2025 10:17:48 GMT-0600 (Central Standard Time),449467.8000000119,A,wheatenter,I,enter,550,3,2617.1000000089407,446850.700000003,8002,WL,C,2.0
3,5.832000017166138,learn,54167.99998283386,Tue Feb 25 2025 10:17:48 GMT-0600 (Central Standard Time),450082.8000000119,A,q,I,q,606,3,614.6000000089407,449468.200000003,8002,WL,C,3.0
3,6.148999929428101,learn,53851.0000705719,Tue Feb 25 2025 10:17:48 GMT-0600 (Central Standard Time),450399.3000000119,A,qu,I,u,297,3,931.1000000089407,449468.200000003,8002,WL,C,3.0
3,6.615000009536743,learn,53384.99999046326,Tue Feb 25 2025 10:17:48 GMT-0600 (Central Standard Time),450865.700000003,A,que,I,e,451,3,1397.5,449468.200000003,8002,WL,C,3.0
3,6.865000009536743,learn,53134.99999046326,Tue Feb 25 2025 10:17:48 GMT-0600 (Central Standard Time),451115.8000000119,A,quee,I,e,233,3,1647.6000000089407,449468.200000003,8002,WL,C,3.0
3,7.131999969482422,learn,52868.00003051758,Tue Feb 25 2025 10:17:48 GMT-0600 (Central Standard Time),451382.3000000119,A,queen,I,n,246,3,1914.1000000089407,449468.200000003,8002,WL,C,3.0
3,7.815000057220459,learn,52184.99994277954,Tue Feb 25 2025 10:17:48 GMT-0600 (Central Standard Time),452065.5,A,queenenter,I,enter,676,3,2597.2999999970198,449468.200000003,8002,WL,C,3.0
3,8.648000001907349,learn,51351.99999809265,Tue Feb 25 2025 10:17:48 GMT-0600 (Central Standard Time),452898.60000000894,A,s,I,s,824,3,832.6000000089407,452066.0,8002,WL,C,4.0
3,9.030999898910522,learn,50969.00010108948,Tue Feb 25 2025 10:17:48 GMT-0600 (Central Standard Time),453281.700000003,A,su,I,u,376,3,1215.7000000029802,452066.0,8002,WL,C,4.0
3,9.230999946594238,learn,50769.00005340576,Tue Feb 25 2025 10:17:48 GMT-0600 (Central Standard Time),453482.0,A,sug,I,g,193,3,1416.0,452066.0,8002,WL,C,4.0
3,9.496999979019165,learn,50503.000020980835,Tue Feb 25 2025 10:17:48 GMT-0600 (Central Standard Time),453748.10000000894,A,suga,I,a,248,3,1682.1000000089407,452066.0,8002,WL,C,4.0
3,9.63100004196167,learn,50368.99995803833,Tue Feb 25 2025 10:17:48 GMT-0600 (Central Standard Time),453881.700000003,A,sugar,I,r,118,3,1815.7000000029802,452066.0,8002,WL,C,4.0
3,10.180999994277954,learn,49819.000005722046,Tue Feb 25 2025 10:17:48 GMT-0600 (Central Standard Time),454431.5,A,sugarenter,I,enter,544,3,2365.5,452066.0,8002,WL,C,4.0
3,10.780999898910522,learn,49219.00010108948,Tue Feb 25 2025 10:17:48 GMT-0600 (Central Standard Time),455031.200000003,A,h,I,h,595,3,599.5,454431.700000003,8002,WL,C,5.0
3,10.94700002670288,learn,49052.99997329712,Tue Feb 25 2025 10:17:48 GMT-0600 (Central Standard Time),455197.700000003,A,ho,I,o,147,3,766.0,454431.700000003,8002,WL,C,5.0
3,11.180000066757202,learn,48819.9999332428,Tue Feb 25 2025 10:17:48 GMT-0600 (Central Standard Time),455431.200000003,A,hom,I,m,229,3,999.5,454431.700000003,8002,WL,C,5.0
3,11.69700002670288,learn,48302.99997329712,Tue Feb 25 2025 10:17:48 GMT-0600 (Central Standard Time),455947.700000003,A,home,I,e,499,3,1516.0,454431.700000003,8002,WL,C,5.0
3,12.246999979019165,learn,47753.000020980835,Tue Feb 25 2025 10:17:48 GMT-0600 (Central Standard Time),456497.200000003,A,homeenter,I,enter,535,3,2065.5,454431.700000003,8002,WL,C,5.0
3,13.095999956130981,learn,46904.00004386902,Tue Feb 25 2025 10:17:48 GMT-0600 (Central Standard Time),457347.200000003,A,b,I,b,833,3,849.7000000029802,456497.5,8002,WL,C,6.0
3,13.312999963760376,learn,46687.000036239624,Tue Feb 25 2025 10:17:48 GMT-0600 (Central Standard Time),457563.700000003,A,bo,I,o,199,3,1066.2000000029802,456497.5,8002,WL,C,6.0
3,13.629999876022339,learn,46370.00012397766,Tue Feb 25 2025 10:17:48 GMT-0600 (Central Standard Time),457880.3000000119,A,boy,I,y,303,3,1382.800000011921,456497.5,8002,WL,C,6.0
3,14.263000011444092,learn,45736.99998855591,Tue Feb 25 2025 10:17:48 GMT-0600 (Central Standard Time),458513.200000003,A,boyenter,I,enter,618,3,2015.7000000029802,456497.5,8002,WL,C,6.0
3,14.746000051498413,learn,45253.99994850159,Tue Feb 25 2025 10:17:48 GMT-0600 (Central Standard Time),458996.60000000894,A,d,I,d,473,3,483.0,458513.60000000894,8002,WL,C,7.0
3,15.428999900817871,learn,44571.00009918213,Tue Feb 25 2025 10:17:48 GMT-0600 (Central Standard Time),459679.8000000119,A,do,I,o,670,3,1166.2000000029802,458513.60000000894,8002,WL,C,7.0
3,15.611999988555908,learn,44388.00001144409,Tue Feb 25 2025 10:17:48 GMT-0600 (Central Standard Time),459863.0,A,doc,I,c,171,3,1349.3999999910593,458513.60000000894,8002,WL,C,7.0
3,15.961999893188477,learn,44038.00010681152,Tue Feb 25 2025 10:17:48 GMT-0600 (Central Standard Time),460212.90000000596,A,doct,I,t,331,3,1699.2999999970198,458513.60000000894,8002,WL,C,7.0
3,16.145999908447266,learn,43854.000091552734,Tue Feb 25 2025 10:17:48 GMT-0600 (Central Standard Time),460396.5,A,docto,I,o,165,3,1882.8999999910593,458513.60000000894,8002,WL,C,7.0
3,16.26200008392334,learn,43737.99991607666,Tue Feb 25 2025 10:17:48 GMT-0600 (Central Standard Time),460512.700000003,A,doctor,I,r,102,3,1999.0999999940395,458513.60000000894,8002,WL,C,7.0
3,16.911999940872192,learn,43088.00005912781,Tue Feb 25 2025 10:17:48 GMT-0600 (Central Standard Time),461162.5,A,doctorenter,I,enter,641,3,2648.8999999910593,458513.60000000894,8002,WL,C,7.0
3,17.444999933242798,learn,42555.0000667572,Tue Feb 25 2025 10:17:48 GMT-0600 (Central Standard Time),461695.60000000894,A,c,I,c,520,3,532.7000000029802,461162.90000000596,8002,WL,C,8.0
3,17.57800006866455,learn,42421.99993133545,Tue Feb 25 2025 10:17:48 GMT-0600 (Central Standard Time),461828.90000000596,A,ca,I,a,115,3,666.0,461162.90000000596,8002,WL,C,8.0
3,17.795000076293945,learn,42204.999923706055,Tue Feb 25 2025 10:17:48 GMT-0600 (Central Standard Time),462045.60000000894,A,cam,I,m,205,3,882.7000000029802,461162.90000000596,8002,WL,C,8.0
3,18.045000076293945,learn,41954.999923706055,Tue Feb 25 2025 10:17:48 GMT-0600 (Central Standard Time),462295.40000000596,A,camp,I,p,245,3,1132.5,461162.90000000596,8002,WL,C,8.0
3,18.82800006866455,learn,41171.99993133545,Tue Feb 25 2025 10:17:48 GMT-0600 (Central Standard Time),463078.700000003,A,campenter,I,enter,763,3,1915.7999999970198,461162.90000000596,8002,WL,C,8.0
3,19.710999965667725,learn,40289.000034332275,Tue Feb 25 2025 10:17:48 GMT-0600 (Central Standard Time),463961.8000000119,A,f,I,f,876,3,882.9000000059605,463078.90000000596,8002,WL,C,9.0
3,19.966000080108643,learn,40033.99991989136,Tue Feb 25 2025 10:17:48 GMT-0600 (Central Standard Time),464217.200000003,A,fl,I,l,251,3,1138.2999999970198,463078.90000000596,8002,WL,C,9.0
3,20.11400008201599,learn,39885.99991798401,Tue Feb 25 2025 10:17:48 GMT-0600 (Central Standard Time),464364.700000003,A,fla,I,a,142,3,1285.7999999970198,463078.90000000596,8002,WL,C,9.0
3,20.527999877929688,learn,39472.00012207031,Tue Feb 25 2025 10:17:48 GMT-0600 (Central Standard Time),464778.40000000596,A,flag,I,g,397,3,1699.5,463078.90000000596,8002,WL,C,9.0
3,21.026999950408936,learn,38973.000049591064,Tue Feb 25 2025 10:17:48 GMT-0600 (Central Standard Time),465278.0,A,flagenter,I,enter,480,3,2199.0999999940395,463078.90000000596,8002,WL,C,9.0
3,21.526999950408936,learn,38473.000049591064,Tue Feb 25 2025 10:17:48 GMT-0600 (Central Standard Time),465777.700000003,A,l,I,l,484,3,499.3999999910593,465278.3000000119,8002,WL,C,10.0
3,22.026999950408936,learn,37973.000049591064,Tue Feb 25 2025 10:17:48 GMT-0600 (Central Standard Time),466277.5,A,le,I,e,488,3,999.1999999880791,465278.3000000119,8002,WL,C,10.0
3,22.359999895095825,learn,37640.000104904175,Tue Feb 25 2025 10:17:48 GMT-0600 (Central Standard Time),466610.90000000596,A,let,I,t,317,3,1332.5999999940395,465278.3000000119,8002,WL,C,10.0
3,22.57699990272522,learn,37423.00009727478,Tue Feb 25 2025 10:17:48 GMT-0600 (Central Standard Time),466827.40000000596,A,lett,I,t,207,3,1549.0999999940395,465278.3000000119,8002,WL,C,10.0
3,22.859999895095825,learn,37140.000104904175,Tue Feb 25 2025 10:17:48 GMT-0600 (Central Standard Time),467110.700000003,A,lette,I,e,271,3,1832.3999999910593,465278.3000000119,8002,WL,C,10.0
3,22.960000038146973,learn,37039.99996185303,Tue Feb 25 2025 10:17:48 GMT-0600 (Central Standard Time),467210.60000000894,A,letter,I,r,91,3,1932.2999999970198,465278.3000000119,8002,WL,C,10.0
3,23.55999994277954,learn,36440.00005722046,Tue Feb 25 2025 10:17:48 GMT-0600 (Central Standard Time),467810.3000000119,A,letterenter,I,enter,584,3,2532.0,465278.3000000119,8002,WL,C,10.0
3,24.325999975204468,learn,35674.00002479553,Tue Feb 25 2025 10:17:48 GMT-0600 (Central Standard Time),468577.0,A,c,I,c,752,3,766.2999999970198,467810.700000003,8002,WL,C,11.0
3,24.526000022888184,learn,35473.99997711182,Tue Feb 25 2025 10:17:48 GMT-0600 (Central Standard Time),468777.0,A,co,I,o,185,3,966.2999999970198,467810.700000003,8002,WL,C,11.0
3,24.675999879837036,learn,35324.000120162964,Tue Feb 25 2025 10:17:48 GMT-0600 (Central Standard Time),468926.90000000596,A,cor,I,r,137,3,1116.2000000029802,467810.700000003,8002,WL,C,11.0
3,24.91000008583069,learn,35089.99991416931,Tue Feb 25 2025 10:17:48 GMT-0600 (Central Standard Time),469161.0,A,corn,I,n,227,3,1350.2999999970198,467810.700000003,8002,WL,C,11.0
3,26.125999927520752,learn,33874.00007247925,Tue Feb 25 2025 10:17:48 GMT-0600 (Central Standard Time),470376.3000000119,A,cornenter,I,enter,1201,3,2565.6000000089407,467810.700000003,8002,WL,C,11.0
3,26.691999912261963,learn,33308.00008773804,Tue Feb 25 2025 10:17:48 GMT-0600 (Central Standard Time),470942.8000000119,A,n,I,n,546,3,566.2000000029802,470376.60000000894,8002,WL,C,12.0
3,26.842000007629395,learn,33157.999992370605,Tue Feb 25 2025 10:17:48 GMT-0600 (Central Standard Time),471092.90000000596,A,na,I,a,132,3,716.2999999970198,470376.60000000894,8002,WL,C,12.0
3,27.05900001525879,learn,32940.99998474121,Tue Feb 25 2025 10:17:48 GMT-0600 (Central Standard Time),471309.3000000119,A,nai,I,i,197,3,932.7000000029802,470376.60000000894,8002,WL,C,12.0
3,27.441999912261963,learn,32558.000087738037,Tue Feb 25 2025 10:17:48 GMT-0600 (Central Standard Time),471692.60000000894,A,nail,I,l,365,3,1316.0,470376.60000000894,8002,WL,C,12.0
3,28.092000007629395,learn,31907.999992370605,Tue Feb 25 2025 10:17:48 GMT-0600 (Central Standard Time),472342.3000000119,A,nailenter,I,enter,638,3,1965.7000000029802,470376.60000000894,8002,WL,C,12.0
3,28.54200005531311,learn,31457.99994468689,Tue Feb 25 2025 10:17:48 GMT-0600 (Central Standard Time),472792.3000000119,A,c,I,c,436,3,449.70000000298023,472342.60000000894,8002,WL,C,13.0
3,28.774999856948853,learn,31225.000143051147,Tue Feb 25 2025 10:17:48 GMT-0600 (Central Standard Time),473025.700000003,A,ca,I,a,218,3,683.0999999940395,472342.60000000894,8002,WL,C,13.0
3,29.124000072479248,learn,30875.999927520752,Tue Feb 25 2025 10:17:48 GMT-0600 (Central Standard Time),473375.10000000894,A,cat,I,t,344,3,1032.5,472342.60000000894,8002,WL,C,13.0
3,29.325000047683716,learn,30674.999952316284,Tue Feb 25 2025 10:17:48 GMT-0600 (Central Standard Time),473575.40000000596,A,catt,I,t,179,3,1232.7999999970198,472342.60000000894,8002,WL,C,13.0
3,29.54200005531311,learn,30457.99994468689,Tue Feb 25 2025 10:17:48 GMT-0600 (Central Standard Time),473793.10000000894,A,cattl,I,l,211,3,1450.5,472342.60000000894,8002,WL,C,13.0
3,29.95799994468689,learn,30042.00005531311,Tue Feb 25 2025 10:17:48 GMT-0600 (Central Standard Time),474208.5,A,cattle,I,e,401,3,1865.8999999910593,472342.60000000894,8002,WL,C,13.0
3,31.091000080108643,learn,28908.999919891357,Tue Feb 25 2025 10:17:48 GMT-0600 (Central Standard Time),475341.5,A,cattleenter,I,enter,1121,3,2998.8999999910593,472342.60000000894,8002,WL,C,13.0
3,32.24000000953674,learn,27759.999990463257,Tue Feb 25 2025 10:17:48 GMT-0600 (Central Standard Time),476491.0,A,b,I,b,1141,3,1149.0999999940395,475341.90000000596,8002,WL,C,14.0
3,32.47499990463257,learn,27525.00009536743,Tue Feb 25 2025 10:17:48 GMT-0600 (Central Standard Time),476725.5,A,bo,I,o,215,3,1383.5999999940395,475341.90000000596,8002,WL,C,14.0
3,32.65700006484985,learn,27342.999935150146,Tue Feb 25 2025 10:17:48 GMT-0600 (Central Standard Time),476907.5,A,bod,I,d,164,3,1565.5999999940395,475341.90000000596,8002,WL,C,14.0
3,32.889999866485596,learn,27110.000133514404,Tue Feb 25 2025 10:17:48 GMT-0600 (Central Standard Time),477141.0,A,body,I,y,223,3,1799.0999999940395,475341.90000000596,8002,WL,C,14.0
3,33.473000049591064,learn,26526.999950408936,Tue Feb 25 2025 10:17:48 GMT-0600 (Central Standard Time),477723.90000000596,A,bodyenter,I,enter,565,3,2382.0,475341.90000000596,8002,WL,C,14.0
3,33.75699996948242,learn,26243.000030517578,Tue Feb 25 2025 10:17:48 GMT-0600 (Central Standard Time),478007.40000000596,A,s,I,s,263,3,283.09999999403954,477724.3000000119,8002,WL,C,15.0
3,33.95599985122681,learn,26044.000148773193,Tue Feb 25 2025 10:17:48 GMT-0600 (Central Standard Time),478207.200000003,A,sh,I,h,187,3,482.8999999910593,477724.3000000119,8002,WL,C,15.0
3,34.17199993133545,learn,25828.00006866455,Tue Feb 25 2025 10:17:48 GMT-0600 (Central Standard Time),478423.90000000596,A,sho,I,o,203,3,699.5999999940395,477724.3000000119,8002,WL,C,15.0
3,34.58899998664856,learn,25411.00001335144,Tue Feb 25 2025 10:17:48 GMT-0600 (Central Standard Time),478840.5,A,shor,I,r,402,3,1116.199999988079,477724.3000000119,8002,WL,C,15.0
3,34.7720000743866,learn,25227.999925613403,Tue Feb 25 2025 10:17:48 GMT-0600 (Central Standard Time),479023.5,A,shore,I,e,178,3,1299.199999988079,477724.3000000119,8002,WL,C,15.0
3,35.289000034332275,learn,24710.999965667725,Tue Feb 25 2025 10:17:48 GMT-0600 (Central Standard Time),479540.200000003,A,shoreenter,I,enter,507,3,1815.8999999910593,477724.3000000119,8002,WL,C,15.0
4,1.182999849319458,learn,58817.00015068054,Tue Feb 25 2025 10:17:48 GMT-0600 (Central Standard Time),551434.400000006,A,t,I,t,1176,3,1182.9000000059605,550251.5,8002,WL,C,1.0
4,1.3999998569488525,learn,58600.00014305115,Tue Feb 25 2025 10:17:48 GMT-0600 (Central Standard Time),551651.0,A,to,I,o,199,3,1399.5,550251.5,8002,WL,C,1.0
4,1.6329998970031738,learn,58367.000102996826,Tue Feb 25 2025 10:17:48 GMT-0600 (Central Standard Time),551884.3000000119,A,tow,I,w,223,3,1632.800000011921,550251.5,8002,WL,C,1.0
4,1.8499999046325684,learn,58150.00009536743,Tue Feb 25 2025 10:17:48 GMT-0600 (Central Standard Time),552100.900000006,A,towe,I,e,206,3,1849.4000000059605,550251.5,8002,WL,C,1.0
4,2.048999786376953,learn,57951.00021362305,Tue Feb 25 2025 10:17:48 GMT-0600 (Central Standard Time),552300.700000003,A,tower,I,r,189,3,2049.2000000029802,550251.5,8002,WL,C,1.0
4,3.365999937057495,learn,56634.000062942505,Tue Feb 25 2025 10:17:48 GMT-0600 (Central Standard Time),553617.0,A,towerenter,I,enter,1310,3,3365.5,550251.5,8002,WL,C,1.0
4,3.7659997940063477,learn,56234.00020599365,Tue Feb 25 2025 10:17:48 GMT-0600 (Central Standard Time),554016.900000006,A,w,I,w,393,3,399.59999999403954,553617.3000000119,8002,WL,C,2.0
4,4.014999866485596,learn,55985.000133514404,Tue Feb 25 2025 10:17:48 GMT-0600 (Central Standard Time),554266.5,A,wh,I,h,241,3,649.1999999880791,553617.3000000119,8002,WL,C,2.0
4,4.2159998416900635,learn,55784.00015830994,Tue Feb 25 2025 10:17:48 GMT-0600 (Central Standard Time),554466.900000006,A,whe,I,e,184,3,849.5999999940395,553617.3000000119,8002,WL,C,2.0
4,4.398999929428101,learn,55601.0000705719,Tue Feb 25 2025 10:17:48 GMT-0600 (Central Standard Time),554650.1000000089,A,whea,I,a,175,3,1032.7999999970198,553617.3000000119,8002,WL,C,2.0
4,4.598999977111816,learn,55401.00002288818,Tue Feb 25 2025 10:17:48 GMT-0600 (Central Standard Time),554850.0,A,wheat,I,t,184,3,1232.699999988079,553617.3000000119,8002,WL,C,2.0
4,5.048999786376953,learn,54951.00021362305,Tue Feb 25 2025 10:17:48 GMT-0600 (Central Standard Time),555299.700000003,A,wheatenter,I,enter,440,3,1682.3999999910593,553617.3000000119,8002,WL,C,2.0
4,5.9649999141693115,learn,54035.00008583069,Tue Feb 25 2025 10:17:48 GMT-0600 (Central Standard Time),556216.0,A,q,I,q,912,3,915.8999999910593,555300.1000000089,8002,WL,C,3.0
4,6.197999954223633,learn,53802.00004577637,Tue Feb 25 2025 10:17:48 GMT-0600 (Central Standard Time),556449.6000000089,A,qu,I,u,226,3,1149.5,555300.1000000089,8002,WL,C,3.0
4,6.414999961853027,learn,53585.00003814697,Tue Feb 25 2025 10:17:48 GMT-0600 (Central Standard Time),556666.1000000089,A,que,I,e,209,3,1366.0,555300.1000000089,8002,WL,C,3.0
4,6.648000001907349,learn,53351.99999809265,Tue Feb 25 2025 10:17:48 GMT-0600 (Central Standard Time),556899.3000000119,A,quee,I,e,216,3,1599.2000000029802,555300.1000000089,8002,WL,C,3.0
4,6.947999954223633,learn,53052.00004577637,Tue Feb 25 2025 10:17:48 GMT-0600 (Central Standard Time),557199.5,A,queen,I,n,295,3,1899.3999999910593,555300.1000000089,8002,WL,C,3.0
4,7.514999866485596,learn,52485.000133514404,Tue Feb 25 2025 10:17:48 GMT-0600 (Central Standard Time),557765.900000006,A,queenenter,I,enter,555,3,2465.7999999970198,555300.1000000089,8002,WL,C,3.0
4,7.96399998664856,learn,52036.00001335144,Tue Feb 25 2025 10:17:48 GMT-0600 (Central Standard Time),558215.700000003,A,s,I,s,436,3,449.3999999910593,557766.3000000119,8002,WL,C,4.0
4,8.310999870300293,learn,51689.00012969971,Tue Feb 25 2025 10:17:48 GMT-0600 (Central Standard Time),558562.5,A,su,I,u,341,3,796.1999999880791,557766.3000000119,8002,WL,C,4.0
4,8.780999898910522,learn,51219.00010108948,Tue Feb 25 2025 10:17:48 GMT-0600 (Central Standard Time),559031.900000006,A,sug,I,g,463,3,1265.5999999940395,557766.3000000119,8002,WL,C,4.0
4,8.997999906539917,learn,51002.00009346008,Tue Feb 25 2025 10:17:48 GMT-0600 (Central Standard Time),559248.8000000119,A,suga,I,a,211,3,1482.5,557766.3000000119,8002,WL,C,4.0
4,9.148000001907349,learn,50851.99999809265,Tue Feb 25 2025 10:17:48 GMT-0600 (Central Standard Time),559399.700000003,A,sugar,I,r,138,3,1633.3999999910593,557766.3000000119,8002,WL,C,4.0
4,9.696999788284302,learn,50303.0002117157,Tue Feb 25 2025 10:17:48 GMT-0600 (Central Standard Time),559948.200000003,A,sugarenter,I,enter,530,3,2181.8999999910593,557766.3000000119,8002,WL,C,4.0
4,10.513999938964844,learn,49486.000061035156,Tue Feb 25 2025 10:17:48 GMT-0600 (Central Standard Time),560765.1000000089,A,h,I,h,798,3,816.6000000089407,559948.5,8002,WL,C,5.0
4,10.629999876022339,learn,49370.00012397766,Tue Feb 25 2025 10:17:48 GMT-0600 (Central Standard Time),560881.400000006,A,ho,I,o,109,3,932.9000000059605,559948.5,8002,WL,C,5.0
4,10.896999835968018,learn,49103.00016403198,Tue Feb 25 2025 10:17:48 GMT-0600 (Central Standard Time),561148.1000000089,A,hom,I,m,257,3,1199.6000000089407,559948.5,8002,WL,C,5.0
4,11.096999883651733,learn,48903.00011634827,Tue Feb 25 2025 10:17:48 GMT-0600 (Central Standard Time),561348.1000000089,A,home,I,e,182,3,1399.6000000089407,559948.5,8002,WL,C,5.0
4,11.61299991607666,learn,48387.00008392334,Tue Feb 25 2025 10:17:48 GMT-0600 (Central Standard Time),561864.5,A,homeenter,I,enter,502,3,1916.0,559948.5,8002,WL,C,5.0
4,12.162999868392944,learn,47837.000131607056,Tue Feb 25 2025 10:17:48 GMT-0600 (Central Standard Time),562414.3000000119,A,b,I,b,538,3,549.6000000089407,561864.700000003,8002,WL,C,6.0
4,12.36299991607666,learn,47637.00008392334,Tue Feb 25 2025 10:17:48 GMT-0600 (Central Standard Time),562614.200000003,A,bo,I,o,188,3,749.5,561864.700000003,8002,WL,C,6.0
4,12.679999828338623,learn,47320.00017166138,Tue Feb 25 2025 10:17:48 GMT-0600 (Central Standard Time),562930.8000000119,A,boy,I,y,308,3,1066.1000000089407,561864.700000003,8002,WL,C,6.0
4,13.345999956130981,learn,46654.00004386902,Tue Feb 25 2025 10:17:48 GMT-0600 (Central Standard Time),563597.1000000089,A,boyenter,I,enter,648,3,1732.4000000059605,561864.700000003,8002,WL,C,6.0
4,14.013000011444092,learn,45986.99998855591,Tue Feb 25 2025 10:17:48 GMT-0600 (Central Standard Time),564263.8000000119,A,d,I,d,645,3,666.4000000059605,563597.400000006,8002,WL,C,7.0
4,14.27899980545044,learn,45721.00019454956,Tue Feb 25 2025 10:17:48 GMT-0600 (Central Standard Time),564530.3000000119,A,do,I,o,250,3,932.9000000059605,563597.400000006,8002,WL,C,7.0
4,14.478999853134155,learn,45521.000146865845,Tue Feb 25 2025 10:17:48 GMT-0600 (Central Standard Time),564730.3000000119,A,doc,I,c,184,3,1132.9000000059605,563597.400000006,8002,WL,C,7.0
4,14.828999996185303,learn,45171.0000038147,Tue Feb 25 2025 10:17:48 GMT-0600 (Central Standard Time),565080.200000003,A,doct,I,t,336,3,1482.7999999970198,563597.400000006,8002,WL,C,7.0
4,15.01199984550476,learn,44988.00015449524,Tue Feb 25 2025 10:17:48 GMT-0600 (Central Standard Time),565263.5,A,docto,I,o,163,3,1666.0999999940395,563597.400000006,8002,WL,C,7.0
4,15.128999948501587,learn,44871.00005149841,Tue Feb 25 2025 10:17:48 GMT-0600 (Central Standard Time),565380.1000000089,A,doctor,I,r,99,3,1782.7000000029802,563597.400000006,8002,WL,C,7.0
4,15.628999948501587,learn,44371.00005149841,Tue Feb 25 2025 10:17:48 GMT-0600 (Central Standard Time),565879.900000006,A,doctorenter,I,enter,486,3,2282.5,563597.400000006,8002,WL,C,7.0
4,16.046000003814697,learn,43953.9999961853,Tue Feb 25 2025 10:17:48 GMT-0600 (Central Standard Time),566297.200000003,A,c,I,c,402,3,417.0,565880.200000003,8002,WL,C,8.0
4,16.161999940872192,learn,43838.00005912781,Tue Feb 25 2025 10:17:48 GMT-0600 (Central Standard Time),566413.1000000089,A,ca,I,a,97,3,532.9000000059605,565880.200000003,8002,WL,C,8.0
4,16.411999940872192,learn,43588.00005912781,Tue Feb 25 2025 10:17:48 GMT-0600 (Central Standard Time),566663.0,A,cam,I,m,237,3,782.7999999970198,565880.200000003,8002,WL,C,8.0
4,16.777999877929688,learn,43222.00012207031,Tue Feb 25 2025 10:17:48 GMT-0600 (Central Standard Time),567029.1000000089,A,camp,I,p,355,3,1148.9000000059605,565880.200000003,8002,WL,C,8.0
4,17.544999837875366,learn,42455.000162124634,Tue Feb 25 2025 10:17:48 GMT-0600 (Central Standard Time),567795.900000006,A,campenter,I,enter,757,3,1915.7000000029802,565880.200000003,8002,WL,C,8.0
4,18.76099991798401,learn,41239.00008201599,Tue Feb 25 2025 10:17:48 GMT-0600 (Central Standard Time),569012.1000000089,A,f,I,f,1207,3,1215.9000000059605,567796.200000003,8002,WL,C,9.0
4,19.01099991798401,learn,40989.00008201599,Tue Feb 25 2025 10:17:48 GMT-0600 (Central Standard Time),569262.1000000089,A,fl,I,l,238,3,1465.9000000059605,567796.200000003,8002,WL,C,9.0
4,19.143999814987183,learn,40856.00018501282,Tue Feb 25 2025 10:17:48 GMT-0600 (Central Standard Time),569395.400000006,A,fla,I,a,124,3,1599.2000000029802,567796.200000003,8002,WL,C,9.0
4,19.293999910354614,learn,40706.000089645386,Tue Feb 25 2025 10:17:48 GMT-0600 (Central Standard Time),569545.400000006,A,flag,I,g,143,3,1749.2000000029802,567796.200000003,8002,WL,C,9.0
4,19.643999814987183,learn,40356.00018501282,Tue Feb 25 2025 10:17:48 GMT-0600 (Central Standard Time),569895.3000000119,A,flagenter,I,enter,329,3,2099.1000000089407,567796.200000003,8002,WL,C,9.0
4,20.05999994277954,learn,39940.00005722046,Tue Feb 25 2025 10:17:48 GMT-0600 (Central Standard Time),570311.6000000089,A,l,I,l,396,3,415.90000000596046,569895.700000003,8002,WL,C,10.0
4,20.3439998626709,learn,39656.0001373291,Tue Feb 25 2025 10:17:48 GMT-0600 (Central Standard Time),570595.200000003,A,le,I,e,275,3,699.5,569895.700000003,8002,WL,C,10.0
4,20.626999855041504,learn,39373.000144958496,Tue Feb 25 2025 10:17:48 GMT-0600 (Central Standard Time),570878.5,A,let,I,t,263,3,982.7999999970198,569895.700000003,8002,WL,C,10.0
4,21.444000005722046,learn,38555.999994277954,Tue Feb 25 2025 10:17:48 GMT-0600 (Central Standard Time),571695.0,A,lett,I,t,796,3,1799.2999999970198,569895.700000003,8002,WL,C,10.0
4,21.742999792099,learn,38257.000207901,Tue Feb 25 2025 10:17:48 GMT-0600 (Central Standard Time),571994.6000000089,A,lette,I,e,283,3,2098.9000000059605,569895.700000003,8002,WL,C,10.0
4,21.82699990272522,learn,38173.00009727478,Tue Feb 25 2025 10:17:48 GMT-0600 (Central Standard Time),572078.0,A,letter,I,r,72,3,2182.2999999970198,569895.700000003,8002,WL,C,10.0
4,22.359999895095825,learn,37640.000104904175,Tue Feb 25 2025 10:17:48 GMT-0600 (Central Standard Time),572611.200000003,A,letterenter,I,enter,524,3,2715.5,569895.700000003,8002,WL,C,10.0
4,22.709999799728394,learn,37290.00020027161,Tue Feb 25 2025 10:17:48 GMT-0600 (Central Standard Time),572961.200000003,A,c,I,c,344,3,349.70000000298023,572611.5,8002,WL,C,11.0
4,22.942999839782715,learn,37057.000160217285,Tue Feb 25 2025 10:17:48 GMT-0600 (Central Standard Time),573194.3000000119,A,co,I,o,225,3,582.8000000119209,572611.5,8002,WL,C,11.0
4,23.125999927520752,learn,36874.00007247925,Tue Feb 25 2025 10:17:48 GMT-0600 (Central Standard Time),573377.6000000089,A,cor,I,r,176,3,766.1000000089407,572611.5,8002,WL,C,11.0
4,23.40999984741211,learn,36590.00015258789,Tue Feb 25 2025 10:17:48 GMT-0600 (Central Standard Time),573660.8000000119,A,corn,I,n,273,3,1049.300000011921,572611.5,8002,WL,C,11.0
4,23.97599983215332,learn,36024.00016784668,Tue Feb 25 2025 10:17:48 GMT-0600 (Central Standard Time),574227.3000000119,A,cornenter,I,enter,558,3,1615.800000011921,572611.5,8002,WL,C,11.0
4,25.191999912261963,learn,34808.00008773804,Tue Feb 25 2025 10:17:48 GMT-0600 (Central Standard Time),575443.3000000119,A,n,I,n,1207,3,1215.800000011921,574227.5,8002,WL,C,12.0
4,25.358999967575073,learn,34641.00003242493,Tue Feb 25 2025 10:17:48 GMT-0600 (Central Standard Time),575610.3000000119,A,na,I,a,160,3,1382.800000011921,574227.5,8002,WL,C,12.0
4,25.574999809265137,learn,34425.00019073486,Tue Feb 25 2025 10:17:48 GMT-0600 (Central Standard Time),575826.700000003,A,nai,I,i,200,3,1599.2000000029802,574227.5,8002,WL,C,12.0
4,25.858999967575073,learn,34141.00003242493,Tue Feb 25 2025 10:17:48 GMT-0600 (Central Standard Time),576110.0,A,nail,I,l,264,3,1882.5,574227.5,8002,WL,C,12.0
4,26.241999864578247,learn,33758.00013542175,Tue Feb 25 2025 10:17:48 GMT-0600 (Central Standard Time),576493.1000000089,A,nailenter,I,enter,364,3,2265.6000000089407,574227.5,8002,WL,C,12.0
4,26.674999952316284,learn,33325.000047683716,Tue Feb 25 2025 10:17:48 GMT-0600 (Central Standard Time),576926.400000006,A,c,I,c,413,3,433.0,576493.400000006,8002,WL,C,13.0
4,26.924999952316284,learn,33075.000047683716,Tue Feb 25 2025 10:17:48 GMT-0600 (Central Standard Time),577176.400000006,A,ca,I,a,237,3,683.0,576493.400000006,8002,WL,C,13.0
4,27.39199995994568,learn,32608.00004005432,Tue Feb 25 2025 10:17:48 GMT-0600 (Central Standard Time),577643.0,A,cat,I,t,450,3,1149.5999999940395,576493.400000006,8002,WL,C,13.0
4,27.657999992370605,learn,32342.000007629395,Tue Feb 25 2025 10:17:48 GMT-0600 (Central Standard Time),577909.400000006,A,catt,I,t,255,3,1416.0,576493.400000006,8002,WL,C,13.0
4,28.490999937057495,learn,31509.000062942505,Tue Feb 25 2025 10:17:48 GMT-0600 (Central Standard Time),578742.5,A,cattl,I,l,813,3,2249.0999999940395,576493.400000006,8002,WL,C,13.0
4,28.875,learn,31125.0,Tue Feb 25 2025 10:17:48 GMT-0600 (Central Standard Time),579125.8000000119,A,cattle,I,e,372,3,2632.4000000059605,576493.400000006,8002,WL,C,13.0
4,29.990999937057495,learn,30009.000062942505,Tue Feb 25 2025 10:17:48 GMT-0600 (Central Standard Time),580242.200000003,A,cattleenter,I,enter,1101,3,3748.7999999970198,576493.400000006,8002,WL,C,13.0
4,31.12399983406067,learn,28876.00016593933,Tue Feb 25 2025 10:17:48 GMT-0600 (Central Standard Time),581375.200000003,A,s,I,s,1120,3,1132.7000000029802,580242.5,8002,WL,C,14.0
4,31.2739999294281,learn,28726.0000705719,Tue Feb 25 2025 10:17:48 GMT-0600 (Central Standard Time),581525.1000000089,A,sh,I,h,139,3,1282.6000000089407,580242.5,8002,WL,C,14.0
4,31.43999981880188,learn,28560.00018119812,Tue Feb 25 2025 10:17:48 GMT-0600 (Central Standard Time),581691.5,A,sho,I,o,157,3,1449.0,580242.5,8002,WL,C,14.0
4,31.72099995613098,learn,28279.00004386902,Tue Feb 25 2025 10:17:48 GMT-0600 (Central Standard Time),581972.3000000119,A,shor,I,r,276,3,1729.800000011921,580242.5,8002,WL,C,14.0
4,31.867999792099,learn,28132.000207901,Tue Feb 25 2025 10:17:48 GMT-0600 (Central Standard Time),582119.6000000089,A,shore,I,e,142,3,1877.1000000089407,580242.5,8002,WL,C,14.0
4,32.85699987411499,learn,27143.00012588501,Tue Feb 25 2025 10:17:48 GMT-0600 (Central Standard Time),583107.900000006,A,shoreenter,I,enter,978,3,2865.4000000059605,580242.5,8002,WL,C,14.0
4,33.60599994659424,learn,26394.00005340576,Tue Feb 25 2025 10:17:48 GMT-0600 (Central Standard Time),583857.5,A,b,I,b,735,3,749.2999999970198,583108.200000003,8002,WL,C,15.0
4,34.055999994277954,learn,25944.000005722046,Tue Feb 25 2025 10:17:48 GMT-0600 (Central Standard Time),584307.400000006,A,bo,I,o,433,3,1199.2000000029802,583108.200000003,8002,WL,C,15.0
4,34.25599980354309,learn,25744.00019645691,Tue Feb 25 2025 10:17:48 GMT-0600 (Central Standard Time),584507.400000006,A,bod,I,d,191,3,1399.2000000029802,583108.200000003,8002,WL,C,15.0
4,34.50599980354309,learn,25494.00019645691,Tue Feb 25 2025 10:17:48 GMT-0600 (Central Standard Time),584757.6000000089,A,body,I,y,239,3,1649.4000000059605,583108.200000003,8002,WL,C,15.0
4,34.95599985122681,learn,25044.000148773193,Tue Feb 25 2025 10:17:48 GMT-0600 (Central Standard Time),585207.200000003,A,bodyenter,I,enter,437,3,2099.0,583108.200000003,8002,WL,C,15.0
5,1.5839998722076416,learn,60000.0,Tue Feb 25 2025 10:17:48 GMT-0600 (Central Standard Time),653086.5,A,q,I,q,1572,3,1583.199999988079,651503.3000000119,8002,WL,C,1.0
5,2.9660000801086426,learn,60000.0,Tue Feb 25 2025 10:17:48 GMT-0600 (Central Standard Time),654469.1000000089,A,qu,I,u,1363,3,2965.7999999970198,651503.3000000119,8002,WL,C,1.0
5,3.249000072479248,learn,60000.0,Tue Feb 25 2025 10:17:48 GMT-0600 (Central Standard Time),654752.0,A,que,I,e,277,3,3248.699999988079,651503.3000000119,8002,WL,C,1.0
5,3.4830000400543213,learn,60000.0,Tue Feb 25 2025 10:17:48 GMT-0600 (Central Standard Time),654985.6000000089,A,quee,I,e,218,3,3482.2999999970198,651503.3000000119,8002,WL,C,1.0
5,3.6989998817443848,learn,60000.0,Tue Feb 25 2025 10:17:48 GMT-0600 (Central Standard Time),655202.0,A,queen,I,n,209,3,3698.699999988079,651503.3000000119,8002,WL,C,1.0
5,4.848999977111816,learn,60000.0,Tue Feb 25 2025 10:17:48 GMT-0600 (Central Standard Time),656351.5,A,queenenter,I,enter,1136,3,4848.199999988079,651503.3000000119,8002,WL,C,1.0
5,5.749000072479248,learn,60000.0,Tue Feb 25 2025 10:17:48 GMT-0600 (Central Standard Time),657251.400000006,A,t,I,t,883,3,899.5999999940395,656351.8000000119,8002,WL,C,2.0
5,6.065000057220459,learn,60000.0,Tue Feb 25 2025 10:17:48 GMT-0600 (Central Standard Time),657567.8000000119,A,to,I,o,303,3,1216.0,656351.8000000119,8002,WL,C,2.0
5,6.414999961853027,learn,60000.0,Tue Feb 25 2025 10:17:48 GMT-0600 (Central Standard Time),657917.8000000119,A,tow,I,w,331,3,1566.0,656351.8000000119,8002,WL,C,2.0
5,6.565000057220459,learn,60000.0,Tue Feb 25 2025 10:17:48 GMT-0600 (Central Standard Time),658067.700000003,A,towe,I,e,133,3,1715.8999999910593,656351.8000000119,8002,WL,C,2.0
5,6.71399998664856,learn,60000.0,Tue Feb 25 2025 10:17:48 GMT-0600 (Central Standard Time),658217.700000003,A,tower,I,r,143,3,1865.8999999910593,656351.8000000119,8002,WL,C,2.0
5,7.164000034332275,learn,60000.0,Tue Feb 25 2025 10:17:48 GMT-0600 (Central Standard Time),658667.5,A,towerenter,I,enter,440,3,2315.699999988079,656351.8000000119,8002,WL,C,2.0
5,7.580999851226807,learn,60000.0,Tue Feb 25 2025 10:17:48 GMT-0600 (Central Standard Time),659084.1000000089,A,w,I,w,407,3,416.20000000298023,658667.900000006,8002,WL,C,3.0
5,7.88100004196167,learn,60000.0,Tue Feb 25 2025 10:17:48 GMT-0600 (Central Standard Time),659383.8000000119,A,wh,I,h,294,3,715.9000000059605,658667.900000006,8002,WL,C,3.0
5,8.079999923706055,learn,60000.0,Tue Feb 25 2025 10:17:48 GMT-0600 (Central Standard Time),659583.6000000089,A,whe,I,e,195,3,915.7000000029802,658667.900000006,8002,WL,C,3.0
5,8.280999898910522,learn,60000.0,Tue Feb 25 2025 10:17:48 GMT-0600 (Central Standard Time),659783.8000000119,A,whea,I,a,195,3,1115.9000000059605,658667.900000006,8002,WL,C,3.0
5,8.497999906539917,learn,60000.0,Tue Feb 25 2025 10:17:48 GMT-0600 (Central Standard Time),660001.6000000089,A,wheat,I,t,211,3,1333.7000000029802,658667.900000006,8002,WL,C,3.0
5,9.313999891281128,learn,60000.0,Tue Feb 25 2025 10:17:48 GMT-0600 (Central Standard Time),660816.900000006,A,wheatenter,I,enter,809,3,2149.0,658667.900000006,8002,WL,C,3.0
5,10.513000011444092,learn,60000.0,Tue Feb 25 2025 10:17:48 GMT-0600 (Central Standard Time),662016.200000003,A,s,I,s,1193,3,1198.8999999910593,660817.3000000119,8002,WL,C,4.0
5,10.828999996185303,learn,60000.0,Tue Feb 25 2025 10:17:48 GMT-0600 (Central Standard Time),662332.6000000089,A,su,I,u,298,3,1515.2999999970198,660817.3000000119,8002,WL,C,4.0
5,11.013000011444092,learn,60000.0,Tue Feb 25 2025 10:17:48 GMT-0600 (Central Standard Time),662516.5,A,sug,I,g,174,3,1699.199999988079,660817.3000000119,8002,WL,C,4.0
5,11.230000019073486,learn,60000.0,Tue Feb 25 2025 10:17:48 GMT-0600 (Central Standard Time),662732.8000000119,A,suga,I,a,198,3,1915.5,660817.3000000119,8002,WL,C,4.0
5,11.312999963760376,learn,60000.0,Tue Feb 25 2025 10:17:48 GMT-0600 (Central Standard Time),662816.200000003,A,sugar,I,r,69,3,1998.8999999910593,660817.3000000119,8002,WL,C,4.0
5,11.812999963760376,learn,60000.0,Tue Feb 25 2025 10:17:48 GMT-0600 (Central Standard Time),663316.200000003,A,sugarenter,I,enter,482,3,2498.8999999910593,660817.3000000119,8002,WL,C,4.0
5,13.095999956130981,learn,60000.0,Tue Feb 25 2025 10:17:48 GMT-0600 (Central Standard Time),664599.1000000089,A,b,I,b,1262,3,1282.5,663316.6000000089,8002,WL,C,5.0
5,13.76200008392334,learn,60000.0,Tue Feb 25 2025 10:17:48 GMT-0600 (Central Standard Time),665265.400000006,A,bo,I,o,651,3,1948.7999999970198,663316.6000000089,8002,WL,C,5.0
5,14.078999996185303,learn,60000.0,Tue Feb 25 2025 10:17:48 GMT-0600 (Central Standard Time),665582.200000003,A,boy,I,y,305,3,2265.5999999940395,663316.6000000089,8002,WL,C,5.0
5,14.628999948501587,learn,60000.0,Tue Feb 25 2025 10:17:48 GMT-0600 (Central Standard Time),666131.8000000119,A,boyenter,I,enter,540,3,2815.2000000029802,663316.6000000089,8002,WL,C,5.0
5,15.128000020980835,learn,60000.0,Tue Feb 25 2025 10:17:48 GMT-0600 (Central Standard Time),666631.8000000119,A,h,I,h,495,3,499.70000000298023,666132.1000000089,8002,WL,C,6.0
5,15.26200008392334,learn,60000.0,Tue Feb 25 2025 10:17:48 GMT-0600 (Central Standard Time),666765.0,A,ho,I,o,114,3,632.8999999910593,666132.1000000089,8002,WL,C,6.0
5,15.51200008392334,learn,60000.0,Tue Feb 25 2025 10:17:48 GMT-0600 (Central Standard Time),667015.1000000089,A,hom,I,m,229,3,883.0,666132.1000000089,8002,WL,C,6.0
5,15.960999965667725,learn,60000.0,Tue Feb 25 2025 10:17:48 GMT-0600 (Central Standard Time),667464.700000003,A,home,I,e,443,3,1332.5999999940395,666132.1000000089,8002,WL,C,6.0
5,16.494999885559082,learn,60000.0,Tue Feb 25 2025 10:17:48 GMT-0600 (Central Standard Time),667998.1000000089,A,homeenter,I,enter,522,3,1866.0,666132.1000000089,8002,WL,C,6.0
5,16.977999925613403,learn,60000.0,Tue Feb 25 2025 10:17:48 GMT-0600 (Central Standard Time),668481.200000003,A,d,I,d,476,3,482.70000000298023,667998.5,8002,WL,C,7.0
5,17.227999925613403,learn,60000.0,Tue Feb 25 2025 10:17:48 GMT-0600 (Central Standard Time),668731.1000000089,A,do,I,o,233,3,732.6000000089407,667998.5,8002,WL,C,7.0
5,17.444999933242798,learn,60000.0,Tue Feb 25 2025 10:17:48 GMT-0600 (Central Standard Time),668947.8000000119,A,doc,I,c,207,3,949.3000000119209,667998.5,8002,WL,C,7.0
5,17.861000061035156,learn,60000.0,Tue Feb 25 2025 10:17:48 GMT-0600 (Central Standard Time),669364.3000000119,A,doct,I,t,406,3,1365.800000011921,667998.5,8002,WL,C,7.0
5,18.128000020980835,learn,60000.0,Tue Feb 25 2025 10:17:48 GMT-0600 (Central Standard Time),669630.900000006,A,docto,I,o,254,3,1632.4000000059605,667998.5,8002,WL,C,7.0
5,18.277999877929688,learn,60000.0,Tue Feb 25 2025 10:17:48 GMT-0600 (Central Standard Time),669780.8000000119,A,doctor,I,r,132,3,1782.300000011921,667998.5,8002,WL,C,7.0
5,18.91100001335144,learn,60000.0,Tue Feb 25 2025 10:17:48 GMT-0600 (Central Standard Time),670414.1000000089,A,doctorenter,I,enter,614,3,2415.6000000089407,667998.5,8002,WL,C,7.0
5,19.361000061035156,learn,60000.0,Tue Feb 25 2025 10:17:48 GMT-0600 (Central Standard Time),670863.8000000119,A,c,I,c,444,3,449.5,670414.3000000119,8002,WL,C,8.0
5,19.543999910354614,learn,60000.0,Tue Feb 25 2025 10:17:48 GMT-0600 (Central Standard Time),671047.0,A,ca,I,a,170,3,632.6999999880791,670414.3000000119,8002,WL,C,8.0
5,19.776999950408936,learn,60000.0,Tue Feb 25 2025 10:17:48 GMT-0600 (Central Standard Time),671280.0,A,cam,I,m,219,3,865.6999999880791,670414.3000000119,8002,WL,C,8.0
5,20.89299988746643,learn,60000.0,Tue Feb 25 2025 10:17:48 GMT-0600 (Central Standard Time),672396.700000003,A,camp,I,p,1099,3,1982.3999999910593,670414.3000000119,8002,WL,C,8.0
5,21.493000030517578,learn,60000.0,Tue Feb 25 2025 10:17:48 GMT-0600 (Central Standard Time),672996.400000006,A,campenter,I,enter,590,3,2582.0999999940395,670414.3000000119,8002,WL,C,8.0
5,22.64299988746643,learn,60000.0,Tue Feb 25 2025 10:17:48 GMT-0600 (Central Standard Time),674146.1000000089,A,f,I,f,1134,3,1149.2999999970198,672996.8000000119,8002,WL,C,9.0
5,22.842999935150146,learn,60000.0,Tue Feb 25 2025 10:17:48 GMT-0600 (Central Standard Time),674346.0,A,fl,I,l,192,3,1349.199999988079,672996.8000000119,8002,WL,C,9.0
5,23.026000022888184,learn,60000.0,Tue Feb 25 2025 10:17:48 GMT-0600 (Central Standard Time),674529.400000006,A,fla,I,a,176,3,1532.5999999940395,672996.8000000119,8002,WL,C,9.0
5,23.241999864578247,learn,60000.0,Tue Feb 25 2025 10:17:48 GMT-0600 (Central Standard Time),674745.5,A,flag,I,g,201,3,1748.699999988079,672996.8000000119,8002,WL,C,9.0
5,23.70899987220764,learn,60000.0,Tue Feb 25 2025 10:17:48 GMT-0600 (Central Standard Time),675212.5,A,flagenter,I,enter,449,3,2215.699999988079,672996.8000000119,8002,WL,C,9.0
5,24.108999967575073,learn,60000.0,Tue Feb 25 2025 10:17:48 GMT-0600 (Central Standard Time),675612.3000000119,A,l,I,l,382,3,399.5,675212.8000000119,8002,WL,C,10.0
5,24.375999927520752,learn,60000.0,Tue Feb 25 2025 10:17:48 GMT-0600 (Central Standard Time),675878.8000000119,A,le,I,e,254,3,666.0,675212.8000000119,8002,WL,C,10.0
5,24.813999891281128,learn,60000.0,Tue Feb 25 2025 10:17:48 GMT-0600 (Central Standard Time),676316.900000006,A,let,I,t,433,3,1104.0999999940395,675212.8000000119,8002,WL,C,10.0
5,24.95899987220764,learn,60000.0,Tue Feb 25 2025 10:17:48 GMT-0600 (Central Standard Time),676462.1000000089,A,lett,I,t,132,3,1249.2999999970198,675212.8000000119,8002,WL,C,10.0
5,25.2260000705719,learn,60000.0,Tue Feb 25 2025 10:17:48 GMT-0600 (Central Standard Time),676728.900000006,A,lette,I,e,252,3,1516.0999999940395,675212.8000000119,8002,WL,C,10.0
5,25.375999927520752,learn,60000.0,Tue Feb 25 2025 10:17:48 GMT-0600 (Central Standard Time),676878.8000000119,A,letter,I,r,138,3,1666.0,675212.8000000119,8002,WL,C,10.0
5,25.991999864578247,learn,60000.0,Tue Feb 25 2025 10:17:48 GMT-0600 (Central Standard Time),677495.1000000089,A,letterenter,I,enter,604,3,2282.2999999970198,675212.8000000119,8002,WL,C,10.0
5,26.407999992370605,learn,60000.0,Tue Feb 25 2025 10:17:48 GMT-0600 (Central Standard Time),677911.6000000089,A,c,I,c,411,3,416.20000000298023,677495.400000006,8002,WL,C,11.0
5,26.64199995994568,learn,60000.0,Tue Feb 25 2025 10:17:48 GMT-0600 (Central Standard Time),678144.900000006,A,co,I,o,219,3,649.5,677495.400000006,8002,WL,C,11.0
5,26.823999881744385,learn,60000.0,Tue Feb 25 2025 10:17:48 GMT-0600 (Central Standard Time),678327.700000003,A,cor,I,r,178,3,832.2999999970198,677495.400000006,8002,WL,C,11.0
5,27.092000007629395,learn,60000.0,Tue Feb 25 2025 10:17:48 GMT-0600 (Central Standard Time),678594.900000006,A,corn,I,n,251,3,1099.5,677495.400000006,8002,WL,C,11.0
5,27.85800004005432,learn,60000.0,Tue Feb 25 2025 10:17:48 GMT-0600 (Central Standard Time),679361.3000000119,A,cornenter,I,enter,759,3,1865.9000000059605,677495.400000006,8002,WL,C,11.0
5,29.256999969482422,learn,60000.0,Tue Feb 25 2025 10:17:48 GMT-0600 (Central Standard Time),680760.400000006,A,n,I,n,1393,3,1398.7000000029802,679361.700000003,8002,WL,C,12.0
5,29.473999977111816,learn,60000.0,Tue Feb 25 2025 10:17:48 GMT-0600 (Central Standard Time),680977.200000003,A,na,I,a,202,3,1615.5,679361.700000003,8002,WL,C,12.0
5,29.641000032424927,learn,60000.0,Tue Feb 25 2025 10:17:48 GMT-0600 (Central Standard Time),681143.900000006,A,nai,I,i,161,3,1782.2000000029802,679361.700000003,8002,WL,C,12.0
5,29.94000005722046,learn,60000.0,Tue Feb 25 2025 10:17:48 GMT-0600 (Central Standard Time),681443.5,A,nail,I,l,291,3,2081.7999999970198,679361.700000003,8002,WL,C,12.0
5,30.506999969482422,learn,60000.0,Tue Feb 25 2025 10:17:48 GMT-0600 (Central Standard Time),682010.200000003,A,nailenter,I,enter,551,3,2648.5,679361.700000003,8002,WL,C,12.0
5,30.83999991416931,learn,60000.0,Tue Feb 25 2025 10:17:48 GMT-0600 (Central Standard Time),682343.6000000089,A,c,I,c,320,3,332.90000000596046,682010.700000003,8002,WL,C,13.0
5,31.056999921798706,learn,60000.0,Tue Feb 25 2025 10:17:48 GMT-0600 (Central Standard Time),682560.1000000089,A,ca,I,a,196,3,549.4000000059605,682010.700000003,8002,WL,C,13.0
5,31.35699987411499,learn,60000.0,Tue Feb 25 2025 10:17:48 GMT-0600 (Central Standard Time),682860.200000003,A,cat,I,t,282,3,849.5,682010.700000003,8002,WL,C,13.0
5,31.556999921798706,learn,60000.0,Tue Feb 25 2025 10:17:48 GMT-0600 (Central Standard Time),683060.0,A,catt,I,t,190,3,1049.2999999970198,682010.700000003,8002,WL,C,13.0
5,31.77300000190735,learn,60000.0,Tue Feb 25 2025 10:17:48 GMT-0600 (Central Standard Time),683276.5,A,cattl,I,l,198,3,1265.7999999970198,682010.700000003,8002,WL,C,13.0
5,32.055999994277954,learn,60000.0,Tue Feb 25 2025 10:17:48 GMT-0600 (Central Standard Time),683559.6000000089,A,cattle,I,e,270,3,1548.9000000059605,682010.700000003,8002,WL,C,13.0
5,32.50600004196167,learn,60000.0,Tue Feb 25 2025 10:17:48 GMT-0600 (Central Standard Time),684009.700000003,A,cattleenter,I,enter,443,3,1999.0,682010.700000003,8002,WL,C,13.0
5,32.83999991416931,learn,60000.0,Tue Feb 25 2025 10:17:48 GMT-0600 (Central Standard Time),684342.8000000119,A,s,I,s,313,3,332.80000001192093,684010.0,8002,WL,C,14.0
5,34.18899989128113,learn,60000.0,Tue Feb 25 2025 10:17:48 GMT-0600 (Central Standard Time),685692.5,A,sh,I,h,1332,3,1682.5,684010.0,8002,WL,C,14.0
5,34.305999994277954,learn,60000.0,Tue Feb 25 2025 10:17:48 GMT-0600 (Central Standard Time),685809.200000003,A,sho,I,o,110,3,1799.2000000029802,684010.0,8002,WL,C,14.0
5,34.473000049591064,learn,60000.0,Tue Feb 25 2025 10:17:48 GMT-0600 (Central Standard Time),685975.900000006,A,shor,I,r,162,3,1965.9000000059605,684010.0,8002,WL,C,14.0
5,34.621999979019165,learn,60000.0,Tue Feb 25 2025 10:17:48 GMT-0600 (Central Standard Time),686125.6000000089,A,shore,I,e,139,3,2115.6000000089407,684010.0,8002,WL,C,14.0
5,35.18899989128113,learn,60000.0,Tue Feb 25 2025 10:17:48 GMT-0600 (Central Standard Time),686692.1000000089,A,shoreenter,I,enter,557,3,2682.1000000089407,684010.0,8002,WL,C,14.0
5,35.789000034332275,learn,60000.0,Tue Feb 25 2025 10:17:48 GMT-0600 (Central Standard Time),687291.900000006,A,b,I,b,590,3,599.5,686692.400000006,8002,WL,C,15.0
5,36.07200002670288,learn,60000.0,Tue Feb 25 2025 10:17:48 GMT-0600 (Central Standard Time),687575.200000003,A,bo,I,o,270,3,882.7999999970198,686692.400000006,8002,WL,C,15.0
5,36.32200002670288,learn,60000.0,Tue Feb 25 2025 10:17:48 GMT-0600 (Central Standard Time),687825.200000003,A,bod,I,d,235,3,1132.7999999970198,686692.400000006,8002,WL,C,15.0
5,36.687999963760376,learn,60000.0,Tue Feb 25 2025 10:17:48 GMT-0600 (Central Standard Time),688191.700000003,A,body,I,y,361,3,1499.2999999970198,686692.400000006,8002,WL,C,15.0
5,37.037999868392944,learn,60000.0,Tue Feb 25 2025 10:17:48 GMT-0600 (Central Standard Time),688541.3000000119,A,bodyenter,I,enter,339,3,1848.9000000059605,686692.400000006,8002,WL,C,15.0
6,1.066999912261963,distr,58933.00008773804,Tue Feb 25 2025 10:17:48 GMT-0600 (Central Standard Time),759619.6000000089,B,s,I,s,1058,3,1066.6000000089407,758553.0,8002,WL,C,1.0
6,1.2999999523162842,distr,58700.000047683716,Tue Feb 25 2025 10:17:48 GMT-0600 (Central Standard Time),759852.8000000119,B,sk,I,k,223,3,1299.800000011921,758553.0,8002,WL,C,1.0
6,1.75,distr,58250.0,Tue Feb 25 2025 10:17:48 GMT-0600 (Central Standard Time),760302.5,B,sky,I,y,430,3,1749.5,758553.0,8002,WL,C,1.0
6,2.5160000324249268,distr,57483.99996757507,Tue Feb 25 2025 10:17:48 GMT-0600 (Central Standard Time),761068.8000000119,B,skyenter,I,enter,748,3,2515.800000011921,758553.0,8002,WL,C,1.0
6,3.2990000247955322,distr,56700.99997520447,Tue Feb 25 2025 10:17:48 GMT-0600 (Central Standard Time),761851.900000006,B,d,I,d,766,3,782.7000000029802,761069.200000003,8002,WL,C,2.0
6,3.5160000324249268,distr,56483.99996757507,Tue Feb 25 2025 10:17:48 GMT-0600 (Central Standard Time),762068.5,B,do,I,o,198,3,999.2999999970198,761069.200000003,8002,WL,C,2.0
6,3.7660000324249268,distr,56233.99996757507,Tue Feb 25 2025 10:17:48 GMT-0600 (Central Standard Time),762318.5,B,dol,I,l,230,3,1249.2999999970198,761069.200000003,8002,WL,C,2.0
6,3.9489998817443848,distr,56051.000118255615,Tue Feb 25 2025 10:17:48 GMT-0600 (Central Standard Time),762501.700000003,B,doll,I,l,164,3,1432.5,761069.200000003,8002,WL,C,2.0
6,4.098999977111816,distr,55901.00002288818,Tue Feb 25 2025 10:17:48 GMT-0600 (Central Standard Time),762651.700000003,B,dolla,I,a,140,3,1582.5,761069.200000003,8002,WL,C,2.0
6,4.332000017166138,distr,55667.99998283386,Tue Feb 25 2025 10:17:48 GMT-0600 (Central Standard Time),762884.900000006,B,dollar,I,r,215,3,1815.7000000029802,761069.200000003,8002,WL,C,2.0
6,5.082000017166138,distr,54917.99998283386,Tue Feb 25 2025 10:17:48 GMT-0600 (Central Standard Time),763634.700000003,B,dollarenter,I,enter,734,3,2565.5,761069.200000003,8002,WL,C,2.0
6,7.047999858856201,distr,52952.0001411438,Tue Feb 25 2025 10:17:48 GMT-0600 (Central Standard Time),765600.700000003,B,v,I,v,1952,3,1965.7000000029802,763635.0,8002,WL,C,3.0
6,7.664999961853027,distr,52335.00003814697,Tue Feb 25 2025 10:17:48 GMT-0600 (Central Standard Time),766217.400000006,B,va,I,a,609,3,2582.4000000059605,763635.0,8002,WL,C,3.0
6,8.030999898910522,distr,51969.00010108948,Tue Feb 25 2025 10:17:48 GMT-0600 (Central Standard Time),766583.700000003,B,val,I,l,346,3,2948.7000000029802,763635.0,8002,WL,C,3.0
6,8.230999946594238,distr,51769.00005340576,Tue Feb 25 2025 10:17:48 GMT-0600 (Central Standard Time),766783.8000000119,B,vall,I,l,187,3,3148.800000011921,763635.0,8002,WL,C,3.0
6,8.480999946594238,distr,51519.00005340576,Tue Feb 25 2025 10:17:48 GMT-0600 (Central Standard Time),767033.8000000119,B,valle,I,e,235,3,3398.800000011921,763635.0,8002,WL,C,3.0
6,8.96399998664856,distr,51036.00001335144,Tue Feb 25 2025 10:17:48 GMT-0600 (Central Standard Time),767517.1000000089,B,valley,I,y,474,3,3882.1000000089407,763635.0,8002,WL,C,3.0
6,9.680999994277954,distr,50319.000005722046,Tue Feb 25 2025 10:17:48 GMT-0600 (Central Standard Time),768233.400000006,B,valleyenter,I,enter,701,3,4598.4000000059605,763635.0,8002,WL,C,3.0
6,10.21399998664856,distr,49786.00001335144,Tue Feb 25 2025 10:17:48 GMT-0600 (Central Standard Time),768766.5,B,b,I,b,521,3,532.6999999880791,768233.8000000119,8002,WL,C,4.0
6,10.429999828338623,distr,49570.00017166138,Tue Feb 25 2025 10:17:48 GMT-0600 (Central Standard Time),768983.200000003,B,bu,I,u,196,3,749.3999999910593,768233.8000000119,8002,WL,C,4.0
6,10.763999938964844,distr,49236.000061035156,Tue Feb 25 2025 10:17:48 GMT-0600 (Central Standard Time),769316.3000000119,B,but,I,t,315,3,1082.5,768233.8000000119,8002,WL,C,4.0
6,10.980000019073486,distr,49019.999980926514,Tue Feb 25 2025 10:17:48 GMT-0600 (Central Standard Time),769532.900000006,B,butt,I,t,206,3,1299.0999999940395,768233.8000000119,8002,WL,C,4.0
6,11.346999883651733,distr,48653.00011634827,Tue Feb 25 2025 10:17:48 GMT-0600 (Central Standard Time),769899.5,B,butte,I,e,350,3,1665.699999988079,768233.8000000119,8002,WL,C,4.0
6,11.480000019073486,distr,48519.999980926514,Tue Feb 25 2025 10:17:48 GMT-0600 (Central Standard Time),770032.700000003,B,butter,I,r,119,3,1798.8999999910593,768233.8000000119,8002,WL,C,4.0
6,12.412999868392944,distr,47587.000131607056,Tue Feb 25 2025 10:17:48 GMT-0600 (Central Standard Time),770965.900000006,B,butterenter,I,enter,913,3,2732.0999999940395,768233.8000000119,8002,WL,C,4.0
6,14.11299991607666,distr,45887.00008392334,Tue Feb 25 2025 10:17:48 GMT-0600 (Central Standard Time),772665.400000006,B,d,I,d,1685,3,1699.2000000029802,770966.200000003,8002,WL,C,5.0
6,14.345999956130981,distr,45654.00004386902,Tue Feb 25 2025 10:17:48 GMT-0600 (Central Standard Time),772898.400000006,B,di,I,i,225,3,1932.2000000029802,770966.200000003,8002,WL,C,5.0
6,14.44599986076355,distr,45554.00013923645,Tue Feb 25 2025 10:17:48 GMT-0600 (Central Standard Time),772998.400000006,B,dia,I,a,87,3,2032.2000000029802,770966.200000003,8002,WL,C,5.0
6,14.69599986076355,distr,45304.00013923645,Tue Feb 25 2025 10:17:48 GMT-0600 (Central Standard Time),773248.5,B,diam,I,m,236,3,2282.2999999970198,770966.200000003,8002,WL,C,5.0
6,14.861999988555908,distr,45138.00001144409,Tue Feb 25 2025 10:17:48 GMT-0600 (Central Standard Time),773415.200000003,B,diamo,I,o,154,3,2449.0,770966.200000003,8002,WL,C,5.0
6,15.01199984550476,distr,44988.00015449524,Tue Feb 25 2025 10:17:48 GMT-0600 (Central Standard Time),773565.200000003,B,diamon,I,n,140,3,2599.0,770966.200000003,8002,WL,C,5.0
6,15.395999908447266,distr,44604.000091552734,Tue Feb 25 2025 10:17:48 GMT-0600 (Central Standard Time),773948.400000006,B,diamond,I,d,373,3,2982.2000000029802,770966.200000003,8002,WL,C,5.0
6,15.994999885559082,distr,44005.00011444092,Tue Feb 25 2025 10:17:48 GMT-0600 (Central Standard Time),774548.0,B,diamondenter,I,enter,590,3,3581.7999999970198,770966.200000003,8002,WL,C,5.0
6,17.194999933242798,distr,42805.0000667572,Tue Feb 25 2025 10:17:48 GMT-0600 (Central Standard Time),775747.5,B,h,I,h,1182,3,1199.0999999940395,774548.400000006,8002,WL,C,6.0
6,17.32799983024597,distr,42672.00016975403,Tue Feb 25 2025 10:17:48 GMT-0600 (Central Standard Time),775881.0,B,ha,I,a,127,3,1332.5999999940395,774548.400000006,8002,WL,C,6.0
6,17.560999870300293,distr,42439.00012969971,Tue Feb 25 2025 10:17:48 GMT-0600 (Central Standard Time),776114.200000003,B,hal,I,l,226,3,1565.7999999970198,774548.400000006,8002,WL,C,6.0
6,17.76099991798401,distr,42239.00008201599,Tue Feb 25 2025 10:17:48 GMT-0600 (Central Standard Time),776314.1000000089,B,hall,I,l,186,3,1765.7000000029802,774548.400000006,8002,WL,C,6.0
6,18.444000005722046,distr,41555.999994277954,Tue Feb 25 2025 10:17:48 GMT-0600 (Central Standard Time),776997.3000000119,B,hallenter,I,enter,672,3,2448.9000000059605,774548.400000006,8002,WL,C,6.0
6,19.16100001335144,distr,40838.99998664856,Tue Feb 25 2025 10:17:48 GMT-0600 (Central Standard Time),777713.700000003,B,c,I,c,710,3,716.0999999940395,776997.6000000089,8002,WL,C,7.0
6,20.876999855041504,distr,39123.000144958496,Tue Feb 25 2025 10:17:48 GMT-0600 (Central Standard Time),779429.700000003,B,ch,I,h,1705,3,2432.0999999940395,776997.6000000089,8002,WL,C,7.0
6,21.859999895095825,distr,38140.000104904175,Tue Feb 25 2025 10:17:48 GMT-0600 (Central Standard Time),780412.900000006,B,c,I,backspace,972,3,3415.2999999970198,776997.6000000089,8002,WL,C,7.0
6,22.210000038146973,distr,37789.99996185303,Tue Feb 25 2025 10:17:48 GMT-0600 (Central Standard Time),780762.8000000119,B,,I,backspace,342,3,3765.2000000029802,776997.6000000089,8002,WL,C,7.0
6,22.95899987220764,distr,37041.00012779236,Tue Feb 25 2025 10:17:48 GMT-0600 (Central Standard Time),781512.3000000119,B,m,I,m,744,3,4514.70000000298,776997.6000000089,8002,WL,C,7.0
6,23.241999864578247,distr,36758.00013542175,Tue Feb 25 2025 10:17:48 GMT-0600 (Central Standard Time),781795.6000000089,B,me,I,e,266,3,4798.0,776997.6000000089,8002,WL,C,7.0
6,23.491999864578247,distr,36508.00013542175,Tue Feb 25 2025 10:17:48 GMT-0600 (Central Standard Time),782045.700000003,B,mea,I,a,240,3,5048.0999999940395,776997.6000000089,8002,WL,C,7.0
6,23.72599983215332,distr,36274.00016784668,Tue Feb 25 2025 10:17:48 GMT-0600 (Central Standard Time),782279.0,B,meat,I,t,221,3,5281.399999991059,776997.6000000089,8002,WL,C,7.0
6,24.29200005531311,distr,35707.99994468689,Tue Feb 25 2025 10:17:48 GMT-0600 (Central Standard Time),782845.400000006,B,meatenter,I,enter,547,3,5847.79999999702,776997.6000000089,8002,WL,C,7.0
6,26.657999992370605,distr,33342.000007629395,Tue Feb 25 2025 10:17:48 GMT-0600 (Central Standard Time),785211.5,B,c,I,c,2357,3,2365.7999999970198,782845.700000003,8002,WL,C,8.0
6,26.875,distr,33125.0,Tue Feb 25 2025 10:17:48 GMT-0600 (Central Standard Time),785427.900000006,B,ch,I,h,199,3,2582.2000000029802,782845.700000003,8002,WL,C,8.0
6,27.157999992370605,distr,32842.000007629395,Tue Feb 25 2025 10:17:48 GMT-0600 (Central Standard Time),785711.3000000119,B,chr,I,r,271,3,2865.6000000089407,782845.700000003,8002,WL,C,8.0
6,27.2739999294281,distr,32726.0000705719,Tue Feb 25 2025 10:17:48 GMT-0600 (Central Standard Time),785827.8000000119,B,chri,I,i,108,3,2982.1000000089407,782845.700000003,8002,WL,C,8.0
6,27.490999937057495,distr,32509.000062942505,Tue Feb 25 2025 10:17:48 GMT-0600 (Central Standard Time),786044.5,B,chris,I,s,208,3,3198.7999999970198,782845.700000003,8002,WL,C,8.0
6,27.575000047683716,distr,32424.999952316284,Tue Feb 25 2025 10:17:48 GMT-0600 (Central Standard Time),786127.900000006,B,christ,I,t,63,3,3282.2000000029802,782845.700000003,8002,WL,C,8.0
6,27.7739999294281,distr,32226.0000705719,Tue Feb 25 2025 10:17:48 GMT-0600 (Central Standard Time),786327.6000000089,B,christm,I,m,178,3,3481.9000000059605,782845.700000003,8002,WL,C,8.0
6,27.924000024795532,distr,32075.999975204468,Tue Feb 25 2025 10:17:48 GMT-0600 (Central Standard Time),786477.6000000089,B,christma,I,a,131,3,3631.9000000059605,782845.700000003,8002,WL,C,8.0
6,28.057999849319458,distr,31942.000150680542,Tue Feb 25 2025 10:17:48 GMT-0600 (Central Standard Time),786610.8000000119,B,christmas,I,s,125,3,3765.1000000089407,782845.700000003,8002,WL,C,8.0
6,28.7739999294281,distr,31226.0000705719,Tue Feb 25 2025 10:17:48 GMT-0600 (Central Standard Time),787327.3000000119,B,christmasenter,I,enter,704,3,4481.600000008941,782845.700000003,8002,WL,C,8.0
6,31.60699987411499,distr,28393.00012588501,Tue Feb 25 2025 10:17:48 GMT-0600 (Central Standard Time),790159.700000003,B,m,I,m,2827,3,2832.0999999940395,787327.6000000089,8002,WL,C,9.0
6,32.10599994659424,distr,27894.00005340576,Tue Feb 25 2025 10:17:48 GMT-0600 (Central Standard Time),790659.6000000089,B,mo,I,o,483,3,3332.0,787327.6000000089,8002,WL,C,9.0
6,32.32299995422363,distr,27677.000045776367,Tue Feb 25 2025 10:17:48 GMT-0600 (Central Standard Time),790876.3000000119,B,mot,I,t,207,3,3548.7000000029802,787327.6000000089,8002,WL,C,9.0
6,32.44000005722046,distr,27559.99994277954,Tue Feb 25 2025 10:17:48 GMT-0600 (Central Standard Time),790992.900000006,B,moth,I,h,102,3,3665.2999999970198,787327.6000000089,8002,WL,C,9.0
6,32.62299990653992,distr,27377.000093460083,Tue Feb 25 2025 10:17:48 GMT-0600 (Central Standard Time),791176.200000003,B,mothe,I,e,162,3,3848.5999999940395,787327.6000000089,8002,WL,C,9.0
6,32.69000005722046,distr,27309.99994277954,Tue Feb 25 2025 10:17:48 GMT-0600 (Central Standard Time),791242.8000000119,B,mother,I,r,58,3,3915.2000000029802,787327.6000000089,8002,WL,C,9.0
6,33.32299995422363,distr,26677.000045776367,Tue Feb 25 2025 10:17:48 GMT-0600 (Central Standard Time),791875.900000006,B,motherenter,I,enter,624,3,4548.29999999702,787327.6000000089,8002,WL,C,9.0
6,36.32200002670288,distr,23677.99997329712,Tue Feb 25 2025 10:17:48 GMT-0600 (Central Standard Time),794874.900000006,B,m,I,m,2983,3,2998.5999999940395,791876.3000000119,8002,WL,C,10.0
6,36.50600004196167,distr,23493.99995803833,Tue Feb 25 2025 10:17:48 GMT-0600 (Central Standard Time),795058.8000000119,B,mo,I,o,176,3,3182.5,791876.3000000119,8002,WL,C,10.0
6,36.65499997138977,distr,23345.00002861023,Tue Feb 25 2025 10:17:48 GMT-0600 (Central Standard Time),795208.0,B,mon,I,n,143,3,3331.699999988079,791876.3000000119,8002,WL,C,10.0
6,36.83800005912781,distr,23161.999940872192,Tue Feb 25 2025 10:17:48 GMT-0600 (Central Standard Time),795391.6000000089,B,mone,I,e,163,3,3515.2999999970198,791876.3000000119,8002,WL,C,10.0
6,37.07099986076355,distr,22929.00013923645,Tue Feb 25 2025 10:17:48 GMT-0600 (Central Standard Time),795624.6000000089,B,money,I,y,228,3,3748.2999999970198,791876.3000000119,8002,WL,C,10.0
6,37.72099995613098,distr,22279.00004386902,Tue Feb 25 2025 10:17:48 GMT-0600 (Central Standard Time),796274.6000000089,B,moneyenter,I,enter,642,3,4398.29999999702,791876.3000000119,8002,WL,C,10.0
6,38.47099995613098,distr,21529.00004386902,Tue Feb 25 2025 10:17:48 GMT-0600 (Central Standard Time),797024.1000000089,B,h,I,h,744,3,749.2000000029802,796274.900000006,8002,WL,C,11.0
6,38.58800005912781,distr,21411.999940872192,Tue Feb 25 2025 10:17:48 GMT-0600 (Central Standard Time),797141.0,B,ho,I,o,106,3,866.0999999940395,796274.900000006,8002,WL,C,11.0
6,38.7039999961853,distr,21296.000003814697,Tue Feb 25 2025 10:17:48 GMT-0600 (Central Standard Time),797257.400000006,B,hot,I,t,102,3,982.5,796274.900000006,8002,WL,C,11.0
6,38.87100005149841,distr,21128.999948501587,Tue Feb 25 2025 10:17:48 GMT-0600 (Central Standard Time),797424.1000000089,B,hote,I,e,161,3,1149.2000000029802,796274.900000006,8002,WL,C,11.0
6,39.05399990081787,distr,20946.00009918213,Tue Feb 25 2025 10:17:48 GMT-0600 (Central Standard Time),797607.3000000119,B,hotel,I,l,170,3,1332.4000000059605,796274.900000006,8002,WL,C,11.0
6,39.9210000038147,distr,20078.999996185303,Tue Feb 25 2025 10:17:48 GMT-0600 (Central Standard Time),798473.8000000119,B,hotelenter,I,enter,859,3,2198.9000000059605,796274.900000006,8002,WL,C,11.0
6,40.88699984550476,distr,19113.00015449524,Tue Feb 25 2025 10:17:48 GMT-0600 (Central Standard Time),799440.3000000119,B,f,I,f,953,3,966.2000000029802,798474.1000000089,8002,WL,C,12.0
6,41.00399994850159,distr,18996.000051498413,Tue Feb 25 2025 10:17:48 GMT-0600 (Central Standard Time),799556.700000003,B,fo,I,o,98,3,1082.5999999940395,798474.1000000089,8002,WL,C,12.0
6,41.187000036239624,distr,18812.999963760376,Tue Feb 25 2025 10:17:48 GMT-0600 (Central Standard Time),799740.200000003,B,for,I,r,166,3,1266.0999999940395,798474.1000000089,8002,WL,C,12.0
6,41.33699989318848,distr,18663.000106811523,Tue Feb 25 2025 10:17:48 GMT-0600 (Central Standard Time),799890.200000003,B,fore,I,e,143,3,1416.0999999940395,798474.1000000089,8002,WL,C,12.0
6,41.58699989318848,distr,18413.000106811523,Tue Feb 25 2025 10:17:48 GMT-0600 (Central Standard Time),800139.900000006,B,fores,I,s,233,3,1665.7999999970198,798474.1000000089,8002,WL,C,12.0
6,41.73699998855591,distr,18263.00001144409,Tue Feb 25 2025 10:17:48 GMT-0600 (Central Standard Time),800290.0,B,forest,I,t,134,3,1815.8999999910593,798474.1000000089,8002,WL,C,12.0
6,42.187000036239624,distr,17812.999963760376,Tue Feb 25 2025 10:17:48 GMT-0600 (Central Standard Time),800740.1000000089,B,forestenter,I,enter,440,3,2266.0,798474.1000000089,8002,WL,C,12.0
6,42.68599987030029,distr,17314.000129699707,Tue Feb 25 2025 10:17:48 GMT-0600 (Central Standard Time),801239.700000003,B,p,I,p,494,3,499.20000000298023,800740.5,8002,WL,C,13.0
6,42.95299983024597,distr,17047.00016975403,Tue Feb 25 2025 10:17:48 GMT-0600 (Central Standard Time),801506.400000006,B,pl,I,l,259,3,765.9000000059605,800740.5,8002,WL,C,13.0
6,43.085999965667725,distr,16914.000034332275,Tue Feb 25 2025 10:17:48 GMT-0600 (Central Standard Time),801639.700000003,B,pla,I,a,113,3,899.2000000029802,800740.5,8002,WL,C,13.0
6,43.253000020980835,distr,16746.999979019165,Tue Feb 25 2025 10:17:48 GMT-0600 (Central Standard Time),801806.200000003,B,plan,I,n,147,3,1065.7000000029802,800740.5,8002,WL,C,13.0
6,43.45299983024597,distr,16547.00016975403,Tue Feb 25 2025 10:17:48 GMT-0600 (Central Standard Time),802006.1000000089,B,plant,I,t,180,3,1265.6000000089407,800740.5,8002,WL,C,13.0
6,44.1029999256134,distr,15897.000074386597,Tue Feb 25 2025 10:17:48 GMT-0600 (Central Standard Time),802656.0,B,plantenter,I,enter,629,3,1915.5,800740.5,8002,WL,C,13.0
6,54.782999992370605,distr,5217.0000076293945,Tue Feb 25 2025 10:17:48 GMT-0600 (Central Standard Time),813336.200000003,B,b,I,b,10660,3,10679.89999999106,802656.3000000119,8002,WL,C,14.0
6,54.91599988937378,distr,5084.000110626221,Tue Feb 25 2025 10:17:48 GMT-0600 (Central Standard Time),813469.3000000119,B,bo,I,o,114,3,10813.0,802656.3000000119,8002,WL,C,14.0
6,55.1489999294281,distr,4851.000070571899,Tue Feb 25 2025 10:17:48 GMT-0600 (Central Standard Time),813702.6000000089,B,boy,I,y,213,3,11046.29999999702,802656.3000000119,8002,WL,C,14.0
6,55.448999881744385,distr,4551.000118255615,Tue Feb 25 2025 10:17:48 GMT-0600 (Central Standard Time),814002.5,B,boyenter,I,enter,285,3,11346.199999988079,802656.3000000119,8002,WL,C,14.0
6,60.014999866485596,distr,-14.999866485595703,Tue Feb 25 2025 10:17:48 GMT-0600 (Central Standard Time),818567.8000000119,B,None,I,None,4561,3,4565.0,814002.8000000119,8002,WL,C,15.0
7,1.0829999446868896,immed,58917.00005531311,Tue Feb 25 2025 10:17:48 GMT-0600 (Central Standard Time),832563.3000000119,A,t,I,t,1067,3,1083.0,831480.3000000119,8002,WL,C,1.0
7,1.2659997940063477,immed,58734.00020599365,Tue Feb 25 2025 10:17:48 GMT-0600 (Central Standard Time),832746.5,A,to,I,o,176,3,1266.199999988079,831480.3000000119,8002,WL,C,1.0
7,1.5,immed,58500.0,Tue Feb 25 2025 10:17:48 GMT-0600 (Central Standard Time),832980.0,A,tow,I,w,216,3,1499.699999988079,831480.3000000119,8002,WL,C,1.0
7,1.6999998092651367,immed,58300.00019073486,Tue Feb 25 2025 10:17:48 GMT-0600 (Central Standard Time),833180.0,A,towe,I,e,182,3,1699.699999988079,831480.3000000119,8002,WL,C,1.0
7,1.8329999446868896,immed,58167.00005531311,Tue Feb 25 2025 10:17:48 GMT-0600 (Central Standard Time),833312.700000003,A,tower,I,r,128,3,1832.3999999910593,831480.3000000119,8002,WL,C,1.0
7,2.9819998741149902,immed,57018.00012588501,Tue Feb 25 2025 10:17:48 GMT-0600 (Central Standard Time),834462.6000000089,A,towerenter,I,enter,1130,3,2982.2999999970198,831480.3000000119,8002,WL,C,1.0
7,3.365999937057495,immed,56634.000062942505,Tue Feb 25 2025 10:17:48 GMT-0600 (Central Standard Time),834845.8000000119,A,w,I,w,372,3,382.90000000596046,834462.900000006,8002,WL,C,2.0
7,3.548999786376953,immed,56451.00021362305,Tue Feb 25 2025 10:17:48 GMT-0600 (Central Standard Time),835029.200000003,A,wh,I,h,165,3,566.2999999970198,834462.900000006,8002,WL,C,2.0
7,3.6989998817443848,immed,56301.000118255615,Tue Feb 25 2025 10:17:48 GMT-0600 (Central Standard Time),835178.900000006,A,whe,I,e,141,3,716.0,834462.900000006,8002,WL,C,2.0
7,3.8489999771118164,immed,56151.00002288818,Tue Feb 25 2025 10:17:48 GMT-0600 (Central Standard Time),835328.900000006,A,whea,I,a,136,3,866.0,834462.900000006,8002,WL,C,2.0
7,4.031999826431274,immed,55968.000173568726,Tue Feb 25 2025 10:17:48 GMT-0600 (Central Standard Time),835512.5,A,wheat,I,t,170,3,1049.5999999940395,834462.900000006,8002,WL,C,2.0
7,4.865000009536743,immed,55134.99999046326,Tue Feb 25 2025 10:17:48 GMT-0600 (Central Standard Time),836345.6000000089,A,wheatenter,I,enter,818,3,1882.7000000029802,834462.900000006,8002,WL,C,2.0
7,5.4649999141693115,immed,54535.00008583069,Tue Feb 25 2025 10:17:48 GMT-0600 (Central Standard Time),836945.0,A,q,I,q,586,3,599.0,836346.0,8002,WL,C,3.0
7,5.648000001907349,immed,54351.99999809265,Tue Feb 25 2025 10:17:48 GMT-0600 (Central Standard Time),837128.5,A,qu,I,u,169,3,782.5,836346.0,8002,WL,C,3.0
7,5.81499981880188,immed,54185.00018119812,Tue Feb 25 2025 10:17:48 GMT-0600 (Central Standard Time),837295.0,A,que,I,e,155,3,949.0,836346.0,8002,WL,C,3.0
7,6.031999826431274,immed,53968.000173568726,Tue Feb 25 2025 10:17:48 GMT-0600 (Central Standard Time),837511.700000003,A,quee,I,e,211,3,1165.7000000029802,836346.0,8002,WL,C,3.0
7,6.414999961853027,immed,53585.00003814697,Tue Feb 25 2025 10:17:48 GMT-0600 (Central Standard Time),837894.900000006,A,queen,I,n,363,3,1548.9000000059605,836346.0,8002,WL,C,3.0
7,6.96399998664856,immed,53036.00001335144,Tue Feb 25 2025 10:17:48 GMT-0600 (Central Standard Time),838444.8000000119,A,queenenter,I,enter,531,3,2098.800000011921,836346.0,8002,WL,C,3.0
7,7.363999843597412,immed,52636.00015640259,Tue Feb 25 2025 10:17:48 GMT-0600 (Central Standard Time),838844.5,A,s,I,s,381,3,399.3999999910593,838445.1000000089,8002,WL,C,4.0
7,7.563999891281128,immed,52436.00010871887,Tue Feb 25 2025 10:17:48 GMT-0600 (Central Standard Time),839044.400000006,A,su,I,u,190,3,599.2999999970198,838445.1000000089,8002,WL,C,4.0
7,7.830999851226807,immed,52169.00014877319,Tue Feb 25 2025 10:17:48 GMT-0600 (Central Standard Time),839311.200000003,A,sug,I,g,254,3,866.0999999940395,838445.1000000089,8002,WL,C,4.0
7,8.013999938964844,immed,51986.000061035156,Tue Feb 25 2025 10:17:48 GMT-0600 (Central Standard Time),839494.6000000089,A,suga,I,a,172,3,1049.5,838445.1000000089,8002,WL,C,4.0
7,8.146999835968018,immed,51853.00016403198,Tue Feb 25 2025 10:17:48 GMT-0600 (Central Standard Time),839627.700000003,A,sugar,I,r,125,3,1182.5999999940395,838445.1000000089,8002,WL,C,4.0
7,8.898000001907349,immed,51101.99999809265,Tue Feb 25 2025 10:17:48 GMT-0600 (Central Standard Time),840378.6000000089,A,sugarenter,I,enter,735,3,1933.5,838445.1000000089,8002,WL,C,4.0
7,10.312999963760376,immed,49687.000036239624,Tue Feb 25 2025 10:17:48 GMT-0600 (Central Standard Time),841793.8000000119,A,h,I,h,1400,3,1414.9000000059605,840378.900000006,8002,WL,C,5.0
7,10.496999979019165,immed,49503.000020980835,Tue Feb 25 2025 10:17:48 GMT-0600 (Central Standard Time),841977.1000000089,A,ho,I,o,177,3,1598.2000000029802,840378.900000006,8002,WL,C,5.0
7,10.763000011444092,immed,49236.99998855591,Tue Feb 25 2025 10:17:48 GMT-0600 (Central Standard Time),842243.5,A,hom,I,m,249,3,1864.5999999940395,840378.900000006,8002,WL,C,5.0
7,11.13099980354309,immed,48869.00019645691,Tue Feb 25 2025 10:17:48 GMT-0600 (Central Standard Time),842611.400000006,A,home,I,e,351,3,2232.5,840378.900000006,8002,WL,C,5.0
7,11.662999868392944,immed,48337.000131607056,Tue Feb 25 2025 10:17:48 GMT-0600 (Central Standard Time),843143.5,A,homeenter,I,enter,510,3,2764.5999999940395,840378.900000006,8002,WL,C,5.0
7,12.912999868392944,immed,47087.000131607056,Tue Feb 25 2025 10:17:48 GMT-0600 (Central Standard Time),844393.0,A,b,I,b,1236,3,1249.199999988079,843143.8000000119,8002,WL,C,6.0
