block_c,block_dur,condition,countdown,datetime,endtime,list,multichar_response,project,response,response_time,session_number,start_end,starttime,subject_id,task,task_vers,trial
,,,,Wed Mar 12 2025 12:30:31 GMT-0500 (Central Daylight Time),,,,O,space,829,1,,,7079,WL,A,
prac,,0,,Wed Mar 12 2025 12:30:31 GMT-0500 (Central Daylight Time),,NA,b,O,b,2239,1,,,7079,WL,A,1.0
prac,,0,,Wed Mar 12 2025 12:30:31 GMT-0500 (Central Daylight Time),,NA,bo,O,o,807,1,,,7079,WL,A,1.0
prac,,0,,Wed Mar 12 2025 12:30:31 GMT-0500 (Central Daylight Time),,NA,boo,O,o,262,1,,,7079,WL,A,1.0
prac,,0,,Wed Mar 12 2025 12:30:31 GMT-0500 (Central Daylight Time),,NA,boos,O,s,863,1,,,7079,WL,A,1.0
prac,,0,,Wed Mar 12 2025 12:30:31 GMT-0500 (Central Daylight Time),,NA,boost,O,t,171,1,,,7079,WL,A,1.0
prac,,0,,Wed Mar 12 2025 12:30:31 GMT-0500 (Central Daylight Time),,NA,boostenter,O,enter,1411,1,,,7079,WL,A,1.0
1,1.5320000648498535,learn,58467.99993515015,Wed Mar 12 2025 12:30:31 GMT-0500 (Central Daylight Time),284641.200000003,A,b,O,b,1511,1,1531.8999999910593,283109.3000000119,7079,WL,A,1.0
1,1.997999906539917,learn,58002.00009346008,Wed Mar 12 2025 12:30:31 GMT-0500 (Central Daylight Time),285107.5,A,bo,O,o,459,1,1998.199999988079,283109.3000000119,7079,WL,A,1.0
1,2.247999906539917,learn,57752.00009346008,Wed Mar 12 2025 12:30:31 GMT-0500 (Central Daylight Time),285357.3000000119,A,boo,O,o,235,1,2248.0,283109.3000000119,7079,WL,A,1.0
1,3.1640000343322754,learn,56835.999965667725,Wed Mar 12 2025 12:30:31 GMT-0500 (Central Daylight Time),286273.200000003,A,book,O,k,903,1,3163.8999999910593,283109.3000000119,7079,WL,A,1.0
1,25.95799994468689,learn,34042.00005531311,Wed Mar 12 2025 12:30:31 GMT-0500 (Central Daylight Time),309067.5,A,bookt,O,t,22778,1,25958.19999998808,283109.3000000119,7079,WL,A,1.0
1,27.638000011444092,learn,32361.99998855591,Wed Mar 12 2025 12:30:31 GMT-0500 (Central Daylight Time),310747.10000000894,A,book,O,backspace,1671,1,27637.79999999702,283109.3000000119,7079,WL,A,1.0
1,33.21799993515015,learn,26782.000064849854,Wed Mar 12 2025 12:30:31 GMT-0500 (Central Daylight Time),316327.8000000119,A,bookenter,O,enter,5568,1,33218.5,283109.3000000119,7079,WL,A,1.0
1,34.10199999809265,learn,25898.00000190735,Wed Mar 12 2025 12:30:31 GMT-0500 (Central Daylight Time),317212.0,A,t,O,t,877,1,883.6999999880791,316328.3000000119,7079,WL,A,2.0
1,34.45099997520447,learn,25549.000024795532,Wed Mar 12 2025 12:30:31 GMT-0500 (Central Daylight Time),317560.8000000119,A,tr,O,r,344,1,1232.5,316328.3000000119,7079,WL,A,2.0
1,35.3510000705719,learn,24648.9999294281,Wed Mar 12 2025 12:30:31 GMT-0500 (Central Daylight Time),318460.90000000596,A,tra,O,a,891,1,2132.5999999940395,316328.3000000119,7079,WL,A,2.0
1,35.53399991989136,learn,24466.000080108643,Wed Mar 12 2025 12:30:31 GMT-0500 (Central Daylight Time),318644.0,A,trai,O,i,173,1,2315.699999988079,316328.3000000119,7079,WL,A,2.0
1,35.76900005340576,learn,24230.99994659424,Wed Mar 12 2025 12:30:31 GMT-0500 (Central Daylight Time),318878.40000000596,A,train,O,n,217,1,2550.0999999940395,316328.3000000119,7079,WL,A,2.0
1,36.30200004577637,learn,23697.999954223633,Wed Mar 12 2025 12:30:31 GMT-0500 (Central Daylight Time),319411.40000000596,A,trainenter,O,enter,526,1,3083.0999999940395,316328.3000000119,7079,WL,A,2.0
1,37.503000020980835,learn,22496.999979019165,Wed Mar 12 2025 12:30:31 GMT-0500 (Central Daylight Time),320612.200000003,A,f,O,f,1194,1,1200.5,319411.700000003,7079,WL,A,3.0
1,37.91700005531311,learn,22082.99994468689,Wed Mar 12 2025 12:30:31 GMT-0500 (Central Daylight Time),321026.40000000596,A,fo,O,o,398,1,1614.7000000029802,319411.700000003,7079,WL,A,3.0
1,38.34999990463257,learn,21650.00009536743,Wed Mar 12 2025 12:30:31 GMT-0500 (Central Daylight Time),321459.60000000894,A,f,O,backspace,418,1,2047.9000000059605,319411.700000003,7079,WL,A,3.0
1,39.151000022888184,learn,20848.999977111816,Wed Mar 12 2025 12:30:31 GMT-0500 (Central Daylight Time),322260.40000000596,A,fl,O,l,792,1,2848.7000000029802,319411.700000003,7079,WL,A,3.0
1,39.40000009536743,learn,20599.99990463257,Wed Mar 12 2025 12:30:31 GMT-0500 (Central Daylight Time),322509.5,A,flo,O,o,239,1,3097.7999999970198,319411.700000003,7079,WL,A,3.0
1,39.56699991226196,learn,20433.000087738037,Wed Mar 12 2025 12:30:31 GMT-0500 (Central Daylight Time),322676.5,A,flow,O,w,150,1,3264.7999999970198,319411.700000003,7079,WL,A,3.0
1,39.78399991989136,learn,20216.000080108643,Wed Mar 12 2025 12:30:31 GMT-0500 (Central Daylight Time),322893.40000000596,A,flowe,O,e,199,1,3481.7000000029802,319411.700000003,7079,WL,A,3.0
1,40.0,learn,20000.0,Wed Mar 12 2025 12:30:31 GMT-0500 (Central Daylight Time),323109.60000000894,A,flower,O,r,208,1,3697.9000000059605,319411.700000003,7079,WL,A,3.0
1,40.33399987220764,learn,19666.00012779236,Wed Mar 12 2025 12:30:31 GMT-0500 (Central Daylight Time),323443.5,A,flowerenter,O,enter,327,1,4031.7999999970198,319411.700000003,7079,WL,A,3.0
1,41.76699995994568,learn,18233.00004005432,Wed Mar 12 2025 12:30:31 GMT-0500 (Central Daylight Time),324876.200000003,A,l,O,l,1426,1,1432.5999999940395,323443.60000000894,7079,WL,A,4.0
1,41.98300004005432,learn,18016.99995994568,Wed Mar 12 2025 12:30:31 GMT-0500 (Central Daylight Time),325092.90000000596,A,lo,O,o,201,1,1649.2999999970198,323443.60000000894,7079,WL,A,4.0
1,42.31599998474121,learn,17684.00001525879,Wed Mar 12 2025 12:30:31 GMT-0500 (Central Daylight Time),325425.700000003,A,log,O,g,316,1,1982.0999999940395,323443.60000000894,7079,WL,A,4.0
1,42.71600008010864,learn,17283.999919891357,Wed Mar 12 2025 12:30:31 GMT-0500 (Central Daylight Time),325825.200000003,A,logenter,O,enter,379,1,2381.5999999940395,323443.60000000894,7079,WL,A,4.0
1,43.54900002479553,learn,16450.999975204468,Wed Mar 12 2025 12:30:31 GMT-0500 (Central Daylight Time),326658.90000000596,A,s,O,s,825,1,833.2999999970198,325825.60000000894,7079,WL,A,5.0
1,43.79800009727478,learn,16201.99990272522,Wed Mar 12 2025 12:30:31 GMT-0500 (Central Daylight Time),326908.0,A,sa,O,a,233,1,1082.3999999910593,325825.60000000894,7079,WL,A,5.0
1,43.98199987411499,learn,16018.00012588501,Wed Mar 12 2025 12:30:31 GMT-0500 (Central Daylight Time),327091.5,A,sal,O,l,177,1,1265.8999999910593,325825.60000000894,7079,WL,A,5.0
1,44.282999992370605,learn,15717.000007629395,Wed Mar 12 2025 12:30:31 GMT-0500 (Central Daylight Time),327392.10000000894,A,salt,O,t,288,1,1566.5,325825.60000000894,7079,WL,A,5.0
1,44.581000089645386,learn,15418.999910354614,Wed Mar 12 2025 12:30:31 GMT-0500 (Central Daylight Time),327691.0,A,saltenter,O,enter,285,1,1865.3999999910593,325825.60000000894,7079,WL,A,5.0
1,46.36500000953674,learn,13634.999990463257,Wed Mar 12 2025 12:30:31 GMT-0500 (Central Daylight Time),329474.3000000119,A,c,O,c,1770,1,1783.1000000089407,327691.200000003,7079,WL,A,6.0
1,46.69799995422363,learn,13302.000045776367,Wed Mar 12 2025 12:30:31 GMT-0500 (Central Daylight Time),329807.200000003,A,ch,O,h,314,1,2116.0,327691.200000003,7079,WL,A,6.0
1,46.91499996185303,learn,13085.000038146973,Wed Mar 12 2025 12:30:31 GMT-0500 (Central Daylight Time),330024.60000000894,A,chi,O,i,198,1,2333.4000000059605,327691.200000003,7079,WL,A,6.0
1,47.49799990653992,learn,12502.000093460083,Wed Mar 12 2025 12:30:31 GMT-0500 (Central Daylight Time),330607.40000000596,A,chin,O,n,569,1,2916.2000000029802,327691.200000003,7079,WL,A,6.0
1,47.680999994277954,learn,12319.000005722046,Wed Mar 12 2025 12:30:31 GMT-0500 (Central Daylight Time),330791.0,A,chinn,O,n,170,1,3099.7999999970198,327691.200000003,7079,WL,A,6.0
1,47.83200001716614,learn,12167.999982833862,Wed Mar 12 2025 12:30:31 GMT-0500 (Central Daylight Time),330941.200000003,A,chinne,O,e,133,1,3250.0,327691.200000003,7079,WL,A,6.0
1,47.99799990653992,learn,12002.000093460083,Wed Mar 12 2025 12:30:31 GMT-0500 (Central Daylight Time),331108.10000000894,A,chinney,O,y,151,1,3416.9000000059605,327691.200000003,7079,WL,A,6.0
1,48.348000049591064,learn,11651.999950408936,Wed Mar 12 2025 12:30:31 GMT-0500 (Central Daylight Time),331457.200000003,A,chinneyenter,O,enter,345,1,3766.0,327691.200000003,7079,WL,A,6.0
1,51.164000034332275,learn,8835.999965667725,Wed Mar 12 2025 12:30:31 GMT-0500 (Central Daylight Time),334273.3000000119,A,s,O,s,2804,1,2815.800000011921,331457.5,7079,WL,A,7.0
1,51.430999994277954,learn,8569.000005722046,Wed Mar 12 2025 12:30:31 GMT-0500 (Central Daylight Time),334540.10000000894,A,sa,O,a,260,1,3082.6000000089407,331457.5,7079,WL,A,7.0
1,51.62899994850159,learn,8371.000051498413,Wed Mar 12 2025 12:30:31 GMT-0500 (Central Daylight Time),334738.8000000119,A,sal,O,l,192,1,3281.300000011921,331457.5,7079,WL,A,7.0
1,51.96600008010864,learn,8033.999919891357,Wed Mar 12 2025 12:30:31 GMT-0500 (Central Daylight Time),335075.60000000894,A,salt,O,t,333,1,3618.1000000089407,331457.5,7079,WL,A,7.0
1,52.29900002479553,learn,7700.999975204468,Wed Mar 12 2025 12:30:31 GMT-0500 (Central Daylight Time),335408.90000000596,A,saltenter,O,enter,310,1,3951.4000000059605,331457.5,7079,WL,A,7.0
1,57.013999938964844,learn,2986.0000610351562,Wed Mar 12 2025 12:30:31 GMT-0500 (Central Daylight Time),340123.40000000596,A,r,O,r,4699,1,4714.20000000298,335409.200000003,7079,WL,A,8.0
1,57.29699993133545,learn,2703.000068664551,Wed Mar 12 2025 12:30:31 GMT-0500 (Central Daylight Time),340407.0,A,ru,O,u,266,1,4997.79999999702,335409.200000003,7079,WL,A,8.0
1,57.52799987792969,learn,2472.0001220703125,Wed Mar 12 2025 12:30:31 GMT-0500 (Central Daylight Time),340637.700000003,A,rug,O,g,211,1,5228.5,335409.200000003,7079,WL,A,8.0
1,57.895999908447266,learn,2104.0000915527344,Wed Mar 12 2025 12:30:31 GMT-0500 (Central Daylight Time),341005.3000000119,A,rugenter,O,enter,356,1,5596.100000008941,335409.200000003,7079,WL,A,8.0
1,60.013999938964844,learn,-13.99993896484375,Wed Mar 12 2025 12:30:31 GMT-0500 (Central Daylight Time),343123.8000000119,A,None,O,None,2113,1,2118.2000000029802,341005.60000000894,7079,WL,A,9.0
2,1.250999927520752,learn,58749.00007247925,Wed Mar 12 2025 12:30:31 GMT-0500 (Central Daylight Time),418998.60000000894,A,s,O,s,1232,1,1250.7000000029802,417747.90000000596,7079,WL,A,1.0
2,1.4819998741149902,learn,58518.00012588501,Wed Mar 12 2025 12:30:31 GMT-0500 (Central Daylight Time),419230.200000003,A,sa,O,a,212,1,1482.2999999970198,417747.90000000596,7079,WL,A,1.0
2,1.682999849319458,learn,58317.00015068054,Wed Mar 12 2025 12:30:31 GMT-0500 (Central Daylight Time),419430.700000003,A,sal,O,l,182,1,1682.7999999970198,417747.90000000596,7079,WL,A,1.0
2,2.0159997940063477,learn,57984.00020599365,Wed Mar 12 2025 12:30:31 GMT-0500 (Central Daylight Time),419764.200000003,A,salt,O,t,317,1,2016.2999999970198,417747.90000000596,7079,WL,A,1.0
2,2.7669999599456787,learn,57233.00004005432,Wed Mar 12 2025 12:30:31 GMT-0500 (Central Daylight Time),420514.3000000119,A,saltenter,O,enter,734,1,2766.4000000059605,417747.90000000596,7079,WL,A,1.0
2,3.615999937057495,learn,56384.000062942505,Wed Mar 12 2025 12:30:31 GMT-0500 (Central Daylight Time),421363.8000000119,A,b,O,b,835,1,849.2000000029802,420514.60000000894,7079,WL,A,2.0
2,4.298999786376953,learn,55701.00021362305,Wed Mar 12 2025 12:30:31 GMT-0500 (Central Daylight Time),422046.5,A,bu,O,u,663,1,1531.8999999910593,420514.60000000894,7079,WL,A,2.0
2,4.566999912261963,learn,55433.00008773804,Wed Mar 12 2025 12:30:31 GMT-0500 (Central Daylight Time),422314.40000000596,A,but,O,t,262,1,1799.7999999970198,420514.60000000894,7079,WL,A,2.0
2,4.765999794006348,learn,55234.00020599365,Wed Mar 12 2025 12:30:31 GMT-0500 (Central Daylight Time),422514.0,A,butt,O,t,192,1,1999.3999999910593,420514.60000000894,7079,WL,A,2.0
2,4.948999881744385,learn,55051.000118255615,Wed Mar 12 2025 12:30:31 GMT-0500 (Central Daylight Time),422697.0,A,butto,O,o,159,1,2182.3999999910593,420514.60000000894,7079,WL,A,2.0
2,5.23199987411499,learn,54768.00012588501,Wed Mar 12 2025 12:30:31 GMT-0500 (Central Daylight Time),422979.5,A,buttob,O,b,267,1,2464.8999999910593,420514.60000000894,7079,WL,A,2.0
2,5.947999954223633,learn,54052.00004577637,Wed Mar 12 2025 12:30:31 GMT-0500 (Central Daylight Time),423695.8000000119,A,buttobenter,O,enter,696,1,3181.2000000029802,420514.60000000894,7079,WL,A,2.0
2,7.363999843597412,learn,52636.00015640259,Wed Mar 12 2025 12:30:31 GMT-0500 (Central Daylight Time),425111.5,A,b,O,b,1404,1,1415.2999999970198,423696.200000003,7079,WL,A,3.0
2,7.81499981880188,learn,52185.00018119812,Wed Mar 12 2025 12:30:31 GMT-0500 (Central Daylight Time),425563.0,A,bu,O,u,446,1,1866.7999999970198,423696.200000003,7079,WL,A,3.0
2,8.113999843597412,learn,51886.00015640259,Wed Mar 12 2025 12:30:31 GMT-0500 (Central Daylight Time),425861.3000000119,A,but,O,t,287,1,2165.1000000089407,423696.200000003,7079,WL,A,3.0
2,8.297999858856201,learn,51702.0001411438,Wed Mar 12 2025 12:30:31 GMT-0500 (Central Daylight Time),426045.60000000894,A,butt,O,t,166,1,2349.4000000059605,423696.200000003,7079,WL,A,3.0
2,9.047999858856201,learn,50952.0001411438,Wed Mar 12 2025 12:30:31 GMT-0500 (Central Daylight Time),426795.40000000596,A,butto,O,o,734,1,3099.2000000029802,423696.200000003,7079,WL,A,3.0
2,9.396999835968018,learn,50603.00016403198,Wed Mar 12 2025 12:30:31 GMT-0500 (Central Daylight Time),427144.40000000596,A,buttob,O,b,336,1,3448.2000000029802,423696.200000003,7079,WL,A,3.0
2,9.829999923706055,learn,50170.000076293945,Wed Mar 12 2025 12:30:31 GMT-0500 (Central Daylight Time),427578.200000003,A,butto,O,backspace,418,1,3882.0,423696.200000003,7079,WL,A,3.0
2,10.179999828338623,learn,49820.00017166138,Wed Mar 12 2025 12:30:31 GMT-0500 (Central Daylight Time),427928.10000000894,A,button,O,n,338,1,4231.9000000059605,423696.200000003,7079,WL,A,3.0
2,10.996999979019165,learn,49003.000020980835,Wed Mar 12 2025 12:30:31 GMT-0500 (Central Daylight Time),428745.0,A,buttonenter,O,enter,803,1,5048.79999999702,423696.200000003,7079,WL,A,3.0
2,12.26199984550476,learn,47738.00015449524,Wed Mar 12 2025 12:30:31 GMT-0500 (Central Daylight Time),430010.10000000894,A,r,O,r,1252,1,1264.9000000059605,428745.200000003,7079,WL,A,4.0
2,12.412999868392944,learn,47587.000131607056,Wed Mar 12 2025 12:30:31 GMT-0500 (Central Daylight Time),430161.0,A,ra,O,a,138,1,1415.7999999970198,428745.200000003,7079,WL,A,4.0
2,12.646999835968018,learn,47353.00016403198,Wed Mar 12 2025 12:30:31 GMT-0500 (Central Daylight Time),430394.40000000596,A,rat,O,t,219,1,1649.2000000029802,428745.200000003,7079,WL,A,4.0
2,12.812999963760376,learn,47187.000036239624,Wed Mar 12 2025 12:30:31 GMT-0500 (Central Daylight Time),430561.200000003,A,ratt,O,t,154,1,1816.0,428745.200000003,7079,WL,A,4.0
2,13.746999979019165,learn,46253.000020980835,Wed Mar 12 2025 12:30:31 GMT-0500 (Central Daylight Time),431494.3000000119,A,rattl,O,l,914,1,2749.1000000089407,428745.200000003,7079,WL,A,4.0
2,13.88099980354309,learn,46119.00019645691,Wed Mar 12 2025 12:30:31 GMT-0500 (Central Daylight Time),431628.40000000596,A,rattle,O,e,127,1,2883.2000000029802,428745.200000003,7079,WL,A,4.0
2,14.194999933242798,learn,45805.0000667572,Wed Mar 12 2025 12:30:31 GMT-0500 (Central Daylight Time),431943.10000000894,A,rattleenter,O,enter,294,1,3197.9000000059605,428745.200000003,7079,WL,A,4.0
2,15.079999923706055,learn,44920.000076293945,Wed Mar 12 2025 12:30:31 GMT-0500 (Central Daylight Time),432828.200000003,A,g,O,g,880,1,884.7999999970198,431943.40000000596,7079,WL,A,5.0
2,15.27999997138977,learn,44720.00002861023,Wed Mar 12 2025 12:30:31 GMT-0500 (Central Daylight Time),433027.5,A,go,O,o,192,1,1084.0999999940395,431943.40000000596,7079,WL,A,5.0
2,15.510999917984009,learn,44489.00008201599,Wed Mar 12 2025 12:30:31 GMT-0500 (Central Daylight Time),433259.0,A,gol,O,l,224,1,1315.5999999940395,431943.40000000596,7079,WL,A,5.0
2,15.74399995803833,learn,44256.00004196167,Wed Mar 12 2025 12:30:31 GMT-0500 (Central Daylight Time),433491.5,A,gold,O,d,211,1,1548.0999999940395,431943.40000000596,7079,WL,A,5.0
2,16.027999877929688,learn,43972.00012207031,Wed Mar 12 2025 12:30:31 GMT-0500 (Central Daylight Time),433775.60000000894,A,goldenter,O,enter,262,1,1832.2000000029802,431943.40000000596,7079,WL,A,5.0
2,17.17799997329712,learn,42822.00002670288,Wed Mar 12 2025 12:30:31 GMT-0500 (Central Daylight Time),434925.40000000596,A,f,O,f,1132,1,1149.5,433775.90000000596,7079,WL,A,6.0
2,17.377999782562256,learn,42622.000217437744,Wed Mar 12 2025 12:30:31 GMT-0500 (Central Daylight Time),435126.0,A,fi,O,i,189,1,1350.0999999940395,433775.90000000596,7079,WL,A,6.0
2,17.977999925613403,learn,42022.0000743866,Wed Mar 12 2025 12:30:31 GMT-0500 (Central Daylight Time),435725.60000000894,A,fin,O,n,583,1,1949.7000000029802,433775.90000000596,7079,WL,A,6.0
2,18.244999885559082,learn,41755.00011444092,Wed Mar 12 2025 12:30:31 GMT-0500 (Central Daylight Time),435992.8000000119,A,fing,O,g,246,1,2216.9000000059605,433775.90000000596,7079,WL,A,6.0
2,18.411999940872192,learn,41588.00005912781,Wed Mar 12 2025 12:30:31 GMT-0500 (Central Daylight Time),436160.10000000894,A,finge,O,e,155,1,2384.2000000029802,433775.90000000596,7079,WL,A,6.0
2,18.609999895095825,learn,41390.000104904175,Wed Mar 12 2025 12:30:31 GMT-0500 (Central Daylight Time),436358.10000000894,A,finger,O,r,185,1,2582.2000000029802,433775.90000000596,7079,WL,A,6.0
2,19.144999980926514,learn,40855.000019073486,Wed Mar 12 2025 12:30:31 GMT-0500 (Central Daylight Time),436892.200000003,A,fingerenter,O,enter,514,1,3116.2999999970198,433775.90000000596,7079,WL,A,6.0
2,20.72699999809265,learn,39273.00000190735,Wed Mar 12 2025 12:30:31 GMT-0500 (Central Daylight Time),438475.10000000894,A,b,O,b,1567,1,1582.5,436892.60000000894,7079,WL,A,7.0
2,21.127999782562256,learn,38872.000217437744,Wed Mar 12 2025 12:30:31 GMT-0500 (Central Daylight Time),438876.0,A,bo,O,o,394,1,1983.3999999910593,436892.60000000894,7079,WL,A,7.0
2,21.34499979019165,learn,38655.00020980835,Wed Mar 12 2025 12:30:31 GMT-0500 (Central Daylight Time),439092.5,A,boo,O,o,198,1,2199.8999999910593,436892.60000000894,7079,WL,A,7.0
2,21.596999883651733,learn,38403.00011634827,Wed Mar 12 2025 12:30:31 GMT-0500 (Central Daylight Time),439345.0,A,book,O,k,234,1,2452.3999999910593,436892.60000000894,7079,WL,A,7.0
2,22.26199984550476,learn,37738.00015449524,Wed Mar 12 2025 12:30:31 GMT-0500 (Central Daylight Time),440010.0,A,bookenter,O,enter,661,1,3117.3999999910593,436892.60000000894,7079,WL,A,7.0
2,23.175999879837036,learn,36824.000120162964,Wed Mar 12 2025 12:30:31 GMT-0500 (Central Daylight Time),440923.60000000894,A,t,O,t,905,1,913.4000000059605,440010.200000003,7079,WL,A,8.0
2,23.444000005722046,learn,36555.999994277954,Wed Mar 12 2025 12:30:31 GMT-0500 (Central Daylight Time),441191.3000000119,A,tr,O,r,254,1,1181.1000000089407,440010.200000003,7079,WL,A,8.0
2,23.944000005722046,learn,36055.999994277954,Wed Mar 12 2025 12:30:31 GMT-0500 (Central Daylight Time),441692.10000000894,A,tra,O,a,495,1,1681.9000000059605,440010.200000003,7079,WL,A,8.0
2,24.126999855041504,learn,35873.000144958496,Wed Mar 12 2025 12:30:31 GMT-0500 (Central Daylight Time),441874.5,A,trai,O,i,168,1,1864.2999999970198,440010.200000003,7079,WL,A,8.0
2,24.425999879837036,learn,35574.000120162964,Wed Mar 12 2025 12:30:31 GMT-0500 (Central Daylight Time),442173.60000000894,A,traib,O,b,280,1,2163.4000000059605,440010.200000003,7079,WL,A,8.0
2,24.79199981689453,learn,35208.00018310547,Wed Mar 12 2025 12:30:31 GMT-0500 (Central Daylight Time),442539.3000000119,A,traibenter,O,enter,347,1,2529.1000000089407,440010.200000003,7079,WL,A,8.0
2,25.992999792099,learn,34007.000207901,Wed Mar 12 2025 12:30:31 GMT-0500 (Central Daylight Time),443740.700000003,A,i,O,i,1186,1,1201.0999999940395,442539.60000000894,7079,WL,A,9.0
2,26.526999950408936,learn,33473.000049591064,Wed Mar 12 2025 12:30:31 GMT-0500 (Central Daylight Time),444274.60000000894,A,,O,backspace,522,1,1735.0,442539.60000000894,7079,WL,A,9.0
2,27.359999895095825,learn,32640.000104904175,Wed Mar 12 2025 12:30:31 GMT-0500 (Central Daylight Time),445107.40000000596,A,t,O,t,823,1,2567.7999999970198,442539.60000000894,7079,WL,A,9.0
2,28.175999879837036,learn,31824.000120162964,Wed Mar 12 2025 12:30:31 GMT-0500 (Central Daylight Time),445923.3000000119,A,tr,O,r,796,1,3383.7000000029802,442539.60000000894,7079,WL,A,9.0
2,28.390999794006348,learn,31609.000205993652,Wed Mar 12 2025 12:30:31 GMT-0500 (Central Daylight Time),446139.0,A,tra,O,a,198,1,3599.3999999910593,442539.60000000894,7079,WL,A,9.0
2,28.792999982833862,learn,31207.000017166138,Wed Mar 12 2025 12:30:31 GMT-0500 (Central Daylight Time),446540.60000000894,A,trai,O,i,393,1,4001.0,442539.60000000894,7079,WL,A,9.0
2,29.107999801635742,learn,30892.000198364258,Wed Mar 12 2025 12:30:31 GMT-0500 (Central Daylight Time),446855.5,A,traib,O,b,289,1,4315.899999991059,442539.60000000894,7079,WL,A,9.0
2,29.590999841690063,learn,30409.000158309937,Wed Mar 12 2025 12:30:31 GMT-0500 (Central Daylight Time),447338.700000003,A,trai,O,backspace,475,1,4799.0999999940395,442539.60000000894,7079,WL,A,9.0
2,30.008999824523926,learn,29991.000175476074,Wed Mar 12 2025 12:30:31 GMT-0500 (Central Daylight Time),447757.0,A,train,O,n,401,1,5217.399999991059,442539.60000000894,7079,WL,A,9.0
2,30.539999961853027,learn,29460.000038146973,Wed Mar 12 2025 12:30:31 GMT-0500 (Central Daylight Time),448287.8000000119,A,trainenter,O,enter,518,1,5748.20000000298,442539.60000000894,7079,WL,A,9.0
2,32.79199981689453,learn,27208.00018310547,Wed Mar 12 2025 12:30:31 GMT-0500 (Central Daylight Time),450539.3000000119,A,b,O,b,2246,1,2251.2000000029802,448288.10000000894,7079,WL,A,10.0
2,33.306999921798706,learn,26693.000078201294,Wed Mar 12 2025 12:30:31 GMT-0500 (Central Daylight Time),451054.200000003,A,bo,O,o,499,1,2766.0999999940395,448288.10000000894,7079,WL,A,10.0
2,33.50699996948242,learn,26493.000030517578,Wed Mar 12 2025 12:30:31 GMT-0500 (Central Daylight Time),451254.700000003,A,boo,O,o,189,1,2966.5999999940395,448288.10000000894,7079,WL,A,10.0
2,33.77300000190735,learn,26226.99999809265,Wed Mar 12 2025 12:30:31 GMT-0500 (Central Daylight Time),451520.8000000119,A,book,O,k,251,1,3232.7000000029802,448288.10000000894,7079,WL,A,10.0
2,34.20599985122681,learn,25794.000148773193,Wed Mar 12 2025 12:30:31 GMT-0500 (Central Daylight Time),451953.40000000596,A,bookenter,O,enter,420,1,3665.2999999970198,448288.10000000894,7079,WL,A,10.0
2,35.240999937057495,learn,24759.000062942505,Wed Mar 12 2025 12:30:31 GMT-0500 (Central Daylight Time),452989.0,A,f,O,f,1029,1,1035.2999999970198,451953.700000003,7079,WL,A,11.0
2,35.424999952316284,learn,24575.000047683716,Wed Mar 12 2025 12:30:31 GMT-0500 (Central Daylight Time),453172.5,A,fi,O,i,155,1,1218.7999999970198,451953.700000003,7079,WL,A,11.0
2,35.6729998588562,learn,24327.0001411438,Wed Mar 12 2025 12:30:31 GMT-0500 (Central Daylight Time),453420.40000000596,A,fin,O,n,229,1,1466.7000000029802,451953.700000003,7079,WL,A,11.0
2,36.07299995422363,learn,23927.000045776367,Wed Mar 12 2025 12:30:31 GMT-0500 (Central Daylight Time),453820.700000003,A,fing,O,g,391,1,1867.0,451953.700000003,7079,WL,A,11.0
2,36.30499982833862,learn,23695.000171661377,Wed Mar 12 2025 12:30:31 GMT-0500 (Central Daylight Time),454052.3000000119,A,finge,O,e,208,1,2098.6000000089407,451953.700000003,7079,WL,A,11.0
2,36.50599980354309,learn,23494.00019645691,Wed Mar 12 2025 12:30:31 GMT-0500 (Central Daylight Time),454254.200000003,A,finger,O,r,180,1,2300.5,451953.700000003,7079,WL,A,11.0
2,36.8219997882843,learn,23178.0002117157,Wed Mar 12 2025 12:30:31 GMT-0500 (Central Daylight Time),454569.700000003,A,fingerenter,O,enter,297,1,2616.0,451953.700000003,7079,WL,A,11.0
2,38.47199988365173,learn,21528.000116348267,Wed Mar 12 2025 12:30:31 GMT-0500 (Central Daylight Time),456220.0,A,t,O,t,1643,1,1650.0,454570.0,7079,WL,A,12.0
2,38.687999963760376,learn,21312.000036239624,Wed Mar 12 2025 12:30:31 GMT-0500 (Central Daylight Time),456436.0,A,tr,O,r,197,1,1866.0,454570.0,7079,WL,A,12.0
2,39.02199983596802,learn,20978.000164031982,Wed Mar 12 2025 12:30:31 GMT-0500 (Central Daylight Time),456769.60000000894,A,tra,O,a,308,1,2199.6000000089407,454570.0,7079,WL,A,12.0
2,39.17199993133545,learn,20828.00006866455,Wed Mar 12 2025 12:30:31 GMT-0500 (Central Daylight Time),456919.5,A,trai,O,i,134,1,2349.5,454570.0,7079,WL,A,12.0
2,39.4210000038147,learn,20578.999996185303,Wed Mar 12 2025 12:30:31 GMT-0500 (Central Daylight Time),457169.10000000894,A,traib,O,b,235,1,2599.1000000089407,454570.0,7079,WL,A,12.0
2,39.888999938964844,learn,20111.000061035156,Wed Mar 12 2025 12:30:31 GMT-0500 (Central Daylight Time),457636.40000000596,A,trai,O,backspace,450,1,3066.4000000059605,454570.0,7079,WL,A,12.0
2,40.605000019073486,learn,19394.999980926514,Wed Mar 12 2025 12:30:31 GMT-0500 (Central Daylight Time),458352.8000000119,A,train,O,n,700,1,3782.800000011921,454570.0,7079,WL,A,12.0
2,41.187999963760376,learn,18812.000036239624,Wed Mar 12 2025 12:30:31 GMT-0500 (Central Daylight Time),458935.3000000119,A,trainenter,O,enter,568,1,4365.300000011921,454570.0,7079,WL,A,12.0
2,46.88699984550476,learn,13113.00015449524,Wed Mar 12 2025 12:30:31 GMT-0500 (Central Daylight Time),464634.40000000596,A,r,O,r,5678,1,5698.79999999702,458935.60000000894,7079,WL,A,13.0
2,47.11999988555908,learn,12880.000114440918,Wed Mar 12 2025 12:30:31 GMT-0500 (Central Daylight Time),464868.0,A,ru,O,u,223,1,5932.399999991059,458935.60000000894,7079,WL,A,13.0
2,47.367999792099,learn,12632.000207901001,Wed Mar 12 2025 12:30:31 GMT-0500 (Central Daylight Time),465116.0,A,rug,O,g,225,1,6180.399999991059,458935.60000000894,7079,WL,A,13.0
2,47.80299997329712,learn,12197.00002670288,Wed Mar 12 2025 12:30:31 GMT-0500 (Central Daylight Time),465550.200000003,A,rugenter,O,enter,423,1,6614.5999999940395,458935.60000000894,7079,WL,A,13.0
2,54.46599984169006,learn,5534.0001583099365,Wed Mar 12 2025 12:30:31 GMT-0500 (Central Daylight Time),472214.0,A,r,O,r,6658,1,6663.5,465550.5,7079,WL,A,14.0
2,54.79899978637695,learn,5201.000213623047,Wed Mar 12 2025 12:30:31 GMT-0500 (Central Daylight Time),472547.60000000894,A,ra,O,a,319,1,6997.100000008941,465550.5,7079,WL,A,14.0
2,55.08200001716614,learn,4917.999982833862,Wed Mar 12 2025 12:30:31 GMT-0500 (Central Daylight Time),472830.3000000119,A,rat,O,t,271,1,7279.800000011921,465550.5,7079,WL,A,14.0
2,55.264999866485596,learn,4735.000133514404,Wed Mar 12 2025 12:30:31 GMT-0500 (Central Daylight Time),473013.8000000119,A,ratt,O,t,174,1,7463.300000011921,465550.5,7079,WL,A,14.0
2,56.097999811172485,learn,3902.0001888275146,Wed Mar 12 2025 12:30:31 GMT-0500 (Central Daylight Time),473845.90000000596,A,rattl,O,l,821,1,8295.40000000596,465550.5,7079,WL,A,14.0
2,56.2979998588562,learn,3702.000141143799,Wed Mar 12 2025 12:30:31 GMT-0500 (Central Daylight Time),474046.200000003,A,rattle,O,e,190,1,8495.70000000298,465550.5,7079,WL,A,14.0
2,56.56399989128113,learn,3436.000108718872,Wed Mar 12 2025 12:30:31 GMT-0500 (Central Daylight Time),474312.40000000596,A,rattleenter,O,enter,246,1,8761.90000000596,465550.5,7079,WL,A,14.0
2,60.013999938964844,learn,-13.99993896484375,Wed Mar 12 2025 12:30:31 GMT-0500 (Central Daylight Time),477762.3000000119,A,None,O,None,3444,1,3449.7000000029802,474312.60000000894,7079,WL,A,15.0
3,0.8669998645782471,learn,59133.00013542175,Wed Mar 12 2025 12:30:31 GMT-0500 (Central Daylight Time),545658.3000000119,A,k,O,k,852,1,866.2000000029802,544792.1000000089,7079,WL,A,1.0
3,1.0490000247955322,learn,58950.99997520447,Wed Mar 12 2025 12:30:31 GMT-0500 (Central Daylight Time),545841.0,A,ke,O,e,161,1,1048.8999999910593,544792.1000000089,7079,WL,A,1.0
3,1.2319998741149902,learn,58768.00012588501,Wed Mar 12 2025 12:30:31 GMT-0500 (Central Daylight Time),546023.700000003,A,key,O,y,172,1,1231.5999999940395,544792.1000000089,7079,WL,A,1.0
3,1.8989999294281006,learn,58101.0000705719,Wed Mar 12 2025 12:30:31 GMT-0500 (Central Daylight Time),546690.8000000119,A,keyenter,O,enter,662,1,1898.7000000029802,544792.1000000089,7079,WL,A,1.0
3,2.681999921798706,learn,57318.000078201294,Wed Mar 12 2025 12:30:31 GMT-0500 (Central Daylight Time),547473.5,A,g,O,g,777,1,782.3999999910593,546691.1000000089,7079,WL,A,2.0
3,2.881999969482422,learn,57118.00003051758,Wed Mar 12 2025 12:30:31 GMT-0500 (Central Daylight Time),547674.1000000089,A,go,O,o,186,1,983.0,546691.1000000089,7079,WL,A,2.0
3,3.1649999618530273,learn,56835.00003814697,Wed Mar 12 2025 12:30:31 GMT-0500 (Central Daylight Time),547956.900000006,A,gol,O,l,266,1,1265.7999999970198,546691.1000000089,7079,WL,A,2.0
3,3.381999969482422,learn,56618.00003051758,Wed Mar 12 2025 12:30:31 GMT-0500 (Central Daylight Time),548173.3000000119,A,gold,O,d,198,1,1482.2000000029802,546691.1000000089,7079,WL,A,2.0
3,3.682999849319458,learn,56317.00015068054,Wed Mar 12 2025 12:30:31 GMT-0500 (Central Daylight Time),548474.8000000119,A,goldenter,O,enter,287,1,1783.7000000029802,546691.1000000089,7079,WL,A,2.0
3,4.980000019073486,learn,55019.999980926514,Wed Mar 12 2025 12:30:31 GMT-0500 (Central Daylight Time),549771.8000000119,A,n,O,n,1291,1,1296.6000000089407,548475.200000003,7079,WL,A,3.0
3,5.197000026702881,learn,54802.99997329712,Wed Mar 12 2025 12:30:31 GMT-0500 (Central Daylight Time),549989.1000000089,A,ne,O,e,207,1,1513.9000000059605,548475.200000003,7079,WL,A,3.0
3,6.096999883651733,learn,53903.00011634827,Wed Mar 12 2025 12:30:31 GMT-0500 (Central Daylight Time),550888.5,A,n,O,backspace,878,1,2413.2999999970198,548475.200000003,7079,WL,A,3.0
3,6.296999931335449,learn,53703.00006866455,Wed Mar 12 2025 12:30:31 GMT-0500 (Central Daylight Time),551088.6000000089,A,,O,backspace,178,1,2613.4000000059605,548475.200000003,7079,WL,A,3.0
3,7.21399998664856,learn,52786.00001335144,Wed Mar 12 2025 12:30:31 GMT-0500 (Central Daylight Time),552005.700000003,A,m,O,m,899,1,3530.5,548475.200000003,7079,WL,A,3.0
3,7.398000001907349,learn,52601.99999809265,Wed Mar 12 2025 12:30:31 GMT-0500 (Central Daylight Time),552189.400000006,A,me,O,e,161,1,3714.2000000029802,548475.200000003,7079,WL,A,3.0
3,7.73199987411499,learn,52268.00012588501,Wed Mar 12 2025 12:30:31 GMT-0500 (Central Daylight Time),552524.0,A,mea,O,a,309,1,4048.7999999970198,548475.200000003,7079,WL,A,3.0
3,8.096999883651733,learn,51903.00011634827,Wed Mar 12 2025 12:30:31 GMT-0500 (Central Daylight Time),552888.400000006,A,mead,O,d,353,1,4413.20000000298,548475.200000003,7079,WL,A,3.0
3,8.513999938964844,learn,51486.000061035156,Wed Mar 12 2025 12:30:31 GMT-0500 (Central Daylight Time),553306.0,A,meado,O,o,403,1,4830.79999999702,548475.200000003,7079,WL,A,3.0
3,8.69599986076355,learn,51304.00013923645,Wed Mar 12 2025 12:30:31 GMT-0500 (Central Daylight Time),553487.6000000089,A,meadow,O,w,163,1,5012.4000000059605,548475.200000003,7079,WL,A,3.0
3,9.079999923706055,learn,50920.000076293945,Wed Mar 12 2025 12:30:31 GMT-0500 (Central Daylight Time),553871.3000000119,A,meadowenter,O,enter,363,1,5396.100000008941,548475.200000003,7079,WL,A,3.0
3,9.878999948501587,learn,50121.00005149841,Wed Mar 12 2025 12:30:31 GMT-0500 (Central Daylight Time),554670.900000006,A,t,O,t,781,1,799.2999999970198,553871.6000000089,7079,WL,A,4.0
3,10.144999980926514,learn,49855.000019073486,Wed Mar 12 2025 12:30:31 GMT-0500 (Central Daylight Time),554937.0,A,tr,O,r,246,1,1065.3999999910593,553871.6000000089,7079,WL,A,4.0
3,10.444999933242798,learn,49555.0000667572,Wed Mar 12 2025 12:30:31 GMT-0500 (Central Daylight Time),555237.200000003,A,tra,O,a,290,1,1365.5999999940395,553871.6000000089,7079,WL,A,4.0
3,10.644999980926514,learn,49355.000019073486,Wed Mar 12 2025 12:30:31 GMT-0500 (Central Daylight Time),555437.200000003,A,trai,O,i,182,1,1565.5999999940395,553871.6000000089,7079,WL,A,4.0
3,10.912999868392944,learn,49087.000131607056,Wed Mar 12 2025 12:30:31 GMT-0500 (Central Daylight Time),555705.200000003,A,train,O,n,261,1,1833.5999999940395,553871.6000000089,7079,WL,A,4.0
3,11.394999980926514,learn,48605.000019073486,Wed Mar 12 2025 12:30:31 GMT-0500 (Central Daylight Time),556187.0,A,trainenter,O,enter,474,1,2315.3999999910593,553871.6000000089,7079,WL,A,4.0
3,12.144999980926514,learn,47855.000019073486,Wed Mar 12 2025 12:30:31 GMT-0500 (Central Daylight Time),556936.6000000089,A,f,O,f,744,1,749.4000000059605,556187.200000003,7079,WL,A,5.0
3,12.330999851226807,learn,47669.00014877319,Wed Mar 12 2025 12:30:31 GMT-0500 (Central Daylight Time),557122.700000003,A,fi,O,i,174,1,935.5,556187.200000003,7079,WL,A,5.0
3,12.628999948501587,learn,47371.00005149841,Wed Mar 12 2025 12:30:31 GMT-0500 (Central Daylight Time),557420.5,A,fin,O,n,289,1,1233.2999999970198,556187.200000003,7079,WL,A,5.0
3,13.11299991607666,learn,46887.00008392334,Wed Mar 12 2025 12:30:31 GMT-0500 (Central Daylight Time),557904.700000003,A,fing,O,g,462,1,1717.5,556187.200000003,7079,WL,A,5.0
3,13.27999997138977,learn,46720.00002861023,Wed Mar 12 2025 12:30:31 GMT-0500 (Central Daylight Time),558071.700000003,A,finge,O,e,154,1,1884.5,556187.200000003,7079,WL,A,5.0
3,13.495999813079834,learn,46504.000186920166,Wed Mar 12 2025 12:30:31 GMT-0500 (Central Daylight Time),558287.3000000119,A,finger,O,r,195,1,2100.1000000089407,556187.200000003,7079,WL,A,5.0
3,13.74399995803833,learn,46256.00004196167,Wed Mar 12 2025 12:30:31 GMT-0500 (Central Daylight Time),558536.1000000089,A,fingerenter,O,enter,233,1,2348.9000000059605,556187.200000003,7079,WL,A,5.0
3,14.477999925613403,learn,45522.0000743866,Wed Mar 12 2025 12:30:31 GMT-0500 (Central Daylight Time),559270.200000003,A,s,O,s,716,1,733.7999999970198,558536.400000006,7079,WL,A,6.0
3,14.727999925613403,learn,45272.0000743866,Wed Mar 12 2025 12:30:31 GMT-0500 (Central Daylight Time),559519.8000000119,A,sa,O,a,228,1,983.4000000059605,558536.400000006,7079,WL,A,6.0
3,14.994999885559082,learn,45005.00011444092,Wed Mar 12 2025 12:30:31 GMT-0500 (Central Daylight Time),559786.400000006,A,sal,O,l,253,1,1250.0,558536.400000006,7079,WL,A,6.0
3,15.358999967575073,learn,44641.00003242493,Wed Mar 12 2025 12:30:31 GMT-0500 (Central Daylight Time),560151.1000000089,A,salt,O,t,353,1,1614.7000000029802,558536.400000006,7079,WL,A,6.0
3,15.64299988746643,learn,44357.00011253357,Wed Mar 12 2025 12:30:31 GMT-0500 (Central Daylight Time),560435.0,A,saltenter,O,enter,271,1,1898.5999999940395,558536.400000006,7079,WL,A,6.0
3,19.876999855041504,learn,40123.000144958496,Wed Mar 12 2025 12:30:31 GMT-0500 (Central Daylight Time),564668.900000006,A,b,O,b,4228,1,4233.5999999940395,560435.3000000119,7079,WL,A,7.0
3,20.175999879837036,learn,39824.000120162964,Wed Mar 12 2025 12:30:31 GMT-0500 (Central Daylight Time),564967.400000006,A,bo,O,o,275,1,4532.0999999940395,560435.3000000119,7079,WL,A,7.0
3,20.359999895095825,learn,39640.000104904175,Wed Mar 12 2025 12:30:31 GMT-0500 (Central Daylight Time),565151.6000000089,A,boo,O,o,171,1,4716.29999999702,560435.3000000119,7079,WL,A,7.0
3,20.609999895095825,learn,39390.000104904175,Wed Mar 12 2025 12:30:31 GMT-0500 (Central Daylight Time),565402.1000000089,A,book,O,k,234,1,4966.79999999702,560435.3000000119,7079,WL,A,7.0
3,21.04199981689453,learn,38958.00018310547,Wed Mar 12 2025 12:30:31 GMT-0500 (Central Daylight Time),565834.3000000119,A,bookenter,O,enter,419,1,5399.0,560435.3000000119,7079,WL,A,7.0
3,21.893999814987183,learn,38106.00018501282,Wed Mar 12 2025 12:30:31 GMT-0500 (Central Daylight Time),566685.400000006,A,c,O,c,834,1,850.9000000059605,565834.5,7079,WL,A,8.0
3,22.108999967575073,learn,37891.00003242493,Wed Mar 12 2025 12:30:31 GMT-0500 (Central Daylight Time),566900.6000000089,A,ch,O,h,206,1,1066.1000000089407,565834.5,7079,WL,A,8.0
3,22.55900001525879,learn,37440.99998474121,Wed Mar 12 2025 12:30:31 GMT-0500 (Central Daylight Time),567351.0,A,chi,O,i,438,1,1516.5,565834.5,7079,WL,A,8.0
3,22.89199995994568,learn,37108.00004005432,Wed Mar 12 2025 12:30:31 GMT-0500 (Central Daylight Time),567684.200000003,A,chin,O,n,326,1,1849.7000000029802,565834.5,7079,WL,A,8.0
3,24.37399983406067,learn,35626.00016593933,Wed Mar 12 2025 12:30:31 GMT-0500 (Central Daylight Time),569166.1000000089,A,chi,O,backspace,1470,1,3331.6000000089407,565834.5,7079,WL,A,8.0
3,25.276999950408936,learn,34723.000049591064,Wed Mar 12 2025 12:30:31 GMT-0500 (Central Daylight Time),570068.900000006,A,chim,O,m,886,1,4234.4000000059605,565834.5,7079,WL,A,8.0
3,25.608999967575073,learn,34391.00003242493,Wed Mar 12 2025 12:30:31 GMT-0500 (Central Daylight Time),570401.3000000119,A,chimn,O,n,326,1,4566.800000011921,565834.5,7079,WL,A,8.0
3,25.757999897003174,learn,34242.000102996826,Wed Mar 12 2025 12:30:31 GMT-0500 (Central Daylight Time),570549.5,A,chimne,O,e,130,1,4715.0,565834.5,7079,WL,A,8.0
3,26.20799994468689,learn,33792.00005531311,Wed Mar 12 2025 12:30:31 GMT-0500 (Central Daylight Time),571000.0,A,chimney,O,y,426,1,5165.5,565834.5,7079,WL,A,8.0
3,26.973999977111816,learn,33026.00002288818,Wed Mar 12 2025 12:30:31 GMT-0500 (Central Daylight Time),571766.0,A,chimneyenter,O,enter,748,1,5931.5,565834.5,7079,WL,A,8.0
3,28.37399983406067,learn,31626.00016593933,Wed Mar 12 2025 12:30:31 GMT-0500 (Central Daylight Time),573165.3000000119,A,r,O,r,1383,1,1399.0,571766.3000000119,7079,WL,A,9.0
3,28.573999881744385,learn,31426.000118255615,Wed Mar 12 2025 12:30:31 GMT-0500 (Central Daylight Time),573365.700000003,A,ru,O,u,180,1,1599.3999999910593,571766.3000000119,7079,WL,A,9.0
3,28.858999967575073,learn,31141.000032424927,Wed Mar 12 2025 12:30:31 GMT-0500 (Central Daylight Time),573650.400000006,A,rug,O,g,268,1,1884.0999999940395,571766.3000000119,7079,WL,A,9.0
3,29.205999851226807,learn,30794.000148773193,Wed Mar 12 2025 12:30:31 GMT-0500 (Central Daylight Time),573997.400000006,A,rugenter,O,enter,328,1,2231.0999999940395,571766.3000000119,7079,WL,A,9.0
3,32.722999811172485,learn,27277.000188827515,Wed Mar 12 2025 12:30:31 GMT-0500 (Central Daylight Time),577514.6000000089,A,t,O,t,3503,1,3516.9000000059605,573997.700000003,7079,WL,A,10.0
3,32.92199993133545,learn,27078.00006866455,Wed Mar 12 2025 12:30:31 GMT-0500 (Central Daylight Time),577714.200000003,A,tr,O,r,191,1,3716.5,573997.700000003,7079,WL,A,10.0
3,33.25599980354309,learn,26744.00019645691,Wed Mar 12 2025 12:30:31 GMT-0500 (Central Daylight Time),578047.3000000119,A,tra,O,a,322,1,4049.6000000089407,573997.700000003,7079,WL,A,10.0
3,33.45599985122681,learn,26544.000148773193,Wed Mar 12 2025 12:30:31 GMT-0500 (Central Daylight Time),578247.400000006,A,trai,O,i,179,1,4249.70000000298,573997.700000003,7079,WL,A,10.0
3,33.93899989128113,learn,26061.000108718872,Wed Mar 12 2025 12:30:31 GMT-0500 (Central Daylight Time),578730.900000006,A,traib,O,b,466,1,4733.20000000298,573997.700000003,7079,WL,A,10.0
3,34.70599985122681,learn,25294.000148773193,Wed Mar 12 2025 12:30:31 GMT-0500 (Central Daylight Time),579498.0,A,trai,O,backspace,753,1,5500.29999999702,573997.700000003,7079,WL,A,10.0
3,35.57299995422363,learn,24427.000045776367,Wed Mar 12 2025 12:30:31 GMT-0500 (Central Daylight Time),580365.200000003,A,train,O,n,857,1,6367.5,573997.700000003,7079,WL,A,10.0
3,36.22099995613098,learn,23779.00004386902,Wed Mar 12 2025 12:30:31 GMT-0500 (Central Daylight Time),581012.400000006,A,trainenter,O,enter,640,1,7014.70000000298,573997.700000003,7079,WL,A,10.0
3,38.370999813079834,learn,21629.000186920166,Wed Mar 12 2025 12:30:31 GMT-0500 (Central Daylight Time),583162.6000000089,A,s,O,s,2135,1,2149.9000000059605,581012.700000003,7079,WL,A,11.0
3,38.58699989318848,learn,21413.000106811523,Wed Mar 12 2025 12:30:31 GMT-0500 (Central Daylight Time),583378.900000006,A,sa,O,a,210,1,2366.2000000029802,581012.700000003,7079,WL,A,11.0
3,38.787999868392944,learn,21212.000131607056,Wed Mar 12 2025 12:30:31 GMT-0500 (Central Daylight Time),583579.700000003,A,sal,O,l,187,1,2567.0,581012.700000003,7079,WL,A,11.0
3,39.069000005722046,learn,20930.999994277954,Wed Mar 12 2025 12:30:31 GMT-0500 (Central Daylight Time),583860.900000006,A,salt,O,t,261,1,2848.2000000029802,581012.700000003,7079,WL,A,11.0
3,39.33899998664856,learn,20661.00001335144,Wed Mar 12 2025 12:30:31 GMT-0500 (Central Daylight Time),584130.6000000089,A,saltenter,O,enter,263,1,3117.9000000059605,581012.700000003,7079,WL,A,11.0
3,39.98899984359741,learn,20011.000156402588,Wed Mar 12 2025 12:30:31 GMT-0500 (Central Daylight Time),584780.8000000119,A,a,O,a,634,1,650.0,584130.8000000119,7079,WL,A,12.0
3,40.335999965667725,learn,19664.000034332275,Wed Mar 12 2025 12:30:31 GMT-0500 (Central Daylight Time),585128.3000000119,A,ap,O,p,331,1,997.5,584130.8000000119,7079,WL,A,12.0
3,40.537999868392944,learn,19462.000131607056,Wed Mar 12 2025 12:30:31 GMT-0500 (Central Daylight Time),585329.8000000119,A,app,O,p,194,1,1199.0,584130.8000000119,7079,WL,A,12.0
3,40.835999965667725,learn,19164.000034332275,Wed Mar 12 2025 12:30:31 GMT-0500 (Central Daylight Time),585627.700000003,A,appl,O,l,289,1,1496.8999999910593,584130.8000000119,7079,WL,A,12.0
3,41.05299997329712,learn,18947.00002670288,Wed Mar 12 2025 12:30:31 GMT-0500 (Central Daylight Time),585845.1000000089,A,apple,O,e,199,1,1714.2999999970198,584130.8000000119,7079,WL,A,12.0
3,41.401999950408936,learn,18598.000049591064,Wed Mar 12 2025 12:30:31 GMT-0500 (Central Daylight Time),586193.700000003,A,appleenter,O,enter,342,1,2062.8999999910593,584130.8000000119,7079,WL,A,12.0
3,43.984999895095825,learn,16015.000104904175,Wed Mar 12 2025 12:30:31 GMT-0500 (Central Daylight Time),588777.3000000119,A,g,O,g,2571,1,2583.4000000059605,586193.900000006,7079,WL,A,13.0
3,44.28399991989136,learn,15716.000080108643,Wed Mar 12 2025 12:30:31 GMT-0500 (Central Daylight Time),589076.3000000119,A,go,O,o,283,1,2882.4000000059605,586193.900000006,7079,WL,A,13.0
3,44.584999799728394,learn,15415.000200271606,Wed Mar 12 2025 12:30:31 GMT-0500 (Central Daylight Time),589377.0,A,gol,O,l,288,1,3183.0999999940395,586193.900000006,7079,WL,A,13.0
3,44.76899981498718,learn,15231.000185012817,Wed Mar 12 2025 12:30:31 GMT-0500 (Central Daylight Time),589560.8000000119,A,gold,O,d,164,1,3366.9000000059605,586193.900000006,7079,WL,A,13.0
3,45.067999839782715,learn,14932.000160217285,Wed Mar 12 2025 12:30:31 GMT-0500 (Central Daylight Time),589860.1000000089,A,goldenter,O,enter,283,1,3666.2000000029802,586193.900000006,7079,WL,A,13.0
3,47.31699991226196,learn,12683.000087738037,Wed Mar 12 2025 12:30:31 GMT-0500 (Central Daylight Time),592108.900000006,A,t,O,t,2233,1,2248.5,589860.400000006,7079,WL,A,14.0
3,47.69999980926514,learn,12300.000190734863,Wed Mar 12 2025 12:30:31 GMT-0500 (Central Daylight Time),592492.5,A,,O,backspace,377,1,2632.0999999940395,589860.400000006,7079,WL,A,14.0
3,47.882999897003174,learn,12117.000102996826,Wed Mar 12 2025 12:30:31 GMT-0500 (Central Daylight Time),592675.6000000089,A,r,O,r,166,1,2815.2000000029802,589860.400000006,7079,WL,A,14.0
3,48.19999980926514,learn,11800.000190734863,Wed Mar 12 2025 12:30:31 GMT-0500 (Central Daylight Time),592992.400000006,A,ru,O,u,297,1,3132.0,589860.400000006,7079,WL,A,14.0
3,48.93299984931946,learn,11067.000150680542,Wed Mar 12 2025 12:30:31 GMT-0500 (Central Daylight Time),593725.400000006,A,rug,O,g,727,1,3865.0,589860.400000006,7079,WL,A,14.0
3,49.31599998474121,learn,10684.000015258789,Wed Mar 12 2025 12:30:31 GMT-0500 (Central Daylight Time),594108.1000000089,A,rugenter,O,enter,366,1,4247.70000000298,589860.400000006,7079,WL,A,14.0
3,52.615999937057495,learn,7384.000062942505,Wed Mar 12 2025 12:30:31 GMT-0500 (Central Daylight Time),597408.0,A,s,O,s,3280,1,3299.5999999940395,594108.400000006,7079,WL,A,15.0
3,52.865999937057495,learn,7134.000062942505,Wed Mar 12 2025 12:30:31 GMT-0500 (Central Daylight Time),597658.6000000089,A,sa,O,a,236,1,3550.2000000029802,594108.400000006,7079,WL,A,15.0
3,53.0479998588562,learn,6952.000141143799,Wed Mar 12 2025 12:30:31 GMT-0500 (Central Daylight Time),597840.6000000089,A,sal,O,l,160,1,3732.2000000029802,594108.400000006,7079,WL,A,15.0
3,53.36500000953674,learn,6634.999990463257,Wed Mar 12 2025 12:30:31 GMT-0500 (Central Daylight Time),598157.0,A,salt,O,t,309,1,4048.5999999940395,594108.400000006,7079,WL,A,15.0
3,54.14800000190735,learn,5851.999998092651,Wed Mar 12 2025 12:30:31 GMT-0500 (Central Daylight Time),598939.8000000119,A,saltenter,O,enter,767,1,4831.4000000059605,594108.400000006,7079,WL,A,15.0
4,0.500999927520752,learn,59499.00007247925,Wed Mar 12 2025 12:30:31 GMT-0500 (Central Daylight Time),665136.5,A,b,O,b,481,1,500.0,664636.5,7079,WL,A,1.0
4,1.3829998970031738,learn,58617.000102996826,Wed Mar 12 2025 12:30:31 GMT-0500 (Central Daylight Time),666018.8000000119,A,bo,O,o,868,1,1382.300000011921,664636.5,7079,WL,A,1.0
4,1.5490000247955322,learn,58450.99997520447,Wed Mar 12 2025 12:30:31 GMT-0500 (Central Daylight Time),666185.200000003,A,boo,O,o,154,1,1548.7000000029802,664636.5,7079,WL,A,1.0
4,1.7679998874664307,learn,58232.00011253357,Wed Mar 12 2025 12:30:31 GMT-0500 (Central Daylight Time),666403.900000006,A,book,O,k,211,1,1767.4000000059605,664636.5,7079,WL,A,1.0
4,2.749000072479248,learn,57250.99992752075,Wed Mar 12 2025 12:30:31 GMT-0500 (Central Daylight Time),667385.200000003,A,bookenter,O,enter,967,1,2748.7000000029802,664636.5,7079,WL,A,1.0
4,3.2160000801086426,learn,56783.99991989136,Wed Mar 12 2025 12:30:31 GMT-0500 (Central Daylight Time),667852.200000003,A,f,O,f,452,1,466.79999999701977,667385.400000006,7079,WL,A,2.0
4,3.4159998893737793,learn,56584.00011062622,Wed Mar 12 2025 12:30:31 GMT-0500 (Central Daylight Time),668051.5,A,fl,O,l,191,1,666.0999999940395,667385.400000006,7079,WL,A,2.0
4,3.6500000953674316,learn,56349.99990463257,Wed Mar 12 2025 12:30:31 GMT-0500 (Central Daylight Time),668285.5,A,flo,O,o,210,1,900.0999999940395,667385.400000006,7079,WL,A,2.0
4,3.816999912261963,learn,56183.00008773804,Wed Mar 12 2025 12:30:31 GMT-0500 (Central Daylight Time),668453.3000000119,A,flow,O,w,162,1,1067.9000000059605,667385.400000006,7079,WL,A,2.0
4,4.016999959945679,learn,55983.00004005432,Wed Mar 12 2025 12:30:31 GMT-0500 (Central Daylight Time),668652.5,A,flowe,O,e,190,1,1267.0999999940395,667385.400000006,7079,WL,A,2.0
4,4.2820000648498535,learn,55717.99993515015,Wed Mar 12 2025 12:30:31 GMT-0500 (Central Daylight Time),668918.0,A,flower,O,r,253,1,1532.5999999940395,667385.400000006,7079,WL,A,2.0
4,4.58299994468689,learn,55417.00005531311,Wed Mar 12 2025 12:30:31 GMT-0500 (Central Daylight Time),669218.6000000089,A,flowerenter,O,enter,297,1,1833.2000000029802,667385.400000006,7079,WL,A,2.0
4,5.549000024795532,learn,54450.99997520447,Wed Mar 12 2025 12:30:31 GMT-0500 (Central Daylight Time),670184.6000000089,A,s,O,s,953,1,965.7000000029802,669218.900000006,7079,WL,A,3.0
4,5.766000032424927,learn,54233.99996757507,Wed Mar 12 2025 12:30:31 GMT-0500 (Central Daylight Time),670401.900000006,A,sa,O,a,211,1,1183.0,669218.900000006,7079,WL,A,3.0
4,5.9649999141693115,learn,54035.00008583069,Wed Mar 12 2025 12:30:31 GMT-0500 (Central Daylight Time),670601.1000000089,A,sal,O,l,176,1,1382.2000000029802,669218.900000006,7079,WL,A,3.0
4,6.3480000495910645,learn,53651.999950408936,Wed Mar 12 2025 12:30:31 GMT-0500 (Central Daylight Time),670984.3000000119,A,saly,O,y,360,1,1765.4000000059605,669218.900000006,7079,WL,A,3.0
4,6.813999891281128,learn,53186.00010871887,Wed Mar 12 2025 12:30:31 GMT-0500 (Central Daylight Time),671449.6000000089,A,sal,O,backspace,450,1,2230.7000000029802,669218.900000006,7079,WL,A,3.0
4,7.914000034332275,learn,52085.999965667725,Wed Mar 12 2025 12:30:31 GMT-0500 (Central Daylight Time),672549.400000006,A,salt,O,t,1091,1,3330.5,669218.900000006,7079,WL,A,3.0
4,8.114000082015991,learn,51885.99991798401,Wed Mar 12 2025 12:30:31 GMT-0500 (Central Daylight Time),672749.6000000089,A,saltenter,O,enter,181,1,3530.7000000029802,669218.900000006,7079,WL,A,3.0
4,9.164999961853027,learn,50835.00003814697,Wed Mar 12 2025 12:30:31 GMT-0500 (Central Daylight Time),673800.400000006,A,n,O,n,1039,1,1050.5,672749.900000006,7079,WL,A,4.0
4,9.583999872207642,learn,50416.00012779236,Wed Mar 12 2025 12:30:31 GMT-0500 (Central Daylight Time),674219.900000006,A,,O,backspace,402,1,1470.0,672749.900000006,7079,WL,A,4.0
4,10.54800009727478,learn,49451.99990272522,Wed Mar 12 2025 12:30:31 GMT-0500 (Central Daylight Time),675183.5,A,m,O,m,946,1,2433.5999999940395,672749.900000006,7079,WL,A,4.0
4,10.730000019073486,learn,49269.999980926514,Wed Mar 12 2025 12:30:31 GMT-0500 (Central Daylight Time),675366.0,A,me,O,e,164,1,2616.0999999940395,672749.900000006,7079,WL,A,4.0
4,11.147000074386597,learn,48852.9999256134,Wed Mar 12 2025 12:30:31 GMT-0500 (Central Daylight Time),675782.6000000089,A,mea,O,a,397,1,3032.7000000029802,672749.900000006,7079,WL,A,4.0
4,11.463000059127808,learn,48536.99994087219,Wed Mar 12 2025 12:30:31 GMT-0500 (Central Daylight Time),676099.1000000089,A,mead,O,d,309,1,3349.2000000029802,672749.900000006,7079,WL,A,4.0
4,11.865000009536743,learn,48134.99999046326,Wed Mar 12 2025 12:30:31 GMT-0500 (Central Daylight Time),676500.6000000089,A,meado,O,o,383,1,3750.7000000029802,672749.900000006,7079,WL,A,4.0
4,12.062999963760376,learn,47937.000036239624,Wed Mar 12 2025 12:30:31 GMT-0500 (Central Daylight Time),676699.200000003,A,meadow,O,w,176,1,3949.2999999970198,672749.900000006,7079,WL,A,4.0
4,12.378999948501587,learn,47621.00005149841,Wed Mar 12 2025 12:30:31 GMT-0500 (Central Daylight Time),677014.900000006,A,meadowenter,O,enter,297,1,4265.0,672749.900000006,7079,WL,A,4.0
4,13.145999908447266,learn,46854.000091552734,Wed Mar 12 2025 12:30:31 GMT-0500 (Central Daylight Time),677781.700000003,A,r,O,r,757,1,766.3999999910593,677015.3000000119,7079,WL,A,5.0
4,13.36299991607666,learn,46637.00008392334,Wed Mar 12 2025 12:30:31 GMT-0500 (Central Daylight Time),677998.5,A,ru,O,u,206,1,983.1999999880791,677015.3000000119,7079,WL,A,5.0
4,13.629999876022339,learn,46370.00012397766,Wed Mar 12 2025 12:30:31 GMT-0500 (Central Daylight Time),678266.3000000119,A,rug,O,g,252,1,1251.0,677015.3000000119,7079,WL,A,5.0
4,14.111999988555908,learn,45888.00001144409,Wed Mar 12 2025 12:30:31 GMT-0500 (Central Daylight Time),678748.0,A,rugenter,O,enter,464,1,1732.699999988079,677015.3000000119,7079,WL,A,5.0
4,14.664000034332275,learn,45335.999965667725,Wed Mar 12 2025 12:30:31 GMT-0500 (Central Daylight Time),679299.5,A,a,O,a,546,1,551.2999999970198,678748.200000003,7079,WL,A,6.0
4,15.161999940872192,learn,44838.00005912781,Wed Mar 12 2025 12:30:31 GMT-0500 (Central Daylight Time),679798.0,A,ap,O,p,489,1,1049.7999999970198,678748.200000003,7079,WL,A,6.0
4,15.361999988555908,learn,44638.00001144409,Wed Mar 12 2025 12:30:31 GMT-0500 (Central Daylight Time),679997.5,A,app,O,p,190,1,1249.2999999970198,678748.200000003,7079,WL,A,6.0
4,15.611999988555908,learn,44388.00001144409,Wed Mar 12 2025 12:30:31 GMT-0500 (Central Daylight Time),680247.900000006,A,appl,O,l,236,1,1499.7000000029802,678748.200000003,7079,WL,A,6.0
4,15.878999948501587,learn,44121.00005149841,Wed Mar 12 2025 12:30:31 GMT-0500 (Central Daylight Time),680515.1000000089,A,applo,O,o,244,1,1766.9000000059605,678748.200000003,7079,WL,A,6.0
4,16.763000011444092,learn,43236.99998855591,Wed Mar 12 2025 12:30:31 GMT-0500 (Central Daylight Time),681399.200000003,A,appl,O,backspace,864,1,2651.0,678748.200000003,7079,WL,A,6.0
4,17.145999908447266,learn,42854.000091552734,Wed Mar 12 2025 12:30:31 GMT-0500 (Central Daylight Time),681781.400000006,A,apple,O,e,359,1,3033.2000000029802,678748.200000003,7079,WL,A,6.0
4,17.562000036239624,learn,42437.999963760376,Wed Mar 12 2025 12:30:31 GMT-0500 (Central Daylight Time),682197.6000000089,A,appleenter,O,enter,404,1,3449.4000000059605,678748.200000003,7079,WL,A,6.0
4,18.84500002861023,learn,41154.99997138977,Wed Mar 12 2025 12:30:31 GMT-0500 (Central Daylight Time),683480.900000006,A,h,O,h,1270,1,1283.0,682197.900000006,7079,WL,A,7.0
4,18.977999925613403,learn,41022.0000743866,Wed Mar 12 2025 12:30:31 GMT-0500 (Central Daylight Time),683613.6000000089,A,ha,O,a,123,1,1415.7000000029802,682197.900000006,7079,WL,A,7.0
4,19.344000101089478,learn,40655.99989891052,Wed Mar 12 2025 12:30:31 GMT-0500 (Central Daylight Time),683979.8000000119,A,har,O,r,352,1,1781.9000000059605,682197.900000006,7079,WL,A,7.0
4,19.64299988746643,learn,40357.00011253357,Wed Mar 12 2025 12:30:31 GMT-0500 (Central Daylight Time),684279.0,A,harp,O,p,288,1,2081.0999999940395,682197.900000006,7079,WL,A,7.0
4,20.22699999809265,learn,39773.00000190735,Wed Mar 12 2025 12:30:31 GMT-0500 (Central Daylight Time),684863.1000000089,A,harpenter,O,enter,565,1,2665.2000000029802,682197.900000006,7079,WL,A,7.0
4,21.310999870300293,learn,38689.00012969971,Wed Mar 12 2025 12:30:31 GMT-0500 (Central Daylight Time),685947.3000000119,A,a,O,a,1062,1,1083.9000000059605,684863.400000006,7079,WL,A,8.0
4,21.594000101089478,learn,38405.99989891052,Wed Mar 12 2025 12:30:31 GMT-0500 (Central Daylight Time),686230.200000003,A,ap,O,p,265,1,1366.7999999970198,684863.400000006,7079,WL,A,8.0
4,21.825999975204468,learn,38174.00002479553,Wed Mar 12 2025 12:30:31 GMT-0500 (Central Daylight Time),686462.1000000089,A,app,O,p,213,1,1598.7000000029802,684863.400000006,7079,WL,A,8.0
4,22.07699990272522,learn,37923.00009727478,Wed Mar 12 2025 12:30:31 GMT-0500 (Central Daylight Time),686712.900000006,A,appl,O,l,238,1,1849.5,684863.400000006,7079,WL,A,8.0
4,22.39299988746643,learn,37607.00011253357,Wed Mar 12 2025 12:30:31 GMT-0500 (Central Daylight Time),687028.6000000089,A,apple,O,e,300,1,2165.2000000029802,684863.400000006,7079,WL,A,8.0
4,23.092999935150146,learn,36907.00006484985,Wed Mar 12 2025 12:30:31 GMT-0500 (Central Daylight Time),687729.0,A,appleenter,O,enter,678,1,2865.5999999940395,684863.400000006,7079,WL,A,8.0
4,24.04200005531311,learn,35957.99994468689,Wed Mar 12 2025 12:30:31 GMT-0500 (Central Daylight Time),688678.1000000089,A,s,O,s,931,1,948.7999999970198,687729.3000000119,7079,WL,A,9.0
4,24.30999994277954,learn,35690.00005722046,Wed Mar 12 2025 12:30:31 GMT-0500 (Central Daylight Time),688945.900000006,A,sa,O,a,255,1,1216.5999999940395,687729.3000000119,7079,WL,A,9.0
4,24.507999897003174,learn,35492.000102996826,Wed Mar 12 2025 12:30:31 GMT-0500 (Central Daylight Time),689144.3000000119,A,sal,O,l,177,1,1415.0,687729.3000000119,7079,WL,A,9.0
4,24.776000022888184,learn,35223.99997711182,Wed Mar 12 2025 12:30:31 GMT-0500 (Central Daylight Time),689411.8000000119,A,salt,O,t,250,1,1682.5,687729.3000000119,7079,WL,A,9.0
4,25.02500009536743,learn,34974.99990463257,Wed Mar 12 2025 12:30:31 GMT-0500 (Central Daylight Time),689661.0,A,saltenter,O,enter,232,1,1931.699999988079,687729.3000000119,7079,WL,A,9.0
4,27.79200005531311,learn,32207.99994468689,Wed Mar 12 2025 12:30:31 GMT-0500 (Central Daylight Time),692427.700000003,A,n,O,n,2750,1,2766.3999999910593,689661.3000000119,7079,WL,A,10.0
4,28.20899987220764,learn,31791.00012779236,Wed Mar 12 2025 12:30:31 GMT-0500 (Central Daylight Time),692844.6000000089,A,,O,backspace,399,1,3183.2999999970198,689661.3000000119,7079,WL,A,10.0
4,28.60699987411499,learn,31393.00012588501,Wed Mar 12 2025 12:30:31 GMT-0500 (Central Daylight Time),693243.3000000119,A,m,O,m,384,1,3582.0,689661.3000000119,7079,WL,A,10.0
4,28.77500009536743,learn,31224.99990463257,Wed Mar 12 2025 12:30:31 GMT-0500 (Central Daylight Time),693411.0,A,me,O,e,146,1,3749.699999988079,689661.3000000119,7079,WL,A,10.0
4,29.256999969482422,learn,30743.000030517578,Wed Mar 12 2025 12:30:31 GMT-0500 (Central Daylight Time),693893.200000003,A,mea,O,a,463,1,4231.899999991059,689661.3000000119,7079,WL,A,10.0
4,29.740999937057495,learn,30259.000062942505,Wed Mar 12 2025 12:30:31 GMT-0500 (Central Daylight Time),694377.1000000089,A,mead,O,d,462,1,4715.79999999702,689661.3000000119,7079,WL,A,10.0
4,30.072999954223633,learn,29927.000045776367,Wed Mar 12 2025 12:30:31 GMT-0500 (Central Daylight Time),694709.1000000089,A,meado,O,o,322,1,5047.79999999702,689661.3000000119,7079,WL,A,10.0
4,30.29099988937378,learn,29709.00011062622,Wed Mar 12 2025 12:30:31 GMT-0500 (Central Daylight Time),694927.1000000089,A,meadow,O,w,205,1,5265.79999999702,689661.3000000119,7079,WL,A,10.0
4,30.60699987411499,learn,29393.00012588501,Wed Mar 12 2025 12:30:31 GMT-0500 (Central Daylight Time),695242.900000006,A,meadowenter,O,enter,297,1,5581.5999999940395,689661.3000000119,7079,WL,A,10.0
4,33.16000008583069,learn,26839.99991416931,Wed Mar 12 2025 12:30:31 GMT-0500 (Central Daylight Time),697795.400000006,A,b,O,b,2546,1,2552.2000000029802,695243.200000003,7079,WL,A,11.0
4,33.723000049591064,learn,26276.999950408936,Wed Mar 12 2025 12:30:31 GMT-0500 (Central Daylight Time),698359.0,A,bo,O,o,546,1,3115.7999999970198,695243.200000003,7079,WL,A,11.0
4,33.92400002479553,learn,26075.999975204468,Wed Mar 12 2025 12:30:31 GMT-0500 (Central Daylight Time),698559.400000006,A,boo,O,o,179,1,3316.2000000029802,695243.200000003,7079,WL,A,11.0
4,34.139999866485596,learn,25860.000133514404,Wed Mar 12 2025 12:30:31 GMT-0500 (Central Daylight Time),698775.900000006,A,book,O,k,196,1,3532.7000000029802,695243.200000003,7079,WL,A,11.0
4,34.555999994277954,learn,25444.000005722046,Wed Mar 12 2025 12:30:31 GMT-0500 (Central Daylight Time),699191.700000003,A,bookenter,O,enter,395,1,3948.5,695243.200000003,7079,WL,A,11.0
4,35.37299990653992,learn,24627.000093460083,Wed Mar 12 2025 12:30:31 GMT-0500 (Central Daylight Time),700008.6000000089,A,f,O,f,805,1,816.7000000029802,699191.900000006,7079,WL,A,12.0
4,35.58899998664856,learn,24411.00001335144,Wed Mar 12 2025 12:30:31 GMT-0500 (Central Daylight Time),700225.1000000089,A,fl,O,l,193,1,1033.2000000029802,699191.900000006,7079,WL,A,12.0
4,35.85599994659424,learn,24144.00005340576,Wed Mar 12 2025 12:30:31 GMT-0500 (Central Daylight Time),700491.6000000089,A,flo,O,o,248,1,1299.7000000029802,699191.900000006,7079,WL,A,12.0
4,36.00699996948242,learn,23993.000030517578,Wed Mar 12 2025 12:30:31 GMT-0500 (Central Daylight Time),700642.900000006,A,flow,O,w,144,1,1451.0,699191.900000006,7079,WL,A,12.0
4,36.206000089645386,learn,23793.999910354614,Wed Mar 12 2025 12:30:31 GMT-0500 (Central Daylight Time),700841.5,A,flowe,O,e,192,1,1649.5999999940395,699191.900000006,7079,WL,A,12.0
4,36.454999923706055,learn,23545.000076293945,Wed Mar 12 2025 12:30:31 GMT-0500 (Central Daylight Time),701091.200000003,A,flower,O,r,241,1,1899.2999999970198,699191.900000006,7079,WL,A,12.0
4,36.83899998664856,learn,23161.00001335144,Wed Mar 12 2025 12:30:31 GMT-0500 (Central Daylight Time),701475.1000000089,A,flowerenter,O,enter,369,1,2283.2000000029802,699191.900000006,7079,WL,A,12.0
4,38.204999923706055,learn,21795.000076293945,Wed Mar 12 2025 12:30:31 GMT-0500 (Central Daylight Time),702840.900000006,A,t,O,t,1343,1,1365.5999999940395,701475.3000000119,7079,WL,A,13.0
4,38.40499997138977,learn,21595.00002861023,Wed Mar 12 2025 12:30:31 GMT-0500 (Central Daylight Time),703041.0,A,tr,O,r,188,1,1565.699999988079,701475.3000000119,7079,WL,A,13.0
4,38.85599994659424,learn,21144.00005340576,Wed Mar 12 2025 12:30:31 GMT-0500 (Central Daylight Time),703491.900000006,A,tra,O,a,447,1,2016.5999999940395,701475.3000000119,7079,WL,A,13.0
4,39.0550000667572,learn,20944.999933242798,Wed Mar 12 2025 12:30:31 GMT-0500 (Central Daylight Time),703691.3000000119,A,trai,O,i,184,1,2216.0,701475.3000000119,7079,WL,A,13.0
4,39.38800001144409,learn,20611.99998855591,Wed Mar 12 2025 12:30:31 GMT-0500 (Central Daylight Time),704023.3000000119,A,train,O,n,314,1,2548.0,701475.3000000119,7079,WL,A,13.0
4,40.11999988555908,learn,19880.000114440918,Wed Mar 12 2025 12:30:31 GMT-0500 (Central Daylight Time),704756.1000000089,A,trainenter,O,enter,716,1,3280.7999999970198,701475.3000000119,7079,WL,A,13.0
4,42.53600001335144,learn,17463.99998664856,Wed Mar 12 2025 12:30:31 GMT-0500 (Central Daylight Time),707172.1000000089,A,r,O,r,2400,1,2415.7999999970198,704756.3000000119,7079,WL,A,14.0
4,42.736000061035156,learn,17263.999938964844,Wed Mar 12 2025 12:30:31 GMT-0500 (Central Daylight Time),707372.0,A,ru,O,u,184,1,2615.699999988079,704756.3000000119,7079,WL,A,14.0
4,42.98699998855591,learn,17013.00001144409,Wed Mar 12 2025 12:30:31 GMT-0500 (Central Daylight Time),707622.700000003,A,rug,O,g,231,1,2866.3999999910593,704756.3000000119,7079,WL,A,14.0
4,43.46900010108948,learn,16530.999898910522,Wed Mar 12 2025 12:30:31 GMT-0500 (Central Daylight Time),708104.900000006,A,rugenter,O,enter,467,1,3348.5999999940395,704756.3000000119,7079,WL,A,14.0
4,50.26799988746643,learn,9732.00011253357,Wed Mar 12 2025 12:30:31 GMT-0500 (Central Daylight Time),714904.1000000089,A,f,O,f,6788,1,6799.0,708105.1000000089,7079,WL,A,15.0
4,50.450000047683716,learn,9549.999952316284,Wed Mar 12 2025 12:30:31 GMT-0500 (Central Daylight Time),715086.0,A,fi,O,i,164,1,6980.899999991059,708105.1000000089,7079,WL,A,15.0
4,50.98399996757507,learn,9016.000032424927,Wed Mar 12 2025 12:30:31 GMT-0500 (Central Daylight Time),715620.700000003,A,fin,O,n,515,1,7515.5999999940395,708105.1000000089,7079,WL,A,15.0
4,51.25099992752075,learn,8749.000072479248,Wed Mar 12 2025 12:30:31 GMT-0500 (Central Daylight Time),715887.0,A,fing,O,g,254,1,7781.899999991059,708105.1000000089,7079,WL,A,15.0
4,51.41700005531311,learn,8582.99994468689,Wed Mar 12 2025 12:30:31 GMT-0500 (Central Daylight Time),716053.5,A,finge,O,e,150,1,7948.399999991059,708105.1000000089,7079,WL,A,15.0
4,51.615999937057495,learn,8384.000062942505,Wed Mar 12 2025 12:30:31 GMT-0500 (Central Daylight Time),716252.700000003,A,finger,O,r,191,1,8147.5999999940395,708105.1000000089,7079,WL,A,15.0
4,51.83200001716614,learn,8167.999982833862,Wed Mar 12 2025 12:30:31 GMT-0500 (Central Daylight Time),716468.700000003,A,fingerenter,O,enter,197,1,8363.59999999404,708105.1000000089,7079,WL,A,15.0
5,0.5329999923706055,learn,60000.0,Wed Mar 12 2025 12:30:31 GMT-0500 (Central Daylight Time),782016.3000000119,A,c,O,c,512,1,532.8000000119209,781483.5,7079,WL,A,1.0
5,0.8199999332427979,learn,60000.0,Wed Mar 12 2025 12:30:31 GMT-0500 (Central Daylight Time),782302.400000006,A,ch,O,h,278,1,818.9000000059605,781483.5,7079,WL,A,1.0
5,1.0490000247955322,learn,60000.0,Wed Mar 12 2025 12:30:31 GMT-0500 (Central Daylight Time),782531.700000003,A,chi,O,i,212,1,1048.2000000029802,781483.5,7079,WL,A,1.0
5,1.4479999542236328,learn,60000.0,Wed Mar 12 2025 12:30:31 GMT-0500 (Central Daylight Time),782931.1000000089,A,chin,O,n,384,1,1447.6000000089407,781483.5,7079,WL,A,1.0
5,1.9149999618530273,learn,60000.0,Wed Mar 12 2025 12:30:31 GMT-0500 (Central Daylight Time),783398.200000003,A,chi,O,backspace,447,1,1914.7000000029802,781483.5,7079,WL,A,1.0
5,2.2990000247955322,learn,60000.0,Wed Mar 12 2025 12:30:31 GMT-0500 (Central Daylight Time),783781.8000000119,A,chim,O,m,374,1,2298.300000011921,781483.5,7079,WL,A,1.0
5,2.5160000324249268,learn,60000.0,Wed Mar 12 2025 12:30:31 GMT-0500 (Central Daylight Time),783999.1000000089,A,chime,O,e,199,1,2515.6000000089407,781483.5,7079,WL,A,1.0
5,3.4820001125335693,learn,60000.0,Wed Mar 12 2025 12:30:31 GMT-0500 (Central Daylight Time),784965.1000000089,A,chim,O,backspace,961,1,3481.6000000089407,781483.5,7079,WL,A,1.0
5,4.398999929428101,learn,60000.0,Wed Mar 12 2025 12:30:31 GMT-0500 (Central Daylight Time),785882.3000000119,A,chimn,O,n,911,1,4398.800000011921,781483.5,7079,WL,A,1.0
5,4.615000009536743,learn,60000.0,Wed Mar 12 2025 12:30:31 GMT-0500 (Central Daylight Time),786098.3000000119,A,chimne,O,e,210,1,4614.800000011921,781483.5,7079,WL,A,1.0
5,5.015000104904175,learn,60000.0,Wed Mar 12 2025 12:30:31 GMT-0500 (Central Daylight Time),786497.900000006,A,chimney,O,y,385,1,5014.4000000059605,781483.5,7079,WL,A,1.0
5,5.848999977111816,learn,60000.0,Wed Mar 12 2025 12:30:31 GMT-0500 (Central Daylight Time),787332.0,A,chimneyenter,O,enter,818,1,5848.5,781483.5,7079,WL,A,1.0
5,6.895999908447266,learn,60000.0,Wed Mar 12 2025 12:30:31 GMT-0500 (Central Daylight Time),788379.3000000119,A,l,O,l,1032,1,1047.1000000089407,787332.200000003,7079,WL,A,2.0
5,7.130000114440918,learn,60000.0,Wed Mar 12 2025 12:30:31 GMT-0500 (Central Daylight Time),788612.8000000119,A,lo,O,o,225,1,1280.6000000089407,787332.200000003,7079,WL,A,2.0
5,7.430000066757202,learn,60000.0,Wed Mar 12 2025 12:30:31 GMT-0500 (Central Daylight Time),788913.0,A,log,O,g,288,1,1580.7999999970198,787332.200000003,7079,WL,A,2.0
5,8.02999997138977,learn,60000.0,Wed Mar 12 2025 12:30:31 GMT-0500 (Central Daylight Time),789512.400000006,A,logenter,O,enter,588,1,2180.2000000029802,787332.200000003,7079,WL,A,2.0
5,9.44700002670288,learn,60000.0,Wed Mar 12 2025 12:30:31 GMT-0500 (Central Daylight Time),790930.3000000119,A,r,O,r,1405,1,1417.6000000089407,789512.700000003,7079,WL,A,3.0
5,10.02999997138977,learn,60000.0,Wed Mar 12 2025 12:30:31 GMT-0500 (Central Daylight Time),791513.200000003,A,ra,O,a,561,1,2000.5,789512.700000003,7079,WL,A,3.0
5,10.27999997138977,learn,60000.0,Wed Mar 12 2025 12:30:31 GMT-0500 (Central Daylight Time),791762.8000000119,A,rat,O,t,241,1,2250.1000000089407,789512.700000003,7079,WL,A,3.0
5,10.480000019073486,learn,60000.0,Wed Mar 12 2025 12:30:31 GMT-0500 (Central Daylight Time),791963.1000000089,A,ratt,O,t,195,1,2450.4000000059605,789512.700000003,7079,WL,A,3.0
5,11.212000131607056,learn,60000.0,Wed Mar 12 2025 12:30:31 GMT-0500 (Central Daylight Time),792694.6000000089,A,rattl,O,l,712,1,3181.9000000059605,789512.700000003,7079,WL,A,3.0
5,11.430999994277954,learn,60000.0,Wed Mar 12 2025 12:30:31 GMT-0500 (Central Daylight Time),792913.700000003,A,rattle,O,e,213,1,3401.0,789512.700000003,7079,WL,A,3.0
5,11.661999940872192,learn,60000.0,Wed Mar 12 2025 12:30:31 GMT-0500 (Central Daylight Time),793144.900000006,A,rattleenter,O,enter,217,1,3632.2000000029802,789512.700000003,7079,WL,A,3.0
5,12.562000036239624,learn,60000.0,Wed Mar 12 2025 12:30:31 GMT-0500 (Central Daylight Time),794045.0,A,k,O,k,892,1,899.8999999910593,793145.1000000089,7079,WL,A,4.0
5,12.796000003814697,learn,60000.0,Wed Mar 12 2025 12:30:31 GMT-0500 (Central Daylight Time),794278.700000003,A,ke,O,e,222,1,1133.5999999940395,793145.1000000089,7079,WL,A,4.0
5,13.095999956130981,learn,60000.0,Wed Mar 12 2025 12:30:31 GMT-0500 (Central Daylight Time),794578.6000000089,A,key,O,y,286,1,1433.5,793145.1000000089,7079,WL,A,4.0
5,13.660000085830688,learn,60000.0,Wed Mar 12 2025 12:30:31 GMT-0500 (Central Daylight Time),795142.6000000089,A,keyenter,O,enter,543,1,1997.5,793145.1000000089,7079,WL,A,4.0
5,14.71399998664856,learn,60000.0,Wed Mar 12 2025 12:30:31 GMT-0500 (Central Daylight Time),796196.900000006,A,a,O,a,1031,1,1054.0999999940395,795142.8000000119,7079,WL,A,5.0
5,15.161999940872192,learn,60000.0,Wed Mar 12 2025 12:30:31 GMT-0500 (Central Daylight Time),796644.6000000089,A,ap,O,p,435,1,1501.7999999970198,795142.8000000119,7079,WL,A,5.0
5,15.344000101089478,learn,60000.0,Wed Mar 12 2025 12:30:31 GMT-0500 (Central Daylight Time),796827.400000006,A,app,O,p,174,1,1684.5999999940395,795142.8000000119,7079,WL,A,5.0
5,15.577000141143799,learn,60000.0,Wed Mar 12 2025 12:30:31 GMT-0500 (Central Daylight Time),797060.1000000089,A,appl,O,l,221,1,1917.2999999970198,795142.8000000119,7079,WL,A,5.0
5,15.778000116348267,learn,60000.0,Wed Mar 12 2025 12:30:31 GMT-0500 (Central Daylight Time),797260.6000000089,A,apple,O,e,191,1,2117.7999999970198,795142.8000000119,7079,WL,A,5.0
5,16.0770001411438,learn,60000.0,Wed Mar 12 2025 12:30:31 GMT-0500 (Central Daylight Time),797560.200000003,A,appleenter,O,enter,276,1,2417.3999999910593,795142.8000000119,7079,WL,A,5.0
5,16.793999910354614,learn,60000.0,Wed Mar 12 2025 12:30:31 GMT-0500 (Central Daylight Time),798276.700000003,A,f,O,f,708,1,716.2000000029802,797560.5,7079,WL,A,6.0
5,16.99500012397766,learn,60000.0,Wed Mar 12 2025 12:30:31 GMT-0500 (Central Daylight Time),798477.700000003,A,fi,O,i,180,1,917.2000000029802,797560.5,7079,WL,A,6.0
5,17.26099991798401,learn,60000.0,Wed Mar 12 2025 12:30:31 GMT-0500 (Central Daylight Time),798743.5,A,fib,O,b,242,1,1183.0,797560.5,7079,WL,A,6.0
5,17.72699999809265,learn,60000.0,Wed Mar 12 2025 12:30:31 GMT-0500 (Central Daylight Time),799209.900000006,A,fi,O,backspace,457,1,1649.4000000059605,797560.5,7079,WL,A,6.0
5,18.49399995803833,learn,60000.0,Wed Mar 12 2025 12:30:31 GMT-0500 (Central Daylight Time),799976.900000006,A,fin,O,n,749,1,2416.4000000059605,797560.5,7079,WL,A,6.0
5,18.878000020980835,learn,60000.0,Wed Mar 12 2025 12:30:31 GMT-0500 (Central Daylight Time),800360.5,A,fing,O,g,368,1,2800.0,797560.5,7079,WL,A,6.0
5,19.0770001411438,learn,60000.0,Wed Mar 12 2025 12:30:31 GMT-0500 (Central Daylight Time),800560.0,A,finge,O,e,182,1,2999.5,797560.5,7079,WL,A,6.0
5,19.295000076293945,learn,60000.0,Wed Mar 12 2025 12:30:31 GMT-0500 (Central Daylight Time),800778.1000000089,A,finger,O,r,192,1,3217.6000000089407,797560.5,7079,WL,A,6.0
5,19.66000008583069,learn,60000.0,Wed Mar 12 2025 12:30:31 GMT-0500 (Central Daylight Time),801143.200000003,A,fingerenter,O,enter,344,1,3582.7000000029802,797560.5,7079,WL,A,6.0
5,20.39199995994568,learn,60000.0,Wed Mar 12 2025 12:30:31 GMT-0500 (Central Daylight Time),801875.3000000119,A,t,O,t,718,1,731.9000000059605,801143.400000006,7079,WL,A,7.0
5,20.57800006866455,learn,60000.0,Wed Mar 12 2025 12:30:31 GMT-0500 (Central Daylight Time),802060.5,A,tr,O,r,175,1,917.0999999940395,801143.400000006,7079,WL,A,7.0
5,20.992000102996826,learn,60000.0,Wed Mar 12 2025 12:30:31 GMT-0500 (Central Daylight Time),802475.3000000119,A,tra,O,a,406,1,1331.9000000059605,801143.400000006,7079,WL,A,7.0
5,21.22699999809265,learn,60000.0,Wed Mar 12 2025 12:30:31 GMT-0500 (Central Daylight Time),802710.0,A,trai,O,i,211,1,1566.5999999940395,801143.400000006,7079,WL,A,7.0
5,21.543999910354614,learn,60000.0,Wed Mar 12 2025 12:30:31 GMT-0500 (Central Daylight Time),803027.200000003,A,train,O,n,292,1,1883.7999999970198,801143.400000006,7079,WL,A,7.0
5,22.193000078201294,learn,60000.0,Wed Mar 12 2025 12:30:31 GMT-0500 (Central Daylight Time),803675.6000000089,A,trainenter,O,enter,641,1,2532.2000000029802,801143.400000006,7079,WL,A,7.0
5,23.042999982833862,learn,60000.0,Wed Mar 12 2025 12:30:31 GMT-0500 (Central Daylight Time),804525.700000003,A,h,O,h,832,1,849.8999999910593,803675.8000000119,7079,WL,A,8.0
5,23.2260000705719,learn,60000.0,Wed Mar 12 2025 12:30:31 GMT-0500 (Central Daylight Time),804708.400000006,A,ha,O,a,166,1,1032.5999999940395,803675.8000000119,7079,WL,A,8.0
5,23.55900001525879,learn,60000.0,Wed Mar 12 2025 12:30:31 GMT-0500 (Central Daylight Time),805041.5,A,har,O,r,318,1,1365.699999988079,803675.8000000119,7079,WL,A,8.0
5,23.842000007629395,learn,60000.0,Wed Mar 12 2025 12:30:31 GMT-0500 (Central Daylight Time),805325.1000000089,A,harp,O,p,273,1,1649.2999999970198,803675.8000000119,7079,WL,A,8.0
5,24.14300012588501,learn,60000.0,Wed Mar 12 2025 12:30:31 GMT-0500 (Central Daylight Time),805626.200000003,A,harpenter,O,enter,290,1,1950.3999999910593,803675.8000000119,7079,WL,A,8.0
5,24.776000022888184,learn,60000.0,Wed Mar 12 2025 12:30:31 GMT-0500 (Central Daylight Time),806259.3000000119,A,b,O,b,628,1,632.8000000119209,805626.5,7079,WL,A,9.0
5,25.32800006866455,learn,60000.0,Wed Mar 12 2025 12:30:31 GMT-0500 (Central Daylight Time),806810.700000003,A,bo,O,o,543,1,1184.2000000029802,805626.5,7079,WL,A,9.0
5,25.52500009536743,learn,60000.0,Wed Mar 12 2025 12:30:31 GMT-0500 (Central Daylight Time),807007.900000006,A,boo,O,o,174,1,1381.4000000059605,805626.5,7079,WL,A,9.0
5,25.759999990463257,learn,60000.0,Wed Mar 12 2025 12:30:31 GMT-0500 (Central Daylight Time),807242.400000006,A,book,O,k,215,1,1615.9000000059605,805626.5,7079,WL,A,9.0
5,26.35800004005432,learn,60000.0,Wed Mar 12 2025 12:30:31 GMT-0500 (Central Daylight Time),807840.8000000119,A,bookenter,O,enter,585,1,2214.300000011921,805626.5,7079,WL,A,9.0
5,27.776000022888184,learn,60000.0,Wed Mar 12 2025 12:30:31 GMT-0500 (Central Daylight Time),809258.6000000089,A,l,O,l,1395,1,1417.6000000089407,807841.0,7079,WL,A,10.0
5,27.973000049591064,learn,60000.0,Wed Mar 12 2025 12:30:31 GMT-0500 (Central Daylight Time),809455.900000006,A,lo,O,o,180,1,1614.9000000059605,807841.0,7079,WL,A,10.0
5,28.325000047683716,learn,60000.0,Wed Mar 12 2025 12:30:31 GMT-0500 (Central Daylight Time),809808.1000000089,A,log,O,g,327,1,1967.1000000089407,807841.0,7079,WL,A,10.0
5,28.539999961853027,learn,60000.0,Wed Mar 12 2025 12:30:31 GMT-0500 (Central Daylight Time),810023.400000006,A,logenter,O,enter,205,1,2182.4000000059605,807841.0,7079,WL,A,10.0
5,29.424000024795532,learn,60000.0,Wed Mar 12 2025 12:30:31 GMT-0500 (Central Daylight Time),810906.400000006,A,r,O,r,878,1,882.9000000059605,810023.5,7079,WL,A,11.0
5,29.69099998474121,learn,60000.0,Wed Mar 12 2025 12:30:31 GMT-0500 (Central Daylight Time),811173.6000000089,A,ru,O,u,247,1,1150.1000000089407,810023.5,7079,WL,A,11.0
5,30.006999969482422,learn,60000.0,Wed Mar 12 2025 12:30:31 GMT-0500 (Central Daylight Time),811490.3000000119,A,rug,O,g,309,1,1466.800000011921,810023.5,7079,WL,A,11.0
5,30.375,learn,60000.0,Wed Mar 12 2025 12:30:31 GMT-0500 (Central Daylight Time),811858.200000003,A,rugenter,O,enter,358,1,1834.7000000029802,810023.5,7079,WL,A,11.0
5,31.058000087738037,learn,60000.0,Wed Mar 12 2025 12:30:31 GMT-0500 (Central Daylight Time),812540.400000006,A,t,O,t,676,1,681.7999999970198,811858.6000000089,7079,WL,A,12.0
5,31.391000032424927,learn,60000.0,Wed Mar 12 2025 12:30:31 GMT-0500 (Central Daylight Time),812874.0,A,tr,O,r,328,1,1015.3999999910593,811858.6000000089,7079,WL,A,12.0
5,31.625,learn,60000.0,Wed Mar 12 2025 12:30:31 GMT-0500 (Central Daylight Time),813107.5,A,tra,O,a,219,1,1248.8999999910593,811858.6000000089,7079,WL,A,12.0
5,31.924000024795532,learn,60000.0,Wed Mar 12 2025 12:30:31 GMT-0500 (Central Daylight Time),813406.5,A,trai,O,i,289,1,1547.8999999910593,811858.6000000089,7079,WL,A,12.0
5,32.240999937057495,learn,60000.0,Wed Mar 12 2025 12:30:31 GMT-0500 (Central Daylight Time),813723.3000000119,A,train,O,n,311,1,1864.7000000029802,811858.6000000089,7079,WL,A,12.0
5,32.37400007247925,learn,60000.0,Wed Mar 12 2025 12:30:31 GMT-0500 (Central Daylight Time),813857.3000000119,A,trainn,O,n,111,1,1998.7000000029802,811858.6000000089,7079,WL,A,12.0
5,33.305999994277954,learn,60000.0,Wed Mar 12 2025 12:30:31 GMT-0500 (Central Daylight Time),814788.700000003,A,train,O,backspace,911,1,2930.0999999940395,811858.6000000089,7079,WL,A,12.0
5,33.954999923706055,learn,60000.0,Wed Mar 12 2025 12:30:31 GMT-0500 (Central Daylight Time),815437.3000000119,A,trainenter,O,enter,628,1,3578.7000000029802,811858.6000000089,7079,WL,A,12.0
5,34.805999994277954,learn,60000.0,Wed Mar 12 2025 12:30:31 GMT-0500 (Central Daylight Time),816288.400000006,A,a,O,a,831,1,850.7999999970198,815437.6000000089,7079,WL,A,13.0
5,35.121999979019165,learn,60000.0,Wed Mar 12 2025 12:30:31 GMT-0500 (Central Daylight Time),816605.1000000089,A,ap,O,p,306,1,1167.5,815437.6000000089,7079,WL,A,13.0
5,35.30400013923645,learn,60000.0,Wed Mar 12 2025 12:30:31 GMT-0500 (Central Daylight Time),816787.200000003,A,app,O,p,174,1,1349.5999999940395,815437.6000000089,7079,WL,A,13.0
5,35.555999994277954,learn,60000.0,Wed Mar 12 2025 12:30:31 GMT-0500 (Central Daylight Time),817038.900000006,A,appl,O,l,229,1,1601.2999999970198,815437.6000000089,7079,WL,A,13.0
5,35.94000005722046,learn,60000.0,Wed Mar 12 2025 12:30:31 GMT-0500 (Central Daylight Time),817422.6000000089,A,apple,O,e,358,1,1985.0,815437.6000000089,7079,WL,A,13.0
5,36.38800001144409,learn,60000.0,Wed Mar 12 2025 12:30:31 GMT-0500 (Central Daylight Time),817871.3000000119,A,appleenter,O,enter,430,1,2433.7000000029802,815437.6000000089,7079,WL,A,13.0
5,38.753000020980835,learn,60000.0,Wed Mar 12 2025 12:30:31 GMT-0500 (Central Daylight Time),820235.8000000119,A,b,O,b,2349,1,2364.300000011921,817871.5,7079,WL,A,14.0
5,39.25500011444092,learn,60000.0,Wed Mar 12 2025 12:30:31 GMT-0500 (Central Daylight Time),820737.5,A,bo,O,o,480,1,2866.0,817871.5,7079,WL,A,14.0
5,39.437999963760376,learn,60000.0,Wed Mar 12 2025 12:30:31 GMT-0500 (Central Daylight Time),820920.700000003,A,boo,O,o,155,1,3049.2000000029802,817871.5,7079,WL,A,14.0
5,39.63700008392334,learn,60000.0,Wed Mar 12 2025 12:30:31 GMT-0500 (Central Daylight Time),821120.1000000089,A,book,O,k,186,1,3248.6000000089407,817871.5,7079,WL,A,14.0
5,40.13599991798401,learn,60000.0,Wed Mar 12 2025 12:30:31 GMT-0500 (Central Daylight Time),821618.900000006,A,bookenter,O,enter,481,1,3747.4000000059605,817871.5,7079,WL,A,14.0
5,43.76900005340576,learn,60000.0,Wed Mar 12 2025 12:30:31 GMT-0500 (Central Daylight Time),825251.900000006,A,r,O,r,3618,1,3632.7000000029802,821619.200000003,7079,WL,A,15.0
5,44.1029999256134,learn,60000.0,Wed Mar 12 2025 12:30:31 GMT-0500 (Central Daylight Time),825586.3000000119,A,ra,O,a,311,1,3967.1000000089407,821619.200000003,7079,WL,A,15.0
5,44.319000005722046,learn,60000.0,Wed Mar 12 2025 12:30:31 GMT-0500 (Central Daylight Time),825802.3000000119,A,rat,O,t,194,1,4183.100000008941,821619.200000003,7079,WL,A,15.0
5,44.50200009346008,learn,60000.0,Wed Mar 12 2025 12:30:31 GMT-0500 (Central Daylight Time),825985.0,A,ratt,O,t,160,1,4365.79999999702,821619.200000003,7079,WL,A,15.0
5,45.236000061035156,learn,60000.0,Wed Mar 12 2025 12:30:31 GMT-0500 (Central Daylight Time),826718.400000006,A,rattl,O,l,720,1,5099.20000000298,821619.200000003,7079,WL,A,15.0
5,45.45099997520447,learn,60000.0,Wed Mar 12 2025 12:30:31 GMT-0500 (Central Daylight Time),826933.400000006,A,rattle,O,e,206,1,5314.20000000298,821619.200000003,7079,WL,A,15.0
5,45.68499994277954,learn,60000.0,Wed Mar 12 2025 12:30:31 GMT-0500 (Central Daylight Time),827167.6000000089,A,rattleenter,O,enter,214,1,5548.4000000059605,821619.200000003,7079,WL,A,15.0
6,1.000999927520752,distr,58999.00007247925,Wed Mar 12 2025 12:30:31 GMT-0500 (Central Daylight Time),912574.3000000119,B,b,O,b,984,1,1001.2000000029802,911573.1000000089,7079,WL,A,1.0
6,1.565000057220459,distr,58434.99994277954,Wed Mar 12 2025 12:30:31 GMT-0500 (Central Daylight Time),913138.3000000119,B,bo,O,o,542,1,1565.2000000029802,911573.1000000089,7079,WL,A,1.0
6,1.749000072479248,distr,58250.99992752075,Wed Mar 12 2025 12:30:31 GMT-0500 (Central Daylight Time),913322.3000000119,B,boo,O,o,172,1,1749.2000000029802,911573.1000000089,7079,WL,A,1.0
6,1.9670000076293945,distr,58032.999992370605,Wed Mar 12 2025 12:30:31 GMT-0500 (Central Daylight Time),913540.3000000119,B,book,O,k,211,1,1967.2000000029802,911573.1000000089,7079,WL,A,1.0
6,2.433000087738037,distr,57566.99991226196,Wed Mar 12 2025 12:30:31 GMT-0500 (Central Daylight Time),914006.1000000089,B,bookenter,O,enter,457,1,2433.0,911573.1000000089,7079,WL,A,1.0
6,3.183000087738037,distr,56816.99991226196,Wed Mar 12 2025 12:30:31 GMT-0500 (Central Daylight Time),914756.0,B,t,O,t,734,1,749.6999999880791,914006.3000000119,7079,WL,A,2.0
6,3.381999969482422,distr,56618.00003051758,Wed Mar 12 2025 12:30:31 GMT-0500 (Central Daylight Time),914954.900000006,B,tr,O,r,184,1,948.5999999940395,914006.3000000119,7079,WL,A,2.0
6,4.215000152587891,distr,55784.99984741211,Wed Mar 12 2025 12:30:31 GMT-0500 (Central Daylight Time),915787.5,B,tra,O,a,819,1,1781.199999988079,914006.3000000119,7079,WL,A,2.0
6,4.383000135421753,distr,55616.99986457825,Wed Mar 12 2025 12:30:31 GMT-0500 (Central Daylight Time),915955.5,B,trai,O,i,154,1,1949.199999988079,914006.3000000119,7079,WL,A,2.0
6,4.666000127792358,distr,55333.99987220764,Wed Mar 12 2025 12:30:31 GMT-0500 (Central Daylight Time),916238.5,B,train,O,n,266,1,2232.199999988079,914006.3000000119,7079,WL,A,2.0
6,5.263999938964844,distr,54736.000061035156,Wed Mar 12 2025 12:30:31 GMT-0500 (Central Daylight Time),916837.200000003,B,trainenter,O,enter,590,1,2830.8999999910593,914006.3000000119,7079,WL,A,2.0
6,5.8480000495910645,distr,54151.999950408936,Wed Mar 12 2025 12:30:31 GMT-0500 (Central Daylight Time),917421.200000003,B,a,O,a,575,1,583.7999999970198,916837.400000006,7079,WL,A,3.0
6,6.180999994277954,distr,53819.000005722046,Wed Mar 12 2025 12:30:31 GMT-0500 (Central Daylight Time),917753.8000000119,B,ap,O,p,319,1,916.4000000059605,916837.400000006,7079,WL,A,3.0
6,6.381999969482422,distr,53618.00003051758,Wed Mar 12 2025 12:30:31 GMT-0500 (Central Daylight Time),917954.5,B,app,O,p,196,1,1117.0999999940395,916837.400000006,7079,WL,A,3.0
6,6.615000009536743,distr,53384.99999046326,Wed Mar 12 2025 12:30:31 GMT-0500 (Central Daylight Time),918188.0,B,appl,O,l,227,1,1350.5999999940395,916837.400000006,7079,WL,A,3.0
6,6.8470001220703125,distr,53152.99987792969,Wed Mar 12 2025 12:30:31 GMT-0500 (Central Daylight Time),918419.6000000089,B,applo,O,o,216,1,1582.2000000029802,916837.400000006,7079,WL,A,3.0
6,7.648000001907349,distr,52351.99999809265,Wed Mar 12 2025 12:30:31 GMT-0500 (Central Daylight Time),919221.0,B,appl,O,backspace,794,1,2383.5999999940395,916837.400000006,7079,WL,A,3.0
6,8.02999997138977,distr,51970.00002861023,Wed Mar 12 2025 12:30:31 GMT-0500 (Central Daylight Time),919602.700000003,B,apple,O,e,368,1,2765.2999999970198,916837.400000006,7079,WL,A,3.0
6,8.730000019073486,distr,51269.999980926514,Wed Mar 12 2025 12:30:31 GMT-0500 (Central Daylight Time),920302.8000000119,B,appleenter,O,enter,682,1,3465.4000000059605,916837.400000006,7079,WL,A,3.0
6,10.996999979019165,distr,49003.000020980835,Wed Mar 12 2025 12:30:31 GMT-0500 (Central Daylight Time),922569.5,B,r,O,r,2246,1,2266.5,920303.0,7079,WL,A,4.0
6,11.27999997138977,distr,48720.00002861023,Wed Mar 12 2025 12:30:31 GMT-0500 (Central Daylight Time),922853.1000000089,B,ru,O,u,265,1,2550.1000000089407,920303.0,7079,WL,A,4.0
6,11.680000066757202,distr,48319.9999332428,Wed Mar 12 2025 12:30:31 GMT-0500 (Central Daylight Time),923253.3000000119,B,rug,O,g,384,1,2950.300000011921,920303.0,7079,WL,A,4.0
6,12.180000066757202,distr,47819.9999332428,Wed Mar 12 2025 12:30:31 GMT-0500 (Central Daylight Time),923752.900000006,B,rugenter,O,enter,489,1,3449.9000000059605,920303.0,7079,WL,A,4.0
6,12.845999956130981,distr,47154.00004386902,Wed Mar 12 2025 12:30:31 GMT-0500 (Central Daylight Time),924418.400000006,B,l,O,l,653,1,665.2000000029802,923753.200000003,7079,WL,A,5.0
6,13.062999963760376,distr,46937.000036239624,Wed Mar 12 2025 12:30:31 GMT-0500 (Central Daylight Time),924636.3000000119,B,lo,O,o,203,1,883.1000000089407,923753.200000003,7079,WL,A,5.0
6,13.394999980926514,distr,46605.000019073486,Wed Mar 12 2025 12:30:31 GMT-0500 (Central Daylight Time),924968.0,B,log,O,g,320,1,1214.7999999970198,923753.200000003,7079,WL,A,5.0
6,13.946000099182129,distr,46053.99990081787,Wed Mar 12 2025 12:30:31 GMT-0500 (Central Daylight Time),925518.8000000119,B,logenter,O,enter,542,1,1765.6000000089407,923753.200000003,7079,WL,A,5.0
6,15.54800009727478,distr,44451.99990272522,Wed Mar 12 2025 12:30:31 GMT-0500 (Central Daylight Time),927120.8000000119,B,m,O,m,1582,1,1601.7000000029802,925519.1000000089,7079,WL,A,6.0
6,15.763999938964844,distr,44236.000061035156,Wed Mar 12 2025 12:30:31 GMT-0500 (Central Daylight Time),927336.400000006,B,me,O,e,193,1,1817.2999999970198,925519.1000000089,7079,WL,A,6.0
6,16.04699993133545,distr,43953.00006866455,Wed Mar 12 2025 12:30:31 GMT-0500 (Central Daylight Time),927620.3000000119,B,mea,O,a,260,1,2101.2000000029802,925519.1000000089,7079,WL,A,6.0
6,16.347000122070312,distr,43652.99987792969,Wed Mar 12 2025 12:30:31 GMT-0500 (Central Daylight Time),927920.1000000089,B,mead,O,d,278,1,2401.0,925519.1000000089,7079,WL,A,6.0
6,16.544000148773193,distr,43455.99985122681,Wed Mar 12 2025 12:30:31 GMT-0500 (Central Daylight Time),928117.200000003,B,meado,O,o,188,1,2598.0999999940395,925519.1000000089,7079,WL,A,6.0
6,16.746999979019165,distr,43253.000020980835,Wed Mar 12 2025 12:30:31 GMT-0500 (Central Daylight Time),928319.6000000089,B,meadow,O,w,192,1,2800.5,925519.1000000089,7079,WL,A,6.0
6,17.013999938964844,distr,42986.000061035156,Wed Mar 12 2025 12:30:31 GMT-0500 (Central Daylight Time),928586.5,B,meadowenter,O,enter,261,1,3067.3999999910593,925519.1000000089,7079,WL,A,6.0
6,19.127000093460083,distr,40872.99990653992,Wed Mar 12 2025 12:30:31 GMT-0500 (Central Daylight Time),930699.6000000089,B,c,O,c,2098,1,2112.9000000059605,928586.700000003,7079,WL,A,7.0
6,19.311000108718872,distr,40688.99989128113,Wed Mar 12 2025 12:30:31 GMT-0500 (Central Daylight Time),930883.3000000119,B,ch,O,h,170,1,2296.6000000089407,928586.700000003,7079,WL,A,7.0
6,19.542999982833862,distr,40457.00001716614,Wed Mar 12 2025 12:30:31 GMT-0500 (Central Daylight Time),931115.5,B,chi,O,i,226,1,2528.7999999970198,928586.700000003,7079,WL,A,7.0
6,20.061000108718872,distr,39938.99989128113,Wed Mar 12 2025 12:30:31 GMT-0500 (Central Daylight Time),931634.0,B,chim,O,m,507,1,3047.2999999970198,928586.700000003,7079,WL,A,7.0
6,20.511000156402588,distr,39488.99984359741,Wed Mar 12 2025 12:30:31 GMT-0500 (Central Daylight Time),932083.700000003,B,chimn,O,n,435,1,3497.0,928586.700000003,7079,WL,A,7.0
6,20.627000093460083,distr,39372.99990653992,Wed Mar 12 2025 12:30:31 GMT-0500 (Central Daylight Time),932199.900000006,B,chimne,O,e,105,1,3613.2000000029802,928586.700000003,7079,WL,A,7.0
6,20.98200011253357,distr,39017.99988746643,Wed Mar 12 2025 12:30:31 GMT-0500 (Central Daylight Time),932554.900000006,B,chimnet,O,t,335,1,3968.2000000029802,928586.700000003,7079,WL,A,7.0
6,21.259999990463257,distr,38740.00000953674,Wed Mar 12 2025 12:30:31 GMT-0500 (Central Daylight Time),932833.400000006,B,chimnety,O,y,259,1,4246.70000000298,928586.700000003,7079,WL,A,7.0
6,21.625999927520752,distr,38374.00007247925,Wed Mar 12 2025 12:30:31 GMT-0500 (Central Daylight Time),933198.6000000089,B,chimnet,O,backspace,347,1,4611.9000000059605,928586.700000003,7079,WL,A,7.0
6,21.8270001411438,distr,38172.9998588562,Wed Mar 12 2025 12:30:31 GMT-0500 (Central Daylight Time),933399.3000000119,B,chimne,O,backspace,182,1,4812.600000008941,928586.700000003,7079,WL,A,7.0
6,21.960000038146973,distr,38039.99996185303,Wed Mar 12 2025 12:30:31 GMT-0500 (Central Daylight Time),933532.900000006,B,chimney,O,y,118,1,4946.20000000298,928586.700000003,7079,WL,A,7.0
6,22.877000093460083,distr,37122.99990653992,Wed Mar 12 2025 12:30:31 GMT-0500 (Central Daylight Time),934450.1000000089,B,chimneyenter,O,enter,913,1,5863.4000000059605,928586.700000003,7079,WL,A,7.0
6,24.02500009536743,distr,35974.99990463257,Wed Mar 12 2025 12:30:31 GMT-0500 (Central Daylight Time),935598.200000003,B,h,O,h,1131,1,1147.8999999910593,934450.3000000119,7079,WL,A,8.0
6,24.242000102996826,distr,35757.999897003174,Wed Mar 12 2025 12:30:31 GMT-0500 (Central Daylight Time),935815.3000000119,B,ha,O,a,207,1,1365.0,934450.3000000119,7079,WL,A,8.0
6,24.608999967575073,distr,35391.00003242493,Wed Mar 12 2025 12:30:31 GMT-0500 (Central Daylight Time),936182.0,B,har,O,r,357,1,1731.699999988079,934450.3000000119,7079,WL,A,8.0
6,25.02500009536743,distr,34974.99990463257,Wed Mar 12 2025 12:30:31 GMT-0500 (Central Daylight Time),936597.900000006,B,harp,O,p,407,1,2147.5999999940395,934450.3000000119,7079,WL,A,8.0
6,25.442000150680542,distr,34557.99984931946,Wed Mar 12 2025 12:30:31 GMT-0500 (Central Daylight Time),937015.3000000119,B,harpenter,O,enter,408,1,2565.0,934450.3000000119,7079,WL,A,8.0
6,27.861000061035156,distr,32138.999938964844,Wed Mar 12 2025 12:30:31 GMT-0500 (Central Daylight Time),939434.1000000089,B,f,O,f,2407,1,2418.5,937015.6000000089,7079,WL,A,9.0
6,28.094000101089478,distr,31905.999898910522,Wed Mar 12 2025 12:30:31 GMT-0500 (Central Daylight Time),939666.900000006,B,fi,O,i,209,1,2651.2999999970198,937015.6000000089,7079,WL,A,9.0
6,28.34000015258789,distr,31659.99984741211,Wed Mar 12 2025 12:30:31 GMT-0500 (Central Daylight Time),939913.1000000089,B,fin,O,n,230,1,2897.5,937015.6000000089,7079,WL,A,9.0
6,28.60700011253357,distr,31392.99988746643,Wed Mar 12 2025 12:30:31 GMT-0500 (Central Daylight Time),940179.8000000119,B,fing,O,g,261,1,3164.2000000029802,937015.6000000089,7079,WL,A,9.0
6,28.808000087738037,distr,31191.999912261963,Wed Mar 12 2025 12:30:31 GMT-0500 (Central Daylight Time),940380.8000000119,B,finge,O,e,186,1,3365.2000000029802,937015.6000000089,7079,WL,A,9.0
6,29.008000135421753,distr,30991.999864578247,Wed Mar 12 2025 12:30:31 GMT-0500 (Central Daylight Time),940580.5,B,finger,O,r,192,1,3564.8999999910593,937015.6000000089,7079,WL,A,9.0
6,29.289999961853027,distr,30710.000038146973,Wed Mar 12 2025 12:30:31 GMT-0500 (Central Daylight Time),940862.900000006,B,fingerenter,O,enter,265,1,3847.2999999970198,937015.6000000089,7079,WL,A,9.0
6,31.289999961853027,distr,28710.000038146973,Wed Mar 12 2025 12:30:31 GMT-0500 (Central Daylight Time),942862.700000003,B,a,O,a,1991,1,1999.5,940863.200000003,7079,WL,A,10.0
6,31.707000017166138,distr,28292.999982833862,Wed Mar 12 2025 12:30:31 GMT-0500 (Central Daylight Time),943279.900000006,B,ap,O,p,406,1,2416.7000000029802,940863.200000003,7079,WL,A,10.0
6,31.907000064849854,distr,28092.999935150146,Wed Mar 12 2025 12:30:31 GMT-0500 (Central Daylight Time),943479.5,B,app,O,p,189,1,2616.2999999970198,940863.200000003,7079,WL,A,10.0
6,32.15700006484985,distr,27842.999935150146,Wed Mar 12 2025 12:30:31 GMT-0500 (Central Daylight Time),943729.8000000119,B,appl,O,l,238,1,2866.6000000089407,940863.200000003,7079,WL,A,10.0
6,33.00500011444092,distr,26994.999885559082,Wed Mar 12 2025 12:30:31 GMT-0500 (Central Daylight Time),944578.200000003,B,apple,O,e,844,1,3715.0,940863.200000003,7079,WL,A,10.0
6,33.206000089645386,distr,26793.999910354614,Wed Mar 12 2025 12:30:31 GMT-0500 (Central Daylight Time),944778.400000006,B,appleenter,O,enter,186,1,3915.2000000029802,940863.200000003,7079,WL,A,10.0
6,34.954999923706055,distr,25045.000076293945,Wed Mar 12 2025 12:30:31 GMT-0500 (Central Daylight Time),946528.3000000119,B,t,O,t,1744,1,1749.7000000029802,944778.6000000089,7079,WL,A,11.0
6,35.33800005912781,distr,24661.999940872192,Wed Mar 12 2025 12:30:31 GMT-0500 (Central Daylight Time),946910.400000006,B,tr,O,r,371,1,2131.7999999970198,944778.6000000089,7079,WL,A,11.0
6,35.65499997138977,distr,24345.00002861023,Wed Mar 12 2025 12:30:31 GMT-0500 (Central Daylight Time),947227.6000000089,B,t,O,backspace,302,1,2449.0,944778.6000000089,7079,WL,A,11.0
6,35.871999979019165,distr,24128.000020980835,Wed Mar 12 2025 12:30:31 GMT-0500 (Central Daylight Time),947444.700000003,B,,O,backspace,200,1,2666.0999999940395,944778.6000000089,7079,WL,A,11.0
6,36.0550000667572,distr,23944.999933242798,Wed Mar 12 2025 12:30:31 GMT-0500 (Central Daylight Time),947627.400000006,B,,O,backspace,167,1,2848.7999999970198,944778.6000000089,7079,WL,A,11.0
6,36.53800010681152,distr,23461.999893188477,Wed Mar 12 2025 12:30:31 GMT-0500 (Central Daylight Time),948110.6000000089,B,b,O,b,474,1,3332.0,944778.6000000089,7079,WL,A,11.0
6,37.10599994659424,distr,22894.00005340576,Wed Mar 12 2025 12:30:31 GMT-0500 (Central Daylight Time),948678.900000006,B,bo,O,o,551,1,3900.2999999970198,944778.6000000089,7079,WL,A,11.0
6,37.28800010681152,distr,22711.999893188477,Wed Mar 12 2025 12:30:31 GMT-0500 (Central Daylight Time),948861.400000006,B,boo,O,o,165,1,4082.7999999970198,944778.6000000089,7079,WL,A,11.0
6,37.521000146865845,distr,22478.999853134155,Wed Mar 12 2025 12:30:31 GMT-0500 (Central Daylight Time),949093.400000006,B,book,O,k,214,1,4314.79999999702,944778.6000000089,7079,WL,A,11.0
6,37.854000091552734,distr,22145.999908447266,Wed Mar 12 2025 12:30:31 GMT-0500 (Central Daylight Time),949426.8000000119,B,bookenter,O,enter,328,1,4648.20000000298,944778.6000000089,7079,WL,A,11.0
6,39.28699994087219,distr,20713.000059127808,Wed Mar 12 2025 12:30:31 GMT-0500 (Central Daylight Time),950859.6000000089,B,t,O,t,1427,1,1432.7000000029802,949426.900000006,7079,WL,A,12.0
6,39.50500011444092,distr,20494.999885559082,Wed Mar 12 2025 12:30:31 GMT-0500 (Central Daylight Time),951077.5,B,tr,O,r,202,1,1650.5999999940395,949426.900000006,7079,WL,A,12.0
6,40.07299995422363,distr,19927.000045776367,Wed Mar 12 2025 12:30:31 GMT-0500 (Central Daylight Time),951645.5,B,tra,O,a,564,1,2218.5999999940395,949426.900000006,7079,WL,A,12.0
6,40.2720000743866,distr,19727.999925613403,Wed Mar 12 2025 12:30:31 GMT-0500 (Central Daylight Time),951844.400000006,B,trai,O,i,182,1,2417.5,949426.900000006,7079,WL,A,12.0
6,40.555999994277954,distr,19444.000005722046,Wed Mar 12 2025 12:30:31 GMT-0500 (Central Daylight Time),952128.400000006,B,train,O,n,273,1,2701.5,949426.900000006,7079,WL,A,12.0
6,41.3199999332428,distr,18680.000066757202,Wed Mar 12 2025 12:30:31 GMT-0500 (Central Daylight Time),952893.700000003,B,trainenter,O,enter,748,1,3466.7999999970198,949426.900000006,7079,WL,A,12.0
6,45.98399996757507,distr,14016.000032424927,Wed Mar 12 2025 12:30:31 GMT-0500 (Central Daylight Time),957557.5,B,c,O,c,4656,1,4663.699999988079,952893.8000000119,7079,WL,A,13.0
6,46.2020001411438,distr,13797.999858856201,Wed Mar 12 2025 12:30:31 GMT-0500 (Central Daylight Time),957775.200000003,B,ch,O,h,200,1,4881.399999991059,952893.8000000119,7079,WL,A,13.0
6,46.50200009346008,distr,13497.999906539917,Wed Mar 12 2025 12:30:31 GMT-0500 (Central Daylight Time),958075.200000003,B,chi,O,i,287,1,5181.399999991059,952893.8000000119,7079,WL,A,13.0
6,46.91799998283386,distr,13082.000017166138,Wed Mar 12 2025 12:30:31 GMT-0500 (Central Daylight Time),958491.8000000119,B,chim,O,m,402,1,5598.0,952893.8000000119,7079,WL,A,13.0
6,47.2020001411438,distr,12797.999858856201,Wed Mar 12 2025 12:30:31 GMT-0500 (Central Daylight Time),958775.0,B,chimn,O,n,274,1,5881.199999988079,952893.8000000119,7079,WL,A,13.0
6,47.33400011062622,distr,12665.99988937378,Wed Mar 12 2025 12:30:31 GMT-0500 (Central Daylight Time),958907.6000000089,B,chimne,O,e,118,1,6013.79999999702,952893.8000000119,7079,WL,A,13.0
6,47.651000022888184,distr,12348.999977111816,Wed Mar 12 2025 12:30:31 GMT-0500 (Central Daylight Time),959224.400000006,B,chimney,O,y,306,1,6330.5999999940395,952893.8000000119,7079,WL,A,13.0
6,47.78500008583069,distr,12214.999914169312,Wed Mar 12 2025 12:30:31 GMT-0500 (Central Daylight Time),959358.200000003,B,chimneyenter,O,enter,125,1,6464.399999991059,952893.8000000119,7079,WL,A,13.0
6,52.049999952316284,distr,7950.000047683716,Wed Mar 12 2025 12:30:31 GMT-0500 (Central Daylight Time),963622.8000000119,B,f,O,f,4248,1,4264.4000000059605,959358.400000006,7079,WL,A,14.0
6,52.31500005722046,distr,7684.999942779541,Wed Mar 12 2025 12:30:31 GMT-0500 (Central Daylight Time),963888.700000003,B,fl,O,l,253,1,4530.29999999702,959358.400000006,7079,WL,A,14.0
6,52.51699995994568,distr,7483.000040054321,Wed Mar 12 2025 12:30:31 GMT-0500 (Central Daylight Time),964090.0,B,flo,O,o,189,1,4731.5999999940395,959358.400000006,7079,WL,A,14.0
6,52.699000120162964,distr,7300.999879837036,Wed Mar 12 2025 12:30:31 GMT-0500 (Central Daylight Time),964272.700000003,B,flow,O,w,162,1,4914.29999999702,959358.400000006,7079,WL,A,14.0
6,52.8989999294281,distr,7101.000070571899,Wed Mar 12 2025 12:30:31 GMT-0500 (Central Daylight Time),964472.700000003,B,flowe,O,e,180,1,5114.29999999702,959358.400000006,7079,WL,A,14.0
6,53.115999937057495,distr,6884.000062942505,Wed Mar 12 2025 12:30:31 GMT-0500 (Central Daylight Time),964689.5,B,flower,O,r,205,1,5331.0999999940395,959358.400000006,7079,WL,A,14.0
6,53.532999992370605,distr,6467.0000076293945,Wed Mar 12 2025 12:30:31 GMT-0500 (Central Daylight Time),965106.1000000089,B,flowerenter,O,enter,412,1,5747.70000000298,959358.400000006,7079,WL,A,14.0
6,56.931999921798706,distr,3068.000078201294,Wed Mar 12 2025 12:30:31 GMT-0500 (Central Daylight Time),968505.200000003,B,a,O,a,3388,1,3398.7999999970198,965106.400000006,7079,WL,A,15.0
6,58.0310001373291,distr,1968.9998626708984,Wed Mar 12 2025 12:30:31 GMT-0500 (Central Daylight Time),969604.3000000119,B,ap,O,p,1083,1,4497.9000000059605,965106.400000006,7079,WL,A,15.0
6,58.21399998664856,distr,1786.0000133514404,Wed Mar 12 2025 12:30:31 GMT-0500 (Central Daylight Time),969787.0,B,app,O,p,177,1,4680.5999999940395,965106.400000006,7079,WL,A,15.0
6,58.44700002670288,distr,1552.9999732971191,Wed Mar 12 2025 12:30:31 GMT-0500 (Central Daylight Time),970020.1000000089,B,appl,O,l,226,1,4913.70000000298,965106.400000006,7079,WL,A,15.0
6,58.581000089645386,distr,1418.9999103546143,Wed Mar 12 2025 12:30:31 GMT-0500 (Central Daylight Time),970154.1000000089,B,apple,O,e,128,1,5047.70000000298,965106.400000006,7079,WL,A,15.0
6,58.8970000743866,distr,1102.9999256134033,Wed Mar 12 2025 12:30:31 GMT-0500 (Central Daylight Time),970470.1000000089,B,appleenter,O,enter,307,1,5363.70000000298,965106.400000006,7079,WL,A,15.0
7,1.3500001430511475,immed,58649.99985694885,Wed Mar 12 2025 12:30:31 GMT-0500 (Central Daylight Time),986782.700000003,A,b,O,b,1340,1,1349.7999999970198,985432.900000006,7079,WL,A,1.0
7,2.003000020980835,immed,57996.999979019165,Wed Mar 12 2025 12:30:31 GMT-0500 (Central Daylight Time),987435.0,A,bo,O,o,649,1,2002.0999999940395,985432.900000006,7079,WL,A,1.0
7,2.18500018119812,immed,57814.99981880188,Wed Mar 12 2025 12:30:31 GMT-0500 (Central Daylight Time),987617.700000003,A,boo,O,o,177,1,2184.7999999970198,985432.900000006,7079,WL,A,1.0
7,2.384000062942505,immed,57615.999937057495,Wed Mar 12 2025 12:30:31 GMT-0500 (Central Daylight Time),987816.8000000119,A,book,O,k,187,1,2383.9000000059605,985432.900000006,7079,WL,A,1.0
7,2.8510000705718994,immed,57148.9999294281,Wed Mar 12 2025 12:30:31 GMT-0500 (Central Daylight Time),988283.1000000089,A,bookenter,O,enter,461,1,2850.2000000029802,985432.900000006,7079,WL,A,1.0
7,5.402000188827515,immed,54597.999811172485,Wed Mar 12 2025 12:30:31 GMT-0500 (Central Daylight Time),990833.900000006,A,r,O,r,2546,1,2550.5999999940395,988283.3000000119,7079,WL,A,2.0
7,5.601999998092651,immed,54398.00000190735,Wed Mar 12 2025 12:30:31 GMT-0500 (Central Daylight Time),991034.400000006,A,ru,O,u,195,1,2751.0999999940395,988283.3000000119,7079,WL,A,2.0
7,5.950000047683716,immed,54049.999952316284,Wed Mar 12 2025 12:30:31 GMT-0500 (Central Daylight Time),991382.0,A,rug,O,g,338,1,3098.699999988079,988283.3000000119,7079,WL,A,2.0
7,6.216000080108643,immed,53783.99991989136,Wed Mar 12 2025 12:30:31 GMT-0500 (Central Daylight Time),991648.200000003,A,rugenter,O,enter,254,1,3364.8999999910593,988283.3000000119,7079,WL,A,2.0
7,7.183000087738037,immed,52816.99991226196,Wed Mar 12 2025 12:30:31 GMT-0500 (Central Daylight Time),992614.8000000119,A,f,O,f,956,1,966.4000000059605,991648.400000006,7079,WL,A,3.0
7,7.483000040054321,immed,52516.99995994568,Wed Mar 12 2025 12:30:31 GMT-0500 (Central Daylight Time),992915.700000003,A,fi,O,i,284,1,1267.2999999970198,991648.400000006,7079,WL,A,3.0
7,8.565999984741211,immed,51434.00001525879,Wed Mar 12 2025 12:30:31 GMT-0500 (Central Daylight Time),993998.8000000119,A,fin,O,n,1074,1,2350.4000000059605,991648.400000006,7079,WL,A,3.0
7,9.315000057220459,immed,50684.99994277954,Wed Mar 12 2025 12:30:31 GMT-0500 (Central Daylight Time),994747.6000000089,A,fing,O,g,744,1,3099.2000000029802,991648.400000006,7079,WL,A,3.0
7,9.516000032424927,immed,50483.99996757507,Wed Mar 12 2025 12:30:31 GMT-0500 (Central Daylight Time),994947.900000006,A,finge,O,e,185,1,3299.5,991648.400000006,7079,WL,A,3.0
7,9.716000080108643,immed,50283.99991989136,Wed Mar 12 2025 12:30:31 GMT-0500 (Central Daylight Time),995148.1000000089,A,finger,O,r,183,1,3499.7000000029802,991648.400000006,7079,WL,A,3.0
7,10.115000009536743,immed,49884.99999046326,Wed Mar 12 2025 12:30:31 GMT-0500 (Central Daylight Time),995547.1000000089,A,fingerenter,O,enter,394,1,3898.7000000029802,991648.400000006,7079,WL,A,3.0
7,10.867000102996826,immed,49132.999897003174,Wed Mar 12 2025 12:30:31 GMT-0500 (Central Daylight Time),996299.0,A,l,O,l,738,1,751.5999999940395,995547.400000006,7079,WL,A,4.0
7,11.098000049591064,immed,48901.999950408936,Wed Mar 12 2025 12:30:31 GMT-0500 (Central Daylight Time),996530.1000000089,A,lo,O,o,224,1,982.7000000029802,995547.400000006,7079,WL,A,4.0
7,11.481000185012817,immed,48518.99981498718,Wed Mar 12 2025 12:30:31 GMT-0500 (Central Daylight Time),996913.6000000089,A,log,O,g,371,1,1366.2000000029802,995547.400000006,7079,WL,A,4.0
7,11.71500015258789,immed,48284.99984741211,Wed Mar 12 2025 12:30:31 GMT-0500 (Central Daylight Time),997147.1000000089,A,logenter,O,enter,228,1,1599.7000000029802,995547.400000006,7079,WL,A,4.0
7,12.414999961853027,immed,47585.00003814697,Wed Mar 12 2025 12:30:31 GMT-0500 (Central Daylight Time),997847.200000003,A,h,O,h,690,1,699.8999999910593,997147.3000000119,7079,WL,A,5.0
7,12.598000049591064,immed,47401.999950408936,Wed Mar 12 2025 12:30:31 GMT-0500 (Central Daylight Time),998030.1000000089,A,ha,O,a,174,1,882.7999999970198,997147.3000000119,7079,WL,A,5.0
