Q,Q1,Q2,Q3,Q4,acc_sum,block,block_c,correct,correct_response,datetime,endtime,project,response,response_time,row_sel,session_number,squiggle1,squiggle1x,squiggle1y,squiggle2,squiggle2x,squiggle2y,squiggle3,squiggle3x,squiggle3y,squiggle4,squiggle4x,squiggle4y,start_end,starttime,subject_id,target_congruent,task,task_vers,testsquiggle,testsquigglex,testsquiggley,time_practice_delay,time_practice_fixation,time_practice_stimuli,time_practice_study,time_test_delay,time_test_fixation,time_test_stimuli,time_test_study,trial
1,1,0,0,0,0,prac,1,0,z,Fri Feb 21 2025 17:05:16 GMT-0600 (Central Standard Time),189331.40000000037,O,None,2015,1,1,16.bmp,-120,-120,17.bmp,120,-120,18.bmp,-120,120,19.bmp,120,120,10826.200000000186,178505.2000000002,7056,yes,SM,B,16.bmp,-120,-120,182049,176022,184065,178032,,,,,1
3,0,0,1,0,1,prac,1,1,m,Fri Feb 21 2025 17:05:16 GMT-0600 (Central Standard Time),199428.2999999998,O,m,1282,2,1,20.bmp,-120,-120,21.bmp,120,-120,22.bmp,-120,120,23.bmp,120,120,10092.199999999255,189336.10000000056,7056,no,SM,B,23.bmp,-120,120,192878,186852,194895,188863,,,,,2
4,0,0,0,1,2,prac,1,1,m,Fri Feb 21 2025 17:05:16 GMT-0600 (Central Standard Time),209356.5,O,m,1110,3,1,24.bmp,-120,-120,25.bmp,120,-120,26.bmp,-120,120,27.bmp,120,120,9923.200000000186,199433.2999999998,7056,no,SM,B,24.bmp,120,120,202975,196950,204993,198960,,,,,3
2,0,1,0,0,3,prac,1,1,z,Fri Feb 21 2025 17:05:16 GMT-0600 (Central Standard Time),219537.7999999998,O,z,1359,4,1,28.bmp,-120,-120,29.bmp,120,-120,30.bmp,-120,120,31.bmp,120,120,10175.799999999814,209362.0,7056,yes,SM,B,29.bmp,120,-120,212905,206878,214920,208890,,,,,4
3,0,0,1,0,3,prac,1,0,z,Fri Feb 21 2025 17:05:16 GMT-0600 (Central Standard Time),230366.0,O,None,2017,5,1,32.bmp,-120,-120,33.bmp,120,-120,34.bmp,-120,120,35.bmp,120,120,10824.299999999814,219541.7000000002,7056,yes,SM,B,34.bmp,-120,120,223085,217058,225101,219070,,,,,5
1,1,0,0,0,3,prac,1,0,m,Fri Feb 21 2025 17:05:16 GMT-0600 (Central Standard Time),239697.7000000002,O,z,506,6,1,36.bmp,-120,-120,37.bmp,120,-120,38.bmp,-120,120,39.bmp,120,120,9327.400000000373,230370.2999999998,7056,no,SM,B,39.bmp,-120,-120,233914,227886,235932,229900,,,,,6
2,0,1,0,0,4,prac,1,1,m,Fri Feb 21 2025 17:05:16 GMT-0600 (Central Standard Time),250228.40000000037,O,m,1732,7,1,40.bmp,-120,-120,41.bmp,120,-120,42.bmp,-120,120,43.bmp,120,120,10526.900000000373,239701.5,7056,no,SM,B,40.bmp,120,-120,243244,237218,245245,239229,,,,,7
4,0,0,0,1,4,prac,1,0,z,Fri Feb 21 2025 17:05:16 GMT-0600 (Central Standard Time),260007.5,O,m,950,8,1,44.bmp,-120,-120,45.bmp,120,-120,46.bmp,-120,120,47.bmp,120,120,9775.299999999814,250232.2000000002,7056,yes,SM,B,47.bmp,120,120,253775,247748,255792,249760,,,,,8
1,1,0,0,0,1,prac,2,1,z,Fri Feb 21 2025 17:05:16 GMT-0600 (Central Standard Time),276187.2999999998,O,z,1373,1,1,16.bmp,-120,-120,17.bmp,120,-120,18.bmp,-120,120,19.bmp,120,120,10188.799999999814,265998.5,7056,yes,SM,B,16.bmp,-120,-120,269536,263515,271553,265521,,,,,1
3,0,0,1,0,2,prac,2,1,m,Fri Feb 21 2025 17:05:16 GMT-0600 (Central Standard Time),286265.60000000056,O,m,1263,2,1,20.bmp,-120,-120,21.bmp,120,-120,22.bmp,-120,120,23.bmp,120,120,10073.600000000559,276192.0,7056,no,SM,B,23.bmp,-120,120,279734,273708,281751,275719,,,,,2
4,0,0,0,1,2,prac,2,0,m,Fri Feb 21 2025 17:05:16 GMT-0600 (Central Standard Time),296397.2000000002,O,z,1313,3,1,24.bmp,-120,-120,25.bmp,120,-120,26.bmp,-120,120,27.bmp,120,120,10124.900000000373,286272.2999999998,7056,no,SM,B,24.bmp,120,120,289814,283789,291830,285799,,,,,3
2,0,1,0,0,3,prac,2,1,z,Fri Feb 21 2025 17:05:16 GMT-0600 (Central Standard Time),306792.4000000004,O,z,1567,4,1,28.bmp,-120,-120,29.bmp,120,-120,30.bmp,-120,120,31.bmp,120,120,10389.299999999814,296403.10000000056,7056,yes,SM,B,29.bmp,120,-120,299943,293920,301960,295929,,,,,4
3,0,0,1,0,3,prac,2,0,z,Fri Feb 21 2025 17:05:16 GMT-0600 (Central Standard Time),316821.7999999998,O,m,1201,5,1,32.bmp,-120,-120,33.bmp,120,-120,34.bmp,-120,120,35.bmp,120,120,10026.0,306795.7999999998,7056,yes,SM,B,34.bmp,-120,120,310340,304312,312357,306325,,,,,5
1,1,0,0,0,4,prac,2,1,m,Fri Feb 21 2025 17:05:16 GMT-0600 (Central Standard Time),327069.2999999998,O,m,1427,6,1,36.bmp,-120,-120,37.bmp,120,-120,38.bmp,-120,120,39.bmp,120,120,10241.5,316827.7999999998,7056,no,SM,B,39.bmp,-120,-120,320370,314344,322388,316356,,,,,6
2,0,1,0,0,5,prac,2,1,m,Fri Feb 21 2025 17:05:16 GMT-0600 (Central Standard Time),337084.60000000056,O,m,1218,7,1,40.bmp,-120,-120,41.bmp,120,-120,42.bmp,-120,120,43.bmp,120,120,10011.100000000559,327073.5,7056,no,SM,B,40.bmp,120,-120,330616,324590,332620,326603,,,,,7
4,0,0,0,1,6,prac,2,1,z,Fri Feb 21 2025 17:05:16 GMT-0600 (Central Standard Time),347079.7000000002,O,z,1176,8,1,44.bmp,-120,-120,45.bmp,120,-120,46.bmp,-120,120,47.bmp,120,120,9990.599999999627,337089.10000000056,7056,yes,SM,B,47.bmp,120,120,340631,334605,342647,336615,,,,,8
4,0,0,0,1,0,test,1,0,m,Fri Feb 21 2025 17:05:16 GMT-0600 (Central Standard Time),372671.0,O,z,1544,1,1,48.bmp,-120,-120,49.bmp,120,-120,50.bmp,-120,120,43.bmp,120,120,9591.299999999814,363079.7000000002,7056,yes,SM,B,50.bmp,120,120,340631,334605,342647,336615,366623.0,360596.0,368639.0,362608.0,1
2,0,1,0,0,1,test,1,1,m,Fri Feb 21 2025 17:05:16 GMT-0600 (Central Standard Time),382019.7999999998,O,m,1281,2,1,1.bmp,-120,-120,2.bmp,120,-120,3.bmp,-120,120,4.bmp,120,120,9345.599999999627,372674.2000000002,7056,yes,SM,B,3.bmp,120,-120,340631,334605,342647,336615,376221.0,370190.0,378238.0,372204.0,2
1,1,0,0,0,1,test,1,0,z,Fri Feb 21 2025 17:05:16 GMT-0600 (Central Standard Time),391649.2999999998,O,m,1565,3,1,5.bmp,-120,-120,6.bmp,120,-120,7.bmp,-120,120,8.bmp,120,120,9622.0,382027.2999999998,7056,yes,SM,B,5.bmp,-120,-120,340631,334605,342647,336615,385568.0,379544.0,387585.0,381552.0,3
3,0,0,1,0,1,test,1,0,m,Fri Feb 21 2025 17:05:16 GMT-0600 (Central Standard Time),401713.7000000002,O,None,2014,4,1,9.bmp,-120,-120,10.bmp,120,-120,11.bmp,-120,120,12.bmp,120,120,10058.299999999814,391655.4000000004,7056,yes,SM,B,9.bmp,-120,120,340631,334605,342647,336615,395196.0,389172.0,397215.0,391182.0,4
2,0,1,0,0,1,test,1,0,z,Fri Feb 21 2025 17:05:16 GMT-0600 (Central Standard Time),410709.2999999998,O,m,947,5,1,13.bmp,-120,-120,14.bmp,120,-120,15.bmp,-120,120,16.bmp,120,120,8990.699999999255,401718.60000000056,7056,yes,SM,B,14.bmp,120,-120,340631,334605,342647,336615,405260.0,399235.0,407277.0,401247.0,5
3,0,0,1,0,1,test,1,0,z,Fri Feb 21 2025 17:05:16 GMT-0600 (Central Standard Time),419825.2000000002,O,m,1061,6,1,17.bmp,-120,-120,18.bmp,120,-120,19.bmp,-120,120,20.bmp,120,120,9111.299999999814,410713.9000000004,7056,yes,SM,B,19.bmp,-120,120,340631,334605,342647,336615,414256.0,408230.0,416273.0,410242.0,6
4,0,0,0,1,1,test,1,0,z,Fri Feb 21 2025 17:05:16 GMT-0600 (Central Standard Time),428587.0,O,m,706,7,1,21.bmp,-120,-120,22.bmp,120,-120,23.bmp,-120,120,24.bmp,120,120,8757.599999999627,419829.4000000004,7056,yes,SM,B,24.bmp,120,120,340631,334605,342647,336615,423371.0,417346.0,425388.0,419357.0,7
2,0,1,0,0,2,test,1,1,m,Fri Feb 21 2025 17:05:16 GMT-0600 (Central Standard Time),437886.10000000056,O,m,1249,8,1,25.bmp,-120,-120,26.bmp,120,-120,27.bmp,-120,120,28.bmp,120,120,9295.600000000559,428590.5,7056,yes,SM,B,25.bmp,120,-120,340631,334605,342647,336615,432135.0,426107.0,434153.0,428120.0,8
3,0,0,1,0,2,test,1,0,m,Fri Feb 21 2025 17:05:16 GMT-0600 (Central Standard Time),447197.4000000004,O,z,1262,9,1,29.bmp,-120,-120,30.bmp,120,-120,31.bmp,-120,120,32.bmp,120,120,9307.0,437890.4000000004,7056,yes,SM,B,30.bmp,-120,120,340631,334605,342647,336615,441432.0,435407.0,443449.0,437418.0,9
4,0,0,0,1,2,test,1,0,z,Fri Feb 21 2025 17:05:16 GMT-0600 (Central Standard Time),456444.2999999998,O,m,1190,10,1,37.bmp,-120,-120,38.bmp,120,-120,39.bmp,-120,120,40.bmp,120,120,9242.699999999255,447201.60000000056,7056,yes,SM,B,40.bmp,120,120,340631,334605,342647,336615,450745.0,444718.0,452761.0,446732.0,10
3,0,0,1,0,3,test,1,1,z,Fri Feb 21 2025 17:05:16 GMT-0600 (Central Standard Time),464808.4000000004,O,z,307,11,1,33.bmp,-120,-120,34.bmp,120,-120,35.bmp,-120,120,36.bmp,120,120,8361.200000000186,456447.2000000002,7056,yes,SM,B,35.bmp,-120,120,340631,334605,342647,336615,459993.0,453964.0,462012.0,455978.0,11
2,0,1,0,0,4,test,1,1,m,Fri Feb 21 2025 17:05:16 GMT-0600 (Central Standard Time),474756.2000000002,O,m,1898,12,1,41.bmp,-120,-120,42.bmp,120,-120,43.bmp,-120,120,44.bmp,120,120,9944.700000000186,464811.5,7056,yes,SM,B,41.bmp,120,-120,340631,334605,342647,336615,468356.0,462328.0,470374.0,464342.0,12
3,0,0,1,0,4,test,1,0,m,Fri Feb 21 2025 17:05:16 GMT-0600 (Central Standard Time),483952.2999999998,O,z,1142,13,1,45.bmp,-120,-120,46.bmp,120,-120,47.bmp,-120,120,48.bmp,120,120,9192.899999999441,474759.4000000004,7056,yes,SM,B,46.bmp,-120,120,340631,334605,342647,336615,478305.0,472276.0,480321.0,474288.0,13
1,1,0,0,0,5,test,1,1,z,Fri Feb 21 2025 17:05:16 GMT-0600 (Central Standard Time),493582.9000000004,O,z,1568,14,1,49.bmp,-120,-120,50.bmp,120,-120,4.bmp,-120,120,1.bmp,120,120,9627.0,483955.9000000004,7056,yes,SM,B,49.bmp,-120,-120,340631,334605,342647,336615,487502.0,481472.0,489518.0,483485.0,14
4,0,0,0,1,6,test,1,1,m,Fri Feb 21 2025 17:05:16 GMT-0600 (Central Standard Time),502796.2000000002,O,m,1164,15,1,10.bmp,-120,-120,11.bmp,120,-120,12.bmp,-120,120,13.bmp,120,120,9208.900000000373,493587.2999999998,7056,yes,SM,B,11.bmp,120,120,340631,334605,342647,336615,497131.0,491103.0,499147.0,493116.0,15
1,1,0,0,0,6,test,1,0,m,Fri Feb 21 2025 17:05:16 GMT-0600 (Central Standard Time),511261.0,O,z,421,16,1,2.bmp,-120,-120,3.bmp,120,-120,4.bmp,-120,120,5.bmp,120,120,8460.099999999627,502800.9000000004,7056,yes,SM,B,5.bmp,-120,-120,340631,334605,342647,336615,506344.0,500317.0,508346.0,502329.0,16
3,0,0,1,0,7,test,1,1,m,Fri Feb 21 2025 17:05:16 GMT-0600 (Central Standard Time),520474.4000000004,O,m,1149,17,1,22.bmp,-120,-120,23.bmp,120,-120,24.bmp,-120,120,25.bmp,120,120,9209.600000000559,511264.7999999998,7056,yes,SM,B,22.bmp,-120,120,340631,334605,342647,336615,514809.0,508781.0,516826.0,510794.0,17
1,1,0,0,0,8,test,1,1,z,Fri Feb 21 2025 17:05:16 GMT-0600 (Central Standard Time),530236.6000000006,O,z,1719,18,1,6.bmp,-120,-120,7.bmp,120,-120,8.bmp,-120,120,9.bmp,120,120,9759.900000000373,520476.7000000002,7056,yes,SM,B,6.bmp,-120,-120,340631,334605,342647,336615,524021.0,517993.0,526023.0,520008.0,18
2,0,1,0,0,8,test,1,0,z,Fri Feb 21 2025 17:05:16 GMT-0600 (Central Standard Time),540301.2999999998,O,None,2013,19,1,26.bmp,-120,-120,27.bmp,120,-120,28.bmp,-120,120,29.bmp,120,120,10059.799999999814,530241.5,7056,yes,SM,B,27.bmp,120,-120,340631,334605,342647,336615,533785.0,527758.0,535804.0,529771.0,19
3,0,0,1,0,8,test,1,0,z,Fri Feb 21 2025 17:05:16 GMT-0600 (Central Standard Time),549382.2999999998,O,m,1020,20,1,30.bmp,-120,-120,31.bmp,120,-120,32.bmp,-120,120,33.bmp,120,120,9075.5,540306.7999999998,7056,yes,SM,B,32.bmp,-120,120,340631,334605,342647,336615,543850.0,537823.0,545867.0,539835.0,20
1,1,0,0,0,9,test,1,1,m,Fri Feb 21 2025 17:05:16 GMT-0600 (Central Standard Time),558410.7000000002,O,m,998,21,1,14.bmp,-120,-120,15.bmp,120,-120,16.bmp,-120,120,17.bmp,120,120,9025.200000000186,549385.5,7056,yes,SM,B,16.bmp,-120,-120,340631,334605,342647,336615,552927.0,546902.0,554929.0,548916.0,21
4,0,0,0,1,9,test,1,0,z,Fri Feb 21 2025 17:05:16 GMT-0600 (Central Standard Time),567874.7999999998,O,m,1409,22,1,18.bmp,-120,-120,19.bmp,120,-120,20.bmp,-120,120,21.bmp,120,120,9461.699999999255,558413.1000000006,7056,yes,SM,B,21.bmp,120,120,340631,334605,342647,336615,561958.0,555929.0,563974.0,557943.0,22
1,1,0,0,0,10,test,1,1,m,Fri Feb 21 2025 17:05:16 GMT-0600 (Central Standard Time),577072.7000000002,O,m,1142,23,1,34.bmp,-120,-120,35.bmp,120,-120,36.bmp,-120,120,37.bmp,120,120,9194.299999999814,567878.4000000004,7056,yes,SM,B,37.bmp,-120,-120,340631,334605,342647,336615,571425.0,565395.0,573441.0,567409.0,23
2,0,1,0,0,10,test,1,0,z,Fri Feb 21 2025 17:05:16 GMT-0600 (Central Standard Time),586351.5,O,m,1230,24,1,42.bmp,-120,-120,43.bmp,120,-120,44.bmp,-120,120,45.bmp,120,120,9275.299999999814,577076.2000000002,7056,yes,SM,B,43.bmp,120,-120,340631,334605,342647,336615,580621.0,574593.0,582623.0,576607.0,24
4,0,0,0,1,11,test,1,1,m,Fri Feb 21 2025 17:05:16 GMT-0600 (Central Standard Time),595550.7999999998,O,m,1145,25,1,46.bmp,-120,-120,47.bmp,120,-120,48.bmp,-120,120,49.bmp,120,120,9197.099999999627,586353.7000000002,7056,yes,SM,B,48.bmp,120,120,340631,334605,342647,336615,589901.0,583870.0,591918.0,585888.0,25
1,1,0,0,0,11,test,1,0,z,Fri Feb 21 2025 17:05:16 GMT-0600 (Central Standard Time),604847.2999999998,O,m,1235,26,1,38.bmp,-120,-120,39.bmp,120,-120,40.bmp,-120,120,41.bmp,120,120,9293.599999999627,595553.7000000002,7056,yes,SM,B,38.bmp,-120,-120,340631,334605,342647,336615,599098.0,593070.0,601115.0,595085.0,26
4,0,0,0,1,11,test,1,0,z,Fri Feb 21 2025 17:05:16 GMT-0600 (Central Standard Time),614161.1000000006,O,m,1261,27,1,50.bmp,-120,-120,11.bmp,120,-120,1.bmp,-120,120,2.bmp,120,120,9310.600000000559,604850.5,7056,yes,SM,B,2.bmp,120,120,340631,334605,342647,336615,608395.0,602367.0,610410.0,604382.0,27
3,0,0,1,0,12,test,1,1,m,Fri Feb 21 2025 17:05:16 GMT-0600 (Central Standard Time),623475.2999999998,O,m,1257,28,1,3.bmp,-120,-120,4.bmp,120,-120,5.bmp,-120,120,6.bmp,120,120,9310.699999999255,614164.6000000006,7056,yes,SM,B,3.bmp,-120,120,340631,334605,342647,336615,617709.0,611681.0,619725.0,613695.0,28
2,0,1,0,0,12,test,1,0,z,Fri Feb 21 2025 17:05:16 GMT-0600 (Central Standard Time),632706.6000000006,O,m,1174,29,1,7.bmp,-120,-120,8.bmp,120,-120,9.bmp,-120,120,10.bmp,120,120,9227.300000000745,623479.2999999998,7056,yes,SM,B,8.bmp,120,-120,340631,334605,342647,336615,627024.0,620996.0,629041.0,623011.0,29
3,0,0,1,0,13,test,1,1,z,Fri Feb 21 2025 17:05:16 GMT-0600 (Central Standard Time),641970.1000000006,O,z,1199,30,1,11.bmp,-120,-120,12.bmp,120,-120,13.bmp,-120,120,14.bmp,120,120,9256.800000000745,632713.2999999998,7056,yes,SM,B,13.bmp,-120,120,340631,334605,342647,336615,636255.0,630230.0,638272.0,632240.0,30
1,1,0,0,0,14,test,1,1,z,Fri Feb 21 2025 17:05:16 GMT-0600 (Central Standard Time),651583.2000000002,O,z,1553,31,1,15.bmp,-120,-120,16.bmp,120,-120,17.bmp,-120,120,18.bmp,120,120,9606.400000000373,641976.7999999998,7056,yes,SM,B,15.bmp,-120,-120,340631,334605,342647,336615,645519.0,639493.0,647534.0,641502.0,31
2,0,1,0,0,15,test,1,1,m,Fri Feb 21 2025 17:05:16 GMT-0600 (Central Standard Time),660696.7000000002,O,m,1058,32,1,19.bmp,-120,-120,20.bmp,120,-120,21.bmp,-120,120,22.bmp,120,120,9109.099999999627,651587.6000000006,7056,yes,SM,B,19.bmp,120,-120,340631,334605,342647,336615,655132.0,649104.0,657149.0,651115.0,32
4,0,0,0,1,16,test,1,1,z,Fri Feb 21 2025 17:05:16 GMT-0600 (Central Standard Time),670360.4000000004,O,z,1601,33,1,31.bmp,-120,-120,32.bmp,120,-120,33.bmp,-120,120,34.bmp,120,120,9658.5,660701.9000000004,7056,yes,SM,B,34.bmp,120,120,340631,334605,342647,336615,664245.0,658218.0,666262.0,660230.0,33
2,0,1,0,0,17,test,1,1,z,Fri Feb 21 2025 17:05:16 GMT-0600 (Central Standard Time),679807.1000000006,O,z,1385,34,1,23.bmp,-120,-120,24.bmp,120,-120,25.bmp,-120,120,26.bmp,120,120,9443.100000000559,670364.0,7056,yes,SM,B,24.bmp,120,-120,340631,334605,342647,336615,673909.0,667880.0,675925.0,669894.0,34
4,0,0,0,1,18,test,1,1,m,Fri Feb 21 2025 17:05:16 GMT-0600 (Central Standard Time),688838.6000000006,O,m,970,35,1,27.bmp,-120,-120,28.bmp,120,-120,29.bmp,-120,120,30.bmp,120,120,9027.400000000373,679811.2000000002,7056,yes,SM,B,29.bmp,120,120,340631,334605,342647,336615,683355.0,677327.0,685372.0,679342.0,35
3,0,0,1,0,19,test,1,1,m,Fri Feb 21 2025 17:05:16 GMT-0600 (Central Standard Time),698636.2000000002,O,m,1735,36,1,35.bmp,-120,-120,36.bmp,120,-120,37.bmp,-120,120,38.bmp,120,120,9793.599999999627,688842.6000000006,7056,yes,SM,B,35.bmp,-120,120,340631,334605,342647,336615,692385.0,686359.0,694401.0,688370.0,36
1,1,0,0,0,20,test,1,1,m,Fri Feb 21 2025 17:05:16 GMT-0600 (Central Standard Time),708315.0,O,m,1614,37,1,39.bmp,-120,-120,40.bmp,120,-120,41.bmp,-120,120,42.bmp,120,120,9674.799999999814,698640.2000000002,7056,yes,SM,B,40.bmp,-120,-120,340631,334605,342647,336615,702182.0,696156.0,704199.0,698168.0,37
2,0,1,0,0,21,test,1,1,m,Fri Feb 21 2025 17:05:16 GMT-0600 (Central Standard Time),717198.0,O,m,835,38,1,43.bmp,-120,-120,44.bmp,120,-120,45.bmp,-120,120,46.bmp,120,120,8879.700000000186,708318.2999999998,7056,yes,SM,B,45.bmp,120,-120,340631,334605,342647,336615,711863.0,705835.0,713879.0,707848.0,38
4,0,0,0,1,22,test,1,1,z,Fri Feb 21 2025 17:05:16 GMT-0600 (Central Standard Time),726775.9000000004,O,z,1518,39,1,47.bmp,-120,-120,48.bmp,120,-120,49.bmp,-120,120,50.bmp,120,120,9574.100000000559,717201.7999999998,7056,yes,SM,B,50.bmp,120,120,340631,334605,342647,336615,720745.0,714718.0,722760.0,716728.0,39
3,0,0,1,0,23,test,1,1,m,Fri Feb 21 2025 17:05:16 GMT-0600 (Central Standard Time),735988.9000000004,O,m,1163,40,1,4.bmp,-120,-120,5.bmp,120,-120,6.bmp,-120,120,7.bmp,120,120,9210.700000000186,726778.2000000002,7056,yes,SM,B,5.bmp,-120,120,340631,334605,342647,336615,730323.0,724294.0,732340.0,726310.0,40
1,1,0,0,0,24,test,1,1,z,Fri Feb 21 2025 17:05:16 GMT-0600 (Central Standard Time),745453.2999999998,O,z,1406,41,1,8.bmp,-120,-120,9.bmp,120,-120,10.bmp,-120,120,11.bmp,120,120,9459.399999999441,735993.9000000004,7056,yes,SM,B,8.bmp,-120,-120,340631,334605,342647,336615,739537.0,733510.0,741553.0,735522.0,41
4,0,0,0,1,25,test,1,1,z,Fri Feb 21 2025 17:05:16 GMT-0600 (Central Standard Time),754966.4000000004,O,z,1455,42,1,12.bmp,-120,-120,13.bmp,120,-120,14.bmp,-120,120,15.bmp,120,120,9507.900000000373,745458.5,7056,yes,SM,B,15.bmp,120,120,340631,334605,342647,336615,749000.0,742975.0,751016.0,744986.0,42
1,1,0,0,0,25,test,1,0,z,Fri Feb 21 2025 17:05:16 GMT-0600 (Central Standard Time),765030.5,O,None,2015,43,1,16.bmp,-120,-120,17.bmp,120,-120,18.bmp,-120,120,19.bmp,120,120,10059.700000000186,754970.7999999998,7056,yes,SM,B,16.bmp,-120,-120,340631,334605,342647,336615,758515.0,752487.0,760531.0,754499.0,43
4,0,0,0,1,26,test,1,1,m,Fri Feb 21 2025 17:05:16 GMT-0600 (Central Standard Time),774327.1000000006,O,m,1247,44,1,4.bmp,-120,-120,1.bmp,120,-120,2.bmp,-120,120,3.bmp,120,120,9293.200000000186,765033.9000000004,7056,yes,SM,B,4.bmp,120,120,340631,334605,342647,336615,768579.0,762550.0,770596.0,764563.0,44
1,1,0,0,0,27,test,1,1,m,Fri Feb 21 2025 17:05:16 GMT-0600 (Central Standard Time),783591.0,O,m,1211,45,1,28.bmp,-120,-120,29.bmp,120,-120,30.bmp,-120,120,31.bmp,120,120,9260.799999999814,774330.2000000002,7056,yes,SM,B,31.bmp,-120,-120,340631,334605,342647,336615,777877.0,771846.0,779892.0,773859.0,45
1,1,0,0,0,28,test,1,1,m,Fri Feb 21 2025 17:05:16 GMT-0600 (Central Standard Time),792637.5,O,m,988,46,1,20.bmp,-120,-120,21.bmp,120,-120,22.bmp,-120,120,23.bmp,120,120,9043.700000000186,783593.7999999998,7056,yes,SM,B,21.bmp,-120,-120,340631,334605,342647,336615,787139.0,781110.0,789155.0,783124.0,46
3,0,0,1,0,28,test,1,0,z,Fri Feb 21 2025 17:05:16 GMT-0600 (Central Standard Time),802068.4000000004,O,m,1372,47,1,24.bmp,-120,-120,25.bmp,120,-120,26.bmp,-120,120,27.bmp,120,120,9428.200000000186,792640.2000000002,7056,yes,SM,B,26.bmp,-120,120,340631,334605,342647,336615,796186.0,790156.0,798203.0,792170.0,47
3,0,0,1,0,29,test,1,1,z,Fri Feb 21 2025 17:05:16 GMT-0600 (Central Standard Time),811382.2999999998,O,z,1263,48,1,40.bmp,-120,-120,41.bmp,120,-120,42.bmp,-120,120,43.bmp,120,120,9310.699999999255,802071.6000000006,7056,yes,SM,B,42.bmp,-120,120,340631,334605,342647,336615,805617.0,799588.0,807632.0,801601.0,48
2,0,1,0,0,30,test,1,1,z,Fri Feb 21 2025 17:05:16 GMT-0600 (Central Standard Time),821095.5,O,z,1660,49,1,36.bmp,-120,-120,37.bmp,120,-120,38.bmp,-120,120,39.bmp,120,120,9709.200000000186,811386.2999999998,7056,yes,SM,B,37.bmp,120,-120,340631,334605,342647,336615,814931.0,808903.0,816947.0,810915.0,49
3,0,0,1,0,30,test,1,0,m,Fri Feb 21 2025 17:05:16 GMT-0600 (Central Standard Time),830493.0,O,z,1340,50,1,32.bmp,-120,-120,33.bmp,120,-120,34.bmp,-120,120,35.bmp,120,120,9394.0,821099.0,7056,yes,SM,B,32.bmp,-120,120,340631,334605,342647,336615,824644.0,818615.0,826659.0,820628.0,50
2,0,1,0,0,31,test,1,1,z,Fri Feb 21 2025 17:05:16 GMT-0600 (Central Standard Time),839557.6000000006,O,z,1033,51,1,44.bmp,-120,-120,45.bmp,120,-120,46.bmp,-120,120,47.bmp,120,120,9061.600000000559,830496.0,7056,yes,SM,B,45.bmp,120,-120,340631,334605,342647,336615,834025.0,828012.0,836040.0,830024.0,51
4,0,0,0,1,32,test,1,1,m,Fri Feb 21 2025 17:05:16 GMT-0600 (Central Standard Time),848637.1000000006,O,m,1021,52,1,48.bmp,-120,-120,49.bmp,120,-120,50.bmp,-120,120,31.bmp,120,120,9076.100000000559,839561.0,7056,yes,SM,B,48.bmp,120,120,340631,334605,342647,336615,843105.0,837077.0,845122.0,839089.0,52
3,0,0,1,0,33,test,1,1,z,Fri Feb 21 2025 17:05:16 GMT-0600 (Central Standard Time),857917.2999999998,O,z,1221,53,1,1.bmp,-120,-120,2.bmp,120,-120,3.bmp,-120,120,4.bmp,120,120,9277.099999999627,848640.2000000002,7056,yes,SM,B,3.bmp,-120,120,340631,334605,342647,336615,852183.0,846156.0,854202.0,848170.0,53
1,1,0,0,0,33,test,1,0,m,Fri Feb 21 2025 17:05:16 GMT-0600 (Central Standard Time),867148.7999999998,O,z,1198,54,1,5.bmp,-120,-120,6.bmp,120,-120,7.bmp,-120,120,8.bmp,120,120,9229.199999999255,857919.6000000006,7056,yes,SM,B,7.bmp,-120,-120,340631,334605,342647,336615,861464.0,855436.0,863466.0,857451.0,54
4,0,0,0,1,34,test,1,1,z,Fri Feb 21 2025 17:05:16 GMT-0600 (Central Standard Time),876414.2000000002,O,z,1218,55,1,9.bmp,-120,-120,10.bmp,120,-120,11.bmp,-120,120,12.bmp,120,120,9257.799999999814,867156.4000000004,7056,yes,SM,B,12.bmp,120,120,340631,334605,342647,336615,870698.0,864673.0,872712.0,866680.0,55
2,0,1,0,0,35,test,1,1,m,Fri Feb 21 2025 17:05:16 GMT-0600 (Central Standard Time),885574.9000000004,O,m,1109,56,1,13.bmp,-120,-120,14.bmp,120,-120,15.bmp,-120,120,16.bmp,120,120,9157.299999999814,876417.6000000006,7056,yes,SM,B,13.bmp,120,-120,340631,334605,342647,336615,879960.0,873934.0,881977.0,875945.0,56
4,0,0,0,1,35,test,1,0,m,Fri Feb 21 2025 17:05:16 GMT-0600 (Central Standard Time),895221.4000000004,O,z,1586,57,1,17.bmp,-120,-120,18.bmp,120,-120,19.bmp,-120,120,20.bmp,120,120,9642.900000000373,885578.5,7056,yes,SM,B,18.bmp,120,120,340631,334605,342647,336615,889124.0,883095.0,891140.0,885110.0,57
3,0,0,1,0,35,test,1,0,z,Fri Feb 21 2025 17:05:16 GMT-0600 (Central Standard Time),905286.2000000002,O,None,2016,58,1,21.bmp,-120,-120,22.bmp,120,-120,23.bmp,-120,120,24.bmp,120,120,10059.700000000186,895226.5,7056,yes,SM,B,23.bmp,-120,120,340631,334605,342647,336615,898773.0,892743.0,900786.0,894757.0,58
2,0,1,0,0,35,test,1,0,m,Fri Feb 21 2025 17:05:16 GMT-0600 (Central Standard Time),914365.7999999998,O,z,1032,59,1,25.bmp,-120,-120,26.bmp,120,-120,27.bmp,-120,120,28.bmp,120,120,9075.0,905290.7999999998,7056,yes,SM,B,28.bmp,120,-120,340631,334605,342647,336615,908834.0,902807.0,910849.0,904818.0,59
1,1,0,0,0,36,test,1,1,z,Fri Feb 21 2025 17:05:16 GMT-0600 (Central Standard Time),923462.7999999998,O,z,1036,60,1,29.bmp,-120,-120,30.bmp,120,-120,31.bmp,-120,120,32.bmp,120,120,9093.799999999814,914369.0,7056,yes,SM,B,29.bmp,-120,-120,340631,334605,342647,336615,917914.0,911885.0,919930.0,913898.0,60
2,0,1,0,0,36,test,1,0,z,Fri Feb 21 2025 17:05:16 GMT-0600 (Central Standard Time),932493.0,O,m,971,61,1,33.bmp,-120,-120,34.bmp,120,-120,35.bmp,-120,120,36.bmp,120,120,9026.799999999814,923466.2000000002,7056,yes,SM,B,34.bmp,120,-120,340631,334605,342647,336615,927011.0,920982.0,929028.0,922996.0,61
4,0,0,0,1,36,test,1,0,z,Fri Feb 21 2025 17:05:16 GMT-0600 (Central Standard Time),941857.1000000006,O,m,1309,62,1,41.bmp,-120,-120,42.bmp,120,-120,43.bmp,-120,120,44.bmp,120,120,9361.100000000559,932496.0,7056,yes,SM,B,44.bmp,120,120,340631,334605,342647,336615,936042.0,930012.0,938058.0,932026.0,62
1,1,0,0,0,36,test,1,0,m,Fri Feb 21 2025 17:05:16 GMT-0600 (Central Standard Time),951021.9000000004,O,z,1131,63,1,45.bmp,-120,-120,46.bmp,120,-120,47.bmp,-120,120,48.bmp,120,120,9162.200000000186,941859.7000000002,7056,yes,SM,B,45.bmp,-120,120,340631,334605,342647,336615,945405.0,939376.0,947407.0,941391.0,63
2,0,1,0,0,37,test,1,1,z,Fri Feb 21 2025 17:05:16 GMT-0600 (Central Standard Time),960385.7999999998,O,z,1309,64,1,49.bmp,-120,-120,50.bmp,120,-120,12.bmp,-120,120,1.bmp,120,120,9360.5,951025.2999999998,7056,yes,SM,B,50.bmp,120,-120,340631,334605,342647,336615,954568.0,948542.0,956584.0,950554.0,64
4,0,0,0,1,38,test,1,1,m,Fri Feb 21 2025 17:05:16 GMT-0600 (Central Standard Time),969665.0,O,m,1225,65,1,2.bmp,-120,-120,3.bmp,120,-120,4.bmp,-120,120,5.bmp,120,120,9271.899999999441,960393.1000000006,7056,yes,SM,B,4.bmp,120,120,340631,334605,342647,336615,963932.0,957909.0,965950.0,959916.0,65
3,0,0,1,0,39,test,1,1,m,Fri Feb 21 2025 17:05:16 GMT-0600 (Central Standard Time),978862.2000000002,O,m,1162,66,1,6.bmp,-120,-120,7.bmp,120,-120,8.bmp,-120,120,9.bmp,120,120,9193.700000000186,969668.5,7056,yes,SM,B,9.bmp,-120,120,340631,334605,342647,336615,973196.0,967185.0,975213.0,969189.0,66
2,0,1,0,0,39,test,1,0,m,Fri Feb 21 2025 17:05:16 GMT-0600 (Central Standard Time),988643.6000000006,O,z,1731,67,1,37.bmp,-120,-120,38.bmp,120,-120,39.bmp,-120,120,40.bmp,120,120,9777.800000000745,978865.7999999998,7056,yes,SM,B,39.bmp,120,-120,340631,334605,342647,336615,982410.0,976382.0,984428.0,978395.0,67
3,0,0,1,0,40,test,1,1,z,Fri Feb 21 2025 17:05:16 GMT-0600 (Central Standard Time),997790.5,O,z,1087,68,1,10.bmp,-120,-120,11.bmp,120,-120,12.bmp,-120,120,13.bmp,120,120,9142.599999999627,988647.9000000004,7056,yes,SM,B,12.bmp,-120,120,340631,334605,342647,336615,992190.0,986164.0,994207.0,988175.0,68
1,1,0,0,0,41,test,1,1,m,Fri Feb 21 2025 17:05:16 GMT-0600 (Central Standard Time),1006703.0,O,m,859,69,1,14.bmp,-120,-120,15.bmp,120,-120,16.bmp,-120,120,17.bmp,120,120,8908.799999999814,997794.2000000002,7056,yes,SM,B,15.bmp,-120,-120,340631,334605,342647,336615,1001337.0,995311.0,1003355.0,997322.0,69
2,0,1,0,0,42,test,1,1,m,Fri Feb 21 2025 17:05:16 GMT-0600 (Central Standard Time),1016267.0,O,m,1502,70,1,18.bmp,-120,-120,19.bmp,120,-120,20.bmp,-120,120,21.bmp,120,120,9560.099999999627,1006706.9000000004,7056,yes,SM,B,20.bmp,120,-120,340631,334605,342647,336615,1010251.0,1004223.0,1012266.0,1006236.0,70
4,0,0,0,1,43,test,1,1,z,Fri Feb 21 2025 17:05:16 GMT-0600 (Central Standard Time),1026130.1000000006,O,z,1808,71,1,22.bmp,-120,-120,23.bmp,120,-120,24.bmp,-120,120,25.bmp,120,120,9859.200000000186,1016270.9000000004,7056,yes,SM,B,25.bmp,120,120,340631,334605,342647,336615,1019815.0,1013787.0,1021831.0,1015801.0,71
1,1,0,0,0,44,test,1,1,z,Fri Feb 21 2025 17:05:16 GMT-0600 (Central Standard Time),1035410.6000000006,O,z,1224,72,1,26.bmp,-120,-120,27.bmp,120,-120,28.bmp,-120,120,29.bmp,120,120,9276.600000000559,1026134.0,7056,yes,SM,B,26.bmp,-120,-120,340631,334605,342647,336615,1029678.0,1023650.0,1031695.0,1025664.0,72
2,0,1,0,0,45,test,1,1,z,Fri Feb 21 2025 17:05:16 GMT-0600 (Central Standard Time),1044822.2000000002,O,z,1357,73,1,30.bmp,-120,-120,31.bmp,120,-120,32.bmp,-120,120,33.bmp,120,120,9408.099999999627,1035414.1000000006,7056,yes,SM,B,31.bmp,120,-120,340631,334605,342647,336615,1038959.0,1032930.0,1040976.0,1034943.0,73
4,0,0,0,1,46,test,1,1,m,Fri Feb 21 2025 17:05:16 GMT-0600 (Central Standard Time),1054457.2999999998,O,m,1577,74,1,34.bmp,-120,-120,35.bmp,120,-120,36.bmp,-120,120,37.bmp,120,120,9630.099999999627,1044827.2000000002,7056,yes,SM,B,36.bmp,120,120,340631,334605,342647,336615,1048372.0,1042343.0,1050390.0,1044357.0,74
2,0,1,0,0,46,test,1,0,m,Fri Feb 21 2025 17:05:16 GMT-0600 (Central Standard Time),1063917.2000000002,O,z,1404,75,1,38.bmp,-120,-120,39.bmp,120,-120,40.bmp,-120,120,41.bmp,120,120,9457.5,1054459.7000000002,7056,yes,SM,B,41.bmp,120,-120,340631,334605,342647,336615,1058004.0,1051976.0,1060018.0,1053988.0,75
1,1,0,0,0,47,test,1,1,z,Fri Feb 21 2025 17:05:16 GMT-0600 (Central Standard Time),1073298.6000000006,O,z,1347,76,1,42.bmp,-120,-120,43.bmp,120,-120,44.bmp,-120,120,45.bmp,120,120,9377.600000000559,1063921.0,7056,yes,SM,B,42.bmp,-120,-120,340631,334605,342647,336615,1067450.0,1061437.0,1069467.0,1063449.0,76
3,0,0,1,0,48,test,1,1,z,Fri Feb 21 2025 17:05:16 GMT-0600 (Central Standard Time),1082462.4000000004,O,z,1101,77,1,50.bmp,-120,-120,11.bmp,120,-120,1.bmp,-120,120,2.bmp,120,120,9160.299999999814,1073302.1000000006,7056,yes,SM,B,1.bmp,-120,120,340631,334605,342647,336615,1076847.0,1070818.0,1078865.0,1072832.0,77
1,1,0,0,0,49,test,1,1,m,Fri Feb 21 2025 17:05:16 GMT-0600 (Central Standard Time),1091709.0,O,m,1196,78,1,46.bmp,-120,-120,47.bmp,120,-120,48.bmp,-120,120,49.bmp,120,120,9243.099999999627,1082465.9000000004,7056,yes,SM,B,47.bmp,-120,-120,340631,334605,342647,336615,1086010.0,1079982.0,1088027.0,1081995.0,78
4,0,0,0,1,50,test,1,1,m,Fri Feb 21 2025 17:05:16 GMT-0600 (Central Standard Time),1100689.7000000002,O,m,942,79,1,7.bmp,-120,-120,8.bmp,120,-120,9.bmp,-120,120,10.bmp,120,120,8977.5,1091712.2000000002,7056,yes,SM,B,7.bmp,120,120,340631,334605,342647,336615,1095256.0,1089228.0,1097257.0,1091243.0,79
3,0,0,1,0,51,test,1,1,m,Fri Feb 21 2025 17:05:16 GMT-0600 (Central Standard Time),1109836.9000000004,O,m,1088,80,1,3.bmp,-120,-120,4.bmp,120,-120,5.bmp,-120,120,6.bmp,120,120,9144.100000000559,1100692.7999999998,7056,yes,SM,B,6.bmp,-120,120,340631,334605,342647,336615,1104238.0,1098209.0,1106255.0,1100223.0,80
