acc_sum,block,block_c,change,condition,correct,correct_response,datetime,endtime,face,project,response,response_time,row_sel,session_number,start_end,starttime,subject_id,task,task_vers,trial
0,prac,1,,1-Back,,,Fri Apr 18 2025 14:52:38 GMT-0500 (Central Daylight Time),,012_o_f_d_a.png,O,space,6618,1,1,,,7129,VNB,C,0
1,prac,1,0.0,1-Back,1,m,Fri Apr 18 2025 14:52:38 GMT-0500 (Central Daylight Time),151148.5,022_y_f_n_a.png,O,m,1665,2,1,2554.5999999940395,148593.90000000596,7129,VNB,C,1
2,prac,1,0.0,1-Back,1,m,Fri Apr 18 2025 14:52:38 GMT-0500 (Central Daylight Time),153031.70000001788,014_m_m_h_a.png,O,m,1009,3,1,1874.300000011921,151157.40000000596,7129,VNB,C,2
2,prac,1,0.0,1-Back,0,m,Fri Apr 18 2025 14:52:38 GMT-0500 (Central Daylight Time),154863.70000001788,025_y_m_d_a.png,O,z,969,4,1,1821.0999999940395,153042.60000002384,7129,VNB,C,3
3,prac,1,0.0,1-Back,1,m,Fri Apr 18 2025 14:52:38 GMT-0500 (Central Daylight Time),157578.5,012_o_f_n_a.png,O,m,1833,5,1,2705.699999988079,154872.80000001192,7129,VNB,C,4
3,prac,1,1.0,1-Back,0,z,Fri Apr 18 2025 14:52:38 GMT-0500 (Central Daylight Time),159497.10000002384,025_y_m_n_a.png,O,m,1054,6,1,1908.300000011921,157588.80000001192,7129,VNB,C,5
4,prac,1,0.0,1-Back,1,m,Fri Apr 18 2025 14:52:38 GMT-0500 (Central Daylight Time),161427.90000000596,015_o_m_h_a.png,O,m,1039,7,1,1921.5,159506.40000000596,7129,VNB,C,6
5,prac,1,0.0,1-Back,1,m,Fri Apr 18 2025 14:52:38 GMT-0500 (Central Daylight Time),163494.30000001192,019_m_f_d_a.png,O,m,1167,8,1,2058.300000011921,161436.0,7129,VNB,C,7
6,prac,1,1.0,1-Back,1,z,Fri Apr 18 2025 14:52:38 GMT-0500 (Central Daylight Time),165478.10000002384,022_y_f_d_a.png,O,z,1085,9,1,1978.7000000178814,163499.40000000596,7129,VNB,C,8
7,prac,1,0.0,1-Back,1,m,Fri Apr 18 2025 14:52:38 GMT-0500 (Central Daylight Time),167293.60000002384,014_m_m_n_a.png,O,m,948,10,1,1807.1000000238419,165486.5,7129,VNB,C,9
8,prac,1,0.0,1-Back,1,m,Fri Apr 18 2025 14:52:38 GMT-0500 (Central Daylight Time),169076.10000002384,012_o_f_h_a.png,O,m,890,11,1,1773.6000000238419,167302.5,7129,VNB,C,10
8,prac,1,0.0,1-Back,0,m,Fri Apr 18 2025 14:52:38 GMT-0500 (Central Daylight Time),170758.90000000596,025_y_m_d_a.png,O,z,812,12,1,1673.0,169085.90000000596,7129,VNB,C,11
0,prac,2,0.0,1-Back,,,Fri Apr 18 2025 14:52:38 GMT-0500 (Central Daylight Time),170758.90000000596,012_o_f_d_a.png,O,a,4545,1,1,1673.0,169085.90000000596,7129,VNB,C,0
1,prac,2,0.0,1-Back,1,m,Fri Apr 18 2025 14:52:38 GMT-0500 (Central Daylight Time),180558.90000000596,022_y_f_n_a.png,O,m,1323,2,1,2190.9000000059605,178368.0,7129,VNB,C,1
2,prac,2,0.0,1-Back,1,m,Fri Apr 18 2025 14:52:38 GMT-0500 (Central Daylight Time),182488.40000000596,014_m_m_h_a.png,O,m,1020,3,1,1923.5,180564.90000000596,7129,VNB,C,2
2,prac,2,0.0,1-Back,0,m,Fri Apr 18 2025 14:52:38 GMT-0500 (Central Daylight Time),184136.0,025_y_m_d_a.png,O,z,861,4,1,1636.5999999940395,182499.40000000596,7129,VNB,C,3
3,prac,2,0.0,1-Back,1,m,Fri Apr 18 2025 14:52:38 GMT-0500 (Central Daylight Time),186771.40000000596,012_o_f_n_a.png,O,m,1743,5,1,2627.4000000059605,184144.0,7129,VNB,C,4
3,prac,2,1.0,1-Back,0,z,Fri Apr 18 2025 14:52:38 GMT-0500 (Central Daylight Time),188569.10000002384,025_y_m_n_a.png,O,m,927,6,1,1789.2000000178814,186779.90000000596,7129,VNB,C,5
4,prac,2,0.0,1-Back,1,m,Fri Apr 18 2025 14:52:38 GMT-0500 (Central Daylight Time),190453.40000000596,015_o_m_h_a.png,O,m,978,7,1,1873.5999999940395,188579.80000001192,7129,VNB,C,6
5,prac,2,0.0,1-Back,1,m,Fri Apr 18 2025 14:52:38 GMT-0500 (Central Daylight Time),192335.70000001788,019_m_f_d_a.png,O,m,986,8,1,1873.0,190462.70000001788,7129,VNB,C,7
6,prac,2,1.0,1-Back,1,z,Fri Apr 18 2025 14:52:38 GMT-0500 (Central Daylight Time),194135.60000002384,022_y_f_d_a.png,O,z,915,9,1,1791.6000000238419,192344.0,7129,VNB,C,8
7,prac,2,0.0,1-Back,1,m,Fri Apr 18 2025 14:52:38 GMT-0500 (Central Daylight Time),196167.60000002384,014_m_m_n_a.png,O,m,1176,10,1,2023.7000000178814,194143.90000000596,7129,VNB,C,9
8,prac,2,0.0,1-Back,1,m,Fri Apr 18 2025 14:52:38 GMT-0500 (Central Daylight Time),197900.20000001788,012_o_f_h_a.png,O,m,840,11,1,1723.7000000178814,196176.5,7129,VNB,C,10
9,prac,2,0.0,1-Back,1,m,Fri Apr 18 2025 14:52:38 GMT-0500 (Central Daylight Time),199581.10000002384,025_y_m_d_a.png,O,m,811,12,1,1671.9000000059605,197909.20000001788,7129,VNB,C,11
0,test,1,0.0,1-Back,,,Fri Apr 18 2025 14:52:38 GMT-0500 (Central Daylight Time),199581.10000002384,022_y_f_d_a.png,O,space,8799,1,1,1671.9000000059605,197909.20000001788,7129,VNB,C,0
1,test,1,0.0,1-Back,1,m,Fri Apr 18 2025 14:52:38 GMT-0500 (Central Daylight Time),218458.80000001192,019_m_f_n_a.png,O,m,1272,2,1,2287.0,216171.80000001192,7129,VNB,C,1
2,test,1,0.0,1-Back,1,m,Fri Apr 18 2025 14:52:38 GMT-0500 (Central Daylight Time),221158.90000000596,015_o_m_h_a.png,O,m,1667,3,1,2692.5999999940395,218466.30000001192,7129,VNB,C,2
3,test,1,1.0,1-Back,1,z,Fri Apr 18 2025 14:52:38 GMT-0500 (Central Daylight Time),223357.20000001788,014_m_m_h_a.png,O,z,1168,4,1,2189.300000011921,221167.90000000596,7129,VNB,C,3
4,test,1,0.0,1-Back,1,m,Fri Apr 18 2025 14:52:38 GMT-0500 (Central Daylight Time),225491.60000002384,012_o_f_n_a.png,O,m,1115,5,1,2128.0,223363.60000002384,7129,VNB,C,4
5,test,1,0.0,1-Back,1,m,Fri Apr 18 2025 14:52:38 GMT-0500 (Central Daylight Time),227525.0,025_y_m_d_a.png,O,m,1012,6,1,2024.699999988079,225500.30000001192,7129,VNB,C,5
5,test,1,1.0,1-Back,0,z,Fri Apr 18 2025 14:52:38 GMT-0500 (Central Daylight Time),229771.90000000596,019_m_f_d_a.png,O,m,1226,7,1,2243.9000000059605,227528.0,7129,VNB,C,6
6,test,1,0.0,1-Back,1,m,Fri Apr 18 2025 14:52:38 GMT-0500 (Central Daylight Time),232222.20000001788,022_y_f_h_a.png,O,m,1418,8,1,2444.2000000178814,229778.0,7129,VNB,C,7
7,test,1,0.0,1-Back,1,m,Fri Apr 18 2025 14:52:38 GMT-0500 (Central Daylight Time),234706.0,015_o_m_n_a.png,O,m,1466,9,1,2475.699999988079,232230.30000001192,7129,VNB,C,8
8,test,1,0.0,1-Back,1,m,Fri Apr 18 2025 14:52:38 GMT-0500 (Central Daylight Time),237688.90000000596,025_y_m_h_a.png,O,m,1959,10,1,2975.9000000059605,234713.0,7129,VNB,C,9
9,test,1,0.0,1-Back,1,m,Fri Apr 18 2025 14:52:38 GMT-0500 (Central Daylight Time),240154.10000002384,015_o_m_d_a.png,O,m,1449,11,1,2457.2000000178814,237696.90000000596,7129,VNB,C,10
10,test,1,1.0,1-Back,1,z,Fri Apr 18 2025 14:52:38 GMT-0500 (Central Daylight Time),242335.40000000596,012_o_f_d_a.png,O,z,1158,12,1,2174.699999988079,240160.70000001788,7129,VNB,C,11
11,test,1,0.0,1-Back,1,m,Fri Apr 18 2025 14:52:38 GMT-0500 (Central Daylight Time),244434.10000002384,014_m_m_n_a.png,O,m,1079,13,1,2090.800000011921,242343.30000001192,7129,VNB,C,12
12,test,1,1.0,1-Back,1,z,Fri Apr 18 2025 14:52:38 GMT-0500 (Central Daylight Time),246900.80000001192,022_y_f_n_a.png,O,z,1435,14,1,2460.9000000059605,244439.90000000596,7129,VNB,C,13
13,test,1,0.0,1-Back,1,m,Fri Apr 18 2025 14:52:38 GMT-0500 (Central Daylight Time),249034.60000002384,019_m_f_h_a.png,O,m,1106,15,1,2126.4000000059605,246908.20000001788,7129,VNB,C,14
14,test,1,0.0,1-Back,1,m,Fri Apr 18 2025 14:52:38 GMT-0500 (Central Daylight Time),251365.40000000596,014_m_m_d_a.png,O,m,1299,16,1,2323.2999999821186,249042.10000002384,7129,VNB,C,15
15,test,1,0.0,1-Back,1,m,Fri Apr 18 2025 14:52:38 GMT-0500 (Central Daylight Time),253464.80000001192,025_y_m_n_a.png,O,m,1073,17,1,2090.699999988079,251374.10000002384,7129,VNB,C,16
16,test,1,0.0,1-Back,1,m,Fri Apr 18 2025 14:52:38 GMT-0500 (Central Daylight Time),255481.0,012_o_f_h_a.png,O,m,991,18,1,2008.199999988079,253472.80000001192,7129,VNB,C,17
0,test,2,0.0,1-Back,,,Fri Apr 18 2025 14:52:38 GMT-0500 (Central Daylight Time),255481.0,025_y_m_n_a.png,O,space,1663,1,1,2008.199999988079,253472.80000001192,7129,VNB,C,0
1,test,2,0.0,1-Back,1,m,Fri Apr 18 2025 14:52:38 GMT-0500 (Central Daylight Time),261628.80000001192,022_y_f_h_a.png,O,m,1445,2,1,2456.5,259172.30000001192,7129,VNB,C,1
2,test,2,1.0,1-Back,1,m,Fri Apr 18 2025 14:52:38 GMT-0500 (Central Daylight Time),263478.0,015_o_m_n_a.png,O,m,826,3,1,1841.0999999940395,261636.90000000596,7129,VNB,C,2
3,test,2,0.0,1-Back,1,m,Fri Apr 18 2025 14:52:38 GMT-0500 (Central Daylight Time),265479.10000002384,019_m_f_d_a.png,O,m,968,4,1,1995.300000011921,263483.8000000119,7129,VNB,C,3
4,test,2,0.0,1-Back,1,z,Fri Apr 18 2025 14:52:38 GMT-0500 (Central Daylight Time),267795.2000000179,014_m_m_d_a.png,O,z,1290,5,1,2308.4000000059605,265486.8000000119,7129,VNB,C,4
5,test,2,0.0,1-Back,1,m,Fri Apr 18 2025 14:52:38 GMT-0500 (Central Daylight Time),269761.90000000596,025_y_m_h_a.png,O,m,951,6,1,1961.0999999940395,267800.8000000119,7129,VNB,C,5
5,test,2,1.0,1-Back,0,z,Fri Apr 18 2025 14:52:38 GMT-0500 (Central Daylight Time),271509.10000002384,012_o_f_h_a.png,O,m,727,7,1,1740.5,269768.60000002384,7129,VNB,C,6
6,test,2,0.0,1-Back,1,m,Fri Apr 18 2025 14:52:38 GMT-0500 (Central Daylight Time),273692.2000000179,019_m_f_n_a.png,O,m,1152,8,1,2177.0999999940395,271515.10000002384,7129,VNB,C,7
7,test,2,0.0,1-Back,1,m,Fri Apr 18 2025 14:52:38 GMT-0500 (Central Daylight Time),276141.8000000119,022_y_f_d_a.png,O,m,1425,9,1,2440.699999988079,273701.10000002384,7129,VNB,C,8
8,test,2,0.0,1-Back,1,m,Fri Apr 18 2025 14:52:38 GMT-0500 (Central Daylight Time),277974.8000000119,014_m_m_n_a.png,O,m,808,10,1,1829.0999999940395,276145.7000000179,7129,VNB,C,9
9,test,2,1.0,1-Back,1,m,Fri Apr 18 2025 14:52:38 GMT-0500 (Central Daylight Time),280089.40000000596,019_m_f_h_a.png,O,m,1087,11,1,2104.5,277984.90000000596,7129,VNB,C,10
10,test,2,0.0,1-Back,1,z,Fri Apr 18 2025 14:52:38 GMT-0500 (Central Daylight Time),282305.8000000119,015_o_m_h_a.png,O,z,1188,12,1,2210.4000000059605,280095.40000000596,7129,VNB,C,11
11,test,2,0.0,1-Back,1,m,Fri Apr 18 2025 14:52:38 GMT-0500 (Central Daylight Time),284454.8000000119,025_y_m_d_a.png,O,m,1126,13,1,2141.5999999940395,282313.2000000179,7129,VNB,C,12
12,test,2,0.0,1-Back,1,m,Fri Apr 18 2025 14:52:38 GMT-0500 (Central Daylight Time),286187.90000000596,012_o_f_n_a.png,O,m,701,14,1,1723.9000000059605,284464.0,7129,VNB,C,13
13,test,2,0.0,1-Back,1,z,Fri Apr 18 2025 14:52:38 GMT-0500 (Central Daylight Time),288155.0,022_y_f_n_a.png,O,z,949,15,1,1960.699999988079,286194.3000000119,7129,VNB,C,14
14,test,2,1.0,1-Back,1,m,Fri Apr 18 2025 14:52:38 GMT-0500 (Central Daylight Time),290270.2000000179,014_m_m_h_a.png,O,m,1086,16,1,2105.5,288164.7000000179,7129,VNB,C,15
14,test,2,0.0,1-Back,0,m,Fri Apr 18 2025 14:52:38 GMT-0500 (Central Daylight Time),292138.40000000596,012_o_f_d_a.png,O,z,842,17,1,1860.0999999940395,290278.3000000119,7129,VNB,C,16
14,test,2,1.0,1-Back,0,z,Fri Apr 18 2025 14:52:38 GMT-0500 (Central Daylight Time),294836.5,015_o_m_d_a.png,O,m,1671,18,1,2688.2999999821186,292148.2000000179,7129,VNB,C,17
0,test,3,1.0,1-Back,,,Fri Apr 18 2025 14:52:38 GMT-0500 (Central Daylight Time),294836.5,012_o_f_h_a.png,O,space,1186,1,1,2688.2999999821186,292148.2000000179,7129,VNB,C,0
0,test,3,0.0,1-Back,0,m,Fri Apr 18 2025 14:52:38 GMT-0500 (Central Daylight Time),300566.90000000596,019_m_f_d_a.png,O,z,1392,2,1,2412.4000000059605,298154.5,7129,VNB,C,1
1,test,3,1.0,1-Back,1,m,Fri Apr 18 2025 14:52:38 GMT-0500 (Central Daylight Time),303517.3000000119,014_m_m_n_a.png,O,m,1932,3,1,2942.199999988079,300575.10000002384,7129,VNB,C,2
2,test,3,0.0,1-Back,1,z,Fri Apr 18 2025 14:52:38 GMT-0500 (Central Daylight Time),305982.40000000596,012_o_f_n_a.png,O,z,1436,4,1,2458.7999999821186,303523.60000002384,7129,VNB,C,3
3,test,3,1.0,1-Back,1,m,Fri Apr 18 2025 14:52:38 GMT-0500 (Central Daylight Time),308280.40000000596,015_o_m_d_a.png,O,m,1273,5,1,2289.9000000059605,305990.5,7129,VNB,C,4
4,test,3,0.0,1-Back,1,m,Fri Apr 18 2025 14:52:38 GMT-0500 (Central Daylight Time),310213.7000000179,022_y_f_h_a.png,O,m,911,6,1,1924.2000000178814,308289.5,7129,VNB,C,5
5,test,3,0.0,1-Back,1,z,Fri Apr 18 2025 14:52:38 GMT-0500 (Central Daylight Time),312180.5,025_y_m_h_a.png,O,z,944,7,1,1957.8999999761581,310222.60000002384,7129,VNB,C,6
6,test,3,0.0,1-Back,1,m,Fri Apr 18 2025 14:52:38 GMT-0500 (Central Daylight Time),313980.10000002384,019_m_f_n_a.png,O,m,770,8,1,1795.9000000059605,312184.2000000179,7129,VNB,C,7
7,test,3,0.0,1-Back,1,m,Fri Apr 18 2025 14:52:38 GMT-0500 (Central Daylight Time),316226.40000000596,022_y_f_d_a.png,O,m,1222,9,1,2236.9000000059605,313989.5,7129,VNB,C,8
8,test,3,1.0,1-Back,1,m,Fri Apr 18 2025 14:52:38 GMT-0500 (Central Daylight Time),318095.2000000179,015_o_m_n_a.png,O,m,835,10,1,1865.7000000178814,316229.5,7129,VNB,C,9
9,test,3,0.0,1-Back,1,m,Fri Apr 18 2025 14:52:38 GMT-0500 (Central Daylight Time),319978.0,014_m_m_h_a.png,O,m,864,11,1,1875.5999999940395,318102.40000000596,7129,VNB,C,10
10,test,3,0.0,1-Back,1,z,Fri Apr 18 2025 14:52:38 GMT-0500 (Central Daylight Time),321926.60000002384,019_m_f_h_a.png,O,z,926,12,1,1940.0,319986.60000002384,7129,VNB,C,11
11,test,3,1.0,1-Back,1,m,Fri Apr 18 2025 14:52:38 GMT-0500 (Central Daylight Time),323793.7000000179,012_o_f_d_a.png,O,m,832,13,1,1861.300000011921,321932.40000000596,7129,VNB,C,12
12,test,3,0.0,1-Back,1,z,Fri Apr 18 2025 14:52:38 GMT-0500 (Central Daylight Time),326176.0,014_m_m_d_a.png,O,z,1350,14,1,2373.7999999821186,323802.2000000179,7129,VNB,C,13
13,test,3,0.0,1-Back,1,m,Fri Apr 18 2025 14:52:38 GMT-0500 (Central Daylight Time),328208.60000002384,025_y_m_n_a.png,O,m,1008,15,1,2024.300000011921,326184.3000000119,7129,VNB,C,14
14,test,3,1.0,1-Back,1,m,Fri Apr 18 2025 14:52:38 GMT-0500 (Central Daylight Time),330075.8000000119,015_o_m_h_a.png,O,m,850,16,1,1859.5,328216.3000000119,7129,VNB,C,15
15,test,3,0.0,1-Back,1,m,Fri Apr 18 2025 14:52:38 GMT-0500 (Central Daylight Time),332024.10000002384,025_y_m_d_a.png,O,m,917,17,1,1942.5,330081.60000002384,7129,VNB,C,16
16,test,3,1.0,1-Back,1,m,Fri Apr 18 2025 14:52:38 GMT-0500 (Central Daylight Time),334306.2000000179,022_y_f_n_a.png,O,m,1256,18,1,2274.800000011921,332031.40000000596,7129,VNB,C,17
0,test,4,1.0,1-Back,,,Fri Apr 18 2025 14:52:38 GMT-0500 (Central Daylight Time),334306.2000000179,014_m_m_d_a.png,O,space,1309,1,1,2274.800000011921,332031.40000000596,7129,VNB,C,0
1,test,4,0.0,1-Back,1,z,Fri Apr 18 2025 14:52:38 GMT-0500 (Central Daylight Time),339906.3000000119,015_o_m_d_a.png,O,z,1234,2,1,2258.800000011921,337647.5,7129,VNB,C,1
1,test,4,0.0,1-Back,0,m,Fri Apr 18 2025 14:52:38 GMT-0500 (Central Daylight Time),342937.40000000596,025_y_m_h_a.png,O,None,2015,3,1,3022.9000000059605,339914.5,7129,VNB,C,2
2,test,4,0.0,1-Back,1,m,Fri Apr 18 2025 14:52:38 GMT-0500 (Central Daylight Time),345502.2000000179,019_m_f_n_a.png,O,m,1534,4,1,2556.800000011921,342945.40000000596,7129,VNB,C,3
3,test,4,1.0,1-Back,1,m,Fri Apr 18 2025 14:52:38 GMT-0500 (Central Daylight Time),347435.2000000179,012_o_f_h_a.png,O,m,905,5,1,1927.0,345508.2000000179,7129,VNB,C,4
4,test,4,0.0,1-Back,1,m,Fri Apr 18 2025 14:52:38 GMT-0500 (Central Daylight Time),349385.7000000179,014_m_m_n_a.png,O,m,933,6,1,1943.0999999940395,347442.60000002384,7129,VNB,C,5
5,test,4,0.0,1-Back,1,m,Fri Apr 18 2025 14:52:38 GMT-0500 (Central Daylight Time),351152.60000002384,025_y_m_d_a.png,O,m,742,7,1,1760.6000000238419,349392.0,7129,VNB,C,6
6,test,4,1.0,1-Back,1,z,Fri Apr 18 2025 14:52:38 GMT-0500 (Central Daylight Time),353016.10000002384,022_y_f_d_a.png,O,z,832,8,1,1859.4000000059605,351156.7000000179,7129,VNB,C,7
7,test,4,0.0,1-Back,1,m,Fri Apr 18 2025 14:52:38 GMT-0500 (Central Daylight Time),354831.60000002384,019_m_f_h_a.png,O,m,791,9,1,1806.800000011921,353024.8000000119,7129,VNB,C,8
7,test,4,0.0,1-Back,0,z,Fri Apr 18 2025 14:52:38 GMT-0500 (Central Daylight Time),356598.60000002384,015_o_m_h_a.png,O,m,736,10,1,1763.6000000238419,354835.0,7129,VNB,C,9
8,test,4,1.0,1-Back,1,m,Fri Apr 18 2025 14:52:38 GMT-0500 (Central Daylight Time),359114.5,012_o_f_n_a.png,O,m,1489,11,1,2507.399999976158,356607.10000002384,7129,VNB,C,10
9,test,4,0.0,1-Back,1,m,Fri Apr 18 2025 14:52:38 GMT-0500 (Central Daylight Time),361282.7000000179,019_m_f_d_a.png,O,m,1133,12,1,2165.800000011921,359116.90000000596,7129,VNB,C,11
10,test,4,0.0,1-Back,1,m,Fri Apr 18 2025 14:52:38 GMT-0500 (Central Daylight Time),363230.3000000119,022_y_f_n_a.png,O,m,917,13,1,1940.9000000059605,361289.40000000596,7129,VNB,C,12
10,test,4,0.0,1-Back,0,m,Fri Apr 18 2025 14:52:38 GMT-0500 (Central Daylight Time),365710.60000002384,012_o_f_d_a.png,O,z,1457,14,1,2473.100000023842,363237.5,7129,VNB,C,13
11,test,4,0.0,1-Back,1,m,Fri Apr 18 2025 14:52:38 GMT-0500 (Central Daylight Time),368028.40000000596,022_y_f_h_a.png,O,m,1295,15,1,2315.0999999940395,365713.3000000119,7129,VNB,C,14
12,test,4,1.0,1-Back,1,z,Fri Apr 18 2025 14:52:38 GMT-0500 (Central Daylight Time),370328.60000002384,014_m_m_h_a.png,O,z,1278,16,1,2291.5,368037.10000002384,7129,VNB,C,15
13,test,4,0.0,1-Back,1,m,Fri Apr 18 2025 14:52:38 GMT-0500 (Central Daylight Time),372544.2000000179,015_o_m_n_a.png,O,m,1182,17,1,2210.9000000059605,370333.3000000119,7129,VNB,C,16
14,test,4,1.0,1-Back,1,z,Fri Apr 18 2025 14:52:38 GMT-0500 (Central Daylight Time),374742.7000000179,025_y_m_n_a.png,O,z,1175,18,1,2190.2000000178814,372552.5,7129,VNB,C,17
0,test,5,1.0,1-Back,,,Fri Apr 18 2025 14:52:38 GMT-0500 (Central Daylight Time),374742.7000000179,015_o_m_n_a.png,O,space,1337,1,1,2190.2000000178814,372552.5,7129,VNB,C,0
1,test,5,1.0,1-Back,1,m,Fri Apr 18 2025 14:52:38 GMT-0500 (Central Daylight Time),380442.5,012_o_f_h_a.png,O,m,1306,2,1,2325.5,378117.0,7129,VNB,C,1
1,test,5,0.0,1-Back,0,m,Fri Apr 18 2025 14:52:38 GMT-0500 (Central Daylight Time),382474.8000000119,025_y_m_d_a.png,O,z,1007,3,1,2026.0999999940395,380448.7000000179,7129,VNB,C,2
2,test,5,0.0,1-Back,1,z,Fri Apr 18 2025 14:52:38 GMT-0500 (Central Daylight Time),384756.7000000179,015_o_m_d_a.png,O,z,1265,4,1,2274.4000000059605,382482.3000000119,7129,VNB,C,3
3,test,5,0.0,1-Back,1,m,Fri Apr 18 2025 14:52:38 GMT-0500 (Central Daylight Time),386873.8000000119,019_m_f_h_a.png,O,m,1083,5,1,2111.4000000059605,384762.40000000596,7129,VNB,C,4
3,test,5,0.0,1-Back,0,m,Fri Apr 18 2025 14:52:38 GMT-0500 (Central Daylight Time),388923.0,022_y_f_n_a.png,O,z,1022,6,1,2039.8999999761581,386883.10000002384,7129,VNB,C,5
4,test,5,1.0,1-Back,1,z,Fri Apr 18 2025 14:52:38 GMT-0500 (Central Daylight Time),391504.60000002384,012_o_f_n_a.png,O,z,1555,7,1,2574.2000000178814,388930.40000000596,7129,VNB,C,6
5,test,5,0.0,1-Back,1,m,Fri Apr 18 2025 14:52:38 GMT-0500 (Central Daylight Time),393537.8000000119,019_m_f_d_a.png,O,m,1005,8,1,2025.699999988079,391512.10000002384,7129,VNB,C,7
6,test,5,0.0,1-Back,1,m,Fri Apr 18 2025 14:52:38 GMT-0500 (Central Daylight Time),396006.2000000179,025_y_m_h_a.png,O,m,1451,9,1,2461.0,393545.2000000179,7129,VNB,C,8
7,test,5,0.0,1-Back,1,m,Fri Apr 18 2025 14:52:38 GMT-0500 (Central Daylight Time),398169.7000000179,022_y_f_d_a.png,O,m,1140,10,1,2155.800000011921,396013.90000000596,7129,VNB,C,9
8,test,5,0.0,1-Back,1,m,Fri Apr 18 2025 14:52:38 GMT-0500 (Central Daylight Time),400220.90000000596,014_m_m_n_a.png,O,m,1018,11,1,2044.0,398176.90000000596,7129,VNB,C,10
9,test,5,1.0,1-Back,1,z,Fri Apr 18 2025 14:52:38 GMT-0500 (Central Daylight Time),402084.8000000119,019_m_f_n_a.png,O,z,837,12,1,1857.5,400227.3000000119,7129,VNB,C,11
10,test,5,0.0,1-Back,1,m,Fri Apr 18 2025 14:52:38 GMT-0500 (Central Daylight Time),403932.3000000119,015_o_m_h_a.png,O,m,827,13,1,1839.800000011921,402092.5,7129,VNB,C,12
11,test,5,0.0,1-Back,1,z,Fri Apr 18 2025 14:52:38 GMT-0500 (Central Daylight Time),406084.60000002384,014_m_m_h_a.png,O,z,1121,14,1,2145.7000000178814,403938.90000000596,7129,VNB,C,13
12,test,5,1.0,1-Back,1,m,Fri Apr 18 2025 14:52:38 GMT-0500 (Central Daylight Time),408283.10000002384,012_o_f_d_a.png,O,m,1182,15,1,2190.4000000059605,406092.7000000179,7129,VNB,C,14
13,test,5,0.0,1-Back,1,m,Fri Apr 18 2025 14:52:38 GMT-0500 (Central Daylight Time),410282.2000000179,025_y_m_n_a.png,O,m,981,16,1,1993.300000011921,408288.90000000596,7129,VNB,C,15
14,test,5,0.0,1-Back,1,m,Fri Apr 18 2025 14:52:38 GMT-0500 (Central Daylight Time),412148.10000002384,022_y_f_h_a.png,O,m,832,17,1,1858.800000011921,410289.3000000119,7129,VNB,C,16
15,test,5,0.0,1-Back,1,m,Fri Apr 18 2025 14:52:38 GMT-0500 (Central Daylight Time),414013.5,014_m_m_d_a.png,O,m,842,18,1,1857.199999988079,412156.3000000119,7129,VNB,C,17
0,prac,1,0.0,2-Back,,,Fri Apr 18 2025 14:52:38 GMT-0500 (Central Daylight Time),414013.5,019_m_f_n_a.png,O,space,9211,1,1,1857.199999988079,412156.3000000119,7129,VNB,C,0
0,prac,1,0.0,2-Back,,,Fri Apr 18 2025 14:52:38 GMT-0500 (Central Daylight Time),414013.5,012_o_f_h_a.png,O,space,9211,2,1,1857.199999988079,412156.3000000119,7129,VNB,C,0
1,prac,1,0.0,2-Back,1,m,Fri Apr 18 2025 14:52:38 GMT-0500 (Central Daylight Time),559051.0,015_o_m_d_a.png,O,m,1287,3,1,2172.2999999821186,556878.7000000179,7129,VNB,C,1
1,prac,1,1.0,2-Back,0,z,Fri Apr 18 2025 14:52:38 GMT-0500 (Central Daylight Time),561916.900000006,014_m_m_h_a.png,O,None,2001,4,1,2857.0999999940395,559059.8000000119,7129,VNB,C,2
2,prac,1,0.0,2-Back,1,m,Fri Apr 18 2025 14:52:38 GMT-0500 (Central Daylight Time),564399.400000006,022_y_f_n_a.png,O,m,1590,5,1,2475.199999988079,561924.2000000179,7129,VNB,C,3
2,prac,1,1.0,2-Back,0,z,Fri Apr 18 2025 14:52:38 GMT-0500 (Central Daylight Time),566483.0,015_o_m_h_a.png,O,m,1176,6,1,2075.2999999821186,564407.7000000179,7129,VNB,C,4
3,prac,1,1.0,2-Back,1,z,Fri Apr 18 2025 14:52:38 GMT-0500 (Central Daylight Time),569049.0,025_y_m_n_a.png,O,z,1695,7,1,2556.399999976158,566492.6000000238,7129,VNB,C,5
4,prac,1,0.0,2-Back,1,m,Fri Apr 18 2025 14:52:38 GMT-0500 (Central Daylight Time),570930.7000000179,019_m_f_d_a.png,O,m,973,8,1,1871.800000011921,569058.900000006,7129,VNB,C,6
4,prac,1,0.0,2-Back,0,m,Fri Apr 18 2025 14:52:38 GMT-0500 (Central Daylight Time),573230.7000000179,012_o_f_d_a.png,O,z,1410,9,1,2290.5999999940395,570940.1000000238,7129,VNB,C,7
5,prac,1,0.0,2-Back,1,m,Fri Apr 18 2025 14:52:38 GMT-0500 (Central Daylight Time),575244.8000000119,014_m_m_h_a.png,O,m,1224,10,1,2004.5999999940395,573240.2000000179,7129,VNB,C,8
6,prac,1,1.0,2-Back,1,z,Fri Apr 18 2025 14:52:38 GMT-0500 (Central Daylight Time),577263.5,022_y_f_d_a.png,O,z,1136,11,1,2013.0999999940395,575250.400000006,7129,VNB,C,9
7,prac,1,0.0,2-Back,1,m,Fri Apr 18 2025 14:52:38 GMT-0500 (Central Daylight Time),579128.0,015_o_m_n_a.png,O,m,977,12,1,1854.2999999821186,577273.7000000179,7129,VNB,C,10
0,test,1,0.0,2-Back,,,Fri Apr 18 2025 14:52:38 GMT-0500 (Central Daylight Time),579128.0,025_y_m_h_a.png,O,space,10750,1,1,1854.2999999821186,577273.7000000179,7129,VNB,C,0
0,test,1,0.0,2-Back,,,Fri Apr 18 2025 14:52:38 GMT-0500 (Central Daylight Time),579128.0,012_o_f_n_a.png,O,space,10750,2,1,1854.2999999821186,577273.7000000179,7129,VNB,C,0
1,test,1,0.0,2-Back,1,z,Fri Apr 18 2025 14:52:38 GMT-0500 (Central Daylight Time),605621.3000000119,015_o_m_h_a.png,O,z,1116,3,1,2145.0,603476.3000000119,7129,VNB,C,1
2,test,1,0.0,2-Back,1,m,Fri Apr 18 2025 14:52:38 GMT-0500 (Central Daylight Time),607954.0,019_m_f_d_a.png,O,m,1308,4,1,2323.5999999940395,605630.400000006,7129,VNB,C,2
2,test,1,1.0,2-Back,0,m,Fri Apr 18 2025 14:52:38 GMT-0500 (Central Daylight Time),610069.2000000179,025_y_m_n_a.png,O,z,1094,5,1,2108.0,607961.2000000179,7129,VNB,C,3
2,test,1,0.0,2-Back,0,z,Fri Apr 18 2025 14:52:38 GMT-0500 (Central Daylight Time),612386.5,022_y_f_d_a.png,O,m,1300,6,1,2308.899999976158,610077.6000000238,7129,VNB,C,4
3,test,1,0.0,2-Back,1,m,Fri Apr 18 2025 14:52:38 GMT-0500 (Central Daylight Time),614668.3000000119,014_m_m_h_a.png,O,m,1265,7,1,2276.300000011921,612392.0,7129,VNB,C,5
3,test,1,1.0,2-Back,0,m,Fri Apr 18 2025 14:52:38 GMT-0500 (Central Daylight Time),616767.3000000119,022_y_f_n_a.png,O,z,1067,8,1,2090.5999999940395,614676.7000000179,7129,VNB,C,6
4,test,1,0.0,2-Back,1,z,Fri Apr 18 2025 14:52:38 GMT-0500 (Central Daylight Time),619250.0,012_o_f_h_a.png,O,z,1450,9,1,2475.699999988079,616774.3000000119,7129,VNB,C,7
5,test,1,0.0,2-Back,1,m,Fri Apr 18 2025 14:52:38 GMT-0500 (Central Daylight Time),621682.8000000119,015_o_m_d_a.png,O,m,1399,10,1,2425.4000000059605,619257.400000006,7129,VNB,C,8
5,test,1,1.0,2-Back,0,m,Fri Apr 18 2025 14:52:38 GMT-0500 (Central Daylight Time),624714.6000000238,014_m_m_d_a.png,O,None,2016,11,1,3024.4000000059605,621690.2000000179,7129,VNB,C,9
6,test,1,0.0,2-Back,1,m,Fri Apr 18 2025 14:52:38 GMT-0500 (Central Daylight Time),627080.2000000179,019_m_f_n_a.png,O,m,1340,12,1,2357.7000000178814,624722.5,7129,VNB,C,10
7,test,1,0.0,2-Back,1,m,Fri Apr 18 2025 14:52:38 GMT-0500 (Central Daylight Time),629263.2000000179,022_y_f_h_a.png,O,m,1160,13,1,2180.2000000178814,627083.0,7129,VNB,C,11
8,test,1,0.0,2-Back,1,z,Fri Apr 18 2025 14:52:38 GMT-0500 (Central Daylight Time),631461.0,014_m_m_n_a.png,O,z,1169,14,1,2189.2999999821186,629271.7000000179,7129,VNB,C,12
9,test,1,0.0,2-Back,1,m,Fri Apr 18 2025 14:52:38 GMT-0500 (Central Daylight Time),634078.6000000238,025_y_m_d_a.png,O,m,1595,15,1,2608.0,631470.6000000238,7129,VNB,C,13
10,test,1,1.0,2-Back,1,m,Fri Apr 18 2025 14:52:38 GMT-0500 (Central Daylight Time),636592.3000000119,019_m_f_h_a.png,O,m,1488,16,1,2506.300000011921,634086.0,7129,VNB,C,14
11,test,1,0.0,2-Back,1,z,Fri Apr 18 2025 14:52:38 GMT-0500 (Central Daylight Time),638842.3000000119,012_o_f_d_a.png,O,z,1230,17,1,2242.199999988079,636600.1000000238,7129,VNB,C,15
12,test,1,0.0,2-Back,1,m,Fri Apr 18 2025 14:52:38 GMT-0500 (Central Daylight Time),640908.3000000119,015_o_m_n_a.png,O,m,1045,18,1,2059.199999988079,638849.1000000238,7129,VNB,C,16
0,test,2,0.0,2-Back,,,Fri Apr 18 2025 14:52:38 GMT-0500 (Central Daylight Time),640908.3000000119,014_m_m_h_a.png,O,space,1707,1,1,2059.199999988079,638849.1000000238,7129,VNB,C,0
0,test,2,0.0,2-Back,,,Fri Apr 18 2025 14:52:38 GMT-0500 (Central Daylight Time),640908.3000000119,022_y_f_n_a.png,O,space,1707,2,1,2059.199999988079,638849.1000000238,7129,VNB,C,0
1,test,2,1.0,2-Back,1,z,Fri Apr 18 2025 14:52:38 GMT-0500 (Central Daylight Time),649806.6000000238,012_o_f_h_a.png,O,z,928,3,1,1941.800000011921,647864.8000000119,7129,VNB,C,1
2,test,2,0.0,2-Back,1,m,Fri Apr 18 2025 14:52:38 GMT-0500 (Central Daylight Time),652089.400000006,015_o_m_d_a.png,O,m,1265,4,1,2276.4000000059605,649813.0,7129,VNB,C,2
3,test,2,0.0,2-Back,1,m,Fri Apr 18 2025 14:52:38 GMT-0500 (Central Daylight Time),654938.5,019_m_f_d_a.png,O,m,1823,5,1,2842.399999976158,652096.1000000238,7129,VNB,C,3
3,test,2,0.0,2-Back,0,m,Fri Apr 18 2025 14:52:38 GMT-0500 (Central Daylight Time),657089.5,025_y_m_h_a.png,O,z,1133,6,1,2144.199999988079,654945.3000000119,7129,VNB,C,4
4,test,2,0.0,2-Back,1,m,Fri Apr 18 2025 14:52:38 GMT-0500 (Central Daylight Time),659353.6000000238,012_o_f_n_a.png,O,m,1232,7,1,2256.9000000059605,657096.7000000179,7129,VNB,C,5
5,test,2,1.0,2-Back,1,z,Fri Apr 18 2025 14:52:38 GMT-0500 (Central Daylight Time),661404.8000000119,015_o_m_h_a.png,O,z,1033,8,1,2043.300000011921,659361.5,7129,VNB,C,6
6,test,2,0.0,2-Back,1,m,Fri Apr 18 2025 14:52:38 GMT-0500 (Central Daylight Time),663884.0,022_y_f_d_a.png,O,m,1454,9,1,2469.7999999821186,661414.2000000179,7129,VNB,C,7
7,test,2,0.0,2-Back,1,m,Fri Apr 18 2025 14:52:38 GMT-0500 (Central Daylight Time),666333.900000006,025_y_m_d_a.png,O,m,1428,10,1,2441.5999999940395,663892.3000000119,7129,VNB,C,8
7,test,2,0.0,2-Back,0,m,Fri Apr 18 2025 14:52:38 GMT-0500 (Central Daylight Time),669067.0,014_m_m_n_a.png,O,z,1706,11,1,2725.899999976158,666341.1000000238,7129,VNB,C,9
8,test,2,0.0,2-Back,1,m,Fri Apr 18 2025 14:52:38 GMT-0500 (Central Daylight Time),672082.400000006,019_m_f_h_a.png,O,m,1997,12,1,3006.199999988079,669076.2000000179,7129,VNB,C,10
9,test,2,1.0,2-Back,1,z,Fri Apr 18 2025 14:52:38 GMT-0500 (Central Daylight Time),674299.1000000238,015_o_m_n_a.png,O,z,1200,13,1,2206.9000000059605,672092.2000000179,7129,VNB,C,11
10,test,2,0.0,2-Back,1,m,Fri Apr 18 2025 14:52:38 GMT-0500 (Central Daylight Time),676364.1000000238,012_o_f_d_a.png,O,m,1037,14,1,2056.300000011921,674307.8000000119,7129,VNB,C,12
11,test,2,0.0,2-Back,1,m,Fri Apr 18 2025 14:52:38 GMT-0500 (Central Daylight Time),679363.0,022_y_f_h_a.png,O,m,1972,15,1,2991.7999999821186,676371.2000000179,7129,VNB,C,13
11,test,2,0.0,2-Back,0,z,Fri Apr 18 2025 14:52:38 GMT-0500 (Central Daylight Time),681561.8000000119,014_m_m_d_a.png,O,m,1172,16,1,2191.4000000059605,679370.400000006,7129,VNB,C,14
12,test,2,0.0,2-Back,1,m,Fri Apr 18 2025 14:52:38 GMT-0500 (Central Daylight Time),683896.6000000238,025_y_m_n_a.png,O,m,1302,17,1,2326.7000000178814,681569.900000006,7129,VNB,C,15
12,test,2,1.0,2-Back,0,m,Fri Apr 18 2025 14:52:38 GMT-0500 (Central Daylight Time),686044.900000006,019_m_f_n_a.png,O,z,1121,18,1,2141.5999999940395,683903.3000000119,7129,VNB,C,16
0,test,3,1.0,2-Back,,,Fri Apr 18 2025 14:52:38 GMT-0500 (Central Daylight Time),686044.900000006,015_o_m_n_a.png,O,space,1491,1,1,2141.5999999940395,683903.3000000119,7129,VNB,C,0
0,test,3,1.0,2-Back,,,Fri Apr 18 2025 14:52:38 GMT-0500 (Central Daylight Time),686044.900000006,012_o_f_d_a.png,O,space,1491,2,1,2141.5999999940395,683903.3000000119,7129,VNB,C,0
1,test,3,0.0,2-Back,1,m,Fri Apr 18 2025 14:52:38 GMT-0500 (Central Daylight Time),695106.900000006,022_y_f_h_a.png,O,m,1512,3,1,2523.7999999821186,692583.1000000238,7129,VNB,C,1
1,test,3,0.0,2-Back,0,z,Fri Apr 18 2025 14:52:38 GMT-0500 (Central Daylight Time),697773.7000000179,019_m_f_d_a.png,O,m,1635,4,1,2658.9000000059605,695114.8000000119,7129,VNB,C,2
1,test,3,1.0,2-Back,0,m,Fri Apr 18 2025 14:52:38 GMT-0500 (Central Daylight Time),700257.7000000179,025_y_m_n_a.png,O,z,1465,5,1,2476.800000011921,697780.900000006,7129,VNB,C,3
1,test,3,0.0,2-Back,0,m,Fri Apr 18 2025 14:52:38 GMT-0500 (Central Daylight Time),703291.2000000179,015_o_m_h_a.png,O,None,2015,6,1,3029.2000000178814,700262.0,7129,VNB,C,4
2,test,3,0.0,2-Back,1,z,Fri Apr 18 2025 14:52:38 GMT-0500 (Central Daylight Time),705371.0,022_y_f_n_a.png,O,z,1049,7,1,2071.7999999821186,703299.2000000179,7129,VNB,C,5
3,test,3,1.0,2-Back,1,m,Fri Apr 18 2025 14:52:38 GMT-0500 (Central Daylight Time),707453.900000006,014_m_m_d_a.png,O,m,1052,8,1,2074.9000000059605,705379.0,7129,VNB,C,6
4,test,3,0.0,2-Back,1,m,Fri Apr 18 2025 14:52:38 GMT-0500 (Central Daylight Time),709552.0,025_y_m_d_a.png,O,m,1063,9,1,2090.699999988079,707461.3000000119,7129,VNB,C,7
4,test,3,0.0,2-Back,0,m,Fri Apr 18 2025 14:52:38 GMT-0500 (Central Daylight Time),711737.5,012_o_f_h_a.png,O,z,1158,10,1,2182.399999976158,709555.1000000238,7129,VNB,C,8
4,test,3,1.0,2-Back,0,m,Fri Apr 18 2025 14:52:38 GMT-0500 (Central Daylight Time),714134.7000000179,019_m_f_n_a.png,O,z,1366,11,1,2390.5999999940395,711744.1000000238,7129,VNB,C,9
5,test,3,1.0,2-Back,1,z,Fri Apr 18 2025 14:52:38 GMT-0500 (Central Daylight Time),716817.900000006,014_m_m_h_a.png,O,z,1656,12,1,2674.5,714143.400000006,7129,VNB,C,10
6,test,3,0.0,2-Back,1,m,Fri Apr 18 2025 14:52:38 GMT-0500 (Central Daylight Time),718982.7000000179,022_y_f_d_a.png,O,m,1132,13,1,2160.5,716822.2000000179,7129,VNB,C,11
6,test,3,0.0,2-Back,0,m,Fri Apr 18 2025 14:52:38 GMT-0500 (Central Daylight Time),721217.8000000119,012_o_f_n_a.png,O,z,1210,14,1,2232.4000000059605,718985.400000006,7129,VNB,C,12
6,test,3,0.0,2-Back,0,z,Fri Apr 18 2025 14:52:38 GMT-0500 (Central Daylight Time),723948.7000000179,015_o_m_d_a.png,O,m,1710,15,1,2728.0999999940395,721220.6000000238,7129,VNB,C,13
6,test,3,1.0,2-Back,0,m,Fri Apr 18 2025 14:52:38 GMT-0500 (Central Daylight Time),726314.900000006,019_m_f_h_a.png,O,z,1348,16,1,2357.5999999940395,723957.3000000119,7129,VNB,C,14
6,test,3,0.0,2-Back,0,m,Fri Apr 18 2025 14:52:38 GMT-0500 (Central Daylight Time),728446.6000000238,014_m_m_n_a.png,O,z,1101,17,1,2122.7000000178814,726323.900000006,7129,VNB,C,15
6,test,3,0.0,2-Back,0,z,Fri Apr 18 2025 14:52:38 GMT-0500 (Central Daylight Time),730980.2000000179,025_y_m_h_a.png,O,m,1504,18,1,2525.9000000059605,728454.3000000119,7129,VNB,C,16
0,test,4,0.0,2-Back,,,Fri Apr 18 2025 14:52:38 GMT-0500 (Central Daylight Time),730980.2000000179,019_m_f_n_a.png,O,space,1348,1,1,2525.9000000059605,728454.3000000119,7129,VNB,C,0
0,test,4,0.0,2-Back,,,Fri Apr 18 2025 14:52:38 GMT-0500 (Central Daylight Time),730980.2000000179,015_o_m_n_a.png,O,space,1348,2,1,2525.9000000059605,728454.3000000119,7129,VNB,C,0
1,test,4,1.0,2-Back,1,m,Fri Apr 18 2025 14:52:38 GMT-0500 (Central Daylight Time),739893.5,025_y_m_h_a.png,O,m,1252,3,1,2273.399999976158,737620.1000000238,7129,VNB,C,1
2,test,4,1.0,2-Back,1,m,Fri Apr 18 2025 14:52:38 GMT-0500 (Central Daylight Time),742092.2000000179,012_o_f_d_a.png,O,m,1170,4,1,2191.800000011921,739900.400000006,7129,VNB,C,2
3,test,4,0.0,2-Back,1,z,Fri Apr 18 2025 14:52:38 GMT-0500 (Central Daylight Time),744275.2000000179,015_o_m_h_a.png,O,z,1155,5,1,2175.7000000178814,742099.5,7129,VNB,C,3
3,test,4,0.0,2-Back,0,m,Fri Apr 18 2025 14:52:38 GMT-0500 (Central Daylight Time),746974.400000006,014_m_m_n_a.png,O,z,1676,6,1,2689.5,744284.900000006,7129,VNB,C,4
4,test,4,0.0,2-Back,1,m,Fri Apr 18 2025 14:52:38 GMT-0500 (Central Daylight Time),749808.2000000179,019_m_f_d_a.png,O,m,1801,7,1,2825.4000000059605,746982.8000000119,7129,VNB,C,5
5,test,4,0.0,2-Back,1,z,Fri Apr 18 2025 14:52:38 GMT-0500 (Central Daylight Time),752058.0,022_y_f_n_a.png,O,z,1216,8,1,2243.199999988079,749814.8000000119,7129,VNB,C,6
6,test,4,1.0,2-Back,1,m,Fri Apr 18 2025 14:52:38 GMT-0500 (Central Daylight Time),754638.8000000119,012_o_f_h_a.png,O,m,1551,9,1,2571.9000000059605,752066.900000006,7129,VNB,C,7
6,test,4,0.0,2-Back,0,m,Fri Apr 18 2025 14:52:38 GMT-0500 (Central Daylight Time),757323.5,014_m_m_h_a.png,O,z,1667,10,1,2678.5999999940395,754644.900000006,7129,VNB,C,8
7,test,4,0.0,2-Back,1,m,Fri Apr 18 2025 14:52:38 GMT-0500 (Central Daylight Time),759904.6000000238,022_y_f_d_a.png,O,m,1549,11,1,2576.4000000059605,757328.2000000179,7129,VNB,C,9
7,test,4,0.0,2-Back,0,m,Fri Apr 18 2025 14:52:38 GMT-0500 (Central Daylight Time),761988.6000000238,025_y_m_n_a.png,O,z,1055,12,1,2075.800000011921,759912.8000000119,7129,VNB,C,10
7,test,4,0.0,2-Back,0,z,Fri Apr 18 2025 14:52:38 GMT-0500 (Central Daylight Time),764186.400000006,015_o_m_d_a.png,O,m,1173,13,1,2195.2999999821186,761991.1000000238,7129,VNB,C,11
8,test,4,1.0,2-Back,1,m,Fri Apr 18 2025 14:52:38 GMT-0500 (Central Daylight Time),767101.900000006,019_m_f_h_a.png,O,m,1882,14,1,2908.7999999821186,764193.1000000238,7129,VNB,C,12
8,test,4,1.0,2-Back,0,m,Fri Apr 18 2025 14:52:38 GMT-0500 (Central Daylight Time),769534.0,022_y_f_h_a.png,O,z,1408,15,1,2424.7999999821186,767109.2000000179,7129,VNB,C,13
8,test,4,0.0,2-Back,0,m,Fri Apr 18 2025 14:52:38 GMT-0500 (Central Daylight Time),772566.8000000119,012_o_f_n_a.png,O,None,2014,16,1,3027.0,769539.8000000119,7129,VNB,C,14
9,test,4,0.0,2-Back,1,m,Fri Apr 18 2025 14:52:38 GMT-0500 (Central Daylight Time),775249.7000000179,025_y_m_d_a.png,O,m,1650,17,1,2676.5,772573.2000000179,7129,VNB,C,15
9,test,4,1.0,2-Back,0,m,Fri Apr 18 2025 14:52:38 GMT-0500 (Central Daylight Time),777697.900000006,014_m_m_d_a.png,O,z,1423,18,1,2440.4000000059605,775257.5,7129,VNB,C,16
0,test,5,1.0,2-Back,,,Fri Apr 18 2025 14:52:38 GMT-0500 (Central Daylight Time),777697.900000006,022_y_f_d_a.png,O,space,1551,1,1,2440.4000000059605,775257.5,7129,VNB,C,0
0,test,5,1.0,2-Back,,,Fri Apr 18 2025 14:52:38 GMT-0500 (Central Daylight Time),777697.900000006,012_o_f_h_a.png,O,space,1551,2,1,2440.4000000059605,775257.5,7129,VNB,C,0
1,test,5,1.0,2-Back,1,z,Fri Apr 18 2025 14:52:38 GMT-0500 (Central Daylight Time),786729.5,015_o_m_d_a.png,O,z,1199,3,1,2208.899999976158,784520.6000000238,7129,VNB,C,1
2,test,5,1.0,2-Back,1,m,Fri Apr 18 2025 14:52:38 GMT-0500 (Central Daylight Time),789347.5,019_m_f_n_a.png,O,m,1600,4,1,2612.699999988079,786734.8000000119,7129,VNB,C,2
2,test,5,0.0,2-Back,0,m,Fri Apr 18 2025 14:52:38 GMT-0500 (Central Daylight Time),791777.900000006,014_m_m_h_a.png,O,z,1406,5,1,2425.199999988079,789352.7000000179,7129,VNB,C,3
2,test,5,0.0,2-Back,0,z,Fri Apr 18 2025 14:52:38 GMT-0500 (Central Daylight Time),794011.400000006,022_y_f_n_a.png,O,m,1215,6,1,2229.7999999821186,791781.6000000238,7129,VNB,C,4
3,test,5,0.0,2-Back,1,m,Fri Apr 18 2025 14:52:38 GMT-0500 (Central Daylight Time),796161.1000000238,012_o_f_d_a.png,O,m,1135,7,1,2141.100000023842,794020.0,7129,VNB,C,5
3,test,5,0.0,2-Back,0,m,Fri Apr 18 2025 14:52:38 GMT-0500 (Central Daylight Time),798192.400000006,015_o_m_h_a.png,O,z,1017,8,1,2023.0,796169.400000006,7129,VNB,C,6
3,test,5,1.0,2-Back,0,z,Fri Apr 18 2025 14:52:38 GMT-0500 (Central Daylight Time),800176.5,019_m_f_d_a.png,O,m,960,9,1,1981.699999988079,798194.8000000119,7129,VNB,C,7
4,test,5,0.0,2-Back,1,m,Fri Apr 18 2025 14:52:38 GMT-0500 (Central Daylight Time),802106.0,025_y_m_n_a.png,O,m,905,10,1,1920.8999999761581,800185.1000000238,7129,VNB,C,8
4,test,5,0.0,2-Back,0,m,Fri Apr 18 2025 14:52:38 GMT-0500 (Central Daylight Time),804322.8000000119,014_m_m_n_a.png,O,z,1188,11,1,2214.300000011921,802108.5,7129,VNB,C,9
5,test,5,0.0,2-Back,1,m,Fri Apr 18 2025 14:52:38 GMT-0500 (Central Daylight Time),806356.5,022_y_f_h_a.png,O,m,1014,12,1,2026.7999999821186,804329.7000000179,7129,VNB,C,10
5,test,5,0.0,2-Back,0,m,Fri Apr 18 2025 14:52:38 GMT-0500 (Central Daylight Time),809388.6000000238,025_y_m_d_a.png,O,None,2013,13,1,3023.7000000178814,806364.900000006,7129,VNB,C,11
6,test,5,1.0,2-Back,1,z,Fri Apr 18 2025 14:52:38 GMT-0500 (Central Daylight Time),811387.6000000238,019_m_f_h_a.png,O,z,971,14,1,1990.6000000238419,809397.0,7129,VNB,C,12
7,test,5,0.0,2-Back,1,m,Fri Apr 18 2025 14:52:38 GMT-0500 (Central Daylight Time),813654.3000000119,015_o_m_n_a.png,O,m,1244,15,1,2259.9000000059605,811394.400000006,7129,VNB,C,13
8,test,5,0.0,2-Back,1,m,Fri Apr 18 2025 14:52:38 GMT-0500 (Central Daylight Time),815803.0,014_m_m_d_a.png,O,m,1122,16,1,2141.7999999821186,813661.2000000179,7129,VNB,C,14
8,test,5,0.0,2-Back,0,z,Fri Apr 18 2025 14:52:38 GMT-0500 (Central Daylight Time),818537.1000000238,012_o_f_n_a.png,O,m,1700,17,1,2727.9000000059605,815809.2000000179,7129,VNB,C,15
8,test,5,1.0,2-Back,0,m,Fri Apr 18 2025 14:52:38 GMT-0500 (Central Daylight Time),821400.2000000179,025_y_m_h_a.png,O,z,1840,18,1,2855.800000011921,818544.400000006,7129,VNB,C,16
