Number,acc_sum,block,block_c,block_cond,con_img,correct,correct_response,datetime,endtime,jitter,project,response,response_time,row_sel,session_number,start_end,starttime,subject_id,task,task_vers,trial
4,1,prac,1,A,circle.png,1,z,Fri Feb 28 2025 15:06:50 GMT-0600 (Central Standard Time),143865.70000001788,1400,O,z,1378,4,1,3564.5,140301.20000001788,7072,NTS,B,1
7,2,prac,1,A,circle.png,1,m,Fri Feb 28 2025 15:06:50 GMT-0600 (Central Standard Time),147432.40000000596,1700,O,m,1067,6,1,3558.4000000059605,143874.0,7072,NTS,B,2
6,3,prac,1,A,circle.png,1,m,Fri Feb 28 2025 15:06:50 GMT-0600 (Central Standard Time),150964.5,1900,O,m,827,5,1,3510.899999976158,147453.60000002384,7072,NTS,B,3
2,4,prac,1,A,circle.png,1,z,Fri Feb 28 2025 15:06:50 GMT-0600 (Central Standard Time),154330.0,2000,O,z,556,2,1,3337.699999988079,150992.30000001192,7072,NTS,B,4
9,5,prac,1,A,circle.png,1,m,Fri Feb 28 2025 15:06:50 GMT-0600 (Central Standard Time),157328.70000001788,1500,O,m,682,8,1,2974.9000000059605,154353.80000001192,7072,NTS,B,5
7,6,prac,1,A,circle.png,1,m,Fri Feb 28 2025 15:06:50 GMT-0600 (Central Standard Time),160577.80000001192,1700,O,m,732,6,1,3225.800000011921,157352.0,7072,NTS,B,6
3,7,prac,1,A,circle.png,1,z,Fri Feb 28 2025 15:06:50 GMT-0600 (Central Standard Time),163176.90000000596,1200,O,z,591,3,1,2569.5999999940395,160607.30000001192,7072,NTS,B,7
2,8,prac,1,A,circle.png,1,z,Fri Feb 28 2025 15:06:50 GMT-0600 (Central Standard Time),166625.60000002384,2000,O,z,640,2,1,3424.100000023842,163201.5,7072,NTS,B,8
1,9,prac,1,A,circle.png,1,z,Fri Feb 28 2025 15:06:50 GMT-0600 (Central Standard Time),169241.40000000596,1000,O,z,807,1,1,2589.4000000059605,166652.0,7072,NTS,B,9
8,10,prac,1,A,circle.png,1,m,Fri Feb 28 2025 15:06:50 GMT-0600 (Central Standard Time),172224.10000002384,1600,O,m,576,7,1,2960.7000000178814,169263.40000000596,7072,NTS,B,10
3,11,prac,1,A,circle.png,1,z,Fri Feb 28 2025 15:06:50 GMT-0600 (Central Standard Time),174623.10000002384,1200,O,z,385,3,1,2372.100000023842,172251.0,7072,NTS,B,11
6,12,prac,1,A,circle.png,1,m,Fri Feb 28 2025 15:06:50 GMT-0600 (Central Standard Time),177855.60000002384,1900,O,m,526,5,1,3209.0,174646.60000002384,7072,NTS,B,12
1,1,prac,1,B,triangle.png,1,z,Fri Feb 28 2025 15:06:50 GMT-0600 (Central Standard Time),205228.90000000596,1900,O,z,938,1,1,3625.199999988079,201603.70000001788,7072,NTS,B,1
3,2,prac,1,B,triangle.png,1,z,Fri Feb 28 2025 15:06:50 GMT-0600 (Central Standard Time),208311.10000002384,1600,O,z,686,3,1,3073.2000000178814,205237.90000000596,7072,NTS,B,2
4,3,prac,1,B,triangle.png,1,m,Fri Feb 28 2025 15:06:50 GMT-0600 (Central Standard Time),211260.20000001788,1500,O,m,655,4,1,2938.2000000178814,208322.0,7072,NTS,B,3
8,4,prac,1,B,triangle.png,1,m,Fri Feb 28 2025 15:06:50 GMT-0600 (Central Standard Time),213925.90000000596,1200,O,m,670,7,1,2657.5,211268.40000000596,7072,NTS,B,4
6,5,prac,1,B,triangle.png,1,m,Fri Feb 28 2025 15:06:50 GMT-0600 (Central Standard Time),216225.0,1000,O,m,508,5,1,2290.199999988079,213934.80000001192,7072,NTS,B,5
9,6,prac,1,B,triangle.png,1,z,Fri Feb 28 2025 15:06:50 GMT-0600 (Central Standard Time),219057.40000000596,1400,O,z,632,8,1,2823.0999999940395,216234.30000001192,7072,NTS,B,6
9,7,prac,1,B,triangle.png,1,z,Fri Feb 28 2025 15:06:50 GMT-0600 (Central Standard Time),221990.70000001788,1400,O,z,745,8,1,2925.5,219065.20000001788,7072,NTS,B,7
8,8,prac,1,B,triangle.png,1,m,Fri Feb 28 2025 15:06:50 GMT-0600 (Central Standard Time),224473.40000000596,1200,O,m,466,7,1,2457.4000000059605,222016.0,7072,NTS,B,8
6,9,prac,1,B,triangle.png,1,m,Fri Feb 28 2025 15:06:50 GMT-0600 (Central Standard Time),227255.70000001788,1000,O,m,968,5,1,2754.300000011921,224501.40000000596,7072,NTS,B,9
2,10,prac,1,B,triangle.png,1,m,Fri Feb 28 2025 15:06:50 GMT-0600 (Central Standard Time),230554.60000002384,1700,O,m,783,2,1,3272.4000000059605,227282.20000001788,7072,NTS,B,10
3,11,prac,1,B,triangle.png,1,z,Fri Feb 28 2025 15:06:50 GMT-0600 (Central Standard Time),233470.30000001192,1600,O,z,512,3,1,2888.699999988079,230581.60000002384,7072,NTS,B,11
7,12,prac,1,B,triangle.png,1,z,Fri Feb 28 2025 15:06:50 GMT-0600 (Central Standard Time),237035.70000001788,2000,O,z,755,6,1,3539.0,233496.70000001788,7072,NTS,B,12
2,0,test,1,A,circle.png,0,z,Fri Feb 28 2025 15:06:50 GMT-0600 (Central Standard Time),266159.7000000179,2000,O,m,752,2,1,2775.0999999940395,263384.60000002384,7072,NTS,B,1
7,1,test,1,A,circle.png,1,m,Fri Feb 28 2025 15:06:50 GMT-0600 (Central Standard Time),268675.5,1700,O,m,765,6,1,2496.5,266179.0,7072,NTS,B,2
3,2,test,1,A,circle.png,1,z,Fri Feb 28 2025 15:06:50 GMT-0600 (Central Standard Time),270357.7000000179,1200,O,z,443,3,1,1663.300000011921,268694.40000000596,7072,NTS,B,3
6,3,test,1,A,circle.png,1,m,Fri Feb 28 2025 15:06:50 GMT-0600 (Central Standard Time),272773.60000002384,1900,O,m,480,5,1,2394.9000000059605,270378.7000000179,7072,NTS,B,4
9,4,test,1,A,circle.png,1,m,Fri Feb 28 2025 15:06:50 GMT-0600 (Central Standard Time),274973.3000000119,1500,O,m,645,8,1,2182.5999999940395,272790.7000000179,7072,NTS,B,5
9,5,test,1,A,circle.png,1,m,Fri Feb 28 2025 15:06:50 GMT-0600 (Central Standard Time),276972.7000000179,1500,O,m,455,8,1,1980.5999999940395,274992.10000002384,7072,NTS,B,6
3,6,test,1,A,circle.png,1,z,Fri Feb 28 2025 15:06:50 GMT-0600 (Central Standard Time),278738.7000000179,1200,O,z,516,3,1,1747.5,276991.2000000179,7072,NTS,B,7
6,7,test,1,A,circle.png,1,m,Fri Feb 28 2025 15:06:50 GMT-0600 (Central Standard Time),281204.5,1900,O,m,521,5,1,2445.7999999821186,278758.7000000179,7072,NTS,B,8
1,8,test,1,A,circle.png,1,z,Fri Feb 28 2025 15:06:50 GMT-0600 (Central Standard Time),282704.0,1000,O,z,460,1,1,1480.3999999761581,281223.60000002384,7072,NTS,B,9
2,9,test,1,A,circle.png,1,z,Fri Feb 28 2025 15:06:50 GMT-0600 (Central Standard Time),285369.90000000596,2000,O,z,618,2,1,2646.0999999940395,282723.8000000119,7072,NTS,B,10
8,10,test,1,A,circle.png,1,m,Fri Feb 28 2025 15:06:50 GMT-0600 (Central Standard Time),287485.60000002384,1600,O,m,480,7,1,2096.100000023842,285389.5,7072,NTS,B,11
6,11,test,1,A,circle.png,1,m,Fri Feb 28 2025 15:06:50 GMT-0600 (Central Standard Time),290068.40000000596,1900,O,m,637,5,1,2563.9000000059605,287504.5,7072,NTS,B,12
4,12,test,1,A,circle.png,1,z,Fri Feb 28 2025 15:06:50 GMT-0600 (Central Standard Time),292234.3000000119,1400,O,z,725,4,1,2148.300000011921,290086.0,7072,NTS,B,13
2,13,test,1,A,circle.png,1,z,Fri Feb 28 2025 15:06:50 GMT-0600 (Central Standard Time),294816.7000000179,2000,O,z,534,2,1,2562.9000000059605,292253.8000000119,7072,NTS,B,14
8,14,test,1,A,circle.png,1,m,Fri Feb 28 2025 15:06:50 GMT-0600 (Central Standard Time),296982.7000000179,1600,O,m,521,7,1,2144.2000000178814,294838.5,7072,NTS,B,15
3,15,test,1,A,circle.png,1,z,Fri Feb 28 2025 15:06:50 GMT-0600 (Central Standard Time),298782.10000002384,1200,O,z,554,3,1,1780.6000000238419,297001.5,7072,NTS,B,16
4,16,test,1,A,circle.png,1,z,Fri Feb 28 2025 15:06:50 GMT-0600 (Central Standard Time),300914.90000000596,1400,O,z,691,4,1,2114.4000000059605,298800.5,7072,NTS,B,17
8,17,test,1,A,circle.png,1,m,Fri Feb 28 2025 15:06:50 GMT-0600 (Central Standard Time),303064.10000002384,1600,O,m,511,7,1,2129.4000000059605,300934.7000000179,7072,NTS,B,18
8,18,test,1,A,circle.png,1,m,Fri Feb 28 2025 15:06:50 GMT-0600 (Central Standard Time),305413.60000002384,1600,O,m,712,7,1,2331.0,303082.60000002384,7072,NTS,B,19
7,19,test,1,A,circle.png,1,m,Fri Feb 28 2025 15:06:50 GMT-0600 (Central Standard Time),307829.0,1700,O,m,664,6,1,2396.0,305433.0,7072,NTS,B,20
3,20,test,1,A,circle.png,1,z,Fri Feb 28 2025 15:06:50 GMT-0600 (Central Standard Time),309711.8000000119,1200,O,z,634,3,1,1865.199999988079,307846.60000002384,7072,NTS,B,21
1,21,test,1,A,circle.png,1,z,Fri Feb 28 2025 15:06:50 GMT-0600 (Central Standard Time),311194.8000000119,1000,O,z,434,1,1,1463.800000011921,309731.0,7072,NTS,B,22
4,22,test,1,A,circle.png,1,z,Fri Feb 28 2025 15:06:50 GMT-0600 (Central Standard Time),313344.10000002384,1400,O,z,709,4,1,2130.9000000059605,311213.2000000179,7072,NTS,B,23
6,23,test,1,A,circle.png,1,m,Fri Feb 28 2025 15:06:50 GMT-0600 (Central Standard Time),315843.2000000179,1900,O,m,558,5,1,2480.300000011921,313362.90000000596,7072,NTS,B,24
8,1,test,1,B,triangle.png,1,m,Fri Feb 28 2025 15:06:50 GMT-0600 (Central Standard Time),331238.10000002384,1700,O,m,563,15,1,2281.100000023842,328957.0,7072,NTS,B,1
1,2,test,1,B,triangle.png,1,z,Fri Feb 28 2025 15:06:50 GMT-0600 (Central Standard Time),333120.90000000596,1400,O,z,436,9,1,1861.4000000059605,331259.5,7072,NTS,B,2
9,2,test,1,B,triangle.png,0,z,Fri Feb 28 2025 15:06:50 GMT-0600 (Central Standard Time),335136.90000000596,1400,O,m,569,8,1,1995.4000000059605,333141.5,7072,NTS,B,3
6,3,test,1,B,triangle.png,1,m,Fri Feb 28 2025 15:06:50 GMT-0600 (Central Standard Time),337253.0,1500,O,m,566,13,1,2095.5999999940395,335157.40000000596,7072,NTS,B,4
6,4,test,1,B,triangle.png,1,m,Fri Feb 28 2025 15:06:50 GMT-0600 (Central Standard Time),338935.7000000179,1000,O,m,637,5,1,1663.5,337272.2000000179,7072,NTS,B,5
4,5,test,1,B,triangle.png,1,m,Fri Feb 28 2025 15:06:50 GMT-0600 (Central Standard Time),341101.5,1500,O,m,623,4,1,2146.0,338955.5,7072,NTS,B,6
2,6,test,1,B,triangle.png,1,m,Fri Feb 28 2025 15:06:50 GMT-0600 (Central Standard Time),343317.5,1700,O,m,473,2,1,2197.699999988079,341119.8000000119,7072,NTS,B,7
6,7,test,1,B,triangle.png,1,m,Fri Feb 28 2025 15:06:50 GMT-0600 (Central Standard Time),345533.5,1500,O,m,673,13,1,2197.0,343336.5,7072,NTS,B,8
2,8,test,1,B,triangle.png,1,m,Fri Feb 28 2025 15:06:50 GMT-0600 (Central Standard Time),347266.40000000596,1200,O,m,484,10,1,1712.7999999821186,345553.60000002384,7072,NTS,B,9
6,9,test,1,B,triangle.png,1,m,Fri Feb 28 2025 15:06:50 GMT-0600 (Central Standard Time),348765.60000002384,1000,O,m,463,5,1,1480.300000011921,347285.3000000119,7072,NTS,B,10
9,10,test,1,B,triangle.png,1,z,Fri Feb 28 2025 15:06:50 GMT-0600 (Central Standard Time),351448.2000000179,1900,O,z,745,16,1,2664.300000011921,348783.90000000596,7072,NTS,B,11
7,11,test,1,B,triangle.png,1,z,Fri Feb 28 2025 15:06:50 GMT-0600 (Central Standard Time),354132.0,2000,O,z,642,6,1,2665.199999988079,351466.8000000119,7072,NTS,B,12
1,12,test,1,B,triangle.png,1,z,Fri Feb 28 2025 15:06:50 GMT-0600 (Central Standard Time),356629.60000002384,1900,O,z,564,1,1,2477.4000000059605,354152.2000000179,7072,NTS,B,13
9,13,test,1,B,triangle.png,1,z,Fri Feb 28 2025 15:06:50 GMT-0600 (Central Standard Time),359212.5,1900,O,z,641,16,1,2564.199999988079,356648.3000000119,7072,NTS,B,14
8,14,test,1,B,triangle.png,1,m,Fri Feb 28 2025 15:06:50 GMT-0600 (Central Standard Time),361061.8000000119,1200,O,m,614,7,1,1829.800000011921,359232.0,7072,NTS,B,15
3,15,test,1,B,triangle.png,1,z,Fri Feb 28 2025 15:06:50 GMT-0600 (Central Standard Time),363727.60000002384,2000,O,z,623,11,1,2647.100000023842,361080.5,7072,NTS,B,16
4,16,test,1,B,triangle.png,1,m,Fri Feb 28 2025 15:06:50 GMT-0600 (Central Standard Time),365493.90000000596,1000,O,m,731,12,1,1746.5999999940395,363747.3000000119,7072,NTS,B,17
8,17,test,1,B,triangle.png,1,m,Fri Feb 28 2025 15:06:50 GMT-0600 (Central Standard Time),367493.60000002384,1200,O,m,764,7,1,1981.6000000238419,365512.0,7072,NTS,B,18
3,18,test,1,B,triangle.png,1,z,Fri Feb 28 2025 15:06:50 GMT-0600 (Central Standard Time),369825.7000000179,1600,O,z,685,3,1,2314.300000011921,367511.40000000596,7072,NTS,B,19
7,19,test,1,B,triangle.png,1,z,Fri Feb 28 2025 15:06:50 GMT-0600 (Central Standard Time),372674.7000000179,2000,O,z,808,6,1,2829.0999999940395,369845.60000002384,7072,NTS,B,20
1,20,test,1,B,triangle.png,1,z,Fri Feb 28 2025 15:06:50 GMT-0600 (Central Standard Time),374940.90000000596,1400,O,z,823,9,1,2245.199999988079,372695.7000000179,7072,NTS,B,21
3,21,test,1,B,triangle.png,1,z,Fri Feb 28 2025 15:06:50 GMT-0600 (Central Standard Time),377273.10000002384,1600,O,z,686,3,1,2313.4000000059605,374959.7000000179,7072,NTS,B,22
7,22,test,1,B,triangle.png,1,z,Fri Feb 28 2025 15:06:50 GMT-0600 (Central Standard Time),379539.10000002384,1600,O,z,618,14,1,2245.800000011921,377293.3000000119,7072,NTS,B,23
4,23,test,1,B,triangle.png,1,m,Fri Feb 28 2025 15:06:50 GMT-0600 (Central Standard Time),381321.90000000596,1000,O,m,735,12,1,1762.7999999821186,379559.10000002384,7072,NTS,B,24
9,0,prac,1,C,circle.png,0,m,Fri Feb 28 2025 15:06:50 GMT-0600 (Central Standard Time),436919.40000000596,1900,O,None,1515,8,1,4190.5,432728.90000000596,7072,NTS,B,1
4,1,prac,1,C,circle.png,1,z,Fri Feb 28 2025 15:06:50 GMT-0600 (Central Standard Time),439801.90000000596,1000,O,z,1090,4,1,2874.9000000059605,436927.0,7072,NTS,B,2
6,2,prac,1,C,circle.png,1,m,Fri Feb 28 2025 15:06:50 GMT-0600 (Central Standard Time),443750.8000000119,2000,O,m,1162,5,1,3940.4000000059605,439810.40000000596,7072,NTS,B,3
2,2,prac,1,C,triangle.png,0,m,Fri Feb 28 2025 15:06:50 GMT-0600 (Central Standard Time),447649.5,1600,O,None,1516,2,1,3891.0,443758.5,7072,NTS,B,4
1,3,prac,1,C,circle.png,1,z,Fri Feb 28 2025 15:06:50 GMT-0600 (Central Standard Time),450881.90000000596,1700,O,z,733,1,1,3225.0999999940395,447656.8000000119,7072,NTS,B,5
8,4,prac,1,C,triangle.png,1,m,Fri Feb 28 2025 15:06:50 GMT-0600 (Central Standard Time),453630.8000000119,1400,O,m,560,7,1,2739.800000011921,450891.0,7072,NTS,B,6
3,5,prac,1,C,triangle.png,1,z,Fri Feb 28 2025 15:06:50 GMT-0600 (Central Standard Time),457196.3000000119,1500,O,z,1271,3,1,3557.5999999940395,453638.7000000179,7072,NTS,B,7
8,6,prac,1,C,triangle.png,1,m,Fri Feb 28 2025 15:06:50 GMT-0600 (Central Standard Time),460162.3000000119,1400,O,m,768,7,1,2957.5,457204.8000000119,7072,NTS,B,8
3,7,prac,1,C,triangle.png,1,z,Fri Feb 28 2025 15:06:50 GMT-0600 (Central Standard Time),463661.8000000119,1500,O,z,1204,3,1,3486.300000011921,460175.5,7072,NTS,B,9
2,8,prac,1,C,triangle.png,1,m,Fri Feb 28 2025 15:06:50 GMT-0600 (Central Standard Time),466710.8000000119,1600,O,m,637,2,1,3024.0,463686.8000000119,7072,NTS,B,10
7,9,prac,1,C,triangle.png,1,z,Fri Feb 28 2025 15:06:50 GMT-0600 (Central Standard Time),469625.60000002384,1200,O,z,907,6,1,2888.100000023842,466737.5,7072,NTS,B,11
6,10,prac,1,C,circle.png,1,m,Fri Feb 28 2025 15:06:50 GMT-0600 (Central Standard Time),473291.90000000596,2000,O,m,896,5,1,3657.699999988079,469634.2000000179,7072,NTS,B,12
3,1,test,1,C,triangle.png,1,z,Fri Feb 28 2025 15:06:50 GMT-0600 (Central Standard Time),505247.90000000596,1200,O,z,887,3,1,2114.4000000059605,503133.5,7072,NTS,B,1
9,2,test,1,C,triangle.png,1,z,Fri Feb 28 2025 15:06:50 GMT-0600 (Central Standard Time),507514.10000002384,1400,O,z,818,16,1,2246.4000000059605,505267.7000000179,7072,NTS,B,2
1,3,test,1,C,triangle.png,1,z,Fri Feb 28 2025 15:06:50 GMT-0600 (Central Standard Time),510346.2000000179,1900,O,z,893,17,1,2811.5999999940395,507534.60000002384,7072,NTS,B,3
2,3,test,1,C,circle.png,0,z,Fri Feb 28 2025 15:06:50 GMT-0600 (Central Standard Time),512912.40000000596,1700,O,m,820,10,1,2547.2999999821186,510365.10000002384,7072,NTS,B,4
4,4,test,1,C,triangle.png,1,m,Fri Feb 28 2025 15:06:50 GMT-0600 (Central Standard Time),515861.8000000119,1500,O,m,1415,20,1,2929.699999988079,512932.10000002384,7072,NTS,B,5
2,5,test,1,C,triangle.png,1,m,Fri Feb 28 2025 15:06:50 GMT-0600 (Central Standard Time),518910.0,2000,O,m,1013,2,1,3032.2999999821186,515877.7000000179,7072,NTS,B,6
4,6,test,1,C,triangle.png,1,m,Fri Feb 28 2025 15:06:50 GMT-0600 (Central Standard Time),521126.0,1500,O,m,681,12,1,2196.399999976158,518929.60000002384,7072,NTS,B,7
4,7,test,1,C,circle.png,1,z,Fri Feb 28 2025 15:06:50 GMT-0600 (Central Standard Time),523958.2000000179,1400,O,z,1396,4,1,2812.4000000059605,521145.8000000119,7072,NTS,B,8
3,8,test,1,C,circle.png,1,z,Fri Feb 28 2025 15:06:50 GMT-0600 (Central Standard Time),526490.900000006,1600,O,z,884,11,1,2513.0,523977.90000000596,7072,NTS,B,9
1,9,test,1,C,circle.png,1,z,Fri Feb 28 2025 15:06:50 GMT-0600 (Central Standard Time),528157.6000000238,1000,O,z,631,1,1,1645.2000000178814,526512.400000006,7072,NTS,B,10
3,10,test,1,C,circle.png,1,z,Fri Feb 28 2025 15:06:50 GMT-0600 (Central Standard Time),530639.6000000238,1600,O,z,838,19,1,2461.0,528178.6000000238,7072,NTS,B,11
6,11,test,1,C,circle.png,1,m,Fri Feb 28 2025 15:06:50 GMT-0600 (Central Standard Time),533338.7000000179,1900,O,m,759,21,1,2680.0999999940395,530658.6000000238,7072,NTS,B,12
6,12,test,1,C,triangle.png,1,m,Fri Feb 28 2025 15:06:50 GMT-0600 (Central Standard Time),535637.400000006,1000,O,m,1255,13,1,2279.7999999821186,533357.6000000238,7072,NTS,B,13
7,12,test,1,C,triangle.png,0,z,Fri Feb 28 2025 15:06:50 GMT-0600 (Central Standard Time),538353.7000000179,1700,O,m,985,6,1,2704.5999999940395,535649.1000000238,7072,NTS,B,14
9,12,test,1,C,circle.png,0,m,Fri Feb 28 2025 15:06:50 GMT-0600 (Central Standard Time),541402.8000000119,1500,O,None,1515,24,1,3030.0,538372.8000000119,7072,NTS,B,15
7,12,test,1,C,triangle.png,0,z,Fri Feb 28 2025 15:06:50 GMT-0600 (Central Standard Time),544184.5,1700,O,m,1043,22,1,2762.699999988079,541421.8000000119,7072,NTS,B,16
1,13,test,1,C,triangle.png,1,z,Fri Feb 28 2025 15:06:50 GMT-0600 (Central Standard Time),547283.900000006,1900,O,z,1174,9,1,3093.7999999821186,544190.1000000238,7072,NTS,B,17
2,14,test,1,C,circle.png,1,z,Fri Feb 28 2025 15:06:50 GMT-0600 (Central Standard Time),550333.900000006,1700,O,z,1314,18,1,3030.2999999821186,547303.6000000238,7072,NTS,B,18
9,15,test,1,C,circle.png,1,m,Fri Feb 28 2025 15:06:50 GMT-0600 (Central Standard Time),553365.2000000179,1500,O,m,1489,8,1,3010.9000000059605,550354.3000000119,7072,NTS,B,19
8,16,test,1,C,triangle.png,1,m,Fri Feb 28 2025 15:06:50 GMT-0600 (Central Standard Time),556247.8000000119,1600,O,m,1237,23,1,2863.9000000059605,553383.900000006,7072,NTS,B,20
6,17,test,1,C,circle.png,1,m,Fri Feb 28 2025 15:06:50 GMT-0600 (Central Standard Time),559246.7000000179,1900,O,m,1063,5,1,2979.5,556267.2000000179,7072,NTS,B,21
8,18,test,1,C,triangle.png,1,m,Fri Feb 28 2025 15:06:50 GMT-0600 (Central Standard Time),561812.8000000119,1600,O,m,924,7,1,2547.0,559265.8000000119,7072,NTS,B,22
7,19,test,1,C,circle.png,1,m,Fri Feb 28 2025 15:06:50 GMT-0600 (Central Standard Time),565045.8000000119,2000,O,m,1199,14,1,3214.800000011921,561831.0,7072,NTS,B,23
8,20,test,1,C,circle.png,1,m,Fri Feb 28 2025 15:06:50 GMT-0600 (Central Standard Time),566911.0,1200,O,m,621,15,1,1845.0,565066.0,7072,NTS,B,24
3,1,test,2,C,circle.png,1,z,Fri Feb 28 2025 15:06:50 GMT-0600 (Central Standard Time),578857.400000006,1600,O,z,753,11,1,2381.699999988079,576475.7000000179,7072,NTS,B,1
6,2,test,2,C,triangle.png,1,m,Fri Feb 28 2025 15:06:50 GMT-0600 (Central Standard Time),580656.8000000119,1000,O,m,761,21,1,1778.4000000059605,578878.400000006,7072,NTS,B,2
2,3,test,2,C,circle.png,1,z,Fri Feb 28 2025 15:06:50 GMT-0600 (Central Standard Time),583022.3000000119,1700,O,z,622,18,1,2346.0,580676.3000000119,7072,NTS,B,3
6,4,test,2,C,triangle.png,1,m,Fri Feb 28 2025 15:06:50 GMT-0600 (Central Standard Time),584605.2000000179,1000,O,m,540,13,1,1564.2000000178814,583041.0,7072,NTS,B,4
8,5,test,2,C,circle.png,1,m,Fri Feb 28 2025 15:06:50 GMT-0600 (Central Standard Time),586354.7000000179,1200,O,m,509,23,1,1730.800000011921,584623.900000006,7072,NTS,B,5
3,6,test,2,C,circle.png,1,z,Fri Feb 28 2025 15:06:50 GMT-0600 (Central Standard Time),588654.1000000238,1600,O,z,656,19,1,2281.100000023842,586373.0,7072,NTS,B,6
4,7,test,2,C,triangle.png,1,m,Fri Feb 28 2025 15:06:50 GMT-0600 (Central Standard Time),590786.400000006,1500,O,m,593,20,1,2112.9000000059605,588673.5,7072,NTS,B,7
4,7,test,2,C,circle.png,0,z,Fri Feb 28 2025 15:06:50 GMT-0600 (Central Standard Time),593069.8000000119,1400,O,m,848,4,1,2263.5999999940395,590806.2000000179,7072,NTS,B,8
9,7,test,2,C,triangle.png,0,z,Fri Feb 28 2025 15:06:50 GMT-0600 (Central Standard Time),595101.900000006,1400,O,m,589,16,1,2012.199999988079,593089.7000000179,7072,NTS,B,9
6,8,test,2,C,circle.png,1,m,Fri Feb 28 2025 15:06:50 GMT-0600 (Central Standard Time),598084.2000000179,1900,O,m,1041,5,1,2961.9000000059605,595122.3000000119,7072,NTS,B,10
7,9,test,2,C,circle.png,1,m,Fri Feb 28 2025 15:06:50 GMT-0600 (Central Standard Time),600899.8000000119,2000,O,m,775,14,1,2796.800000011921,598103.0,7072,NTS,B,11
7,10,test,2,C,triangle.png,1,z,Fri Feb 28 2025 15:06:50 GMT-0600 (Central Standard Time),603715.7000000179,1700,O,z,1074,6,1,2797.0999999940395,600918.6000000238,7072,NTS,B,12
9,10,test,2,C,circle.png,0,m,Fri Feb 28 2025 15:06:50 GMT-0600 (Central Standard Time),605898.2000000179,1500,O,z,643,8,1,2163.9000000059605,603734.3000000119,7072,NTS,B,13
1,11,test,2,C,circle.png,1,z,Fri Feb 28 2025 15:06:50 GMT-0600 (Central Standard Time),607931.1000000238,1000,O,z,984,1,1,2014.4000000059605,605916.7000000179,7072,NTS,B,14
9,12,test,2,C,triangle.png,1,z,Fri Feb 28 2025 15:06:50 GMT-0600 (Central Standard Time),610696.7000000179,1400,O,z,1319,24,1,2746.0999999940395,607950.6000000238,7072,NTS,B,15
2,13,test,2,C,circle.png,1,z,Fri Feb 28 2025 15:06:50 GMT-0600 (Central Standard Time),613695.6000000238,1700,O,z,1262,10,1,2979.9000000059605,610715.7000000179,7072,NTS,B,16
8,14,test,2,C,triangle.png,1,m,Fri Feb 28 2025 15:06:50 GMT-0600 (Central Standard Time),616111.5,1600,O,m,771,7,1,2396.399999976158,613715.1000000238,7072,NTS,B,17
7,15,test,2,C,circle.png,1,m,Fri Feb 28 2025 15:06:50 GMT-0600 (Central Standard Time),619260.5,2000,O,m,1107,22,1,3128.899999976158,616131.6000000238,7072,NTS,B,18
8,16,test,2,C,circle.png,1,m,Fri Feb 28 2025 15:06:50 GMT-0600 (Central Standard Time),621059.8000000119,1200,O,m,550,15,1,1779.5,619280.3000000119,7072,NTS,B,19
1,17,test,2,C,triangle.png,1,z,Fri Feb 28 2025 15:06:50 GMT-0600 (Central Standard Time),623825.7000000179,1900,O,z,827,17,1,2746.2000000178814,621079.5,7072,NTS,B,20
4,18,test,2,C,triangle.png,1,m,Fri Feb 28 2025 15:06:50 GMT-0600 (Central Standard Time),626191.7000000179,1500,O,m,829,12,1,2341.2000000178814,623850.5,7072,NTS,B,21
2,19,test,2,C,triangle.png,1,m,Fri Feb 28 2025 15:06:50 GMT-0600 (Central Standard Time),629540.7000000179,2000,O,m,1299,2,1,3328.5,626212.2000000179,7072,NTS,B,22
3,20,test,2,C,triangle.png,1,z,Fri Feb 28 2025 15:06:50 GMT-0600 (Central Standard Time),631673.3000000119,1200,O,z,894,3,1,2113.9000000059605,629559.400000006,7072,NTS,B,23
1,21,test,2,C,triangle.png,1,z,Fri Feb 28 2025 15:06:50 GMT-0600 (Central Standard Time),634472.1000000238,1900,O,z,854,9,1,2780.7000000178814,631691.400000006,7072,NTS,B,24
7,0,test,3,C,triangle.png,0,z,Fri Feb 28 2025 15:06:50 GMT-0600 (Central Standard Time),638222.0,1700,O,m,531,6,1,2249.199999988079,635972.8000000119,7072,NTS,B,1
6,1,test,3,C,triangle.png,1,m,Fri Feb 28 2025 15:06:50 GMT-0600 (Central Standard Time),639837.400000006,1000,O,m,574,13,1,1596.0999999940395,638241.3000000119,7072,NTS,B,2
3,2,test,3,C,triangle.png,1,z,Fri Feb 28 2025 15:06:50 GMT-0600 (Central Standard Time),642086.3000000119,1200,O,z,1005,3,1,2229.0999999940395,639857.2000000179,7072,NTS,B,3
8,3,test,3,C,triangle.png,1,m,Fri Feb 28 2025 15:06:50 GMT-0600 (Central Standard Time),644402.3000000119,1600,O,m,676,23,1,2295.699999988079,642106.6000000238,7072,NTS,B,4
4,4,test,3,C,circle.png,1,z,Fri Feb 28 2025 15:06:50 GMT-0600 (Central Standard Time),646934.7000000179,1400,O,z,1098,20,1,2513.4000000059605,644421.3000000119,7072,NTS,B,5
1,5,test,3,C,circle.png,1,z,Fri Feb 28 2025 15:06:50 GMT-0600 (Central Standard Time),649067.400000006,1000,O,z,1092,17,1,2112.9000000059605,646954.5,7072,NTS,B,6
6,6,test,3,C,circle.png,1,m,Fri Feb 28 2025 15:06:50 GMT-0600 (Central Standard Time),651866.6000000238,1900,O,m,851,21,1,2780.4000000059605,649086.2000000179,7072,NTS,B,7
9,7,test,3,C,triangle.png,1,z,Fri Feb 28 2025 15:06:50 GMT-0600 (Central Standard Time),654299.0,1400,O,z,984,16,1,2414.0,651885.0,7072,NTS,B,8
2,8,test,3,C,triangle.png,1,m,Fri Feb 28 2025 15:06:50 GMT-0600 (Central Standard Time),657631.2000000179,2000,O,m,1296,2,1,3313.7000000178814,654317.5,7072,NTS,B,9
7,9,test,3,C,circle.png,1,m,Fri Feb 28 2025 15:06:50 GMT-0600 (Central Standard Time),660630.0,2000,O,m,963,14,1,2980.0999999940395,657649.900000006,7072,NTS,B,10
9,10,test,3,C,circle.png,1,m,Fri Feb 28 2025 15:06:50 GMT-0600 (Central Standard Time),662796.5,1500,O,m,624,24,1,2146.199999988079,660650.3000000119,7072,NTS,B,11
1,10,test,3,C,circle.png,0,z,Fri Feb 28 2025 15:06:50 GMT-0600 (Central Standard Time),664711.400000006,1000,O,m,869,1,1,1895.4000000059605,662816.0,7072,NTS,B,12
9,11,test,3,C,circle.png,1,m,Fri Feb 28 2025 15:06:50 GMT-0600 (Central Standard Time),667178.2000000179,1500,O,m,943,8,1,2461.0,664717.2000000179,7072,NTS,B,13
4,12,test,3,C,triangle.png,1,m,Fri Feb 28 2025 15:06:50 GMT-0600 (Central Standard Time),669744.0,1500,O,m,1029,12,1,2546.0999999940395,667197.900000006,7072,NTS,B,14
7,13,test,3,C,triangle.png,1,z,Fri Feb 28 2025 15:06:50 GMT-0600 (Central Standard Time),672709.900000006,1700,O,z,1230,22,1,2941.699999988079,669768.2000000179,7072,NTS,B,15
2,13,test,3,C,circle.png,0,z,Fri Feb 28 2025 15:06:50 GMT-0600 (Central Standard Time),675158.8000000119,1700,O,m,713,10,1,2429.199999988079,672729.6000000238,7072,NTS,B,16
8,14,test,3,C,triangle.png,1,m,Fri Feb 28 2025 15:06:50 GMT-0600 (Central Standard Time),677674.8000000119,1600,O,m,868,7,1,2497.300000011921,675177.5,7072,NTS,B,17
3,15,test,3,C,circle.png,1,z,Fri Feb 28 2025 15:06:50 GMT-0600 (Central Standard Time),680257.400000006,1600,O,z,936,11,1,2562.7999999821186,677694.6000000238,7072,NTS,B,18
4,15,test,3,C,circle.png,0,z,Fri Feb 28 2025 15:06:50 GMT-0600 (Central Standard Time),682456.5,1400,O,m,753,4,1,2179.2999999821186,680277.2000000179,7072,NTS,B,19
8,16,test,3,C,circle.png,1,m,Fri Feb 28 2025 15:06:50 GMT-0600 (Central Standard Time),684405.900000006,1200,O,m,714,15,1,1930.5,682475.400000006,7072,NTS,B,20
6,17,test,3,C,circle.png,1,m,Fri Feb 28 2025 15:06:50 GMT-0600 (Central Standard Time),687155.0,1900,O,m,801,5,1,2731.0,684424.0,7072,NTS,B,21
1,18,test,3,C,triangle.png,1,z,Fri Feb 28 2025 15:06:50 GMT-0600 (Central Standard Time),690187.3000000119,1900,O,z,1084,9,1,3013.5,687173.8000000119,7072,NTS,B,22
3,19,test,3,C,triangle.png,1,z,Fri Feb 28 2025 15:06:50 GMT-0600 (Central Standard Time),692303.1000000238,1200,O,z,880,19,1,2097.4000000059605,690205.7000000179,7072,NTS,B,23
2,20,test,3,C,triangle.png,1,m,Fri Feb 28 2025 15:06:50 GMT-0600 (Central Standard Time),695069.2000000179,2000,O,m,715,18,1,2747.0999999940395,692322.1000000238,7072,NTS,B,24
6,1,test,4,C,circle.png,1,m,Fri Feb 28 2025 15:06:50 GMT-0600 (Central Standard Time),701234.1000000238,1900,O,m,677,21,1,2598.800000011921,698635.3000000119,7072,NTS,B,1
7,2,test,4,C,circle.png,1,m,Fri Feb 28 2025 15:06:50 GMT-0600 (Central Standard Time),703833.0,2000,O,m,562,14,1,2579.199999988079,701253.8000000119,7072,NTS,B,2
3,3,test,4,C,triangle.png,1,z,Fri Feb 28 2025 15:06:50 GMT-0600 (Central Standard Time),705898.900000006,1200,O,z,826,19,1,2047.4000000059605,703851.5,7072,NTS,B,3
1,4,test,4,C,circle.png,1,z,Fri Feb 28 2025 15:06:50 GMT-0600 (Central Standard Time),708248.1000000238,1000,O,z,1303,1,1,2330.7000000178814,705917.400000006,7072,NTS,B,4
8,5,test,4,C,triangle.png,1,m,Fri Feb 28 2025 15:06:50 GMT-0600 (Central Standard Time),710697.3000000119,1600,O,m,794,23,1,2408.5,708288.8000000119,7072,NTS,B,5
2,5,test,4,C,triangle.png,0,m,Fri Feb 28 2025 15:06:50 GMT-0600 (Central Standard Time),713746.3000000119,2000,O,z,1009,18,1,3030.9000000059605,710715.400000006,7072,NTS,B,6
3,6,test,4,C,triangle.png,1,z,Fri Feb 28 2025 15:06:50 GMT-0600 (Central Standard Time),715894.7000000179,1200,O,z,903,3,1,2128.300000011921,713766.400000006,7072,NTS,B,7
8,7,test,4,C,triangle.png,1,m,Fri Feb 28 2025 15:06:50 GMT-0600 (Central Standard Time),718411.2000000179,1600,O,m,892,7,1,2510.7000000178814,715900.5,7072,NTS,B,8
7,7,test,4,C,triangle.png,0,z,Fri Feb 28 2025 15:06:50 GMT-0600 (Central Standard Time),721110.7000000179,1700,O,m,955,6,1,2681.5,718429.2000000179,7072,NTS,B,9
4,8,test,4,C,circle.png,1,z,Fri Feb 28 2025 15:06:50 GMT-0600 (Central Standard Time),723559.7000000179,1400,O,z,1004,4,1,2429.2000000178814,721130.5,7072,NTS,B,10
7,9,test,4,C,triangle.png,1,z,Fri Feb 28 2025 15:06:50 GMT-0600 (Central Standard Time),726525.400000006,1700,O,z,1224,22,1,2944.7999999821186,723580.6000000238,7072,NTS,B,11
9,10,test,4,C,circle.png,1,m,Fri Feb 28 2025 15:06:50 GMT-0600 (Central Standard Time),729207.1000000238,1500,O,m,1146,8,1,2662.600000023842,726544.5,7072,NTS,B,12
6,11,test,4,C,triangle.png,1,m,Fri Feb 28 2025 15:06:50 GMT-0600 (Central Standard Time),731106.6000000238,1000,O,m,868,13,1,1892.6000000238419,729214.0,7072,NTS,B,13
1,12,test,4,C,triangle.png,1,z,Fri Feb 28 2025 15:06:50 GMT-0600 (Central Standard Time),733823.0,1900,O,z,788,9,1,2710.2999999821186,731112.7000000179,7072,NTS,B,14
8,13,test,4,C,circle.png,1,m,Fri Feb 28 2025 15:06:50 GMT-0600 (Central Standard Time),735972.5,1200,O,m,899,15,1,2129.7999999821186,733842.7000000179,7072,NTS,B,15
2,13,test,4,C,circle.png,0,z,Fri Feb 28 2025 15:06:50 GMT-0600 (Central Standard Time),739221.400000006,1700,O,None,1514,10,1,3229.4000000059605,735992.0,7072,NTS,B,16
2,13,test,4,C,triangle.png,0,m,Fri Feb 28 2025 15:06:50 GMT-0600 (Central Standard Time),742369.8000000119,2000,O,z,1101,2,1,3129.699999988079,739240.1000000238,7072,NTS,B,17
3,14,test,4,C,circle.png,1,z,Fri Feb 28 2025 15:06:50 GMT-0600 (Central Standard Time),745202.8000000119,1600,O,z,1209,11,1,2822.699999988079,742380.1000000238,7072,NTS,B,18
9,15,test,4,C,circle.png,1,m,Fri Feb 28 2025 15:06:50 GMT-0600 (Central Standard Time),748035.1000000238,1500,O,m,1284,24,1,2813.300000011921,745221.8000000119,7072,NTS,B,19
4,16,test,4,C,circle.png,1,z,Fri Feb 28 2025 15:06:50 GMT-0600 (Central Standard Time),750467.7000000179,1400,O,z,991,20,1,2414.300000011921,748053.400000006,7072,NTS,B,20
9,17,test,4,C,triangle.png,1,z,Fri Feb 28 2025 15:06:50 GMT-0600 (Central Standard Time),752883.5,1400,O,z,967,16,1,2397.2999999821186,750486.2000000179,7072,NTS,B,21
4,18,test,4,C,triangle.png,1,m,Fri Feb 28 2025 15:06:50 GMT-0600 (Central Standard Time),755282.8000000119,1500,O,m,859,12,1,2381.0999999940395,752901.7000000179,7072,NTS,B,22
1,19,test,4,C,circle.png,1,z,Fri Feb 28 2025 15:06:50 GMT-0600 (Central Standard Time),756849.1000000238,1000,O,z,528,17,1,1544.9000000059605,755304.2000000179,7072,NTS,B,23
6,20,test,4,C,circle.png,1,m,Fri Feb 28 2025 15:06:50 GMT-0600 (Central Standard Time),759514.5,1900,O,m,718,5,1,2647.0999999940395,756867.400000006,7072,NTS,B,24
