acc_sum,block,block_c,change,condition,correct,correct_response,datetime,endtime,face,project,response,response_time,row_sel,session_number,start_end,starttime,subject_id,task,task_vers,trial
0,prac,1,,1-Back,,,Thu Feb 20 2025 14:02:05 GMT-0600 (Central Standard Time),,012_o_f_d_a.png,O,space,11835,1,1,,,7067,VNB,C,0
1,prac,1,0.0,1-Back,1,m,Thu Feb 20 2025 14:02:05 GMT-0600 (Central Standard Time),143688.10000002384,022_y_f_n_a.png,O,m,1352,2,1,2283.899999976158,141404.20000004768,7067,VNB,C,1
2,prac,1,0.0,1-Back,1,m,Thu Feb 20 2025 14:02:05 GMT-0600 (Central Standard Time),145670.90000003576,014_m_m_h_a.png,O,m,1043,3,1,1941.1000000238419,143729.80000001192,7067,VNB,C,2
3,prac,1,0.0,1-Back,1,m,Thu Feb 20 2025 14:02:05 GMT-0600 (Central Standard Time),147435.90000003576,025_y_m_d_a.png,O,m,834,4,1,1734.5,145701.40000003576,7067,VNB,C,3
4,prac,1,0.0,1-Back,1,m,Thu Feb 20 2025 14:02:05 GMT-0600 (Central Standard Time),149152.70000004768,012_o_f_n_a.png,O,m,792,5,1,1708.1000000238419,147444.60000002384,7067,VNB,C,4
5,prac,1,1.0,1-Back,1,z,Thu Feb 20 2025 14:02:05 GMT-0600 (Central Standard Time),151118.80000001192,025_y_m_n_a.png,O,z,1030,6,1,1930.300000011921,149188.5,7067,VNB,C,5
6,prac,1,0.0,1-Back,1,m,Thu Feb 20 2025 14:02:05 GMT-0600 (Central Standard Time),153018.10000002384,015_o_m_h_a.png,O,m,930,7,1,1861.800000011921,151156.30000001192,7067,VNB,C,6
7,prac,1,0.0,1-Back,1,m,Thu Feb 20 2025 14:02:05 GMT-0600 (Central Standard Time),154700.80000001192,019_m_f_d_a.png,O,m,724,8,1,1652.5999999642372,153048.20000004768,7067,VNB,C,7
8,prac,1,1.0,1-Back,1,z,Thu Feb 20 2025 14:02:05 GMT-0600 (Central Standard Time),156550.40000003576,022_y_f_d_a.png,O,z,891,9,1,1812.0,154738.40000003576,7067,VNB,C,8
9,prac,1,0.0,1-Back,1,m,Thu Feb 20 2025 14:02:05 GMT-0600 (Central Standard Time),158399.10000002384,014_m_m_n_a.png,O,m,915,10,1,1812.0,156587.10000002384,7067,VNB,C,9
9,prac,1,0.0,1-Back,0,m,Thu Feb 20 2025 14:02:05 GMT-0600 (Central Standard Time),160498.80000001192,012_o_f_h_a.png,O,z,1171,11,1,2083.199999988079,158415.60000002384,7067,VNB,C,10
10,prac,1,0.0,1-Back,1,m,Thu Feb 20 2025 14:02:05 GMT-0600 (Central Standard Time),162398.80000001192,025_y_m_d_a.png,O,m,975,12,1,1872.0,160526.80000001192,7067,VNB,C,11
0,test,1,0.0,1-Back,,,Thu Feb 20 2025 14:02:05 GMT-0600 (Central Standard Time),162398.80000001192,022_y_f_d_a.png,O,space,10113,1,1,1872.0,160526.80000001192,7067,VNB,C,0
1,test,1,0.0,1-Back,1,m,Thu Feb 20 2025 14:02:05 GMT-0600 (Central Standard Time),185207.40000003576,019_m_f_n_a.png,O,m,1095,2,1,2108.0,183099.40000003576,7067,VNB,C,1
2,test,1,0.0,1-Back,1,m,Thu Feb 20 2025 14:02:05 GMT-0600 (Central Standard Time),187240.10000002384,015_o_m_h_a.png,O,m,994,3,1,2005.800000011921,185234.30000001192,7067,VNB,C,2
3,test,1,1.0,1-Back,1,z,Thu Feb 20 2025 14:02:05 GMT-0600 (Central Standard Time),189739.80000001192,014_m_m_h_a.png,O,z,1457,4,1,2471.599999964237,187268.20000004768,7067,VNB,C,3
4,test,1,0.0,1-Back,1,m,Thu Feb 20 2025 14:02:05 GMT-0600 (Central Standard Time),192139.10000002384,012_o_f_n_a.png,O,m,1351,5,1,2372.399999976158,189766.70000004768,7067,VNB,C,4
5,test,1,0.0,1-Back,1,m,Thu Feb 20 2025 14:02:05 GMT-0600 (Central Standard Time),194037.5,025_y_m_d_a.png,O,m,861,6,1,1875.2999999523163,192162.20000004768,7067,VNB,C,5
6,test,1,1.0,1-Back,1,z,Thu Feb 20 2025 14:02:05 GMT-0600 (Central Standard Time),195970.5,019_m_f_d_a.png,O,z,892,7,1,1917.5,194053.0,7067,VNB,C,6
7,test,1,0.0,1-Back,1,m,Thu Feb 20 2025 14:02:05 GMT-0600 (Central Standard Time),198486.30000001192,022_y_f_h_a.png,O,m,1472,8,1,2485.399999976158,196000.90000003576,7067,VNB,C,7
8,test,1,0.0,1-Back,1,m,Thu Feb 20 2025 14:02:05 GMT-0600 (Central Standard Time),200935.60000002384,015_o_m_n_a.png,O,m,1386,9,1,2414.399999976158,198521.20000004768,7067,VNB,C,8
8,test,1,0.0,1-Back,0,m,Thu Feb 20 2025 14:02:05 GMT-0600 (Central Standard Time),203334.70000004768,025_y_m_h_a.png,O,z,1345,10,1,2363.800000011921,200970.90000003576,7067,VNB,C,9
9,test,1,0.0,1-Back,1,m,Thu Feb 20 2025 14:02:05 GMT-0600 (Central Standard Time),205317.70000004768,015_o_m_d_a.png,O,m,938,11,1,1957.300000011921,203360.40000003576,7067,VNB,C,10
10,test,1,1.0,1-Back,1,z,Thu Feb 20 2025 14:02:05 GMT-0600 (Central Standard Time),207485.0,012_o_f_d_a.png,O,z,1132,12,1,2141.399999976158,205343.60000002384,7067,VNB,C,11
11,test,1,0.0,1-Back,1,m,Thu Feb 20 2025 14:02:05 GMT-0600 (Central Standard Time),209716.40000003576,014_m_m_n_a.png,O,m,1190,13,1,2202.699999988079,207513.70000004768,7067,VNB,C,12
11,test,1,1.0,1-Back,0,z,Thu Feb 20 2025 14:02:05 GMT-0600 (Central Standard Time),211731.30000001192,022_y_f_n_a.png,O,m,972,14,1,1987.0999999642372,209744.20000004768,7067,VNB,C,13
11,test,1,0.0,1-Back,0,m,Thu Feb 20 2025 14:02:05 GMT-0600 (Central Standard Time),214764.5,019_m_f_h_a.png,O,None,2013,15,1,3028.599999964237,211735.90000003576,7067,VNB,C,14
12,test,1,0.0,1-Back,1,m,Thu Feb 20 2025 14:02:05 GMT-0600 (Central Standard Time),216663.80000001192,014_m_m_d_a.png,O,m,861,16,1,1878.199999988079,214785.60000002384,7067,VNB,C,15
13,test,1,0.0,1-Back,1,m,Thu Feb 20 2025 14:02:05 GMT-0600 (Central Standard Time),219063.20000004768,025_y_m_n_a.png,O,m,1344,17,1,2363.5,216699.70000004768,7067,VNB,C,16
14,test,1,0.0,1-Back,1,m,Thu Feb 20 2025 14:02:05 GMT-0600 (Central Standard Time),220929.5,012_o_f_h_a.png,O,m,802,18,1,1837.0,219092.5,7067,VNB,C,17
0,test,2,0.0,1-Back,,,Thu Feb 20 2025 14:02:05 GMT-0600 (Central Standard Time),220929.5,025_y_m_n_a.png,O,space,1632,1,1,1837.0,219092.5,7067,VNB,C,0
1,test,2,0.0,1-Back,1,m,Thu Feb 20 2025 14:02:05 GMT-0600 (Central Standard Time),226646.10000002384,022_y_f_h_a.png,O,m,999,2,1,2025.0,224621.10000002384,7067,VNB,C,1
2,test,2,1.0,1-Back,1,m,Thu Feb 20 2025 14:02:05 GMT-0600 (Central Standard Time),229192.90000003576,015_o_m_n_a.png,O,m,1493,3,1,2514.400000035763,226678.5,7067,VNB,C,2
3,test,2,0.0,1-Back,1,m,Thu Feb 20 2025 14:02:05 GMT-0600 (Central Standard Time),231975.70000004768,019_m_f_d_a.png,O,m,1736,4,1,2758.100000023842,229217.60000002384,7067,VNB,C,3
4,test,2,0.0,1-Back,1,z,Thu Feb 20 2025 14:02:05 GMT-0600 (Central Standard Time),234574.40000003576,014_m_m_d_a.png,O,z,1562,5,1,2573.699999988079,232000.70000004768,7067,VNB,C,4
5,test,2,0.0,1-Back,1,m,Thu Feb 20 2025 14:02:05 GMT-0600 (Central Standard Time),236607.80000001192,025_y_m_h_a.png,O,m,971,6,1,1996.199999988079,234611.60000002384,7067,VNB,C,5
6,test,2,1.0,1-Back,1,z,Thu Feb 20 2025 14:02:05 GMT-0600 (Central Standard Time),239290.0,012_o_f_h_a.png,O,z,1627,7,1,2652.599999964237,236637.40000003576,7067,VNB,C,6
7,test,2,0.0,1-Back,1,m,Thu Feb 20 2025 14:02:05 GMT-0600 (Central Standard Time),241572.30000001192,019_m_f_n_a.png,O,m,1215,8,1,2248.800000011921,239323.5,7067,VNB,C,7
8,test,2,0.0,1-Back,1,m,Thu Feb 20 2025 14:02:05 GMT-0600 (Central Standard Time),244338.30000001192,022_y_f_d_a.png,O,m,1725,9,1,2736.300000011921,241602.0,7067,VNB,C,8
9,test,2,0.0,1-Back,1,m,Thu Feb 20 2025 14:02:05 GMT-0600 (Central Standard Time),246304.30000001192,014_m_m_n_a.png,O,m,927,10,1,1943.699999988079,244360.60000002384,7067,VNB,C,9
10,test,2,1.0,1-Back,1,m,Thu Feb 20 2025 14:02:05 GMT-0600 (Central Standard Time),248736.40000003576,019_m_f_h_a.png,O,m,1376,11,1,2398.5,246337.90000003576,7067,VNB,C,10
10,test,2,0.0,1-Back,0,z,Thu Feb 20 2025 14:02:05 GMT-0600 (Central Standard Time),251369.40000003576,015_o_m_h_a.png,O,m,1585,12,1,2613.800000011921,248755.60000002384,7067,VNB,C,11
11,test,2,0.0,1-Back,1,m,Thu Feb 20 2025 14:02:05 GMT-0600 (Central Standard Time),253301.80000001192,025_y_m_d_a.png,O,m,879,13,1,1898.8999999761581,251402.90000003576,7067,VNB,C,12
12,test,2,0.0,1-Back,1,m,Thu Feb 20 2025 14:02:05 GMT-0600 (Central Standard Time),255967.60000002384,012_o_f_n_a.png,O,m,1627,14,1,2638.399999976158,253329.20000004768,7067,VNB,C,13
13,test,2,0.0,1-Back,1,z,Thu Feb 20 2025 14:02:05 GMT-0600 (Central Standard Time),258117.30000001192,022_y_f_n_a.png,O,z,1116,15,1,2118.599999964237,255998.70000004768,7067,VNB,C,14
14,test,2,1.0,1-Back,1,m,Thu Feb 20 2025 14:02:05 GMT-0600 (Central Standard Time),260216.70000004768,014_m_m_h_a.png,O,m,1036,16,1,2062.2000000476837,258154.5,7067,VNB,C,15
15,test,2,0.0,1-Back,1,m,Thu Feb 20 2025 14:02:05 GMT-0600 (Central Standard Time),262298.7000000477,012_o_f_d_a.png,O,m,1033,17,1,2055.2000000476837,260243.5,7067,VNB,C,16
15,test,2,1.0,1-Back,0,z,Thu Feb 20 2025 14:02:05 GMT-0600 (Central Standard Time),264281.40000003576,015_o_m_d_a.png,O,m,934,18,1,1957.1000000238419,262324.3000000119,7067,VNB,C,17
0,test,3,1.0,1-Back,,,Thu Feb 20 2025 14:02:05 GMT-0600 (Central Standard Time),264281.40000003576,012_o_f_h_a.png,O,space,1400,1,1,1957.1000000238419,262324.3000000119,7067,VNB,C,0
0,test,3,0.0,1-Back,0,m,Thu Feb 20 2025 14:02:05 GMT-0600 (Central Standard Time),270296.10000002384,019_m_f_d_a.png,O,z,1378,2,1,2398.300000011921,267897.8000000119,7067,VNB,C,1
0,test,3,1.0,1-Back,0,m,Thu Feb 20 2025 14:02:05 GMT-0600 (Central Standard Time),273362.3000000119,014_m_m_n_a.png,O,None,2014,3,1,3026.099999964237,270336.2000000477,7067,VNB,C,2
0,test,3,0.0,1-Back,0,z,Thu Feb 20 2025 14:02:05 GMT-0600 (Central Standard Time),276093.7000000477,012_o_f_n_a.png,O,m,1670,4,1,2700.100000023842,273393.60000002384,7067,VNB,C,3
1,test,3,1.0,1-Back,1,m,Thu Feb 20 2025 14:02:05 GMT-0600 (Central Standard Time),278709.8000000119,015_o_m_d_a.png,O,m,1579,5,1,2600.5,276109.3000000119,7067,VNB,C,4
2,test,3,0.0,1-Back,1,m,Thu Feb 20 2025 14:02:05 GMT-0600 (Central Standard Time),280692.7000000477,022_y_f_h_a.png,O,m,939,6,1,1967.300000011921,278725.40000003576,7067,VNB,C,5
3,test,3,0.0,1-Back,1,z,Thu Feb 20 2025 14:02:05 GMT-0600 (Central Standard Time),282692.10000002384,025_y_m_h_a.png,O,z,949,7,1,1977.3999999761581,280714.7000000477,7067,VNB,C,6
4,test,3,0.0,1-Back,1,m,Thu Feb 20 2025 14:02:05 GMT-0600 (Central Standard Time),284841.3000000119,019_m_f_n_a.png,O,m,1103,8,1,2122.0,282719.3000000119,7067,VNB,C,7
5,test,3,0.0,1-Back,1,m,Thu Feb 20 2025 14:02:05 GMT-0600 (Central Standard Time),286741.3000000119,022_y_f_d_a.png,O,m,865,9,1,1873.699999988079,284867.60000002384,7067,VNB,C,8
6,test,3,1.0,1-Back,1,m,Thu Feb 20 2025 14:02:05 GMT-0600 (Central Standard Time),288940.90000003576,015_o_m_n_a.png,O,m,1164,10,1,2171.100000023842,286769.8000000119,7067,VNB,C,9
7,test,3,0.0,1-Back,1,m,Thu Feb 20 2025 14:02:05 GMT-0600 (Central Standard Time),290706.2000000477,014_m_m_h_a.png,O,m,716,11,1,1742.0,288964.2000000477,7067,VNB,C,10
7,test,3,0.0,1-Back,0,z,Thu Feb 20 2025 14:02:05 GMT-0600 (Central Standard Time),293371.90000003576,019_m_f_h_a.png,O,m,1623,12,1,2644.800000011921,290727.10000002384,7067,VNB,C,11
8,test,3,1.0,1-Back,1,m,Thu Feb 20 2025 14:02:05 GMT-0600 (Central Standard Time),295437.90000003576,012_o_f_d_a.png,O,m,1005,13,1,2036.0,293401.90000003576,7067,VNB,C,12
9,test,3,0.0,1-Back,1,z,Thu Feb 20 2025 14:02:05 GMT-0600 (Central Standard Time),298103.60000002384,014_m_m_d_a.png,O,z,1618,14,1,2637.899999976158,295465.7000000477,7067,VNB,C,13
10,test,3,0.0,1-Back,1,m,Thu Feb 20 2025 14:02:05 GMT-0600 (Central Standard Time),300119.5,025_y_m_n_a.png,O,m,969,15,1,1998.699999988079,298120.8000000119,7067,VNB,C,14
11,test,3,1.0,1-Back,1,m,Thu Feb 20 2025 14:02:05 GMT-0600 (Central Standard Time),302019.0,015_o_m_h_a.png,O,m,849,16,1,1870.5,300148.5,7067,VNB,C,15
12,test,3,0.0,1-Back,1,m,Thu Feb 20 2025 14:02:05 GMT-0600 (Central Standard Time),304085.10000002384,025_y_m_d_a.png,O,m,1023,17,1,2044.8999999761581,302040.2000000477,7067,VNB,C,16
13,test,3,1.0,1-Back,1,m,Thu Feb 20 2025 14:02:05 GMT-0600 (Central Standard Time),306285.2000000477,022_y_f_n_a.png,O,m,1165,18,1,2171.5,304113.7000000477,7067,VNB,C,17
0,test,4,1.0,1-Back,,,Thu Feb 20 2025 14:02:05 GMT-0600 (Central Standard Time),306285.2000000477,014_m_m_d_a.png,O,space,2725,1,1,2171.5,304113.7000000477,7067,VNB,C,0
1,test,4,0.0,1-Back,1,z,Thu Feb 20 2025 14:02:05 GMT-0600 (Central Standard Time),313115.60000002384,015_o_m_d_a.png,O,z,1041,2,1,2051.800000011921,311063.8000000119,7067,VNB,C,1
2,test,4,0.0,1-Back,1,m,Thu Feb 20 2025 14:02:05 GMT-0600 (Central Standard Time),315898.0,025_y_m_h_a.png,O,m,1717,3,1,2753.599999964237,313144.40000003576,7067,VNB,C,2
3,test,4,0.0,1-Back,1,m,Thu Feb 20 2025 14:02:05 GMT-0600 (Central Standard Time),318131.2000000477,019_m_f_n_a.png,O,m,1183,4,1,2202.900000035763,315928.3000000119,7067,VNB,C,3
4,test,4,1.0,1-Back,1,m,Thu Feb 20 2025 14:02:05 GMT-0600 (Central Standard Time),319830.0,012_o_f_h_a.png,O,m,663,5,1,1676.3999999761581,318153.60000002384,7067,VNB,C,4
5,test,4,0.0,1-Back,1,m,Thu Feb 20 2025 14:02:05 GMT-0600 (Central Standard Time),321879.60000002384,014_m_m_n_a.png,O,m,1005,6,1,2026.1000000238419,319853.5,7067,VNB,C,5
6,test,4,0.0,1-Back,1,m,Thu Feb 20 2025 14:02:05 GMT-0600 (Central Standard Time),323928.7000000477,025_y_m_d_a.png,O,m,985,7,1,2013.5,321915.2000000477,7067,VNB,C,6
6,test,4,1.0,1-Back,0,z,Thu Feb 20 2025 14:02:05 GMT-0600 (Central Standard Time),325829.2000000477,022_y_f_d_a.png,O,m,848,8,1,1866.2000000476837,323963.0,7067,VNB,C,7
7,test,4,0.0,1-Back,1,m,Thu Feb 20 2025 14:02:05 GMT-0600 (Central Standard Time),328127.60000002384,019_m_f_h_a.png,O,m,1252,9,1,2271.399999976158,325856.2000000477,7067,VNB,C,8
7,test,4,0.0,1-Back,0,z,Thu Feb 20 2025 14:02:05 GMT-0600 (Central Standard Time),330376.60000002384,015_o_m_h_a.png,O,m,1186,10,1,2214.300000011921,328162.3000000119,7067,VNB,C,9
8,test,4,1.0,1-Back,1,m,Thu Feb 20 2025 14:02:05 GMT-0600 (Central Standard Time),332426.3000000119,012_o_f_n_a.png,O,m,991,11,1,2013.300000011921,330413.0,7067,VNB,C,10
9,test,4,0.0,1-Back,1,m,Thu Feb 20 2025 14:02:05 GMT-0600 (Central Standard Time),334192.3000000119,019_m_f_d_a.png,O,m,736,12,1,1760.800000011921,332431.5,7067,VNB,C,11
10,test,4,0.0,1-Back,1,m,Thu Feb 20 2025 14:02:05 GMT-0600 (Central Standard Time),335974.60000002384,022_y_f_n_a.png,O,m,745,13,1,1751.8999999761581,334222.7000000477,7067,VNB,C,12
11,test,4,0.0,1-Back,1,m,Thu Feb 20 2025 14:02:05 GMT-0600 (Central Standard Time),338324.40000003576,012_o_f_d_a.png,O,m,1300,14,1,2324.100000023842,336000.3000000119,7067,VNB,C,13
12,test,4,0.0,1-Back,1,m,Thu Feb 20 2025 14:02:05 GMT-0600 (Central Standard Time),340840.10000002384,022_y_f_h_a.png,O,m,1462,15,1,2485.100000023842,338355.0,7067,VNB,C,14
13,test,4,1.0,1-Back,1,z,Thu Feb 20 2025 14:02:05 GMT-0600 (Central Standard Time),343055.7000000477,014_m_m_h_a.png,O,z,1169,16,1,2189.2000000476837,340866.5,7067,VNB,C,15
14,test,4,0.0,1-Back,1,m,Thu Feb 20 2025 14:02:05 GMT-0600 (Central Standard Time),344972.0,015_o_m_n_a.png,O,m,858,17,1,1880.0999999642372,343091.90000003576,7067,VNB,C,16
14,test,4,1.0,1-Back,0,z,Thu Feb 20 2025 14:02:05 GMT-0600 (Central Standard Time),347404.60000002384,025_y_m_n_a.png,O,m,1365,18,1,2396.5,345008.10000002384,7067,VNB,C,17
0,test,5,1.0,1-Back,,,Thu Feb 20 2025 14:02:05 GMT-0600 (Central Standard Time),347404.60000002384,015_o_m_n_a.png,O,space,2477,1,1,2396.5,345008.10000002384,7067,VNB,C,0
1,test,5,1.0,1-Back,1,m,Thu Feb 20 2025 14:02:05 GMT-0600 (Central Standard Time),354385.40000003576,012_o_f_h_a.png,O,m,1461,2,1,2477.100000023842,351908.3000000119,7067,VNB,C,1
2,test,5,0.0,1-Back,1,m,Thu Feb 20 2025 14:02:05 GMT-0600 (Central Standard Time),357184.60000002384,025_y_m_d_a.png,O,m,1736,3,1,2765.800000011921,354418.8000000119,7067,VNB,C,2
3,test,5,0.0,1-Back,1,z,Thu Feb 20 2025 14:02:05 GMT-0600 (Central Standard Time),359050.60000002384,015_o_m_d_a.png,O,z,817,4,1,1838.1000000238419,357212.5,7067,VNB,C,3
4,test,5,0.0,1-Back,1,m,Thu Feb 20 2025 14:02:05 GMT-0600 (Central Standard Time),360883.10000002384,019_m_f_h_a.png,O,m,774,5,1,1797.300000011921,359085.8000000119,7067,VNB,C,4
5,test,5,0.0,1-Back,1,m,Thu Feb 20 2025 14:02:05 GMT-0600 (Central Standard Time),363115.40000003576,022_y_f_n_a.png,O,m,1189,6,1,2213.400000035763,360902.0,7067,VNB,C,5
6,test,5,1.0,1-Back,1,z,Thu Feb 20 2025 14:02:05 GMT-0600 (Central Standard Time),365314.60000002384,012_o_f_n_a.png,O,z,1173,7,1,2188.199999988079,363126.40000003576,7067,VNB,C,6
7,test,5,0.0,1-Back,1,m,Thu Feb 20 2025 14:02:05 GMT-0600 (Central Standard Time),367348.0,019_m_f_d_a.png,O,m,1007,8,1,2022.0,365326.0,7067,VNB,C,7
8,test,5,0.0,1-Back,1,m,Thu Feb 20 2025 14:02:05 GMT-0600 (Central Standard Time),369813.60000002384,025_y_m_h_a.png,O,m,1430,9,1,2434.899999976158,367378.7000000477,7067,VNB,C,8
9,test,5,0.0,1-Back,1,m,Thu Feb 20 2025 14:02:05 GMT-0600 (Central Standard Time),371979.7000000477,022_y_f_d_a.png,O,m,1116,10,1,2140.400000035763,369839.3000000119,7067,VNB,C,9
10,test,5,0.0,1-Back,1,m,Thu Feb 20 2025 14:02:05 GMT-0600 (Central Standard Time),374529.0,014_m_m_n_a.png,O,m,1493,11,1,2518.399999976158,372010.60000002384,7067,VNB,C,10
11,test,5,1.0,1-Back,1,z,Thu Feb 20 2025 14:02:05 GMT-0600 (Central Standard Time),376761.2000000477,019_m_f_n_a.png,O,z,1168,12,1,2186.7000000476837,374574.5,7067,VNB,C,11
12,test,5,0.0,1-Back,1,m,Thu Feb 20 2025 14:02:05 GMT-0600 (Central Standard Time),378660.90000003576,015_o_m_h_a.png,O,m,864,13,1,1871.0,376789.90000003576,7067,VNB,C,12
13,test,5,0.0,1-Back,1,z,Thu Feb 20 2025 14:02:05 GMT-0600 (Central Standard Time),380610.0,014_m_m_h_a.png,O,z,909,14,1,1924.2999999523163,378685.7000000477,7067,VNB,C,13
14,test,5,1.0,1-Back,1,m,Thu Feb 20 2025 14:02:05 GMT-0600 (Central Standard Time),382525.8000000119,012_o_f_d_a.png,O,m,871,15,1,1887.300000011921,380638.5,7067,VNB,C,14
15,test,5,0.0,1-Back,1,m,Thu Feb 20 2025 14:02:05 GMT-0600 (Central Standard Time),384875.5,025_y_m_n_a.png,O,m,1291,16,1,2317.2999999523163,382558.2000000477,7067,VNB,C,15
16,test,5,0.0,1-Back,1,m,Thu Feb 20 2025 14:02:05 GMT-0600 (Central Standard Time),386807.8000000119,022_y_f_h_a.png,O,m,895,17,1,1905.5,384902.3000000119,7067,VNB,C,16
17,test,5,0.0,1-Back,1,m,Thu Feb 20 2025 14:02:05 GMT-0600 (Central Standard Time),388525.40000003576,014_m_m_d_a.png,O,m,682,18,1,1698.6000000238419,386826.8000000119,7067,VNB,C,17
0,prac,1,0.0,2-Back,,,Thu Feb 20 2025 14:02:05 GMT-0600 (Central Standard Time),388525.40000003576,019_m_f_n_a.png,O,space,11078,1,1,1698.6000000238419,386826.8000000119,7067,VNB,C,0
0,prac,1,0.0,2-Back,,,Thu Feb 20 2025 14:02:05 GMT-0600 (Central Standard Time),388525.40000003576,012_o_f_h_a.png,O,space,11078,2,1,1698.6000000238419,386826.8000000119,7067,VNB,C,0
1,prac,1,0.0,2-Back,1,m,Thu Feb 20 2025 14:02:05 GMT-0600 (Central Standard Time),493922.8000000119,015_o_m_d_a.png,O,m,1787,3,1,2759.199999988079,491163.60000002384,7067,VNB,C,1
1,prac,1,1.0,2-Back,0,z,Thu Feb 20 2025 14:02:05 GMT-0600 (Central Standard Time),496854.7000000477,014_m_m_h_a.png,O,None,2017,4,1,2920.600000023842,493934.10000002384,7067,VNB,C,2
2,prac,1,0.0,2-Back,1,m,Thu Feb 20 2025 14:02:05 GMT-0600 (Central Standard Time),499154.8000000119,022_y_f_n_a.png,O,m,1344,5,1,2289.599999964237,496865.2000000477,7067,VNB,C,3
3,prac,1,1.0,2-Back,1,z,Thu Feb 20 2025 14:02:05 GMT-0600 (Central Standard Time),501320.7000000477,015_o_m_h_a.png,O,z,1165,6,1,2139.400000035763,499181.3000000119,7067,VNB,C,4
3,prac,1,1.0,2-Back,0,z,Thu Feb 20 2025 14:02:05 GMT-0600 (Central Standard Time),503736.60000002384,025_y_m_n_a.png,O,m,1473,7,1,2377.399999976158,501359.2000000477,7067,VNB,C,5
4,prac,1,0.0,2-Back,1,m,Thu Feb 20 2025 14:02:05 GMT-0600 (Central Standard Time),506219.10000002384,019_m_f_d_a.png,O,m,1492,8,1,2449.300000011921,503769.8000000119,7067,VNB,C,6
4,prac,1,0.0,2-Back,0,m,Thu Feb 20 2025 14:02:05 GMT-0600 (Central Standard Time),509201.3000000119,012_o_f_d_a.png,O,None,2016,9,1,2946.800000011921,506254.5,7067,VNB,C,7
5,prac,1,0.0,2-Back,1,m,Thu Feb 20 2025 14:02:05 GMT-0600 (Central Standard Time),511550.7000000477,014_m_m_h_a.png,O,m,1388,10,1,2305.5,509245.2000000477,7067,VNB,C,8
6,prac,1,1.0,2-Back,1,z,Thu Feb 20 2025 14:02:05 GMT-0600 (Central Standard Time),513933.0,022_y_f_d_a.png,O,z,1398,11,1,2345.2999999523163,511587.7000000477,7067,VNB,C,9
7,prac,1,0.0,2-Back,1,m,Thu Feb 20 2025 14:02:05 GMT-0600 (Central Standard Time),516515.7000000477,015_o_m_n_a.png,O,m,1617,12,1,2569.300000011921,513946.40000003576,7067,VNB,C,10
0,test,1,0.0,2-Back,,,Thu Feb 20 2025 14:02:05 GMT-0600 (Central Standard Time),516515.7000000477,025_y_m_h_a.png,O,space,13888,1,1,2569.300000011921,513946.40000003576,7067,VNB,C,0
0,test,1,0.0,2-Back,,,Thu Feb 20 2025 14:02:05 GMT-0600 (Central Standard Time),516515.7000000477,012_o_f_n_a.png,O,space,13888,2,1,2569.300000011921,513946.40000003576,7067,VNB,C,0
0,test,1,0.0,2-Back,0,z,Thu Feb 20 2025 14:02:05 GMT-0600 (Central Standard Time),553520.3000000119,015_o_m_h_a.png,O,None,2016,3,1,3030.5,550489.8000000119,7067,VNB,C,1
1,test,1,0.0,2-Back,1,m,Thu Feb 20 2025 14:02:05 GMT-0600 (Central Standard Time),556102.3000000119,019_m_f_d_a.png,O,m,1527,4,1,2547.099999964237,553555.2000000477,7067,VNB,C,2
1,test,1,1.0,2-Back,0,m,Thu Feb 20 2025 14:02:05 GMT-0600 (Central Standard Time),558917.8000000119,025_y_m_n_a.png,O,z,1771,5,1,2794.5,556123.3000000119,7067,VNB,C,3
2,test,1,0.0,2-Back,1,z,Thu Feb 20 2025 14:02:05 GMT-0600 (Central Standard Time),561300.7000000477,022_y_f_d_a.png,O,z,1356,6,1,2375.100000023842,558925.6000000238,7067,VNB,C,4
3,test,1,0.0,2-Back,1,m,Thu Feb 20 2025 14:02:05 GMT-0600 (Central Standard Time),563399.4000000358,014_m_m_h_a.png,O,m,1051,7,1,2073.600000023842,561325.8000000119,7067,VNB,C,5
4,test,1,1.0,2-Back,1,m,Thu Feb 20 2025 14:02:05 GMT-0600 (Central Standard Time),566082.4000000358,022_y_f_n_a.png,O,m,1658,8,1,2675.5,563406.9000000358,7067,VNB,C,6
5,test,1,0.0,2-Back,1,z,Thu Feb 20 2025 14:02:05 GMT-0600 (Central Standard Time),568615.5,012_o_f_h_a.png,O,z,1499,9,1,2518.699999988079,566096.8000000119,7067,VNB,C,7
5,test,1,0.0,2-Back,0,m,Thu Feb 20 2025 14:02:05 GMT-0600 (Central Standard Time),571680.2000000477,015_o_m_d_a.png,O,None,2016,10,1,3034.5,568645.7000000477,7067,VNB,C,8
6,test,1,1.0,2-Back,1,m,Thu Feb 20 2025 14:02:05 GMT-0600 (Central Standard Time),573912.6000000238,014_m_m_d_a.png,O,m,1200,11,1,2226.199999988079,571686.4000000358,7067,VNB,C,9
7,test,1,0.0,2-Back,1,m,Thu Feb 20 2025 14:02:05 GMT-0600 (Central Standard Time),576079.2000000477,019_m_f_n_a.png,O,m,1146,12,1,2160.5,573918.7000000477,7067,VNB,C,10
8,test,1,0.0,2-Back,1,m,Thu Feb 20 2025 14:02:05 GMT-0600 (Central Standard Time),578428.9000000358,022_y_f_h_a.png,O,m,1291,13,1,2311.400000035763,576117.5,7067,VNB,C,11
8,test,1,0.0,2-Back,0,z,Thu Feb 20 2025 14:02:05 GMT-0600 (Central Standard Time),581193.5,014_m_m_n_a.png,O,m,1708,14,1,2721.399999976158,578472.1000000238,7067,VNB,C,12
8,test,1,0.0,2-Back,0,m,Thu Feb 20 2025 14:02:05 GMT-0600 (Central Standard Time),583710.4000000358,025_y_m_d_a.png,O,z,1497,15,1,2512.300000011921,581198.1000000238,7067,VNB,C,13
8,test,1,1.0,2-Back,0,m,Thu Feb 20 2025 14:02:05 GMT-0600 (Central Standard Time),586776.0,019_m_f_h_a.png,O,None,2016,16,1,3029.399999976158,583746.6000000238,7067,VNB,C,14
8,test,1,0.0,2-Back,0,z,Thu Feb 20 2025 14:02:05 GMT-0600 (Central Standard Time),588975.5,012_o_f_d_a.png,O,m,1155,17,1,2169.199999988079,586806.3000000119,7067,VNB,C,15
9,test,1,0.0,2-Back,1,m,Thu Feb 20 2025 14:02:05 GMT-0600 (Central Standard Time),591073.6000000238,015_o_m_n_a.png,O,m,1042,18,1,2066.300000011921,589007.3000000119,7067,VNB,C,16
0,test,2,0.0,2-Back,,,Thu Feb 20 2025 14:02:05 GMT-0600 (Central Standard Time),591073.6000000238,014_m_m_h_a.png,O,space,2337,1,1,2066.300000011921,589007.3000000119,7067,VNB,C,0
0,test,2,0.0,2-Back,,,Thu Feb 20 2025 14:02:05 GMT-0600 (Central Standard Time),591073.6000000238,022_y_f_n_a.png,O,space,2337,2,1,2066.300000011921,589007.3000000119,7067,VNB,C,0
0,test,2,1.0,2-Back,0,z,Thu Feb 20 2025 14:02:05 GMT-0600 (Central Standard Time),601504.6000000238,012_o_f_h_a.png,O,m,1718,3,1,2743.100000023842,598761.5,7067,VNB,C,1
1,test,2,0.0,2-Back,1,m,Thu Feb 20 2025 14:02:05 GMT-0600 (Central Standard Time),603819.5,015_o_m_d_a.png,O,m,1281,4,1,2290.099999964237,601529.4000000358,7067,VNB,C,2
1,test,2,0.0,2-Back,0,m,Thu Feb 20 2025 14:02:05 GMT-0600 (Central Standard Time),606785.2000000477,019_m_f_d_a.png,O,z,1941,5,1,2957.7000000476837,603827.5,7067,VNB,C,3
2,test,2,0.0,2-Back,1,m,Thu Feb 20 2025 14:02:05 GMT-0600 (Central Standard Time),609201.5,025_y_m_h_a.png,O,m,1393,6,1,2411.5,606790.0,7067,VNB,C,4
3,test,2,0.0,2-Back,1,m,Thu Feb 20 2025 14:02:05 GMT-0600 (Central Standard Time),612017.6000000238,012_o_f_n_a.png,O,m,1778,7,1,2795.199999988079,609222.4000000358,7067,VNB,C,5
4,test,2,1.0,2-Back,1,z,Thu Feb 20 2025 14:02:05 GMT-0600 (Central Standard Time),614216.7000000477,015_o_m_h_a.png,O,z,1153,8,1,2179.300000011921,612037.4000000358,7067,VNB,C,6
5,test,2,0.0,2-Back,1,m,Thu Feb 20 2025 14:02:05 GMT-0600 (Central Standard Time),616416.1000000238,022_y_f_d_a.png,O,m,1162,9,1,2169.0,614247.1000000238,7067,VNB,C,7
6,test,2,0.0,2-Back,1,m,Thu Feb 20 2025 14:02:05 GMT-0600 (Central Standard Time),618532.3000000119,025_y_m_d_a.png,O,m,1076,10,1,2092.5,616439.8000000119,7067,VNB,C,8
6,test,2,0.0,2-Back,0,m,Thu Feb 20 2025 14:02:05 GMT-0600 (Central Standard Time),621031.4000000358,014_m_m_n_a.png,O,z,1438,11,1,2468.600000023842,618562.8000000119,7067,VNB,C,9
7,test,2,0.0,2-Back,1,m,Thu Feb 20 2025 14:02:05 GMT-0600 (Central Standard Time),623780.3000000119,019_m_f_h_a.png,O,m,1707,12,1,2723.800000011921,621056.5,7067,VNB,C,10
7,test,2,1.0,2-Back,0,z,Thu Feb 20 2025 14:02:05 GMT-0600 (Central Standard Time),625946.2000000477,015_o_m_n_a.png,O,m,1109,13,1,2134.2000000476837,623812.0,7067,VNB,C,11
8,test,2,0.0,2-Back,1,m,Thu Feb 20 2025 14:02:05 GMT-0600 (Central Standard Time),628211.8000000119,012_o_f_d_a.png,O,m,1198,14,1,2232.300000011921,625979.5,7067,VNB,C,12
9,test,2,0.0,2-Back,1,m,Thu Feb 20 2025 14:02:05 GMT-0600 (Central Standard Time),630811.2000000477,022_y_f_h_a.png,O,m,1558,15,1,2583.800000011921,628227.4000000358,7067,VNB,C,13
9,test,2,0.0,2-Back,0,z,Thu Feb 20 2025 14:02:05 GMT-0600 (Central Standard Time),633194.3000000119,014_m_m_d_a.png,O,m,1334,16,1,2354.699999988079,630839.6000000238,7067,VNB,C,14
10,test,2,0.0,2-Back,1,m,Thu Feb 20 2025 14:02:05 GMT-0600 (Central Standard Time),635676.7000000477,025_y_m_n_a.png,O,m,1426,17,1,2444.7000000476837,633232.0,7067,VNB,C,15
10,test,2,1.0,2-Back,0,m,Thu Feb 20 2025 14:02:05 GMT-0600 (Central Standard Time),638742.6000000238,019_m_f_n_a.png,O,None,2014,18,1,3035.699999988079,635706.9000000358,7067,VNB,C,16
0,test,3,1.0,2-Back,,,Thu Feb 20 2025 14:02:05 GMT-0600 (Central Standard Time),638742.6000000238,015_o_m_n_a.png,O,space,2355,1,1,3035.699999988079,635706.9000000358,7067,VNB,C,0
0,test,3,1.0,2-Back,,,Thu Feb 20 2025 14:02:05 GMT-0600 (Central Standard Time),638742.6000000238,012_o_f_d_a.png,O,space,2355,2,1,3035.699999988079,635706.9000000358,7067,VNB,C,0
1,test,3,0.0,2-Back,1,m,Thu Feb 20 2025 14:02:05 GMT-0600 (Central Standard Time),648990.6000000238,022_y_f_h_a.png,O,m,1449,3,1,2467.300000011921,646523.3000000119,7067,VNB,C,1
1,test,3,0.0,2-Back,0,z,Thu Feb 20 2025 14:02:05 GMT-0600 (Central Standard Time),650938.0,019_m_f_d_a.png,O,m,908,4,1,1921.8999999761581,649016.1000000238,7067,VNB,C,2
2,test,3,1.0,2-Back,1,m,Thu Feb 20 2025 14:02:05 GMT-0600 (Central Standard Time),653304.2000000477,025_y_m_n_a.png,O,m,1311,5,1,2332.0,650972.2000000477,7067,VNB,C,3
2,test,3,0.0,2-Back,0,m,Thu Feb 20 2025 14:02:05 GMT-0600 (Central Standard Time),655786.9000000358,015_o_m_h_a.png,O,z,1425,6,1,2451.199999988079,653335.7000000477,7067,VNB,C,4
2,test,3,0.0,2-Back,0,z,Thu Feb 20 2025 14:02:05 GMT-0600 (Central Standard Time),657935.7000000477,022_y_f_n_a.png,O,m,1094,7,1,2110.400000035763,655825.3000000119,7067,VNB,C,5
3,test,3,1.0,2-Back,1,m,Thu Feb 20 2025 14:02:05 GMT-0600 (Central Standard Time),660335.2000000477,014_m_m_d_a.png,O,m,1355,8,1,2370.900000035763,657964.3000000119,7067,VNB,C,6
4,test,3,0.0,2-Back,1,m,Thu Feb 20 2025 14:02:05 GMT-0600 (Central Standard Time),662734.8000000119,025_y_m_d_a.png,O,m,1355,9,1,2376.399999976158,660358.4000000358,7067,VNB,C,7
5,test,3,0.0,2-Back,1,m,Thu Feb 20 2025 14:02:05 GMT-0600 (Central Standard Time),664900.7000000477,012_o_f_h_a.png,O,m,1115,10,1,2138.0,662762.7000000477,7067,VNB,C,8
6,test,3,1.0,2-Back,1,m,Thu Feb 20 2025 14:02:05 GMT-0600 (Central Standard Time),667716.5,019_m_f_n_a.png,O,m,1749,11,1,2780.7999999523163,664935.7000000477,7067,VNB,C,9
7,test,3,1.0,2-Back,1,z,Thu Feb 20 2025 14:02:05 GMT-0600 (Central Standard Time),669931.6000000238,014_m_m_h_a.png,O,z,1158,12,1,2173.600000023842,667758.0,7067,VNB,C,10
8,test,3,0.0,2-Back,1,m,Thu Feb 20 2025 14:02:05 GMT-0600 (Central Standard Time),672680.9000000358,022_y_f_d_a.png,O,m,1703,13,1,2724.300000011921,669956.6000000238,7067,VNB,C,11
9,test,3,0.0,2-Back,1,m,Thu Feb 20 2025 14:02:05 GMT-0600 (Central Standard Time),675346.8000000119,012_o_f_n_a.png,O,m,1599,14,1,2632.599999964237,672714.2000000477,7067,VNB,C,12
10,test,3,0.0,2-Back,1,z,Thu Feb 20 2025 14:02:05 GMT-0600 (Central Standard Time),677745.7000000477,015_o_m_d_a.png,O,z,1334,15,1,2363.2000000476837,675382.5,7067,VNB,C,13
11,test,3,1.0,2-Back,1,m,Thu Feb 20 2025 14:02:05 GMT-0600 (Central Standard Time),679727.9000000358,019_m_f_h_a.png,O,m,955,16,1,1967.199999988079,677760.7000000477,7067,VNB,C,14
12,test,3,0.0,2-Back,1,m,Thu Feb 20 2025 14:02:05 GMT-0600 (Central Standard Time),681843.9000000358,014_m_m_n_a.png,O,m,1090,17,1,2111.800000011921,679732.1000000238,7067,VNB,C,15
12,test,3,0.0,2-Back,0,z,Thu Feb 20 2025 14:02:05 GMT-0600 (Central Standard Time),684877.5,025_y_m_h_a.png,O,None,2014,18,1,3028.199999988079,681849.3000000119,7067,VNB,C,16
0,test,4,0.0,2-Back,,,Thu Feb 20 2025 14:02:05 GMT-0600 (Central Standard Time),684877.5,019_m_f_n_a.png,O,space,2164,1,1,3028.199999988079,681849.3000000119,7067,VNB,C,0
0,test,4,0.0,2-Back,,,Thu Feb 20 2025 14:02:05 GMT-0600 (Central Standard Time),684877.5,015_o_m_n_a.png,O,space,2164,2,1,3028.199999988079,681849.3000000119,7067,VNB,C,0
1,test,4,1.0,2-Back,1,m,Thu Feb 20 2025 14:02:05 GMT-0600 (Central Standard Time),694373.7000000477,025_y_m_h_a.png,O,m,872,3,1,1889.800000011921,692483.9000000358,7067,VNB,C,1
1,test,4,1.0,2-Back,0,m,Thu Feb 20 2025 14:02:05 GMT-0600 (Central Standard Time),697422.3000000119,012_o_f_d_a.png,O,None,2013,4,1,3025.0,694397.3000000119,7067,VNB,C,2
2,test,4,0.0,2-Back,1,z,Thu Feb 20 2025 14:02:05 GMT-0600 (Central Standard Time),700137.9000000358,015_o_m_h_a.png,O,z,1691,5,1,2706.699999988079,697431.2000000477,7067,VNB,C,3
3,test,4,0.0,2-Back,1,m,Thu Feb 20 2025 14:02:05 GMT-0600 (Central Standard Time),702353.9000000358,014_m_m_n_a.png,O,m,1184,6,1,2208.0,700145.9000000358,7067,VNB,C,4
4,test,4,0.0,2-Back,1,m,Thu Feb 20 2025 14:02:05 GMT-0600 (Central Standard Time),704236.6000000238,019_m_f_d_a.png,O,m,856,7,1,1870.300000011921,702366.3000000119,7067,VNB,C,5
5,test,4,0.0,2-Back,1,z,Thu Feb 20 2025 14:02:05 GMT-0600 (Central Standard Time),706136.7000000477,022_y_f_n_a.png,O,z,877,8,1,1892.7000000476837,704244.0,7067,VNB,C,6
6,test,4,1.0,2-Back,1,m,Thu Feb 20 2025 14:02:05 GMT-0600 (Central Standard Time),708320.3000000119,012_o_f_h_a.png,O,m,1121,9,1,2150.899999976158,706169.4000000358,7067,VNB,C,7
6,test,4,0.0,2-Back,0,m,Thu Feb 20 2025 14:02:05 GMT-0600 (Central Standard Time),710718.5,014_m_m_h_a.png,O,z,1346,10,1,2360.599999964237,708357.9000000358,7067,VNB,C,8
7,test,4,0.0,2-Back,1,m,Thu Feb 20 2025 14:02:05 GMT-0600 (Central Standard Time),712550.6000000238,022_y_f_d_a.png,O,m,779,11,1,1793.699999988079,710756.9000000358,7067,VNB,C,9
8,test,4,0.0,2-Back,1,m,Thu Feb 20 2025 14:02:05 GMT-0600 (Central Standard Time),715483.6000000238,025_y_m_n_a.png,O,m,1906,12,1,2928.0,712555.6000000238,7067,VNB,C,10
9,test,4,0.0,2-Back,1,z,Thu Feb 20 2025 14:02:05 GMT-0600 (Central Standard Time),717716.8000000119,015_o_m_d_a.png,O,z,1165,13,1,2196.899999976158,715519.9000000358,7067,VNB,C,11
10,test,4,1.0,2-Back,1,m,Thu Feb 20 2025 14:02:05 GMT-0600 (Central Standard Time),720131.4000000358,019_m_f_h_a.png,O,m,1366,14,1,2387.199999988079,717744.2000000477,7067,VNB,C,12
11,test,4,1.0,2-Back,1,m,Thu Feb 20 2025 14:02:05 GMT-0600 (Central Standard Time),722297.9000000358,022_y_f_h_a.png,O,m,1133,15,1,2161.5,720136.4000000358,7067,VNB,C,13
11,test,4,0.0,2-Back,0,m,Thu Feb 20 2025 14:02:05 GMT-0600 (Central Standard Time),724664.0,012_o_f_n_a.png,O,z,1303,16,1,2331.199999988079,722332.8000000119,7067,VNB,C,14
12,test,4,0.0,2-Back,1,m,Thu Feb 20 2025 14:02:05 GMT-0600 (Central Standard Time),726880.2000000477,025_y_m_d_a.png,O,m,1170,17,1,2194.900000035763,724685.3000000119,7067,VNB,C,15
13,test,4,1.0,2-Back,1,m,Thu Feb 20 2025 14:02:05 GMT-0600 (Central Standard Time),729045.8000000119,014_m_m_d_a.png,O,m,1113,18,1,2130.5,726915.3000000119,7067,VNB,C,16
0,test,5,1.0,2-Back,,,Thu Feb 20 2025 14:02:05 GMT-0600 (Central Standard Time),729045.8000000119,022_y_f_d_a.png,O,space,2052,1,1,2130.5,726915.3000000119,7067,VNB,C,0
0,test,5,1.0,2-Back,,,Thu Feb 20 2025 14:02:05 GMT-0600 (Central Standard Time),729045.8000000119,012_o_f_h_a.png,O,space,2052,2,1,2130.5,726915.3000000119,7067,VNB,C,0
1,test,5,1.0,2-Back,1,z,Thu Feb 20 2025 14:02:05 GMT-0600 (Central Standard Time),738925.5,015_o_m_d_a.png,O,z,1379,3,1,2393.0,736532.5,7067,VNB,C,1
1,test,5,1.0,2-Back,0,m,Thu Feb 20 2025 14:02:05 GMT-0600 (Central Standard Time),741958.7000000477,019_m_f_n_a.png,O,None,2014,4,1,3019.600000023842,738939.1000000238,7067,VNB,C,2
1,test,5,0.0,2-Back,0,m,Thu Feb 20 2025 14:02:05 GMT-0600 (Central Standard Time),744457.8000000119,014_m_m_h_a.png,O,z,1460,5,1,2471.599999964237,741986.2000000477,7067,VNB,C,3
1,test,5,0.0,2-Back,0,z,Thu Feb 20 2025 14:02:05 GMT-0600 (Central Standard Time),746389.8000000119,022_y_f_n_a.png,O,m,882,6,1,1899.300000011921,744490.5,7067,VNB,C,4
1,test,5,0.0,2-Back,0,m,Thu Feb 20 2025 14:02:05 GMT-0600 (Central Standard Time),749339.4000000358,012_o_f_d_a.png,O,z,1885,7,1,2915.100000023842,746424.3000000119,7067,VNB,C,5
2,test,5,0.0,2-Back,1,m,Thu Feb 20 2025 14:02:05 GMT-0600 (Central Standard Time),751505.2000000477,015_o_m_h_a.png,O,m,1118,8,1,2139.5,749365.7000000477,7067,VNB,C,6
3,test,5,1.0,2-Back,1,z,Thu Feb 20 2025 14:02:05 GMT-0600 (Central Standard Time),753320.8000000119,019_m_f_d_a.png,O,z,776,9,1,1790.3999999761581,751530.4000000358,7067,VNB,C,7
4,test,5,0.0,2-Back,1,m,Thu Feb 20 2025 14:02:05 GMT-0600 (Central Standard Time),755620.9000000358,025_y_m_n_a.png,O,m,1274,10,1,2290.600000023842,753330.3000000119,7067,VNB,C,8
5,test,5,0.0,2-Back,1,m,Thu Feb 20 2025 14:02:05 GMT-0600 (Central Standard Time),757819.8000000119,014_m_m_n_a.png,O,m,1133,11,1,2165.099999964237,755654.7000000477,7067,VNB,C,9
6,test,5,0.0,2-Back,1,m,Thu Feb 20 2025 14:02:05 GMT-0600 (Central Standard Time),760218.5,022_y_f_h_a.png,O,m,1351,12,1,2372.0,757846.5,7067,VNB,C,10
6,test,5,0.0,2-Back,0,m,Thu Feb 20 2025 14:02:05 GMT-0600 (Central Standard Time),762401.8000000119,025_y_m_d_a.png,O,z,1160,13,1,2172.699999988079,760229.1000000238,7067,VNB,C,11
7,test,5,1.0,2-Back,1,z,Thu Feb 20 2025 14:02:05 GMT-0600 (Central Standard Time),764667.4000000358,019_m_f_h_a.png,O,z,1226,14,1,2235.800000011921,762431.6000000238,7067,VNB,C,12
7,test,5,0.0,2-Back,0,m,Thu Feb 20 2025 14:02:05 GMT-0600 (Central Standard Time),767082.9000000358,015_o_m_n_a.png,O,z,1366,15,1,2391.600000023842,764691.3000000119,7067,VNB,C,13
8,test,5,0.0,2-Back,1,m,Thu Feb 20 2025 14:02:05 GMT-0600 (Central Standard Time),769498.7000000477,014_m_m_d_a.png,O,m,1390,16,1,2409.0,767089.7000000477,7067,VNB,C,14
8,test,5,0.0,2-Back,0,z,Thu Feb 20 2025 14:02:05 GMT-0600 (Central Standard Time),771915.7000000477,012_o_f_n_a.png,O,m,1351,17,1,2380.300000011921,769535.4000000358,7067,VNB,C,15
9,test,5,1.0,2-Back,1,m,Thu Feb 20 2025 14:02:05 GMT-0600 (Central Standard Time),774398.0,025_y_m_h_a.png,O,m,1430,18,1,2446.2999999523163,771951.7000000477,7067,VNB,C,16
