acc_sum,block,block_c,condition,correct,correct_response,datetime,endtime,flanker,jitter,project,response,response_test_buffer_response,response_test_target_response,response_time,response_time_test_buffer_response,response_time_test_target_response,row_sel,session_number,start_end,starttime,subject_id,target,task,task_vers,time_test_buffer,time_test_buffer_response,time_test_constants,time_test_flanker,time_test_jitter,time_test_logger,time_test_target,time_test_target_response,time_test_variables,trial
1,prac,1,inc,1,m,Tue Nov 05 2024 15:52:51 GMT-0600 (Central Standard Time),233491.0,plum,1100,I,m,,,761,,,16,1,3160.399999999965,230330.60000000003,7029,lead,NF,C,,,,,,,,,,1
2,prac,1,con,1,z,Tue Nov 05 2024 15:52:51 GMT-0600 (Central Standard Time),236406.5,kiwi,1000,I,z,,,599,,,7,1,2910.29999999993,233496.20000000007,7029,kiwi,NF,C,,,,,,,,,,2
3,prac,1,con,1,m,Tue Nov 05 2024 15:52:51 GMT-0600 (Central Standard Time),238922.30000000005,bronze,800,I,m,,,403,,,9,1,2511.5,236410.80000000005,7029,bronze,NF,C,,,,,,,,,,3
4,prac,1,con,1,m,Tue Nov 05 2024 15:52:51 GMT-0600 (Central Standard Time),241604.90000000002,gold,800,I,m,,,568,,,13,1,2678.4000000000233,238926.5,7029,gold,NF,C,,,,,,,,,,4
5,prac,1,con,1,z,Tue Nov 05 2024 15:52:51 GMT-0600 (Central Standard Time),244320.59999999998,orange,1000,I,z,,,414,,,3,1,2711.29999999993,241609.30000000005,7029,orange,NF,C,,,,,,,,,,5
6,prac,1,inc,1,z,Tue Nov 05 2024 15:52:51 GMT-0600 (Central Standard Time),247203.30000000005,cobalt,1100,I,z,,,469,,,4,1,2878.0,244325.30000000005,7029,raisin,NF,C,,,,,,,,,,6
7,prac,1,inc,1,m,Tue Nov 05 2024 15:52:51 GMT-0600 (Central Standard Time),250118.90000000002,raisin,1100,I,m,,,500,,,12,1,2911.3000000000466,247207.59999999998,7029,cobalt,NF,C,,,,,,,,,,7
8,prac,1,inc,1,z,Tue Nov 05 2024 15:52:51 GMT-0600 (Central Standard Time),252834.70000000007,iron,900,I,z,,,512,,,6,1,2712.0,250122.70000000007,7029,pear,NF,C,,,,,,,,,,8
9,prac,1,inc,1,m,Tue Nov 05 2024 15:52:51 GMT-0600 (Central Standard Time),255768.09999999998,pear,900,I,m,,,723,,,14,1,2929.29999999993,252838.80000000005,7029,iron,NF,C,,,,,,,,,,9
9,prac,1,inc,0,m,Tue Nov 05 2024 15:52:51 GMT-0600 (Central Standard Time),258449.59999999998,cherry,900,I,z,,,472,,,10,1,2676.5,255773.09999999998,7029,copper,NF,C,,,,,,,,,,10
10,prac,1,inc,1,z,Tue Nov 05 2024 15:52:51 GMT-0600 (Central Standard Time),261232.09999999998,copper,900,I,z,,,573,,,2,1,2777.79999999993,258454.30000000005,7029,cherry,NF,C,,,,,,,,,,11
11,prac,1,con,1,z,Tue Nov 05 2024 15:52:51 GMT-0600 (Central Standard Time),263980.80000000005,lime,800,I,z,,,635,,,5,1,2744.5,261236.30000000005,7029,lime,NF,C,,,,,,,,,,12
12,prac,1,con,1,m,Tue Nov 05 2024 15:52:51 GMT-0600 (Central Standard Time),266747.1,silver,1000,I,m,,,454,,,11,1,2761.0999999999767,263986.0,7029,silver,NF,C,,,,,,,,,,13
13,prac,1,con,1,m,Tue Nov 05 2024 15:52:51 GMT-0600 (Central Standard Time),269545.80000000005,zinc,1000,I,m,,,488,,,15,1,2794.5,266751.30000000005,7029,zinc,NF,C,,,,,,,,,,14
14,prac,1,con,1,z,Tue Nov 05 2024 15:52:51 GMT-0600 (Central Standard Time),272045.4,banana,800,I,z,,,393,,,1,1,2495.5999999999767,269549.80000000005,7029,banana,NF,C,,,,,,,,,,15
15,prac,1,inc,1,z,Tue Nov 05 2024 15:52:51 GMT-0600 (Central Standard Time),275011.0,lead,1100,I,z,,,562,,,8,1,2961.5999999999767,272049.4,7029,plum,NF,C,,,,,,,,,,16
1,test,1,inc,1,z,Tue Nov 05 2024 15:52:51 GMT-0600 (Central Standard Time),295471.1,silver,1000,I,z,z,None,518,318.0,200.0,15,1,2062.79999999993,293408.30000000005,7029,cherry,NF,C,290105,290105,288375,289389,288376,290438,289905,289905,290438,1
2,test,1,inc,1,z,Tue Nov 05 2024 15:52:51 GMT-0600 (Central Standard Time),297453.6,zinc,1000,I,z,z,None,444,244.0,200.0,47,1,1977.5,295476.1,7029,pear,NF,C,292171,292171,290443,291455,290444,292421,291971,291971,292421,2
3,test,1,con,1,z,Tue Nov 05 2024 15:52:51 GMT-0600 (Central Standard Time),299319.9,cherry,900,I,z,z,None,424,225.0,199.0,10,1,1862.0999999999767,297457.80000000005,7029,cherry,NF,C,294054,294054,292425,293337,292425,294287,293854,293854,294287,3
4,test,1,con,1,m,Tue Nov 05 2024 15:52:51 GMT-0600 (Central Standard Time),301235.9,cobalt,1000,I,m,m,None,378,179.0,199.0,91,1,1911.8000000000466,299324.1,7029,cobalt,NF,C,296020,296020,294291,295303,294292,296203,295820,295820,296203,4
5,test,1,inc,1,m,Tue Nov 05 2024 15:52:51 GMT-0600 (Central Standard Time),303485.20000000007,raisin,1100,I,m,m,None,603,403.0,200.0,88,1,2245.20000000007,301240.0,7029,silver,NF,C,298036,298036,296207,297320,296207,298452,297836,297836,298452,5
6,test,1,inc,1,m,Tue Nov 05 2024 15:52:51 GMT-0600 (Central Standard Time),305551.5,plum,1100,I,m,m,None,417,218.0,199.0,112,1,2062.29999999993,303489.20000000007,7029,iron,NF,C,300285,300285,298456,299569,298456,300519,300086,300086,300518,6
7,test,1,con,1,m,Tue Nov 05 2024 15:52:51 GMT-0600 (Central Standard Time),307483.80000000005,gold,1000,I,m,m,None,395,196.0,199.0,99,1,1928.2000000000698,305555.6,7029,gold,NF,C,302251,302251,300523,301536,300523,302451,302052,302052,302451,7
8,test,1,inc,1,m,Tue Nov 05 2024 15:52:51 GMT-0600 (Central Standard Time),309466.5,pear,900,I,m,m,None,538,339.0,199.0,110,1,1978.6999999999534,307487.80000000005,7029,iron,NF,C,304084,304084,302455,303368,302455,304434,303885,303885,304434,8
9,test,1,inc,1,m,Tue Nov 05 2024 15:52:51 GMT-0600 (Central Standard Time),311566.1,plum,1100,I,m,m,None,460,260.0,200.0,120,1,2095.6999999999534,309470.4,7029,zinc,NF,C,306267,306267,304437,305550,304438,306533,306067,306067,306533,9
10,test,1,inc,1,m,Tue Nov 05 2024 15:52:51 GMT-0600 (Central Standard Time),313448.80000000005,lime,800,I,m,m,None,541,341.0,200.0,101,1,1878.9000000000233,311569.9,7029,gold,NF,C,308066,308066,306537,307350,306537,308416,307866,307866,308416,10
11,test,1,inc,1,m,Tue Nov 05 2024 15:52:51 GMT-0600 (Central Standard Time),315448.0,orange,1000,I,m,m,None,466,266.0,200.0,95,1,1994.6999999999534,313453.30000000005,7029,cobalt,NF,C,310149,310149,308420,309432,308421,310415,309949,309949,310415,11
12,test,1,inc,1,m,Tue Nov 05 2024 15:52:51 GMT-0600 (Central Standard Time),317230.80000000005,banana,800,I,m,m,None,442,241.0,201.0,93,1,1778.7000000000698,315452.1,7029,cobalt,NF,C,311949,311950,310419,311232,310419,312198,311748,311748,312198,12
13,test,1,con,1,z,Tue Nov 05 2024 15:52:51 GMT-0600 (Central Standard Time),319047.0,cherry,800,I,z,z,None,379,174.0,205.0,9,1,1812.0999999999767,317234.9,7029,cherry,NF,C,313832,313833,312202,313015,312202,314014,313627,313627,314014,13
14,test,1,con,1,z,Tue Nov 05 2024 15:52:51 GMT-0600 (Central Standard Time),320963.30000000005,cherry,1000,I,z,z,None,371,171.0,200.0,11,1,1912.2000000000698,319051.1,7029,cherry,NF,C,315748,315748,314018,315030,314018,315930,315547,315547,315930,14
15,test,1,inc,1,z,Tue Nov 05 2024 15:52:51 GMT-0600 (Central Standard Time),322929.1,zinc,1000,I,z,z,None,424,224.0,200.0,63,1,1961.5,320967.6,7029,plum,NF,C,317663,317663,315935,316947,315935,317896,317463,317463,317896,15
16,test,1,con,1,z,Tue Nov 05 2024 15:52:51 GMT-0600 (Central Standard Time),324945.30000000005,raisin,900,I,z,z,None,573,374.0,199.0,26,1,2012.3000000000466,322933.0,7029,raisin,NF,C,319529,319529,317900,318813,317900,319912,319330,319330,319912,16
17,test,1,inc,1,m,Tue Nov 05 2024 15:52:51 GMT-0600 (Central Standard Time),327177.5,plum,1100,I,m,m,None,597,398.0,199.0,128,1,2228.5,324949.0,7029,lead,NF,C,321745,321745,319916,321029,319916,322145,321545,321546,322145,17
18,test,1,con,1,m,Tue Nov 05 2024 15:52:51 GMT-0600 (Central Standard Time),328993.5,cobalt,900,I,m,m,None,372,173.0,199.0,90,1,1811.5,327182.0,7029,cobalt,NF,C,323777,323777,322149,323061,322149,323961,323578,323578,323961,18
19,test,1,con,1,m,Tue Nov 05 2024 15:52:51 GMT-0600 (Central Standard Time),330743.0,cobalt,800,I,m,m,None,407,208.0,199.0,89,1,1743.5999999999767,328999.4,7029,cobalt,NF,C,325494,325494,323966,324777,323967,325710,325294,325294,325710,19
20,test,1,con,1,m,Tue Nov 05 2024 15:52:51 GMT-0600 (Central Standard Time),332543.9,bronze,900,I,m,m,None,352,152.0,200.0,66,1,1796.6999999999534,330747.20000000007,7029,bronze,NF,C,327343,327343,325714,326627,325714,327511,327143,327143,327511,20
21,test,1,inc,1,z,Tue Nov 05 2024 15:52:51 GMT-0600 (Central Standard Time),334475.4,iron,900,I,z,z,None,497,297.0,200.0,38,1,1927.4000000000233,332548.0,7029,lime,NF,C,329142,329142,327515,328426,327515,329443,328942,328942,329442,21
22,test,1,con,1,z,Tue Nov 05 2024 15:52:51 GMT-0600 (Central Standard Time),336308.1,lime,800,I,z,z,None,487,287.0,200.0,33,1,1827.0,334481.1,7029,lime,NF,C,330976,330976,329448,330259,329448,331275,330775,330775,331275,22
23,test,1,inc,1,m,Tue Nov 05 2024 15:52:51 GMT-0600 (Central Standard Time),338340.6,kiwi,1000,I,m,m,None,495,295.0,200.0,119,1,2028.0,336312.6,7029,zinc,NF,C,333008,333008,331280,332292,331280,333308,332808,332808,333308,23
24,test,1,inc,1,z,Tue Nov 05 2024 15:52:51 GMT-0600 (Central Standard Time),340456.70000000007,lead,1100,I,z,z,None,482,282.0,200.0,48,1,2111.4000000000233,338345.30000000005,7029,pear,NF,C,335141,335141,333312,334425,333313,335424,334941,334941,335424,24
25,test,1,inc,1,m,Tue Nov 05 2024 15:52:51 GMT-0600 (Central Standard Time),342689.1,raisin,1100,I,m,m,None,467,264.0,203.0,72,1,2228.5,340460.6,7029,bronze,NF,C,337390,337390,335428,336541,335428,337656,337187,337187,337656,25
26,test,1,con,1,m,Tue Nov 05 2024 15:52:51 GMT-0600 (Central Standard Time),344655.4,copper,900,I,m,m,None,525,326.0,199.0,74,1,1962.5,342692.9,7029,copper,NF,C,339289,339289,337660,338573,337660,339622,339089,339090,339622,26
27,test,1,inc,1,z,Tue Nov 05 2024 15:52:51 GMT-0600 (Central Standard Time),346538.30000000005,gold,800,I,z,z,None,539,340.0,199.0,37,1,1878.7000000000698,344659.6,7029,lime,NF,C,341155,341155,339627,340439,339627,341505,340955,340956,341505,27
28,test,1,con,1,m,Tue Nov 05 2024 15:52:51 GMT-0600 (Central Standard Time),348421.0,lead,900,I,m,m,None,436,237.0,199.0,122,1,1879.0,346542.0,7029,lead,NF,C,343138,343138,341509,342422,341509,343388,342939,342939,343388,28
29,test,1,inc,1,m,Tue Nov 05 2024 15:52:51 GMT-0600 (Central Standard Time),350437.0,kiwi,1000,I,m,m,None,478,278.0,200.0,127,1,2012.2999999999302,348424.70000000007,7029,lead,NF,C,345121,345121,343392,344404,343392,345404,344921,344921,345404,29
30,test,1,con,1,m,Tue Nov 05 2024 15:52:51 GMT-0600 (Central Standard Time),352503.0,zinc,1100,I,m,m,None,426,226.0,200.0,116,1,2062.29999999993,350440.70000000007,7029,zinc,NF,C,347237,347237,345408,346522,345408,347470,347037,347037,347470,30
31,test,1,inc,1,z,Tue Nov 05 2024 15:52:51 GMT-0600 (Central Standard Time),354402.6,gold,800,I,z,z,None,556,356.0,200.0,45,1,1896.0,352506.6,7029,pear,NF,C,349003,349003,347474,348287,347474,349370,348803,348803,349370,31
32,test,1,con,1,m,Tue Nov 05 2024 15:52:51 GMT-0600 (Central Standard Time),356318.30000000005,lead,800,I,m,m,None,574,375.0,199.0,121,1,1911.9000000000233,354406.4,7029,lead,NF,C,350903,350903,349373,350186,349374,351285,350703,350703,351285,32
33,test,1,con,1,m,Tue Nov 05 2024 15:52:51 GMT-0600 (Central Standard Time),358084.80000000005,copper,800,I,m,m,None,419,220.0,199.0,73,1,1761.5,356323.30000000005,7029,copper,NF,C,352819,352819,351290,352102,351291,353052,352619,352619,353052,33
34,test,1,con,1,z,Tue Nov 05 2024 15:52:51 GMT-0600 (Central Standard Time),360100.70000000007,pear,1100,I,z,z,None,369,170.0,199.0,44,1,2011.8000000000466,358088.9,7029,pear,NF,C,354885,354885,353056,354168,353056,355068,354685,354685,355068,34
35,test,1,inc,1,z,Tue Nov 05 2024 15:52:51 GMT-0600 (Central Standard Time),362266.70000000007,cobalt,1100,I,z,z,None,529,329.0,200.0,16,1,2161.9000000000233,360104.80000000005,7029,cherry,NF,C,356902,356902,355072,356184,355072,357234,356701,356701,357234,35
36,test,1,inc,1,z,Tue Nov 05 2024 15:52:51 GMT-0600 (Central Standard Time),364417.80000000005,zinc,1000,I,z,z,None,608,408.0,200.0,39,1,2147.0999999999767,362270.70000000007,7029,lime,NF,C,358967,358967,357238,358250,357238,359385,358767,358767,359385,36
37,test,1,con,1,m,Tue Nov 05 2024 15:52:51 GMT-0600 (Central Standard Time),366282.0,iron,900,I,m,m,None,364,157.0,207.0,106,1,1860.0999999999767,364421.9,7029,iron,NF,C,361082,361082,359389,360300,359389,361249,360875,360875,361249,37
38,test,1,inc,1,m,Tue Nov 05 2024 15:52:51 GMT-0600 (Central Standard Time),368598.1,kiwi,1000,I,m,m,None,769,569.0,200.0,103,1,2312.5,366285.6,7029,gold,NF,C,362982,362982,361253,362266,361253,363565,362782,362782,363565,38
39,test,1,inc,1,z,Tue Nov 05 2024 15:52:51 GMT-0600 (Central Standard Time),370397.30000000005,bronze,800,I,z,z,None,461,261.0,200.0,21,1,1795.3000000000466,368602.0,7029,orange,NF,C,365098,365098,363569,364382,363569,365364,364898,364898,365364,39
40,test,1,con,1,z,Tue Nov 05 2024 15:52:51 GMT-0600 (Central Standard Time),372563.4,plum,1100,I,z,z,None,521,321.0,200.0,60,1,2161.9000000000233,370401.5,7029,plum,NF,C,367197,367198,365369,366481,365369,367530,366997,366997,367530,40
41,test,1,con,1,z,Tue Nov 05 2024 15:52:51 GMT-0600 (Central Standard Time),374396.1,pear,800,I,z,z,None,487,288.0,199.0,41,1,1829.0,372567.1,7029,pear,NF,C,369063,369063,367534,368347,367534,369363,368864,368864,369363,41
42,test,1,inc,1,z,Tue Nov 05 2024 15:52:51 GMT-0600 (Central Standard Time),376328.6,copper,900,I,z,z,None,498,299.0,199.0,22,1,1928.6999999999534,374399.9,7029,orange,NF,C,370996,370996,369367,370280,369367,371296,370797,370797,371296,42
43,test,1,con,1,z,Tue Nov 05 2024 15:52:51 GMT-0600 (Central Standard Time),378161.70000000007,banana,800,I,z,z,None,498,298.0,200.0,1,1,1829.3000000000466,376332.4,7029,banana,NF,C,372829,372829,371299,372113,371300,373129,372629,372629,373129,43
44,test,1,inc,1,m,Tue Nov 05 2024 15:52:51 GMT-0600 (Central Standard Time),380110.70000000007,pear,900,I,m,m,None,507,308.0,199.0,118,1,1945.1000000000931,378165.6,7029,zinc,NF,C,374762,374762,373133,374045,373133,375078,374562,374562,375078,44
45,test,1,con,1,m,Tue Nov 05 2024 15:52:51 GMT-0600 (Central Standard Time),382043.80000000005,iron,1000,I,m,m,None,388,188.0,200.0,107,1,1929.2000000000698,380114.6,7029,iron,NF,C,376811,376811,375082,376095,375082,377011,376611,376611,377011,45
46,test,1,con,1,z,Tue Nov 05 2024 15:52:51 GMT-0600 (Central Standard Time),384076.5,banana,1100,I,z,z,None,386,187.0,199.0,4,1,2028.7999999999302,382047.70000000007,7029,banana,NF,C,378844,378844,377015,378128,377015,379044,378644,378644,379044,46
47,test,1,inc,1,z,Tue Nov 05 2024 15:52:51 GMT-0600 (Central Standard Time),386225.70000000007,cobalt,1100,I,z,z,None,515,315.0,200.0,24,1,2145.20000000007,384080.5,7029,orange,NF,C,380876,380876,379048,380160,379048,381193,380676,380676,381193,47
48,test,1,inc,1,z,Tue Nov 05 2024 15:52:51 GMT-0600 (Central Standard Time),388224.70000000007,silver,1000,I,z,z,None,456,256.0,200.0,7,1,1995.2000000000698,386229.5,7029,banana,NF,C,382926,382926,381197,382209,381197,383192,382726,382726,383192,48
49,test,1,con,1,z,Tue Nov 05 2024 15:52:51 GMT-0600 (Central Standard Time),390007.80000000005,orange,800,I,z,z,None,434,234.0,200.0,17,1,1779.0999999999767,388228.70000000007,7029,orange,NF,C,384725,384725,383196,384009,383196,384975,384525,384525,384975,49
50,test,1,inc,1,m,Tue Nov 05 2024 15:52:51 GMT-0600 (Central Standard Time),392057.20000000007,orange,1000,I,m,m,None,507,307.0,200.0,79,1,2045.4000000000233,390011.80000000005,7029,copper,NF,C,386708,386708,384979,385991,384979,387024,386508,386508,387024,50
51,test,1,inc,1,z,Tue Nov 05 2024 15:52:51 GMT-0600 (Central Standard Time),393923.30000000005,iron,900,I,z,z,None,422,222.0,200.0,46,1,1862.2000000000698,392061.1,7029,pear,NF,C,388657,388657,387028,387941,387028,388890,388457,388457,388890,51
52,test,1,con,1,z,Tue Nov 05 2024 15:52:51 GMT-0600 (Central Standard Time),396139.30000000005,kiwi,1100,I,z,z,None,578,379.0,199.0,52,1,2212.3000000000466,393927.0,7029,kiwi,NF,C,390723,390724,388894,390007,388894,391106,390524,390524,391106,52
53,test,1,inc,1,m,Tue Nov 05 2024 15:52:51 GMT-0600 (Central Standard Time),397872.4,banana,800,I,m,m,None,383,183.0,200.0,69,1,1729.3000000000466,396143.1,7029,bronze,NF,C,392640,392640,391110,391923,391110,392839,392439,392439,392839,53
53,test,1,con,0,m,Tue Nov 05 2024 15:52:51 GMT-0600 (Central Standard Time),400088.1,lead,1000,I,z,z,None,667,467.0,200.0,123,1,2211.899999999907,397876.20000000007,7029,lead,NF,C,394572,394572,392843,393856,392844,395055,394372,394372,395055,54
54,test,1,con,1,z,Tue Nov 05 2024 15:52:51 GMT-0600 (Central Standard Time),401970.80000000005,banana,900,I,z,z,None,439,239.0,200.0,2,1,1878.5999999999767,400092.20000000007,7029,banana,NF,C,396688,396688,395059,395972,395059,396938,396488,396488,396938,55
55,test,1,con,1,z,Tue Nov 05 2024 15:52:51 GMT-0600 (Central Standard Time),404403.20000000007,raisin,1000,I,z,z,None,896,696.0,200.0,27,1,2428.5,401974.70000000007,7029,raisin,NF,C,398671,398671,396942,397955,396942,399370,398471,398471,399370,56
56,test,1,con,1,z,Tue Nov 05 2024 15:52:51 GMT-0600 (Central Standard Time),406369.5,pear,900,I,z,z,None,523,323.0,200.0,42,1,1962.4000000000233,404407.1,7029,pear,NF,C,401003,401004,399374,400287,399374,401337,400803,400803,401337,57
57,test,1,con,1,m,Tue Nov 05 2024 15:52:51 GMT-0600 (Central Standard Time),408435.4,iron,1100,I,m,m,None,420,221.0,199.0,108,1,2061.6999999999534,406373.70000000007,7029,iron,NF,C,403170,403170,401341,402455,401341,403403,402970,402970,403402,58
58,test,1,inc,1,m,Tue Nov 05 2024 15:52:51 GMT-0600 (Central Standard Time),410718.0,raisin,1100,I,m,m,None,635,436.0,199.0,80,1,2278.9000000000233,408439.1,7029,copper,NF,C,405235,405235,403406,404519,403406,405685,405036,405036,405685,59
59,test,1,con,1,z,Tue Nov 05 2024 15:52:51 GMT-0600 (Central Standard Time),412829.9,kiwi,900,I,z,z,None,537,337.0,200.0,50,1,2107.9000000000233,410722.0,7029,kiwi,NF,C,407318,407318,405689,406602,405689,407797,407118,407118,407797,60
60,test,1,inc,1,m,Tue Nov 05 2024 15:52:51 GMT-0600 (Central Standard Time),414800.0,cherry,900,I,m,m,None,532,333.0,199.0,94,1,1966.1999999999534,412833.80000000005,7029,cobalt,NF,C,409434,409434,407801,408718,407801,409767,409235,409235,409767,61
61,test,1,con,1,m,Tue Nov 05 2024 15:52:51 GMT-0600 (Central Standard Time),416933.9,copper,1000,I,m,m,None,595,395.0,200.0,75,1,2130.0999999999767,414803.80000000005,7029,copper,NF,C,411500,411500,409771,410784,409771,411901,411300,411300,411901,62
62,test,1,con,1,m,Tue Nov 05 2024 15:52:51 GMT-0600 (Central Standard Time),418932.30000000005,bronze,1000,I,m,m,None,462,262.0,200.0,67,1,1994.5,416937.80000000005,7029,bronze,NF,C,413633,413633,411905,412917,411905,413899,413433,413433,413899,63
63,test,1,con,1,m,Tue Nov 05 2024 15:52:51 GMT-0600 (Central Standard Time),421164.70000000007,lead,1100,I,m,m,None,586,387.0,199.0,124,1,2228.3000000000466,418936.4,7029,lead,NF,C,415732,415732,413903,415016,413904,416132,415533,415533,416132,64
64,test,1,inc,1,z,Tue Nov 05 2024 15:52:51 GMT-0600 (Central Standard Time),422997.6,bronze,800,I,z,z,None,494,294.0,200.0,29,1,1828.7999999999302,421168.80000000005,7029,raisin,NF,C,417665,417665,416136,416948,416136,417965,417465,417465,417965,65
65,test,1,con,1,z,Tue Nov 05 2024 15:52:51 GMT-0600 (Central Standard Time),424763.70000000007,raisin,800,I,z,z,None,420,221.0,199.0,25,1,1762.5,423001.20000000007,7029,raisin,NF,C,419498,419498,417968,418782,417968,419731,419298,419298,419731,66
66,test,1,inc,1,z,Tue Nov 05 2024 15:52:51 GMT-0600 (Central Standard Time),426646.20000000007,copper,900,I,z,z,None,434,235.0,199.0,30,1,1878.5,424767.70000000007,7029,raisin,NF,C,421364,421364,419735,420647,419735,421613,421164,421164,421613,67
67,test,1,con,1,m,Tue Nov 05 2024 15:52:51 GMT-0600 (Central Standard Time),428763.5,bronze,1100,I,m,m,None,480,280.0,200.0,68,1,2111.29999999993,426652.20000000007,7029,bronze,NF,C,423446,423446,421619,422730,421619,423731,423246,423246,423731,68
68,test,1,inc,1,z,Tue Nov 05 2024 15:52:51 GMT-0600 (Central Standard Time),430944.9,lead,1100,I,z,z,None,539,340.0,199.0,56,1,2177.3000000000466,428767.6,7029,kiwi,NF,C,425563,425563,423735,424846,423735,425912,425363,425363,425912,69
69,test,1,con,1,z,Tue Nov 05 2024 15:52:51 GMT-0600 (Central Standard Time),432877.80000000005,pear,1000,I,z,z,None,394,194.0,200.0,43,1,1929.0,430948.80000000005,7029,pear,NF,C,427645,427645,425916,426929,425916,427845,427445,427445,427845,70
70,test,1,inc,1,z,Tue Nov 05 2024 15:52:51 GMT-0600 (Central Standard Time),434960.20000000007,silver,1000,I,z,z,None,532,333.0,199.0,31,1,2078.5,432881.70000000007,7029,raisin,NF,C,429578,429578,427849,428861,427849,429927,429378,429378,429927,71
71,test,1,inc,1,m,Tue Nov 05 2024 15:52:51 GMT-0600 (Central Standard Time),437026.4,lime,800,I,m,m,None,640,439.0,201.0,109,1,2062.5,434963.9,7029,iron,NF,C,431543,431544,429931,430744,429931,431993,431342,431342,431993,72
72,test,1,con,1,m,Tue Nov 05 2024 15:52:51 GMT-0600 (Central Standard Time),438776.0,zinc,800,I,m,m,None,399,200.0,199.0,113,1,1745.5999999999767,437030.4,7029,zinc,NF,C,433527,433527,431997,432810,431998,433743,433327,433327,433743,73
73,test,1,con,1,z,Tue Nov 05 2024 15:52:51 GMT-0600 (Central Standard Time),440575.30000000005,orange,900,I,z,z,None,359,159.0,200.0,18,1,1795.5999999999767,438779.70000000007,7029,orange,NF,C,435376,435376,433747,434660,433747,435542,435176,435176,435542,74
74,test,1,inc,1,m,Tue Nov 05 2024 15:52:51 GMT-0600 (Central Standard Time),442691.4,plum,1100,I,m,m,None,480,280.0,200.0,104,1,2112.4000000000233,440579.0,7029,gold,NF,C,437375,437375,435546,436659,435546,437658,437175,437175,437658,75
75,test,1,inc,1,z,Tue Nov 05 2024 15:52:51 GMT-0600 (Central Standard Time),444590.4,bronze,800,I,z,z,None,550,350.0,200.0,5,1,1895.1999999999534,442695.20000000007,7029,banana,NF,C,439192,439192,437662,438475,437663,439557,438991,438991,439557,76
76,test,1,inc,1,m,Tue Nov 05 2024 15:52:51 GMT-0600 (Central Standard Time),446573.30000000005,pear,900,I,m,m,None,544,344.0,200.0,102,1,1978.9000000000233,444594.4,7029,gold,NF,C,441191,441191,439561,440474,439562,441540,440991,440991,441540,77
77,test,1,con,1,z,Tue Nov 05 2024 15:52:51 GMT-0600 (Central Standard Time),448406.0,kiwi,800,I,z,z,None,486,286.0,200.0,49,1,1828.9000000000233,446577.1,7029,kiwi,NF,C,443073,443073,441544,442357,441544,443373,442873,442873,443373,78
78,test,1,con,1,z,Tue Nov 05 2024 15:52:51 GMT-0600 (Central Standard Time),450238.9,lime,900,I,z,z,None,384,185.0,199.0,34,1,1827.5,448411.4,7029,lime,NF,C,445006,445006,443378,444290,443379,445206,444807,444807,445206,79
79,test,1,con,1,m,Tue Nov 05 2024 15:52:51 GMT-0600 (Central Standard Time),452055.0,silver,900,I,m,m,None,376,176.0,200.0,82,1,1812.1999999999534,450242.80000000005,7029,silver,NF,C,446839,446839,445210,446123,445210,447022,446639,446639,447022,80
79,test,1,inc,0,m,Tue Nov 05 2024 15:52:51 GMT-0600 (Central Standard Time),454104.4,kiwi,1000,I,z,z,None,500,300.0,200.0,111,1,2045.5999999999767,452058.80000000005,7029,iron,NF,C,448755,448755,447026,448039,447026,449071,448555,448555,449071,81
80,test,1,con,1,m,Tue Nov 05 2024 15:52:51 GMT-0600 (Central Standard Time),456171.6,bronze,800,I,m,m,None,721,522.0,199.0,65,1,2063.0999999999767,454108.5,7029,bronze,NF,C,450604,450605,449076,449888,449076,451139,450405,450405,451139,82
81,test,1,inc,1,m,Tue Nov 05 2024 15:52:51 GMT-0600 (Central Standard Time),458253.0,pear,900,I,m,m,None,643,444.0,199.0,126,1,2077.4000000000233,456175.6,7029,lead,NF,C,452771,452771,451143,452054,451143,453220,452571,452571,453220,83
82,test,1,con,1,m,Tue Nov 05 2024 15:52:51 GMT-0600 (Central Standard Time),460685.70000000007,silver,1000,I,m,m,None,764,560.0,204.0,83,1,2428.70000000007,458257.0,7029,silver,NF,C,455087,455087,453224,454237,453224,455653,454883,454883,455653,84
83,test,1,inc,1,z,Tue Nov 05 2024 15:52:51 GMT-0600 (Central Standard Time),462601.70000000007,copper,900,I,z,z,None,480,281.0,199.0,6,1,1912.0,460689.70000000007,7029,banana,NF,C,457286,457286,455657,456569,455657,457569,457086,457086,457569,85
84,test,1,inc,1,m,Tue Nov 05 2024 15:52:51 GMT-0600 (Central Standard Time),464967.6,orange,1000,I,m,m,None,825,625.0,200.0,71,1,2362.0999999999767,462605.5,7029,bronze,NF,C,459302,459302,457573,458585,457573,459935,459102,459102,459935,86
85,test,1,inc,1,m,Tue Nov 05 2024 15:52:51 GMT-0600 (Central Standard Time),466916.9,banana,800,I,m,m,None,602,403.0,199.0,85,1,1945.5999999999767,464971.30000000005,7029,silver,NF,C,461468,461468,459938,460751,459939,461884,461268,461268,461884,87
86,test,1,inc,1,z,Tue Nov 05 2024 15:52:51 GMT-0600 (Central Standard Time),469066.4,zinc,1000,I,z,z,None,614,414.0,200.0,55,1,2145.8000000000466,466920.6,7029,kiwi,NF,C,463617,463617,461888,462901,461888,464033,463417,463417,464033,88
87,test,1,con,1,z,Tue Nov 05 2024 15:52:51 GMT-0600 (Central Standard Time),471165.70000000007,raisin,1100,I,z,z,None,453,253.0,200.0,28,1,2095.4000000000233,469070.30000000005,7029,raisin,NF,C,465866,465866,464037,465150,464038,466133,465666,465666,466133,89
88,test,1,con,1,m,Tue Nov 05 2024 15:52:51 GMT-0600 (Central Standard Time),473081.70000000007,zinc,1000,I,m,m,None,380,181.0,199.0,115,1,1912.2000000000698,471169.5,7029,zinc,NF,C,467866,467866,466137,467150,466137,468049,467666,467666,468049,90
89,test,1,con,1,m,Tue Nov 05 2024 15:52:51 GMT-0600 (Central Standard Time),474847.9,silver,800,I,m,m,None,417,217.0,200.0,81,1,1762.4000000000233,473085.5,7029,silver,NF,C,469582,469582,468053,468865,468053,469815,469382,469382,469815,91
90,test,1,inc,1,z,Tue Nov 05 2024 15:52:51 GMT-0600 (Central Standard Time),476980.5,cobalt,1100,I,z,z,None,495,295.0,200.0,32,1,2128.4000000000233,474852.1,7029,raisin,NF,C,471648,471648,469819,470931,469819,471948,471448,471448,471948,92
91,test,1,inc,1,z,Tue Nov 05 2024 15:52:51 GMT-0600 (Central Standard Time),479346.30000000005,lead,1100,I,z,z,None,729,530.0,199.0,40,1,2362.0,476984.30000000005,7029,lime,NF,C,473781,473781,471951,473064,471952,474313,473581,473581,474313,93
92,test,1,con,1,m,Tue Nov 05 2024 15:52:51 GMT-0600 (Central Standard Time),481512.30000000005,gold,900,I,m,m,None,723,523.0,200.0,98,1,2162.3000000000466,479350.0,7029,gold,NF,C,475948,475948,474317,475230,474317,476479,475747,475747,476479,94
93,test,1,inc,1,m,Tue Nov 05 2024 15:52:51 GMT-0600 (Central Standard Time),483475.20000000007,lime,800,I,m,m,None,629,429.0,200.0,125,1,1959.1000000000931,481516.1,7029,lead,NF,C,478013,478013,476483,477296,476483,478442,477813,477813,478442,95
94,test,1,inc,1,z,Tue Nov 05 2024 15:52:51 GMT-0600 (Central Standard Time),485428.70000000007,bronze,800,I,z,z,None,603,404.0,199.0,13,1,1949.0,483479.70000000007,7029,cherry,NF,C,479979,479979,478447,479262,478447,480396,479779,479779,480396,96
95,test,1,inc,1,m,Tue Nov 05 2024 15:52:51 GMT-0600 (Central Standard Time),487710.30000000005,raisin,1100,I,m,m,None,635,435.0,200.0,96,1,2277.9000000000233,485432.4,7029,cobalt,NF,C,482228,482228,480399,481511,480400,482677,482028,482028,482677,97
96,test,1,con,1,z,Tue Nov 05 2024 15:52:51 GMT-0600 (Central Standard Time),489993.0,kiwi,1000,I,z,z,None,747,532.0,215.0,51,1,2278.9000000000233,487714.1,7029,kiwi,NF,C,484427,484427,482681,483694,482681,484960,484212,484212,484960,98
97,test,1,inc,1,m,Tue Nov 05 2024 15:52:51 GMT-0600 (Central Standard Time),491959.1,cherry,900,I,m,m,None,526,326.0,200.0,78,1,1962.5,489996.6,7029,copper,NF,C,486593,486593,484964,485877,484964,486926,486393,486393,486926,99
97,test,1,inc,0,z,Tue Nov 05 2024 15:52:51 GMT-0600 (Central Standard Time),493891.70000000007,copper,900,I,m,m,None,488,288.0,200.0,14,1,1928.8000000000466,491962.9,7029,cherry,NF,C,488559,488559,486930,487843,486930,488859,488359,488359,488859,100
98,test,1,inc,1,z,Tue Nov 05 2024 15:52:51 GMT-0600 (Central Standard Time),496324.30000000005,iron,900,I,z,z,None,995,795.0,200.0,54,1,2428.5,493895.80000000005,7029,kiwi,NF,C,490492,490492,488863,489776,488863,491291,490292,490292,491291,101
99,test,1,con,1,z,Tue Nov 05 2024 15:52:51 GMT-0600 (Central Standard Time),499056.9,lime,1100,I,z,z,None,1090,890.0,200.0,36,1,2728.8000000000466,496328.1,7029,lime,NF,C,493124,493125,491295,492408,491296,494024,492924,492924,494024,102
100,test,1,con,1,m,Tue Nov 05 2024 15:52:51 GMT-0600 (Central Standard Time),501089.5,cobalt,1100,I,m,m,None,390,190.0,200.0,92,1,2028.6999999999534,499060.80000000005,7029,cobalt,NF,C,495857,495857,494028,495140,494028,496057,495657,495657,496057,103
101,test,1,inc,1,m,Tue Nov 05 2024 15:52:51 GMT-0600 (Central Standard Time),503072.30000000005,lime,800,I,m,m,None,632,433.0,199.0,117,1,1978.9000000000233,501093.4,7029,zinc,NF,C,497590,497590,496060,496873,496061,498039,497390,497390,498039,104
102,test,1,con,1,m,Tue Nov 05 2024 15:52:51 GMT-0600 (Central Standard Time),504955.1,iron,800,I,m,m,None,545,346.0,199.0,105,1,1879.0,503076.1,7029,iron,NF,C,499573,499573,498043,498856,498043,499922,499373,499373,499922,105
103,test,1,con,1,m,Tue Nov 05 2024 15:52:51 GMT-0600 (Central Standard Time),507126.1,zinc,900,I,m,m,None,738,538.0,200.0,114,1,2167.29999999993,504958.80000000005,7029,zinc,NF,C,501555,501555,499926,500839,499926,502093,501355,501355,502093,106
104,test,1,con,1,z,Tue Nov 05 2024 15:52:51 GMT-0600 (Central Standard Time),509303.5,banana,1000,I,z,z,None,634,434.0,200.0,3,1,2173.4000000000233,507130.1,7029,banana,NF,C,503821,503821,502097,503105,502097,504271,503621,503621,504271,107
105,test,1,inc,1,z,Tue Nov 05 2024 15:52:51 GMT-0600 (Central Standard Time),511302.80000000005,gold,800,I,z,z,None,659,459.0,200.0,61,1,1995.4000000000233,509307.4,7029,plum,NF,C,505804,505804,504274,505087,504275,506270,505604,505604,506270,108
106,test,1,inc,1,z,Tue Nov 05 2024 15:52:51 GMT-0600 (Central Standard Time),513468.9,silver,1000,I,z,z,None,620,419.0,201.0,23,1,2162.0,511306.9,7029,orange,NF,C,508004,508004,506274,507287,506274,508436,507803,507803,508436,109
107,test,1,con,1,z,Tue Nov 05 2024 15:52:51 GMT-0600 (Central Standard Time),515584.9,lime,1000,I,z,z,None,574,374.0,200.0,35,1,2112.1999999999534,513472.70000000007,7029,lime,NF,C,510169,510169,508440,509453,508440,510552,509969,509969,510552,110
108,test,1,con,1,m,Tue Nov 05 2024 15:52:51 GMT-0600 (Central Standard Time),517784.30000000005,gold,1100,I,m,m,None,550,350.0,200.0,100,1,2195.3000000000466,515589.0,7029,gold,NF,C,512385,512385,510556,511668,510556,512751,512185,512185,512751,111
109,test,1,inc,1,m,Tue Nov 05 2024 15:52:51 GMT-0600 (Central Standard Time),519700.5,banana,800,I,m,m,None,578,379.0,199.0,77,1,1912.1999999999534,517788.30000000005,7029,copper,NF,C,514284,514284,512755,513568,512756,514668,514085,514085,514668,112
110,test,1,con,1,z,Tue Nov 05 2024 15:52:51 GMT-0600 (Central Standard Time),521699.80000000005,plum,800,I,z,z,None,663,463.0,200.0,57,1,1995.3000000000466,519704.5,7029,plum,NF,C,516200,516200,514672,515484,514672,516667,516000,516000,516667,113
111,test,1,con,1,z,Tue Nov 05 2024 15:52:51 GMT-0600 (Central Standard Time),524182.30000000005,orange,1100,I,z,z,None,843,643.0,200.0,20,1,2478.70000000007,521703.6,7029,orange,NF,C,518500,518500,516671,517783,516671,519149,518300,518300,519149,114
112,test,1,con,1,m,Tue Nov 05 2024 15:52:51 GMT-0600 (Central Standard Time),526364.7000000001,copper,1100,I,m,m,None,537,337.0,200.0,76,1,2178.4000000000233,524186.30000000005,7029,copper,NF,C,520982,520982,519153,520266,519154,521332,520782,520782,521332,115
113,test,1,con,1,z,Tue Nov 05 2024 15:52:51 GMT-0600 (Central Standard Time),528247.8,plum,900,I,z,z,None,434,234.0,200.0,58,1,1879.4000000000233,526368.4,7029,plum,NF,C,522965,522965,521335,522248,521336,523215,522765,522765,523215,116
114,test,1,inc,1,z,Tue Nov 05 2024 15:52:51 GMT-0600 (Central Standard Time),530510.1,lead,1100,I,z,z,None,628,429.0,199.0,64,1,2258.5999999999767,528251.5,7029,plum,NF,C,525048,525048,523219,524331,523219,525477,524848,524848,525477,117
115,test,1,inc,1,z,Tue Nov 05 2024 15:52:51 GMT-0600 (Central Standard Time),532479.9,iron,900,I,z,z,None,533,333.0,200.0,62,1,1965.5,530514.4,7029,plum,NF,C,527114,527114,525481,526397,525482,527447,526914,526914,527447,118
116,test,1,inc,1,m,Tue Nov 05 2024 15:52:51 GMT-0600 (Central Standard Time),534529.2000000001,cherry,900,I,m,m,None,607,407.0,200.0,86,1,2045.8000000000466,532483.4,7029,silver,NF,C,529080,529080,527450,528363,527451,529496,528880,528880,529496,119
117,test,1,inc,1,z,Tue Nov 05 2024 15:52:51 GMT-0600 (Central Standard Time),536495.0,gold,800,I,z,z,None,618,417.0,201.0,53,1,1962.0999999999767,534532.9,7029,kiwi,NF,C,531030,531030,529500,530313,529500,531462,530829,530829,531462,120
118,test,1,con,1,m,Tue Nov 05 2024 15:52:51 GMT-0600 (Central Standard Time),538744.4,silver,1100,I,m,m,None,608,408.0,200.0,84,1,2245.6999999999534,536498.7000000001,7029,silver,NF,C,533295,533295,531466,532578,531466,533711,533095,533095,533711,121
119,test,1,con,1,z,Tue Nov 05 2024 15:52:51 GMT-0600 (Central Standard Time),540693.8,orange,1000,I,z,z,None,409,210.0,199.0,19,1,1945.5999999999767,538748.2000000001,7029,orange,NF,C,535445,535445,533715,534728,533716,535661,535245,535245,535661,122
120,test,1,con,1,z,Tue Nov 05 2024 15:52:51 GMT-0600 (Central Standard Time),542726.4,cherry,1100,I,z,z,None,393,193.0,200.0,12,1,2028.5999999999767,540697.8,7029,cherry,NF,C,537494,537494,535665,536777,535665,537694,537294,537294,537693,123
121,test,1,con,1,z,Tue Nov 05 2024 15:52:51 GMT-0600 (Central Standard Time),544659.0,plum,1000,I,z,z,None,387,188.0,199.0,59,1,1928.5999999999767,542730.4,7029,plum,NF,C,539426,539427,537697,538711,537698,539626,539227,539227,539626,124
122,test,1,con,1,m,Tue Nov 05 2024 15:52:51 GMT-0600 (Central Standard Time),546408.7000000001,gold,800,I,m,m,None,408,208.0,200.0,97,1,1745.9000000000233,544662.8,7029,gold,NF,C,541159,541159,539630,540443,539630,541376,540959,540959,541376,125
123,test,1,inc,1,m,Tue Nov 05 2024 15:52:51 GMT-0600 (Central Standard Time),548607.9,orange,1000,I,m,m,None,650,450.0,200.0,87,1,2195.5,546412.4,7029,silver,NF,C,543109,543109,541379,542392,541380,543575,542909,542909,543575,126
124,test,1,inc,1,z,Tue Nov 05 2024 15:52:51 GMT-0600 (Central Standard Time),550707.2000000001,cobalt,1100,I,z,z,None,455,255.0,200.0,8,1,2095.5,548611.7000000001,7029,banana,NF,C,545408,545408,543579,544692,543579,545674,545208,545208,545674,127
125,test,1,inc,1,m,Tue Nov 05 2024 15:52:51 GMT-0600 (Central Standard Time),552890.4,cherry,900,I,m,m,None,748,548.0,200.0,70,1,2179.3000000000466,550711.1,7029,bronze,NF,C,547307,547307,545678,546591,545678,547857,547107,547107,547857,128
