acc_sum,block,block_c,change,condition,correct,correct_response,datetime,endtime,face,project,response,response_time,row_sel,session_number,start_end,starttime,subject_id,task,task_vers,trial
0,prac,1,,1-Back,,,Tue Apr 01 2025 16:27:17 GMT-0500 (Central Daylight Time),,012_o_f_d_a.png,O,space,13036,1,1,,,7115,VNB,C,0
1,prac,1,0.0,1-Back,1,m,Tue Apr 01 2025 16:27:17 GMT-0500 (Central Daylight Time),157793.0,022_y_f_n_a.png,O,m,1570,2,1,2503.300000011921,155289.69999998808,7115,VNB,C,1
1,prac,1,0.0,1-Back,0,m,Tue Apr 01 2025 16:27:17 GMT-0500 (Central Daylight Time),160426.29999998212,014_m_m_h_a.png,O,z,1714,3,1,2617.399999976158,157808.90000000596,7115,VNB,C,2
1,prac,1,0.0,1-Back,0,m,Tue Apr 01 2025 16:27:17 GMT-0500 (Central Daylight Time),163375.0,025_y_m_d_a.png,O,None,2017,4,1,2912.5999999940395,160462.40000000596,7115,VNB,C,3
2,prac,1,0.0,1-Back,1,m,Tue Apr 01 2025 16:27:17 GMT-0500 (Central Daylight Time),165341.19999998808,012_o_f_n_a.png,O,m,1000,5,1,1925.9000000059605,163415.29999998212,7115,VNB,C,4
2,prac,1,1.0,1-Back,0,z,Tue Apr 01 2025 16:27:17 GMT-0500 (Central Daylight Time),167040.40000000596,025_y_m_n_a.png,O,m,764,6,1,1667.2000000178814,165373.19999998808,7115,VNB,C,5
3,prac,1,0.0,1-Back,1,m,Tue Apr 01 2025 16:27:17 GMT-0500 (Central Daylight Time),169156.59999999404,015_o_m_h_a.png,O,m,1152,7,1,2078.9000000059605,167077.69999998808,7115,VNB,C,6
4,prac,1,0.0,1-Back,1,m,Tue Apr 01 2025 16:27:17 GMT-0500 (Central Daylight Time),171072.69999998808,019_m_f_d_a.png,O,m,954,8,1,1885.9000000059605,169186.79999998212,7115,VNB,C,7
5,prac,1,1.0,1-Back,1,z,Tue Apr 01 2025 16:27:17 GMT-0500 (Central Daylight Time),172855.40000000596,022_y_f_d_a.png,O,z,826,9,1,1752.1000000238419,171103.29999998212,7115,VNB,C,8
6,prac,1,0.0,1-Back,1,m,Tue Apr 01 2025 16:27:17 GMT-0500 (Central Daylight Time),174704.59999999404,014_m_m_n_a.png,O,m,906,10,1,1808.199999988079,172896.40000000596,7115,VNB,C,9
7,prac,1,0.0,1-Back,1,m,Tue Apr 01 2025 16:27:17 GMT-0500 (Central Daylight Time),176604.29999998212,012_o_f_h_a.png,O,m,953,11,1,1869.5999999940395,174734.69999998808,7115,VNB,C,10
8,prac,1,0.0,1-Back,1,m,Tue Apr 01 2025 16:27:17 GMT-0500 (Central Daylight Time),178687.09999999404,025_y_m_d_a.png,O,m,1143,12,1,2041.5,176645.59999999404,7115,VNB,C,11
0,test,1,0.0,1-Back,,,Tue Apr 01 2025 16:27:17 GMT-0500 (Central Daylight Time),178687.09999999404,022_y_f_d_a.png,O,space,13454,1,1,2041.5,176645.59999999404,7115,VNB,C,0
1,test,1,0.0,1-Back,1,m,Tue Apr 01 2025 16:27:17 GMT-0500 (Central Daylight Time),203362.29999998212,019_m_f_n_a.png,O,m,975,2,1,1992.5999999940395,201369.69999998808,7115,VNB,C,1
2,test,1,0.0,1-Back,1,m,Tue Apr 01 2025 16:27:17 GMT-0500 (Central Daylight Time),205595.0,015_o_m_h_a.png,O,m,1185,3,1,2204.0999999940395,203390.90000000596,7115,VNB,C,2
3,test,1,1.0,1-Back,1,z,Tue Apr 01 2025 16:27:17 GMT-0500 (Central Daylight Time),207661.29999998212,014_m_m_h_a.png,O,z,1031,4,1,2036.699999988079,205624.59999999404,7115,VNB,C,3
4,test,1,0.0,1-Back,1,m,Tue Apr 01 2025 16:27:17 GMT-0500 (Central Daylight Time),209610.0,012_o_f_n_a.png,O,m,902,5,1,1920.5999999940395,207689.40000000596,7115,VNB,C,4
5,test,1,0.0,1-Back,1,m,Tue Apr 01 2025 16:27:17 GMT-0500 (Central Daylight Time),211842.59999999404,025_y_m_d_a.png,O,m,1183,6,1,2206.5999999940395,209636.0,7115,VNB,C,5
5,test,1,1.0,1-Back,0,z,Tue Apr 01 2025 16:27:17 GMT-0500 (Central Daylight Time),214525.5,019_m_f_d_a.png,O,m,1648,7,1,2655.0,211870.5,7115,VNB,C,6
6,test,1,0.0,1-Back,1,m,Tue Apr 01 2025 16:27:17 GMT-0500 (Central Daylight Time),216657.5,022_y_f_h_a.png,O,m,1093,8,1,2106.5999999940395,214550.90000000596,7115,VNB,C,7
7,test,1,0.0,1-Back,1,m,Tue Apr 01 2025 16:27:17 GMT-0500 (Central Daylight Time),218790.19999998808,015_o_m_n_a.png,O,m,1080,9,1,2103.5999999940395,216686.59999999404,7115,VNB,C,8
8,test,1,0.0,1-Back,1,m,Tue Apr 01 2025 16:27:17 GMT-0500 (Central Daylight Time),220856.29999998212,025_y_m_h_a.png,O,m,1012,10,1,2028.0999999940395,218828.19999998808,7115,VNB,C,9
9,test,1,0.0,1-Back,1,m,Tue Apr 01 2025 16:27:17 GMT-0500 (Central Daylight Time),222921.5,015_o_m_d_a.png,O,m,1025,11,1,2040.9000000059605,220880.59999999404,7115,VNB,C,10
10,test,1,1.0,1-Back,1,z,Tue Apr 01 2025 16:27:17 GMT-0500 (Central Daylight Time),224905.0,012_o_f_d_a.png,O,z,960,12,1,1971.9000000059605,222933.09999999404,7115,VNB,C,11
11,test,1,0.0,1-Back,1,m,Tue Apr 01 2025 16:27:17 GMT-0500 (Central Daylight Time),226954.19999998808,014_m_m_n_a.png,O,m,1009,13,1,2021.5999999940395,224932.59999999404,7115,VNB,C,12
12,test,1,1.0,1-Back,1,z,Tue Apr 01 2025 16:27:17 GMT-0500 (Central Daylight Time),229170.40000000596,022_y_f_n_a.png,O,z,1167,14,1,2188.100000023842,226982.29999998212,7115,VNB,C,13
13,test,1,0.0,1-Back,1,m,Tue Apr 01 2025 16:27:17 GMT-0500 (Central Daylight Time),231252.90000000596,019_m_f_h_a.png,O,m,1023,15,1,2044.2000000178814,229208.69999998808,7115,VNB,C,14
14,test,1,0.0,1-Back,1,m,Tue Apr 01 2025 16:27:17 GMT-0500 (Central Daylight Time),233552.09999999404,014_m_m_d_a.png,O,m,1253,16,1,2270.300000011921,231281.79999998212,7115,VNB,C,15
15,test,1,0.0,1-Back,1,m,Tue Apr 01 2025 16:27:17 GMT-0500 (Central Daylight Time),235634.69999998808,025_y_m_n_a.png,O,m,1034,17,1,2053.5999999940395,233581.09999999404,7115,VNB,C,16
16,test,1,0.0,1-Back,1,m,Tue Apr 01 2025 16:27:17 GMT-0500 (Central Daylight Time),237767.40000000596,012_o_f_h_a.png,O,m,1088,18,1,2108.300000011921,235659.09999999404,7115,VNB,C,17
0,test,2,0.0,1-Back,,,Tue Apr 01 2025 16:27:17 GMT-0500 (Central Daylight Time),237767.40000000596,025_y_m_n_a.png,O,space,2018,1,1,2108.300000011921,235659.09999999404,7115,VNB,C,0
1,test,2,0.0,1-Back,1,m,Tue Apr 01 2025 16:27:17 GMT-0500 (Central Daylight Time),243765.5,022_y_f_h_a.png,O,m,907,2,1,1927.7000000178814,241837.79999998212,7115,VNB,C,1
2,test,2,1.0,1-Back,1,m,Tue Apr 01 2025 16:27:17 GMT-0500 (Central Daylight Time),246114.69999998808,015_o_m_n_a.png,O,m,1300,3,1,2323.2999999821186,243791.40000000596,7115,VNB,C,2
3,test,2,0.0,1-Back,1,m,Tue Apr 01 2025 16:27:17 GMT-0500 (Central Daylight Time),248263.09999999404,019_m_f_d_a.png,O,m,1093,4,1,2114.5999999940395,246148.5,7115,VNB,C,3
4,test,2,0.0,1-Back,1,z,Tue Apr 01 2025 16:27:17 GMT-0500 (Central Daylight Time),250230.0,014_m_m_d_a.png,O,z,938,5,1,1960.7000000178814,248269.29999998212,7115,VNB,C,4
5,test,2,0.0,1-Back,1,m,Tue Apr 01 2025 16:27:17 GMT-0500 (Central Daylight Time),252096.0,025_y_m_h_a.png,O,m,812,6,1,1829.800000011921,250266.19999998808,7115,VNB,C,5
5,test,2,1.0,1-Back,0,z,Tue Apr 01 2025 16:27:17 GMT-0500 (Central Daylight Time),253828.40000000596,012_o_f_h_a.png,O,m,698,7,1,1708.300000011921,252120.09999999404,7115,VNB,C,6
6,test,2,0.0,1-Back,1,m,Tue Apr 01 2025 16:27:17 GMT-0500 (Central Daylight Time),256128.19999998808,019_m_f_n_a.png,O,m,1262,8,1,2284.5,253843.69999998808,7115,VNB,C,7
6,test,2,0.0,1-Back,0,m,Tue Apr 01 2025 16:27:17 GMT-0500 (Central Daylight Time),259177.40000000596,022_y_f_d_a.png,O,None,2015,9,1,3026.600000023842,256150.79999998212,7115,VNB,C,8
7,test,2,0.0,1-Back,1,m,Tue Apr 01 2025 16:27:17 GMT-0500 (Central Daylight Time),261229.09999999404,014_m_m_n_a.png,O,m,999,10,1,2022.5999999940395,259206.5,7115,VNB,C,9
8,test,2,1.0,1-Back,1,m,Tue Apr 01 2025 16:27:17 GMT-0500 (Central Daylight Time),263125.2999999821,019_m_f_h_a.png,O,m,847,11,1,1862.2999999821186,261263.0,7115,VNB,C,10
9,test,2,0.0,1-Back,1,z,Tue Apr 01 2025 16:27:17 GMT-0500 (Central Daylight Time),265025.09999999404,015_o_m_h_a.png,O,z,854,12,1,1869.9000000059605,263155.1999999881,7115,VNB,C,11
10,test,2,0.0,1-Back,1,m,Tue Apr 01 2025 16:27:17 GMT-0500 (Central Daylight Time),266773.59999999404,025_y_m_d_a.png,O,m,702,13,1,1719.5,265054.09999999404,7115,VNB,C,12
11,test,2,0.0,1-Back,1,m,Tue Apr 01 2025 16:27:17 GMT-0500 (Central Daylight Time),268725.7999999821,012_o_f_n_a.png,O,m,933,14,1,1947.0999999940395,266778.6999999881,7115,VNB,C,13
12,test,2,0.0,1-Back,1,z,Tue Apr 01 2025 16:27:17 GMT-0500 (Central Daylight Time),270606.2999999821,022_y_f_n_a.png,O,z,846,15,1,1858.3999999761581,268747.90000000596,7115,VNB,C,14
13,test,2,1.0,1-Back,1,m,Tue Apr 01 2025 16:27:17 GMT-0500 (Central Daylight Time),272422.6999999881,014_m_m_h_a.png,O,m,780,16,1,1788.5999999940395,270634.09999999404,7115,VNB,C,15
14,test,2,0.0,1-Back,1,m,Tue Apr 01 2025 16:27:17 GMT-0500 (Central Daylight Time),274688.6999999881,012_o_f_d_a.png,O,m,1219,17,1,2237.7999999821186,272450.90000000596,7115,VNB,C,16
14,test,2,1.0,1-Back,0,z,Tue Apr 01 2025 16:27:17 GMT-0500 (Central Daylight Time),277421.09999999404,015_o_m_d_a.png,O,m,1689,18,1,2707.800000011921,274713.2999999821,7115,VNB,C,17
0,test,3,1.0,1-Back,,,Tue Apr 01 2025 16:27:17 GMT-0500 (Central Daylight Time),277421.09999999404,012_o_f_h_a.png,O,space,6708,1,1,2707.800000011921,274713.2999999821,7115,VNB,C,0
1,test,3,0.0,1-Back,1,m,Tue Apr 01 2025 16:27:17 GMT-0500 (Central Daylight Time),288600.5,019_m_f_d_a.png,O,m,1261,2,1,2274.300000011921,286326.1999999881,7115,VNB,C,1
2,test,3,1.0,1-Back,1,m,Tue Apr 01 2025 16:27:17 GMT-0500 (Central Daylight Time),291083.1999999881,014_m_m_n_a.png,O,m,1434,3,1,2455.4000000059605,288627.7999999821,7115,VNB,C,2
3,test,3,0.0,1-Back,1,z,Tue Apr 01 2025 16:27:17 GMT-0500 (Central Daylight Time),293148.40000000596,012_o_f_n_a.png,O,z,1006,4,1,2034.2000000178814,291114.1999999881,7115,VNB,C,3
4,test,3,1.0,1-Back,1,m,Tue Apr 01 2025 16:27:17 GMT-0500 (Central Daylight Time),295448.40000000596,015_o_m_d_a.png,O,m,1278,5,1,2293.600000023842,293154.7999999821,7115,VNB,C,4
5,test,3,0.0,1-Back,1,m,Tue Apr 01 2025 16:27:17 GMT-0500 (Central Daylight Time),297447.6999999881,022_y_f_h_a.png,O,m,962,6,1,1971.5999999940395,295476.09999999404,7115,VNB,C,5
6,test,3,0.0,1-Back,1,z,Tue Apr 01 2025 16:27:17 GMT-0500 (Central Daylight Time),299447.1999999881,025_y_m_h_a.png,O,z,955,7,1,1970.7999999821186,297476.40000000596,7115,VNB,C,6
7,test,3,0.0,1-Back,1,m,Tue Apr 01 2025 16:27:17 GMT-0500 (Central Daylight Time),301396.6999999881,019_m_f_n_a.png,O,m,900,8,1,1924.9000000059605,299471.7999999821,7115,VNB,C,7
8,test,3,0.0,1-Back,1,m,Tue Apr 01 2025 16:27:17 GMT-0500 (Central Daylight Time),303695.7999999821,022_y_f_d_a.png,O,m,1253,9,1,2277.0999999940395,301418.6999999881,7115,VNB,C,8
9,test,3,1.0,1-Back,1,m,Tue Apr 01 2025 16:27:17 GMT-0500 (Central Daylight Time),305895.0,015_o_m_n_a.png,O,m,1162,10,1,2170.9000000059605,303724.09999999404,7115,VNB,C,9
10,test,3,0.0,1-Back,1,m,Tue Apr 01 2025 16:27:17 GMT-0500 (Central Daylight Time),308260.90000000596,014_m_m_h_a.png,O,m,1323,11,1,2340.600000023842,305920.2999999821,7115,VNB,C,10
11,test,3,0.0,1-Back,1,z,Tue Apr 01 2025 16:27:17 GMT-0500 (Central Daylight Time),310294.09999999404,019_m_f_h_a.png,O,z,998,12,1,2014.800000011921,308279.2999999821,7115,VNB,C,11
12,test,3,1.0,1-Back,1,m,Tue Apr 01 2025 16:27:17 GMT-0500 (Central Daylight Time),312310.0,012_o_f_d_a.png,O,m,964,13,1,1985.5,310324.5,7115,VNB,C,12
13,test,3,0.0,1-Back,1,z,Tue Apr 01 2025 16:27:17 GMT-0500 (Central Daylight Time),314592.5,014_m_m_d_a.png,O,z,1238,14,1,2256.2000000178814,312336.2999999821,7115,VNB,C,13
14,test,3,0.0,1-Back,1,m,Tue Apr 01 2025 16:27:17 GMT-0500 (Central Daylight Time),316557.90000000596,025_y_m_n_a.png,O,m,930,15,1,1941.4000000059605,314616.5,7115,VNB,C,14
15,test,3,1.0,1-Back,1,m,Tue Apr 01 2025 16:27:17 GMT-0500 (Central Daylight Time),318824.09999999404,015_o_m_h_a.png,O,m,1228,16,1,2237.699999988079,316586.40000000596,7115,VNB,C,15
16,test,3,0.0,1-Back,1,m,Tue Apr 01 2025 16:27:17 GMT-0500 (Central Daylight Time),321006.1999999881,025_y_m_d_a.png,O,m,1146,17,1,2159.0999999940395,318847.09999999404,7115,VNB,C,16
17,test,3,1.0,1-Back,1,m,Tue Apr 01 2025 16:27:17 GMT-0500 (Central Daylight Time),323057.40000000596,022_y_f_n_a.png,O,m,1015,18,1,2020.9000000059605,321036.5,7115,VNB,C,17
0,test,4,1.0,1-Back,,,Tue Apr 01 2025 16:27:17 GMT-0500 (Central Daylight Time),323057.40000000596,014_m_m_d_a.png,O,space,1330,1,1,2020.9000000059605,321036.5,7115,VNB,C,0
1,test,4,0.0,1-Back,1,z,Tue Apr 01 2025 16:27:17 GMT-0500 (Central Daylight Time),328937.2999999821,015_o_m_d_a.png,O,z,1336,2,1,2353.5,326583.7999999821,7115,VNB,C,1
2,test,4,0.0,1-Back,1,m,Tue Apr 01 2025 16:27:17 GMT-0500 (Central Daylight Time),330837.59999999404,025_y_m_h_a.png,O,m,848,3,1,1866.699999988079,328970.90000000596,7115,VNB,C,2
3,test,4,0.0,1-Back,1,m,Tue Apr 01 2025 16:27:17 GMT-0500 (Central Daylight Time),333052.90000000596,019_m_f_n_a.png,O,m,1149,4,1,2184.300000011921,330868.59999999404,7115,VNB,C,3
4,test,4,1.0,1-Back,1,m,Tue Apr 01 2025 16:27:17 GMT-0500 (Central Daylight Time),335534.90000000596,012_o_f_h_a.png,O,m,1445,5,1,2456.5,333078.40000000596,7115,VNB,C,4
5,test,4,0.0,1-Back,1,m,Tue Apr 01 2025 16:27:17 GMT-0500 (Central Daylight Time),337401.40000000596,014_m_m_n_a.png,O,m,827,6,1,1841.7000000178814,335559.6999999881,7115,VNB,C,5
6,test,4,0.0,1-Back,1,m,Tue Apr 01 2025 16:27:17 GMT-0500 (Central Daylight Time),339484.09999999404,025_y_m_d_a.png,O,m,1041,7,1,2052.0999999940395,337432.0,7115,VNB,C,6
7,test,4,1.0,1-Back,1,z,Tue Apr 01 2025 16:27:17 GMT-0500 (Central Daylight Time),341333.59999999404,022_y_f_d_a.png,O,z,814,8,1,1819.4000000059605,339514.1999999881,7115,VNB,C,7
8,test,4,0.0,1-Back,1,m,Tue Apr 01 2025 16:27:17 GMT-0500 (Central Daylight Time),343149.59999999404,019_m_f_h_a.png,O,m,747,9,1,1786.5,341363.09999999404,7115,VNB,C,8
9,test,4,0.0,1-Back,1,z,Tue Apr 01 2025 16:27:17 GMT-0500 (Central Daylight Time),345331.6999999881,015_o_m_h_a.png,O,z,1140,10,1,2155.0,343176.6999999881,7115,VNB,C,9
10,test,4,1.0,1-Back,1,m,Tue Apr 01 2025 16:27:17 GMT-0500 (Central Daylight Time),347215.0,012_o_f_n_a.png,O,m,838,11,1,1867.7000000178814,345347.2999999821,7115,VNB,C,10
11,test,4,0.0,1-Back,1,m,Tue Apr 01 2025 16:27:17 GMT-0500 (Central Daylight Time),349564.09999999404,019_m_f_d_a.png,O,m,1308,12,1,2324.699999988079,347239.40000000596,7115,VNB,C,11
12,test,4,0.0,1-Back,1,m,Tue Apr 01 2025 16:27:17 GMT-0500 (Central Daylight Time),351546.7999999821,022_y_f_n_a.png,O,m,933,13,1,1957.699999988079,349589.09999999404,7115,VNB,C,12
13,test,4,0.0,1-Back,1,m,Tue Apr 01 2025 16:27:17 GMT-0500 (Central Daylight Time),353629.2999999821,012_o_f_d_a.png,O,m,1040,14,1,2053.899999976158,351575.40000000596,7115,VNB,C,13
14,test,4,0.0,1-Back,1,m,Tue Apr 01 2025 16:27:17 GMT-0500 (Central Daylight Time),355628.7999999821,022_y_f_h_a.png,O,m,957,15,1,1976.0,353652.7999999821,7115,VNB,C,14
15,test,4,1.0,1-Back,1,z,Tue Apr 01 2025 16:27:17 GMT-0500 (Central Daylight Time),357595.7999999821,014_m_m_h_a.png,O,z,917,16,1,1939.5,355656.2999999821,7115,VNB,C,15
16,test,4,0.0,1-Back,1,m,Tue Apr 01 2025 16:27:17 GMT-0500 (Central Daylight Time),359560.7999999821,015_o_m_n_a.png,O,m,928,17,1,1938.0,357622.7999999821,7115,VNB,C,16
17,test,4,1.0,1-Back,1,z,Tue Apr 01 2025 16:27:17 GMT-0500 (Central Daylight Time),361893.59999999404,025_y_m_n_a.png,O,z,1290,18,1,2308.699999988079,359584.90000000596,7115,VNB,C,17
0,test,5,1.0,1-Back,,,Tue Apr 01 2025 16:27:17 GMT-0500 (Central Daylight Time),361893.59999999404,015_o_m_n_a.png,O,space,2269,1,1,2308.699999988079,359584.90000000596,7115,VNB,C,0
1,test,5,1.0,1-Back,1,m,Tue Apr 01 2025 16:27:17 GMT-0500 (Central Daylight Time),368424.59999999404,012_o_f_h_a.png,O,m,1003,2,1,2032.199999988079,366392.40000000596,7115,VNB,C,1
2,test,5,0.0,1-Back,1,m,Tue Apr 01 2025 16:27:17 GMT-0500 (Central Daylight Time),370507.2999999821,025_y_m_d_a.png,O,m,1026,3,1,2050.0999999940395,368457.1999999881,7115,VNB,C,2
3,test,5,0.0,1-Back,1,z,Tue Apr 01 2025 16:27:17 GMT-0500 (Central Daylight Time),372572.2999999821,015_o_m_d_a.png,O,z,1030,4,1,2039.2999999821186,370533.0,7115,VNB,C,3
4,test,5,0.0,1-Back,1,m,Tue Apr 01 2025 16:27:17 GMT-0500 (Central Daylight Time),374289.2999999821,019_m_f_h_a.png,O,m,686,5,1,1706.7999999821186,372582.5,7115,VNB,C,4
5,test,5,0.0,1-Back,1,m,Tue Apr 01 2025 16:27:17 GMT-0500 (Central Daylight Time),376188.2999999821,022_y_f_n_a.png,O,m,864,6,1,1871.7999999821186,374316.5,7115,VNB,C,5
6,test,5,1.0,1-Back,1,z,Tue Apr 01 2025 16:27:17 GMT-0500 (Central Daylight Time),378021.59999999404,012_o_f_n_a.png,O,z,800,7,1,1818.5,376203.09999999404,7115,VNB,C,6
7,test,5,0.0,1-Back,1,m,Tue Apr 01 2025 16:27:17 GMT-0500 (Central Daylight Time),379837.7999999821,019_m_f_d_a.png,O,m,764,8,1,1778.7999999821186,378059.0,7115,VNB,C,7
8,test,5,0.0,1-Back,1,m,Tue Apr 01 2025 16:27:17 GMT-0500 (Central Daylight Time),381953.5,025_y_m_h_a.png,O,m,1069,9,1,2087.5999999940395,379865.90000000596,7115,VNB,C,8
9,test,5,0.0,1-Back,1,m,Tue Apr 01 2025 16:27:17 GMT-0500 (Central Daylight Time),383853.6999999881,022_y_f_d_a.png,O,m,849,10,1,1867.5,381986.1999999881,7115,VNB,C,9
10,test,5,0.0,1-Back,1,m,Tue Apr 01 2025 16:27:17 GMT-0500 (Central Daylight Time),385918.59999999404,014_m_m_n_a.png,O,m,1022,11,1,2037.5,383881.09999999404,7115,VNB,C,10
11,test,5,1.0,1-Back,1,z,Tue Apr 01 2025 16:27:17 GMT-0500 (Central Daylight Time),387851.6999999881,019_m_f_n_a.png,O,z,883,12,1,1911.5,385940.1999999881,7115,VNB,C,11
12,test,5,0.0,1-Back,1,m,Tue Apr 01 2025 16:27:17 GMT-0500 (Central Daylight Time),389934.09999999404,015_o_m_h_a.png,O,m,1039,13,1,2056.0,387878.09999999404,7115,VNB,C,12
13,test,5,0.0,1-Back,1,z,Tue Apr 01 2025 16:27:17 GMT-0500 (Central Daylight Time),392000.2999999821,014_m_m_h_a.png,O,z,1015,14,1,2036.199999988079,389964.09999999404,7115,VNB,C,13
14,test,5,1.0,1-Back,1,m,Tue Apr 01 2025 16:27:17 GMT-0500 (Central Daylight Time),393999.5,012_o_f_d_a.png,O,m,938,15,1,1969.4000000059605,392030.09999999404,7115,VNB,C,14
15,test,5,0.0,1-Back,1,m,Tue Apr 01 2025 16:27:17 GMT-0500 (Central Daylight Time),396165.7999999821,025_y_m_n_a.png,O,m,1115,16,1,2138.2999999821186,394027.5,7115,VNB,C,15
16,test,5,0.0,1-Back,1,m,Tue Apr 01 2025 16:27:17 GMT-0500 (Central Daylight Time),398314.7999999821,022_y_f_h_a.png,O,m,1100,17,1,2126.5,396188.2999999821,7115,VNB,C,16
17,test,5,0.0,1-Back,1,m,Tue Apr 01 2025 16:27:17 GMT-0500 (Central Daylight Time),400464.0,014_m_m_d_a.png,O,m,1089,18,1,2118.5999999940395,398345.40000000596,7115,VNB,C,17
0,prac,1,0.0,2-Back,,,Tue Apr 01 2025 16:27:17 GMT-0500 (Central Daylight Time),400464.0,019_m_f_n_a.png,O,space,11107,1,1,2118.5999999940395,398345.40000000596,7115,VNB,C,0
0,prac,1,0.0,2-Back,,,Tue Apr 01 2025 16:27:17 GMT-0500 (Central Daylight Time),400464.0,012_o_f_h_a.png,O,space,11107,2,1,2118.5999999940395,398345.40000000596,7115,VNB,C,0
1,prac,1,0.0,2-Back,1,m,Tue Apr 01 2025 16:27:17 GMT-0500 (Central Daylight Time),520675.0,015_o_m_d_a.png,O,m,1131,3,1,2082.300000011921,518592.6999999881,7115,VNB,C,1
2,prac,1,1.0,2-Back,1,z,Tue Apr 01 2025 16:27:17 GMT-0500 (Central Daylight Time),522724.2999999821,014_m_m_h_a.png,O,z,1096,4,1,2008.699999988079,520715.59999999404,7115,VNB,C,2
3,prac,1,0.0,2-Back,1,m,Tue Apr 01 2025 16:27:17 GMT-0500 (Central Daylight Time),524640.099999994,022_y_f_n_a.png,O,m,922,5,1,1879.199999988079,522760.90000000596,7115,VNB,C,3
4,prac,1,1.0,2-Back,1,z,Tue Apr 01 2025 16:27:17 GMT-0500 (Central Daylight Time),526989.1999999881,015_o_m_h_a.png,O,z,1361,6,1,2312.699999988079,524676.5,7115,VNB,C,4
5,prac,1,1.0,2-Back,1,z,Tue Apr 01 2025 16:27:17 GMT-0500 (Central Daylight Time),529038.5,025_y_m_n_a.png,O,z,1110,7,1,2015.0999999940395,527023.400000006,7115,VNB,C,5
6,prac,1,0.0,2-Back,1,m,Tue Apr 01 2025 16:27:17 GMT-0500 (Central Daylight Time),531103.900000006,019_m_f_d_a.png,O,m,1079,8,1,2036.6000000238419,529067.2999999821,7115,VNB,C,6
7,prac,1,0.0,2-Back,1,m,Tue Apr 01 2025 16:27:17 GMT-0500 (Central Daylight Time),533253.0,012_o_f_d_a.png,O,m,1199,9,1,2133.2000000178814,531119.7999999821,7115,VNB,C,7
8,prac,1,0.0,2-Back,1,m,Tue Apr 01 2025 16:27:17 GMT-0500 (Central Daylight Time),535036.599999994,014_m_m_h_a.png,O,m,863,10,1,1774.699999988079,533261.900000006,7115,VNB,C,8
9,prac,1,1.0,2-Back,1,z,Tue Apr 01 2025 16:27:17 GMT-0500 (Central Daylight Time),537386.099999994,022_y_f_d_a.png,O,z,1375,11,1,2323.5999999940395,535062.5,7115,VNB,C,9
10,prac,1,0.0,2-Back,1,m,Tue Apr 01 2025 16:27:17 GMT-0500 (Central Daylight Time),540218.099999994,015_o_m_n_a.png,O,m,1842,12,1,2792.9000000059605,537425.1999999881,7115,VNB,C,10
0,test,1,0.0,2-Back,,,Tue Apr 01 2025 16:27:17 GMT-0500 (Central Daylight Time),540218.099999994,025_y_m_h_a.png,O,space,11399,1,1,2792.9000000059605,537425.1999999881,7115,VNB,C,0
0,test,1,0.0,2-Back,,,Tue Apr 01 2025 16:27:17 GMT-0500 (Central Daylight Time),540218.099999994,012_o_f_n_a.png,O,space,11399,2,1,2792.9000000059605,537425.1999999881,7115,VNB,C,0
1,test,1,0.0,2-Back,1,z,Tue Apr 01 2025 16:27:17 GMT-0500 (Central Daylight Time),570241.6999999881,015_o_m_h_a.png,O,z,1060,3,1,2069.199999988079,568172.5,7115,VNB,C,1
2,test,1,0.0,2-Back,1,m,Tue Apr 01 2025 16:27:17 GMT-0500 (Central Daylight Time),572407.900000006,019_m_f_d_a.png,O,m,1121,4,1,2136.4000000059605,570271.5,7115,VNB,C,2
3,test,1,1.0,2-Back,1,m,Tue Apr 01 2025 16:27:17 GMT-0500 (Central Daylight Time),574507.0,025_y_m_n_a.png,O,m,1060,5,1,2071.0999999940395,572435.900000006,7115,VNB,C,3
4,test,1,0.0,2-Back,1,z,Tue Apr 01 2025 16:27:17 GMT-0500 (Central Daylight Time),576689.599999994,022_y_f_d_a.png,O,z,1136,6,1,2154.5,574535.099999994,7115,VNB,C,4
5,test,1,0.0,2-Back,1,m,Tue Apr 01 2025 16:27:17 GMT-0500 (Central Daylight Time),578705.6999999881,014_m_m_h_a.png,O,m,959,7,1,1983.199999988079,576722.5,7115,VNB,C,5
6,test,1,1.0,2-Back,1,m,Tue Apr 01 2025 16:27:17 GMT-0500 (Central Daylight Time),581271.1999999881,022_y_f_n_a.png,O,m,1529,8,1,2535.4000000059605,578735.7999999821,7115,VNB,C,6
7,test,1,0.0,2-Back,1,z,Tue Apr 01 2025 16:27:17 GMT-0500 (Central Daylight Time),583354.099999994,012_o_f_h_a.png,O,z,1019,9,1,2054.699999988079,581299.400000006,7115,VNB,C,7
8,test,1,0.0,2-Back,1,m,Tue Apr 01 2025 16:27:17 GMT-0500 (Central Daylight Time),586269.7999999821,015_o_m_d_a.png,O,m,1873,10,1,2886.699999988079,583383.099999994,7115,VNB,C,8
8,test,1,1.0,2-Back,0,m,Tue Apr 01 2025 16:27:17 GMT-0500 (Central Daylight Time),588685.2999999821,014_m_m_d_a.png,O,z,1373,11,1,2387.5999999940395,586297.6999999881,7115,VNB,C,9
9,test,1,0.0,2-Back,1,m,Tue Apr 01 2025 16:27:17 GMT-0500 (Central Daylight Time),590968.1999999881,019_m_f_n_a.png,O,m,1229,12,1,2253.4000000059605,588714.7999999821,7115,VNB,C,10
10,test,1,0.0,2-Back,1,m,Tue Apr 01 2025 16:27:17 GMT-0500 (Central Daylight Time),593084.1999999881,022_y_f_h_a.png,O,m,1067,13,1,2087.699999988079,590996.5,7115,VNB,C,11
11,test,1,0.0,2-Back,1,z,Tue Apr 01 2025 16:27:17 GMT-0500 (Central Daylight Time),595383.400000006,014_m_m_n_a.png,O,z,1262,14,1,2273.5,593109.900000006,7115,VNB,C,12
12,test,1,0.0,2-Back,1,m,Tue Apr 01 2025 16:27:17 GMT-0500 (Central Daylight Time),597451.400000006,025_y_m_d_a.png,O,m,1002,15,1,2038.6000000238419,595412.7999999821,7115,VNB,C,13
13,test,1,1.0,2-Back,1,m,Tue Apr 01 2025 16:27:17 GMT-0500 (Central Daylight Time),600065.1999999881,019_m_f_h_a.png,O,m,1553,16,1,2583.0,597482.1999999881,7115,VNB,C,14
14,test,1,0.0,2-Back,1,z,Tue Apr 01 2025 16:27:17 GMT-0500 (Central Daylight Time),602181.2999999821,012_o_f_d_a.png,O,z,1065,17,1,2084.7999999821186,600096.5,7115,VNB,C,15
15,test,1,0.0,2-Back,1,m,Tue Apr 01 2025 16:27:17 GMT-0500 (Central Daylight Time),604330.400000006,015_o_m_n_a.png,O,m,1102,18,1,2120.2000000178814,602210.1999999881,7115,VNB,C,16
0,test,2,0.0,2-Back,,,Tue Apr 01 2025 16:27:17 GMT-0500 (Central Daylight Time),604330.400000006,014_m_m_h_a.png,O,space,4367,1,1,2120.2000000178814,602210.1999999881,7115,VNB,C,0
0,test,2,0.0,2-Back,,,Tue Apr 01 2025 16:27:17 GMT-0500 (Central Daylight Time),604330.400000006,022_y_f_n_a.png,O,space,4367,2,1,2120.2000000178814,602210.1999999881,7115,VNB,C,0
1,test,2,1.0,2-Back,1,z,Tue Apr 01 2025 16:27:17 GMT-0500 (Central Daylight Time),616243.2999999821,012_o_f_h_a.png,O,z,1158,3,1,2171.0999999940395,614072.1999999881,7115,VNB,C,1
2,test,2,0.0,2-Back,1,m,Tue Apr 01 2025 16:27:17 GMT-0500 (Central Daylight Time),618542.1999999881,015_o_m_d_a.png,O,m,1263,4,1,2274.5,616267.6999999881,7115,VNB,C,2
3,test,2,0.0,2-Back,1,m,Tue Apr 01 2025 16:27:17 GMT-0500 (Central Daylight Time),621191.599999994,019_m_f_d_a.png,O,m,1612,5,1,2624.4000000059605,618567.1999999881,7115,VNB,C,3
4,test,2,0.0,2-Back,1,m,Tue Apr 01 2025 16:27:17 GMT-0500 (Central Daylight Time),623824.1999999881,025_y_m_h_a.png,O,m,1587,6,1,2607.199999988079,621217.0,7115,VNB,C,4
5,test,2,0.0,2-Back,1,m,Tue Apr 01 2025 16:27:17 GMT-0500 (Central Daylight Time),625890.099999994,012_o_f_n_a.png,O,m,1018,7,1,2034.5999999940395,623855.5,7115,VNB,C,5
6,test,2,1.0,2-Back,1,z,Tue Apr 01 2025 16:27:17 GMT-0500 (Central Daylight Time),627956.1999999881,015_o_m_h_a.png,O,z,1017,8,1,2037.2999999821186,625918.900000006,7115,VNB,C,6
7,test,2,0.0,2-Back,1,m,Tue Apr 01 2025 16:27:17 GMT-0500 (Central Daylight Time),630355.2999999821,022_y_f_d_a.png,O,m,1334,9,1,2365.0999999940395,627990.1999999881,7115,VNB,C,7
8,test,2,0.0,2-Back,1,m,Tue Apr 01 2025 16:27:17 GMT-0500 (Central Daylight Time),633038.2999999821,025_y_m_d_a.png,O,m,1633,10,1,2653.0,630385.2999999821,7115,VNB,C,8
9,test,2,0.0,2-Back,1,m,Tue Apr 01 2025 16:27:17 GMT-0500 (Central Daylight Time),635370.5,014_m_m_n_a.png,O,m,1285,11,1,2307.300000011921,633063.1999999881,7115,VNB,C,9
10,test,2,0.0,2-Back,1,m,Tue Apr 01 2025 16:27:17 GMT-0500 (Central Daylight Time),637353.0,019_m_f_h_a.png,O,m,944,12,1,1954.4000000059605,635398.599999994,7115,VNB,C,10
11,test,2,1.0,2-Back,1,z,Tue Apr 01 2025 16:27:17 GMT-0500 (Central Daylight Time),639785.400000006,015_o_m_n_a.png,O,z,1386,13,1,2402.9000000059605,637382.5,7115,VNB,C,11
12,test,2,0.0,2-Back,1,m,Tue Apr 01 2025 16:27:17 GMT-0500 (Central Daylight Time),642101.1999999881,012_o_f_d_a.png,O,m,1275,14,1,2290.699999988079,639810.5,7115,VNB,C,12
13,test,2,0.0,2-Back,1,m,Tue Apr 01 2025 16:27:17 GMT-0500 (Central Daylight Time),644200.6999999881,022_y_f_h_a.png,O,m,1061,15,1,2074.0,642126.6999999881,7115,VNB,C,13
14,test,2,0.0,2-Back,1,z,Tue Apr 01 2025 16:27:17 GMT-0500 (Central Daylight Time),646600.099999994,014_m_m_d_a.png,O,z,1354,16,1,2373.4000000059605,644226.6999999881,7115,VNB,C,14
14,test,2,0.0,2-Back,0,m,Tue Apr 01 2025 16:27:17 GMT-0500 (Central Daylight Time),648949.599999994,025_y_m_n_a.png,O,z,1315,17,1,2320.9000000059605,646628.6999999881,7115,VNB,C,15
14,test,2,1.0,2-Back,0,m,Tue Apr 01 2025 16:27:17 GMT-0500 (Central Daylight Time),651165.7999999821,019_m_f_n_a.png,O,z,1181,18,1,2194.7999999821186,648971.0,7115,VNB,C,16
0,test,3,1.0,2-Back,,,Tue Apr 01 2025 16:27:17 GMT-0500 (Central Daylight Time),651165.7999999821,015_o_m_n_a.png,O,space,1650,1,1,2194.7999999821186,648971.0,7115,VNB,C,0
0,test,3,1.0,2-Back,,,Tue Apr 01 2025 16:27:17 GMT-0500 (Central Daylight Time),651165.7999999821,012_o_f_d_a.png,O,space,1650,2,1,2194.7999999821186,648971.0,7115,VNB,C,0
1,test,3,0.0,2-Back,1,m,Tue Apr 01 2025 16:27:17 GMT-0500 (Central Daylight Time),661245.1999999881,022_y_f_h_a.png,O,m,1956,3,1,2982.0,658263.1999999881,7115,VNB,C,1
2,test,3,0.0,2-Back,1,z,Tue Apr 01 2025 16:27:17 GMT-0500 (Central Daylight Time),663543.400000006,019_m_f_d_a.png,O,z,1261,4,1,2270.600000023842,661272.7999999821,7115,VNB,C,2
3,test,3,1.0,2-Back,1,m,Tue Apr 01 2025 16:27:17 GMT-0500 (Central Daylight Time),665776.6999999881,025_y_m_n_a.png,O,m,1205,5,1,2221.2999999821186,663555.400000006,7115,VNB,C,3
4,test,3,0.0,2-Back,1,m,Tue Apr 01 2025 16:27:17 GMT-0500 (Central Daylight Time),668559.400000006,015_o_m_h_a.png,O,m,1746,6,1,2757.5,665801.900000006,7115,VNB,C,4
5,test,3,0.0,2-Back,1,z,Tue Apr 01 2025 16:27:17 GMT-0500 (Central Daylight Time),670625.400000006,022_y_f_n_a.png,O,z,1031,7,1,2041.800000011921,668583.599999994,7115,VNB,C,5
6,test,3,1.0,2-Back,1,m,Tue Apr 01 2025 16:27:17 GMT-0500 (Central Daylight Time),672624.400000006,014_m_m_d_a.png,O,m,952,8,1,1981.800000011921,670642.599999994,7115,VNB,C,6
7,test,3,0.0,2-Back,1,m,Tue Apr 01 2025 16:27:17 GMT-0500 (Central Daylight Time),674856.5,025_y_m_d_a.png,O,m,1200,9,1,2224.7000000178814,672631.7999999821,7115,VNB,C,7
7,test,3,0.0,2-Back,0,m,Tue Apr 01 2025 16:27:17 GMT-0500 (Central Daylight Time),677889.900000006,012_o_f_h_a.png,O,None,2014,10,1,3028.600000023842,674861.2999999821,7115,VNB,C,8
8,test,3,1.0,2-Back,1,m,Tue Apr 01 2025 16:27:17 GMT-0500 (Central Daylight Time),680055.900000006,019_m_f_n_a.png,O,m,1121,11,1,2138.4000000059605,677917.5,7115,VNB,C,9
8,test,3,1.0,2-Back,0,z,Tue Apr 01 2025 16:27:17 GMT-0500 (Central Daylight Time),682071.1999999881,014_m_m_h_a.png,O,m,979,12,1,1991.5,680079.6999999881,7115,VNB,C,10
9,test,3,0.0,2-Back,1,m,Tue Apr 01 2025 16:27:17 GMT-0500 (Central Daylight Time),684520.7999999821,022_y_f_d_a.png,O,m,1429,13,1,2434.5,682086.2999999821,7115,VNB,C,11
10,test,3,0.0,2-Back,1,m,Tue Apr 01 2025 16:27:17 GMT-0500 (Central Daylight Time),686653.2999999821,012_o_f_n_a.png,O,m,1090,14,1,2109.199999988079,684544.099999994,7115,VNB,C,12
10,test,3,0.0,2-Back,0,z,Tue Apr 01 2025 16:27:17 GMT-0500 (Central Daylight Time),688969.2999999821,015_o_m_d_a.png,O,m,1277,15,1,2293.2999999821186,686676.0,7115,VNB,C,13
10,test,3,1.0,2-Back,0,m,Tue Apr 01 2025 16:27:17 GMT-0500 (Central Daylight Time),691335.1999999881,019_m_f_h_a.png,O,z,1321,16,1,2343.4000000059605,688991.7999999821,7115,VNB,C,14
10,test,3,0.0,2-Back,0,m,Tue Apr 01 2025 16:27:17 GMT-0500 (Central Daylight Time),694151.0,014_m_m_n_a.png,O,z,1771,17,1,2794.0,691357.0,7115,VNB,C,15
10,test,3,0.0,2-Back,0,z,Tue Apr 01 2025 16:27:17 GMT-0500 (Central Daylight Time),696983.400000006,025_y_m_h_a.png,O,m,1787,18,1,2807.4000000059605,694176.0,7115,VNB,C,16
0,test,4,0.0,2-Back,,,Tue Apr 01 2025 16:27:17 GMT-0500 (Central Daylight Time),696983.400000006,019_m_f_n_a.png,O,space,2322,1,1,2807.4000000059605,694176.0,7115,VNB,C,0
0,test,4,0.0,2-Back,,,Tue Apr 01 2025 16:27:17 GMT-0500 (Central Daylight Time),696983.400000006,015_o_m_n_a.png,O,space,2322,2,1,2807.4000000059605,694176.0,7115,VNB,C,0
1,test,4,1.0,2-Back,1,m,Tue Apr 01 2025 16:27:17 GMT-0500 (Central Daylight Time),707230.400000006,025_y_m_h_a.png,O,m,1498,3,1,2510.600000023842,704719.7999999821,7115,VNB,C,1
2,test,4,1.0,2-Back,1,m,Tue Apr 01 2025 16:27:17 GMT-0500 (Central Daylight Time),709429.2999999821,012_o_f_d_a.png,O,m,1145,4,1,2171.7999999821186,707257.5,7115,VNB,C,2
3,test,4,0.0,2-Back,1,z,Tue Apr 01 2025 16:27:17 GMT-0500 (Central Daylight Time),711512.099999994,015_o_m_h_a.png,O,z,1039,5,1,2058.199999988079,709453.900000006,7115,VNB,C,3
4,test,4,0.0,2-Back,1,m,Tue Apr 01 2025 16:27:17 GMT-0500 (Central Daylight Time),713861.0,014_m_m_n_a.png,O,m,1290,6,1,2316.300000011921,711544.6999999881,7115,VNB,C,4
5,test,4,0.0,2-Back,1,m,Tue Apr 01 2025 16:27:17 GMT-0500 (Central Daylight Time),715993.5,019_m_f_d_a.png,O,m,1093,7,1,2105.4000000059605,713888.099999994,7115,VNB,C,5
6,test,4,0.0,2-Back,1,z,Tue Apr 01 2025 16:27:17 GMT-0500 (Central Daylight Time),718342.5,022_y_f_n_a.png,O,z,1305,8,1,2321.800000011921,716020.6999999881,7115,VNB,C,6
7,test,4,1.0,2-Back,1,m,Tue Apr 01 2025 16:27:17 GMT-0500 (Central Daylight Time),720225.599999994,012_o_f_h_a.png,O,m,860,9,1,1868.0999999940395,718357.5,7115,VNB,C,7
8,test,4,0.0,2-Back,1,m,Tue Apr 01 2025 16:27:17 GMT-0500 (Central Daylight Time),722774.7999999821,014_m_m_h_a.png,O,m,1513,10,1,2523.5,720251.2999999821,7115,VNB,C,8
9,test,4,0.0,2-Back,1,m,Tue Apr 01 2025 16:27:17 GMT-0500 (Central Daylight Time),724807.6999999881,022_y_f_d_a.png,O,m,988,11,1,2009.2999999821186,722798.400000006,7115,VNB,C,9
10,test,4,0.0,2-Back,1,m,Tue Apr 01 2025 16:27:17 GMT-0500 (Central Daylight Time),726990.1999999881,025_y_m_n_a.png,O,m,1139,12,1,2153.0999999940395,724837.099999994,7115,VNB,C,10
10,test,4,0.0,2-Back,0,z,Tue Apr 01 2025 16:27:17 GMT-0500 (Central Daylight Time),729156.400000006,015_o_m_d_a.png,O,m,1108,13,1,2125.2000000178814,727031.1999999881,7115,VNB,C,11
11,test,4,1.0,2-Back,1,m,Tue Apr 01 2025 16:27:17 GMT-0500 (Central Daylight Time),731605.599999994,019_m_f_h_a.png,O,m,1398,14,1,2420.4000000059605,729185.1999999881,7115,VNB,C,12
11,test,4,1.0,2-Back,0,m,Tue Apr 01 2025 16:27:17 GMT-0500 (Central Daylight Time),734671.2999999821,022_y_f_h_a.png,O,None,2014,15,1,3035.2999999821186,731636.0,7115,VNB,C,13
11,test,4,0.0,2-Back,0,m,Tue Apr 01 2025 16:27:17 GMT-0500 (Central Daylight Time),737286.400000006,012_o_f_n_a.png,O,z,1578,16,1,2589.600000023842,734696.7999999821,7115,VNB,C,14
12,test,4,0.0,2-Back,1,m,Tue Apr 01 2025 16:27:17 GMT-0500 (Central Daylight Time),739186.400000006,025_y_m_d_a.png,O,m,859,17,1,1873.300000011921,737313.099999994,7115,VNB,C,15
13,test,4,1.0,2-Back,1,m,Tue Apr 01 2025 16:27:17 GMT-0500 (Central Daylight Time),741369.0,014_m_m_d_a.png,O,m,1136,18,1,2156.4000000059605,739212.599999994,7115,VNB,C,16
0,test,5,1.0,2-Back,,,Tue Apr 01 2025 16:27:17 GMT-0500 (Central Daylight Time),741369.0,022_y_f_d_a.png,O,space,1849,1,1,2156.4000000059605,739212.599999994,7115,VNB,C,0
0,test,5,1.0,2-Back,,,Tue Apr 01 2025 16:27:17 GMT-0500 (Central Daylight Time),741369.0,012_o_f_h_a.png,O,space,1849,2,1,2156.4000000059605,739212.599999994,7115,VNB,C,0
1,test,5,1.0,2-Back,1,z,Tue Apr 01 2025 16:27:17 GMT-0500 (Central Daylight Time),750865.6999999881,015_o_m_d_a.png,O,z,1243,3,1,2256.0999999940395,748609.599999994,7115,VNB,C,1
2,test,5,1.0,2-Back,1,m,Tue Apr 01 2025 16:27:17 GMT-0500 (Central Daylight Time),752748.6999999881,019_m_f_n_a.png,O,m,816,4,1,1851.4000000059605,750897.2999999821,7115,VNB,C,2
3,test,5,0.0,2-Back,1,m,Tue Apr 01 2025 16:27:17 GMT-0500 (Central Daylight Time),754981.099999994,014_m_m_h_a.png,O,m,1169,5,1,2197.0,752784.099999994,7115,VNB,C,3
4,test,5,0.0,2-Back,1,z,Tue Apr 01 2025 16:27:17 GMT-0500 (Central Daylight Time),756913.5,022_y_f_n_a.png,O,z,894,6,1,1907.5999999940395,755005.900000006,7115,VNB,C,4
5,test,5,0.0,2-Back,1,m,Tue Apr 01 2025 16:27:17 GMT-0500 (Central Daylight Time),759096.400000006,012_o_f_d_a.png,O,m,1145,7,1,2157.600000023842,756938.7999999821,7115,VNB,C,5
6,test,5,0.0,2-Back,1,m,Tue Apr 01 2025 16:27:17 GMT-0500 (Central Daylight Time),761777.7999999821,015_o_m_h_a.png,O,m,1641,8,1,2652.899999976158,759124.900000006,7115,VNB,C,6
7,test,5,1.0,2-Back,1,z,Tue Apr 01 2025 16:27:17 GMT-0500 (Central Daylight Time),764160.2999999821,019_m_f_d_a.png,O,z,1359,9,1,2378.0999999940395,761782.1999999881,7115,VNB,C,7
8,test,5,0.0,2-Back,1,m,Tue Apr 01 2025 16:27:17 GMT-0500 (Central Daylight Time),766210.400000006,025_y_m_n_a.png,O,m,1018,10,1,2041.300000011921,764169.099999994,7115,VNB,C,8
9,test,5,0.0,2-Back,1,m,Tue Apr 01 2025 16:27:17 GMT-0500 (Central Daylight Time),768809.900000006,014_m_m_n_a.png,O,m,1552,11,1,2572.5,766237.400000006,7115,VNB,C,9
10,test,5,0.0,2-Back,1,m,Tue Apr 01 2025 16:27:17 GMT-0500 (Central Daylight Time),770775.7999999821,022_y_f_h_a.png,O,m,912,12,1,1931.5999999940395,768844.1999999881,7115,VNB,C,10
11,test,5,0.0,2-Back,1,m,Tue Apr 01 2025 16:27:17 GMT-0500 (Central Daylight Time),772942.099999994,025_y_m_d_a.png,O,m,1124,13,1,2142.199999988079,770799.900000006,7115,VNB,C,11
12,test,5,1.0,2-Back,1,z,Tue Apr 01 2025 16:27:17 GMT-0500 (Central Daylight Time),774841.1999999881,019_m_f_h_a.png,O,z,853,14,1,1873.2999999821186,772967.900000006,7115,VNB,C,12
13,test,5,0.0,2-Back,1,m,Tue Apr 01 2025 16:27:17 GMT-0500 (Central Daylight Time),777374.0,015_o_m_n_a.png,O,m,1481,15,1,2502.5999999940395,774871.400000006,7115,VNB,C,13
14,test,5,0.0,2-Back,1,m,Tue Apr 01 2025 16:27:17 GMT-0500 (Central Daylight Time),779656.2999999821,014_m_m_d_a.png,O,m,1245,16,1,2259.699999988079,777396.599999994,7115,VNB,C,14
15,test,5,0.0,2-Back,1,z,Tue Apr 01 2025 16:27:17 GMT-0500 (Central Daylight Time),781972.1999999881,012_o_f_n_a.png,O,z,1274,17,1,2292.0999999940395,779680.099999994,7115,VNB,C,15
16,test,5,1.0,2-Back,1,m,Tue Apr 01 2025 16:27:17 GMT-0500 (Central Daylight Time),783904.900000006,025_y_m_h_a.png,O,m,886,18,1,1907.1000000238419,781997.7999999821,7115,VNB,C,16
