acc_sum,block,block_c,change,condition,correct,correct_response,datetime,endtime,face,project,response,response_time,row_sel,session_number,start_end,starttime,subject_id,task,task_vers,trial
0,prac,1,,1-Back,,,Mon Mar 31 2025 10:20:18 GMT-0400 (Eastern Daylight Time),,050_m_f_n_a.png,I,space,11794,1,1,,,9013,NNB,A,0
1,prac,1,0.0,1-Back,1,m,Mon Mar 31 2025 10:20:18 GMT-0400 (Eastern Daylight Time),123860.40000009537,063_y_f_n_a.png,I,m,730,2,1,1632.5,122227.90000009537,9013,NNB,A,1
1,prac,1,1.0,1-Back,0,z,Mon Mar 31 2025 10:20:18 GMT-0400 (Eastern Daylight Time),125876.7999997139,063_y_f_n_a.png,I,m,1234,3,1,2002.0,123874.7999997139,9013,NNB,A,2
2,prac,1,0.0,1-Back,1,m,Mon Mar 31 2025 10:20:18 GMT-0400 (Eastern Daylight Time),127877.0,053_o_m_n_a.png,I,m,1094,4,1,1985.9000000953674,125891.09999990463,9013,NNB,A,3
2,prac,1,0.0,1-Back,0,m,Mon Mar 31 2025 10:20:18 GMT-0400 (Eastern Daylight Time),129410.0,058_m_m_n_a.png,I,z,674,5,1,1514.0,127896.0,9013,NNB,A,4
2,prac,1,1.0,1-Back,0,z,Mon Mar 31 2025 10:20:18 GMT-0400 (Eastern Daylight Time),130993.0,058_m_m_n_a.png,I,m,789,6,1,1568.9000000953674,129424.09999990463,9013,NNB,A,5
3,prac,1,0.0,1-Back,1,m,Mon Mar 31 2025 10:20:18 GMT-0400 (Eastern Daylight Time),133276.69999980927,047_o_f_n_a.png,I,m,1304,7,1,2272.0,131004.69999980927,9013,NNB,A,6
4,prac,1,0.0,1-Back,1,m,Mon Mar 31 2025 10:20:18 GMT-0400 (Eastern Daylight Time),135376.90000009537,045_m_m_n_a.png,I,m,1261,8,1,2080.9000000953674,133296.0,9013,NNB,A,7
5,prac,1,0.0,1-Back,1,m,Mon Mar 31 2025 10:20:18 GMT-0400 (Eastern Daylight Time),136826.19999980927,050_m_f_n_a.png,I,m,662,9,1,1435.5,135390.69999980927,9013,NNB,A,8
6,prac,1,1.0,1-Back,1,z,Mon Mar 31 2025 10:20:18 GMT-0400 (Eastern Daylight Time),138310.0,050_m_f_n_a.png,I,z,703,10,1,1473.0,136837.0,9013,NNB,A,9
7,prac,1,0.0,1-Back,1,m,Mon Mar 31 2025 10:20:18 GMT-0400 (Eastern Daylight Time),139926.69999980927,053_o_m_n_a.png,I,m,832,11,1,1602.5999999046326,138324.09999990463,9013,NNB,A,10
8,prac,1,0.0,1-Back,1,m,Mon Mar 31 2025 10:20:18 GMT-0400 (Eastern Daylight Time),141543.59999990463,010_y_f_n_a.png,I,m,746,12,1,1602.6999998092651,139940.90000009537,9013,NNB,A,11
0,test,1,0.0,1-Back,,,Mon Mar 31 2025 10:20:18 GMT-0400 (Eastern Daylight Time),141543.59999990463,063_y_f_n_a.png,I,space,12533,1,1,1602.6999998092651,139940.90000009537,9013,NNB,A,0
1,test,1,0.0,1-Back,1,m,Mon Mar 31 2025 10:20:18 GMT-0400 (Eastern Daylight Time),165143.19999980927,043_m_f_n_a.png,I,m,764,2,1,1771.5,163371.69999980927,9013,NNB,A,1
2,test,1,0.0,1-Back,1,m,Mon Mar 31 2025 10:20:18 GMT-0400 (Eastern Daylight Time),167043.40000009537,010_y_f_n_a.png,I,m,869,3,1,1885.8000001907349,165157.59999990463,9013,NNB,A,2
3,test,1,1.0,1-Back,1,z,Mon Mar 31 2025 10:20:18 GMT-0400 (Eastern Daylight Time),168993.09999990463,010_y_f_n_a.png,I,z,921,4,1,1936.5,167056.59999990463,9013,NNB,A,3
4,test,1,0.0,1-Back,1,m,Mon Mar 31 2025 10:20:18 GMT-0400 (Eastern Daylight Time),170893.40000009537,043_m_f_n_a.png,I,m,875,5,1,1887.8000001907349,169005.59999990463,9013,NNB,A,4
5,test,1,0.0,1-Back,1,m,Mon Mar 31 2025 10:20:18 GMT-0400 (Eastern Daylight Time),172676.5,053_o_m_n_a.png,I,m,751,6,1,1771.0,170905.5,9013,NNB,A,5
6,test,1,1.0,1-Back,1,z,Mon Mar 31 2025 10:20:18 GMT-0400 (Eastern Daylight Time),174459.90000009537,053_o_m_n_a.png,I,z,759,7,1,1771.1000003814697,172688.7999997139,9013,NNB,A,6
7,test,1,0.0,1-Back,1,m,Mon Mar 31 2025 10:20:18 GMT-0400 (Eastern Daylight Time),176193.2999997139,058_m_m_n_a.png,I,m,704,8,1,1720.8999996185303,174472.40000009537,9013,NNB,A,7
8,test,1,0.0,1-Back,1,m,Mon Mar 31 2025 10:20:18 GMT-0400 (Eastern Daylight Time),177993.19999980927,047_o_f_n_a.png,I,m,779,9,1,1788.0,176205.19999980927,9013,NNB,A,8
9,test,1,0.0,1-Back,1,m,Mon Mar 31 2025 10:20:18 GMT-0400 (Eastern Daylight Time),179910.09999990463,058_m_m_n_a.png,I,m,899,10,1,1904.5999999046326,178005.5,9013,NNB,A,9
10,test,1,0.0,1-Back,1,m,Mon Mar 31 2025 10:20:18 GMT-0400 (Eastern Daylight Time),181726.69999980927,041_y_m_n_a.png,I,m,790,11,1,1803.7999997138977,179922.90000009537,9013,NNB,A,10
11,test,1,1.0,1-Back,1,z,Mon Mar 31 2025 10:20:18 GMT-0400 (Eastern Daylight Time),183426.59999990463,041_y_m_n_a.png,I,z,670,12,1,1687.5,181739.09999990463,9013,NNB,A,11
12,test,1,0.0,1-Back,1,m,Mon Mar 31 2025 10:20:18 GMT-0400 (Eastern Daylight Time),185360.09999990463,044_o_f_n_a.png,I,m,905,13,1,1921.1999998092651,183438.90000009537,9013,NNB,A,12
13,test,1,1.0,1-Back,1,z,Mon Mar 31 2025 10:20:18 GMT-0400 (Eastern Daylight Time),187110.2999997139,044_o_f_n_a.png,I,z,732,14,1,1737.8999996185303,185372.40000009537,9013,NNB,A,13
14,test,1,0.0,1-Back,1,m,Mon Mar 31 2025 10:20:18 GMT-0400 (Eastern Daylight Time),188876.59999990463,008_y_m_n_a.png,I,m,743,15,1,1754.8000001907349,187121.7999997139,9013,NNB,A,14
15,test,1,0.0,1-Back,1,m,Mon Mar 31 2025 10:20:18 GMT-0400 (Eastern Daylight Time),190676.59999990463,050_m_f_n_a.png,I,m,767,16,1,1787.3000001907349,188889.2999997139,9013,NNB,A,15
16,test,1,0.0,1-Back,1,m,Mon Mar 31 2025 10:20:18 GMT-0400 (Eastern Daylight Time),192476.5,046_o_m_n_a.png,I,m,775,17,1,1788.0999999046326,190688.40000009537,9013,NNB,A,16
17,test,1,0.0,1-Back,1,m,Mon Mar 31 2025 10:20:18 GMT-0400 (Eastern Daylight Time),194326.59999990463,050_m_f_n_a.png,I,m,831,18,1,1836.6999998092651,192489.90000009537,9013,NNB,A,17
0,test,2,0.0,1-Back,,,Mon Mar 31 2025 10:20:18 GMT-0400 (Eastern Daylight Time),194326.59999990463,058_m_m_n_a.png,I,space,2238,1,1,1836.6999998092651,192489.90000009537,9013,NNB,A,0
1,test,2,0.0,1-Back,1,m,Mon Mar 31 2025 10:20:18 GMT-0400 (Eastern Daylight Time),201293.2999997139,043_m_f_n_a.png,I,m,1675,2,1,2687.5999999046326,198605.69999980927,9013,NNB,A,1
2,test,2,1.0,1-Back,1,z,Mon Mar 31 2025 10:20:18 GMT-0400 (Eastern Daylight Time),203060.2999997139,043_m_f_n_a.png,I,z,735,3,1,1754.2999997138977,201306.0,9013,NNB,A,2
3,test,2,0.0,1-Back,1,m,Mon Mar 31 2025 10:20:18 GMT-0400 (Eastern Daylight Time),204859.90000009537,058_m_m_n_a.png,I,m,776,4,1,1789.0,203070.90000009537,9013,NNB,A,3
3,test,2,0.0,1-Back,0,m,Mon Mar 31 2025 10:20:18 GMT-0400 (Eastern Daylight Time),206543.0,041_y_m_n_a.png,I,z,656,5,1,1670.5999999046326,204872.40000009537,9013,NNB,A,4
4,test,2,0.0,1-Back,1,m,Mon Mar 31 2025 10:20:18 GMT-0400 (Eastern Daylight Time),208493.19999980927,063_y_f_n_a.png,I,m,925,6,1,1938.4000000953674,206554.7999997139,9013,NNB,A,5
5,test,2,1.0,1-Back,1,z,Mon Mar 31 2025 10:20:18 GMT-0400 (Eastern Daylight Time),210393.2999997139,063_y_f_n_a.png,I,z,879,7,1,1887.2999997138977,208506.0,9013,NNB,A,6
6,test,2,0.0,1-Back,1,m,Mon Mar 31 2025 10:20:18 GMT-0400 (Eastern Daylight Time),212310.19999980927,041_y_m_n_a.png,I,m,899,8,1,1904.9000000953674,210405.2999997139,9013,NNB,A,7
7,test,2,0.0,1-Back,1,m,Mon Mar 31 2025 10:20:18 GMT-0400 (Eastern Daylight Time),214193.19999980927,044_o_f_n_a.png,I,m,853,9,1,1870.5,212322.69999980927,9013,NNB,A,8
8,test,2,0.0,1-Back,1,m,Mon Mar 31 2025 10:20:18 GMT-0400 (Eastern Daylight Time),216026.5,045_m_m_n_a.png,I,m,811,10,1,1821.3000001907349,214205.19999980927,9013,NNB,A,9
9,test,2,1.0,1-Back,1,z,Mon Mar 31 2025 10:20:18 GMT-0400 (Eastern Daylight Time),217859.90000009537,045_m_m_n_a.png,I,z,801,11,1,1820.8000001907349,216039.09999990463,9013,NNB,A,10
10,test,2,0.0,1-Back,1,m,Mon Mar 31 2025 10:20:18 GMT-0400 (Eastern Daylight Time),219743.19999980927,044_o_f_n_a.png,I,m,856,12,1,1871.1999998092651,217872.0,9013,NNB,A,11
11,test,2,0.0,1-Back,1,m,Mon Mar 31 2025 10:20:18 GMT-0400 (Eastern Daylight Time),221576.59999990463,047_o_f_n_a.png,I,m,813,13,1,1820.8000001907349,219755.7999997139,9013,NNB,A,12
12,test,2,0.0,1-Back,1,m,Mon Mar 31 2025 10:20:18 GMT-0400 (Eastern Daylight Time),223542.90000009537,053_o_m_n_a.png,I,m,948,14,1,1953.0,221589.90000009537,9013,NNB,A,13
13,test,2,0.0,1-Back,1,m,Mon Mar 31 2025 10:20:18 GMT-0400 (Eastern Daylight Time),225326.5,046_o_m_n_a.png,I,m,757,15,1,1771.4000000953674,223555.09999990463,9013,NNB,A,14
14,test,2,1.0,1-Back,1,z,Mon Mar 31 2025 10:20:18 GMT-0400 (Eastern Daylight Time),227109.90000009537,046_o_m_n_a.png,I,z,750,16,1,1771.3000001907349,225338.59999990463,9013,NNB,A,15
15,test,2,0.0,1-Back,1,m,Mon Mar 31 2025 10:20:18 GMT-0400 (Eastern Daylight Time),228959.59999990463,008_y_m_n_a.png,I,m,822,17,1,1836.5999999046326,227123.0,9013,NNB,A,16
16,test,2,1.0,1-Back,1,z,Mon Mar 31 2025 10:20:18 GMT-0400 (Eastern Daylight Time),231109.90000009537,008_y_m_n_a.png,I,z,1131,18,1,2138.2000002861023,228971.69999980927,9013,NNB,A,17
0,test,3,1.0,1-Back,,,Mon Mar 31 2025 10:20:18 GMT-0400 (Eastern Daylight Time),231109.90000009537,010_y_f_n_a.png,I,space,9974,1,1,2138.2000002861023,228971.69999980927,9013,NNB,A,0
1,test,3,0.0,1-Back,1,m,Mon Mar 31 2025 10:20:18 GMT-0400 (Eastern Daylight Time),245059.19999980927,046_o_m_n_a.png,I,m,818,2,1,1837.9000000953674,243221.2999997139,9013,NNB,A,1
2,test,3,1.0,1-Back,1,z,Mon Mar 31 2025 10:20:18 GMT-0400 (Eastern Daylight Time),247009.40000009537,046_o_m_n_a.png,I,z,920,3,1,1939.9000000953674,245069.5,9013,NNB,A,2
3,test,3,0.0,1-Back,1,m,Mon Mar 31 2025 10:20:18 GMT-0400 (Eastern Daylight Time),248826.59999990463,050_m_f_n_a.png,I,m,795,4,1,1807.5999999046326,247019.0,9013,NNB,A,3
4,test,3,1.0,1-Back,1,z,Mon Mar 31 2025 10:20:18 GMT-0400 (Eastern Daylight Time),250726.2999997139,050_m_f_n_a.png,I,z,882,5,1,1887.1999998092651,248839.09999990463,9013,NNB,A,4
5,test,3,0.0,1-Back,1,m,Mon Mar 31 2025 10:20:18 GMT-0400 (Eastern Daylight Time),252543.09999990463,044_o_f_n_a.png,I,m,790,6,1,1805.6999998092651,250737.40000009537,9013,NNB,A,5
6,test,3,0.0,1-Back,1,m,Mon Mar 31 2025 10:20:18 GMT-0400 (Eastern Daylight Time),254493.2999997139,041_y_m_n_a.png,I,m,924,7,1,1936.7999997138977,252556.5,9013,NNB,A,6
7,test,3,0.0,1-Back,1,m,Mon Mar 31 2025 10:20:18 GMT-0400 (Eastern Daylight Time),256526.09999990463,044_o_f_n_a.png,I,m,1006,8,1,2020.3000001907349,254505.7999997139,9013,NNB,A,7
8,test,3,0.0,1-Back,1,m,Mon Mar 31 2025 10:20:18 GMT-0400 (Eastern Daylight Time),258259.7999997139,008_y_m_n_a.png,I,m,701,9,1,1722.7999997138977,256537.0,9013,NNB,A,8
9,test,3,1.0,1-Back,1,z,Mon Mar 31 2025 10:20:18 GMT-0400 (Eastern Daylight Time),260009.90000009537,008_y_m_n_a.png,I,z,711,10,1,1734.0,258275.90000009537,9013,NNB,A,9
10,test,3,0.0,1-Back,1,m,Mon Mar 31 2025 10:20:18 GMT-0400 (Eastern Daylight Time),261909.59999990463,043_m_f_n_a.png,I,m,850,11,1,1884.9000000953674,260024.69999980927,9013,NNB,A,10
11,test,3,0.0,1-Back,1,m,Mon Mar 31 2025 10:20:18 GMT-0400 (Eastern Daylight Time),264109.90000009537,063_y_f_n_a.png,I,m,1174,12,1,2185.9000000953674,261924.0,9013,NNB,A,11
12,test,3,1.0,1-Back,1,z,Mon Mar 31 2025 10:20:18 GMT-0400 (Eastern Daylight Time),265826.69999980927,063_y_f_n_a.png,I,z,685,13,1,1703.5999999046326,264123.09999990463,9013,NNB,A,12
13,test,3,0.0,1-Back,1,m,Mon Mar 31 2025 10:20:18 GMT-0400 (Eastern Daylight Time),267776.2999997139,043_m_f_n_a.png,I,m,920,14,1,1936.8999996185303,265839.40000009537,9013,NNB,A,13
14,test,3,0.0,1-Back,1,m,Mon Mar 31 2025 10:20:18 GMT-0400 (Eastern Daylight Time),269843.0,058_m_m_n_a.png,I,m,1035,15,1,2057.9000000953674,267785.09999990463,9013,NNB,A,14
15,test,3,1.0,1-Back,1,z,Mon Mar 31 2025 10:20:18 GMT-0400 (Eastern Daylight Time),271559.7999997139,058_m_m_n_a.png,I,z,697,16,1,1704.0,269855.7999997139,9013,NNB,A,15
16,test,3,0.0,1-Back,1,m,Mon Mar 31 2025 10:20:18 GMT-0400 (Eastern Daylight Time),273276.40000009537,047_o_f_n_a.png,I,m,692,17,1,1703.0,271573.40000009537,9013,NNB,A,16
17,test,3,1.0,1-Back,1,z,Mon Mar 31 2025 10:20:18 GMT-0400 (Eastern Daylight Time),275176.40000009537,047_o_f_n_a.png,I,z,880,18,1,1887.8000001907349,273288.59999990463,9013,NNB,A,17
0,test,4,1.0,1-Back,,,Mon Mar 31 2025 10:20:18 GMT-0400 (Eastern Daylight Time),275176.40000009537,050_m_f_n_a.png,I,space,1939,1,1,1887.8000001907349,273288.59999990463,9013,NNB,A,0
1,test,4,0.0,1-Back,1,m,Mon Mar 31 2025 10:20:18 GMT-0400 (Eastern Daylight Time),280926.40000009537,046_o_m_n_a.png,I,m,756,2,1,1772.4000000953674,279154.0,9013,NNB,A,1
2,test,4,0.0,1-Back,1,m,Mon Mar 31 2025 10:20:18 GMT-0400 (Eastern Daylight Time),282809.5,050_m_f_n_a.png,I,m,860,3,1,1869.3000001907349,280940.19999980927,9013,NNB,A,2
3,test,4,0.0,1-Back,1,m,Mon Mar 31 2025 10:20:18 GMT-0400 (Eastern Daylight Time),284476.5,044_o_f_n_a.png,I,m,643,4,1,1655.0,282821.5,9013,NNB,A,3
4,test,4,1.0,1-Back,1,z,Mon Mar 31 2025 10:20:18 GMT-0400 (Eastern Daylight Time),286193.19999980927,044_o_f_n_a.png,I,z,688,5,1,1704.5,284488.69999980927,9013,NNB,A,4
5,test,4,0.0,1-Back,1,m,Mon Mar 31 2025 10:20:18 GMT-0400 (Eastern Daylight Time),287876.69999980927,063_y_f_n_a.png,I,m,650,6,1,1669.5,286207.19999980927,9013,NNB,A,5
6,test,4,0.0,1-Back,1,m,Mon Mar 31 2025 10:20:18 GMT-0400 (Eastern Daylight Time),289793.0,041_y_m_n_a.png,I,m,887,7,1,1904.3000001907349,287888.69999980927,9013,NNB,A,6
7,test,4,1.0,1-Back,1,z,Mon Mar 31 2025 10:20:18 GMT-0400 (Eastern Daylight Time),291542.90000009537,041_y_m_n_a.png,I,z,730,8,1,1736.8000001907349,289806.09999990463,9013,NNB,A,7
8,test,4,0.0,1-Back,1,m,Mon Mar 31 2025 10:20:18 GMT-0400 (Eastern Daylight Time),293259.7999997139,063_y_f_n_a.png,I,m,692,9,1,1703.0999999046326,291556.69999980927,9013,NNB,A,8
9,test,4,0.0,1-Back,1,m,Mon Mar 31 2025 10:20:18 GMT-0400 (Eastern Daylight Time),295026.40000009537,045_m_m_n_a.png,I,m,735,10,1,1754.7000002861023,293271.69999980927,9013,NNB,A,9
10,test,4,1.0,1-Back,1,z,Mon Mar 31 2025 10:20:18 GMT-0400 (Eastern Daylight Time),296776.40000009537,045_m_m_n_a.png,I,z,730,11,1,1737.3000001907349,295039.09999990463,9013,NNB,A,10
11,test,4,0.0,1-Back,1,m,Mon Mar 31 2025 10:20:18 GMT-0400 (Eastern Daylight Time),298460.0,047_o_f_n_a.png,I,m,660,12,1,1670.7000002861023,296789.2999997139,9013,NNB,A,11
12,test,4,0.0,1-Back,1,m,Mon Mar 31 2025 10:20:18 GMT-0400 (Eastern Daylight Time),300093.09999990463,053_o_m_n_a.png,I,m,608,13,1,1619.5,298473.59999990463,9013,NNB,A,12
13,test,4,0.0,1-Back,1,m,Mon Mar 31 2025 10:20:18 GMT-0400 (Eastern Daylight Time),301926.09999990463,047_o_f_n_a.png,I,m,810,14,1,1821.0,300105.09999990463,9013,NNB,A,13
14,test,4,0.0,1-Back,1,m,Mon Mar 31 2025 10:20:18 GMT-0400 (Eastern Daylight Time),303676.40000009537,010_y_f_n_a.png,I,m,726,15,1,1738.7000002861023,301937.69999980927,9013,NNB,A,14
15,test,4,1.0,1-Back,1,z,Mon Mar 31 2025 10:20:18 GMT-0400 (Eastern Daylight Time),305326.5,010_y_f_n_a.png,I,z,623,16,1,1637.2000002861023,303689.2999997139,9013,NNB,A,15
16,test,4,0.0,1-Back,1,m,Mon Mar 31 2025 10:20:18 GMT-0400 (Eastern Daylight Time),306959.09999990463,043_m_f_n_a.png,I,m,606,17,1,1620.6999998092651,305338.40000009537,9013,NNB,A,16
17,test,4,1.0,1-Back,1,z,Mon Mar 31 2025 10:20:18 GMT-0400 (Eastern Daylight Time),308759.2999997139,043_m_f_n_a.png,I,z,780,18,1,1790.3999996185303,306968.90000009537,9013,NNB,A,17
0,test,5,1.0,1-Back,,,Mon Mar 31 2025 10:20:18 GMT-0400 (Eastern Daylight Time),308759.2999997139,053_o_m_n_a.png,I,space,1989,1,1,1790.3999996185303,306968.90000009537,9013,NNB,A,0
1,test,5,1.0,1-Back,1,z,Mon Mar 31 2025 10:20:18 GMT-0400 (Eastern Daylight Time),314459.59999990463,053_o_m_n_a.png,I,z,659,2,1,1670.3000001907349,312789.2999997139,9013,NNB,A,1
2,test,5,0.0,1-Back,1,m,Mon Mar 31 2025 10:20:18 GMT-0400 (Eastern Daylight Time),316176.40000009537,063_y_f_n_a.png,I,m,688,3,1,1704.3000001907349,314472.09999990463,9013,NNB,A,2
3,test,5,0.0,1-Back,1,m,Mon Mar 31 2025 10:20:18 GMT-0400 (Eastern Daylight Time),317926.2999997139,041_y_m_n_a.png,I,m,732,4,1,1737.7999997138977,316188.5,9013,NNB,A,3
4,test,5,0.0,1-Back,1,m,Mon Mar 31 2025 10:20:18 GMT-0400 (Eastern Daylight Time),319643.09999990463,063_y_f_n_a.png,I,m,693,5,1,1704.6999998092651,317938.40000009537,9013,NNB,A,4
5,test,5,0.0,1-Back,1,m,Mon Mar 31 2025 10:20:18 GMT-0400 (Eastern Daylight Time),321309.69999980927,058_m_m_n_a.png,I,m,640,6,1,1654.0,319655.69999980927,9013,NNB,A,5
6,test,5,1.0,1-Back,1,z,Mon Mar 31 2025 10:20:18 GMT-0400 (Eastern Daylight Time),322993.09999990463,058_m_m_n_a.png,I,z,654,7,1,1669.5999999046326,321323.5,9013,NNB,A,6
7,test,5,0.0,1-Back,1,m,Mon Mar 31 2025 10:20:18 GMT-0400 (Eastern Daylight Time),324593.09999990463,010_y_f_n_a.png,I,m,570,8,1,1587.5,323005.59999990463,9013,NNB,A,7
8,test,5,0.0,1-Back,1,m,Mon Mar 31 2025 10:20:18 GMT-0400 (Eastern Daylight Time),326259.59999990463,008_y_m_n_a.png,I,m,634,9,1,1653.3000001907349,324606.2999997139,9013,NNB,A,8
9,test,5,0.0,1-Back,1,m,Mon Mar 31 2025 10:20:18 GMT-0400 (Eastern Daylight Time),327876.2999997139,010_y_f_n_a.png,I,m,584,10,1,1604.5999999046326,326271.69999980927,9013,NNB,A,9
10,test,5,0.0,1-Back,1,m,Mon Mar 31 2025 10:20:18 GMT-0400 (Eastern Daylight Time),329509.69999980927,047_o_f_n_a.png,I,m,600,11,1,1620.1999998092651,327889.5,9013,NNB,A,10
11,test,5,1.0,1-Back,1,z,Mon Mar 31 2025 10:20:18 GMT-0400 (Eastern Daylight Time),331142.69999980927,047_o_f_n_a.png,I,z,613,12,1,1619.9000000953674,329522.7999997139,9013,NNB,A,11
12,test,5,0.0,1-Back,1,m,Mon Mar 31 2025 10:20:18 GMT-0400 (Eastern Daylight Time),332743.0,046_o_m_n_a.png,I,m,580,13,1,1587.5,331155.5,9013,NNB,A,12
13,test,5,0.0,1-Back,1,m,Mon Mar 31 2025 10:20:18 GMT-0400 (Eastern Daylight Time),334376.0,050_m_f_n_a.png,I,m,612,14,1,1620.7000002861023,332755.2999997139,9013,NNB,A,13
14,test,5,1.0,1-Back,1,z,Mon Mar 31 2025 10:20:18 GMT-0400 (Eastern Daylight Time),336043.09999990463,050_m_f_n_a.png,I,z,643,15,1,1655.0999999046326,334388.0,9013,NNB,A,14
15,test,5,0.0,1-Back,1,m,Mon Mar 31 2025 10:20:18 GMT-0400 (Eastern Daylight Time),337643.09999990463,046_o_m_n_a.png,I,m,576,16,1,1587.8000001907349,336055.2999997139,9013,NNB,A,15
16,test,5,0.0,1-Back,1,m,Mon Mar 31 2025 10:20:18 GMT-0400 (Eastern Daylight Time),339359.59999990463,043_m_f_n_a.png,I,m,688,17,1,1703.5,337656.09999990463,9013,NNB,A,16
17,test,5,0.0,1-Back,1,m,Mon Mar 31 2025 10:20:18 GMT-0400 (Eastern Daylight Time),340959.69999980927,045_m_m_n_a.png,I,m,573,18,1,1587.7999997138977,339371.90000009537,9013,NNB,A,17
0,prac,1,0.0,2-Back,,,Mon Mar 31 2025 10:20:18 GMT-0400 (Eastern Daylight Time),340959.69999980927,008_y_m_n_a.png,I,space,8263,1,1,1587.7999997138977,339371.90000009537,9013,NNB,A,0
0,prac,1,0.0,2-Back,,,Mon Mar 31 2025 10:20:18 GMT-0400 (Eastern Daylight Time),340959.69999980927,043_m_f_n_a.png,I,space,8263,2,1,1587.7999997138977,339371.90000009537,9013,NNB,A,0
1,prac,1,1.0,2-Back,1,m,Mon Mar 31 2025 10:20:18 GMT-0400 (Eastern Daylight Time),471742.5,046_o_m_n_a.png,I,m,1511,3,1,2385.300000190735,469357.19999980927,9013,NNB,A,1
2,prac,1,0.0,2-Back,1,m,Mon Mar 31 2025 10:20:18 GMT-0400 (Eastern Daylight Time),473743.09999990463,047_o_f_n_a.png,I,m,1065,4,1,1986.0999999046326,471757.0,9013,NNB,A,2
3,prac,1,0.0,2-Back,1,z,Mon Mar 31 2025 10:20:18 GMT-0400 (Eastern Daylight Time),475293.0,046_o_m_n_a.png,I,z,760,5,1,1535.5999999046326,473757.40000009537,9013,NNB,A,3
4,prac,1,1.0,2-Back,1,z,Mon Mar 31 2025 10:20:18 GMT-0400 (Eastern Daylight Time),477792.69999980927,047_o_f_n_a.png,I,z,1703,6,1,2483.5999999046326,475309.09999990463,9013,NNB,A,4
4,prac,1,0.0,2-Back,0,m,Mon Mar 31 2025 10:20:18 GMT-0400 (Eastern Daylight Time),480642.7999997139,045_m_m_n_a.png,I,None,2011,7,1,2832.199999809265,477810.59999990463,9013,NNB,A,5
4,prac,1,0.0,2-Back,0,m,Mon Mar 31 2025 10:20:18 GMT-0400 (Eastern Daylight Time),483476.0,053_o_m_n_a.png,I,None,2007,8,1,2817.5999999046326,480658.40000009537,9013,NNB,A,6
4,prac,1,0.0,2-Back,0,m,Mon Mar 31 2025 10:20:18 GMT-0400 (Eastern Daylight Time),486359.2999997139,010_y_f_n_a.png,I,None,2016,9,1,2868.5,483490.7999997139,9013,NNB,A,7
4,prac,1,1.0,2-Back,0,z,Mon Mar 31 2025 10:20:18 GMT-0400 (Eastern Daylight Time),489142.69999980927,053_o_m_n_a.png,I,None,2003,10,1,2770.199999809265,486372.5,9013,NNB,A,8
4,prac,1,0.0,2-Back,0,m,Mon Mar 31 2025 10:20:18 GMT-0400 (Eastern Daylight Time),492042.69999980927,063_y_f_n_a.png,I,None,2007,11,1,2886.2999997138977,489156.40000009537,9013,NNB,A,9
5,prac,1,0.0,2-Back,1,m,Mon Mar 31 2025 10:20:18 GMT-0400 (Eastern Daylight Time),493826.0,045_m_m_n_a.png,I,m,985,12,1,1766.9000000953674,492059.09999990463,9013,NNB,A,10
0,prac,2,0.0,2-Back,,,Mon Mar 31 2025 10:20:18 GMT-0400 (Eastern Daylight Time),493826.0,008_y_m_n_a.png,I,a,19273,1,1,1766.9000000953674,492059.09999990463,9013,NNB,A,0
0,prac,2,0.0,2-Back,,,Mon Mar 31 2025 10:20:18 GMT-0400 (Eastern Daylight Time),493826.0,043_m_f_n_a.png,I,a,19273,2,1,1766.9000000953674,492059.09999990463,9013,NNB,A,0
1,prac,2,1.0,2-Back,1,m,Mon Mar 31 2025 10:20:18 GMT-0400 (Eastern Daylight Time),520392.7999997139,046_o_m_n_a.png,I,m,1271,3,1,2085.2999997138977,518307.5,9013,NNB,A,1
1,prac,2,0.0,2-Back,0,m,Mon Mar 31 2025 10:20:18 GMT-0400 (Eastern Daylight Time),523175.69999980927,047_o_f_n_a.png,I,None,2001,4,1,2768.5999999046326,520407.09999990463,9013,NNB,A,2
1,prac,2,0.0,2-Back,0,z,Mon Mar 31 2025 10:20:18 GMT-0400 (Eastern Daylight Time),525876.1999998093,046_o_m_n_a.png,I,m,1900,5,1,2684.199999809265,523192.0,9013,NNB,A,3
1,prac,2,1.0,2-Back,0,z,Mon Mar 31 2025 10:20:18 GMT-0400 (Eastern Daylight Time),528676.0,047_o_f_n_a.png,I,None,2014,6,1,2781.5999999046326,525894.4000000954,9013,NNB,A,4
2,prac,2,0.0,2-Back,1,m,Mon Mar 31 2025 10:20:18 GMT-0400 (Eastern Daylight Time),531042.7999997139,045_m_m_n_a.png,I,m,1569,7,1,2351.5,528691.2999997139,9013,NNB,A,5
3,prac,2,0.0,2-Back,1,m,Mon Mar 31 2025 10:20:18 GMT-0400 (Eastern Daylight Time),533276.0,053_o_m_n_a.png,I,m,1443,8,1,2218.5,531057.5,9013,NNB,A,6
4,prac,2,0.0,2-Back,1,m,Mon Mar 31 2025 10:20:18 GMT-0400 (Eastern Daylight Time),535092.7999997139,010_y_f_n_a.png,I,m,1031,9,1,1799.2999997138977,533293.5,9013,NNB,A,7
4,prac,2,1.0,2-Back,0,z,Mon Mar 31 2025 10:20:18 GMT-0400 (Eastern Daylight Time),537875.7999997139,053_o_m_n_a.png,I,None,2001,10,1,2768.0,535107.7999997139,9013,NNB,A,8
5,prac,2,0.0,2-Back,1,m,Mon Mar 31 2025 10:20:18 GMT-0400 (Eastern Daylight Time),539842.7999997139,063_y_f_n_a.png,I,m,1105,11,1,1952.7999997138977,537890.0,9013,NNB,A,9
5,prac,2,0.0,2-Back,0,m,Mon Mar 31 2025 10:20:18 GMT-0400 (Eastern Daylight Time),541459.7999997139,045_m_m_n_a.png,I,z,817,12,1,1600.5,539859.2999997139,9013,NNB,A,10
0,test,1,0.0,2-Back,,,Mon Mar 31 2025 10:20:18 GMT-0400 (Eastern Daylight Time),541459.7999997139,041_y_m_n_a.png,I,space,10677,1,1,1600.5,539859.2999997139,9013,NNB,A,0
0,test,1,0.0,2-Back,,,Mon Mar 31 2025 10:20:18 GMT-0400 (Eastern Daylight Time),541459.7999997139,041_y_m_n_a.png,I,space,10677,2,1,1600.5,539859.2999997139,9013,NNB,A,0
1,test,1,0.0,2-Back,1,m,Mon Mar 31 2025 10:20:18 GMT-0400 (Eastern Daylight Time),594442.9000000954,047_o_f_n_a.png,I,m,1410,3,1,2420.7000002861023,592022.1999998093,9013,NNB,A,1
2,test,1,0.0,2-Back,1,m,Mon Mar 31 2025 10:20:18 GMT-0400 (Eastern Daylight Time),596725.6999998093,058_m_m_n_a.png,I,m,1265,4,1,2269.0999999046326,594456.5999999046,9013,NNB,A,2
3,test,1,1.0,2-Back,1,z,Mon Mar 31 2025 10:20:18 GMT-0400 (Eastern Daylight Time),599609.4000000954,047_o_f_n_a.png,I,z,1861,5,1,2872.2000002861023,596737.1999998093,9013,NNB,A,3
4,test,1,0.0,2-Back,1,m,Mon Mar 31 2025 10:20:18 GMT-0400 (Eastern Daylight Time),602042.5999999046,063_y_f_n_a.png,I,m,1411,6,1,2420.800000190735,599621.7999997139,9013,NNB,A,4
4,test,1,0.0,2-Back,0,m,Mon Mar 31 2025 10:20:18 GMT-0400 (Eastern Daylight Time),605076.0999999046,058_m_m_n_a.png,I,None,2016,7,1,3020.800000190735,602055.2999997139,9013,NNB,A,5
5,test,1,1.0,2-Back,1,z,Mon Mar 31 2025 10:20:18 GMT-0400 (Eastern Daylight Time),607075.7999997139,063_y_f_n_a.png,I,z,967,8,1,1985.8999996185303,605089.9000000954,9013,NNB,A,6
5,test,1,0.0,2-Back,0,m,Mon Mar 31 2025 10:20:18 GMT-0400 (Eastern Daylight Time),610109.0999999046,008_y_m_n_a.png,I,None,2015,9,1,3019.4000000953674,607089.6999998093,9013,NNB,A,7
5,test,1,0.0,2-Back,0,m,Mon Mar 31 2025 10:20:18 GMT-0400 (Eastern Daylight Time),613142.5999999046,044_o_f_n_a.png,I,None,2015,10,1,3020.699999809265,610121.9000000954,9013,NNB,A,8
6,test,1,1.0,2-Back,1,z,Mon Mar 31 2025 10:20:18 GMT-0400 (Eastern Daylight Time),614942.4000000954,008_y_m_n_a.png,I,z,773,11,1,1786.6000003814697,613155.7999997139,9013,NNB,A,9
7,test,1,0.0,2-Back,1,m,Mon Mar 31 2025 10:20:18 GMT-0400 (Eastern Daylight Time),616976.0,043_m_f_n_a.png,I,m,1005,12,1,2020.5,614955.5,9013,NNB,A,10
8,test,1,0.0,2-Back,1,m,Mon Mar 31 2025 10:20:18 GMT-0400 (Eastern Daylight Time),619659.2999997139,043_m_f_n_a.png,I,m,1659,13,1,2669.8999996185303,616989.4000000954,9013,NNB,A,11
9,test,1,0.0,2-Back,1,m,Mon Mar 31 2025 10:20:18 GMT-0400 (Eastern Daylight Time),621776.0,046_o_m_n_a.png,I,m,1089,14,1,2103.7000002861023,619672.2999997139,9013,NNB,A,12
10,test,1,0.0,2-Back,1,m,Mon Mar 31 2025 10:20:18 GMT-0400 (Eastern Daylight Time),624675.6999998093,044_o_f_n_a.png,I,m,1867,15,1,2885.9000000953674,621789.7999997139,9013,NNB,A,13
11,test,1,1.0,2-Back,1,z,Mon Mar 31 2025 10:20:18 GMT-0400 (Eastern Daylight Time),626675.9000000954,046_o_m_n_a.png,I,z,967,16,1,1986.5,624689.4000000954,9013,NNB,A,14
12,test,1,0.0,2-Back,1,m,Mon Mar 31 2025 10:20:18 GMT-0400 (Eastern Daylight Time),628692.6999998093,050_m_f_n_a.png,I,m,983,17,1,2004.4000000953674,626688.2999997139,9013,NNB,A,15
13,test,1,0.0,2-Back,1,m,Mon Mar 31 2025 10:20:18 GMT-0400 (Eastern Daylight Time),630609.1999998093,045_m_m_n_a.png,I,m,887,18,1,1902.7999997138977,628706.4000000954,9013,NNB,A,16
0,test,2,0.0,2-Back,,,Mon Mar 31 2025 10:20:18 GMT-0400 (Eastern Daylight Time),630609.1999998093,045_m_m_n_a.png,I,space,4434,1,1,1902.7999997138977,628706.4000000954,9013,NNB,A,0
0,test,2,0.0,2-Back,,,Mon Mar 31 2025 10:20:18 GMT-0400 (Eastern Daylight Time),630609.1999998093,010_y_f_n_a.png,I,space,4434,2,1,1902.7999997138977,628706.4000000954,9013,NNB,A,0
1,test,2,1.0,2-Back,1,z,Mon Mar 31 2025 10:20:18 GMT-0400 (Eastern Daylight Time),642192.1999998093,045_m_m_n_a.png,I,z,970,3,1,1986.6999998092651,640205.5,9013,NNB,A,1
2,test,2,0.0,2-Back,1,m,Mon Mar 31 2025 10:20:18 GMT-0400 (Eastern Daylight Time),643959.1999998093,050_m_f_n_a.png,I,m,747,4,1,1756.0,642203.1999998093,9013,NNB,A,2
3,test,2,0.0,2-Back,1,m,Mon Mar 31 2025 10:20:18 GMT-0400 (Eastern Daylight Time),646525.7999997139,010_y_f_n_a.png,I,m,1540,5,1,2553.3999996185303,643972.4000000954,9013,NNB,A,3
3,test,2,0.0,2-Back,0,m,Mon Mar 31 2025 10:20:18 GMT-0400 (Eastern Daylight Time),649558.7999997139,046_o_m_n_a.png,I,None,2013,6,1,3020.199999809265,646538.5999999046,9013,NNB,A,4
3,test,2,0.0,2-Back,0,m,Mon Mar 31 2025 10:20:18 GMT-0400 (Eastern Daylight Time),652109.0999999046,063_y_f_n_a.png,I,z,1524,7,1,2540.4000000953674,649568.6999998093,9013,NNB,A,5
3,test,2,1.0,2-Back,0,z,Mon Mar 31 2025 10:20:18 GMT-0400 (Eastern Daylight Time),653725.1999998093,046_o_m_n_a.png,I,m,589,8,1,1603.9000000953674,652121.2999997139,9013,NNB,A,6
4,test,2,0.0,2-Back,1,m,Mon Mar 31 2025 10:20:18 GMT-0400 (Eastern Daylight Time),655809.0999999046,008_y_m_n_a.png,I,m,1053,9,1,2074.4000000953674,653734.6999998093,9013,NNB,A,7
5,test,2,0.0,2-Back,1,m,Mon Mar 31 2025 10:20:18 GMT-0400 (Eastern Daylight Time),658225.7999997139,008_y_m_n_a.png,I,m,1386,10,1,2403.0999999046326,655822.6999998093,9013,NNB,A,8
6,test,2,0.0,2-Back,1,m,Mon Mar 31 2025 10:20:18 GMT-0400 (Eastern Daylight Time),660192.5999999046,043_m_f_n_a.png,I,m,937,11,1,1953.6999998092651,658238.9000000954,9013,NNB,A,9
7,test,2,0.0,2-Back,1,m,Mon Mar 31 2025 10:20:18 GMT-0400 (Eastern Daylight Time),662642.5999999046,010_y_f_n_a.png,I,m,1419,12,1,2436.4000000953674,660206.1999998093,9013,NNB,A,10
8,test,2,1.0,2-Back,1,z,Mon Mar 31 2025 10:20:18 GMT-0400 (Eastern Daylight Time),665492.6999998093,043_m_f_n_a.png,I,z,1817,13,1,2837.5999999046326,662655.0999999046,9013,NNB,A,11
9,test,2,0.0,2-Back,1,m,Mon Mar 31 2025 10:20:18 GMT-0400 (Eastern Daylight Time),667625.9000000954,053_o_m_n_a.png,I,m,1111,14,1,2120.1000003814697,665505.7999997139,9013,NNB,A,12
10,test,2,0.0,2-Back,1,m,Mon Mar 31 2025 10:20:18 GMT-0400 (Eastern Daylight Time),669759.0,053_o_m_n_a.png,I,m,1105,15,1,2120.300000190735,667638.6999998093,9013,NNB,A,13
11,test,2,0.0,2-Back,1,m,Mon Mar 31 2025 10:20:18 GMT-0400 (Eastern Daylight Time),672342.2999997139,044_o_f_n_a.png,I,m,1564,16,1,2569.7999997138977,669772.5,9013,NNB,A,14
12,test,2,0.0,2-Back,1,m,Mon Mar 31 2025 10:20:18 GMT-0400 (Eastern Daylight Time),674225.9000000954,058_m_m_n_a.png,I,m,853,17,1,1869.8000001907349,672356.0999999046,9013,NNB,A,15
13,test,2,1.0,2-Back,1,z,Mon Mar 31 2025 10:20:18 GMT-0400 (Eastern Daylight Time),675975.9000000954,044_o_f_n_a.png,I,z,730,18,1,1736.9000000953674,674239.0,9013,NNB,A,16
0,test,3,1.0,2-Back,,,Mon Mar 31 2025 10:20:18 GMT-0400 (Eastern Daylight Time),675975.9000000954,041_y_m_n_a.png,I,space,17755,1,1,1736.9000000953674,674239.0,9013,NNB,A,0
0,test,3,1.0,2-Back,,,Mon Mar 31 2025 10:20:18 GMT-0400 (Eastern Daylight Time),675975.9000000954,041_y_m_n_a.png,I,space,17755,2,1,1736.9000000953674,674239.0,9013,NNB,A,0
1,test,3,0.0,2-Back,1,m,Mon Mar 31 2025 10:20:18 GMT-0400 (Eastern Daylight Time),700709.5,044_o_f_n_a.png,I,m,849,3,1,1853.8000001907349,698855.6999998093,9013,NNB,A,1
2,test,3,0.0,2-Back,1,m,Mon Mar 31 2025 10:20:18 GMT-0400 (Eastern Daylight Time),702792.5,045_m_m_n_a.png,I,m,1062,4,1,2069.5999999046326,700722.9000000954,9013,NNB,A,2
3,test,3,1.0,2-Back,1,z,Mon Mar 31 2025 10:20:18 GMT-0400 (Eastern Daylight Time),704342.0,044_o_f_n_a.png,I,z,531,5,1,1536.5,702805.5,9013,NNB,A,3
4,test,3,0.0,2-Back,1,m,Mon Mar 31 2025 10:20:18 GMT-0400 (Eastern Daylight Time),706542.5999999046,008_y_m_n_a.png,I,m,1123,6,1,2137.800000190735,704404.7999997139,9013,NNB,A,4
5,test,3,0.0,2-Back,1,m,Mon Mar 31 2025 10:20:18 GMT-0400 (Eastern Daylight Time),709209.0999999046,045_m_m_n_a.png,I,m,1645,7,1,2653.4000000953674,706555.6999998093,9013,NNB,A,5
6,test,3,1.0,2-Back,1,z,Mon Mar 31 2025 10:20:18 GMT-0400 (Eastern Daylight Time),711175.4000000954,008_y_m_n_a.png,I,z,945,8,1,1953.3000001907349,709222.0999999046,9013,NNB,A,6
7,test,3,0.0,2-Back,1,m,Mon Mar 31 2025 10:20:18 GMT-0400 (Eastern Daylight Time),713109.4000000954,010_y_f_n_a.png,I,m,915,9,1,1924.5,711184.9000000954,9013,NNB,A,7
8,test,3,0.0,2-Back,1,m,Mon Mar 31 2025 10:20:18 GMT-0400 (Eastern Daylight Time),715209.0,058_m_m_n_a.png,I,m,1078,10,1,2086.9000000953674,713122.0999999046,9013,NNB,A,8
9,test,3,1.0,2-Back,1,z,Mon Mar 31 2025 10:20:18 GMT-0400 (Eastern Daylight Time),716859.1999998093,010_y_f_n_a.png,I,z,626,11,1,1638.0,715221.1999998093,9013,NNB,A,9
10,test,3,1.0,2-Back,1,z,Mon Mar 31 2025 10:20:18 GMT-0400 (Eastern Daylight Time),718992.4000000954,058_m_m_n_a.png,I,z,1104,12,1,2120.4000000953674,716872.0,9013,NNB,A,10
11,test,3,0.0,2-Back,1,m,Mon Mar 31 2025 10:20:18 GMT-0400 (Eastern Daylight Time),720992.5999999046,044_o_f_n_a.png,I,m,971,13,1,1987.5,719005.0999999046,9013,NNB,A,11
12,test,3,0.0,2-Back,1,m,Mon Mar 31 2025 10:20:18 GMT-0400 (Eastern Daylight Time),722875.7999997139,050_m_f_n_a.png,I,m,859,14,1,1870.3999996185303,721005.4000000954,9013,NNB,A,12
13,test,3,0.0,2-Back,1,m,Mon Mar 31 2025 10:20:18 GMT-0400 (Eastern Daylight Time),725109.1999998093,046_o_m_n_a.png,I,m,1216,15,1,2220.4000000953674,722888.7999997139,9013,NNB,A,13
14,test,3,1.0,2-Back,1,z,Mon Mar 31 2025 10:20:18 GMT-0400 (Eastern Daylight Time),727242.4000000954,050_m_f_n_a.png,I,z,1110,16,1,2119.1000003814697,725123.2999997139,9013,NNB,A,14
15,test,3,0.0,2-Back,1,m,Mon Mar 31 2025 10:20:18 GMT-0400 (Eastern Daylight Time),729175.6999998093,047_o_f_n_a.png,I,m,913,17,1,1920.5999999046326,727255.0999999046,9013,NNB,A,15
16,test,3,0.0,2-Back,1,m,Mon Mar 31 2025 10:20:18 GMT-0400 (Eastern Daylight Time),731409.0,047_o_f_n_a.png,I,m,1203,18,1,2219.4000000953674,729189.5999999046,9013,NNB,A,16
0,test,4,0.0,2-Back,,,Mon Mar 31 2025 10:20:18 GMT-0400 (Eastern Daylight Time),731409.0,053_o_m_n_a.png,I,space,23953,1,1,2219.4000000953674,729189.5999999046,9013,NNB,A,0
0,test,4,0.0,2-Back,,,Mon Mar 31 2025 10:20:18 GMT-0400 (Eastern Daylight Time),731409.0,063_y_f_n_a.png,I,space,23953,2,1,2219.4000000953674,729189.5999999046,9013,NNB,A,0
1,test,4,1.0,2-Back,1,z,Mon Mar 31 2025 10:20:18 GMT-0400 (Eastern Daylight Time),762326.0,053_o_m_n_a.png,I,z,781,3,1,1786.3000001907349,760539.6999998093,9013,NNB,A,1
2,test,4,1.0,2-Back,1,z,Mon Mar 31 2025 10:20:18 GMT-0400 (Eastern Daylight Time),764258.9000000954,063_y_f_n_a.png,I,z,901,4,1,1921.5,762337.4000000954,9013,NNB,A,2
3,test,4,0.0,2-Back,1,m,Mon Mar 31 2025 10:20:18 GMT-0400 (Eastern Daylight Time),766142.2999997139,044_o_f_n_a.png,I,m,856,5,1,1869.5,764272.7999997139,9013,NNB,A,3
4,test,4,0.0,2-Back,1,m,Mon Mar 31 2025 10:20:18 GMT-0400 (Eastern Daylight Time),768008.9000000954,044_o_f_n_a.png,I,m,845,6,1,1851.5,766157.4000000954,9013,NNB,A,4
5,test,4,0.0,2-Back,1,m,Mon Mar 31 2025 10:20:18 GMT-0400 (Eastern Daylight Time),770225.5999999046,043_m_f_n_a.png,I,m,1186,7,1,2202.0999999046326,768023.5,9013,NNB,A,5
6,test,4,0.0,2-Back,1,m,Mon Mar 31 2025 10:20:18 GMT-0400 (Eastern Daylight Time),772375.5999999046,008_y_m_n_a.png,I,m,1129,8,1,2136.699999809265,770238.9000000954,9013,NNB,A,6
7,test,4,1.0,2-Back,1,z,Mon Mar 31 2025 10:20:18 GMT-0400 (Eastern Daylight Time),774242.2999997139,043_m_f_n_a.png,I,z,836,9,1,1853.3999996185303,772388.9000000954,9013,NNB,A,7
8,test,4,0.0,2-Back,1,m,Mon Mar 31 2025 10:20:18 GMT-0400 (Eastern Daylight Time),776158.9000000954,058_m_m_n_a.png,I,m,889,10,1,1904.1000003814697,774254.7999997139,9013,NNB,A,8
9,test,4,0.0,2-Back,1,m,Mon Mar 31 2025 10:20:18 GMT-0400 (Eastern Daylight Time),778625.6999998093,008_y_m_n_a.png,I,m,1436,11,1,2452.5,776173.1999998093,9013,NNB,A,9
10,test,4,0.0,2-Back,1,m,Mon Mar 31 2025 10:20:18 GMT-0400 (Eastern Daylight Time),780759.0,047_o_f_n_a.png,I,m,1113,12,1,2120.4000000953674,778638.5999999046,9013,NNB,A,10
11,test,4,0.0,2-Back,1,m,Mon Mar 31 2025 10:20:18 GMT-0400 (Eastern Daylight Time),782775.4000000954,041_y_m_n_a.png,I,m,996,13,1,2002.8000001907349,780772.5999999046,9013,NNB,A,11
12,test,4,1.0,2-Back,1,z,Mon Mar 31 2025 10:20:18 GMT-0400 (Eastern Daylight Time),784908.9000000954,047_o_f_n_a.png,I,z,1108,14,1,2120.800000190735,782788.0999999046,9013,NNB,A,12
13,test,4,1.0,2-Back,1,z,Mon Mar 31 2025 10:20:18 GMT-0400 (Eastern Daylight Time),786675.6999998093,041_y_m_n_a.png,I,z,734,15,1,1753.6999998092651,784922.0,9013,NNB,A,13
14,test,4,0.0,2-Back,1,m,Mon Mar 31 2025 10:20:18 GMT-0400 (Eastern Daylight Time),789042.5,045_m_m_n_a.png,I,m,1335,16,1,2354.0,786688.5,9013,NNB,A,14
15,test,4,0.0,2-Back,1,m,Mon Mar 31 2025 10:20:18 GMT-0400 (Eastern Daylight Time),791492.2999997139,050_m_f_n_a.png,I,m,1416,17,1,2436.0999999046326,789056.1999998093,9013,NNB,A,15
16,test,4,1.0,2-Back,1,z,Mon Mar 31 2025 10:20:18 GMT-0400 (Eastern Daylight Time),793275.6999998093,045_m_m_n_a.png,I,z,759,18,1,1769.7999997138977,791505.9000000954,9013,NNB,A,16
0,test,5,1.0,2-Back,,,Mon Mar 31 2025 10:20:18 GMT-0400 (Eastern Daylight Time),793275.6999998093,041_y_m_n_a.png,I,space,8376,1,1,1769.7999997138977,791505.9000000954,9013,NNB,A,0
0,test,5,1.0,2-Back,,,Mon Mar 31 2025 10:20:18 GMT-0400 (Eastern Daylight Time),793275.6999998093,050_m_f_n_a.png,I,space,8376,2,1,1769.7999997138977,791505.9000000954,9013,NNB,A,0
1,test,5,1.0,2-Back,1,z,Mon Mar 31 2025 10:20:18 GMT-0400 (Eastern Daylight Time),808558.9000000954,041_y_m_n_a.png,I,z,822,3,1,1837.7000002861023,806721.1999998093,9013,NNB,A,1
2,test,5,1.0,2-Back,1,z,Mon Mar 31 2025 10:20:18 GMT-0400 (Eastern Daylight Time),810642.4000000954,050_m_f_n_a.png,I,z,1052,4,1,2071.1000003814697,808571.2999997139,9013,NNB,A,2
3,test,5,0.0,2-Back,1,m,Mon Mar 31 2025 10:20:18 GMT-0400 (Eastern Daylight Time),812525.5999999046,047_o_f_n_a.png,I,m,857,5,1,1870.0999999046326,810655.5,9013,NNB,A,3
4,test,5,0.0,2-Back,1,m,Mon Mar 31 2025 10:20:18 GMT-0400 (Eastern Daylight Time),815525.5,041_y_m_n_a.png,I,m,1982,6,1,2986.9000000953674,812538.5999999046,9013,NNB,A,4
5,test,5,0.0,2-Back,1,m,Mon Mar 31 2025 10:20:18 GMT-0400 (Eastern Daylight Time),817558.6999998093,010_y_f_n_a.png,I,m,1013,7,1,2020.0999999046326,815538.5999999046,9013,NNB,A,5
6,test,5,0.0,2-Back,1,m,Mon Mar 31 2025 10:20:18 GMT-0400 (Eastern Daylight Time),820375.6999998093,047_o_f_n_a.png,I,m,1796,8,1,2803.699999809265,817572.0,9013,NNB,A,6
7,test,5,1.0,2-Back,1,z,Mon Mar 31 2025 10:20:18 GMT-0400 (Eastern Daylight Time),822758.7999997139,010_y_f_n_a.png,I,z,1364,9,1,2370.0999999046326,820388.6999998093,9013,NNB,A,7
8,test,5,0.0,2-Back,1,m,Mon Mar 31 2025 10:20:18 GMT-0400 (Eastern Daylight Time),824775.5999999046,046_o_m_n_a.png,I,m,996,10,1,2004.3000001907349,822771.2999997139,9013,NNB,A,8
9,test,5,0.0,2-Back,1,m,Mon Mar 31 2025 10:20:18 GMT-0400 (Eastern Daylight Time),826792.2999997139,043_m_f_n_a.png,I,m,996,11,1,2004.2999997138977,824788.0,9013,NNB,A,9
10,test,5,0.0,2-Back,1,m,Mon Mar 31 2025 10:20:18 GMT-0400 (Eastern Daylight Time),828592.2999997139,058_m_m_n_a.png,I,m,771,12,1,1786.7999997138977,826805.5,9013,NNB,A,10
11,test,5,0.0,2-Back,1,m,Mon Mar 31 2025 10:20:18 GMT-0400 (Eastern Daylight Time),830558.9000000954,046_o_m_n_a.png,I,m,940,13,1,1953.7000002861023,828605.1999998093,9013,NNB,A,11
12,test,5,1.0,2-Back,1,z,Mon Mar 31 2025 10:20:18 GMT-0400 (Eastern Daylight Time),832509.0,058_m_m_n_a.png,I,z,924,14,1,1936.9000000953674,830572.0999999046,9013,NNB,A,12
13,test,5,0.0,2-Back,1,m,Mon Mar 31 2025 10:20:18 GMT-0400 (Eastern Daylight Time),834392.1999998093,063_y_f_n_a.png,I,m,862,15,1,1870.6999998092651,832521.5,9013,NNB,A,13
14,test,5,0.0,2-Back,1,m,Mon Mar 31 2025 10:20:18 GMT-0400 (Eastern Daylight Time),836258.7999997139,053_o_m_n_a.png,I,m,835,16,1,1853.5,834405.2999997139,9013,NNB,A,14
15,test,5,0.0,2-Back,1,m,Mon Mar 31 2025 10:20:18 GMT-0400 (Eastern Daylight Time),838058.7999997139,043_m_f_n_a.png,I,m,760,17,1,1781.8999996185303,836276.9000000954,9013,NNB,A,15
16,test,5,1.0,2-Back,1,z,Mon Mar 31 2025 10:20:18 GMT-0400 (Eastern Daylight Time),841042.1999998093,053_o_m_n_a.png,I,z,1935,18,1,2965.0999999046326,838077.0999999046,9013,NNB,A,16
