block_c,block_dur,condition,countdown,datetime,endtime,list,multichar_response,project,response,response_time,session_number,start_end,starttime,subject_id,task,task_vers,trial
,,,,Wed Jan 29 2025 11:48:40 GMT-0600 (Central Standard Time),,,,I,space,449,1,,,8020,WL,B,
prac,,0,,Wed Jan 29 2025 11:48:40 GMT-0600 (Central Standard Time),,NA,b,I,b,8699,1,,,8020,WL,B,1.0
prac,,0,,Wed Jan 29 2025 11:48:40 GMT-0600 (Central Standard Time),,NA,bo,I,o,195,1,,,8020,WL,B,1.0
prac,,0,,Wed Jan 29 2025 11:48:40 GMT-0600 (Central Standard Time),,NA,boo,I,o,107,1,,,8020,WL,B,1.0
prac,,0,,Wed Jan 29 2025 11:48:40 GMT-0600 (Central Standard Time),,NA,boos,I,s,176,1,,,8020,WL,B,1.0
prac,,0,,Wed Jan 29 2025 11:48:40 GMT-0600 (Central Standard Time),,NA,boost,I,t,361,1,,,8020,WL,B,1.0
prac,,0,,Wed Jan 29 2025 11:48:40 GMT-0600 (Central Standard Time),,NA,boostenter,I,enter,2457,1,,,8020,WL,B,1.0
1,5.199000120162964,learn,54800.999879837036,Wed Jan 29 2025 11:48:40 GMT-0600 (Central Standard Time),137372.6000000015,A,c,I,c,5188,1,5198.0,132174.6000000015,8020,WL,B,1.0
1,5.982000112533569,learn,54017.99988746643,Wed Jan 29 2025 11:48:40 GMT-0600 (Central Standard Time),138155.20000000298,A,ca,I,a,772,1,5980.60000000149,132174.6000000015,8020,WL,B,1.0
1,6.5320000648498535,learn,53467.99993515015,Wed Jan 29 2025 11:48:40 GMT-0600 (Central Standard Time),138705.20000000298,A,cab,I,b,535,1,6530.60000000149,132174.6000000015,8020,WL,B,1.0
1,6.749000072479248,learn,53250.99992752075,Wed Jan 29 2025 11:48:40 GMT-0600 (Central Standard Time),138922.8999999985,A,cabi,I,i,193,1,6748.29999999702,132174.6000000015,8020,WL,B,1.0
1,8.065000057220459,learn,51934.99994277954,Wed Jan 29 2025 11:48:40 GMT-0600 (Central Standard Time),140238.20000000298,A,cabin,I,n,1303,1,8063.60000000149,132174.6000000015,8020,WL,B,1.0
1,8.248000144958496,learn,51751.999855041504,Wed Jan 29 2025 11:48:40 GMT-0600 (Central Standard Time),140421.29999999702,A,cabine,I,e,173,1,8246.69999999553,132174.6000000015,8020,WL,B,1.0
1,9.314000129699707,learn,50685.99987030029,Wed Jan 29 2025 11:48:40 GMT-0600 (Central Standard Time),141487.70000000298,A,cabin,I,backspace,1053,1,9313.10000000149,132174.6000000015,8020,WL,B,1.0
1,9.94700002670288,learn,50052.99997329712,Wed Jan 29 2025 11:48:40 GMT-0600 (Central Standard Time),142120.8999999985,A,cabinenter,I,enter,610,1,9946.29999999702,132174.6000000015,8020,WL,B,1.0
1,11.198000192642212,learn,48801.99980735779,Wed Jan 29 2025 11:48:40 GMT-0600 (Central Standard Time),143371.3999999985,A,l,I,l,1241,1,1249.8999999985099,142121.5,8020,WL,B,2.0
1,11.763000011444092,learn,48236.99998855591,Wed Jan 29 2025 11:48:40 GMT-0600 (Central Standard Time),143936.70000000298,A,la,I,a,542,1,1815.2000000029802,142121.5,8020,WL,B,2.0
1,12.047000169754028,learn,47952.99983024597,Wed Jan 29 2025 11:48:40 GMT-0600 (Central Standard Time),144220.29999999702,A,lak,I,k,264,1,2098.7999999970198,142121.5,8020,WL,B,2.0
1,12.19700002670288,learn,47802.99997329712,Wed Jan 29 2025 11:48:40 GMT-0600 (Central Standard Time),144370.20000000298,A,lake,I,e,142,1,2248.7000000029802,142121.5,8020,WL,B,2.0
1,13.146000146865845,learn,46853.999853134155,Wed Jan 29 2025 11:48:40 GMT-0600 (Central Standard Time),145319.6000000015,A,lakeenter,I,enter,936,1,3198.10000000149,142121.5,8020,WL,B,2.0
1,13.979000091552734,learn,46020.999908447266,Wed Jan 29 2025 11:48:40 GMT-0600 (Central Standard Time),146152.8999999985,A,f,I,f,809,1,832.6000000014901,145320.29999999702,8020,WL,B,3.0
1,14.078999996185303,learn,45921.0000038147,Wed Jan 29 2025 11:48:40 GMT-0600 (Central Standard Time),146252.8999999985,A,fi,I,i,81,1,932.6000000014901,145320.29999999702,8020,WL,B,3.0
1,14.396000146865845,learn,45603.999853134155,Wed Jan 29 2025 11:48:40 GMT-0600 (Central Standard Time),146569.29999999702,A,fir,I,r,302,1,1249.0,145320.29999999702,8020,WL,B,3.0
1,14.529000043869019,learn,45470.99995613098,Wed Jan 29 2025 11:48:40 GMT-0600 (Central Standard Time),146702.70000000298,A,fire,I,e,121,1,1382.4000000059605,145320.29999999702,8020,WL,B,3.0
1,15.296000003814697,learn,44703.9999961853,Wed Jan 29 2025 11:48:40 GMT-0600 (Central Standard Time),147469.0,A,fireenter,I,enter,756,1,2148.7000000029802,145320.29999999702,8020,WL,B,3.0
1,16.16200017929077,learn,43837.99982070923,Wed Jan 29 2025 11:48:40 GMT-0600 (Central Standard Time),148335.5,A,c,I,c,854,1,866.1000000014901,147469.3999999985,8020,WL,B,4.0
1,16.41200017929077,learn,43587.99982070923,Wed Jan 29 2025 11:48:40 GMT-0600 (Central Standard Time),148585.29999999702,A,cl,I,l,235,1,1115.8999999985099,147469.3999999985,8020,WL,B,4.0
1,16.778000116348267,learn,43221.99988365173,Wed Jan 29 2025 11:48:40 GMT-0600 (Central Standard Time),148951.79999999702,A,clo,I,o,345,1,1482.3999999985099,147469.3999999985,8020,WL,B,4.0
1,17.07800006866455,learn,42921.99993133545,Wed Jan 29 2025 11:48:40 GMT-0600 (Central Standard Time),149251.8999999985,A,cloc,I,c,282,1,1782.5,147469.3999999985,8020,WL,B,4.0
1,17.212000131607056,learn,42787.999868392944,Wed Jan 29 2025 11:48:40 GMT-0600 (Central Standard Time),149385.1000000015,A,clock,I,k,118,1,1915.7000000029802,147469.3999999985,8020,WL,B,4.0
1,18.42799997329712,learn,41572.00002670288,Wed Jan 29 2025 11:48:40 GMT-0600 (Central Standard Time),150601.29999999702,A,clockenter,I,enter,1194,1,3131.89999999851,147469.3999999985,8020,WL,B,4.0
1,26.80900001525879,learn,33190.99998474121,Wed Jan 29 2025 11:48:40 GMT-0600 (Central Standard Time),158982.20000000298,A,f,I,f,8361,1,8380.5,150601.70000000298,8020,WL,B,5.0
1,27.343000173568726,learn,32656.999826431274,Wed Jan 29 2025 11:48:40 GMT-0600 (Central Standard Time),159516.5,A,fi,I,i,524,1,8914.79999999702,150601.70000000298,8020,WL,B,5.0
1,27.509000062942505,learn,32490.999937057495,Wed Jan 29 2025 11:48:40 GMT-0600 (Central Standard Time),159682.20000000298,A,fir,I,r,149,1,9080.5,150601.70000000298,8020,WL,B,5.0
1,27.642000198364258,learn,32357.999801635742,Wed Jan 29 2025 11:48:40 GMT-0600 (Central Standard Time),159815.1000000015,A,fire,I,e,113,1,9213.39999999851,150601.70000000298,8020,WL,B,5.0
1,28.10800004005432,learn,31891.99995994568,Wed Jan 29 2025 11:48:40 GMT-0600 (Central Standard Time),160281.8999999985,A,fireenter,I,enter,443,1,9680.19999999553,150601.70000000298,8020,WL,B,5.0
1,38.63800001144409,learn,21361.99998855591,Wed Jan 29 2025 11:48:40 GMT-0600 (Central Standard Time),170811.8999999985,A,enter,I,enter,10518,1,10529.69999999553,160282.20000000298,8020,WL,B,6.0
1,41.87000012397766,learn,18129.99987602234,Wed Jan 29 2025 11:48:40 GMT-0600 (Central Standard Time),174044.1000000015,A,enter,I,enter,3214,1,3231.7000000029802,170812.3999999985,8020,WL,B,7.0
1,42.35300016403198,learn,17646.999835968018,Wed Jan 29 2025 11:48:40 GMT-0600 (Central Standard Time),174527.29999999702,A,enter,I,enter,462,1,482.69999999552965,174044.6000000015,8020,WL,B,8.0
1,42.819000005722046,learn,17180.999994277954,Wed Jan 29 2025 11:48:40 GMT-0600 (Central Standard Time),174993.70000000298,A,enter,I,enter,451,1,466.0,174527.70000000298,8020,WL,B,9.0
1,43.253000020980835,learn,16746.999979019165,Wed Jan 29 2025 11:48:40 GMT-0600 (Central Standard Time),175426.8999999985,A,enter,I,enter,417,1,432.6000000014901,174994.29999999702,8020,WL,B,10.0
1,43.76900005340576,learn,16230.999946594238,Wed Jan 29 2025 11:48:40 GMT-0600 (Central Standard Time),175943.3999999985,A,enter,I,enter,495,1,516.0,175427.3999999985,8020,WL,B,11.0
1,44.30200004577637,learn,15697.999954223633,Wed Jan 29 2025 11:48:40 GMT-0600 (Central Standard Time),176476.79999999702,A,enter,I,enter,514,1,532.7999999970198,175944.0,8020,WL,B,12.0
1,44.68600010871887,learn,15313.999891281128,Wed Jan 29 2025 11:48:40 GMT-0600 (Central Standard Time),176860.20000000298,A,enter,I,enter,365,1,383.0,176477.20000000298,8020,WL,B,13.0
1,45.152000188827515,learn,14847.999811172485,Wed Jan 29 2025 11:48:40 GMT-0600 (Central Standard Time),177326.29999999702,A,enter,I,enter,446,1,465.69999999552965,176860.6000000015,8020,WL,B,14.0
1,45.60199999809265,learn,14398.000001907349,Wed Jan 29 2025 11:48:40 GMT-0600 (Central Standard Time),177776.1000000015,A,enter,I,enter,428,1,449.3999999985099,177326.70000000298,8020,WL,B,15.0
2,1.2659997940063477,learn,58734.00020599365,Wed Jan 29 2025 11:48:40 GMT-0600 (Central Standard Time),245705.1000000015,A,s,I,s,1244,1,1265.8999999985099,244439.20000000298,8020,WL,B,1.0
2,1.8489999771118164,learn,58151.00002288818,Wed Jan 29 2025 11:48:40 GMT-0600 (Central Standard Time),246288.20000000298,A,st,I,t,569,1,1849.0,244439.20000000298,8020,WL,B,1.0
2,2.3320000171661377,learn,57667.99998283386,Wed Jan 29 2025 11:48:40 GMT-0600 (Central Standard Time),246771.3999999985,A,str,I,r,475,1,2332.1999999955297,244439.20000000298,8020,WL,B,1.0
2,2.681999921798706,learn,57318.000078201294,Wed Jan 29 2025 11:48:40 GMT-0600 (Central Standard Time),247121.29999999702,A,stre,I,e,325,1,2682.0999999940395,244439.20000000298,8020,WL,B,1.0
2,2.8489999771118164,learn,57151.00002288818,Wed Jan 29 2025 11:48:40 GMT-0600 (Central Standard Time),247287.8999999985,A,stree,I,e,153,1,2848.6999999955297,244439.20000000298,8020,WL,B,1.0
2,3.2149999141693115,learn,56785.00008583069,Wed Jan 29 2025 11:48:40 GMT-0600 (Central Standard Time),247654.29999999702,A,street,I,t,355,1,3215.0999999940395,244439.20000000298,8020,WL,B,1.0
2,4.347999811172485,learn,55652.000188827515,Wed Jan 29 2025 11:48:40 GMT-0600 (Central Standard Time),248787.3999999985,A,streetenter,I,enter,1116,1,4348.19999999553,244439.20000000298,8020,WL,B,1.0
2,4.81499981880188,learn,55185.00018119812,Wed Jan 29 2025 11:48:40 GMT-0600 (Central Standard Time),249254.20000000298,A,c,I,c,455,1,466.40000000596046,248787.79999999702,8020,WL,B,2.0
2,4.947999954223633,learn,55052.00004577637,Wed Jan 29 2025 11:48:40 GMT-0600 (Central Standard Time),249387.0,A,ca,I,a,125,1,599.2000000029802,248787.79999999702,8020,WL,B,2.0
2,5.330999851226807,learn,54669.00014877319,Wed Jan 29 2025 11:48:40 GMT-0600 (Central Standard Time),249770.5,A,cab,I,b,368,1,982.7000000029802,248787.79999999702,8020,WL,B,2.0
2,5.514999866485596,learn,54485.000133514404,Wed Jan 29 2025 11:48:40 GMT-0600 (Central Standard Time),249953.8999999985,A,cabi,I,i,159,1,1166.1000000014901,248787.79999999702,8020,WL,B,2.0
2,5.680999994277954,learn,54319.000005722046,Wed Jan 29 2025 11:48:40 GMT-0600 (Central Standard Time),250120.3999999985,A,cabin,I,n,145,1,1332.6000000014901,248787.79999999702,8020,WL,B,2.0
2,6.130999803543091,learn,53869.00019645691,Wed Jan 29 2025 11:48:40 GMT-0600 (Central Standard Time),250570.1000000015,A,cabinenter,I,enter,426,1,1782.3000000044703,248787.79999999702,8020,WL,B,2.0
2,6.797999858856201,learn,53202.0001411438,Wed Jan 29 2025 11:48:40 GMT-0600 (Central Standard Time),251236.70000000298,A,d,I,d,649,1,666.4000000059605,250570.29999999702,8020,WL,B,3.0
2,7.130999803543091,learn,52869.00019645691,Wed Jan 29 2025 11:48:40 GMT-0600 (Central Standard Time),251569.8999999985,A,do,I,o,326,1,999.6000000014901,250570.29999999702,8020,WL,B,3.0
2,7.313999891281128,learn,52686.00010871887,Wed Jan 29 2025 11:48:40 GMT-0600 (Central Standard Time),251753.20000000298,A,doo,I,o,161,1,1182.9000000059605,250570.29999999702,8020,WL,B,3.0
2,7.380999803543091,learn,52619.00019645691,Wed Jan 29 2025 11:48:40 GMT-0600 (Central Standard Time),251819.79999999702,A,door,I,r,58,1,1249.5,250570.29999999702,8020,WL,B,3.0
2,7.71399998664856,learn,52286.00001335144,Wed Jan 29 2025 11:48:40 GMT-0600 (Central Standard Time),252152.8999999985,A,doorenter,I,enter,311,1,1582.6000000014901,250570.29999999702,8020,WL,B,3.0
2,8.54699993133545,learn,51453.00006866455,Wed Jan 29 2025 11:48:40 GMT-0600 (Central Standard Time),252986.29999999702,A,w,I,w,826,1,833.0,252153.29999999702,8020,WL,B,4.0
2,8.629999876022339,learn,51370.00012397766,Wed Jan 29 2025 11:48:40 GMT-0600 (Central Standard Time),253069.20000000298,A,wi,I,i,73,1,915.9000000059605,252153.29999999702,8020,WL,B,4.0
2,8.929999828338623,learn,51070.00017166138,Wed Jan 29 2025 11:48:40 GMT-0600 (Central Standard Time),253369.29999999702,A,wif,I,f,285,1,1216.0,252153.29999999702,8020,WL,B,4.0
2,9.496999979019165,learn,50503.000020980835,Wed Jan 29 2025 11:48:40 GMT-0600 (Central Standard Time),253935.70000000298,A,wife,I,e,546,1,1782.4000000059605,252153.29999999702,8020,WL,B,4.0
2,9.796000003814697,learn,50203.9999961853,Wed Jan 29 2025 11:48:40 GMT-0600 (Central Standard Time),254235.6000000015,A,wifeenter,I,enter,284,1,2082.3000000044703,252153.29999999702,8020,WL,B,4.0
2,10.379999876022339,learn,49620.00012397766,Wed Jan 29 2025 11:48:40 GMT-0600 (Central Standard Time),254819.0,A,l,I,l,559,1,583.0,254236.0,8020,WL,B,5.0
2,10.513000011444092,learn,49486.99998855591,Wed Jan 29 2025 11:48:40 GMT-0600 (Central Standard Time),254952.1000000015,A,la,I,a,119,1,716.1000000014901,254236.0,8020,WL,B,5.0
2,10.829999923706055,learn,49170.000076293945,Wed Jan 29 2025 11:48:40 GMT-0600 (Central Standard Time),255268.79999999702,A,lak,I,k,299,1,1032.7999999970198,254236.0,8020,WL,B,5.0
2,11.02999997138977,learn,48970.00002861023,Wed Jan 29 2025 11:48:40 GMT-0600 (Central Standard Time),255468.70000000298,A,lake,I,e,182,1,1232.7000000029802,254236.0,8020,WL,B,5.0
2,11.745999813079834,learn,48254.000186920166,Wed Jan 29 2025 11:48:40 GMT-0600 (Central Standard Time),256185.1000000015,A,lakeenter,I,enter,693,1,1949.1000000014901,254236.0,8020,WL,B,5.0
2,13.578999996185303,learn,46421.0000038147,Wed Jan 29 2025 11:48:40 GMT-0600 (Central Standard Time),258017.8999999985,A,c,I,c,1817,1,1832.3999999985099,256185.5,8020,WL,B,6.0
2,14.27899980545044,learn,45721.00019454956,Wed Jan 29 2025 11:48:40 GMT-0600 (Central Standard Time),258717.70000000298,A,ca,I,a,680,1,2532.2000000029802,256185.5,8020,WL,B,6.0
2,14.477999925613403,learn,45522.0000743866,Wed Jan 29 2025 11:48:40 GMT-0600 (Central Standard Time),258917.5,A,cai,I,i,189,1,2732.0,256185.5,8020,WL,B,6.0
2,15.128000020980835,learn,44871.999979019165,Wed Jan 29 2025 11:48:40 GMT-0600 (Central Standard Time),259567.29999999702,A,ca,I,backspace,637,1,3381.7999999970198,256185.5,8020,WL,B,6.0
2,15.828999996185303,learn,44171.0000038147,Wed Jan 29 2025 11:48:40 GMT-0600 (Central Standard Time),260268.3999999985,A,cab,I,b,691,1,4082.89999999851,256185.5,8020,WL,B,6.0
2,15.944999933242798,learn,44055.0000667572,Wed Jan 29 2025 11:48:40 GMT-0600 (Central Standard Time),260383.8999999985,A,cabi,I,i,102,1,4198.39999999851,256185.5,8020,WL,B,6.0
2,16.110999822616577,learn,43889.00017738342,Wed Jan 29 2025 11:48:40 GMT-0600 (Central Standard Time),260550.3999999985,A,cabin,I,n,155,1,4364.89999999851,256185.5,8020,WL,B,6.0
2,16.643999814987183,learn,43356.00018501282,Wed Jan 29 2025 11:48:40 GMT-0600 (Central Standard Time),261083.5,A,cabinenter,I,enter,517,1,4898.0,256185.5,8020,WL,B,6.0
2,18.759999990463257,learn,41240.00000953674,Wed Jan 29 2025 11:48:40 GMT-0600 (Central Standard Time),263199.6000000015,A,d,I,d,2095,1,2115.8000000044703,261083.79999999702,8020,WL,B,7.0
2,18.99399995803833,learn,41006.00004196167,Wed Jan 29 2025 11:48:40 GMT-0600 (Central Standard Time),263432.700000003,A,do,I,o,219,1,2348.9000000059605,261083.79999999702,8020,WL,B,7.0
2,19.109999895095825,learn,40890.000104904175,Wed Jan 29 2025 11:48:40 GMT-0600 (Central Standard Time),263549.3999999985,A,doo,I,o,98,1,2465.60000000149,261083.79999999702,8020,WL,B,7.0
2,19.378000020980835,learn,40621.999979019165,Wed Jan 29 2025 11:48:40 GMT-0600 (Central Standard Time),263817.299999997,A,door,I,r,253,1,2733.5,261083.79999999702,8020,WL,B,7.0
2,20.759999990463257,learn,39240.00000953674,Wed Jan 29 2025 11:48:40 GMT-0600 (Central Standard Time),265198.799999997,A,doorenter,I,enter,1369,1,4115.0,261083.79999999702,8020,WL,B,7.0
2,21.05999994277954,learn,38940.00005722046,Wed Jan 29 2025 11:48:40 GMT-0600 (Central Standard Time),265498.799999997,A,c,I,c,284,1,299.5,265199.299999997,8020,WL,B,8.0
2,21.192999839782715,learn,38807.000160217285,Wed Jan 29 2025 11:48:40 GMT-0600 (Central Standard Time),265632.0,A,cl,I,l,120,1,432.70000000298023,265199.299999997,8020,WL,B,8.0
2,21.64299988746643,learn,38357.00011253357,Wed Jan 29 2025 11:48:40 GMT-0600 (Central Standard Time),266082.0,A,clo,I,o,435,1,882.7000000029802,265199.299999997,8020,WL,B,8.0
2,21.97599983215332,learn,38024.00016784668,Wed Jan 29 2025 11:48:40 GMT-0600 (Central Standard Time),266415.1000000015,A,cloc,I,c,321,1,1215.8000000044703,265199.299999997,8020,WL,B,8.0
2,22.14299988746643,learn,37857.00011253357,Wed Jan 29 2025 11:48:40 GMT-0600 (Central Standard Time),266581.799999997,A,clock,I,k,156,1,1382.5,265199.299999997,8020,WL,B,8.0
2,22.908999919891357,learn,37091.00008010864,Wed Jan 29 2025 11:48:40 GMT-0600 (Central Standard Time),267348.1000000015,A,clockenter,I,enter,749,1,2148.8000000044703,265199.299999997,8020,WL,B,8.0
2,23.45899987220764,learn,36541.00012779236,Wed Jan 29 2025 11:48:40 GMT-0600 (Central Standard Time),267898.200000003,A,c,I,c,543,1,549.7000000029802,267348.5,8020,WL,B,9.0
2,23.592999935150146,learn,36407.00006484985,Wed Jan 29 2025 11:48:40 GMT-0600 (Central Standard Time),268032.6000000015,A,ci,I,i,112,1,684.1000000014901,267348.5,8020,WL,B,9.0
2,23.842000007629395,learn,36157.999992370605,Wed Jan 29 2025 11:48:40 GMT-0600 (Central Standard Time),268280.8999999985,A,cit,I,t,233,1,932.3999999985099,267348.5,8020,WL,B,9.0
2,24.174999952316284,learn,35825.000047683716,Wed Jan 29 2025 11:48:40 GMT-0600 (Central Standard Time),268614.6000000015,A,city,I,y,314,1,1266.1000000014901,267348.5,8020,WL,B,9.0
2,24.592000007629395,learn,35407.999992370605,Wed Jan 29 2025 11:48:40 GMT-0600 (Central Standard Time),269031.200000003,A,cityenter,I,enter,404,1,1682.7000000029802,267348.5,8020,WL,B,9.0
2,32.98899984359741,learn,27011.000156402588,Wed Jan 29 2025 11:48:40 GMT-0600 (Central Standard Time),277428.3999999985,A,g,I,g,8388,1,8396.89999999851,269031.5,8020,WL,B,10.0
2,33.388999938964844,learn,26611.000061035156,Wed Jan 29 2025 11:48:40 GMT-0600 (Central Standard Time),277828.299999997,A,gr,I,r,383,1,8796.79999999702,269031.5,8020,WL,B,10.0
2,33.58899998664856,learn,26411.00001335144,Wed Jan 29 2025 11:48:40 GMT-0600 (Central Standard Time),278028.3999999985,A,gra,I,a,190,1,8996.89999999851,269031.5,8020,WL,B,10.0
2,34.10599994659424,learn,25894.00005340576,Wed Jan 29 2025 11:48:40 GMT-0600 (Central Standard Time),278544.8999999985,A,gras,I,s,494,1,9513.39999999851,269031.5,8020,WL,B,10.0
2,34.33999991416931,learn,25660.00008583069,Wed Jan 29 2025 11:48:40 GMT-0600 (Central Standard Time),278778.8999999985,A,grass,I,s,218,1,9747.39999999851,269031.5,8020,WL,B,10.0
2,34.73899984359741,learn,25261.000156402588,Wed Jan 29 2025 11:48:40 GMT-0600 (Central Standard Time),279178.0,A,grassenter,I,enter,377,1,10146.5,269031.5,8020,WL,B,10.0
2,44.98599982261658,learn,15014.000177383423,Wed Jan 29 2025 11:48:40 GMT-0600 (Central Standard Time),289424.700000003,A,enter,I,enter,10225,1,10246.30000000447,279178.3999999985,8020,WL,B,11.0
2,45.484999895095825,learn,14515.000104904175,Wed Jan 29 2025 11:48:40 GMT-0600 (Central Standard Time),289924.5,A,enter,I,enter,490,1,499.20000000298023,289425.299999997,8020,WL,B,12.0
2,45.984999895095825,learn,14015.000104904175,Wed Jan 29 2025 11:48:40 GMT-0600 (Central Standard Time),290424.3999999985,A,enter,I,enter,479,1,499.3999999985099,289925.0,8020,WL,B,13.0
2,46.401999950408936,learn,13598.000049591064,Wed Jan 29 2025 11:48:40 GMT-0600 (Central Standard Time),290841.1000000015,A,enter,I,enter,394,1,416.30000000447035,290424.799999997,8020,WL,B,14.0
2,47.001999855041504,learn,12998.000144958496,Wed Jan 29 2025 11:48:40 GMT-0600 (Central Standard Time),291440.8999999985,A,enter,I,enter,578,1,599.5,290841.3999999985,8020,WL,B,15.0
3,0.9500000476837158,learn,59049.999952316284,Wed Jan 29 2025 11:48:40 GMT-0600 (Central Standard Time),361585.3999999985,A,p,I,p,935,1,949.6000000014901,360635.799999997,8020,WL,B,1.0
3,1.3659999370574951,learn,58634.000062942505,Wed Jan 29 2025 11:48:40 GMT-0600 (Central Standard Time),362001.8999999985,A,pi,I,i,401,1,1366.1000000014901,360635.799999997,8020,WL,B,1.0
3,1.7330000400543213,learn,58266.99995994568,Wed Jan 29 2025 11:48:40 GMT-0600 (Central Standard Time),362368.799999997,A,pip,I,p,353,1,1733.0,360635.799999997,8020,WL,B,1.0
3,2.2839999198913574,learn,57716.00008010864,Wed Jan 29 2025 11:48:40 GMT-0600 (Central Standard Time),362919.5,A,pipe,I,e,530,1,2283.7000000029802,360635.799999997,8020,WL,B,1.0
3,4.73199987411499,learn,55268.00012588501,Wed Jan 29 2025 11:48:40 GMT-0600 (Central Standard Time),365367.6000000015,A,pipeenter,I,enter,2435,1,4731.80000000447,360635.799999997,8020,WL,B,1.0
3,5.514999866485596,learn,54485.000133514404,Wed Jan 29 2025 11:48:40 GMT-0600 (Central Standard Time),366150.700000003,A,d,I,d,764,1,782.8000000044703,365367.8999999985,8020,WL,B,2.0
3,5.73199987411499,learn,54268.00012588501,Wed Jan 29 2025 11:48:40 GMT-0600 (Central Standard Time),366367.299999997,A,do,I,o,204,1,999.3999999985099,365367.8999999985,8020,WL,B,2.0
3,5.898999929428101,learn,54101.0000705719,Wed Jan 29 2025 11:48:40 GMT-0600 (Central Standard Time),366534.0,A,doo,I,o,148,1,1166.1000000014901,365367.8999999985,8020,WL,B,2.0
3,6.0980000495910645,learn,53901.999950408936,Wed Jan 29 2025 11:48:40 GMT-0600 (Central Standard Time),366734.0,A,door,I,r,189,1,1366.1000000014901,365367.8999999985,8020,WL,B,2.0
3,6.414999961853027,learn,53585.00003814697,Wed Jan 29 2025 11:48:40 GMT-0600 (Central Standard Time),367050.5,A,doorenter,I,enter,309,1,1682.6000000014901,365367.8999999985,8020,WL,B,2.0
3,6.865000009536743,learn,53134.99999046326,Wed Jan 29 2025 11:48:40 GMT-0600 (Central Standard Time),367500.200000003,A,a,I,a,440,1,449.5,367050.700000003,8020,WL,B,3.0
3,7.081000089645386,learn,52918.999910354614,Wed Jan 29 2025 11:48:40 GMT-0600 (Central Standard Time),367716.8999999985,A,ar,I,r,198,1,666.1999999955297,367050.700000003,8020,WL,B,3.0
3,7.565000057220459,learn,52434.99994277954,Wed Jan 29 2025 11:48:40 GMT-0600 (Central Standard Time),368200.0,A,arm,I,m,470,1,1149.2999999970198,367050.700000003,8020,WL,B,3.0
3,8.030999898910522,learn,51969.00010108948,Wed Jan 29 2025 11:48:40 GMT-0600 (Central Standard Time),368666.6000000015,A,armenter,I,enter,450,1,1615.8999999985099,367050.700000003,8020,WL,B,3.0
3,8.730999946594238,learn,51269.00005340576,Wed Jan 29 2025 11:48:40 GMT-0600 (Central Standard Time),369366.299999997,A,d,I,d,680,1,699.5,368666.799999997,8020,WL,B,4.0
3,8.88100004196167,learn,51118.99995803833,Wed Jan 29 2025 11:48:40 GMT-0600 (Central Standard Time),369516.299999997,A,dk,I,k,132,1,849.5,368666.799999997,8020,WL,B,4.0
3,9.147000074386597,learn,50852.9999256134,Wed Jan 29 2025 11:48:40 GMT-0600 (Central Standard Time),369782.799999997,A,dki,I,i,254,1,1116.0,368666.799999997,8020,WL,B,4.0
3,9.346999883651733,learn,50653.00011634827,Wed Jan 29 2025 11:48:40 GMT-0600 (Central Standard Time),369982.799999997,A,dkin,I,n,181,1,1316.0,368666.799999997,8020,WL,B,4.0
3,10.246999979019165,learn,49753.000020980835,Wed Jan 29 2025 11:48:40 GMT-0600 (Central Standard Time),370882.6000000015,A,dki,I,backspace,885,1,2215.8000000044703,368666.799999997,8020,WL,B,4.0
3,10.430000066757202,learn,49569.9999332428,Wed Jan 29 2025 11:48:40 GMT-0600 (Central Standard Time),371065.700000003,A,dk,I,backspace,169,1,2398.9000000059605,368666.799999997,8020,WL,B,4.0
3,10.563999891281128,learn,49436.00010871887,Wed Jan 29 2025 11:48:40 GMT-0600 (Central Standard Time),371199.299999997,A,d,I,backspace,113,1,2532.5,368666.799999997,8020,WL,B,4.0
3,10.864000082015991,learn,49135.99991798401,Wed Jan 29 2025 11:48:40 GMT-0600 (Central Standard Time),371499.0,A,,I,backspace,284,1,2832.2000000029802,368666.799999997,8020,WL,B,4.0
3,11.61299991607666,learn,48387.00008392334,Wed Jan 29 2025 11:48:40 GMT-0600 (Central Standard Time),372248.799999997,A,s,I,s,728,1,3582.0,368666.799999997,8020,WL,B,4.0
3,11.713000059127808,learn,48286.99994087219,Wed Jan 29 2025 11:48:40 GMT-0600 (Central Standard Time),372348.799999997,A,sk,I,k,90,1,3682.0,368666.799999997,8020,WL,B,4.0
3,11.94700002670288,learn,48052.99997329712,Wed Jan 29 2025 11:48:40 GMT-0600 (Central Standard Time),372582.0,A,ski,I,i,215,1,3915.2000000029802,368666.799999997,8020,WL,B,4.0
3,12.11299991607666,learn,47887.00008392334,Wed Jan 29 2025 11:48:40 GMT-0600 (Central Standard Time),372748.6000000015,A,skin,I,n,156,1,4081.8000000044703,368666.799999997,8020,WL,B,4.0
3,12.513000011444092,learn,47486.99998855591,Wed Jan 29 2025 11:48:40 GMT-0600 (Central Standard Time),373148.299999997,A,skinenter,I,enter,381,1,4481.5,368666.799999997,8020,WL,B,4.0
3,14.145999908447266,learn,45854.000091552734,Wed Jan 29 2025 11:48:40 GMT-0600 (Central Standard Time),374781.299999997,A,p,I,p,1622,1,1632.7999999970198,373148.5,8020,WL,B,5.0
3,14.428999900817871,learn,45571.00009918213,Wed Jan 29 2025 11:48:40 GMT-0600 (Central Standard Time),375064.6000000015,A,pu,I,u,269,1,1916.1000000014901,373148.5,8020,WL,B,5.0
3,14.662999868392944,learn,45337.000131607056,Wed Jan 29 2025 11:48:40 GMT-0600 (Central Standard Time),375298.1000000015,A,pup,I,p,226,1,2149.60000000149,373148.5,8020,WL,B,5.0
3,15.078999996185303,learn,44921.0000038147,Wed Jan 29 2025 11:48:40 GMT-0600 (Central Standard Time),375714.200000003,A,pupi,I,i,409,1,2565.7000000029802,373148.5,8020,WL,B,5.0
3,15.361999988555908,learn,44638.00001144409,Wed Jan 29 2025 11:48:40 GMT-0600 (Central Standard Time),375997.799999997,A,pupil,I,l,264,1,2849.2999999970198,373148.5,8020,WL,B,5.0
3,15.911999940872192,learn,44088.00005912781,Wed Jan 29 2025 11:48:40 GMT-0600 (Central Standard Time),376547.299999997,A,pupilenter,I,enter,533,1,3398.7999999970198,373148.5,8020,WL,B,5.0
3,16.527999877929688,learn,43472.00012207031,Wed Jan 29 2025 11:48:40 GMT-0600 (Central Standard Time),377163.700000003,A,g,I,g,608,1,616.1000000014901,376547.6000000015,8020,WL,B,6.0
3,16.84599995613098,learn,43154.00004386902,Wed Jan 29 2025 11:48:40 GMT-0600 (Central Standard Time),377481.6000000015,A,gr,I,r,296,1,934.0,376547.6000000015,8020,WL,B,6.0
3,16.994999885559082,learn,43005.00011444092,Wed Jan 29 2025 11:48:40 GMT-0600 (Central Standard Time),377630.5,A,gra,I,a,137,1,1082.8999999985099,376547.6000000015,8020,WL,B,6.0
3,17.34500002861023,learn,42654.99997138977,Wed Jan 29 2025 11:48:40 GMT-0600 (Central Standard Time),377980.299999997,A,gras,I,s,341,1,1432.6999999955297,376547.6000000015,8020,WL,B,6.0
3,17.57800006866455,learn,42421.99993133545,Wed Jan 29 2025 11:48:40 GMT-0600 (Central Standard Time),378213.5,A,grass,I,s,214,1,1665.8999999985099,376547.6000000015,8020,WL,B,6.0
3,18.560999870300293,learn,41439.00012969971,Wed Jan 29 2025 11:48:40 GMT-0600 (Central Standard Time),379196.3999999985,A,grassenter,I,enter,965,1,2648.7999999970198,376547.6000000015,8020,WL,B,6.0
3,19.043999910354614,learn,40956.000089645386,Wed Jan 29 2025 11:48:40 GMT-0600 (Central Standard Time),379679.799999997,A,c,I,c,462,1,483.09999999403954,379196.700000003,8020,WL,B,7.0
3,19.244999885559082,learn,40755.00011444092,Wed Jan 29 2025 11:48:40 GMT-0600 (Central Standard Time),379880.8999999985,A,ca,I,a,187,1,684.1999999955297,379196.700000003,8020,WL,B,7.0
3,20.0939998626709,learn,39906.0001373291,Wed Jan 29 2025 11:48:40 GMT-0600 (Central Standard Time),380729.200000003,A,cab,I,b,834,1,1532.5,379196.700000003,8020,WL,B,7.0
3,20.276999950408936,learn,39723.000049591064,Wed Jan 29 2025 11:48:40 GMT-0600 (Central Standard Time),380912.6000000015,A,cabi,I,i,166,1,1715.8999999985099,379196.700000003,8020,WL,B,7.0
3,20.47699999809265,learn,39523.00000190735,Wed Jan 29 2025 11:48:40 GMT-0600 (Central Standard Time),381112.8999999985,A,cabin,I,n,178,1,1916.1999999955297,379196.700000003,8020,WL,B,7.0
3,20.99399995803833,learn,39006.00004196167,Wed Jan 29 2025 11:48:40 GMT-0600 (Central Standard Time),381629.299999997,A,cabinenter,I,enter,506,1,2432.5999999940395,379196.700000003,8020,WL,B,7.0
3,24.243000030517578,learn,35756.99996948242,Wed Jan 29 2025 11:48:40 GMT-0600 (Central Standard Time),384878.1000000015,A,d,I,d,3229,1,3248.39999999851,381629.700000003,8020,WL,B,8.0
3,24.408999919891357,learn,35591.00008010864,Wed Jan 29 2025 11:48:40 GMT-0600 (Central Standard Time),385044.799999997,A,do,I,o,149,1,3415.0999999940395,381629.700000003,8020,WL,B,8.0
3,24.55900001525879,learn,35440.99998474121,Wed Jan 29 2025 11:48:40 GMT-0600 (Central Standard Time),385194.799999997,A,doo,I,o,134,1,3565.0999999940395,381629.700000003,8020,WL,B,8.0
3,24.858999967575073,learn,35141.00003242493,Wed Jan 29 2025 11:48:40 GMT-0600 (Central Standard Time),385494.700000003,A,door,I,r,288,1,3865.0,381629.700000003,8020,WL,B,8.0
3,25.276000022888184,learn,34723.99997711182,Wed Jan 29 2025 11:48:40 GMT-0600 (Central Standard Time),385911.200000003,A,doorenter,I,enter,396,1,4281.5,381629.700000003,8020,WL,B,8.0
3,26.759000062942505,learn,33240.999937057495,Wed Jan 29 2025 11:48:40 GMT-0600 (Central Standard Time),387394.299999997,A,s,I,s,1468,1,1482.7999999970198,385911.5,8020,WL,B,9.0
3,27.009000062942505,learn,32990.999937057495,Wed Jan 29 2025 11:48:40 GMT-0600 (Central Standard Time),387644.0,A,st,I,t,240,1,1732.5,385911.5,8020,WL,B,9.0
3,27.358999967575073,learn,32641.000032424927,Wed Jan 29 2025 11:48:40 GMT-0600 (Central Standard Time),387994.0,A,str,I,r,335,1,2082.5,385911.5,8020,WL,B,9.0
3,27.625,learn,32375.0,Wed Jan 29 2025 11:48:40 GMT-0600 (Central Standard Time),388260.5,A,stre,I,e,249,1,2349.0,385911.5,8020,WL,B,9.0
3,27.776000022888184,learn,32223.999977111816,Wed Jan 29 2025 11:48:40 GMT-0600 (Central Standard Time),388411.6000000015,A,stree,I,e,134,1,2500.10000000149,385911.5,8020,WL,B,9.0
3,27.941999912261963,learn,32058.000087738037,Wed Jan 29 2025 11:48:40 GMT-0600 (Central Standard Time),388577.0,A,street,I,t,143,1,2665.5,385911.5,8020,WL,B,9.0
3,28.54099988937378,learn,31459.00011062622,Wed Jan 29 2025 11:48:40 GMT-0600 (Central Standard Time),389176.700000003,A,streetenter,I,enter,578,1,3265.2000000029802,385911.5,8020,WL,B,9.0
3,33.35699987411499,learn,26643.00012588501,Wed Jan 29 2025 11:48:40 GMT-0600 (Central Standard Time),393992.1000000015,A,w,I,w,4794,1,4815.10000000149,389177.0,8020,WL,B,10.0
3,33.50699996948242,learn,26493.000030517578,Wed Jan 29 2025 11:48:40 GMT-0600 (Central Standard Time),394142.0,A,wi,I,i,139,1,4965.0,389177.0,8020,WL,B,10.0
3,33.74000000953674,learn,26259.999990463257,Wed Jan 29 2025 11:48:40 GMT-0600 (Central Standard Time),394375.1000000015,A,wif,I,f,213,1,5198.10000000149,389177.0,8020,WL,B,10.0
3,34.206000089645386,learn,25793.999910354614,Wed Jan 29 2025 11:48:40 GMT-0600 (Central Standard Time),394841.8999999985,A,wife,I,e,451,1,5664.89999999851,389177.0,8020,WL,B,10.0
3,34.62299990653992,learn,25377.000093460083,Wed Jan 29 2025 11:48:40 GMT-0600 (Central Standard Time),395258.200000003,A,wifeenter,I,enter,409,1,6081.20000000298,389177.0,8020,WL,B,10.0
3,40.187999963760376,learn,19812.000036239624,Wed Jan 29 2025 11:48:40 GMT-0600 (Central Standard Time),400823.1000000015,A,c,I,c,5553,1,5564.60000000149,395258.5,8020,WL,B,11.0
3,40.58699989318848,learn,19413.000106811523,Wed Jan 29 2025 11:48:40 GMT-0600 (Central Standard Time),401222.8999999985,A,cl,I,l,388,1,5964.39999999851,395258.5,8020,WL,B,11.0
3,41.05399990081787,learn,18946.00009918213,Wed Jan 29 2025 11:48:40 GMT-0600 (Central Standard Time),401689.700000003,A,clo,I,o,453,1,6431.20000000298,395258.5,8020,WL,B,11.0
3,41.854000091552734,learn,18145.999908447266,Wed Jan 29 2025 11:48:40 GMT-0600 (Central Standard Time),402489.5,A,cloc,I,c,777,1,7231.0,395258.5,8020,WL,B,11.0
3,41.97099995613098,learn,18029.00004386902,Wed Jan 29 2025 11:48:40 GMT-0600 (Central Standard Time),402606.0,A,clock,I,k,97,1,7347.5,395258.5,8020,WL,B,11.0
3,42.58699989318848,learn,17413.000106811523,Wed Jan 29 2025 11:48:40 GMT-0600 (Central Standard Time),403222.3999999985,A,clockenter,I,enter,596,1,7963.89999999851,395258.5,8020,WL,B,11.0
3,60.014999866485596,learn,-14.999866485595703,Wed Jan 29 2025 11:48:40 GMT-0600 (Central Standard Time),420650.700000003,A,None,I,None,17421,1,17428.0,403222.700000003,8020,WL,B,12.0
4,0.748999834060669,learn,59251.00016593933,Wed Jan 29 2025 11:48:40 GMT-0600 (Central Standard Time),487096.200000003,A,s,I,s,737,1,749.5,486346.700000003,8020,WL,B,1.0
4,1.248999834060669,learn,58751.00016593933,Wed Jan 29 2025 11:48:40 GMT-0600 (Central Standard Time),487596.0,A,st,I,t,491,1,1249.2999999970198,486346.700000003,8020,WL,B,1.0
4,1.6989998817443848,learn,58301.000118255615,Wed Jan 29 2025 11:48:40 GMT-0600 (Central Standard Time),488046.0,A,sta,I,a,431,1,1699.2999999970198,486346.700000003,8020,WL,B,1.0
4,1.8819999694824219,learn,58118.00003051758,Wed Jan 29 2025 11:48:40 GMT-0600 (Central Standard Time),488229.1000000015,A,star,I,r,173,1,1882.3999999985099,486346.700000003,8020,WL,B,1.0
4,2.8989999294281006,learn,57101.0000705719,Wed Jan 29 2025 11:48:40 GMT-0600 (Central Standard Time),489245.3999999985,A,starenter,I,enter,998,1,2898.6999999955297,486346.700000003,8020,WL,B,1.0
4,3.4649999141693115,learn,56535.00008583069,Wed Jan 29 2025 11:48:40 GMT-0600 (Central Standard Time),489812.0,A,w,I,w,549,1,566.2999999970198,489245.700000003,8020,WL,B,2.0
4,3.5989999771118164,learn,56401.00002288818,Wed Jan 29 2025 11:48:40 GMT-0600 (Central Standard Time),489945.3999999985,A,wi,I,i,111,1,699.6999999955297,489245.700000003,8020,WL,B,2.0
4,3.747999906539917,learn,56252.00009346008,Wed Jan 29 2025 11:48:40 GMT-0600 (Central Standard Time),490095.200000003,A,win,I,n,137,1,849.5,489245.700000003,8020,WL,B,2.0
4,3.997999906539917,learn,56002.00009346008,Wed Jan 29 2025 11:48:40 GMT-0600 (Central Standard Time),490345.1000000015,A,wind,I,d,227,1,1099.3999999985099,489245.700000003,8020,WL,B,2.0
4,4.247999906539917,learn,55752.00009346008,Wed Jan 29 2025 11:48:40 GMT-0600 (Central Standard Time),490595.1000000015,A,windo,I,o,234,1,1349.3999999985099,489245.700000003,8020,WL,B,2.0
4,4.414999961853027,learn,55585.00003814697,Wed Jan 29 2025 11:48:40 GMT-0600 (Central Standard Time),490761.799999997,A,window,I,w,150,1,1516.0999999940395,489245.700000003,8020,WL,B,2.0
4,4.98199987411499,learn,55018.00012588501,Wed Jan 29 2025 11:48:40 GMT-0600 (Central Standard Time),491328.200000003,A,windowenter,I,enter,553,1,2082.5,489245.700000003,8020,WL,B,2.0
4,5.63100004196167,learn,54368.99995803833,Wed Jan 29 2025 11:48:40 GMT-0600 (Central Standard Time),491978.1000000015,A,s,I,s,627,1,649.5,491328.6000000015,8020,WL,B,3.0
4,6.180999994277954,learn,53819.000005722046,Wed Jan 29 2025 11:48:40 GMT-0600 (Central Standard Time),492527.8999999985,A,,I,backspace,536,1,1199.2999999970198,491328.6000000015,8020,WL,B,3.0
4,6.730999946594238,learn,53269.00005340576,Wed Jan 29 2025 11:48:40 GMT-0600 (Central Standard Time),493077.700000003,A,c,I,c,539,1,1749.1000000014901,491328.6000000015,8020,WL,B,3.0
4,6.914000034332275,learn,53085.999965667725,Wed Jan 29 2025 11:48:40 GMT-0600 (Central Standard Time),493261.1000000015,A,ci,I,i,165,1,1932.5,491328.6000000015,8020,WL,B,3.0
4,7.146999835968018,learn,52853.00016403198,Wed Jan 29 2025 11:48:40 GMT-0600 (Central Standard Time),493494.200000003,A,cit,I,t,214,1,2165.60000000149,491328.6000000015,8020,WL,B,3.0
4,7.363999843597412,learn,52636.00015640259,Wed Jan 29 2025 11:48:40 GMT-0600 (Central Standard Time),493710.8999999985,A,city,I,y,205,1,2382.2999999970198,491328.6000000015,8020,WL,B,3.0
4,7.746999979019165,learn,52253.000020980835,Wed Jan 29 2025 11:48:40 GMT-0600 (Central Standard Time),494094.0,A,cityenter,I,enter,364,1,2765.39999999851,491328.6000000015,8020,WL,B,3.0
4,9.996999979019165,learn,50003.000020980835,Wed Jan 29 2025 11:48:40 GMT-0600 (Central Standard Time),496343.5,A,c,I,c,2237,1,2249.10000000149,494094.3999999985,8020,WL,B,4.0
4,10.162999868392944,learn,49837.000131607056,Wed Jan 29 2025 11:48:40 GMT-0600 (Central Standard Time),496509.799999997,A,ca,I,a,147,1,2415.39999999851,494094.3999999985,8020,WL,B,4.0
4,10.595999956130981,learn,49404.00004386902,Wed Jan 29 2025 11:48:40 GMT-0600 (Central Standard Time),496943.0,A,cab,I,b,414,1,2848.60000000149,494094.3999999985,8020,WL,B,4.0
4,10.763000011444092,learn,49236.99998855591,Wed Jan 29 2025 11:48:40 GMT-0600 (Central Standard Time),497109.799999997,A,cabi,I,i,156,1,3015.39999999851,494094.3999999985,8020,WL,B,4.0
4,10.929999828338623,learn,49070.00017166138,Wed Jan 29 2025 11:48:40 GMT-0600 (Central Standard Time),497276.3999999985,A,cabin,I,n,149,1,3182.0,494094.3999999985,8020,WL,B,4.0
4,11.428999900817871,learn,48571.00009918213,Wed Jan 29 2025 11:48:40 GMT-0600 (Central Standard Time),497776.0,A,cabinenter,I,enter,486,1,3681.60000000149,494094.3999999985,8020,WL,B,4.0
4,12.845999956130981,learn,47154.00004386902,Wed Jan 29 2025 11:48:40 GMT-0600 (Central Standard Time),499192.5,A,p,I,p,1403,1,1416.1000000014901,497776.3999999985,8020,WL,B,5.0
4,13.046000003814697,learn,46953.9999961853,Wed Jan 29 2025 11:48:40 GMT-0600 (Central Standard Time),499392.3999999985,A,pu,I,u,178,1,1616.0,497776.3999999985,8020,WL,B,5.0
4,13.26199984550476,learn,46738.00015449524,Wed Jan 29 2025 11:48:40 GMT-0600 (Central Standard Time),499609.1000000015,A,pup,I,p,195,1,1832.7000000029802,497776.3999999985,8020,WL,B,5.0
4,13.494999885559082,learn,46505.00011444092,Wed Jan 29 2025 11:48:40 GMT-0600 (Central Standard Time),499842.0,A,pupo,I,o,217,1,2065.60000000149,497776.3999999985,8020,WL,B,5.0
4,14.09500002861023,learn,45904.99997138977,Wed Jan 29 2025 11:48:40 GMT-0600 (Central Standard Time),500441.8999999985,A,pup,I,backspace,585,1,2665.5,497776.3999999985,8020,WL,B,5.0
4,14.76199984550476,learn,45238.00015449524,Wed Jan 29 2025 11:48:40 GMT-0600 (Central Standard Time),501108.6000000015,A,pupi,I,i,649,1,3332.2000000029802,497776.3999999985,8020,WL,B,5.0
4,14.977999925613403,learn,45022.0000743866,Wed Jan 29 2025 11:48:40 GMT-0600 (Central Standard Time),501325.0,A,pupil,I,l,198,1,3548.60000000149,497776.3999999985,8020,WL,B,5.0
4,15.711999893188477,learn,44288.00010681152,Wed Jan 29 2025 11:48:40 GMT-0600 (Central Standard Time),502058.3999999985,A,pupilenter,I,enter,710,1,4282.0,497776.3999999985,8020,WL,B,5.0
4,16.360999822616577,learn,43639.00017738342,Wed Jan 29 2025 11:48:40 GMT-0600 (Central Standard Time),502708.0,A,w,I,w,641,1,649.2999999970198,502058.700000003,8020,WL,B,6.0
4,16.42799997329712,learn,43572.00002670288,Wed Jan 29 2025 11:48:40 GMT-0600 (Central Standard Time),502774.8999999985,A,wi,I,i,55,1,716.1999999955297,502058.700000003,8020,WL,B,6.0
4,16.57799983024597,learn,43422.00016975403,Wed Jan 29 2025 11:48:40 GMT-0600 (Central Standard Time),502924.700000003,A,win,I,n,131,1,866.0,502058.700000003,8020,WL,B,6.0
4,16.74399995803833,learn,43256.00004196167,Wed Jan 29 2025 11:48:40 GMT-0600 (Central Standard Time),503091.299999997,A,wind,I,d,150,1,1032.5999999940395,502058.700000003,8020,WL,B,6.0
4,17.044999837875366,learn,42955.000162124634,Wed Jan 29 2025 11:48:40 GMT-0600 (Central Standard Time),503391.299999997,A,windo,I,o,279,1,1332.5999999940395,502058.700000003,8020,WL,B,6.0
4,17.39400005340576,learn,42605.99994659424,Wed Jan 29 2025 11:48:40 GMT-0600 (Central Standard Time),503741.0,A,window,I,w,339,1,1682.2999999970198,502058.700000003,8020,WL,B,6.0
4,17.960999965667725,learn,42039.000034332275,Wed Jan 29 2025 11:48:40 GMT-0600 (Central Standard Time),504307.3999999985,A,windowenter,I,enter,549,1,2248.6999999955297,502058.700000003,8020,WL,B,6.0
4,18.793999910354614,learn,41206.000089645386,Wed Jan 29 2025 11:48:40 GMT-0600 (Central Standard Time),505140.5,A,g,I,g,824,1,832.7000000029802,504307.799999997,8020,WL,B,7.0
4,19.07699990272522,learn,40923.00009727478,Wed Jan 29 2025 11:48:40 GMT-0600 (Central Standard Time),505423.799999997,A,gr,I,r,263,1,1116.0,504307.799999997,8020,WL,B,7.0
4,19.210000038146973,learn,40789.99996185303,Wed Jan 29 2025 11:48:40 GMT-0600 (Central Standard Time),505557.0,A,gra,I,a,115,1,1249.2000000029802,504307.799999997,8020,WL,B,7.0
4,19.509999990463257,learn,40490.00000953674,Wed Jan 29 2025 11:48:40 GMT-0600 (Central Standard Time),505857.1000000015,A,gras,I,s,286,1,1549.3000000044703,504307.799999997,8020,WL,B,7.0
4,19.710000038146973,learn,40289.99996185303,Wed Jan 29 2025 11:48:40 GMT-0600 (Central Standard Time),506057.0,A,grass,I,s,186,1,1749.2000000029802,504307.799999997,8020,WL,B,7.0
4,20.542999982833862,learn,39457.00001716614,Wed Jan 29 2025 11:48:40 GMT-0600 (Central Standard Time),506890.299999997,A,grassenter,I,enter,817,1,2582.5,504307.799999997,8020,WL,B,7.0
4,21.15999984741211,learn,38840.00015258789,Wed Jan 29 2025 11:48:40 GMT-0600 (Central Standard Time),507506.6000000015,A,s,I,s,601,1,616.1000000014901,506890.5,8020,WL,B,8.0
4,21.425999879837036,learn,38574.000120162964,Wed Jan 29 2025 11:48:40 GMT-0600 (Central Standard Time),507772.8999999985,A,st,I,t,246,1,882.3999999985099,506890.5,8020,WL,B,8.0
4,21.743000030517578,learn,38256.99996948242,Wed Jan 29 2025 11:48:40 GMT-0600 (Central Standard Time),508089.700000003,A,str,I,r,294,1,1199.2000000029802,506890.5,8020,WL,B,8.0
4,22.026000022888184,learn,37973.99997711182,Wed Jan 29 2025 11:48:40 GMT-0600 (Central Standard Time),508373.0,A,stre,I,e,264,1,1482.5,506890.5,8020,WL,B,8.0
4,22.20899987220764,learn,37791.00012779236,Wed Jan 29 2025 11:48:40 GMT-0600 (Central Standard Time),508556.1000000015,A,stree,I,e,166,1,1665.6000000014901,506890.5,8020,WL,B,8.0
4,22.47599983215332,learn,37524.00016784668,Wed Jan 29 2025 11:48:40 GMT-0600 (Central Standard Time),508822.700000003,A,street,I,t,254,1,1932.2000000029802,506890.5,8020,WL,B,8.0
4,23.158999919891357,learn,36841.00008010864,Wed Jan 29 2025 11:48:40 GMT-0600 (Central Standard Time),509505.799999997,A,streetenter,I,enter,660,1,2615.2999999970198,506890.5,8020,WL,B,8.0
4,24.424999952316284,learn,35575.000047683716,Wed Jan 29 2025 11:48:40 GMT-0600 (Central Standard Time),510772.1000000015,A,w,I,w,1257,1,1265.8999999985099,509506.200000003,8020,WL,B,9.0
4,24.575000047683716,learn,35424.999952316284,Wed Jan 29 2025 11:48:40 GMT-0600 (Central Standard Time),510922.0,A,wi,I,i,135,1,1415.7999999970198,509506.200000003,8020,WL,B,9.0
4,24.825000047683716,learn,35174.999952316284,Wed Jan 29 2025 11:48:40 GMT-0600 (Central Standard Time),511172.200000003,A,wif,I,f,233,1,1666.0,509506.200000003,8020,WL,B,9.0
4,25.04200005531311,learn,34957.99994468689,Wed Jan 29 2025 11:48:40 GMT-0600 (Central Standard Time),511388.6000000015,A,wife,I,e,199,1,1882.3999999985099,509506.200000003,8020,WL,B,9.0
4,25.307999849319458,learn,34692.00015068054,Wed Jan 29 2025 11:48:40 GMT-0600 (Central Standard Time),511655.200000003,A,wifeenter,I,enter,254,1,2149.0,509506.200000003,8020,WL,B,9.0
4,30.572999954223633,learn,29427.000045776367,Wed Jan 29 2025 11:48:40 GMT-0600 (Central Standard Time),516920.200000003,A,c,I,c,5244,1,5264.60000000149,511655.6000000015,8020,WL,B,10.0
4,30.68999981880188,learn,29310.00018119812,Wed Jan 29 2025 11:48:40 GMT-0600 (Central Standard Time),517036.8999999985,A,ci,I,i,105,1,5381.29999999702,511655.6000000015,8020,WL,B,10.0
4,30.93999981880188,learn,29060.00018119812,Wed Jan 29 2025 11:48:40 GMT-0600 (Central Standard Time),517286.799999997,A,cit,I,t,238,1,5631.19999999553,511655.6000000015,8020,WL,B,10.0
4,31.10699987411499,learn,28893.00012588501,Wed Jan 29 2025 11:48:40 GMT-0600 (Central Standard Time),517453.299999997,A,city,I,y,149,1,5797.69999999553,511655.6000000015,8020,WL,B,10.0
4,31.555999994277954,learn,28444.000005722046,Wed Jan 29 2025 11:48:40 GMT-0600 (Central Standard Time),517903.200000003,A,cityenter,I,enter,438,1,6247.60000000149,511655.6000000015,8020,WL,B,10.0
4,34.27199983596802,learn,25728.000164031982,Wed Jan 29 2025 11:48:40 GMT-0600 (Central Standard Time),520619.200000003,A,a,I,a,2700,1,2715.7000000029802,517903.5,8020,WL,B,11.0
4,34.45599985122681,learn,25544.000148773193,Wed Jan 29 2025 11:48:40 GMT-0600 (Central Standard Time),520802.5,A,ar,I,r,159,1,2899.0,517903.5,8020,WL,B,11.0
4,34.77199983596802,learn,25228.000164031982,Wed Jan 29 2025 11:48:40 GMT-0600 (Central Standard Time),521118.8999999985,A,arm,I,m,296,1,3215.39999999851,517903.5,8020,WL,B,11.0
4,35.121999979019165,learn,24878.000020980835,Wed Jan 29 2025 11:48:40 GMT-0600 (Central Standard Time),521468.8999999985,A,armenter,I,enter,332,1,3565.39999999851,517903.5,8020,WL,B,11.0
4,40.63699984550476,learn,19363.00015449524,Wed Jan 29 2025 11:48:40 GMT-0600 (Central Standard Time),526983.799999997,A,f,I,f,5494,1,5514.5999999940395,521469.200000003,8020,WL,B,12.0
4,40.78699994087219,learn,19213.000059127808,Wed Jan 29 2025 11:48:40 GMT-0600 (Central Standard Time),527133.8999999985,A,fi,I,i,130,1,5664.69999999553,521469.200000003,8020,WL,B,12.0
4,40.937999963760376,learn,19062.000036239624,Wed Jan 29 2025 11:48:40 GMT-0600 (Central Standard Time),527284.700000003,A,fir,I,r,141,1,5815.5,521469.200000003,8020,WL,B,12.0
4,41.253000020980835,learn,18746.999979019165,Wed Jan 29 2025 11:48:40 GMT-0600 (Central Standard Time),527600.200000003,A,fire,I,e,294,1,6131.0,521469.200000003,8020,WL,B,12.0
4,41.519999980926514,learn,18480.000019073486,Wed Jan 29 2025 11:48:40 GMT-0600 (Central Standard Time),527866.700000003,A,fireenter,I,enter,251,1,6397.5,521469.200000003,8020,WL,B,12.0
4,54.615999937057495,learn,5384.000062942505,Wed Jan 29 2025 11:48:40 GMT-0600 (Central Standard Time),540963.1000000015,A,p,I,p,13080,1,13095.89999999851,527867.200000003,8020,WL,B,13.0
4,54.96499991416931,learn,5035.0000858306885,Wed Jan 29 2025 11:48:40 GMT-0600 (Central Standard Time),541312.3999999985,A,pi,I,i,335,1,13445.19999999553,527867.200000003,8020,WL,B,13.0
4,55.31499981880188,learn,4685.00018119812,Wed Jan 29 2025 11:48:40 GMT-0600 (Central Standard Time),541662.6000000015,A,pip,I,p,331,1,13795.39999999851,527867.200000003,8020,WL,B,13.0
4,55.79900002479553,learn,4200.999975204468,Wed Jan 29 2025 11:48:40 GMT-0600 (Central Standard Time),542146.0,A,pipw,I,w,461,1,14278.79999999702,527867.200000003,8020,WL,B,13.0
4,57.46499991416931,learn,2535.0000858306885,Wed Jan 29 2025 11:48:40 GMT-0600 (Central Standard Time),543812.0,A,pip,I,backspace,1649,1,15944.79999999702,527867.200000003,8020,WL,B,13.0
4,57.680999994277954,learn,2319.000005722046,Wed Jan 29 2025 11:48:40 GMT-0600 (Central Standard Time),544028.3999999985,A,pipe,I,e,199,1,16161.19999999553,527867.200000003,8020,WL,B,13.0
4,59.05999994277954,learn,940.000057220459,Wed Jan 29 2025 11:48:40 GMT-0600 (Central Standard Time),545407.6000000015,A,pipeenter,I,enter,1355,1,17540.39999999851,527867.200000003,8020,WL,B,13.0
4,60.013999938964844,learn,-13.99993896484375,Wed Jan 29 2025 11:48:40 GMT-0600 (Central Standard Time),546361.200000003,A,None,I,None,944,1,953.4000000059605,545407.799999997,8020,WL,B,14.0
5,1.25,learn,60000.0,Wed Jan 29 2025 11:48:40 GMT-0600 (Central Standard Time),613373.5,A,s,I,s,1240,1,1249.7999999970198,612123.700000003,8020,WL,B,1.0
5,1.6659998893737793,learn,60000.0,Wed Jan 29 2025 11:48:40 GMT-0600 (Central Standard Time),613790.1000000015,A,st,I,t,406,1,1666.3999999985099,612123.700000003,8020,WL,B,1.0
5,1.998999834060669,learn,60000.0,Wed Jan 29 2025 11:48:40 GMT-0600 (Central Standard Time),614122.8999999985,A,str,I,r,324,1,1999.1999999955297,612123.700000003,8020,WL,B,1.0
5,2.3329999446868896,learn,60000.0,Wed Jan 29 2025 11:48:40 GMT-0600 (Central Standard Time),614456.299999997,A,stre,I,e,320,1,2332.5999999940395,612123.700000003,8020,WL,B,1.0
5,2.5160000324249268,learn,60000.0,Wed Jan 29 2025 11:48:40 GMT-0600 (Central Standard Time),614639.6000000015,A,stree,I,e,171,1,2515.89999999851,612123.700000003,8020,WL,B,1.0
5,2.748999834060669,learn,60000.0,Wed Jan 29 2025 11:48:40 GMT-0600 (Central Standard Time),614872.8999999985,A,street,I,t,219,1,2749.1999999955297,612123.700000003,8020,WL,B,1.0
5,3.5160000324249268,learn,60000.0,Wed Jan 29 2025 11:48:40 GMT-0600 (Central Standard Time),615639.299999997,A,streetenter,I,enter,754,1,3515.5999999940395,612123.700000003,8020,WL,B,1.0
5,4.4649999141693115,learn,60000.0,Wed Jan 29 2025 11:48:40 GMT-0600 (Central Standard Time),616589.200000003,A,f,I,f,940,1,949.4000000059605,615639.799999997,8020,WL,B,2.0
5,5.414999961853027,learn,60000.0,Wed Jan 29 2025 11:48:40 GMT-0600 (Central Standard Time),617538.700000003,A,,I,backspace,935,1,1898.9000000059605,615639.799999997,8020,WL,B,2.0
5,6.06499981880188,learn,60000.0,Wed Jan 29 2025 11:48:40 GMT-0600 (Central Standard Time),618188.6000000015,A,g,I,g,632,1,2548.8000000044703,615639.799999997,8020,WL,B,2.0
5,6.380999803543091,learn,60000.0,Wed Jan 29 2025 11:48:40 GMT-0600 (Central Standard Time),618505.200000003,A,gr,I,r,294,1,2865.4000000059605,615639.799999997,8020,WL,B,2.0
5,6.5309998989105225,learn,60000.0,Wed Jan 29 2025 11:48:40 GMT-0600 (Central Standard Time),618655.1000000015,A,gra,I,a,138,1,3015.3000000044703,615639.799999997,8020,WL,B,2.0
5,6.880999803543091,learn,60000.0,Wed Jan 29 2025 11:48:40 GMT-0600 (Central Standard Time),619005.0,A,gras,I,s,340,1,3365.2000000029802,615639.799999997,8020,WL,B,2.0
5,7.080999851226807,learn,60000.0,Wed Jan 29 2025 11:48:40 GMT-0600 (Central Standard Time),619205.0,A,grass,I,s,181,1,3565.2000000029802,615639.799999997,8020,WL,B,2.0
5,7.830999851226807,learn,60000.0,Wed Jan 29 2025 11:48:40 GMT-0600 (Central Standard Time),619954.5,A,grassenter,I,enter,734,1,4314.70000000298,615639.799999997,8020,WL,B,2.0
5,8.763999938964844,learn,60000.0,Wed Jan 29 2025 11:48:40 GMT-0600 (Central Standard Time),620887.6000000015,A,a,I,a,912,1,932.8000000044703,619954.799999997,8020,WL,B,3.0
5,8.913999795913696,learn,60000.0,Wed Jan 29 2025 11:48:40 GMT-0600 (Central Standard Time),621037.700000003,A,ar,I,r,131,1,1082.9000000059605,619954.799999997,8020,WL,B,3.0
5,9.346999883651733,learn,60000.0,Wed Jan 29 2025 11:48:40 GMT-0600 (Central Standard Time),621470.8999999985,A,arm,I,m,413,1,1516.1000000014901,619954.799999997,8020,WL,B,3.0
5,9.846999883651733,learn,60000.0,Wed Jan 29 2025 11:48:40 GMT-0600 (Central Standard Time),621970.700000003,A,armenter,I,enter,476,1,2015.9000000059605,619954.799999997,8020,WL,B,3.0
5,11.495999813079834,learn,60000.0,Wed Jan 29 2025 11:48:40 GMT-0600 (Central Standard Time),623620.299999997,A,d,I,d,1641,1,1649.2999999970198,621971.0,8020,WL,B,4.0
5,11.679999828338623,learn,60000.0,Wed Jan 29 2025 11:48:40 GMT-0600 (Central Standard Time),623803.5,A,do,I,o,174,1,1832.5,621971.0,8020,WL,B,4.0
5,11.86299991607666,learn,60000.0,Wed Jan 29 2025 11:48:40 GMT-0600 (Central Standard Time),623986.6000000015,A,doo,I,o,176,1,2015.6000000014901,621971.0,8020,WL,B,4.0
5,12.078999996185303,learn,60000.0,Wed Jan 29 2025 11:48:40 GMT-0600 (Central Standard Time),624203.1000000015,A,door,I,r,208,1,2232.10000000149,621971.0,8020,WL,B,4.0
5,12.61299991607666,learn,60000.0,Wed Jan 29 2025 11:48:40 GMT-0600 (Central Standard Time),624736.3999999985,A,doorenter,I,enter,512,1,2765.39999999851,621971.0,8020,WL,B,4.0
5,13.178999900817871,learn,60000.0,Wed Jan 29 2025 11:48:40 GMT-0600 (Central Standard Time),625303.0,A,p,I,p,547,1,566.2000000029802,624736.799999997,8020,WL,B,5.0
5,13.51199984550476,learn,60000.0,Wed Jan 29 2025 11:48:40 GMT-0600 (Central Standard Time),625636.0,A,pi,I,i,323,1,899.2000000029802,624736.799999997,8020,WL,B,5.0
5,14.061999797821045,learn,60000.0,Wed Jan 29 2025 11:48:40 GMT-0600 (Central Standard Time),626186.1000000015,A,pip,I,p,535,1,1449.3000000044703,624736.799999997,8020,WL,B,5.0
5,14.861999988555908,learn,60000.0,Wed Jan 29 2025 11:48:40 GMT-0600 (Central Standard Time),626985.799999997,A,pipe,I,e,786,1,2249.0,624736.799999997,8020,WL,B,5.0
5,15.312999963760376,learn,60000.0,Wed Jan 29 2025 11:48:40 GMT-0600 (Central Standard Time),627436.6000000015,A,pipeenter,I,enter,441,1,2699.8000000044703,624736.799999997,8020,WL,B,5.0
5,16.71299982070923,learn,60000.0,Wed Jan 29 2025 11:48:40 GMT-0600 (Central Standard Time),628837.0,A,c,I,c,1391,1,1400.0,627437.0,8020,WL,B,6.0
5,16.894999980926514,learn,60000.0,Wed Jan 29 2025 11:48:40 GMT-0600 (Central Standard Time),629018.3999999985,A,cl,I,l,158,1,1581.3999999985099,627437.0,8020,WL,B,6.0
5,17.17799997329712,learn,60000.0,Wed Jan 29 2025 11:48:40 GMT-0600 (Central Standard Time),629301.799999997,A,clo,I,o,272,1,1864.7999999970198,627437.0,8020,WL,B,6.0
5,17.41100001335144,learn,60000.0,Wed Jan 29 2025 11:48:40 GMT-0600 (Central Standard Time),629535.0,A,cloc,I,c,221,1,2098.0,627437.0,8020,WL,B,6.0
5,17.5939998626709,learn,60000.0,Wed Jan 29 2025 11:48:40 GMT-0600 (Central Standard Time),629718.299999997,A,clock,I,k,172,1,2281.2999999970198,627437.0,8020,WL,B,6.0
5,18.044999837875366,learn,60000.0,Wed Jan 29 2025 11:48:40 GMT-0600 (Central Standard Time),630168.299999997,A,clockenter,I,enter,437,1,2731.2999999970198,627437.0,8020,WL,B,6.0
5,18.710999965667725,learn,60000.0,Wed Jan 29 2025 11:48:40 GMT-0600 (Central Standard Time),630834.5,A,f,I,f,651,1,665.7999999970198,630168.700000003,8020,WL,B,7.0
5,18.878000020980835,learn,60000.0,Wed Jan 29 2025 11:48:40 GMT-0600 (Central Standard Time),631001.299999997,A,fi,I,i,153,1,832.5999999940395,630168.700000003,8020,WL,B,7.0
5,19.109999895095825,learn,60000.0,Wed Jan 29 2025 11:48:40 GMT-0600 (Central Standard Time),631234.1000000015,A,fir,I,r,226,1,1065.3999999985099,630168.700000003,8020,WL,B,7.0
5,19.26099991798401,learn,60000.0,Wed Jan 29 2025 11:48:40 GMT-0600 (Central Standard Time),631384.299999997,A,fire,I,e,129,1,1215.5999999940395,630168.700000003,8020,WL,B,7.0
5,19.72699999809265,learn,60000.0,Wed Jan 29 2025 11:48:40 GMT-0600 (Central Standard Time),631850.700000003,A,fireenter,I,enter,458,1,1682.0,630168.700000003,8020,WL,B,7.0
5,23.625999927520752,learn,60000.0,Wed Jan 29 2025 11:48:40 GMT-0600 (Central Standard Time),635749.700000003,A,w,I,w,3880,1,3898.7000000029802,631851.0,8020,WL,B,8.0
5,23.70899987220764,learn,60000.0,Wed Jan 29 2025 11:48:40 GMT-0600 (Central Standard Time),635833.0,A,wi,I,i,61,1,3982.0,631851.0,8020,WL,B,8.0
5,23.908999919891357,learn,60000.0,Wed Jan 29 2025 11:48:40 GMT-0600 (Central Standard Time),636033.200000003,A,win,I,n,178,1,4182.20000000298,631851.0,8020,WL,B,8.0
5,24.425999879837036,learn,60000.0,Wed Jan 29 2025 11:48:40 GMT-0600 (Central Standard Time),636549.700000003,A,wind,I,d,505,1,4698.70000000298,631851.0,8020,WL,B,8.0
5,24.625999927520752,learn,60000.0,Wed Jan 29 2025 11:48:40 GMT-0600 (Central Standard Time),636749.299999997,A,windo,I,o,181,1,4898.29999999702,631851.0,8020,WL,B,8.0
5,25.108999967575073,learn,60000.0,Wed Jan 29 2025 11:48:40 GMT-0600 (Central Standard Time),637232.3999999985,A,window,I,w,470,1,5381.39999999851,631851.0,8020,WL,B,8.0
5,25.408999919891357,learn,60000.0,Wed Jan 29 2025 11:48:40 GMT-0600 (Central Standard Time),637532.3999999985,A,windowenter,I,enter,283,1,5681.39999999851,631851.0,8020,WL,B,8.0
5,38.50399994850159,learn,60000.0,Wed Jan 29 2025 11:48:40 GMT-0600 (Central Standard Time),650628.299999997,A,p,I,p,13078,1,13095.59999999404,637532.700000003,8020,WL,B,9.0
5,38.805999994277954,learn,60000.0,Wed Jan 29 2025 11:48:40 GMT-0600 (Central Standard Time),650930.299999997,A,pu,I,u,286,1,13397.59999999404,637532.700000003,8020,WL,B,9.0
5,39.270999908447266,learn,60000.0,Wed Jan 29 2025 11:48:40 GMT-0600 (Central Standard Time),651394.6000000015,A,pup,I,p,457,1,13861.89999999851,637532.700000003,8020,WL,B,9.0
5,39.620999813079834,learn,60000.0,Wed Jan 29 2025 11:48:40 GMT-0600 (Central Standard Time),651744.8999999985,A,pupi,I,i,337,1,14212.19999999553,637532.700000003,8020,WL,B,9.0
5,40.03699994087219,learn,60000.0,Wed Jan 29 2025 11:48:40 GMT-0600 (Central Standard Time),652161.200000003,A,pupil,I,l,394,1,14628.5,637532.700000003,8020,WL,B,9.0
5,40.82099986076355,learn,60000.0,Wed Jan 29 2025 11:48:40 GMT-0600 (Central Standard Time),652944.299999997,A,pupilenter,I,enter,769,1,15411.59999999404,637532.700000003,8020,WL,B,9.0
5,72.10999989509583,learn,60000.0,Wed Jan 29 2025 11:48:40 GMT-0600 (Central Standard Time),684234.5,A,enter,I,enter,31267,1,31289.79999999702,652944.700000003,8020,WL,B,10.0
6,1.5490000247955322,distr,58450.99997520447,Wed Jan 29 2025 11:48:40 GMT-0600 (Central Standard Time),751580.1000000015,B,b,I,b,1541,1,1549.3000000044703,750030.799999997,8020,WL,B,1.0
6,1.999000072479248,distr,58000.99992752075,Wed Jan 29 2025 11:48:40 GMT-0600 (Central Standard Time),752030.200000003,B,bu,I,u,430,1,1999.4000000059605,750030.799999997,8020,WL,B,1.0
6,2.199000120162964,distr,57800.999879837036,Wed Jan 29 2025 11:48:40 GMT-0600 (Central Standard Time),752229.8999999985,B,bui,I,i,181,1,2199.10000000149,750030.799999997,8020,WL,B,1.0
6,2.4660000801086426,distr,57533.99991989136,Wed Jan 29 2025 11:48:40 GMT-0600 (Central Standard Time),752496.3999999985,B,buil,I,l,253,1,2465.60000000149,750030.799999997,8020,WL,B,1.0
6,2.8989999294281006,distr,57101.0000705719,Wed Jan 29 2025 11:48:40 GMT-0600 (Central Standard Time),752929.700000003,B,build,I,d,419,1,2898.9000000059605,750030.799999997,8020,WL,B,1.0
6,3.0320000648498535,distr,56967.99993515015,Wed Jan 29 2025 11:48:40 GMT-0600 (Central Standard Time),753063.0,B,buildi,I,i,115,1,3032.2000000029802,750030.799999997,8020,WL,B,1.0
6,3.2820000648498535,distr,56717.99993515015,Wed Jan 29 2025 11:48:40 GMT-0600 (Central Standard Time),753313.0,B,buildin,I,n,236,1,3282.2000000029802,750030.799999997,8020,WL,B,1.0
6,3.565999984741211,distr,56434.00001525879,Wed Jan 29 2025 11:48:40 GMT-0600 (Central Standard Time),753596.200000003,B,building,I,g,273,1,3565.4000000059605,750030.799999997,8020,WL,B,1.0
6,4.681999921798706,distr,55318.000078201294,Wed Jan 29 2025 11:48:40 GMT-0600 (Central Standard Time),754712.3999999985,B,buildingenter,I,enter,1102,1,4681.60000000149,750030.799999997,8020,WL,B,1.0
6,5.232000112533569,distr,54767.99988746643,Wed Jan 29 2025 11:48:40 GMT-0600 (Central Standard Time),755262.3999999985,B,f,I,f,539,1,549.6000000014901,754712.799999997,8020,WL,B,2.0
6,5.5980000495910645,distr,54401.999950408936,Wed Jan 29 2025 11:48:40 GMT-0600 (Central Standard Time),755628.8999999985,B,fr,I,r,348,1,916.1000000014901,754712.799999997,8020,WL,B,2.0
6,5.765000104904175,distr,54234.999895095825,Wed Jan 29 2025 11:48:40 GMT-0600 (Central Standard Time),755795.3999999985,B,fri,I,i,150,1,1082.6000000014901,754712.799999997,8020,WL,B,2.0
6,5.980999946594238,distr,54019.00005340576,Wed Jan 29 2025 11:48:40 GMT-0600 (Central Standard Time),756012.200000003,B,frin,I,n,199,1,1299.4000000059605,754712.799999997,8020,WL,B,2.0
6,6.081000089645386,distr,53918.999910354614,Wed Jan 29 2025 11:48:40 GMT-0600 (Central Standard Time),756112.200000003,B,frine,I,e,87,1,1399.4000000059605,754712.799999997,8020,WL,B,2.0
6,6.680999994277954,distr,53319.000005722046,Wed Jan 29 2025 11:48:40 GMT-0600 (Central Standard Time),756712.0,B,frin,I,backspace,579,1,1999.2000000029802,754712.799999997,8020,WL,B,2.0
6,6.831000089645386,distr,53168.999910354614,Wed Jan 29 2025 11:48:40 GMT-0600 (Central Standard Time),756861.6000000015,B,fri,I,backspace,140,1,2148.8000000044703,754712.799999997,8020,WL,B,2.0
6,7.5309998989105225,distr,52469.00010108948,Wed Jan 29 2025 11:48:40 GMT-0600 (Central Standard Time),757561.6000000015,B,frie,I,e,685,1,2848.8000000044703,754712.799999997,8020,WL,B,2.0
6,7.614000082015991,distr,52385.99991798401,Wed Jan 29 2025 11:48:40 GMT-0600 (Central Standard Time),757644.700000003,B,frien,I,n,65,1,2931.9000000059605,754712.799999997,8020,WL,B,2.0
6,7.898000001907349,distr,52101.99999809265,Wed Jan 29 2025 11:48:40 GMT-0600 (Central Standard Time),757928.299999997,B,friend,I,d,270,1,3215.5,754712.799999997,8020,WL,B,2.0
6,8.348000049591064,distr,51651.999950408936,Wed Jan 29 2025 11:48:40 GMT-0600 (Central Standard Time),758379.0,B,friendenter,I,enter,435,1,3666.2000000029802,754712.799999997,8020,WL,B,2.0
6,8.96399998664856,distr,51036.00001335144,Wed Jan 29 2025 11:48:40 GMT-0600 (Central Standard Time),758994.6000000015,B,s,I,s,593,1,615.3999999985099,758379.200000003,8020,WL,B,3.0
6,9.27999997138977,distr,50720.00002861023,Wed Jan 29 2025 11:48:40 GMT-0600 (Central Standard Time),759311.200000003,B,st,I,t,296,1,932.0,758379.200000003,8020,WL,B,3.0
6,9.397000074386597,distr,50602.9999256134,Wed Jan 29 2025 11:48:40 GMT-0600 (Central Standard Time),759427.700000003,B,sto,I,o,100,1,1048.5,758379.200000003,8020,WL,B,3.0
6,9.614000082015991,distr,50385.99991798401,Wed Jan 29 2025 11:48:40 GMT-0600 (Central Standard Time),759644.3999999985,B,stor,I,r,199,1,1265.1999999955297,758379.200000003,8020,WL,B,3.0
6,9.730000019073486,distr,50269.999980926514,Wed Jan 29 2025 11:48:40 GMT-0600 (Central Standard Time),759761.0,B,store,I,e,102,1,1381.7999999970198,758379.200000003,8020,WL,B,3.0
6,10.496999979019165,distr,49503.000020980835,Wed Jan 29 2025 11:48:40 GMT-0600 (Central Standard Time),760527.299999997,B,storeenter,I,enter,746,1,2148.0999999940395,758379.200000003,8020,WL,B,3.0
6,12.11299991607666,distr,47887.00008392334,Wed Jan 29 2025 11:48:40 GMT-0600 (Central Standard Time),762143.3999999985,B,v,I,v,1596,1,1615.7999999970198,760527.6000000015,8020,WL,B,4.0
6,12.213000059127808,distr,47786.99994087219,Wed Jan 29 2025 11:48:40 GMT-0600 (Central Standard Time),762243.200000003,B,vi,I,i,91,1,1715.6000000014901,760527.6000000015,8020,WL,B,4.0
6,12.513000011444092,distr,47486.99998855591,Wed Jan 29 2025 11:48:40 GMT-0600 (Central Standard Time),762543.5,B,vil,I,l,288,1,2015.8999999985099,760527.6000000015,8020,WL,B,4.0
6,12.696000099182129,distr,47303.99990081787,Wed Jan 29 2025 11:48:40 GMT-0600 (Central Standard Time),762726.799999997,B,vill,I,l,171,1,2199.1999999955297,760527.6000000015,8020,WL,B,4.0
6,12.796000003814697,distr,47203.9999961853,Wed Jan 29 2025 11:48:40 GMT-0600 (Central Standard Time),762826.799999997,B,villa,I,a,84,1,2299.1999999955297,760527.6000000015,8020,WL,B,4.0
6,13.095999956130981,distr,46904.00004386902,Wed Jan 29 2025 11:48:40 GMT-0600 (Central Standard Time),763126.5,B,villag,I,g,280,1,2598.89999999851,760527.6000000015,8020,WL,B,4.0
6,13.296000003814697,distr,46703.9999961853,Wed Jan 29 2025 11:48:40 GMT-0600 (Central Standard Time),763326.3999999985,B,village,I,e,181,1,2798.7999999970198,760527.6000000015,8020,WL,B,4.0
6,13.746000051498413,distr,46253.99994850159,Wed Jan 29 2025 11:48:40 GMT-0600 (Central Standard Time),763776.299999997,B,villageenter,I,enter,437,1,3248.6999999955297,760527.6000000015,8020,WL,B,4.0
6,14.730000019073486,distr,45269.999980926514,Wed Jan 29 2025 11:48:40 GMT-0600 (Central Standard Time),764761.1000000015,B,b,I,b,963,1,984.3999999985099,763776.700000003,8020,WL,B,5.0
6,14.861999988555908,distr,45138.00001144409,Wed Jan 29 2025 11:48:40 GMT-0600 (Central Standard Time),764892.799999997,B,ba,I,a,121,1,1116.0999999940395,763776.700000003,8020,WL,B,5.0
6,14.979000091552734,distr,45020.999908447266,Wed Jan 29 2025 11:48:40 GMT-0600 (Central Standard Time),765009.299999997,B,bab,I,b,94,1,1232.5999999940395,763776.700000003,8020,WL,B,5.0
6,15.32800006866455,distr,44671.99993133545,Wed Jan 29 2025 11:48:40 GMT-0600 (Central Standard Time),765359.1000000015,B,baby,I,y,338,1,1582.3999999985099,763776.700000003,8020,WL,B,5.0
6,16.42799997329712,distr,43572.00002670288,Wed Jan 29 2025 11:48:40 GMT-0600 (Central Standard Time),766458.6000000015,B,babyenter,I,enter,1092,1,2681.89999999851,763776.700000003,8020,WL,B,5.0
6,17.27900004386902,distr,42720.99995613098,Wed Jan 29 2025 11:48:40 GMT-0600 (Central Standard Time),767309.6000000015,B,d,I,d,833,1,850.7000000029802,766458.8999999985,8020,WL,B,6.0
6,17.67799997329712,distr,42322.00002670288,Wed Jan 29 2025 11:48:40 GMT-0600 (Central Standard Time),767708.3999999985,B,dr,I,r,382,1,1249.5,766458.8999999985,8020,WL,B,6.0
6,17.92799997329712,distr,42072.00002670288,Wed Jan 29 2025 11:48:40 GMT-0600 (Central Standard Time),767958.3999999985,B,dre,I,e,231,1,1499.5,766458.8999999985,8020,WL,B,6.0
6,18.278000116348267,distr,41721.99988365173,Wed Jan 29 2025 11:48:40 GMT-0600 (Central Standard Time),768308.299999997,B,dres,I,s,341,1,1849.3999999985099,766458.8999999985,8020,WL,B,6.0
6,18.47699999809265,distr,41523.00000190735,Wed Jan 29 2025 11:48:40 GMT-0600 (Central Standard Time),768508.200000003,B,dress,I,s,182,1,2049.3000000044703,766458.8999999985,8020,WL,B,6.0
6,19.377000093460083,distr,40622.99990653992,Wed Jan 29 2025 11:48:40 GMT-0600 (Central Standard Time),769408.0,B,dressenter,I,enter,878,1,2949.10000000149,766458.8999999985,8020,WL,B,6.0
6,21.127000093460083,distr,38872.99990653992,Wed Jan 29 2025 11:48:40 GMT-0600 (Central Standard Time),771157.5,B,p,I,p,1731,1,1749.1000000014901,769408.3999999985,8020,WL,B,7.0
6,21.278000116348267,distr,38721.99988365173,Wed Jan 29 2025 11:48:40 GMT-0600 (Central Standard Time),771308.3999999985,B,pa,I,a,141,1,1900.0,769408.3999999985,8020,WL,B,7.0
6,21.64300012588501,distr,38356.99987411499,Wed Jan 29 2025 11:48:40 GMT-0600 (Central Standard Time),771674.200000003,B,pal,I,l,343,1,2265.8000000044703,769408.3999999985,8020,WL,B,7.0
6,21.710000038146973,distr,38289.99996185303,Wed Jan 29 2025 11:48:40 GMT-0600 (Central Standard Time),771740.700000003,B,pala,I,a,49,1,2332.3000000044703,769408.3999999985,8020,WL,B,7.0
6,22.41000008583069,distr,37589.99991416931,Wed Jan 29 2025 11:48:40 GMT-0600 (Central Standard Time),772440.3999999985,B,palac,I,c,678,1,3032.0,769408.3999999985,8020,WL,B,7.0
6,22.55999994277954,distr,37440.00005722046,Wed Jan 29 2025 11:48:40 GMT-0600 (Central Standard Time),772590.3999999985,B,palace,I,e,138,1,3182.0,769408.3999999985,8020,WL,B,7.0
6,23.158999919891357,distr,36841.00008010864,Wed Jan 29 2025 11:48:40 GMT-0600 (Central Standard Time),773190.0,B,palaceenter,I,enter,589,1,3781.60000000149,769408.3999999985,8020,WL,B,7.0
6,35.8050000667572,distr,24194.999933242798,Wed Jan 29 2025 11:48:40 GMT-0600 (Central Standard Time),785836.0,B,c,I,c,12629,1,12645.60000000149,773190.3999999985,8020,WL,B,8.0
6,36.08800005912781,distr,23911.999940872192,Wed Jan 29 2025 11:48:40 GMT-0600 (Central Standard Time),786119.299999997,B,ce,I,e,270,1,12928.89999999851,773190.3999999985,8020,WL,B,8.0
6,36.38800001144409,distr,23611.99998855591,Wed Jan 29 2025 11:48:40 GMT-0600 (Central Standard Time),786418.8999999985,B,cel,I,l,292,1,13228.5,773190.3999999985,8020,WL,B,8.0
6,36.57100009918213,distr,23428.99990081787,Wed Jan 29 2025 11:48:40 GMT-0600 (Central Standard Time),786602.3999999985,B,cell,I,l,168,1,13412.0,773190.3999999985,8020,WL,B,8.0
6,37.4210000038147,distr,22578.999996185303,Wed Jan 29 2025 11:48:40 GMT-0600 (Central Standard Time),787452.299999997,B,cellenter,I,enter,841,1,14261.89999999851,773190.3999999985,8020,WL,B,8.0
6,42.20300006866455,distr,17796.99993133545,Wed Jan 29 2025 11:48:40 GMT-0600 (Central Standard Time),792234.1000000015,B,enter,I,enter,4775,1,4781.5,787452.6000000015,8020,WL,B,9.0
6,43.11899995803833,distr,16881.00004196167,Wed Jan 29 2025 11:48:40 GMT-0600 (Central Standard Time),793150.5,B,enter,I,enter,897,1,916.1000000014901,792234.3999999985,8020,WL,B,10.0
6,43.40300011634827,distr,16596.999883651733,Wed Jan 29 2025 11:48:40 GMT-0600 (Central Standard Time),793433.700000003,B,enter,I,enter,260,1,282.80000000447035,793150.8999999985,8020,WL,B,11.0
6,43.63599991798401,distr,16364.000082015991,Wed Jan 29 2025 11:48:40 GMT-0600 (Central Standard Time),793667.0,B,enter,I,enter,217,1,232.89999999850988,793434.1000000015,8020,WL,B,12.0
6,43.95199990272522,distr,16048.00009727478,Wed Jan 29 2025 11:48:40 GMT-0600 (Central Standard Time),793983.700000003,B,enter,I,enter,296,1,316.30000000447035,793667.3999999985,8020,WL,B,13.0
6,44.35199999809265,distr,15648.000001907349,Wed Jan 29 2025 11:48:40 GMT-0600 (Central Standard Time),794383.3999999985,B,enter,I,enter,379,1,399.3999999985099,793984.0,8020,WL,B,14.0
6,44.985000133514404,distr,15014.999866485596,Wed Jan 29 2025 11:48:40 GMT-0600 (Central Standard Time),795016.6000000015,B,enter,I,enter,620,1,632.8000000044703,794383.799999997,8020,WL,B,15.0
7,1.5829999446868896,immed,58417.00005531311,Wed Jan 29 2025 11:48:40 GMT-0600 (Central Standard Time),817376.3999999985,A,b,I,b,1562,1,1582.8999999985099,815793.5,8020,WL,B,1.0
7,1.7000000476837158,immed,58299.999952316284,Wed Jan 29 2025 11:48:40 GMT-0600 (Central Standard Time),817492.799999997,A,bu,I,u,106,1,1699.2999999970198,815793.5,8020,WL,B,1.0
7,1.9159998893737793,immed,58084.00011062622,Wed Jan 29 2025 11:48:40 GMT-0600 (Central Standard Time),817709.299999997,A,bui,I,i,206,1,1915.7999999970198,815793.5,8020,WL,B,1.0
7,2.1499998569488525,immed,57850.00014305115,Wed Jan 29 2025 11:48:40 GMT-0600 (Central Standard Time),817942.799999997,A,buil,I,l,213,1,2149.2999999970198,815793.5,8020,WL,B,1.0
7,3.0490000247955322,immed,56950.99997520447,Wed Jan 29 2025 11:48:40 GMT-0600 (Central Standard Time),818842.5,A,build,I,d,876,1,3049.0,815793.5,8020,WL,B,1.0
7,3.181999921798706,immed,56818.000078201294,Wed Jan 29 2025 11:48:40 GMT-0600 (Central Standard Time),818975.700000003,A,buildi,I,i,113,1,3182.2000000029802,815793.5,8020,WL,B,1.0
7,3.365999937057495,immed,56634.000062942505,Wed Jan 29 2025 11:48:40 GMT-0600 (Central Standard Time),819159.0,A,buildin,I,n,171,1,3365.5,815793.5,8020,WL,B,1.0
7,3.7319998741149902,immed,56268.00012588501,Wed Jan 29 2025 11:48:40 GMT-0600 (Central Standard Time),819525.6000000015,A,building,I,g,356,1,3732.10000000149,815793.5,8020,WL,B,1.0
7,5.115000009536743,immed,54884.99999046326,Wed Jan 29 2025 11:48:40 GMT-0600 (Central Standard Time),820908.5,A,buildingenter,I,enter,1373,1,5115.0,815793.5,8020,WL,B,1.0
7,5.865000009536743,immed,54134.99999046326,Wed Jan 29 2025 11:48:40 GMT-0600 (Central Standard Time),821658.5,A,g,I,g,735,1,749.6000000014901,820908.8999999985,8020,WL,B,2.0
7,6.181999921798706,immed,53818.000078201294,Wed Jan 29 2025 11:48:40 GMT-0600 (Central Standard Time),821974.700000003,A,gr,I,r,296,1,1065.8000000044703,820908.8999999985,8020,WL,B,2.0
7,6.281999826431274,immed,53718.000173568726,Wed Jan 29 2025 11:48:40 GMT-0600 (Central Standard Time),822074.700000003,A,gre,I,e,92,1,1165.8000000044703,820908.8999999985,8020,WL,B,2.0
7,6.9649999141693115,immed,53035.00008583069,Wed Jan 29 2025 11:48:40 GMT-0600 (Central Standard Time),822758.0,A,gr,I,backspace,664,1,1849.1000000014901,820908.8999999985,8020,WL,B,2.0
7,7.13100004196167,immed,52868.99995803833,Wed Jan 29 2025 11:48:40 GMT-0600 (Central Standard Time),822924.6000000015,A,gra,I,a,158,1,2015.7000000029802,820908.8999999985,8020,WL,B,2.0
7,7.398000001907349,immed,52601.99999809265,Wed Jan 29 2025 11:48:40 GMT-0600 (Central Standard Time),823191.0,A,gras,I,s,254,1,2282.10000000149,820908.8999999985,8020,WL,B,2.0
7,7.63100004196167,immed,52368.99995803833,Wed Jan 29 2025 11:48:40 GMT-0600 (Central Standard Time),823424.3999999985,A,grass,I,s,211,1,2515.5,820908.8999999985,8020,WL,B,2.0
7,8.497999906539917,immed,51502.00009346008,Wed Jan 29 2025 11:48:40 GMT-0600 (Central Standard Time),824290.700000003,A,grassenter,I,enter,843,1,3381.8000000044703,820908.8999999985,8020,WL,B,2.0
7,9.496999979019165,immed,50503.000020980835,Wed Jan 29 2025 11:48:40 GMT-0600 (Central Standard Time),825290.700000003,A,p,I,p,977,1,999.8000000044703,824290.8999999985,8020,WL,B,3.0
7,9.846999883651733,immed,50153.00011634827,Wed Jan 29 2025 11:48:40 GMT-0600 (Central Standard Time),825640.200000003,A,pu,I,u,334,1,1349.3000000044703,824290.8999999985,8020,WL,B,3.0
7,10.11299991607666,immed,49887.00008392334,Wed Jan 29 2025 11:48:40 GMT-0600 (Central Standard Time),825906.5,A,pup,I,p,250,1,1615.6000000014901,824290.8999999985,8020,WL,B,3.0
7,10.61299991607666,immed,49387.00008392334,Wed Jan 29 2025 11:48:40 GMT-0600 (Central Standard Time),826406.700000003,A,pupi,I,i,481,1,2115.8000000044703,824290.8999999985,8020,WL,B,3.0
7,10.930999994277954,immed,49069.000005722046,Wed Jan 29 2025 11:48:40 GMT-0600 (Central Standard Time),826724.3999999985,A,pupil,I,l,308,1,2433.5,824290.8999999985,8020,WL,B,3.0
7,11.61299991607666,immed,48387.00008392334,Wed Jan 29 2025 11:48:40 GMT-0600 (Central Standard Time),827406.1000000015,A,pupilenter,I,enter,663,1,3115.2000000029802,824290.8999999985,8020,WL,B,3.0
7,14.11299991607666,immed,45887.00008392334,Wed Jan 29 2025 11:48:40 GMT-0600 (Central Standard Time),829905.700000003,A,d,I,d,2478,1,2499.4000000059605,827406.299999997,8020,WL,B,4.0
7,14.279000043869019,immed,45720.99995613098,Wed Jan 29 2025 11:48:40 GMT-0600 (Central Standard Time),830072.200000003,A,do,I,o,146,1,2665.9000000059605,827406.299999997,8020,WL,B,4.0
7,14.461999893188477,immed,45538.00010681152,Wed Jan 29 2025 11:48:40 GMT-0600 (Central Standard Time),830255.700000003,A,doo,I,o,172,1,2849.4000000059605,827406.299999997,8020,WL,B,4.0
7,14.711999893188477,immed,45288.00010681152,Wed Jan 29 2025 11:48:40 GMT-0600 (Central Standard Time),830505.3999999985,A,door,I,r,234,1,3099.10000000149,827406.299999997,8020,WL,B,4.0
7,15.277999877929688,immed,44722.00012207031,Wed Jan 29 2025 11:48:40 GMT-0600 (Central Standard Time),831071.5,A,doorenter,I,enter,553,1,3665.2000000029802,827406.299999997,8020,WL,B,4.0
7,15.763000011444092,immed,44236.99998855591,Wed Jan 29 2025 11:48:40 GMT-0600 (Central Standard Time),831556.3999999985,A,c,I,c,476,1,484.5,831071.8999999985,8020,WL,B,5.0
7,15.878999948501587,immed,44121.00005149841,Wed Jan 29 2025 11:48:40 GMT-0600 (Central Standard Time),831671.799999997,A,cl,I,l,104,1,599.8999999985099,831071.8999999985,8020,WL,B,5.0
7,16.161999940872192,immed,43838.00005912781,Wed Jan 29 2025 11:48:40 GMT-0600 (Central Standard Time),831954.8999999985,A,clo,I,o,276,1,883.0,831071.8999999985,8020,WL,B,5.0
7,16.378999948501587,immed,43621.00005149841,Wed Jan 29 2025 11:48:40 GMT-0600 (Central Standard Time),832172.5,A,cloc,I,c,208,1,1100.6000000014901,831071.8999999985,8020,WL,B,5.0
7,16.59500002861023,immed,43404.99997138977,Wed Jan 29 2025 11:48:40 GMT-0600 (Central Standard Time),832388.3999999985,A,clock,I,k,199,1,1316.5,831071.8999999985,8020,WL,B,5.0
7,17.111999988555908,immed,42888.00001144409,Wed Jan 29 2025 11:48:40 GMT-0600 (Central Standard Time),832904.799999997,A,clockenter,I,enter,502,1,1832.8999999985099,831071.8999999985,8020,WL,B,5.0
7,18.893999814987183,immed,41106.00018501282,Wed Jan 29 2025 11:48:40 GMT-0600 (Central Standard Time),834687.6000000015,A,a,I,a,1763,1,1782.3000000044703,832905.299999997,8020,WL,B,6.0
7,19.07699990272522,immed,40923.00009727478,Wed Jan 29 2025 11:48:40 GMT-0600 (Central Standard Time),834870.700000003,A,ar,I,r,164,1,1965.4000000059605,832905.299999997,8020,WL,B,6.0
7,19.393999814987183,immed,40606.00018501282,Wed Jan 29 2025 11:48:40 GMT-0600 (Central Standard Time),835187.5,A,arm,I,m,297,1,2282.2000000029802,832905.299999997,8020,WL,B,6.0
7,19.776999950408936,immed,40223.000049591064,Wed Jan 29 2025 11:48:40 GMT-0600 (Central Standard Time),835570.6000000015,A,armenter,I,enter,368,1,2665.3000000044703,832905.299999997,8020,WL,B,6.0
7,30.957000017166138,immed,29042.999982833862,Wed Jan 29 2025 11:48:40 GMT-0600 (Central Standard Time),846750.3999999985,A,w,I,w,11161,1,11179.39999999851,835571.0,8020,WL,B,7.0
7,31.08999991416931,immed,28910.00008583069,Wed Jan 29 2025 11:48:40 GMT-0600 (Central Standard Time),846883.700000003,A,wi,I,i,116,1,11312.70000000298,835571.0,8020,WL,B,7.0
7,31.256999969482422,immed,28743.000030517578,Wed Jan 29 2025 11:48:40 GMT-0600 (Central Standard Time),847050.299999997,A,wif,I,f,159,1,11479.29999999702,835571.0,8020,WL,B,7.0
7,31.45799994468689,immed,28542.00005531311,Wed Jan 29 2025 11:48:40 GMT-0600 (Central Standard Time),847251.1000000015,A,wife,I,e,184,1,11680.10000000149,835571.0,8020,WL,B,7.0
7,31.957000017166138,immed,28042.999982833862,Wed Jan 29 2025 11:48:40 GMT-0600 (Central Standard Time),847750.1000000015,A,wifeenter,I,enter,488,1,12179.10000000149,835571.0,8020,WL,B,7.0
7,32.49000000953674,immed,27509.999990463257,Wed Jan 29 2025 11:48:40 GMT-0600 (Central Standard Time),848283.299999997,A,f,I,f,518,1,532.7999999970198,847750.5,8020,WL,B,8.0
7,32.68999981880188,immed,27310.00018119812,Wed Jan 29 2025 11:48:40 GMT-0600 (Central Standard Time),848483.200000003,A,fi,I,i,184,1,732.7000000029802,847750.5,8020,WL,B,8.0
7,32.87299990653992,immed,27127.000093460083,Wed Jan 29 2025 11:48:40 GMT-0600 (Central Standard Time),848666.700000003,A,fir,I,r,176,1,916.2000000029802,847750.5,8020,WL,B,8.0
7,33.02300000190735,immed,26976.99999809265,Wed Jan 29 2025 11:48:40 GMT-0600 (Central Standard Time),848816.3999999985,A,fire,I,e,136,1,1065.8999999985099,847750.5,8020,WL,B,8.0
7,33.33899998664856,immed,26661.00001335144,Wed Jan 29 2025 11:48:40 GMT-0600 (Central Standard Time),849133.0,A,fireenter,I,enter,307,1,1382.5,847750.5,8020,WL,B,8.0
7,35.64999985694885,immed,24350.000143051147,Wed Jan 29 2025 11:48:40 GMT-0600 (Central Standard Time),851443.200000003,A,s,I,s,2285,1,2309.8000000044703,849133.3999999985,8020,WL,B,9.0
7,35.871999979019165,immed,24128.000020980835,Wed Jan 29 2025 11:48:40 GMT-0600 (Central Standard Time),851665.799999997,A,st,I,t,200,1,2532.39999999851,849133.3999999985,8020,WL,B,9.0
7,36.039000034332275,immed,23960.999965667725,Wed Jan 29 2025 11:48:40 GMT-0600 (Central Standard Time),851832.200000003,A,sta,I,a,145,1,2698.8000000044703,849133.3999999985,8020,WL,B,9.0
7,36.25499987602234,immed,23745.00012397766,Wed Jan 29 2025 11:48:40 GMT-0600 (Central Standard Time),852048.6000000015,A,star,I,r,203,1,2915.2000000029802,849133.3999999985,8020,WL,B,9.0
7,36.80499982833862,immed,23195.000171661377,Wed Jan 29 2025 11:48:40 GMT-0600 (Central Standard Time),852598.5,A,starenter,I,enter,539,1,3465.10000000149,849133.3999999985,8020,WL,B,9.0
7,57.69799995422363,immed,2302.000045776367,Wed Jan 29 2025 11:48:40 GMT-0600 (Central Standard Time),873492.0,A,w,I,w,20878,1,20893.10000000149,852598.8999999985,8020,WL,B,10.0
7,57.86500000953674,immed,2134.999990463257,Wed Jan 29 2025 11:48:40 GMT-0600 (Central Standard Time),873658.5,A,wi,I,i,158,1,21059.60000000149,852598.8999999985,8020,WL,B,10.0
7,58.014999866485596,immed,1985.0001335144043,Wed Jan 29 2025 11:48:40 GMT-0600 (Central Standard Time),873808.5,A,win,I,n,128,1,21209.60000000149,852598.8999999985,8020,WL,B,10.0
7,58.48099994659424,immed,1519.0000534057617,Wed Jan 29 2025 11:48:40 GMT-0600 (Central Standard Time),874274.799999997,A,wind,I,d,459,1,21675.89999999851,852598.8999999985,8020,WL,B,10.0
7,58.66599988937378,immed,1334.0001106262207,Wed Jan 29 2025 11:48:40 GMT-0600 (Central Standard Time),874459.5,A,windo,I,o,161,1,21860.60000000149,852598.8999999985,8020,WL,B,10.0
7,58.88199996948242,immed,1118.0000305175781,Wed Jan 29 2025 11:48:40 GMT-0600 (Central Standard Time),874675.200000003,A,window,I,w,199,1,22076.30000000447,852598.8999999985,8020,WL,B,10.0
7,59.53099989891052,immed,469.00010108947754,Wed Jan 29 2025 11:48:40 GMT-0600 (Central Standard Time),875324.700000003,A,windowenter,I,enter,632,1,22725.80000000447,852598.8999999985,8020,WL,B,10.0
7,60.014999866485596,immed,-14.999866485595703,Wed Jan 29 2025 11:48:40 GMT-0600 (Central Standard Time),875808.0,A,None,I,None,476,1,483.0,875325.0,8020,WL,B,11.0
