block_c,block_dur,condition,countdown,datetime,endtime,list,multichar_response,project,response,response_time,session_number,start_end,starttime,subject_id,task,task_vers,trial
,,,,Tue Apr 08 2025 09:53:53 GMT-0500 (Central Daylight Time),,,,I,space,613,2,,,8020,WL,A,
prac,,0,,Tue Apr 08 2025 09:53:53 GMT-0500 (Central Daylight Time),,NA,b,I,b,1963,2,,,8020,WL,A,1.0
prac,,0,,Tue Apr 08 2025 09:53:53 GMT-0500 (Central Daylight Time),,NA,bo,I,o,408,2,,,8020,WL,A,1.0
prac,,0,,Tue Apr 08 2025 09:53:53 GMT-0500 (Central Daylight Time),,NA,boo,I,o,144,2,,,8020,WL,A,1.0
prac,,0,,Tue Apr 08 2025 09:53:53 GMT-0500 (Central Daylight Time),,NA,boos,I,s,369,2,,,8020,WL,A,1.0
prac,,0,,Tue Apr 08 2025 09:53:53 GMT-0500 (Central Daylight Time),,NA,boost,I,t,227,2,,,8020,WL,A,1.0
prac,,0,,Tue Apr 08 2025 09:53:53 GMT-0500 (Central Daylight Time),,NA,boostenter,I,enter,1129,2,,,8020,WL,A,1.0
1,6.615000009536743,learn,53384.99999046326,Tue Apr 08 2025 09:53:53 GMT-0500 (Central Daylight Time),190266.79999999702,A,f,I,f,6608,2,6614.20000000298,183652.59999999404,8020,WL,A,1.0
1,6.698000192642212,learn,53301.99980735779,Tue Apr 08 2025 09:53:53 GMT-0500 (Central Daylight Time),190350.29999999702,A,fi,I,i,74,2,6697.70000000298,183652.59999999404,8020,WL,A,1.0
1,6.88100004196167,learn,53118.99995803833,Tue Apr 08 2025 09:53:53 GMT-0500 (Central Daylight Time),190533.20000000298,A,fin,I,n,167,2,6880.600000008941,183652.59999999404,8020,WL,A,1.0
1,7.13100004196167,learn,52868.99995803833,Tue Apr 08 2025 09:53:53 GMT-0500 (Central Daylight Time),190783.20000000298,A,fing,I,g,231,2,7130.600000008941,183652.59999999404,8020,WL,A,1.0
1,7.38100004196167,learn,52618.99995803833,Tue Apr 08 2025 09:53:53 GMT-0500 (Central Daylight Time),191033.20000000298,A,finge,I,e,237,2,7380.600000008941,183652.59999999404,8020,WL,A,1.0
1,7.498000144958496,learn,52501.999855041504,Tue Apr 08 2025 09:53:53 GMT-0500 (Central Daylight Time),191149.90000000596,A,finger,I,r,100,2,7497.300000011921,183652.59999999404,8020,WL,A,1.0
1,10.980000019073486,learn,49019.999980926514,Tue Apr 08 2025 09:53:53 GMT-0500 (Central Daylight Time),194632.0,A,fingerenter,I,enter,3471,2,10979.40000000596,183652.59999999404,8020,WL,A,1.0
1,14.013000011444092,learn,45986.99998855591,Tue Apr 08 2025 09:53:53 GMT-0500 (Central Daylight Time),197664.59999999404,A,f,I,f,3020,2,3032.0,194632.59999999404,8020,WL,A,2.0
1,14.296000003814697,learn,45703.9999961853,Tue Apr 08 2025 09:53:53 GMT-0500 (Central Daylight Time),197947.70000000298,A,fl,I,l,276,2,3315.1000000089407,194632.59999999404,8020,WL,A,2.0
1,14.546000003814697,learn,45453.9999961853,Tue Apr 08 2025 09:53:53 GMT-0500 (Central Daylight Time),198197.59999999404,A,flo,I,o,233,2,3565.0,194632.59999999404,8020,WL,A,2.0
1,14.812000036239624,learn,45187.999963760376,Tue Apr 08 2025 09:53:53 GMT-0500 (Central Daylight Time),198464.20000000298,A,flow,I,w,254,2,3831.6000000089407,194632.59999999404,8020,WL,A,2.0
1,14.92900013923645,learn,45070.99986076355,Tue Apr 08 2025 09:53:53 GMT-0500 (Central Daylight Time),198580.90000000596,A,flowe,I,e,100,2,3948.300000011921,194632.59999999404,8020,WL,A,2.0
1,15.078999996185303,learn,44921.0000038147,Tue Apr 08 2025 09:53:53 GMT-0500 (Central Daylight Time),198730.5,A,flower,I,r,144,2,4097.9000000059605,194632.59999999404,8020,WL,A,2.0
1,15.67900013923645,learn,44320.99986076355,Tue Apr 08 2025 09:53:53 GMT-0500 (Central Daylight Time),199330.59999999404,A,flowerenter,I,enter,586,2,4698.0,194632.59999999404,8020,WL,A,2.0
1,16.59500002861023,learn,43404.99997138977,Tue Apr 08 2025 09:53:53 GMT-0500 (Central Daylight Time),200246.90000000596,A,t,I,t,898,2,915.9000000059605,199331.0,8020,WL,A,3.0
1,17.011000156402588,learn,42988.99984359741,Tue Apr 08 2025 09:53:53 GMT-0500 (Central Daylight Time),200663.59999999404,A,tr,I,r,398,2,1332.5999999940395,199331.0,8020,WL,A,3.0
1,17.195000171661377,learn,42804.99982833862,Tue Apr 08 2025 09:53:53 GMT-0500 (Central Daylight Time),200846.90000000596,A,tra,I,a,173,2,1515.9000000059605,199331.0,8020,WL,A,3.0
1,17.478000164031982,learn,42521.99983596802,Tue Apr 08 2025 09:53:53 GMT-0500 (Central Daylight Time),201130.09999999404,A,trai,I,i,262,2,1799.0999999940395,199331.0,8020,WL,A,3.0
1,17.66100001335144,learn,42338.99998664856,Tue Apr 08 2025 09:53:53 GMT-0500 (Central Daylight Time),201313.5,A,train,I,n,163,2,1982.5,199331.0,8020,WL,A,3.0
1,18.611000061035156,learn,41388.999938964844,Tue Apr 08 2025 09:53:53 GMT-0500 (Central Daylight Time),202263.0,A,trainenter,I,enter,940,2,2932.0,199331.0,8020,WL,A,3.0
1,19.49400019645691,learn,40505.99980354309,Tue Apr 08 2025 09:53:53 GMT-0500 (Central Daylight Time),203146.09999999404,A,b,I,b,870,2,882.5999999940395,202263.5,8020,WL,A,4.0
1,19.72699999809265,learn,40273.00000190735,Tue Apr 08 2025 09:53:53 GMT-0500 (Central Daylight Time),203379.29999999702,A,bo,I,o,227,2,1115.7999999970198,202263.5,8020,WL,A,4.0
1,19.89400005340576,learn,40105.99994659424,Tue Apr 08 2025 09:53:53 GMT-0500 (Central Daylight Time),203545.90000000596,A,boo,I,o,162,2,1282.4000000059605,202263.5,8020,WL,A,4.0
1,20.110000133514404,learn,39889.999866485596,Tue Apr 08 2025 09:53:53 GMT-0500 (Central Daylight Time),203762.29999999702,A,book,I,k,211,2,1498.7999999970198,202263.5,8020,WL,A,4.0
1,20.855000019073486,learn,39144.999980926514,Tue Apr 08 2025 09:53:53 GMT-0500 (Central Daylight Time),204507.40000000596,A,bookenter,I,enter,740,2,2243.9000000059605,202263.5,8020,WL,A,4.0
1,25.142000198364258,learn,34857.99980163574,Tue Apr 08 2025 09:53:53 GMT-0500 (Central Daylight Time),208794.20000000298,A,m,I,m,4271,2,4286.20000000298,204508.0,8020,WL,A,5.0
1,25.392000198364258,learn,34607.99980163574,Tue Apr 08 2025 09:53:53 GMT-0500 (Central Daylight Time),209044.20000000298,A,me,I,e,234,2,4536.20000000298,204508.0,8020,WL,A,5.0
1,25.52500009536743,learn,34474.99990463257,Tue Apr 08 2025 09:53:53 GMT-0500 (Central Daylight Time),209177.5,A,mea,I,a,121,2,4669.5,204508.0,8020,WL,A,5.0
1,25.95900011062622,learn,34040.99988937378,Tue Apr 08 2025 09:53:53 GMT-0500 (Central Daylight Time),209610.79999999702,A,mead,I,d,419,2,5102.79999999702,204508.0,8020,WL,A,5.0
1,26.092000007629395,learn,33907.999992370605,Tue Apr 08 2025 09:53:53 GMT-0500 (Central Daylight Time),209744.0,A,meado,I,o,123,2,5236.0,204508.0,8020,WL,A,5.0
1,26.225000143051147,learn,33774.99985694885,Tue Apr 08 2025 09:53:53 GMT-0500 (Central Daylight Time),209877.29999999702,A,meadow,I,w,117,2,5369.29999999702,204508.0,8020,WL,A,5.0
1,26.808000087738037,learn,33191.99991226196,Tue Apr 08 2025 09:53:53 GMT-0500 (Central Daylight Time),210460.5,A,meadowenter,I,enter,576,2,5952.5,204508.0,8020,WL,A,5.0
1,44.88600015640259,learn,15113.999843597412,Tue Apr 08 2025 09:53:53 GMT-0500 (Central Daylight Time),228537.90000000596,A,enter,I,enter,18056,2,18076.60000000894,210461.29999999702,8020,WL,A,6.0
1,45.60300016403198,learn,14396.999835968018,Tue Apr 08 2025 09:53:53 GMT-0500 (Central Daylight Time),229254.59999999404,A,enter,I,enter,707,2,716.2999999970198,228538.29999999702,8020,WL,A,7.0
1,46.486000061035156,learn,13513.999938964844,Tue Apr 08 2025 09:53:53 GMT-0500 (Central Daylight Time),230137.59999999404,A,enter,I,enter,868,2,882.5,229255.09999999404,8020,WL,A,8.0
1,46.986000061035156,learn,13013.999938964844,Tue Apr 08 2025 09:53:53 GMT-0500 (Central Daylight Time),230637.59999999404,A,enter,I,enter,491,2,499.29999999701977,230138.29999999702,8020,WL,A,9.0
1,47.569000005722046,learn,12430.999994277954,Tue Apr 08 2025 09:53:53 GMT-0500 (Central Daylight Time),231220.90000000596,A,enter,I,enter,567,2,582.9000000059605,230638.0,8020,WL,A,10.0
1,48.03500008583069,learn,11964.999914169312,Tue Apr 08 2025 09:53:53 GMT-0500 (Central Daylight Time),231687.09999999404,A,enter,I,enter,456,2,465.79999999701977,231221.29999999702,8020,WL,A,11.0
1,48.551000118255615,learn,11448.999881744385,Tue Apr 08 2025 09:53:53 GMT-0500 (Central Daylight Time),232203.59999999404,A,enter,I,enter,502,2,516.0999999940395,231687.5,8020,WL,A,12.0
1,49.00100016593933,learn,10998.999834060669,Tue Apr 08 2025 09:53:53 GMT-0500 (Central Daylight Time),232653.59999999404,A,enter,I,enter,442,2,449.5,232204.09999999404,8020,WL,A,13.0
1,49.468000173568726,learn,10531.999826431274,Tue Apr 08 2025 09:53:53 GMT-0500 (Central Daylight Time),233119.79999999702,A,enter,I,enter,455,2,465.79999999701977,232654.0,8020,WL,A,14.0
1,50.01800012588501,learn,9981.99987411499,Tue Apr 08 2025 09:53:53 GMT-0500 (Central Daylight Time),233669.90000000596,A,enter,I,enter,540,2,549.6000000089407,233120.29999999702,8020,WL,A,15.0
2,3.7820000648498535,learn,56217.99993515015,Tue Apr 08 2025 09:53:53 GMT-0500 (Central Daylight Time),317260.40000000596,A,f,I,f,3768,2,3781.9000000059605,313478.5,8020,WL,A,1.0
2,3.947999954223633,learn,56052.00004577637,Tue Apr 08 2025 09:53:53 GMT-0500 (Central Daylight Time),317426.90000000596,A,fi,I,i,152,2,3948.4000000059605,313478.5,8020,WL,A,1.0
2,4.0980000495910645,learn,55901.999950408936,Tue Apr 08 2025 09:53:53 GMT-0500 (Central Daylight Time),317577.0,A,fin,I,n,130,2,4098.5,313478.5,8020,WL,A,1.0
2,4.2820000648498535,learn,55717.99993515015,Tue Apr 08 2025 09:53:53 GMT-0500 (Central Daylight Time),317760.200000003,A,fing,I,g,164,2,4281.70000000298,313478.5,8020,WL,A,1.0
2,4.5309998989105225,learn,55469.00010108948,Tue Apr 08 2025 09:53:53 GMT-0500 (Central Daylight Time),318010.0,A,finge,I,e,229,2,4531.5,313478.5,8020,WL,A,1.0
2,4.98199987411499,learn,55018.00012588501,Tue Apr 08 2025 09:53:53 GMT-0500 (Central Daylight Time),318460.0,A,finger,I,r,443,2,4981.5,313478.5,8020,WL,A,1.0
2,6.04800009727478,learn,53951.99990272522,Tue Apr 08 2025 09:53:53 GMT-0500 (Central Daylight Time),319526.09999999404,A,fingerenter,I,enter,1049,2,6047.5999999940395,313478.5,8020,WL,A,1.0
2,8.763000011444092,learn,51236.99998855591,Tue Apr 08 2025 09:53:53 GMT-0500 (Central Daylight Time),322242.0,A,m,I,m,2711,2,2715.4000000059605,319526.59999999404,8020,WL,A,2.0
2,9.013999938964844,learn,50986.000061035156,Tue Apr 08 2025 09:53:53 GMT-0500 (Central Daylight Time),322492.200000003,A,me,I,e,243,2,2965.6000000089407,319526.59999999404,8020,WL,A,2.0
2,9.096999883651733,learn,50903.00011634827,Tue Apr 08 2025 09:53:53 GMT-0500 (Central Daylight Time),322575.299999997,A,mea,I,a,65,2,3048.7000000029802,319526.59999999404,8020,WL,A,2.0
2,9.513000011444092,learn,50486.99998855591,Tue Apr 08 2025 09:53:53 GMT-0500 (Central Daylight Time),322991.90000000596,A,mead,I,d,398,2,3465.300000011921,319526.59999999404,8020,WL,A,2.0
2,9.763000011444092,learn,50236.99998855591,Tue Apr 08 2025 09:53:53 GMT-0500 (Central Daylight Time),323241.90000000596,A,meado,I,o,229,2,3715.300000011921,319526.59999999404,8020,WL,A,2.0
2,9.897000074386597,learn,50102.9999256134,Tue Apr 08 2025 09:53:53 GMT-0500 (Central Daylight Time),323375.09999999404,A,meadow,I,w,115,2,3848.5,319526.59999999404,8020,WL,A,2.0
2,10.430000066757202,learn,49569.9999332428,Tue Apr 08 2025 09:53:53 GMT-0500 (Central Daylight Time),323908.09999999404,A,meadowenter,I,enter,518,2,4381.5,319526.59999999404,8020,WL,A,2.0
2,11.912999868392944,learn,48087.000131607056,Tue Apr 08 2025 09:53:53 GMT-0500 (Central Daylight Time),325391.200000003,A,t,I,t,1465,2,1482.7000000029802,323908.5,8020,WL,A,3.0
2,12.162999868392944,learn,47837.000131607056,Tue Apr 08 2025 09:53:53 GMT-0500 (Central Daylight Time),325641.09999999404,A,tr,I,r,238,2,1732.5999999940395,323908.5,8020,WL,A,3.0
2,12.312000036239624,learn,47687.999963760376,Tue Apr 08 2025 09:53:53 GMT-0500 (Central Daylight Time),325790.799999997,A,tra,I,a,132,2,1882.2999999970198,323908.5,8020,WL,A,3.0
2,12.479000091552734,learn,47520.999908447266,Tue Apr 08 2025 09:53:53 GMT-0500 (Central Daylight Time),325957.799999997,A,trai,I,i,150,2,2049.2999999970198,323908.5,8020,WL,A,3.0
2,12.595999956130981,learn,47404.00004386902,Tue Apr 08 2025 09:53:53 GMT-0500 (Central Daylight Time),326074.40000000596,A,train,I,n,104,2,2165.9000000059605,323908.5,8020,WL,A,3.0
2,13.09500002861023,learn,46904.99997138977,Tue Apr 08 2025 09:53:53 GMT-0500 (Central Daylight Time),326574.0,A,trainenter,I,enter,483,2,2665.5,323908.5,8020,WL,A,3.0
2,18.14400005340576,learn,41855.99994659424,Tue Apr 08 2025 09:53:53 GMT-0500 (Central Daylight Time),331622.5,A,l,I,l,5039,2,5048.20000000298,326574.299999997,8020,WL,A,4.0
2,18.361000061035156,learn,41638.999938964844,Tue Apr 08 2025 09:53:53 GMT-0500 (Central Daylight Time),331839.09999999404,A,lo,I,o,207,2,5264.79999999702,326574.299999997,8020,WL,A,4.0
2,18.526999950408936,learn,41473.000049591064,Tue Apr 08 2025 09:53:53 GMT-0500 (Central Daylight Time),332005.799999997,A,log,I,g,150,2,5431.5,326574.299999997,8020,WL,A,4.0
2,19.39299988746643,learn,40607.00011253357,Tue Apr 08 2025 09:53:53 GMT-0500 (Central Daylight Time),332871.90000000596,A,logenter,I,enter,848,2,6297.600000008941,326574.299999997,8020,WL,A,4.0
2,20.16000008583069,learn,39839.99991416931,Tue Apr 08 2025 09:53:53 GMT-0500 (Central Daylight Time),333638.59999999404,A,c,I,c,757,2,766.3999999910593,332872.200000003,8020,WL,A,5.0
2,21.292999982833862,learn,38707.00001716614,Tue Apr 08 2025 09:53:53 GMT-0500 (Central Daylight Time),334771.5,A,ch,I,h,1126,2,1899.2999999970198,332872.200000003,8020,WL,A,5.0
2,21.509999990463257,learn,38490.00000953674,Tue Apr 08 2025 09:53:53 GMT-0500 (Central Daylight Time),334988.09999999404,A,chi,I,i,202,2,2115.8999999910593,332872.200000003,8020,WL,A,5.0
2,21.693000078201294,learn,38306.999921798706,Tue Apr 08 2025 09:53:53 GMT-0500 (Central Daylight Time),335171.40000000596,A,chim,I,m,177,2,2299.2000000029802,332872.200000003,8020,WL,A,5.0
2,23.89199995994568,learn,36108.00004005432,Tue Apr 08 2025 09:53:53 GMT-0500 (Central Daylight Time),337370.59999999404,A,chima,I,a,2194,2,4498.399999991059,332872.200000003,8020,WL,A,5.0
2,24.075000047683716,learn,35924.999952316284,Tue Apr 08 2025 09:53:53 GMT-0500 (Central Daylight Time),337554.0,A,chiman,I,n,171,2,4681.79999999702,332872.200000003,8020,WL,A,5.0
2,24.77500009536743,learn,35224.99990463257,Tue Apr 08 2025 09:53:53 GMT-0500 (Central Daylight Time),338253.799999997,A,chimany,I,y,683,2,5381.5999999940395,332872.200000003,8020,WL,A,5.0
2,26.674999952316284,learn,33325.000047683716,Tue Apr 08 2025 09:53:53 GMT-0500 (Central Daylight Time),340153.200000003,A,chimanyenter,I,enter,1887,2,7281.0,332872.200000003,8020,WL,A,5.0
2,29.457000017166138,learn,30542.999982833862,Tue Apr 08 2025 09:53:53 GMT-0500 (Central Daylight Time),342935.700000003,A,k,I,k,2772,2,2782.1000000089407,340153.59999999404,8020,WL,A,6.0
2,29.60699987411499,learn,30393.00012588501,Tue Apr 08 2025 09:53:53 GMT-0500 (Central Daylight Time),343085.700000003,A,ke,I,e,141,2,2932.1000000089407,340153.59999999404,8020,WL,A,6.0
2,29.891000032424927,learn,30108.999967575073,Tue Apr 08 2025 09:53:53 GMT-0500 (Central Daylight Time),343369.09999999404,A,key,I,y,264,2,3215.5,340153.59999999404,8020,WL,A,6.0
2,30.44000005722046,learn,29559.99994277954,Tue Apr 08 2025 09:53:53 GMT-0500 (Central Daylight Time),343918.799999997,A,keyenter,I,enter,532,2,3765.2000000029802,340153.59999999404,8020,WL,A,6.0
2,33.02300000190735,learn,26976.99999809265,Tue Apr 08 2025 09:53:53 GMT-0500 (Central Daylight Time),346501.200000003,A,s,I,s,2567,2,2582.1000000089407,343919.09999999404,8020,WL,A,7.0
2,33.15599989891052,learn,26844.000101089478,Tue Apr 08 2025 09:53:53 GMT-0500 (Central Daylight Time),346634.299999997,A,sa,I,a,112,2,2715.2000000029802,343919.09999999404,8020,WL,A,7.0
2,33.40599989891052,learn,26594.000101089478,Tue Apr 08 2025 09:53:53 GMT-0500 (Central Daylight Time),346884.40000000596,A,sal,I,l,235,2,2965.300000011921,343919.09999999404,8020,WL,A,7.0
2,34.0220000743866,learn,25977.999925613403,Tue Apr 08 2025 09:53:53 GMT-0500 (Central Daylight Time),347501.0,A,salt,I,t,601,2,3581.9000000059605,343919.09999999404,8020,WL,A,7.0
2,34.50499987602234,learn,25495.00012397766,Tue Apr 08 2025 09:53:53 GMT-0500 (Central Daylight Time),347984.09999999404,A,saltenter,I,enter,464,2,4065.0,343919.09999999404,8020,WL,A,7.0
2,36.90499997138977,learn,23095.00002861023,Tue Apr 08 2025 09:53:53 GMT-0500 (Central Daylight Time),350383.299999997,A,b,I,b,2381,2,2398.8999999910593,347984.40000000596,8020,WL,A,8.0
2,37.12100005149841,learn,22878.999948501587,Tue Apr 08 2025 09:53:53 GMT-0500 (Central Daylight Time),350600.0,A,bo,I,o,206,2,2615.5999999940395,347984.40000000596,8020,WL,A,8.0
2,37.270999908447266,learn,22729.000091552734,Tue Apr 08 2025 09:53:53 GMT-0500 (Central Daylight Time),350750.0,A,boo,I,o,141,2,2765.5999999940395,347984.40000000596,8020,WL,A,8.0
2,37.4539999961853,learn,22546.000003814697,Tue Apr 08 2025 09:53:53 GMT-0500 (Central Daylight Time),350932.700000003,A,book,I,k,174,2,2948.2999999970198,347984.40000000596,8020,WL,A,8.0
2,38.07100009918213,learn,21928.99990081787,Tue Apr 08 2025 09:53:53 GMT-0500 (Central Daylight Time),351549.59999999404,A,bookenter,I,enter,609,2,3565.199999988079,347984.40000000596,8020,WL,A,8.0
2,39.63700008392334,learn,20362.99991607666,Tue Apr 08 2025 09:53:53 GMT-0500 (Central Daylight Time),353115.90000000596,A,r,I,r,1560,2,1565.9000000059605,351550.0,8020,WL,A,9.0
2,39.73699998855591,learn,20263.00001144409,Tue Apr 08 2025 09:53:53 GMT-0500 (Central Daylight Time),353215.799999997,A,ru,I,u,81,2,1665.7999999970198,351550.0,8020,WL,A,9.0
2,40.78699994087219,learn,19213.000059127808,Tue Apr 08 2025 09:53:53 GMT-0500 (Central Daylight Time),354265.59999999404,A,rug,I,g,1030,2,2715.5999999940395,351550.0,8020,WL,A,9.0
2,41.47000002861023,learn,18529.99997138977,Tue Apr 08 2025 09:53:53 GMT-0500 (Central Daylight Time),354948.299999997,A,rugenter,I,enter,668,2,3398.2999999970198,351550.0,8020,WL,A,9.0
2,55.6949999332428,learn,4305.000066757202,Tue Apr 08 2025 09:53:53 GMT-0500 (Central Daylight Time),369174.5,A,f,I,f,14221,2,14226.0,354948.5,8020,WL,A,10.0
2,55.842000007629395,learn,4157.9999923706055,Tue Apr 08 2025 09:53:53 GMT-0500 (Central Daylight Time),369321.5,A,fi,I,i,141,2,14373.0,354948.5,8020,WL,A,10.0
2,55.96399998664856,learn,4036.0000133514404,Tue Apr 08 2025 09:53:53 GMT-0500 (Central Daylight Time),369443.90000000596,A,fin,I,n,115,2,14495.40000000596,354948.5,8020,WL,A,10.0
2,56.13100004196167,learn,3868.99995803833,Tue Apr 08 2025 09:53:53 GMT-0500 (Central Daylight Time),369610.59999999404,A,fing,I,g,162,2,14662.09999999404,354948.5,8020,WL,A,10.0
2,56.38100004196167,learn,3618.99995803833,Tue Apr 08 2025 09:53:53 GMT-0500 (Central Daylight Time),369860.700000003,A,finge,I,e,243,2,14912.20000000298,354948.5,8020,WL,A,10.0
2,56.49799990653992,learn,3502.000093460083,Tue Apr 08 2025 09:53:53 GMT-0500 (Central Daylight Time),369977.5,A,finger,I,r,105,2,15029.0,354948.5,8020,WL,A,10.0
2,56.746999979019165,learn,3253.000020980835,Tue Apr 08 2025 09:53:53 GMT-0500 (Central Daylight Time),370226.799999997,A,fingerenter,I,enter,244,2,15278.29999999702,354948.5,8020,WL,A,10.0
2,60.01300001144409,learn,-13.000011444091797,Tue Apr 08 2025 09:53:53 GMT-0500 (Central Daylight Time),373493.200000003,A,None,I,None,3262,2,3266.1000000089407,370227.09999999404,8020,WL,A,11.0
3,1.4160001277923584,learn,58583.99987220764,Tue Apr 08 2025 09:53:53 GMT-0500 (Central Daylight Time),442154.5,A,b,I,b,1412,2,1415.9000000059605,440738.59999999404,8020,WL,A,1.0
3,1.566999912261963,learn,58433.00008773804,Tue Apr 08 2025 09:53:53 GMT-0500 (Central Daylight Time),442304.59999999404,A,bu,I,u,130,2,1566.0,440738.59999999404,8020,WL,A,1.0
3,1.9000000953674316,learn,58099.99990463257,Tue Apr 08 2025 09:53:53 GMT-0500 (Central Daylight Time),442638.0,A,but,I,t,316,2,1899.4000000059605,440738.59999999404,8020,WL,A,1.0
3,2.049999952316284,learn,57950.000047683716,Tue Apr 08 2025 09:53:53 GMT-0500 (Central Daylight Time),442787.90000000596,A,butt,I,t,144,2,2049.300000011921,440738.59999999404,8020,WL,A,1.0
3,2.1500000953674316,learn,57849.99990463257,Tue Apr 08 2025 09:53:53 GMT-0500 (Central Daylight Time),442887.799999997,A,butto,I,o,90,2,2149.2000000029802,440738.59999999404,8020,WL,A,1.0
3,2.2660000324249268,learn,57733.99996757507,Tue Apr 08 2025 09:53:53 GMT-0500 (Central Daylight Time),443004.40000000596,A,button,I,n,102,2,2265.800000011921,440738.59999999404,8020,WL,A,1.0
3,2.749000072479248,learn,57250.99992752075,Tue Apr 08 2025 09:53:53 GMT-0500 (Central Daylight Time),443487.40000000596,A,buttonenter,I,enter,472,2,2748.800000011921,440738.59999999404,8020,WL,A,1.0
3,3.499000072479248,learn,56500.99992752075,Tue Apr 08 2025 09:53:53 GMT-0500 (Central Daylight Time),444237.5,A,h,I,h,734,2,749.7999999970198,443487.700000003,8020,WL,A,2.0
3,3.615999937057495,learn,56384.000062942505,Tue Apr 08 2025 09:53:53 GMT-0500 (Central Daylight Time),444354.0,A,ha,I,a,104,2,866.2999999970198,443487.700000003,8020,WL,A,2.0
3,3.7990000247955322,learn,56200.99997520447,Tue Apr 08 2025 09:53:53 GMT-0500 (Central Daylight Time),444537.200000003,A,har,I,r,163,2,1049.5,443487.700000003,8020,WL,A,2.0
3,4.232000112533569,learn,55767.99988746643,Tue Apr 08 2025 09:53:53 GMT-0500 (Central Daylight Time),444970.40000000596,A,harp,I,p,428,2,1482.7000000029802,443487.700000003,8020,WL,A,2.0
3,5.431999921798706,learn,54568.000078201294,Tue Apr 08 2025 09:53:53 GMT-0500 (Central Daylight Time),446170.09999999404,A,harpenter,I,enter,1195,2,2682.3999999910593,443487.700000003,8020,WL,A,2.0
3,6.065000057220459,learn,53934.99994277954,Tue Apr 08 2025 09:53:53 GMT-0500 (Central Daylight Time),446802.799999997,A,d,I,d,627,2,632.5,446170.299999997,8020,WL,A,3.0
3,7.082000017166138,learn,52917.99998283386,Tue Apr 08 2025 09:53:53 GMT-0500 (Central Daylight Time),447819.59999999404,A,,I,backspace,1010,2,1649.2999999970198,446170.299999997,8020,WL,A,3.0
3,7.79800009727478,learn,52201.99990272522,Tue Apr 08 2025 09:53:53 GMT-0500 (Central Daylight Time),448536.09999999404,A,l,I,l,706,2,2365.7999999970198,446170.299999997,8020,WL,A,3.0
3,8.013999938964844,learn,51986.000061035156,Tue Apr 08 2025 09:53:53 GMT-0500 (Central Daylight Time),448752.40000000596,A,lo,I,o,197,2,2582.1000000089407,446170.299999997,8020,WL,A,3.0
3,8.148000001907349,learn,51851.99999809265,Tue Apr 08 2025 09:53:53 GMT-0500 (Central Daylight Time),448885.799999997,A,log,I,g,125,2,2715.5,446170.299999997,8020,WL,A,3.0
3,9.680999994277954,learn,50319.000005722046,Tue Apr 08 2025 09:53:53 GMT-0500 (Central Daylight Time),450418.799999997,A,logk,I,k,1520,2,4248.5,446170.299999997,8020,WL,A,3.0
3,10.13100004196167,learn,49868.99995803833,Tue Apr 08 2025 09:53:53 GMT-0500 (Central Daylight Time),450868.5,A,logke,I,e,443,2,4698.20000000298,446170.299999997,8020,WL,A,3.0
3,10.27999997138977,learn,49720.00002861023,Tue Apr 08 2025 09:53:53 GMT-0500 (Central Daylight Time),451018.5,A,logkey,I,y,137,2,4848.20000000298,446170.299999997,8020,WL,A,3.0
3,11.397000074386597,learn,48602.9999256134,Tue Apr 08 2025 09:53:53 GMT-0500 (Central Daylight Time),452134.90000000596,A,logke,I,backspace,1107,2,5964.600000008941,446170.299999997,8020,WL,A,3.0
3,11.597000122070312,learn,48402.99987792969,Tue Apr 08 2025 09:53:53 GMT-0500 (Central Daylight Time),452334.799999997,A,logk,I,backspace,191,2,6164.5,446170.299999997,8020,WL,A,3.0
3,11.763000011444092,learn,48236.99998855591,Tue Apr 08 2025 09:53:53 GMT-0500 (Central Daylight Time),452501.200000003,A,log,I,backspace,150,2,6330.9000000059605,446170.299999997,8020,WL,A,3.0
3,13.696000099182129,learn,46303.99990081787,Tue Apr 08 2025 09:53:53 GMT-0500 (Central Daylight Time),454434.299999997,A,logenter,I,enter,1920,2,8264.0,446170.299999997,8020,WL,A,3.0
3,14.979000091552734,learn,45020.999908447266,Tue Apr 08 2025 09:53:53 GMT-0500 (Central Daylight Time),455717.200000003,A,k,I,k,1275,2,1282.6000000089407,454434.59999999404,8020,WL,A,4.0
3,15.312000036239624,learn,44687.999963760376,Tue Apr 08 2025 09:53:53 GMT-0500 (Central Daylight Time),456050.200000003,A,ke,I,e,312,2,1615.6000000089407,454434.59999999404,8020,WL,A,4.0
3,15.495000123977661,learn,44504.99987602234,Tue Apr 08 2025 09:53:53 GMT-0500 (Central Daylight Time),456233.5,A,key,I,y,171,2,1798.9000000059605,454434.59999999404,8020,WL,A,4.0
3,16.24500012397766,learn,43754.99987602234,Tue Apr 08 2025 09:53:53 GMT-0500 (Central Daylight Time),456983.40000000596,A,keyr,I,r,732,2,2548.800000011921,454434.59999999404,8020,WL,A,4.0
3,16.378999948501587,learn,43621.00005149841,Tue Apr 08 2025 09:53:53 GMT-0500 (Central Daylight Time),457116.5,A,keyra,I,a,126,2,2681.9000000059605,454434.59999999404,8020,WL,A,4.0
3,16.99500012397766,learn,43004.99987602234,Tue Apr 08 2025 09:53:53 GMT-0500 (Central Daylight Time),457733.09999999404,A,keyr,I,backspace,609,2,3298.5,454434.59999999404,8020,WL,A,4.0
3,17.17799997329712,learn,42822.00002670288,Tue Apr 08 2025 09:53:53 GMT-0500 (Central Daylight Time),457916.200000003,A,key,I,backspace,168,2,3481.6000000089407,454434.59999999404,8020,WL,A,4.0
3,17.32800006866455,learn,42671.99993133545,Tue Apr 08 2025 09:53:53 GMT-0500 (Central Daylight Time),458066.40000000596,A,ke,I,backspace,129,2,3631.800000011921,454434.59999999404,8020,WL,A,4.0
3,18.67799997329712,learn,41322.00002670288,Tue Apr 08 2025 09:53:53 GMT-0500 (Central Daylight Time),459415.90000000596,A,key,I,y,1339,2,4981.300000011921,454434.59999999404,8020,WL,A,4.0
3,19.24399995803833,learn,40756.00004196167,Tue Apr 08 2025 09:53:53 GMT-0500 (Central Daylight Time),459982.200000003,A,keyenter,I,enter,558,2,5547.600000008941,454434.59999999404,8020,WL,A,4.0
3,19.97699999809265,learn,40023.00000190735,Tue Apr 08 2025 09:53:53 GMT-0500 (Central Daylight Time),460715.40000000596,A,r,I,r,719,2,732.8000000119209,459982.59999999404,8020,WL,A,5.0
3,20.177000045776367,learn,39822.99995422363,Tue Apr 08 2025 09:53:53 GMT-0500 (Central Daylight Time),460915.40000000596,A,ra,I,a,194,2,932.8000000119209,459982.59999999404,8020,WL,A,5.0
3,20.41100001335144,learn,39588.99998664856,Tue Apr 08 2025 09:53:53 GMT-0500 (Central Daylight Time),461148.700000003,A,rat,I,t,218,2,1166.1000000089407,459982.59999999404,8020,WL,A,5.0
3,20.594000101089478,learn,39405.99989891052,Tue Apr 08 2025 09:53:53 GMT-0500 (Central Daylight Time),461332.0,A,ratt,I,t,169,2,1349.4000000059605,459982.59999999404,8020,WL,A,5.0
3,20.944000005722046,learn,39055.999994277954,Tue Apr 08 2025 09:53:53 GMT-0500 (Central Daylight Time),461681.90000000596,A,rattl,I,l,329,2,1699.300000011921,459982.59999999404,8020,WL,A,5.0
3,21.07699990272522,learn,38923.00009727478,Tue Apr 08 2025 09:53:53 GMT-0500 (Central Daylight Time),461815.0,A,rattle,I,e,115,2,1832.4000000059605,459982.59999999404,8020,WL,A,5.0
3,21.64400005340576,learn,38355.99994659424,Tue Apr 08 2025 09:53:53 GMT-0500 (Central Daylight Time),462381.700000003,A,rattleenter,I,enter,559,2,2399.1000000089407,459982.59999999404,8020,WL,A,5.0
3,22.97699999809265,learn,37023.00000190735,Tue Apr 08 2025 09:53:53 GMT-0500 (Central Daylight Time),463714.59999999404,A,b,I,b,1312,2,1332.5999999940395,462382.0,8020,WL,A,6.0
3,23.125999927520752,learn,36874.00007247925,Tue Apr 08 2025 09:53:53 GMT-0500 (Central Daylight Time),463864.5,A,bo,I,o,139,2,1482.5,462382.0,8020,WL,A,6.0
3,23.292999982833862,learn,36707.00001716614,Tue Apr 08 2025 09:53:53 GMT-0500 (Central Daylight Time),464031.09999999404,A,boo,I,o,149,2,1649.0999999940395,462382.0,8020,WL,A,6.0
3,23.4760000705719,learn,36523.9999294281,Tue Apr 08 2025 09:53:53 GMT-0500 (Central Daylight Time),464214.299999997,A,book,I,k,166,2,1832.2999999970198,462382.0,8020,WL,A,6.0
3,24.375999927520752,learn,35624.00007247925,Tue Apr 08 2025 09:53:53 GMT-0500 (Central Daylight Time),465114.09999999404,A,bookenter,I,enter,879,2,2732.0999999940395,462382.0,8020,WL,A,6.0
3,25.45900011062622,learn,34540.99988937378,Tue Apr 08 2025 09:53:53 GMT-0500 (Central Daylight Time),466197.0,A,f,I,f,1067,2,1082.5999999940395,465114.40000000596,8020,WL,A,7.0
3,25.80900001525879,learn,34190.99998474121,Tue Apr 08 2025 09:53:53 GMT-0500 (Central Daylight Time),466546.799999997,A,fl,I,l,344,2,1432.3999999910593,465114.40000000596,8020,WL,A,7.0
3,25.993000030517578,learn,34006.99996948242,Tue Apr 08 2025 09:53:53 GMT-0500 (Central Daylight Time),466730.5,A,flo,I,o,171,2,1616.0999999940395,465114.40000000596,8020,WL,A,7.0
3,26.625,learn,33375.0,Tue Apr 08 2025 09:53:53 GMT-0500 (Central Daylight Time),467363.0,A,flow,I,w,619,2,2248.5999999940395,465114.40000000596,8020,WL,A,7.0
3,26.79200005531311,learn,33207.99994468689,Tue Apr 08 2025 09:53:53 GMT-0500 (Central Daylight Time),467530.200000003,A,flowe,I,e,162,2,2415.7999999970198,465114.40000000596,8020,WL,A,7.0
3,26.941999912261963,learn,33058.00008773804,Tue Apr 08 2025 09:53:53 GMT-0500 (Central Daylight Time),467680.0,A,flower,I,r,139,2,2565.5999999940395,465114.40000000596,8020,WL,A,7.0
3,27.79200005531311,learn,32207.99994468689,Tue Apr 08 2025 09:53:53 GMT-0500 (Central Daylight Time),468529.700000003,A,flowerenter,I,enter,838,2,3415.2999999970198,465114.40000000596,8020,WL,A,7.0
3,29.624000072479248,learn,30375.999927520752,Tue Apr 08 2025 09:53:53 GMT-0500 (Central Daylight Time),470362.40000000596,A,c,I,c,1828,2,1832.4000000059605,468530.0,8020,WL,A,8.0
3,29.758000135421753,learn,30241.999864578247,Tue Apr 08 2025 09:53:53 GMT-0500 (Central Daylight Time),470495.799999997,A,ch,I,h,123,2,1965.7999999970198,468530.0,8020,WL,A,8.0
3,30.374000072479248,learn,29625.999927520752,Tue Apr 08 2025 09:53:53 GMT-0500 (Central Daylight Time),471112.299999997,A,chi,I,i,605,2,2582.2999999970198,468530.0,8020,WL,A,8.0
3,30.723999977111816,learn,29276.000022888184,Tue Apr 08 2025 09:53:53 GMT-0500 (Central Daylight Time),471462.299999997,A,chim,I,m,333,2,2932.2999999970198,468530.0,8020,WL,A,8.0
3,31.0239999294281,learn,28976.0000705719,Tue Apr 08 2025 09:53:53 GMT-0500 (Central Daylight Time),471762.0,A,chimn,I,n,279,2,3232.0,468530.0,8020,WL,A,8.0
3,32.08999991416931,learn,27910.00008583069,Tue Apr 08 2025 09:53:53 GMT-0500 (Central Daylight Time),472828.09999999404,A,chimne,I,e,1059,2,4298.0999999940395,468530.0,8020,WL,A,8.0
3,32.19000005722046,learn,27809.99994277954,Tue Apr 08 2025 09:53:53 GMT-0500 (Central Daylight Time),472928.299999997,A,chimney,I,y,89,2,4398.29999999702,468530.0,8020,WL,A,8.0
3,33.65700006484985,learn,26342.999935150146,Tue Apr 08 2025 09:53:53 GMT-0500 (Central Daylight Time),474394.90000000596,A,chimneyenter,I,enter,1445,2,5864.9000000059605,468530.0,8020,WL,A,8.0
3,38.0699999332428,learn,21930.000066757202,Tue Apr 08 2025 09:53:53 GMT-0500 (Central Daylight Time),478809.700000003,A,t,I,t,4395,2,4414.4000000059605,474395.299999997,8020,WL,A,9.0
3,38.30399990081787,learn,21696.00009918213,Tue Apr 08 2025 09:53:53 GMT-0500 (Central Daylight Time),479043.0,A,tr,I,r,220,2,4647.70000000298,474395.299999997,8020,WL,A,9.0
3,39.3199999332428,learn,20680.000066757202,Tue Apr 08 2025 09:53:53 GMT-0500 (Central Daylight Time),480059.40000000596,A,tra,I,a,1002,2,5664.100000008941,474395.299999997,8020,WL,A,9.0
3,39.47000002861023,learn,20529.99997138977,Tue Apr 08 2025 09:53:53 GMT-0500 (Central Daylight Time),480209.5,A,trai,I,i,130,2,5814.20000000298,474395.299999997,8020,WL,A,9.0
3,39.587000131607056,learn,20412.999868392944,Tue Apr 08 2025 09:53:53 GMT-0500 (Central Daylight Time),480326.09999999404,A,train,I,n,108,2,5930.79999999702,474395.299999997,8020,WL,A,9.0
3,40.20300006866455,learn,19796.99993133545,Tue Apr 08 2025 09:53:53 GMT-0500 (Central Daylight Time),480942.40000000596,A,trainenter,I,enter,600,2,6547.100000008941,474395.299999997,8020,WL,A,9.0
3,40.97000002861023,learn,19029.99997138977,Tue Apr 08 2025 09:53:53 GMT-0500 (Central Daylight Time),481709.0,A,r,I,r,759,2,766.2000000029802,480942.799999997,8020,WL,A,10.0
3,41.15300011634827,learn,18846.999883651733,Tue Apr 08 2025 09:53:53 GMT-0500 (Central Daylight Time),481892.59999999404,A,ru,I,u,168,2,949.7999999970198,480942.799999997,8020,WL,A,10.0
3,41.503000020980835,learn,18496.999979019165,Tue Apr 08 2025 09:53:53 GMT-0500 (Central Daylight Time),482242.0,A,run,I,n,329,2,1299.2000000029802,480942.799999997,8020,WL,A,10.0
3,42.68600010871887,learn,17313.999891281128,Tue Apr 08 2025 09:53:53 GMT-0500 (Central Daylight Time),483425.09999999404,A,ru,I,backspace,1163,2,2482.2999999970198,480942.799999997,8020,WL,A,10.0
3,43.38599991798401,learn,16614.00008201599,Tue Apr 08 2025 09:53:53 GMT-0500 (Central Daylight Time),484124.90000000596,A,rug,I,g,684,2,3182.1000000089407,480942.799999997,8020,WL,A,10.0
3,44.569000005722046,learn,15430.999994277954,Tue Apr 08 2025 09:53:53 GMT-0500 (Central Daylight Time),485307.700000003,A,rugenter,I,enter,1168,2,4364.9000000059605,480942.799999997,8020,WL,A,10.0
3,58.496999979019165,learn,1503.000020980835,Tue Apr 08 2025 09:53:53 GMT-0500 (Central Daylight Time),499236.59999999404,A,l,I,l,13922,2,13928.5,485308.09999999404,8020,WL,A,11.0
3,58.78099989891052,learn,1219.0001010894775,Tue Apr 08 2025 09:53:53 GMT-0500 (Central Daylight Time),499520.09999999404,A,lo,I,o,272,2,14212.0,485308.09999999404,8020,WL,A,11.0
3,58.88100004196167,learn,1118.99995803833,Tue Apr 08 2025 09:53:53 GMT-0500 (Central Daylight Time),499620.0,A,log,I,g,85,2,14311.90000000596,485308.09999999404,8020,WL,A,11.0
3,59.36400008201599,learn,635.9999179840088,Tue Apr 08 2025 09:53:53 GMT-0500 (Central Daylight Time),500102.90000000596,A,logenter,I,enter,473,2,14794.800000011921,485308.09999999404,8020,WL,A,11.0
3,60.013999938964844,learn,-13.99993896484375,Tue Apr 08 2025 09:53:53 GMT-0500 (Central Daylight Time),500752.90000000596,A,None,I,None,645,2,649.5,500103.40000000596,8020,WL,A,12.0
4,1.0329999923706055,learn,58967.000007629395,Tue Apr 08 2025 09:53:53 GMT-0500 (Central Daylight Time),566732.299999997,A,h,I,h,1025,2,1032.5999999940395,565699.700000003,8020,WL,A,1.0
4,1.1489999294281006,learn,58851.0000705719,Tue Apr 08 2025 09:53:53 GMT-0500 (Central Daylight Time),566848.900000006,A,ha,I,a,97,2,1149.2000000029802,565699.700000003,8020,WL,A,1.0
4,1.5160000324249268,learn,58483.99996757507,Tue Apr 08 2025 09:53:53 GMT-0500 (Central Daylight Time),567215.5,A,har,I,r,357,2,1515.7999999970198,565699.700000003,8020,WL,A,1.0
4,1.8659999370574951,learn,58134.000062942505,Tue Apr 08 2025 09:53:53 GMT-0500 (Central Daylight Time),567565.299999997,A,harp,I,p,342,2,1865.5999999940395,565699.700000003,8020,WL,A,1.0
4,2.681999921798706,learn,57318.000078201294,Tue Apr 08 2025 09:53:53 GMT-0500 (Central Daylight Time),568381.900000006,A,harpenter,I,enter,808,2,2682.2000000029802,565699.700000003,8020,WL,A,1.0
4,3.2319998741149902,learn,56768.00012588501,Tue Apr 08 2025 09:53:53 GMT-0500 (Central Daylight Time),568931.599999994,A,s,I,s,536,2,549.3999999910593,568382.200000003,8020,WL,A,2.0
4,3.2820000648498535,learn,56717.99993515015,Tue Apr 08 2025 09:53:53 GMT-0500 (Central Daylight Time),568982.099999994,A,sa,I,a,42,2,599.8999999910593,568382.200000003,8020,WL,A,2.0
4,3.5820000171661377,learn,56417.99998283386,Tue Apr 08 2025 09:53:53 GMT-0500 (Central Daylight Time),569281.299999997,A,sal,I,l,280,2,899.0999999940395,568382.200000003,8020,WL,A,2.0
4,4.065000057220459,learn,55934.99994277954,Tue Apr 08 2025 09:53:53 GMT-0500 (Central Daylight Time),569764.799999997,A,salt,I,t,476,2,1382.5999999940395,568382.200000003,8020,WL,A,2.0
4,4.697999954223633,learn,55302.00004577637,Tue Apr 08 2025 09:53:53 GMT-0500 (Central Daylight Time),570397.700000003,A,saltenter,I,enter,625,2,2015.5,568382.200000003,8020,WL,A,2.0
4,5.3480000495910645,learn,54651.999950408936,Tue Apr 08 2025 09:53:53 GMT-0500 (Central Daylight Time),571047.599999994,A,a,I,a,632,2,649.6999999880791,570397.900000006,8020,WL,A,3.0
4,5.747999906539917,learn,54252.00009346008,Tue Apr 08 2025 09:53:53 GMT-0500 (Central Daylight Time),571447.400000006,A,ap,I,p,382,2,1049.5,570397.900000006,8020,WL,A,3.0
4,5.930999994277954,learn,54069.000005722046,Tue Apr 08 2025 09:53:53 GMT-0500 (Central Daylight Time),571630.900000006,A,app,I,p,166,2,1233.0,570397.900000006,8020,WL,A,3.0
4,6.0980000495910645,learn,53901.999950408936,Tue Apr 08 2025 09:53:53 GMT-0500 (Central Daylight Time),571797.400000006,A,appl,I,l,159,2,1399.5,570397.900000006,8020,WL,A,3.0
4,6.230999946594238,learn,53769.00005340576,Tue Apr 08 2025 09:53:53 GMT-0500 (Central Daylight Time),571930.700000003,A,apple,I,e,112,2,1532.7999999970198,570397.900000006,8020,WL,A,3.0
4,6.581000089645386,learn,53418.999910354614,Tue Apr 08 2025 09:53:53 GMT-0500 (Central Daylight Time),572280.5,A,appleenter,I,enter,330,2,1882.5999999940395,570397.900000006,8020,WL,A,3.0
4,7.21399998664856,learn,52786.00001335144,Tue Apr 08 2025 09:53:53 GMT-0500 (Central Daylight Time),572913.799999997,A,b,I,b,613,2,632.8999999910593,572280.900000006,8020,WL,A,4.0
4,7.397000074386597,learn,52602.9999256134,Tue Apr 08 2025 09:53:53 GMT-0500 (Central Daylight Time),573096.900000006,A,bu,I,u,171,2,816.0,572280.900000006,8020,WL,A,4.0
4,7.647000074386597,learn,52352.9999256134,Tue Apr 08 2025 09:53:53 GMT-0500 (Central Daylight Time),573347.0,A,but,I,t,237,2,1066.0999999940395,572280.900000006,8020,WL,A,4.0
4,7.813999891281128,learn,52186.00010871887,Tue Apr 08 2025 09:53:53 GMT-0500 (Central Daylight Time),573513.5,A,butt,I,t,146,2,1232.5999999940395,572280.900000006,8020,WL,A,4.0
4,7.864000082015991,learn,52135.99991798401,Tue Apr 08 2025 09:53:53 GMT-0500 (Central Daylight Time),573563.599999994,A,butto,I,o,36,2,1282.699999988079,572280.900000006,8020,WL,A,4.0
4,8.030999898910522,learn,51969.00010108948,Tue Apr 08 2025 09:53:53 GMT-0500 (Central Daylight Time),573730.299999997,A,button,I,n,162,2,1449.3999999910593,572280.900000006,8020,WL,A,4.0
4,8.579999923706055,learn,51420.000076293945,Tue Apr 08 2025 09:53:53 GMT-0500 (Central Daylight Time),574279.900000006,A,buttonenter,I,enter,537,2,1999.0,572280.900000006,8020,WL,A,4.0
4,9.912999868392944,learn,50087.000131607056,Tue Apr 08 2025 09:53:53 GMT-0500 (Central Daylight Time),575612.900000006,A,a,I,a,1318,2,1332.6000000089407,574280.299999997,8020,WL,A,5.0
4,10.11299991607666,learn,49887.00008392334,Tue Apr 08 2025 09:53:53 GMT-0500 (Central Daylight Time),575812.900000006,A,ap,I,p,192,2,1532.6000000089407,574280.299999997,8020,WL,A,5.0
4,10.246999979019165,learn,49753.000020980835,Tue Apr 08 2025 09:53:53 GMT-0500 (Central Daylight Time),575946.400000006,A,app,I,p,121,2,1666.1000000089407,574280.299999997,8020,WL,A,5.0
4,10.430000066757202,learn,49569.9999332428,Tue Apr 08 2025 09:53:53 GMT-0500 (Central Daylight Time),576129.599999994,A,appl,I,l,171,2,1849.2999999970198,574280.299999997,8020,WL,A,5.0
4,10.579999923706055,learn,49420.000076293945,Tue Apr 08 2025 09:53:53 GMT-0500 (Central Daylight Time),576279.299999997,A,apple,I,e,140,2,1999.0,574280.299999997,8020,WL,A,5.0
4,10.878999948501587,learn,49121.00005149841,Tue Apr 08 2025 09:53:53 GMT-0500 (Central Daylight Time),576578.900000006,A,appleenter,I,enter,294,2,2298.6000000089407,574280.299999997,8020,WL,A,5.0
4,12.395999908447266,learn,47604.000091552734,Tue Apr 08 2025 09:53:53 GMT-0500 (Central Daylight Time),578095.5,A,b,I,b,1507,2,1516.4000000059605,576579.099999994,8020,WL,A,6.0
4,12.595999956130981,learn,47404.00004386902,Tue Apr 08 2025 09:53:53 GMT-0500 (Central Daylight Time),578295.299999997,A,bo,I,o,190,2,1716.2000000029802,576579.099999994,8020,WL,A,6.0
4,12.76200008392334,learn,47237.99991607666,Tue Apr 08 2025 09:53:53 GMT-0500 (Central Daylight Time),578462.0,A,boo,I,o,150,2,1882.9000000059605,576579.099999994,8020,WL,A,6.0
4,12.894999980926514,learn,47105.000019073486,Tue Apr 08 2025 09:53:53 GMT-0500 (Central Daylight Time),578595.0,A,book,I,k,127,2,2015.9000000059605,576579.099999994,8020,WL,A,6.0
4,13.479000091552734,learn,46520.999908447266,Tue Apr 08 2025 09:53:53 GMT-0500 (Central Daylight Time),579178.400000006,A,bookenter,I,enter,570,2,2599.300000011921,576579.099999994,8020,WL,A,6.0
4,14.09500002861023,learn,45904.99997138977,Tue Apr 08 2025 09:53:53 GMT-0500 (Central Daylight Time),579795.0,A,f,I,f,603,2,616.2999999970198,579178.700000003,8020,WL,A,7.0
4,14.26200008392334,learn,45737.99991607666,Tue Apr 08 2025 09:53:53 GMT-0500 (Central Daylight Time),579961.5,A,fl,I,l,146,2,782.7999999970198,579178.700000003,8020,WL,A,7.0
4,14.428999900817871,learn,45571.00009918213,Tue Apr 08 2025 09:53:53 GMT-0500 (Central Daylight Time),580128.5,A,flo,I,o,156,2,949.7999999970198,579178.700000003,8020,WL,A,7.0
4,14.611999988555908,learn,45388.00001144409,Tue Apr 08 2025 09:53:53 GMT-0500 (Central Daylight Time),580311.400000006,A,flow,I,w,173,2,1132.7000000029802,579178.700000003,8020,WL,A,7.0
4,14.76200008392334,learn,45237.99991607666,Tue Apr 08 2025 09:53:53 GMT-0500 (Central Daylight Time),580461.400000006,A,flowe,I,e,142,2,1282.7000000029802,579178.700000003,8020,WL,A,7.0
4,14.894999980926514,learn,45105.000019073486,Tue Apr 08 2025 09:53:53 GMT-0500 (Central Daylight Time),580594.599999994,A,flower,I,r,120,2,1415.8999999910593,579178.700000003,8020,WL,A,7.0
4,15.522000074386597,learn,44477.9999256134,Tue Apr 08 2025 09:53:53 GMT-0500 (Central Daylight Time),581221.5,A,flowerenter,I,enter,622,2,2042.7999999970198,579178.700000003,8020,WL,A,7.0
4,16.460999965667725,learn,43539.000034332275,Tue Apr 08 2025 09:53:53 GMT-0500 (Central Daylight Time),582160.799999997,A,t,I,t,919,2,939.0,581221.799999997,8020,WL,A,8.0
4,16.628000020980835,learn,43371.999979019165,Tue Apr 08 2025 09:53:53 GMT-0500 (Central Daylight Time),582327.599999994,A,tr,I,r,157,2,1105.7999999970198,581221.799999997,8020,WL,A,8.0
4,16.76099991798401,learn,43239.00008201599,Tue Apr 08 2025 09:53:53 GMT-0500 (Central Daylight Time),582460.799999997,A,tra,I,a,126,2,1239.0,581221.799999997,8020,WL,A,8.0
4,16.944000005722046,learn,43055.999994277954,Tue Apr 08 2025 09:53:53 GMT-0500 (Central Daylight Time),582644.0,A,trai,I,i,176,2,1422.2000000029802,581221.799999997,8020,WL,A,8.0
4,17.060999870300293,learn,42939.00012969971,Tue Apr 08 2025 09:53:53 GMT-0500 (Central Daylight Time),582760.900000006,A,train,I,n,97,2,1539.1000000089407,581221.799999997,8020,WL,A,8.0
4,17.627000093460083,learn,42372.99990653992,Tue Apr 08 2025 09:53:53 GMT-0500 (Central Daylight Time),583327.0,A,trainenter,I,enter,556,2,2105.2000000029802,581221.799999997,8020,WL,A,8.0
4,18.793999910354614,learn,41206.000089645386,Tue Apr 08 2025 09:53:53 GMT-0500 (Central Daylight Time),584493.400000006,A,l,I,l,1151,2,1166.0,583327.400000006,8020,WL,A,9.0
4,18.97699999809265,learn,41023.00000190735,Tue Apr 08 2025 09:53:53 GMT-0500 (Central Daylight Time),584676.599999994,A,lo,I,o,168,2,1349.199999988079,583327.400000006,8020,WL,A,9.0
4,19.043999910354614,learn,40956.000089645386,Tue Apr 08 2025 09:53:53 GMT-0500 (Central Daylight Time),584743.299999997,A,log,I,g,48,2,1415.8999999910593,583327.400000006,8020,WL,A,9.0
4,19.526999950408936,learn,40473.000049591064,Tue Apr 08 2025 09:53:53 GMT-0500 (Central Daylight Time),585226.599999994,A,logenter,I,enter,478,2,1899.199999988079,583327.400000006,8020,WL,A,9.0
4,25.240999937057495,learn,34759.000062942505,Tue Apr 08 2025 09:53:53 GMT-0500 (Central Daylight Time),590941.0,A,r,I,r,5707,2,5714.0999999940395,585226.900000006,8020,WL,A,10.0
4,25.44099998474121,learn,34559.00001525879,Tue Apr 08 2025 09:53:53 GMT-0500 (Central Daylight Time),591141.0,A,ru,I,u,192,2,5914.0999999940395,585226.900000006,8020,WL,A,10.0
4,25.70799994468689,learn,34292.00005531311,Tue Apr 08 2025 09:53:53 GMT-0500 (Central Daylight Time),591407.599999994,A,rug,I,g,248,2,6180.699999988079,585226.900000006,8020,WL,A,10.0
4,26.124000072479248,learn,33875.99992752075,Tue Apr 08 2025 09:53:53 GMT-0500 (Central Daylight Time),591824.200000003,A,rugenter,I,enter,397,2,6597.29999999702,585226.900000006,8020,WL,A,10.0
4,29.33999991416931,learn,30660.00008583069,Tue Apr 08 2025 09:53:53 GMT-0500 (Central Daylight Time),595040.299999997,A,r,I,r,3197,2,3215.7000000029802,591824.599999994,8020,WL,A,11.0
4,29.473999977111816,learn,30526.000022888184,Tue Apr 08 2025 09:53:53 GMT-0500 (Central Daylight Time),595173.700000003,A,ra,I,a,125,2,3349.1000000089407,591824.599999994,8020,WL,A,11.0
4,29.723999977111816,learn,30276.000022888184,Tue Apr 08 2025 09:53:53 GMT-0500 (Central Daylight Time),595423.299999997,A,rat,I,t,240,2,3598.7000000029802,591824.599999994,8020,WL,A,11.0
4,29.889999866485596,learn,30110.000133514404,Tue Apr 08 2025 09:53:53 GMT-0500 (Central Daylight Time),595590.099999994,A,ratt,I,t,158,2,3765.5,591824.599999994,8020,WL,A,11.0
4,30.072999954223633,learn,29927.000045776367,Tue Apr 08 2025 09:53:53 GMT-0500 (Central Daylight Time),595773.099999994,A,rattl,I,l,167,2,3948.5,591824.599999994,8020,WL,A,11.0
4,30.306999921798706,learn,29693.000078201294,Tue Apr 08 2025 09:53:53 GMT-0500 (Central Daylight Time),596006.5,A,rattle,I,e,224,2,4181.9000000059605,591824.599999994,8020,WL,A,11.0
4,31.122999906539917,learn,28877.000093460083,Tue Apr 08 2025 09:53:53 GMT-0500 (Central Daylight Time),596823.0,A,rattleenter,I,enter,799,2,4998.4000000059605,591824.599999994,8020,WL,A,11.0
4,37.187000036239624,learn,22812.999963760376,Tue Apr 08 2025 09:53:53 GMT-0500 (Central Daylight Time),602887.700000003,A,b,I,b,6054,2,6064.4000000059605,596823.299999997,8020,WL,A,12.0
4,37.40400004386902,learn,22595.99995613098,Tue Apr 08 2025 09:53:53 GMT-0500 (Central Daylight Time),603104.200000003,A,bu,I,u,206,2,6280.9000000059605,596823.299999997,8020,WL,A,12.0
4,37.62100005149841,learn,22378.999948501587,Tue Apr 08 2025 09:53:53 GMT-0500 (Central Daylight Time),603321.0,A,but,I,t,197,2,6497.70000000298,596823.299999997,8020,WL,A,12.0
4,37.854000091552734,learn,22145.999908447266,Tue Apr 08 2025 09:53:53 GMT-0500 (Central Daylight Time),603554.400000006,A,butt,I,t,213,2,6731.100000008941,596823.299999997,8020,WL,A,12.0
4,37.97099995613098,learn,22029.00004386902,Tue Apr 08 2025 09:53:53 GMT-0500 (Central Daylight Time),603670.799999997,A,butto,I,o,99,2,6847.5,596823.299999997,8020,WL,A,12.0
4,38.11999988555908,learn,21880.000114440918,Tue Apr 08 2025 09:53:53 GMT-0500 (Central Daylight Time),603820.599999994,A,button,I,n,135,2,6997.29999999702,596823.299999997,8020,WL,A,12.0
4,38.48699998855591,learn,21513.00001144409,Tue Apr 08 2025 09:53:53 GMT-0500 (Central Daylight Time),604187.200000003,A,buttonenter,I,enter,352,2,7363.9000000059605,596823.299999997,8020,WL,A,12.0
4,44.38499999046326,learn,15615.000009536743,Tue Apr 08 2025 09:53:53 GMT-0500 (Central Daylight Time),610085.400000006,A,f,I,f,5882,2,5897.70000000298,604187.700000003,8020,WL,A,13.0
4,44.55200004577637,learn,15447.999954223633,Tue Apr 08 2025 09:53:53 GMT-0500 (Central Daylight Time),610251.900000006,A,fi,I,i,160,2,6064.20000000298,604187.700000003,8020,WL,A,13.0
4,44.66799998283386,learn,15332.000017166138,Tue Apr 08 2025 09:53:53 GMT-0500 (Central Daylight Time),610368.599999994,A,fin,I,n,105,2,6180.899999991059,604187.700000003,8020,WL,A,13.0
4,44.818000078201294,learn,15181.999921798706,Tue Apr 08 2025 09:53:53 GMT-0500 (Central Daylight Time),610518.599999994,A,fing,I,g,133,2,6330.899999991059,604187.700000003,8020,WL,A,13.0
4,45.08500003814697,learn,14914.999961853027,Tue Apr 08 2025 09:53:53 GMT-0500 (Central Daylight Time),610785.099999994,A,finge,I,e,247,2,6597.399999991059,604187.700000003,8020,WL,A,13.0
4,45.16799998283386,learn,14832.000017166138,Tue Apr 08 2025 09:53:53 GMT-0500 (Central Daylight Time),610868.5,A,finger,I,r,76,2,6680.79999999702,604187.700000003,8020,WL,A,13.0
4,45.58500003814697,learn,14414.999961853027,Tue Apr 08 2025 09:53:53 GMT-0500 (Central Daylight Time),611285.099999994,A,fingerenter,I,enter,409,2,7097.399999991059,604187.700000003,8020,WL,A,13.0
4,46.03500008583069,learn,13964.999914169312,Tue Apr 08 2025 09:53:53 GMT-0500 (Central Daylight Time),611735.0,A,g,I,g,440,2,449.59999999403954,611285.400000006,8020,WL,A,14.0
4,46.21799993515015,learn,13782.000064849854,Tue Apr 08 2025 09:53:53 GMT-0500 (Central Daylight Time),611918.200000003,A,go,I,o,175,2,632.7999999970198,611285.400000006,8020,WL,A,14.0
4,46.401000022888184,learn,13598.999977111816,Tue Apr 08 2025 09:53:53 GMT-0500 (Central Daylight Time),612101.299999997,A,gol,I,l,175,2,815.8999999910593,611285.400000006,8020,WL,A,14.0
4,46.76799988746643,learn,13232.00011253357,Tue Apr 08 2025 09:53:53 GMT-0500 (Central Daylight Time),612468.099999994,A,gold,I,d,352,2,1182.699999988079,611285.400000006,8020,WL,A,14.0
4,47.01799988746643,learn,12982.00011253357,Tue Apr 08 2025 09:53:53 GMT-0500 (Central Daylight Time),612718.0,A,goldenter,I,enter,233,2,1432.5999999940395,611285.400000006,8020,WL,A,14.0
4,52.848999977111816,learn,7151.000022888184,Tue Apr 08 2025 09:53:53 GMT-0500 (Central Daylight Time),618549.599999994,A,h,I,h,5815,2,5831.29999999702,612718.299999997,8020,WL,A,15.0
4,53.0,learn,7000.0,Tue Apr 08 2025 09:53:53 GMT-0500 (Central Daylight Time),618700.599999994,A,ha,I,a,136,2,5982.29999999702,612718.299999997,8020,WL,A,15.0
4,53.13199996948242,learn,6868.000030517578,Tue Apr 08 2025 09:53:53 GMT-0500 (Central Daylight Time),618832.599999994,A,har,I,r,121,2,6114.29999999702,612718.299999997,8020,WL,A,15.0
4,53.54900002479553,learn,6450.999975204468,Tue Apr 08 2025 09:53:53 GMT-0500 (Central Daylight Time),619249.099999994,A,harp,I,p,405,2,6530.79999999702,612718.299999997,8020,WL,A,15.0
4,54.16499996185303,learn,5835.000038146973,Tue Apr 08 2025 09:53:53 GMT-0500 (Central Daylight Time),619865.5,A,harpenter,I,enter,604,2,7147.20000000298,612718.299999997,8020,WL,A,15.0
5,1.116999864578247,learn,60000.0,Tue Apr 08 2025 09:53:53 GMT-0500 (Central Daylight Time),686711.799999997,A,r,I,r,1099,2,1116.3999999910593,685595.400000006,8020,WL,A,1.0
5,1.25,learn,60000.0,Tue Apr 08 2025 09:53:53 GMT-0500 (Central Daylight Time),686844.799999997,A,ra,I,a,125,2,1249.3999999910593,685595.400000006,8020,WL,A,1.0
5,1.5329999923706055,learn,60000.0,Tue Apr 08 2025 09:53:53 GMT-0500 (Central Daylight Time),687128.0,A,rat,I,t,265,2,1532.5999999940395,685595.400000006,8020,WL,A,1.0
5,1.6999998092651367,learn,60000.0,Tue Apr 08 2025 09:53:53 GMT-0500 (Central Daylight Time),687294.400000006,A,ratt,I,t,150,2,1699.0,685595.400000006,8020,WL,A,1.0
5,1.8499999046325684,learn,60000.0,Tue Apr 08 2025 09:53:53 GMT-0500 (Central Daylight Time),687444.400000006,A,rattl,I,l,143,2,1849.0,685595.400000006,8020,WL,A,1.0
5,1.9670000076293945,learn,60000.0,Tue Apr 08 2025 09:53:53 GMT-0500 (Central Daylight Time),687561.5,A,rattle,I,e,97,2,1966.0999999940395,685595.400000006,8020,WL,A,1.0
5,2.565999984741211,learn,60000.0,Tue Apr 08 2025 09:53:53 GMT-0500 (Central Daylight Time),688161.200000003,A,rattleenter,I,enter,588,2,2565.7999999970198,685595.400000006,8020,WL,A,1.0
5,3.1989998817443848,learn,60000.0,Tue Apr 08 2025 09:53:53 GMT-0500 (Central Daylight Time),688794.099999994,A,g,I,g,620,2,632.5,688161.599999994,8020,WL,A,2.0
5,3.3329999446868896,learn,60000.0,Tue Apr 08 2025 09:53:53 GMT-0500 (Central Daylight Time),688927.5,A,go,I,o,115,2,765.9000000059605,688161.599999994,8020,WL,A,2.0
5,3.815999984741211,learn,60000.0,Tue Apr 08 2025 09:53:53 GMT-0500 (Central Daylight Time),689410.5,A,gol,I,l,470,2,1248.9000000059605,688161.599999994,8020,WL,A,2.0
5,4.082000017166138,learn,60000.0,Tue Apr 08 2025 09:53:53 GMT-0500 (Central Daylight Time),689677.200000003,A,gold,I,d,259,2,1515.6000000089407,688161.599999994,8020,WL,A,2.0
5,4.448999881744385,learn,60000.0,Tue Apr 08 2025 09:53:53 GMT-0500 (Central Daylight Time),690043.799999997,A,goldenter,I,enter,352,2,1882.2000000029802,688161.599999994,8020,WL,A,2.0
5,5.116999864578247,learn,60000.0,Tue Apr 08 2025 09:53:53 GMT-0500 (Central Daylight Time),690711.299999997,A,h,I,h,658,2,667.0,690044.299999997,8020,WL,A,3.0
5,5.2149999141693115,learn,60000.0,Tue Apr 08 2025 09:53:53 GMT-0500 (Central Daylight Time),690810.200000003,A,ha,I,a,94,2,765.9000000059605,690044.299999997,8020,WL,A,3.0
5,5.414999961853027,learn,60000.0,Tue Apr 08 2025 09:53:53 GMT-0500 (Central Daylight Time),691010.099999994,A,har,I,r,187,2,965.7999999970198,690044.299999997,8020,WL,A,3.0
5,5.914999961853027,learn,60000.0,Tue Apr 08 2025 09:53:53 GMT-0500 (Central Daylight Time),691510.200000003,A,harp,I,p,483,2,1465.9000000059605,690044.299999997,8020,WL,A,3.0
5,6.547999858856201,learn,60000.0,Tue Apr 08 2025 09:53:53 GMT-0500 (Central Daylight Time),692142.799999997,A,harpenter,I,enter,623,2,2098.5,690044.299999997,8020,WL,A,3.0
5,6.947999954223633,learn,60000.0,Tue Apr 08 2025 09:53:53 GMT-0500 (Central Daylight Time),692543.099999994,A,k,I,k,391,2,399.8999999910593,692143.200000003,8020,WL,A,4.0
5,7.06499981880188,learn,60000.0,Tue Apr 08 2025 09:53:53 GMT-0500 (Central Daylight Time),692659.5,A,ke,I,e,102,2,516.2999999970198,692143.200000003,8020,WL,A,4.0
5,7.332000017166138,learn,60000.0,Tue Apr 08 2025 09:53:53 GMT-0500 (Central Daylight Time),692927.299999997,A,key,I,y,258,2,784.0999999940395,692143.200000003,8020,WL,A,4.0
5,7.847999811172485,learn,60000.0,Tue Apr 08 2025 09:53:53 GMT-0500 (Central Daylight Time),693442.900000006,A,keyenter,I,enter,494,2,1299.7000000029802,692143.200000003,8020,WL,A,4.0
5,8.480999946594238,learn,60000.0,Tue Apr 08 2025 09:53:53 GMT-0500 (Central Daylight Time),694075.900000006,A,c,I,c,627,2,632.7000000029802,693443.200000003,8020,WL,A,5.0
5,8.813999891281128,learn,60000.0,Tue Apr 08 2025 09:53:53 GMT-0500 (Central Daylight Time),694409.099999994,A,ci,I,i,322,2,965.8999999910593,693443.200000003,8020,WL,A,5.0
5,9.830999851226807,learn,60000.0,Tue Apr 08 2025 09:53:53 GMT-0500 (Central Daylight Time),695425.400000006,A,c,I,backspace,997,2,1982.2000000029802,693443.200000003,8020,WL,A,5.0
5,10.664000034332275,learn,60000.0,Tue Apr 08 2025 09:53:53 GMT-0500 (Central Daylight Time),696258.5,A,ch,I,h,828,2,2815.2999999970198,693443.200000003,8020,WL,A,5.0
5,10.846999883651733,learn,60000.0,Tue Apr 08 2025 09:53:53 GMT-0500 (Central Daylight Time),696441.599999994,A,chi,I,i,171,2,2998.3999999910593,693443.200000003,8020,WL,A,5.0
5,10.94700002670288,learn,60000.0,Tue Apr 08 2025 09:53:53 GMT-0500 (Central Daylight Time),696541.799999997,A,chim,I,m,91,2,3098.5999999940395,693443.200000003,8020,WL,A,5.0
5,11.246999979019165,learn,60000.0,Tue Apr 08 2025 09:53:53 GMT-0500 (Central Daylight Time),696841.700000003,A,chimn,I,n,280,2,3398.5,693443.200000003,8020,WL,A,5.0
5,11.513000011444092,learn,60000.0,Tue Apr 08 2025 09:53:53 GMT-0500 (Central Daylight Time),697108.299999997,A,chimne,I,e,252,2,3665.0999999940395,693443.200000003,8020,WL,A,5.0
5,11.646999835968018,learn,60000.0,Tue Apr 08 2025 09:53:53 GMT-0500 (Central Daylight Time),697241.5,A,chimney,I,y,121,2,3798.2999999970198,693443.200000003,8020,WL,A,5.0
5,12.812999963760376,learn,60000.0,Tue Apr 08 2025 09:53:53 GMT-0500 (Central Daylight Time),698407.700000003,A,chimneyenter,I,enter,1156,2,4964.5,693443.200000003,8020,WL,A,5.0
5,14.078999996185303,learn,60000.0,Tue Apr 08 2025 09:53:53 GMT-0500 (Central Daylight Time),699674.099999994,A,m,I,m,1254,2,1266.0999999940395,698408.0,8020,WL,A,6.0
5,14.178999900817871,learn,60000.0,Tue Apr 08 2025 09:53:53 GMT-0500 (Central Daylight Time),699774.099999994,A,me,I,e,83,2,1366.0999999940395,698408.0,8020,WL,A,6.0
5,14.312000036239624,learn,60000.0,Tue Apr 08 2025 09:53:53 GMT-0500 (Central Daylight Time),699907.0,A,mea,I,a,128,2,1499.0,698408.0,8020,WL,A,6.0
5,14.59500002861023,learn,60000.0,Tue Apr 08 2025 09:53:53 GMT-0500 (Central Daylight Time),700190.099999994,A,mead,I,d,275,2,1782.0999999940395,698408.0,8020,WL,A,6.0
5,14.745999813079834,learn,60000.0,Tue Apr 08 2025 09:53:53 GMT-0500 (Central Daylight Time),700340.5,A,meado,I,o,143,2,1932.5,698408.0,8020,WL,A,6.0
5,14.861999988555908,learn,60000.0,Tue Apr 08 2025 09:53:53 GMT-0500 (Central Daylight Time),700457.099999994,A,meadow,I,w,96,2,2049.0999999940395,698408.0,8020,WL,A,6.0
5,15.461999893188477,learn,60000.0,Tue Apr 08 2025 09:53:53 GMT-0500 (Central Daylight Time),701056.900000006,A,meadowenter,I,enter,588,2,2648.9000000059605,698408.0,8020,WL,A,6.0
5,16.211999893188477,learn,60000.0,Tue Apr 08 2025 09:53:53 GMT-0500 (Central Daylight Time),701806.799999997,A,b,I,b,741,2,749.5,701057.299999997,8020,WL,A,7.0
5,16.411999940872192,learn,60000.0,Tue Apr 08 2025 09:53:53 GMT-0500 (Central Daylight Time),702006.700000003,A,bo,I,o,183,2,949.4000000059605,701057.299999997,8020,WL,A,7.0
5,16.527999877929688,learn,60000.0,Tue Apr 08 2025 09:53:53 GMT-0500 (Central Daylight Time),702123.099999994,A,boo,I,o,111,2,1065.7999999970198,701057.299999997,8020,WL,A,7.0
5,16.794999837875366,learn,60000.0,Tue Apr 08 2025 09:53:53 GMT-0500 (Central Daylight Time),702389.900000006,A,book,I,k,259,2,1332.6000000089407,701057.299999997,8020,WL,A,7.0
5,17.294999837875366,learn,60000.0,Tue Apr 08 2025 09:53:53 GMT-0500 (Central Daylight Time),702889.799999997,A,bookenter,I,enter,480,2,1832.5,701057.299999997,8020,WL,A,7.0
5,18.128000020980835,learn,60000.0,Tue Apr 08 2025 09:53:53 GMT-0500 (Central Daylight Time),703722.700000003,A,t,I,t,819,2,832.6000000089407,702890.099999994,8020,WL,A,8.0
5,18.51099991798401,learn,60000.0,Tue Apr 08 2025 09:53:53 GMT-0500 (Central Daylight Time),704106.200000003,A,tr,I,r,363,2,1216.1000000089407,702890.099999994,8020,WL,A,8.0
5,18.66100001335144,learn,60000.0,Tue Apr 08 2025 09:53:53 GMT-0500 (Central Daylight Time),704256.0,A,tra,I,a,131,2,1365.9000000059605,702890.099999994,8020,WL,A,8.0
5,18.977999925613403,learn,60000.0,Tue Apr 08 2025 09:53:53 GMT-0500 (Central Daylight Time),704572.5,A,trai,I,i,301,2,1682.4000000059605,702890.099999994,8020,WL,A,8.0
5,19.128000020980835,learn,60000.0,Tue Apr 08 2025 09:53:53 GMT-0500 (Central Daylight Time),704722.400000006,A,train,I,n,137,2,1832.300000011921,702890.099999994,8020,WL,A,8.0
5,19.527999877929688,learn,60000.0,Tue Apr 08 2025 09:53:53 GMT-0500 (Central Daylight Time),705122.400000006,A,trainenter,I,enter,379,2,2232.300000011921,702890.099999994,8020,WL,A,8.0
5,20.043999910354614,learn,60000.0,Tue Apr 08 2025 09:53:53 GMT-0500 (Central Daylight Time),705638.900000006,A,f,I,f,499,2,516.1000000089407,705122.799999997,8020,WL,A,9.0
5,20.210999965667725,learn,60000.0,Tue Apr 08 2025 09:53:53 GMT-0500 (Central Daylight Time),705805.400000006,A,fl,I,l,158,2,682.6000000089407,705122.799999997,8020,WL,A,9.0
5,20.49399995803833,learn,60000.0,Tue Apr 08 2025 09:53:53 GMT-0500 (Central Daylight Time),706088.700000003,A,flo,I,o,264,2,965.9000000059605,705122.799999997,8020,WL,A,9.0
5,20.676999807357788,learn,60000.0,Tue Apr 08 2025 09:53:53 GMT-0500 (Central Daylight Time),706272.0,A,flow,I,w,165,2,1149.2000000029802,705122.799999997,8020,WL,A,9.0
5,20.793999910354614,learn,60000.0,Tue Apr 08 2025 09:53:53 GMT-0500 (Central Daylight Time),706388.5,A,flowe,I,e,110,2,1265.7000000029802,705122.799999997,8020,WL,A,9.0
5,20.90999984741211,learn,60000.0,Tue Apr 08 2025 09:53:53 GMT-0500 (Central Daylight Time),706505.099999994,A,flower,I,r,105,2,1382.2999999970198,705122.799999997,8020,WL,A,9.0
5,21.39299988746643,learn,60000.0,Tue Apr 08 2025 09:53:53 GMT-0500 (Central Daylight Time),706988.299999997,A,flowerenter,I,enter,468,2,1865.5,705122.799999997,8020,WL,A,9.0
5,22.65999984741211,learn,60000.0,Tue Apr 08 2025 09:53:53 GMT-0500 (Central Daylight Time),708254.700000003,A,s,I,s,1249,2,1266.1000000089407,706988.599999994,8020,WL,A,10.0
5,22.776000022888184,learn,60000.0,Tue Apr 08 2025 09:53:53 GMT-0500 (Central Daylight Time),708371.200000003,A,sa,I,a,103,2,1382.6000000089407,706988.599999994,8020,WL,A,10.0
5,23.042999982833862,learn,60000.0,Tue Apr 08 2025 09:53:53 GMT-0500 (Central Daylight Time),708637.900000006,A,sal,I,l,250,2,1649.300000011921,706988.599999994,8020,WL,A,10.0
5,23.493000030517578,learn,60000.0,Tue Apr 08 2025 09:53:53 GMT-0500 (Central Daylight Time),709087.700000003,A,salt,I,t,439,2,2099.1000000089407,706988.599999994,8020,WL,A,10.0
5,23.90999984741211,learn,60000.0,Tue Apr 08 2025 09:53:53 GMT-0500 (Central Daylight Time),709504.299999997,A,saltenter,I,enter,405,2,2515.7000000029802,706988.599999994,8020,WL,A,10.0
5,24.47599983215332,learn,60000.0,Tue Apr 08 2025 09:53:53 GMT-0500 (Central Daylight Time),710070.700000003,A,f,I,f,549,2,565.9000000059605,709504.799999997,8020,WL,A,11.0
5,24.64299988746643,learn,60000.0,Tue Apr 08 2025 09:53:53 GMT-0500 (Central Daylight Time),710237.400000006,A,fi,I,i,151,2,732.6000000089407,709504.799999997,8020,WL,A,11.0
5,24.741999864578247,learn,60000.0,Tue Apr 08 2025 09:53:53 GMT-0500 (Central Daylight Time),710337.299999997,A,fin,I,n,80,2,832.5,709504.799999997,8020,WL,A,11.0
5,25.008999824523926,learn,60000.0,Tue Apr 08 2025 09:53:53 GMT-0500 (Central Daylight Time),710604.099999994,A,fine,I,e,260,2,1099.2999999970198,709504.799999997,8020,WL,A,11.0
5,25.508999824523926,learn,60000.0,Tue Apr 08 2025 09:53:53 GMT-0500 (Central Daylight Time),711103.900000006,A,fin,I,backspace,481,2,1599.1000000089407,709504.799999997,8020,WL,A,11.0
5,25.64199995994568,learn,60000.0,Tue Apr 08 2025 09:53:53 GMT-0500 (Central Daylight Time),711237.200000003,A,fing,I,g,117,2,1732.4000000059605,709504.799999997,8020,WL,A,11.0
5,25.875999927520752,learn,60000.0,Tue Apr 08 2025 09:53:53 GMT-0500 (Central Daylight Time),711470.400000006,A,finge,I,e,224,2,1965.6000000089407,709504.799999997,8020,WL,A,11.0
5,25.991999864578247,learn,60000.0,Tue Apr 08 2025 09:53:53 GMT-0500 (Central Daylight Time),711586.900000006,A,finger,I,r,111,2,2082.1000000089407,709504.799999997,8020,WL,A,11.0
5,29.125,learn,60000.0,Tue Apr 08 2025 09:53:53 GMT-0500 (Central Daylight Time),714719.599999994,A,fingerenter,I,enter,3115,2,5214.79999999702,709504.799999997,8020,WL,A,11.0
5,30.056999921798706,learn,60000.0,Tue Apr 08 2025 09:53:53 GMT-0500 (Central Daylight Time),715652.299999997,A,a,I,a,918,2,932.2999999970198,714720.0,8020,WL,A,12.0
5,30.223999977111816,learn,60000.0,Tue Apr 08 2025 09:53:53 GMT-0500 (Central Daylight Time),715819.099999994,A,ap,I,p,153,2,1099.0999999940395,714720.0,8020,WL,A,12.0
5,30.35699987411499,learn,60000.0,Tue Apr 08 2025 09:53:53 GMT-0500 (Central Daylight Time),715952.099999994,A,app,I,p,114,2,1232.0999999940395,714720.0,8020,WL,A,12.0
5,30.54099988937378,learn,60000.0,Tue Apr 08 2025 09:53:53 GMT-0500 (Central Daylight Time),716135.799999997,A,appl,I,l,165,2,1415.7999999970198,714720.0,8020,WL,A,12.0
5,30.85800004005432,learn,60000.0,Tue Apr 08 2025 09:53:53 GMT-0500 (Central Daylight Time),716452.299999997,A,apple,I,e,302,2,1732.2999999970198,714720.0,8020,WL,A,12.0
5,31.424000024795532,learn,60000.0,Tue Apr 08 2025 09:53:53 GMT-0500 (Central Daylight Time),717018.700000003,A,appleenter,I,enter,545,2,2298.7000000029802,714720.0,8020,WL,A,12.0
5,34.954999923706055,learn,60000.0,Tue Apr 08 2025 09:53:53 GMT-0500 (Central Daylight Time),720550.700000003,A,b,I,b,3523,2,3531.7000000029802,717019.0,8020,WL,A,13.0
5,35.15599989891052,learn,60000.0,Tue Apr 08 2025 09:53:53 GMT-0500 (Central Daylight Time),720750.900000006,A,bu,I,u,190,2,3731.9000000059605,717019.0,8020,WL,A,13.0
5,35.388999938964844,learn,60000.0,Tue Apr 08 2025 09:53:53 GMT-0500 (Central Daylight Time),720984.299999997,A,but,I,t,215,2,3965.2999999970198,717019.0,8020,WL,A,13.0
5,35.55499982833862,learn,60000.0,Tue Apr 08 2025 09:53:53 GMT-0500 (Central Daylight Time),721150.700000003,A,butt,I,t,157,2,4131.70000000298,717019.0,8020,WL,A,13.0
5,35.65499997138977,learn,60000.0,Tue Apr 08 2025 09:53:53 GMT-0500 (Central Daylight Time),721250.700000003,A,butto,I,o,79,2,4231.70000000298,717019.0,8020,WL,A,13.0
5,36.371999979019165,learn,60000.0,Tue Apr 08 2025 09:53:53 GMT-0500 (Central Daylight Time),721967.099999994,A,button,I,n,699,2,4948.0999999940395,717019.0,8020,WL,A,13.0
5,37.05499982833862,learn,60000.0,Tue Apr 08 2025 09:53:53 GMT-0500 (Central Daylight Time),722650.0,A,buttonenter,I,enter,670,2,5631.0,717019.0,8020,WL,A,13.0
5,37.6710000038147,learn,60000.0,Tue Apr 08 2025 09:53:53 GMT-0500 (Central Daylight Time),723266.700000003,A,g,I,g,596,2,616.5,722650.200000003,8020,WL,A,14.0
5,37.787999868392944,learn,60000.0,Tue Apr 08 2025 09:53:53 GMT-0500 (Central Daylight Time),723383.200000003,A,go,I,o,99,2,733.0,722650.200000003,8020,WL,A,14.0
5,37.98799991607666,learn,60000.0,Tue Apr 08 2025 09:53:53 GMT-0500 (Central Daylight Time),723583.0,A,gol,I,l,182,2,932.7999999970198,722650.200000003,8020,WL,A,14.0
5,38.15400004386902,learn,60000.0,Tue Apr 08 2025 09:53:53 GMT-0500 (Central Daylight Time),723749.5,A,gold,I,d,149,2,1099.2999999970198,722650.200000003,8020,WL,A,14.0
5,38.4210000038147,learn,60000.0,Tue Apr 08 2025 09:53:53 GMT-0500 (Central Daylight Time),724016.400000006,A,goldenter,I,enter,256,2,1366.2000000029802,722650.200000003,8020,WL,A,14.0
5,43.019999980926514,learn,60000.0,Tue Apr 08 2025 09:53:53 GMT-0500 (Central Daylight Time),728615.0,A,l,I,l,4589,2,4598.20000000298,724016.799999997,8020,WL,A,15.0
5,43.28600001335144,learn,60000.0,Tue Apr 08 2025 09:53:53 GMT-0500 (Central Daylight Time),728881.5,A,lg,I,g,254,2,4864.70000000298,724016.799999997,8020,WL,A,15.0
5,44.253000020980835,learn,60000.0,Tue Apr 08 2025 09:53:53 GMT-0500 (Central Daylight Time),729848.099999994,A,l,I,backspace,956,2,5831.29999999702,724016.799999997,8020,WL,A,15.0
5,45.35199999809265,learn,60000.0,Tue Apr 08 2025 09:53:53 GMT-0500 (Central Daylight Time),730947.599999994,A,lo,I,o,1085,2,6930.79999999702,724016.799999997,8020,WL,A,15.0
5,45.45199990272522,learn,60000.0,Tue Apr 08 2025 09:53:53 GMT-0500 (Central Daylight Time),731047.5,A,log,I,g,82,2,7030.70000000298,724016.799999997,8020,WL,A,15.0
5,45.76899981498718,learn,60000.0,Tue Apr 08 2025 09:53:53 GMT-0500 (Central Daylight Time),731363.900000006,A,logenter,I,enter,310,2,7347.100000008941,724016.799999997,8020,WL,A,15.0
6,2.4000000953674316,distr,57599.99990463257,Tue Apr 08 2025 09:53:53 GMT-0500 (Central Daylight Time),798576.5,B,c,I,c,2389,2,2399.0999999940395,796177.400000006,8020,WL,A,1.0
6,2.6490001678466797,distr,57350.99983215332,Tue Apr 08 2025 09:53:53 GMT-0500 (Central Daylight Time),798826.099999994,B,co,I,o,229,2,2648.699999988079,796177.400000006,8020,WL,A,1.0
6,2.7829999923706055,distr,57217.000007629395,Tue Apr 08 2025 09:53:53 GMT-0500 (Central Daylight Time),798959.799999997,B,coa,I,a,115,2,2782.3999999910593,796177.400000006,8020,WL,A,1.0
6,3.2660000324249268,distr,56733.99996757507,Tue Apr 08 2025 09:53:53 GMT-0500 (Central Daylight Time),799442.799999997,B,coat,I,t,462,2,3265.3999999910593,796177.400000006,8020,WL,A,1.0
6,3.7660000324249268,distr,56233.99996757507,Tue Apr 08 2025 09:53:53 GMT-0500 (Central Daylight Time),799942.700000003,B,coatenter,I,enter,482,2,3765.2999999970198,796177.400000006,8020,WL,A,1.0
6,4.266999959945679,distr,55733.00004005432,Tue Apr 08 2025 09:53:53 GMT-0500 (Central Daylight Time),800443.700000003,B,s,I,s,487,2,500.70000000298023,799943.0,8020,WL,A,2.0
6,4.482000112533569,distr,55517.99988746643,Tue Apr 08 2025 09:53:53 GMT-0500 (Central Daylight Time),800658.700000003,B,sh,I,h,210,2,715.7000000029802,799943.0,8020,WL,A,2.0
6,4.716000080108643,distr,55283.99991989136,Tue Apr 08 2025 09:53:53 GMT-0500 (Central Daylight Time),800892.299999997,B,she,I,e,227,2,949.2999999970198,799943.0,8020,WL,A,2.0
6,4.89900016784668,distr,55100.99983215332,Tue Apr 08 2025 09:53:53 GMT-0500 (Central Daylight Time),801075.700000003,B,shee,I,e,177,2,1132.7000000029802,799943.0,8020,WL,A,2.0
6,5.0320000648498535,distr,54967.99993515015,Tue Apr 08 2025 09:53:53 GMT-0500 (Central Daylight Time),801209.0,B,sheep,I,p,122,2,1266.0,799943.0,8020,WL,A,2.0
6,5.79800009727478,distr,54201.99990272522,Tue Apr 08 2025 09:53:53 GMT-0500 (Central Daylight Time),801975.299999997,B,sheepenter,I,enter,749,2,2032.2999999970198,799943.0,8020,WL,A,2.0
6,6.315000057220459,distr,53684.99994277954,Tue Apr 08 2025 09:53:53 GMT-0500 (Central Daylight Time),802491.900000006,B,m,I,m,510,2,516.3000000119209,801975.599999994,8020,WL,A,3.0
6,6.398000001907349,distr,53601.99999809265,Tue Apr 08 2025 09:53:53 GMT-0500 (Central Daylight Time),802575.0,B,me,I,e,73,2,599.4000000059605,801975.599999994,8020,WL,A,3.0
6,6.54800009727478,distr,53451.99990272522,Tue Apr 08 2025 09:53:53 GMT-0500 (Central Daylight Time),802725.099999994,B,mea,I,a,142,2,749.5,801975.599999994,8020,WL,A,3.0
6,6.748000144958496,distr,53251.999855041504,Tue Apr 08 2025 09:53:53 GMT-0500 (Central Daylight Time),802925.200000003,B,meal,I,l,192,2,949.6000000089407,801975.599999994,8020,WL,A,3.0
6,10.730000019073486,distr,49269.999980926514,Tue Apr 08 2025 09:53:53 GMT-0500 (Central Daylight Time),806907.200000003,B,mealenter,I,enter,3968,2,4931.600000008941,801975.599999994,8020,WL,A,3.0
6,13.296000003814697,distr,46703.9999961853,Tue Apr 08 2025 09:53:53 GMT-0500 (Central Daylight Time),809472.900000006,B,d,I,d,2546,2,2565.300000011921,806907.599999994,8020,WL,A,4.0
6,13.946000099182129,distr,46053.99990081787,Tue Apr 08 2025 09:53:53 GMT-0500 (Central Daylight Time),810122.700000003,B,da,I,a,636,2,3215.1000000089407,806907.599999994,8020,WL,A,4.0
6,14.279000043869019,distr,45720.99995613098,Tue Apr 08 2025 09:53:53 GMT-0500 (Central Daylight Time),810456.099999994,B,daw,I,w,322,2,3548.5,806907.599999994,8020,WL,A,4.0
6,14.861999988555908,distr,45138.00001144409,Tue Apr 08 2025 09:53:53 GMT-0500 (Central Daylight Time),811039.099999994,B,dawn,I,n,573,2,4131.5,806907.599999994,8020,WL,A,4.0
6,15.59500002861023,distr,44404.99997138977,Tue Apr 08 2025 09:53:53 GMT-0500 (Central Daylight Time),811772.200000003,B,dawnenter,I,enter,718,2,4864.600000008941,806907.599999994,8020,WL,A,4.0
6,16.062000036239624,distr,43937.999963760376,Tue Apr 08 2025 09:53:53 GMT-0500 (Central Daylight Time),812239.0,B,b,I,b,457,2,466.5,811772.5,8020,WL,A,5.0
6,16.229000091552734,distr,43770.999908447266,Tue Apr 08 2025 09:53:53 GMT-0500 (Central Daylight Time),812405.299999997,B,bo,I,o,159,2,632.7999999970198,811772.5,8020,WL,A,5.0
6,16.511000156402588,distr,43488.99984359741,Tue Apr 08 2025 09:53:53 GMT-0500 (Central Daylight Time),812688.299999997,B,bow,I,w,264,2,915.7999999970198,811772.5,8020,WL,A,5.0
6,16.861999988555908,distr,43138.00001144409,Tue Apr 08 2025 09:53:53 GMT-0500 (Central Daylight Time),813038.599999994,B,bowl,I,l,333,2,1266.0999999940395,811772.5,8020,WL,A,5.0
6,17.57800006866455,distr,42421.99993133545,Tue Apr 08 2025 09:53:53 GMT-0500 (Central Daylight Time),813754.900000006,B,bowlenter,I,enter,703,2,1982.4000000059605,811772.5,8020,WL,A,5.0
6,36.60600018501282,distr,23393.999814987183,Tue Apr 08 2025 09:53:53 GMT-0500 (Central Daylight Time),832782.299999997,B,enter,I,enter,19019,2,19027.09999999404,813755.200000003,8020,WL,A,6.0
6,36.98900008201599,distr,23010.99991798401,Tue Apr 08 2025 09:53:53 GMT-0500 (Central Daylight Time),833165.599999994,B,enter,I,enter,375,2,382.8999999910593,832782.700000003,8020,WL,A,7.0
6,37.25500011444092,distr,22744.999885559082,Tue Apr 08 2025 09:53:53 GMT-0500 (Central Daylight Time),833432.299999997,B,enter,I,enter,247,2,266.29999999701977,833166.0,8020,WL,A,8.0
6,37.33800005912781,distr,22661.999940872192,Tue Apr 08 2025 09:53:53 GMT-0500 (Central Daylight Time),833515.299999997,B,enter,I,enter,78,2,82.70000000298023,833432.599999994,8020,WL,A,9.0
6,37.83899998664856,distr,22161.00001335144,Tue Apr 08 2025 09:53:53 GMT-0500 (Central Daylight Time),834015.5,B,enter,I,enter,482,2,499.90000000596046,833515.599999994,8020,WL,A,10.0
6,38.15499997138977,distr,21845.00002861023,Tue Apr 08 2025 09:53:53 GMT-0500 (Central Daylight Time),834331.900000006,B,enter,I,enter,302,2,316.0,834015.900000006,8020,WL,A,11.0
6,38.50500011444092,distr,21494.999885559082,Tue Apr 08 2025 09:53:53 GMT-0500 (Central Daylight Time),834681.900000006,B,enter,I,enter,330,2,349.70000000298023,834332.200000003,8020,WL,A,12.0
6,38.82100009918213,distr,21178.99990081787,Tue Apr 08 2025 09:53:53 GMT-0500 (Central Daylight Time),834998.299999997,B,enter,I,enter,308,2,316.20000000298023,834682.099999994,8020,WL,A,13.0
6,39.22099995613098,distr,20779.00004386902,Tue Apr 08 2025 09:53:53 GMT-0500 (Central Daylight Time),835398.200000003,B,enter,I,enter,383,2,399.6000000089407,834998.599999994,8020,WL,A,14.0
6,39.65499997138977,distr,20345.00002861023,Tue Apr 08 2025 09:53:53 GMT-0500 (Central Daylight Time),835831.400000006,B,enter,I,enter,424,2,432.90000000596046,835398.5,8020,WL,A,15.0
7,8.530999898910522,immed,51469.00010108948,Tue Apr 08 2025 09:53:53 GMT-0500 (Central Daylight Time),845761.599999994,A,b,I,b,8511,2,8530.29999999702,837231.299999997,8020,WL,A,1.0
7,8.646999835968018,immed,51353.00016403198,Tue Apr 08 2025 09:53:53 GMT-0500 (Central Daylight Time),845878.400000006,A,bo,I,o,108,2,8647.10000000894,837231.299999997,8020,WL,A,1.0
7,8.94700002670288,immed,51052.99997329712,Tue Apr 08 2025 09:53:53 GMT-0500 (Central Daylight Time),846178.200000003,A,bow,I,w,287,2,8946.90000000596,837231.299999997,8020,WL,A,1.0
7,9.079999923706055,immed,50920.000076293945,Tue Apr 08 2025 09:53:53 GMT-0500 (Central Daylight Time),846311.5,A,bowl,I,l,123,2,9080.20000000298,837231.299999997,8020,WL,A,1.0
7,9.414000034332275,immed,50585.999965667725,Tue Apr 08 2025 09:53:53 GMT-0500 (Central Daylight Time),846644.799999997,A,bowlenter,I,enter,318,2,9413.5,837231.299999997,8020,WL,A,1.0
7,13.062999963760376,immed,46937.000036239624,Tue Apr 08 2025 09:53:53 GMT-0500 (Central Daylight Time),850293.599999994,A,c,I,c,3641,2,3648.5,846645.099999994,8020,WL,A,2.0
7,13.178999900817871,immed,46821.00009918213,Tue Apr 08 2025 09:53:53 GMT-0500 (Central Daylight Time),850410.400000006,A,co,I,o,112,2,3765.300000011921,846645.099999994,8020,WL,A,2.0
7,13.296000003814697,immed,46703.9999961853,Tue Apr 08 2025 09:53:53 GMT-0500 (Central Daylight Time),850526.900000006,A,coa,I,a,99,2,3881.800000011921,846645.099999994,8020,WL,A,2.0
7,13.546000003814697,immed,46453.9999961853,Tue Apr 08 2025 09:53:53 GMT-0500 (Central Daylight Time),850776.799999997,A,coal,I,l,231,2,4131.70000000298,846645.099999994,8020,WL,A,2.0
7,13.994999885559082,immed,46005.00011444092,Tue Apr 08 2025 09:53:53 GMT-0500 (Central Daylight Time),851226.5,A,coa,I,backspace,429,2,4581.4000000059605,846645.099999994,8020,WL,A,2.0
7,14.178999900817871,immed,45821.00009918213,Tue Apr 08 2025 09:53:53 GMT-0500 (Central Daylight Time),851410.0,A,coat,I,t,162,2,4764.9000000059605,846645.099999994,8020,WL,A,2.0
7,14.961999893188477,immed,45038.00010681152,Tue Apr 08 2025 09:53:53 GMT-0500 (Central Daylight Time),852192.900000006,A,coatenter,I,enter,764,2,5547.800000011921,846645.099999994,8020,WL,A,2.0
7,15.527999877929688,immed,44472.00012207031,Tue Apr 08 2025 09:53:53 GMT-0500 (Central Daylight Time),852759.5,A,s,I,s,557,2,566.4000000059605,852193.099999994,8020,WL,A,3.0
7,15.694999933242798,immed,44305.0000667572,Tue Apr 08 2025 09:53:53 GMT-0500 (Central Daylight Time),852926.099999994,A,sh,I,h,158,2,733.0,852193.099999994,8020,WL,A,3.0
7,16.044999837875366,immed,43955.000162124634,Tue Apr 08 2025 09:53:53 GMT-0500 (Central Daylight Time),853276.0,A,she,I,e,343,2,1082.9000000059605,852193.099999994,8020,WL,A,3.0
7,16.277999877929688,immed,43722.00012207031,Tue Apr 08 2025 09:53:53 GMT-0500 (Central Daylight Time),853509.200000003,A,shee,I,e,225,2,1316.1000000089407,852193.099999994,8020,WL,A,3.0
7,16.527999877929688,immed,43472.00012207031,Tue Apr 08 2025 09:53:53 GMT-0500 (Central Daylight Time),853759.200000003,A,sheep,I,p,232,2,1566.1000000089407,852193.099999994,8020,WL,A,3.0
7,17.34599995613098,immed,42654.00004386902,Tue Apr 08 2025 09:53:53 GMT-0500 (Central Daylight Time),854576.700000003,A,sheepm,I,m,806,2,2383.6000000089407,852193.099999994,8020,WL,A,3.0
7,18.41100001335144,immed,41588.99998664856,Tue Apr 08 2025 09:53:53 GMT-0500 (Central Daylight Time),855641.900000006,A,sheep,I,backspace,1053,2,3448.800000011921,852193.099999994,8020,WL,A,3.0
7,18.876999855041504,immed,41123.000144958496,Tue Apr 08 2025 09:53:53 GMT-0500 (Central Daylight Time),856108.400000006,A,sheepenter,I,enter,460,2,3915.300000011921,852193.099999994,8020,WL,A,3.0
7,20.3439998626709,immed,39656.0001373291,Tue Apr 08 2025 09:53:53 GMT-0500 (Central Daylight Time),857574.599999994,A,m,I,m,1449,2,1465.8999999910593,856108.700000003,8020,WL,A,4.0
7,20.47699999809265,immed,39523.00000190735,Tue Apr 08 2025 09:53:53 GMT-0500 (Central Daylight Time),857708.0,A,me,I,e,119,2,1599.2999999970198,856108.700000003,8020,WL,A,4.0
7,20.609999895095825,immed,39390.000104904175,Tue Apr 08 2025 09:53:53 GMT-0500 (Central Daylight Time),857841.200000003,A,mea,I,a,122,2,1732.5,856108.700000003,8020,WL,A,4.0
7,20.793999910354614,immed,39206.000089645386,Tue Apr 08 2025 09:53:53 GMT-0500 (Central Daylight Time),858024.700000003,A,meal,I,l,172,2,1916.0,856108.700000003,8020,WL,A,4.0
7,21.776000022888184,immed,38223.99997711182,Tue Apr 08 2025 09:53:53 GMT-0500 (Central Daylight Time),859007.5,A,mealenter,I,enter,973,2,2898.7999999970198,856108.700000003,8020,WL,A,4.0
7,29.141000032424927,immed,30858.999967575073,Tue Apr 08 2025 09:53:53 GMT-0500 (Central Daylight Time),866371.900000006,A,enter,I,enter,7350,2,7364.100000008941,859007.799999997,8020,WL,A,5.0
7,30.5239999294281,immed,29476.0000705719,Tue Apr 08 2025 09:53:53 GMT-0500 (Central Daylight Time),867754.900000006,A,enter,I,enter,1361,2,1382.7000000029802,866372.200000003,8020,WL,A,6.0
7,30.906999826431274,immed,29093.000173568726,Tue Apr 08 2025 09:53:53 GMT-0500 (Central Daylight Time),868138.099999994,A,enter,I,enter,371,2,382.79999999701977,867755.299999997,8020,WL,A,7.0
7,31.174000024795532,immed,28825.999975204468,Tue Apr 08 2025 09:53:53 GMT-0500 (Central Daylight Time),868404.799999997,A,enter,I,enter,252,2,266.3999999910593,868138.400000006,8020,WL,A,8.0
7,31.490000009536743,immed,28509.999990463257,Tue Apr 08 2025 09:53:53 GMT-0500 (Central Daylight Time),868721.200000003,A,enter,I,enter,297,2,316.0,868405.200000003,8020,WL,A,9.0
7,32.02300000190735,immed,27976.99999809265,Tue Apr 08 2025 09:53:53 GMT-0500 (Central Daylight Time),869254.200000003,A,enter,I,enter,524,2,532.5,868721.700000003,8020,WL,A,10.0
7,32.25699996948242,immed,27743.000030517578,Tue Apr 08 2025 09:53:53 GMT-0500 (Central Daylight Time),869487.700000003,A,enter,I,enter,223,2,233.1000000089407,869254.599999994,8020,WL,A,11.0
7,32.53999996185303,immed,27460.000038146973,Tue Apr 08 2025 09:53:53 GMT-0500 (Central Daylight Time),869770.799999997,A,enter,I,enter,270,2,282.79999999701977,869488.0,8020,WL,A,12.0
7,32.805999994277954,immed,27194.000005722046,Tue Apr 08 2025 09:53:53 GMT-0500 (Central Daylight Time),870037.5,A,enter,I,enter,259,2,266.29999999701977,869771.200000003,8020,WL,A,13.0
7,33.1729998588562,immed,26827.0001411438,Tue Apr 08 2025 09:53:53 GMT-0500 (Central Daylight Time),870404.0,A,enter,I,enter,360,2,366.09999999403954,870037.900000006,8020,WL,A,14.0
7,33.65599989891052,immed,26344.000101089478,Tue Apr 08 2025 09:53:53 GMT-0500 (Central Daylight Time),870887.200000003,A,enter,I,enter,474,2,483.0,870404.200000003,8020,WL,A,15.0
