acc_sum,block,block_c,block_cond,con_img,correct,correct_response,datetime,endtime,face,jitter,line,project,response,response_time,row_sel,session_number,start_end,starttime,subject_id,task,task_vers,trial
1,prac,1,A,haborder.png,1,z,Tue Nov 12 2024 09:51:25 GMT-0600 (Central Standard Time),55659.09999990463,CFD-BF-002-018-A.jpg,1200,solid,O,z,840,6,1,2865.2000000476837,52793.89999985695,7032,ATS,C,1
2,prac,1,A,haborder.png,1,m,Tue Nov 12 2024 09:51:25 GMT-0600 (Central Standard Time),58858.699999809265,CFD-WF-013-009-HC.jpg,1500,solid,O,m,868,11,1,6064.799999952316,52793.89999985695,7032,ATS,C,2
3,prac,1,A,haborder.png,1,z,Tue Nov 12 2024 09:51:25 GMT-0600 (Central Standard Time),61474.5,CFD-WF-023-013-A.jpg,1000,solid,O,z,783,12,1,8680.600000143051,52793.89999985695,7032,ATS,C,3
4,prac,1,A,haborder.png,1,m,Tue Nov 12 2024 09:51:25 GMT-0600 (Central Standard Time),65740.09999990463,CFD-BF-019-004-HC.jpg,2000,solid,O,m,1439,5,1,12946.200000047684,52793.89999985695,7032,ATS,C,4
5,prac,1,A,haborder.png,1,z,Tue Nov 12 2024 09:51:25 GMT-0600 (Central Standard Time),69088.29999995232,CFD-WF-037-016-A.jpg,1600,solid,O,z,926,10,1,16294.400000095367,52793.89999985695,7032,ATS,C,5
6,prac,1,A,haborder.png,1,z,Tue Nov 12 2024 09:51:25 GMT-0600 (Central Standard Time),72304.09999990463,CFD-BM-043-014-A.jpg,1600,solid,O,z,785,2,1,19510.200000047684,52793.89999985695,7032,ATS,C,6
7,prac,1,A,haborder.png,1,m,Tue Nov 12 2024 09:51:25 GMT-0600 (Central Standard Time),75786.5,CFD-BM-034-035-HC.jpg,1700,solid,O,m,957,1,1,22992.60000014305,52793.89999985695,7032,ATS,C,7
8,prac,1,A,haborder.png,1,m,Tue Nov 12 2024 09:51:25 GMT-0600 (Central Standard Time),78752.0,CFD-WM-028-005-HC.jpg,1400,solid,O,m,744,7,1,25958.10000014305,52793.89999985695,7032,ATS,C,8
9,prac,1,A,haborder.png,1,m,Tue Nov 12 2024 09:51:25 GMT-0600 (Central Standard Time),81901.09999990463,CFD-BM-022-004-HC.jpg,1500,solid,O,m,830,3,1,29107.200000047684,52793.89999985695,7032,ATS,C,9
10,prac,1,A,haborder.png,1,m,Tue Nov 12 2024 09:51:25 GMT-0600 (Central Standard Time),85299.69999980927,CFD-WM-035-036-HC.jpg,1700,solid,O,m,881,9,1,32505.799999952316,52793.89999985695,7032,ATS,C,10
11,prac,1,A,haborder.png,1,z,Tue Nov 12 2024 09:51:25 GMT-0600 (Central Standard Time),89098.79999995232,CFD-WM-036-018-A.jpg,1900,solid,O,z,1066,8,1,36304.90000009537,52793.89999985695,7032,ATS,C,11
12,prac,1,A,haborder.png,1,z,Tue Nov 12 2024 09:51:25 GMT-0600 (Central Standard Time),91797.5,CFD-BF-031-020-A.jpg,1000,solid,O,z,879,4,1,39003.60000014305,52793.89999985695,7032,ATS,C,12
1,prac,1,B,mfborder.png,1,z,Tue Nov 12 2024 09:51:25 GMT-0600 (Central Standard Time),120704.59999990463,CFD-WF-001-010-HC.jpg,1900,8,O,z,751,dash,1,3482.0999999046326,117222.5,7032,ATS,C,1
2,prac,1,B,mfborder.png,1,m,Tue Nov 12 2024 09:51:25 GMT-0600 (Central Standard Time),124303.5,CFD-BM-043-014-A.jpg,2000,5,O,m,768,dash,1,7081.0,117222.5,7032,ATS,C,2
2,prac,1,B,mfborder.png,0,z,Tue Nov 12 2024 09:51:25 GMT-0600 (Central Standard Time),128019.0,CFD-BF-019-004-HC.jpg,1400,7,O,None,1514,dash,1,10796.5,117222.5,7032,ATS,C,3
3,prac,1,B,mfborder.png,1,m,Tue Nov 12 2024 09:51:25 GMT-0600 (Central Standard Time),131017.39999985695,CFD-WM-034-040-A.jpg,1200,6,O,m,957,dash,1,13794.899999856949,117222.5,7032,ATS,C,4
4,prac,1,B,mfborder.png,1,m,Tue Nov 12 2024 09:51:25 GMT-0600 (Central Standard Time),134450.09999990463,CFD-WM-036-018-A.jpg,1700,9,O,m,924,dash,1,17227.599999904633,117222.5,7032,ATS,C,5
5,prac,1,B,mfborder.png,1,m,Tue Nov 12 2024 09:51:25 GMT-0600 (Central Standard Time),137982.79999995232,CFD-WM-035-036-HC.jpg,1600,10,O,m,1111,dash,1,20760.299999952316,117222.5,7032,ATS,C,6
6,prac,1,B,mfborder.png,1,z,Tue Nov 12 2024 09:51:25 GMT-0600 (Central Standard Time),141115.09999990463,CFD-WF-013-009-HC.jpg,1000,12,O,z,1315,dash,1,23892.599999904633,117222.5,7032,ATS,C,7
7,prac,1,B,mfborder.png,1,m,Tue Nov 12 2024 09:51:25 GMT-0600 (Central Standard Time),144982.09999990463,CFD-BM-022-004-HC.jpg,1700,1,O,m,1346,dash,1,27759.599999904633,117222.5,7032,ATS,C,8
8,prac,1,B,mfborder.png,1,m,Tue Nov 12 2024 09:51:25 GMT-0600 (Central Standard Time),148862.39999985695,CFD-BM-021-026-A.jpg,1600,2,O,m,1461,dash,1,31639.89999985695,117222.5,7032,ATS,C,9
9,prac,1,B,mfborder.png,1,z,Tue Nov 12 2024 09:51:25 GMT-0600 (Central Standard Time),152043.5,CFD-BF-031-020-A.jpg,1000,4,O,z,1354,dash,1,34821.0,117222.5,7032,ATS,C,10
10,prac,1,B,mfborder.png,1,z,Tue Nov 12 2024 09:51:25 GMT-0600 (Central Standard Time),155643.39999985695,CFD-WF-037-016-A.jpg,1500,11,O,z,1314,dash,1,38420.89999985695,117222.5,7032,ATS,C,11
11,prac,1,B,mfborder.png,1,z,Tue Nov 12 2024 09:51:25 GMT-0600 (Central Standard Time),158975.59999990463,CFD-BF-042-031-HC.jpg,1500,3,O,z,1002,dash,1,41753.09999990463,117222.5,7032,ATS,C,12
1,test,1,A,haborder.png,1,m,Tue Nov 12 2024 09:51:25 GMT-0600 (Central Standard Time),182001.29999995232,CFD-BF-019-004-HC.jpg,2000,solid,O,m,1360,5,1,3398.7999999523163,178602.5,7032,ATS,C,1
2,test,1,A,haborder.png,1,z,Tue Nov 12 2024 09:51:25 GMT-0600 (Central Standard Time),183750.79999995232,CFD-WF-023-013-A.jpg,1000,solid,O,z,705,12,1,5148.299999952316,178602.5,7032,ATS,C,2
3,test,1,A,haborder.png,1,m,Tue Nov 12 2024 09:51:25 GMT-0600 (Central Standard Time),187049.29999995232,CFD-BF-019-004-HC.jpg,2000,solid,O,m,1259,5,1,8446.799999952316,178602.5,7032,ATS,C,3
4,test,1,A,haborder.png,1,m,Tue Nov 12 2024 09:51:25 GMT-0600 (Central Standard Time),189749.09999990463,CFD-BM-034-035-HC.jpg,1700,solid,O,m,964,1,1,11146.599999904633,178602.5,7032,ATS,C,4
5,test,1,A,haborder.png,1,z,Tue Nov 12 2024 09:51:25 GMT-0600 (Central Standard Time),192181.09999990463,CFD-BF-031-020-A.jpg,1000,solid,O,z,1397,4,1,13578.599999904633,178602.5,7032,ATS,C,5
6,test,1,A,haborder.png,1,m,Tue Nov 12 2024 09:51:25 GMT-0600 (Central Standard Time),195096.89999985695,CFD-WM-035-036-HC.jpg,1700,solid,O,m,1177,9,1,16494.39999985695,178602.5,7032,ATS,C,6
6,test,1,A,haborder.png,0,z,Tue Nov 12 2024 09:51:25 GMT-0600 (Central Standard Time),197846.19999980927,CFD-BF-002-018-A.jpg,1200,solid,O,None,1515,6,1,19243.699999809265,178602.5,7032,ATS,C,7
7,test,1,A,haborder.png,1,z,Tue Nov 12 2024 09:51:25 GMT-0600 (Central Standard Time),200928.5,CFD-BM-043-014-A.jpg,1600,solid,O,z,1444,2,1,22326.0,178602.5,7032,ATS,C,8
8,test,1,A,haborder.png,1,m,Tue Nov 12 2024 09:51:25 GMT-0600 (Central Standard Time),203194.29999995232,CFD-WF-013-009-HC.jpg,1500,solid,O,m,726,11,1,24591.799999952316,178602.5,7032,ATS,C,9
9,test,1,A,haborder.png,1,z,Tue Nov 12 2024 09:51:25 GMT-0600 (Central Standard Time),206243.09999990463,CFD-WM-036-018-A.jpg,1900,solid,O,z,1100,8,1,27640.599999904633,178602.5,7032,ATS,C,10
10,test,1,A,haborder.png,1,z,Tue Nov 12 2024 09:51:25 GMT-0600 (Central Standard Time),209092.19999980927,CFD-WM-036-018-A.jpg,1900,solid,O,z,899,8,1,30489.699999809265,178602.5,7032,ATS,C,11
11,test,1,A,haborder.png,1,m,Tue Nov 12 2024 09:51:25 GMT-0600 (Central Standard Time),211974.59999990463,CFD-BM-034-035-HC.jpg,1700,solid,O,m,1145,1,1,33372.09999990463,178602.5,7032,ATS,C,12
12,test,1,A,haborder.png,1,m,Tue Nov 12 2024 09:51:25 GMT-0600 (Central Standard Time),214156.89999985695,CFD-WM-028-005-HC.jpg,1400,solid,O,m,747,7,1,35554.39999985695,178602.5,7032,ATS,C,13
13,test,1,A,haborder.png,1,z,Tue Nov 12 2024 09:51:25 GMT-0600 (Central Standard Time),216489.89999985695,CFD-WF-037-016-A.jpg,1600,solid,O,z,692,10,1,37887.39999985695,178602.5,7032,ATS,C,14
14,test,1,A,haborder.png,1,m,Tue Nov 12 2024 09:51:25 GMT-0600 (Central Standard Time),219038.39999985695,CFD-WF-013-009-HC.jpg,1500,solid,O,m,1011,11,1,40435.89999985695,178602.5,7032,ATS,C,15
15,test,1,A,haborder.png,1,z,Tue Nov 12 2024 09:51:25 GMT-0600 (Central Standard Time),221604.89999985695,CFD-WF-037-016-A.jpg,1600,solid,O,z,941,10,1,43002.39999985695,178602.5,7032,ATS,C,16
16,test,1,A,haborder.png,1,z,Tue Nov 12 2024 09:51:25 GMT-0600 (Central Standard Time),223570.89999985695,CFD-BF-031-020-A.jpg,1000,solid,O,z,917,4,1,44968.39999985695,178602.5,7032,ATS,C,17
17,test,1,A,haborder.png,1,m,Tue Nov 12 2024 09:51:25 GMT-0600 (Central Standard Time),225970.0,CFD-BM-022-004-HC.jpg,1500,solid,O,m,859,3,1,47367.5,178602.5,7032,ATS,C,18
18,test,1,A,haborder.png,1,m,Tue Nov 12 2024 09:51:25 GMT-0600 (Central Standard Time),228252.79999995232,CFD-WM-028-005-HC.jpg,1400,solid,O,m,832,7,1,49650.299999952316,178602.5,7032,ATS,C,19
19,test,1,A,haborder.png,1,m,Tue Nov 12 2024 09:51:25 GMT-0600 (Central Standard Time),230568.39999985695,CFD-BM-022-004-HC.jpg,1500,solid,O,m,769,3,1,51965.89999985695,178602.5,7032,ATS,C,20
20,test,1,A,haborder.png,1,z,Tue Nov 12 2024 09:51:25 GMT-0600 (Central Standard Time),232384.39999985695,CFD-WF-023-013-A.jpg,1000,solid,O,z,777,12,1,53781.89999985695,178602.5,7032,ATS,C,21
21,test,1,A,haborder.png,1,z,Tue Nov 12 2024 09:51:25 GMT-0600 (Central Standard Time),234400.5,CFD-BF-002-018-A.jpg,1200,solid,O,z,769,6,1,55798.0,178602.5,7032,ATS,C,22
22,test,1,A,haborder.png,1,m,Tue Nov 12 2024 09:51:25 GMT-0600 (Central Standard Time),236799.79999995232,CFD-WM-035-036-HC.jpg,1700,solid,O,m,661,9,1,58197.299999952316,178602.5,7032,ATS,C,23
23,test,1,A,haborder.png,1,z,Tue Nov 12 2024 09:51:25 GMT-0600 (Central Standard Time),239365.29999995232,CFD-BM-043-014-A.jpg,1600,solid,O,z,930,2,1,60762.799999952316,178602.5,7032,ATS,C,24
1,test,1,B,mfborder.png,1,z,Tue Nov 12 2024 09:51:25 GMT-0600 (Central Standard Time),252211.29999995232,CFD-WF-037-016-A.jpg,1500,dash,O,z,924,11,1,2465.5,249745.79999995232,7032,ATS,C,1
2,test,1,B,mfborder.png,1,z,Tue Nov 12 2024 09:51:25 GMT-0600 (Central Standard Time),253994.09999990463,CFD-BF-031-020-A.jpg,1000,dash,O,z,734,4,1,4248.299999952316,249745.79999995232,7032,ATS,C,2
3,test,1,B,mfborder.png,1,z,Tue Nov 12 2024 09:51:25 GMT-0600 (Central Standard Time),255660.19999980927,CFD-BF-031-020-A.jpg,1000,dash,O,z,623,4,1,5914.399999856949,249745.79999995232,7032,ATS,C,3
4,test,1,B,mfborder.png,1,m,Tue Nov 12 2024 09:51:25 GMT-0600 (Central Standard Time),258692.69999980927,CFD-BM-043-014-A.jpg,2000,dash,O,m,990,5,1,8946.899999856949,249745.79999995232,7032,ATS,C,4
5,test,1,B,mfborder.png,1,z,Tue Nov 12 2024 09:51:25 GMT-0600 (Central Standard Time),260458.69999980927,CFD-WF-013-009-HC.jpg,1000,dash,O,z,725,12,1,10712.899999856949,249745.79999995232,7032,ATS,C,5
6,test,1,B,mfborder.png,1,m,Tue Nov 12 2024 09:51:25 GMT-0600 (Central Standard Time),262974.7999999523,CFD-WM-036-018-A.jpg,1700,dash,O,m,779,9,1,13229.0,249745.79999995232,7032,ATS,C,6
7,test,1,B,mfborder.png,1,z,Tue Nov 12 2024 09:51:25 GMT-0600 (Central Standard Time),265223.7999999523,CFD-BF-042-031-HC.jpg,1500,dash,O,z,711,3,1,15478.0,249745.79999995232,7032,ATS,C,7
8,test,1,B,mfborder.png,1,z,Tue Nov 12 2024 09:51:25 GMT-0600 (Central Standard Time),268039.59999990463,CFD-WF-001-010-HC.jpg,1900,dash,O,z,870,8,1,18293.799999952316,249745.79999995232,7032,ATS,C,8
9,test,1,B,mfborder.png,1,z,Tue Nov 12 2024 09:51:25 GMT-0600 (Central Standard Time),270172.69999980927,CFD-BF-042-031-HC.jpg,1500,dash,O,z,598,3,1,20426.89999985695,249745.79999995232,7032,ATS,C,9
10,test,1,B,mfborder.png,1,m,Tue Nov 12 2024 09:51:25 GMT-0600 (Central Standard Time),272321.5,CFD-WM-034-040-A.jpg,1200,dash,O,m,901,6,1,22575.700000047684,249745.79999995232,7032,ATS,C,10
11,test,1,B,mfborder.png,1,m,Tue Nov 12 2024 09:51:25 GMT-0600 (Central Standard Time),275270.5,CFD-WM-035-036-HC.jpg,1600,dash,O,m,1304,10,1,25524.700000047684,249745.79999995232,7032,ATS,C,11
12,test,1,B,mfborder.png,1,m,Tue Nov 12 2024 09:51:25 GMT-0600 (Central Standard Time),278069.59999990463,CFD-BM-022-004-HC.jpg,1700,dash,O,m,1055,1,1,28323.799999952316,249745.79999995232,7032,ATS,C,12
13,test,1,B,mfborder.png,1,z,Tue Nov 12 2024 09:51:25 GMT-0600 (Central Standard Time),280285.2999999523,CFD-BF-019-004-HC.jpg,1400,dash,O,z,780,7,1,30539.5,249745.79999995232,7032,ATS,C,13
14,test,1,B,mfborder.png,1,m,Tue Nov 12 2024 09:51:25 GMT-0600 (Central Standard Time),283017.89999985695,CFD-BM-022-004-HC.jpg,1700,dash,O,m,984,1,1,33272.09999990463,249745.79999995232,7032,ATS,C,14
15,test,1,B,mfborder.png,1,m,Tue Nov 12 2024 09:51:25 GMT-0600 (Central Standard Time),285417.09999990463,CFD-BM-021-026-A.jpg,1600,dash,O,m,735,2,1,35671.299999952316,249745.79999995232,7032,ATS,C,15
16,test,1,B,mfborder.png,1,m,Tue Nov 12 2024 09:51:25 GMT-0600 (Central Standard Time),287916.59999990463,CFD-WM-035-036-HC.jpg,1600,dash,O,m,864,10,1,38170.799999952316,249745.79999995232,7032,ATS,C,16
17,test,1,B,mfborder.png,1,m,Tue Nov 12 2024 09:51:25 GMT-0600 (Central Standard Time),290132.2999999523,CFD-WM-034-040-A.jpg,1200,dash,O,m,973,6,1,40386.5,249745.79999995232,7032,ATS,C,17
18,test,1,B,mfborder.png,1,m,Tue Nov 12 2024 09:51:25 GMT-0600 (Central Standard Time),292764.89999985695,CFD-WM-036-018-A.jpg,1700,dash,O,m,897,9,1,43019.09999990463,249745.79999995232,7032,ATS,C,18
19,test,1,B,mfborder.png,1,z,Tue Nov 12 2024 09:51:25 GMT-0600 (Central Standard Time),295380.5,CFD-WF-001-010-HC.jpg,1900,dash,O,z,665,8,1,45634.700000047684,249745.79999995232,7032,ATS,C,19
20,test,1,B,mfborder.png,1,z,Tue Nov 12 2024 09:51:25 GMT-0600 (Central Standard Time),297463.19999980927,CFD-WF-037-016-A.jpg,1500,dash,O,z,537,11,1,47717.39999985695,249745.79999995232,7032,ATS,C,20
20,test,1,B,mfborder.png,0,m,Tue Nov 12 2024 09:51:25 GMT-0600 (Central Standard Time),300329.2999999523,CFD-BM-043-014-A.jpg,2000,dash,O,z,819,5,1,50583.5,249745.79999995232,7032,ATS,C,21
20,test,1,B,mfborder.png,0,m,Tue Nov 12 2024 09:51:25 GMT-0600 (Central Standard Time),303478.09999990463,CFD-BM-021-026-A.jpg,1600,dash,O,None,1515,2,1,53732.299999952316,249745.79999995232,7032,ATS,C,22
21,test,1,B,mfborder.png,1,z,Tue Nov 12 2024 09:51:25 GMT-0600 (Central Standard Time),305860.59999990463,CFD-WF-013-009-HC.jpg,1000,dash,O,z,1331,12,1,56114.799999952316,249745.79999995232,7032,ATS,C,23
22,test,1,B,mfborder.png,1,z,Tue Nov 12 2024 09:51:25 GMT-0600 (Central Standard Time),307976.2999999523,CFD-BF-019-004-HC.jpg,1400,dash,O,z,669,7,1,58230.5,249745.79999995232,7032,ATS,C,24
1,prac,1,C,haborder.png,1,z,Tue Nov 12 2024 09:51:25 GMT-0600 (Central Standard Time),347697.0,CFD-WF-037-016-A.jpg,1600,dash,O,z,1092,7,1,3499.4000000953674,344197.59999990463,7032,ATS,C,1
2,prac,1,C,haborder.png,1,z,Tue Nov 12 2024 09:51:25 GMT-0600 (Central Standard Time),351345.89999985695,CFD-BF-031-020-A.jpg,1900,dash,O,z,942,7,1,7148.299999952316,344197.59999990463,7032,ATS,C,2
2,prac,1,C,haborder.png,0,m,Tue Nov 12 2024 09:51:25 GMT-0600 (Central Standard Time),354676.7999999523,CFD-WM-028-005-HC.jpg,1000,dash,O,None,1516,7,1,10479.200000047684,344197.59999990463,7032,ATS,C,3
2,prac,1,C,mfborder.png,0,m,Tue Nov 12 2024 09:51:25 GMT-0600 (Central Standard Time),358176.39999985695,CFD-BM-043-014-A.jpg,1200,dash,O,None,1516,7,1,13978.799999952316,344197.59999990463,7032,ATS,C,4
2,prac,1,C,haborder.png,0,z,Tue Nov 12 2024 09:51:25 GMT-0600 (Central Standard Time),362208.59999990463,CFD-BF-002-018-A.jpg,1700,solid,O,None,1515,7,1,18011.0,344197.59999990463,7032,ATS,C,5
3,prac,1,C,mfborder.png,1,m,Tue Nov 12 2024 09:51:25 GMT-0600 (Central Standard Time),365740.89999985695,CFD-WM-036-018-A.jpg,1700,solid,O,m,1013,7,1,21543.299999952316,344197.59999990463,7032,ATS,C,6
4,prac,1,C,haborder.png,1,m,Tue Nov 12 2024 09:51:25 GMT-0600 (Central Standard Time),369423.0,CFD-BM-022-004-HC.jpg,1500,solid,O,m,1361,7,1,25225.400000095367,344197.59999990463,7032,ATS,C,7
5,prac,1,C,mfborder.png,1,z,Tue Nov 12 2024 09:51:25 GMT-0600 (Central Standard Time),372472.0,CFD-BF-019-004-HC.jpg,1000,dash,O,z,1227,7,1,28274.400000095367,344197.59999990463,7032,ATS,C,8
6,prac,1,C,mfborder.png,1,m,Tue Nov 12 2024 09:51:25 GMT-0600 (Central Standard Time),376770.5,CFD-BM-034-035-HC.jpg,2000,solid,O,m,1474,7,1,32572.900000095367,344197.59999990463,7032,ATS,C,9
7,prac,1,C,mfborder.png,1,z,Tue Nov 12 2024 09:51:25 GMT-0600 (Central Standard Time),380286.09999990463,CFD-WF-023-013-A.jpg,1500,solid,O,z,1212,7,1,36088.5,344197.59999990463,7032,ATS,C,10
8,prac,1,C,mfborder.png,1,z,Tue Nov 12 2024 09:51:25 GMT-0600 (Central Standard Time),383918.2999999523,CFD-WF-013-009-HC.jpg,1600,dash,O,z,1212,7,1,39720.700000047684,344197.59999990463,7032,ATS,C,11
9,prac,1,C,haborder.png,1,m,Tue Nov 12 2024 09:51:25 GMT-0600 (Central Standard Time),386867.2999999523,CFD-WM-028-005-HC.jpg,1400,solid,O,m,732,7,1,42669.700000047684,344197.59999990463,7032,ATS,C,12
0,test,1,C,haborder.png,0,m,Tue Nov 12 2024 09:51:25 GMT-0600 (Central Standard Time),409593.2999999523,CFD-WF-013-009-HC.jpg,1000,solid,O,None,1515,12,1,2549.5,407043.7999999523,7032,ATS,C,1
1,test,1,C,haborder.png,1,z,Tue Nov 12 2024 09:51:25 GMT-0600 (Central Standard Time),412425.39999985695,CFD-BM-021-026-A.jpg,1700,solid,O,z,1094,9,1,5381.599999904633,407043.7999999523,7032,ATS,C,2
2,test,1,C,haborder.png,1,m,Tue Nov 12 2024 09:51:25 GMT-0600 (Central Standard Time),415024.5,CFD-WF-001-010-HC.jpg,1500,solid,O,m,1061,11,1,7980.700000047684,407043.7999999523,7032,ATS,C,3
3,test,1,C,mfborder.png,1,m,Tue Nov 12 2024 09:51:25 GMT-0600 (Central Standard Time),418490.0,CFD-WM-034-040-A.jpg,2000,dash,O,m,1418,5,1,11446.200000047684,407043.7999999523,7032,ATS,C,4
4,test,1,C,haborder.png,1,m,Tue Nov 12 2024 09:51:25 GMT-0600 (Central Standard Time),420606.09999990463,CFD-WF-013-009-HC.jpg,1000,solid,O,m,1072,12,1,13562.299999952316,407043.7999999523,7032,ATS,C,5
5,test,1,C,mfborder.png,1,z,Tue Nov 12 2024 09:51:25 GMT-0600 (Central Standard Time),423305.19999980927,CFD-WF-037-016-A.jpg,1500,dash,O,z,1152,3,1,16261.399999856949,407043.7999999523,7032,ATS,C,6
6,test,1,C,mfborder.png,1,m,Tue Nov 12 2024 09:51:25 GMT-0600 (Central Standard Time),426354.0,CFD-WM-034-040-A.jpg,2000,dash,O,m,1001,5,1,19310.200000047684,407043.7999999523,7032,ATS,C,7
7,test,1,C,mfborder.png,1,m,Tue Nov 12 2024 09:51:25 GMT-0600 (Central Standard Time),428319.19999980927,CFD-BM-022-004-HC.jpg,1200,dash,O,m,728,6,1,21275.39999985695,407043.7999999523,7032,ATS,C,8
8,test,1,C,haborder.png,1,z,Tue Nov 12 2024 09:51:25 GMT-0600 (Central Standard Time),431119.19999980927,CFD-WM-036-018-A.jpg,1400,solid,O,z,1370,7,1,24075.39999985695,407043.7999999523,7032,ATS,C,9
8,test,1,C,mfborder.png,0,m,Tue Nov 12 2024 09:51:25 GMT-0600 (Central Standard Time),433668.59999990463,CFD-WM-035-036-HC.jpg,1000,dash,O,None,1514,4,1,26624.799999952316,407043.7999999523,7032,ATS,C,10
8,test,1,C,haborder.png,0,z,Tue Nov 12 2024 09:51:25 GMT-0600 (Central Standard Time),437117.5,CFD-BM-043-014-A.jpg,1900,solid,O,None,1514,8,1,30073.700000047684,407043.7999999523,7032,ATS,C,11
9,test,1,C,haborder.png,1,z,Tue Nov 12 2024 09:51:25 GMT-0600 (Central Standard Time),439399.7999999523,CFD-WM-036-018-A.jpg,1400,solid,O,z,844,7,1,32356.0,407043.7999999523,7032,ATS,C,12
10,test,1,C,mfborder.png,1,z,Tue Nov 12 2024 09:51:25 GMT-0600 (Central Standard Time),442515.7999999523,CFD-BF-042-031-HC.jpg,1700,dash,O,z,1366,1,1,35472.0,407043.7999999523,7032,ATS,C,13
11,test,1,C,mfborder.png,1,z,Tue Nov 12 2024 09:51:25 GMT-0600 (Central Standard Time),444964.69999980927,CFD-BF-031-020-A.jpg,1600,dash,O,z,815,2,1,37920.89999985695,407043.7999999523,7032,ATS,C,14
12,test,1,C,haborder.png,1,m,Tue Nov 12 2024 09:51:25 GMT-0600 (Central Standard Time),447397.09999990463,CFD-WF-001-010-HC.jpg,1500,solid,O,m,890,11,1,40353.299999952316,407043.7999999523,7032,ATS,C,15
13,test,1,C,mfborder.png,1,z,Tue Nov 12 2024 09:51:25 GMT-0600 (Central Standard Time),449829.5,CFD-WF-037-016-A.jpg,1500,dash,O,z,896,3,1,42785.700000047684,407043.7999999523,7032,ATS,C,16
14,test,1,C,haborder.png,1,m,Tue Nov 12 2024 09:51:25 GMT-0600 (Central Standard Time),452628.7999999523,CFD-BF-019-004-HC.jpg,1600,solid,O,m,1157,10,1,45585.0,407043.7999999523,7032,ATS,C,17
15,test,1,C,haborder.png,1,z,Tue Nov 12 2024 09:51:25 GMT-0600 (Central Standard Time),455494.5,CFD-BM-021-026-A.jpg,1700,solid,O,z,1121,9,1,48450.700000047684,407043.7999999523,7032,ATS,C,18
16,test,1,C,mfborder.png,1,z,Tue Nov 12 2024 09:51:25 GMT-0600 (Central Standard Time),458493.59999990463,CFD-BF-042-031-HC.jpg,1700,dash,O,z,1256,1,1,51449.799999952316,407043.7999999523,7032,ATS,C,19
16,test,1,C,haborder.png,0,z,Tue Nov 12 2024 09:51:25 GMT-0600 (Central Standard Time),461808.0,CFD-BM-043-014-A.jpg,1900,solid,O,m,1374,8,1,54764.200000047684,407043.7999999523,7032,ATS,C,20
16,test,1,C,mfborder.png,0,z,Tue Nov 12 2024 09:51:25 GMT-0600 (Central Standard Time),464941.7999999523,CFD-BF-031-020-A.jpg,1600,dash,O,None,1515,2,1,57898.0,407043.7999999523,7032,ATS,C,21
16,test,1,C,mfborder.png,0,m,Tue Nov 12 2024 09:51:25 GMT-0600 (Central Standard Time),467490.59999990463,CFD-WM-035-036-HC.jpg,1000,dash,O,None,1514,4,1,60446.799999952316,407043.7999999523,7032,ATS,C,22
16,test,1,C,mfborder.png,0,m,Tue Nov 12 2024 09:51:25 GMT-0600 (Central Standard Time),470239.7999999523,CFD-BM-022-004-HC.jpg,1200,dash,O,None,1515,6,1,63196.0,407043.7999999523,7032,ATS,C,23
16,test,1,C,haborder.png,0,m,Tue Nov 12 2024 09:51:25 GMT-0600 (Central Standard Time),473388.69999980927,CFD-BF-019-004-HC.jpg,1600,solid,O,None,1514,10,1,66344.89999985695,407043.7999999523,7032,ATS,C,24
0,test,2,C,mfborder.png,0,m,Tue Nov 12 2024 09:51:25 GMT-0600 (Central Standard Time),487434.2999999523,CFD-WM-036-018-A.jpg,1200,dash,O,None,1515,6,1,2749.2000000476837,484685.09999990463,7032,ATS,C,1
1,test,2,C,mfborder.png,1,m,Tue Nov 12 2024 09:51:25 GMT-0600 (Central Standard Time),489650.09999990463,CFD-BM-034-035-HC.jpg,1000,dash,O,m,1176,4,1,4965.0,484685.09999990463,7032,ATS,C,2
1,test,2,C,haborder.png,0,z,Tue Nov 12 2024 09:51:25 GMT-0600 (Central Standard Time),493098.89999985695,CFD-BF-002-018-A.jpg,1900,solid,O,None,1515,8,1,8413.799999952316,484685.09999990463,7032,ATS,C,3
2,test,2,C,haborder.png,1,m,Tue Nov 12 2024 09:51:25 GMT-0600 (Central Standard Time),496047.7999999523,CFD-BM-022-004-HC.jpg,1600,solid,O,m,1304,10,1,11362.700000047684,484685.09999990463,7032,ATS,C,4
3,test,2,C,mfborder.png,1,m,Tue Nov 12 2024 09:51:25 GMT-0600 (Central Standard Time),498580.39999985695,CFD-BM-034-035-HC.jpg,1000,dash,O,m,1482,4,1,13895.299999952316,484685.09999990463,7032,ATS,C,5
4,test,2,C,haborder.png,1,m,Tue Nov 12 2024 09:51:25 GMT-0600 (Central Standard Time),501012.89999985695,CFD-WM-028-005-HC.jpg,1500,solid,O,m,890,11,1,16327.799999952316,484685.09999990463,7032,ATS,C,6
5,test,2,C,mfborder.png,1,z,Tue Nov 12 2024 09:51:25 GMT-0600 (Central Standard Time),503812.59999990463,CFD-WF-013-009-HC.jpg,1700,dash,O,z,1065,1,1,19127.5,484685.09999990463,7032,ATS,C,7
6,test,2,C,mfborder.png,1,z,Tue Nov 12 2024 09:51:25 GMT-0600 (Central Standard Time),506393.5,CFD-WF-023-013-A.jpg,1600,dash,O,z,942,2,1,21708.400000095367,484685.09999990463,7032,ATS,C,8
7,test,2,C,mfborder.png,1,z,Tue Nov 12 2024 09:51:25 GMT-0600 (Central Standard Time),508693.39999985695,CFD-BF-019-004-HC.jpg,1500,dash,O,z,781,3,1,24008.299999952316,484685.09999990463,7032,ATS,C,9
8,test,2,C,haborder.png,1,z,Tue Nov 12 2024 09:51:25 GMT-0600 (Central Standard Time),510959.69999980927,CFD-BF-031-020-A.jpg,1400,solid,O,z,820,7,1,26274.599999904633,484685.09999990463,7032,ATS,C,10
9,test,2,C,mfborder.png,1,z,Tue Nov 12 2024 09:51:25 GMT-0600 (Central Standard Time),513175.69999980927,CFD-BF-019-004-HC.jpg,1500,dash,O,z,671,3,1,28490.599999904633,484685.09999990463,7032,ATS,C,11
10,test,2,C,haborder.png,1,m,Tue Nov 12 2024 09:51:25 GMT-0600 (Central Standard Time),515108.39999985695,CFD-WM-028-005-HC.jpg,1000,solid,O,m,884,12,1,30423.299999952316,484685.09999990463,7032,ATS,C,12
11,test,2,C,mfborder.png,1,z,Tue Nov 12 2024 09:51:25 GMT-0600 (Central Standard Time),517573.7999999523,CFD-WF-023-013-A.jpg,1600,dash,O,z,830,2,1,32888.700000047684,484685.09999990463,7032,ATS,C,13
12,test,2,C,mfborder.png,1,m,Tue Nov 12 2024 09:51:25 GMT-0600 (Central Standard Time),519690.0,CFD-WM-036-018-A.jpg,1200,dash,O,m,875,6,1,35004.90000009537,484685.09999990463,7032,ATS,C,14
13,test,2,C,mfborder.png,1,z,Tue Nov 12 2024 09:51:25 GMT-0600 (Central Standard Time),522155.0,CFD-WF-013-009-HC.jpg,1700,dash,O,z,722,1,1,37469.90000009537,484685.09999990463,7032,ATS,C,15
14,test,2,C,haborder.png,1,m,Tue Nov 12 2024 09:51:25 GMT-0600 (Central Standard Time),523855.2999999523,CFD-WM-028-005-HC.jpg,1000,solid,O,m,670,12,1,39170.200000047684,484685.09999990463,7032,ATS,C,16
15,test,2,C,haborder.png,1,z,Tue Nov 12 2024 09:51:25 GMT-0600 (Central Standard Time),526271.0999999046,CFD-WF-037-016-A.jpg,1700,solid,O,z,671,9,1,41586.0,484685.09999990463,7032,ATS,C,17
16,test,2,C,haborder.png,1,m,Tue Nov 12 2024 09:51:25 GMT-0600 (Central Standard Time),528603.899999857,CFD-WM-028-005-HC.jpg,1500,solid,O,m,782,11,1,43918.799999952316,484685.09999990463,7032,ATS,C,18
17,test,2,C,haborder.png,1,m,Tue Nov 12 2024 09:51:25 GMT-0600 (Central Standard Time),530918.899999857,CFD-BM-022-004-HC.jpg,1600,solid,O,m,669,10,1,46233.799999952316,484685.09999990463,7032,ATS,C,19
17,test,2,C,mfborder.png,0,m,Tue Nov 12 2024 09:51:25 GMT-0600 (Central Standard Time),534452.0,CFD-BM-043-014-A.jpg,2000,dash,O,None,1516,5,1,49766.90000009537,484685.09999990463,7032,ATS,C,20
18,test,2,C,haborder.png,1,z,Tue Nov 12 2024 09:51:25 GMT-0600 (Central Standard Time),537484.5999999046,CFD-BF-002-018-A.jpg,1900,solid,O,z,1099,8,1,52799.5,484685.09999990463,7032,ATS,C,21
19,test,2,C,mfborder.png,1,m,Tue Nov 12 2024 09:51:25 GMT-0600 (Central Standard Time),540766.399999857,CFD-BM-043-014-A.jpg,2000,dash,O,m,1246,5,1,56081.299999952316,484685.09999990463,7032,ATS,C,22
20,test,2,C,haborder.png,1,z,Tue Nov 12 2024 09:51:25 GMT-0600 (Central Standard Time),543415.6999998093,CFD-WF-037-016-A.jpg,1700,solid,O,z,912,9,1,58730.59999990463,484685.09999990463,7032,ATS,C,23
21,test,2,C,haborder.png,1,z,Tue Nov 12 2024 09:51:25 GMT-0600 (Central Standard Time),546331.2999999523,CFD-BF-031-020-A.jpg,1400,solid,O,z,1474,7,1,61646.200000047684,484685.09999990463,7032,ATS,C,24
1,test,3,C,mfborder.png,1,m,Tue Nov 12 2024 09:51:25 GMT-0600 (Central Standard Time),552712.6999998093,CFD-BM-022-004-HC.jpg,1200,dash,O,m,1202,6,1,2449.2999999523163,550263.399999857,7032,ATS,C,1
2,test,3,C,mfborder.png,1,m,Tue Nov 12 2024 09:51:25 GMT-0600 (Central Standard Time),554512.1999998093,CFD-WM-035-036-HC.jpg,1000,dash,O,m,753,4,1,4248.799999952316,550263.399999857,7032,ATS,C,2
3,test,3,C,haborder.png,1,z,Tue Nov 12 2024 09:51:25 GMT-0600 (Central Standard Time),557411.0999999046,CFD-BM-021-026-A.jpg,1700,solid,O,z,1134,9,1,7147.700000047684,550263.399999857,7032,ATS,C,3
4,test,3,C,mfborder.png,1,z,Tue Nov 12 2024 09:51:25 GMT-0600 (Central Standard Time),560496.399999857,CFD-BF-042-031-HC.jpg,1700,dash,O,z,1351,1,1,10233.0,550263.399999857,7032,ATS,C,4
5,test,3,C,mfborder.png,1,m,Tue Nov 12 2024 09:51:25 GMT-0600 (Central Standard Time),563292.899999857,CFD-WM-034-040-A.jpg,2000,dash,O,m,781,5,1,13029.5,550263.399999857,7032,ATS,C,5
6,test,3,C,haborder.png,1,m,Tue Nov 12 2024 09:51:25 GMT-0600 (Central Standard Time),566108.0999999046,CFD-WF-001-010-HC.jpg,1500,solid,O,m,1266,11,1,15844.700000047684,550263.399999857,7032,ATS,C,6
6,test,3,C,haborder.png,0,z,Tue Nov 12 2024 09:51:25 GMT-0600 (Central Standard Time),568607.2999999523,CFD-WM-036-018-A.jpg,1400,solid,O,m,1054,7,1,18343.900000095367,550263.399999857,7032,ATS,C,7
7,test,3,C,mfborder.png,1,z,Tue Nov 12 2024 09:51:25 GMT-0600 (Central Standard Time),571456.399999857,CFD-BF-031-020-A.jpg,1600,dash,O,z,1180,2,1,21193.0,550263.399999857,7032,ATS,C,8
7,test,3,C,haborder.png,0,z,Tue Nov 12 2024 09:51:25 GMT-0600 (Central Standard Time),574672.0,CFD-BM-021-026-A.jpg,1700,solid,O,m,1480,9,1,24408.60000014305,550263.399999857,7032,ATS,C,9
7,test,3,C,haborder.png,0,m,Tue Nov 12 2024 09:51:25 GMT-0600 (Central Standard Time),577721.0,CFD-WF-001-010-HC.jpg,1500,solid,O,None,1515,11,1,27457.60000014305,550263.399999857,7032,ATS,C,10
8,test,3,C,haborder.png,1,m,Tue Nov 12 2024 09:51:25 GMT-0600 (Central Standard Time),580453.1999998093,CFD-BF-019-004-HC.jpg,1600,solid,O,m,1089,10,1,30189.799999952316,550263.399999857,7032,ATS,C,11
8,test,3,C,mfborder.png,0,m,Tue Nov 12 2024 09:51:25 GMT-0600 (Central Standard Time),583185.7999999523,CFD-BM-022-004-HC.jpg,1200,dash,O,z,1494,6,1,32922.40000009537,550263.399999857,7032,ATS,C,12
8,test,3,C,haborder.png,0,z,Tue Nov 12 2024 09:51:25 GMT-0600 (Central Standard Time),586634.899999857,CFD-BM-043-014-A.jpg,1900,solid,O,None,1516,8,1,36371.5,550263.399999857,7032,ATS,C,13
8,test,3,C,haborder.png,0,z,Tue Nov 12 2024 09:51:25 GMT-0600 (Central Standard Time),590083.6999998093,CFD-BM-043-014-A.jpg,1900,solid,O,None,1515,8,1,39820.299999952316,550263.399999857,7032,ATS,C,14
9,test,3,C,haborder.png,1,m,Tue Nov 12 2024 09:51:25 GMT-0600 (Central Standard Time),592732.7999999523,CFD-BF-019-004-HC.jpg,1600,solid,O,m,1015,10,1,42469.40000009537,550263.399999857,7032,ATS,C,15
10,test,3,C,mfborder.png,1,m,Tue Nov 12 2024 09:51:25 GMT-0600 (Central Standard Time),596148.0,CFD-WM-034-040-A.jpg,2000,dash,O,m,1366,5,1,45884.60000014305,550263.399999857,7032,ATS,C,16
11,test,3,C,mfborder.png,1,z,Tue Nov 12 2024 09:51:25 GMT-0600 (Central Standard Time),598597.1999998093,CFD-BF-031-020-A.jpg,1600,dash,O,z,814,2,1,48333.799999952316,550263.399999857,7032,ATS,C,17
12,test,3,C,haborder.png,1,m,Tue Nov 12 2024 09:51:25 GMT-0600 (Central Standard Time),600763.0999999046,CFD-WF-013-009-HC.jpg,1000,solid,O,m,1124,12,1,50499.700000047684,550263.399999857,7032,ATS,C,18
13,test,3,C,mfborder.png,1,z,Tue Nov 12 2024 09:51:25 GMT-0600 (Central Standard Time),603445.5999999046,CFD-WF-037-016-A.jpg,1500,dash,O,z,1147,3,1,53182.200000047684,550263.399999857,7032,ATS,C,19
14,test,3,C,haborder.png,1,m,Tue Nov 12 2024 09:51:25 GMT-0600 (Central Standard Time),605578.1999998093,CFD-WF-013-009-HC.jpg,1000,solid,O,m,1092,12,1,55314.799999952316,550263.399999857,7032,ATS,C,20
15,test,3,C,mfborder.png,1,m,Tue Nov 12 2024 09:51:25 GMT-0600 (Central Standard Time),607811.0,CFD-WM-035-036-HC.jpg,1000,dash,O,m,1183,4,1,57547.60000014305,550263.399999857,7032,ATS,C,21
16,test,3,C,mfborder.png,1,z,Tue Nov 12 2024 09:51:25 GMT-0600 (Central Standard Time),610743.5,CFD-BF-042-031-HC.jpg,1700,dash,O,z,1187,1,1,60480.10000014305,550263.399999857,7032,ATS,C,22
16,test,3,C,haborder.png,0,z,Tue Nov 12 2024 09:51:25 GMT-0600 (Central Standard Time),613309.2999999523,CFD-WM-036-018-A.jpg,1400,solid,O,m,1122,7,1,63045.90000009537,550263.399999857,7032,ATS,C,23
17,test,3,C,mfborder.png,1,z,Tue Nov 12 2024 09:51:25 GMT-0600 (Central Standard Time),616225.0,CFD-WF-037-016-A.jpg,1500,dash,O,z,1350,3,1,65961.60000014305,550263.399999857,7032,ATS,C,24
0,test,4,C,haborder.png,0,z,Tue Nov 12 2024 09:51:25 GMT-0600 (Central Standard Time),622456.5999999046,CFD-BF-031-020-A.jpg,1400,solid,O,m,1403,7,1,2849.5,619607.0999999046,7032,ATS,C,1
0,test,4,C,haborder.png,0,m,Tue Nov 12 2024 09:51:25 GMT-0600 (Central Standard Time),625605.5999999046,CFD-BM-022-004-HC.jpg,1600,solid,O,None,1511,10,1,5998.5,619607.0999999046,7032,ATS,C,2
0,test,4,C,haborder.png,0,m,Tue Nov 12 2024 09:51:25 GMT-0600 (Central Standard Time),628154.399999857,CFD-WM-028-005-HC.jpg,1000,solid,O,None,1515,12,1,8547.299999952316,619607.0999999046,7032,ATS,C,3
1,test,4,C,mfborder.png,1,z,Tue Nov 12 2024 09:51:25 GMT-0600 (Central Standard Time),630720.2999999523,CFD-BF-019-004-HC.jpg,1500,dash,O,z,1020,3,1,11113.200000047684,619607.0999999046,7032,ATS,C,4
2,test,4,C,haborder.png,1,m,Tue Nov 12 2024 09:51:25 GMT-0600 (Central Standard Time),633435.899999857,CFD-WM-028-005-HC.jpg,1500,solid,O,m,1167,11,1,13828.799999952316,619607.0999999046,7032,ATS,C,5
3,test,4,C,mfborder.png,1,m,Tue Nov 12 2024 09:51:25 GMT-0600 (Central Standard Time),635901.5,CFD-WM-036-018-A.jpg,1200,dash,O,m,1230,6,1,16294.400000095367,619607.0999999046,7032,ATS,C,6
4,test,4,C,mfborder.png,1,z,Tue Nov 12 2024 09:51:25 GMT-0600 (Central Standard Time),638567.6999998093,CFD-WF-013-009-HC.jpg,1700,dash,O,z,929,1,1,18960.599999904633,619607.0999999046,7032,ATS,C,7
5,test,4,C,haborder.png,1,m,Tue Nov 12 2024 09:51:25 GMT-0600 (Central Standard Time),640700.5,CFD-WM-028-005-HC.jpg,1000,solid,O,m,1098,12,1,21093.400000095367,619607.0999999046,7032,ATS,C,8
6,test,4,C,haborder.png,1,z,Tue Nov 12 2024 09:51:25 GMT-0600 (Central Standard Time),643665.899999857,CFD-BF-002-018-A.jpg,1900,solid,O,z,1018,8,1,24058.799999952316,619607.0999999046,7032,ATS,C,9
7,test,4,C,mfborder.png,1,z,Tue Nov 12 2024 09:51:25 GMT-0600 (Central Standard Time),646231.7999999523,CFD-WF-023-013-A.jpg,1600,dash,O,z,925,2,1,26624.700000047684,619607.0999999046,7032,ATS,C,10
8,test,4,C,mfborder.png,1,m,Tue Nov 12 2024 09:51:25 GMT-0600 (Central Standard Time),649530.6999998093,CFD-BM-043-014-A.jpg,2000,dash,O,m,1259,5,1,29923.599999904633,619607.0999999046,7032,ATS,C,11
9,test,4,C,mfborder.png,1,z,Tue Nov 12 2024 09:51:25 GMT-0600 (Central Standard Time),652496.2999999523,CFD-BF-019-004-HC.jpg,1500,dash,O,z,1429,3,1,32889.200000047684,619607.0999999046,7032,ATS,C,12
10,test,4,C,haborder.png,1,z,Tue Nov 12 2024 09:51:25 GMT-0600 (Central Standard Time),655461.6999998093,CFD-WF-037-016-A.jpg,1700,solid,O,z,1222,9,1,35854.59999990463,619607.0999999046,7032,ATS,C,13
11,test,4,C,haborder.png,1,z,Tue Nov 12 2024 09:51:25 GMT-0600 (Central Standard Time),657894.5999999046,CFD-BF-031-020-A.jpg,1400,solid,O,z,1013,7,1,38287.5,619607.0999999046,7032,ATS,C,14
12,test,4,C,haborder.png,1,m,Tue Nov 12 2024 09:51:25 GMT-0600 (Central Standard Time),660627.1999998093,CFD-BM-022-004-HC.jpg,1600,solid,O,m,1084,10,1,41020.09999990463,619607.0999999046,7032,ATS,C,15
13,test,4,C,mfborder.png,1,m,Tue Nov 12 2024 09:51:25 GMT-0600 (Central Standard Time),662959.5999999046,CFD-BM-034-035-HC.jpg,1000,dash,O,m,1295,4,1,43352.5,619607.0999999046,7032,ATS,C,16
13,test,4,C,haborder.png,0,z,Tue Nov 12 2024 09:51:25 GMT-0600 (Central Standard Time),665958.5,CFD-WF-037-016-A.jpg,1700,solid,O,m,1255,9,1,46351.40000009537,619607.0999999046,7032,ATS,C,17
14,test,4,C,mfborder.png,1,z,Tue Nov 12 2024 09:51:25 GMT-0600 (Central Standard Time),668740.899999857,CFD-WF-013-009-HC.jpg,1700,dash,O,z,1040,1,1,49133.799999952316,619607.0999999046,7032,ATS,C,18
14,test,4,C,mfborder.png,0,m,Tue Nov 12 2024 09:51:25 GMT-0600 (Central Standard Time),671290.7999999523,CFD-BM-034-035-HC.jpg,1000,dash,O,None,1515,4,1,51683.700000047684,619607.0999999046,7032,ATS,C,19
15,test,4,C,haborder.png,1,m,Tue Nov 12 2024 09:51:25 GMT-0600 (Central Standard Time),674305.7999999523,CFD-WM-028-005-HC.jpg,1500,solid,O,m,1476,11,1,54698.700000047684,619607.0999999046,7032,ATS,C,20
16,test,4,C,mfborder.png,1,m,Tue Nov 12 2024 09:51:25 GMT-0600 (Central Standard Time),677654.6999998093,CFD-BM-043-014-A.jpg,2000,dash,O,m,1304,5,1,58047.59999990463,619607.0999999046,7032,ATS,C,21
17,test,4,C,mfborder.png,1,m,Tue Nov 12 2024 09:51:25 GMT-0600 (Central Standard Time),680204.0999999046,CFD-WM-036-018-A.jpg,1200,dash,O,m,1299,6,1,60597.0,619607.0999999046,7032,ATS,C,22
18,test,4,C,mfborder.png,1,z,Tue Nov 12 2024 09:51:25 GMT-0600 (Central Standard Time),682619.6999998093,CFD-WF-023-013-A.jpg,1600,dash,O,z,767,2,1,63012.59999990463,619607.0999999046,7032,ATS,C,23
18,test,4,C,haborder.png,0,z,Tue Nov 12 2024 09:51:25 GMT-0600 (Central Standard Time),686068.7999999523,CFD-BF-002-018-A.jpg,1900,solid,O,None,1516,8,1,66461.70000004768,619607.0999999046,7032,ATS,C,24
