acc_sum,block,block_c,change,condition,correct,correct_response,datetime,endtime,face,project,response,response_time,row_sel,session_number,start_end,starttime,subject_id,task,task_vers,trial
0,prac,1,,1-Back,,,Fri Oct 11 2024 11:40:11 GMT-0400 (Eastern Daylight Time),,124_o_f_d_a.png,I,space,14266,1,1,,,9002,VNB,A,0
1,prac,1,0.0,1-Back,1,m,Fri Oct 11 2024 11:40:11 GMT-0400 (Eastern Daylight Time),202936.10000002384,071_y_f_n_a.png,I,m,1369,2,1,2182.899999976158,200753.20000004768,9002,VNB,A,1
1,prac,1,0.0,1-Back,0,m,Fri Oct 11 2024 11:40:11 GMT-0400 (Eastern Daylight Time),205252.80000007153,165_m_m_h_a.png,I,z,1475,3,1,2302.0,202950.80000007153,9002,VNB,A,2
2,prac,1,0.0,1-Back,1,m,Fri Oct 11 2024 11:40:11 GMT-0400 (Eastern Daylight Time),207286.10000002384,109_y_m_d_a.png,I,m,1195,4,1,2016.6999999284744,205269.40000009537,9002,VNB,A,3
2,prac,1,0.0,1-Back,0,m,Fri Oct 11 2024 11:40:11 GMT-0400 (Eastern Daylight Time),209586.0,124_o_f_n_a.png,I,z,1417,5,1,2284.899999976158,207301.10000002384,9002,VNB,A,4
2,prac,1,1.0,1-Back,0,z,Fri Oct 11 2024 11:40:11 GMT-0400 (Eastern Daylight Time),211886.0,109_y_m_n_a.png,I,m,1454,6,1,2282.2999999523163,209603.70000004768,9002,VNB,A,5
2,prac,1,0.0,1-Back,0,m,Fri Oct 11 2024 11:40:11 GMT-0400 (Eastern Daylight Time),214719.30000007153,039_o_m_h_a.png,I,None,2008,7,1,2818.100000023842,211901.20000004768,9002,VNB,A,6
3,prac,1,0.0,1-Back,1,m,Fri Oct 11 2024 11:40:11 GMT-0400 (Eastern Daylight Time),216835.80000007153,139_m_f_d_a.png,I,m,1275,8,1,2100.7000000476837,214735.10000002384,9002,VNB,A,7
4,prac,1,1.0,1-Back,1,z,Fri Oct 11 2024 11:40:11 GMT-0400 (Eastern Daylight Time),218736.10000002384,071_y_f_d_a.png,I,z,1063,9,1,1884.8999999761581,216851.20000004768,9002,VNB,A,8
5,prac,1,0.0,1-Back,1,m,Fri Oct 11 2024 11:40:11 GMT-0400 (Eastern Daylight Time),220769.30000007153,165_m_m_n_a.png,I,m,1192,10,1,2018.0,218751.30000007153,9002,VNB,A,9
6,prac,1,0.0,1-Back,1,m,Fri Oct 11 2024 11:40:11 GMT-0400 (Eastern Daylight Time),222952.80000007153,124_o_f_h_a.png,I,m,1327,11,1,2167.399999976158,220785.40000009537,9002,VNB,A,10
6,prac,1,0.0,1-Back,0,m,Fri Oct 11 2024 11:40:11 GMT-0400 (Eastern Daylight Time),225352.60000002384,109_y_m_d_a.png,I,z,1615,12,1,2386.0,222966.60000002384,9002,VNB,A,11
0,prac,2,0.0,1-Back,,,Fri Oct 11 2024 11:40:11 GMT-0400 (Eastern Daylight Time),225352.60000002384,124_o_f_d_a.png,I,a,6779,1,1,2386.0,222966.60000002384,9002,VNB,A,0
0,prac,2,0.0,1-Back,0,m,Fri Oct 11 2024 11:40:11 GMT-0400 (Eastern Daylight Time),238019.40000009537,071_y_f_n_a.png,I,None,2004,2,1,2818.3000000715256,235201.10000002384,9002,VNB,A,1
0,prac,2,0.0,1-Back,0,m,Fri Oct 11 2024 11:40:11 GMT-0400 (Eastern Daylight Time),240135.40000009537,165_m_m_h_a.png,I,z,1288,3,1,2100.7000000476837,238034.70000004768,9002,VNB,A,2
1,prac,2,0.0,1-Back,1,m,Fri Oct 11 2024 11:40:11 GMT-0400 (Eastern Daylight Time),241885.20000004768,109_y_m_d_a.png,I,m,956,4,1,1732.2000000476837,240153.0,9002,VNB,A,3
1,prac,2,0.0,1-Back,0,m,Fri Oct 11 2024 11:40:11 GMT-0400 (Eastern Daylight Time),244002.30000007153,124_o_f_n_a.png,I,z,1219,5,1,2100.899999976158,241901.40000009537,9002,VNB,A,4
1,prac,2,1.0,1-Back,0,z,Fri Oct 11 2024 11:40:11 GMT-0400 (Eastern Daylight Time),246502.60000002384,109_y_m_n_a.png,I,m,1661,6,1,2482.6999999284744,244019.90000009537,9002,VNB,A,5
2,prac,2,0.0,1-Back,1,m,Fri Oct 11 2024 11:40:11 GMT-0400 (Eastern Daylight Time),248235.80000007153,039_o_m_h_a.png,I,m,898,7,1,1712.8000000715256,246523.0,9002,VNB,A,6
2,prac,2,0.0,1-Back,0,m,Fri Oct 11 2024 11:40:11 GMT-0400 (Eastern Daylight Time),250718.70000004768,139_m_f_d_a.png,I,z,1578,8,1,2464.0,248254.70000004768,9002,VNB,A,7
2,prac,2,1.0,1-Back,0,z,Fri Oct 11 2024 11:40:11 GMT-0400 (Eastern Daylight Time),252568.90000009537,071_y_f_d_a.png,I,m,1017,9,1,1835.7000000476837,250733.20000004768,9002,VNB,A,8
2,prac,2,0.0,1-Back,0,m,Fri Oct 11 2024 11:40:11 GMT-0400 (Eastern Daylight Time),255402.0,165_m_m_n_a.png,I,None,2007,10,1,2819.5999999046326,252582.40000009537,9002,VNB,A,9
3,prac,2,0.0,1-Back,1,m,Fri Oct 11 2024 11:40:11 GMT-0400 (Eastern Daylight Time),257436.0,124_o_f_h_a.png,I,m,1191,11,1,2022.2999999523163,255413.70000004768,9002,VNB,A,10
4,prac,2,0.0,1-Back,1,m,Fri Oct 11 2024 11:40:11 GMT-0400 (Eastern Daylight Time),259335.80000007153,109_y_m_d_a.png,I,m,1112,12,1,1883.7000000476837,257452.10000002384,9002,VNB,A,11
0,prac,3,0.0,1-Back,,,Fri Oct 11 2024 11:40:11 GMT-0400 (Eastern Daylight Time),259335.80000007153,124_o_f_d_a.png,I,a,14286,1,1,1883.7000000476837,257452.10000002384,9002,VNB,A,0
1,prac,3,0.0,1-Back,1,m,Fri Oct 11 2024 11:40:11 GMT-0400 (Eastern Daylight Time),278435.7000000477,071_y_f_n_a.png,I,m,925,2,1,1753.2000000476837,276682.5,9002,VNB,A,1
2,prac,3,0.0,1-Back,1,m,Fri Oct 11 2024 11:40:11 GMT-0400 (Eastern Daylight Time),280835.7000000477,165_m_m_h_a.png,I,m,1576,3,1,2387.2000000476837,278448.5,9002,VNB,A,2
3,prac,3,0.0,1-Back,1,m,Fri Oct 11 2024 11:40:11 GMT-0400 (Eastern Daylight Time),283019.8000000715,109_y_m_d_a.png,I,m,1412,4,1,2170.3000000715256,280849.5,9002,VNB,A,3
4,prac,3,0.0,1-Back,1,m,Fri Oct 11 2024 11:40:11 GMT-0400 (Eastern Daylight Time),285436.5,124_o_f_n_a.png,I,m,1539,5,1,2404.1999999284744,283032.3000000715,9002,VNB,A,4
5,prac,3,1.0,1-Back,1,z,Fri Oct 11 2024 11:40:11 GMT-0400 (Eastern Daylight Time),287085.7000000477,109_y_m_n_a.png,I,z,807,6,1,1636.2999999523163,285449.40000009537,9002,VNB,A,5
6,prac,3,0.0,1-Back,1,m,Fri Oct 11 2024 11:40:11 GMT-0400 (Eastern Daylight Time),289052.7000000477,039_o_m_h_a.png,I,m,1137,7,1,1955.2999999523163,287097.40000009537,9002,VNB,A,6
7,prac,3,0.0,1-Back,1,m,Fri Oct 11 2024 11:40:11 GMT-0400 (Eastern Daylight Time),291069.60000002384,139_m_f_d_a.png,I,m,1180,8,1,1999.2999999523163,289070.3000000715,9002,VNB,A,7
8,prac,3,1.0,1-Back,1,z,Fri Oct 11 2024 11:40:11 GMT-0400 (Eastern Daylight Time),292769.40000009537,071_y_f_d_a.png,I,z,863,9,1,1684.2000000476837,291085.2000000477,9002,VNB,A,8
9,prac,3,0.0,1-Back,1,m,Fri Oct 11 2024 11:40:11 GMT-0400 (Eastern Daylight Time),294536.10000002384,165_m_m_n_a.png,I,m,938,10,1,1751.6999999284744,292784.40000009537,9002,VNB,A,9
9,prac,3,0.0,1-Back,0,m,Fri Oct 11 2024 11:40:11 GMT-0400 (Eastern Daylight Time),296586.0,124_o_f_h_a.png,I,z,1194,11,1,2034.6999999284744,294551.3000000715,9002,VNB,A,10
9,prac,3,0.0,1-Back,0,m,Fri Oct 11 2024 11:40:11 GMT-0400 (Eastern Daylight Time),298736.0,109_y_m_d_a.png,I,z,1352,12,1,2130.0,296606.0,9002,VNB,A,11
0,test,1,0.0,1-Back,,,Fri Oct 11 2024 11:40:11 GMT-0400 (Eastern Daylight Time),298736.0,071_y_f_d_a.png,I,space,16622,1,1,2130.0,296606.0,9002,VNB,A,0
1,test,1,0.0,1-Back,1,m,Fri Oct 11 2024 11:40:11 GMT-0400 (Eastern Daylight Time),327419.40000009537,139_m_f_n_a.png,I,m,761,2,1,1768.4000000953674,325651.0,9002,VNB,A,1
2,test,1,0.0,1-Back,1,m,Fri Oct 11 2024 11:40:11 GMT-0400 (Eastern Daylight Time),329786.2000000477,039_o_m_h_a.png,I,m,1345,3,1,2353.0,327433.2000000477,9002,VNB,A,2
3,test,1,1.0,1-Back,1,z,Fri Oct 11 2024 11:40:11 GMT-0400 (Eastern Daylight Time),331886.10000002384,165_m_m_h_a.png,I,z,1075,4,1,2086.399999976158,329799.7000000477,9002,VNB,A,3
4,test,1,0.0,1-Back,1,m,Fri Oct 11 2024 11:40:11 GMT-0400 (Eastern Daylight Time),333703.0,124_o_f_n_a.png,I,m,783,5,1,1800.5,331902.5,9002,VNB,A,4
5,test,1,0.0,1-Back,1,m,Fri Oct 11 2024 11:40:11 GMT-0400 (Eastern Daylight Time),335919.2000000477,109_y_m_d_a.png,I,m,1190,6,1,2202.7000000476837,333716.5,9002,VNB,A,5
5,test,1,1.0,1-Back,0,z,Fri Oct 11 2024 11:40:11 GMT-0400 (Eastern Daylight Time),338402.7000000477,139_m_f_d_a.png,I,m,1453,7,1,2470.0,335932.7000000477,9002,VNB,A,6
6,test,1,0.0,1-Back,1,m,Fri Oct 11 2024 11:40:11 GMT-0400 (Eastern Daylight Time),340469.5,071_y_f_h_a.png,I,m,1034,8,1,2052.0,338417.5,9002,VNB,A,7
7,test,1,0.0,1-Back,1,m,Fri Oct 11 2024 11:40:11 GMT-0400 (Eastern Daylight Time),342702.8000000715,039_o_m_n_a.png,I,m,1208,9,1,2218.8000000715256,340484.0,9002,VNB,A,8
8,test,1,0.0,1-Back,1,m,Fri Oct 11 2024 11:40:11 GMT-0400 (Eastern Daylight Time),344669.40000009537,109_y_m_h_a.png,I,m,943,10,1,1952.8000000715256,342716.60000002384,9002,VNB,A,9
9,test,1,0.0,1-Back,1,m,Fri Oct 11 2024 11:40:11 GMT-0400 (Eastern Daylight Time),346736.10000002384,039_o_m_d_a.png,I,m,1039,11,1,2051.100000023842,344685.0,9002,VNB,A,10
10,test,1,1.0,1-Back,1,z,Fri Oct 11 2024 11:40:11 GMT-0400 (Eastern Daylight Time),348752.2000000477,124_o_f_d_a.png,I,z,990,12,1,2001.1000000238419,346751.10000002384,9002,VNB,A,11
11,test,1,0.0,1-Back,1,m,Fri Oct 11 2024 11:40:11 GMT-0400 (Eastern Daylight Time),350802.7000000477,165_m_m_n_a.png,I,m,1020,13,1,2039.2000000476837,348763.5,9002,VNB,A,12
12,test,1,1.0,1-Back,1,z,Fri Oct 11 2024 11:40:11 GMT-0400 (Eastern Daylight Time),352919.10000002384,071_y_f_n_a.png,I,z,1098,14,1,2103.0,350816.10000002384,9002,VNB,A,13
13,test,1,0.0,1-Back,1,m,Fri Oct 11 2024 11:40:11 GMT-0400 (Eastern Daylight Time),355086.10000002384,139_m_f_h_a.png,I,m,1142,15,1,2152.899999976158,352933.2000000477,9002,VNB,A,14
14,test,1,0.0,1-Back,1,m,Fri Oct 11 2024 11:40:11 GMT-0400 (Eastern Daylight Time),357019.40000009537,165_m_m_d_a.png,I,m,912,16,1,1918.9000000953674,355100.5,9002,VNB,A,15
15,test,1,0.0,1-Back,1,m,Fri Oct 11 2024 11:40:11 GMT-0400 (Eastern Daylight Time),359469.40000009537,109_y_m_n_a.png,I,m,1425,17,1,2436.2000000476837,357033.2000000477,9002,VNB,A,16
15,test,1,0.0,1-Back,0,m,Fri Oct 11 2024 11:40:11 GMT-0400 (Eastern Daylight Time),361735.8000000715,124_o_f_h_a.png,I,z,1231,18,1,2248.8000000715256,359487.0,9002,VNB,A,17
0,test,2,0.0,1-Back,,,Fri Oct 11 2024 11:40:11 GMT-0400 (Eastern Daylight Time),361735.8000000715,109_y_m_n_a.png,I,space,1933,1,1,2248.8000000715256,359487.0,9002,VNB,A,0
1,test,2,0.0,1-Back,1,m,Fri Oct 11 2024 11:40:11 GMT-0400 (Eastern Daylight Time),367852.90000009537,071_y_f_h_a.png,I,m,1127,2,1,2136.4000000953674,365716.5,9002,VNB,A,1
2,test,2,1.0,1-Back,1,m,Fri Oct 11 2024 11:40:11 GMT-0400 (Eastern Daylight Time),370802.7000000477,039_o_m_n_a.png,I,m,1920,3,1,2935.399999976158,367867.3000000715,9002,VNB,A,2
3,test,2,0.0,1-Back,1,m,Fri Oct 11 2024 11:40:11 GMT-0400 (Eastern Daylight Time),373036.10000002384,139_m_f_d_a.png,I,m,1210,4,1,2219.7999999523163,370816.3000000715,9002,VNB,A,3
4,test,2,0.0,1-Back,1,z,Fri Oct 11 2024 11:40:11 GMT-0400 (Eastern Daylight Time),374886.10000002384,165_m_m_d_a.png,I,z,816,5,1,1836.3999999761581,373049.7000000477,9002,VNB,A,4
5,test,2,0.0,1-Back,1,m,Fri Oct 11 2024 11:40:11 GMT-0400 (Eastern Daylight Time),377486.10000002384,109_y_m_h_a.png,I,m,1574,6,1,2586.5,374899.60000002384,9002,VNB,A,5
6,test,2,1.0,1-Back,1,z,Fri Oct 11 2024 11:40:11 GMT-0400 (Eastern Daylight Time),379702.90000009537,124_o_f_h_a.png,I,z,1184,7,1,2203.7000000476837,377499.2000000477,9002,VNB,A,6
7,test,2,0.0,1-Back,1,m,Fri Oct 11 2024 11:40:11 GMT-0400 (Eastern Daylight Time),381518.8000000715,139_m_f_n_a.png,I,m,790,8,1,1800.8000000715256,379718.0,9002,VNB,A,7
8,test,2,0.0,1-Back,1,m,Fri Oct 11 2024 11:40:11 GMT-0400 (Eastern Daylight Time),383802.8000000715,071_y_f_d_a.png,I,m,1261,9,1,2269.7000000476837,381533.10000002384,9002,VNB,A,8
9,test,2,0.0,1-Back,1,m,Fri Oct 11 2024 11:40:11 GMT-0400 (Eastern Daylight Time),386586.10000002384,165_m_m_n_a.png,I,m,1746,10,1,2767.5,383818.60000002384,9002,VNB,A,9
10,test,2,1.0,1-Back,1,m,Fri Oct 11 2024 11:40:11 GMT-0400 (Eastern Daylight Time),388719.3000000715,139_m_f_h_a.png,I,m,1107,11,1,2119.8000000715256,386599.5,9002,VNB,A,10
11,test,2,0.0,1-Back,1,z,Fri Oct 11 2024 11:40:11 GMT-0400 (Eastern Daylight Time),390436.10000002384,039_o_m_h_a.png,I,z,686,12,1,1702.3999999761581,388733.7000000477,9002,VNB,A,11
12,test,2,0.0,1-Back,1,m,Fri Oct 11 2024 11:40:11 GMT-0400 (Eastern Daylight Time),392536.0,109_y_m_d_a.png,I,m,1082,13,1,2085.0999999046326,390450.90000009537,9002,VNB,A,12
13,test,2,0.0,1-Back,1,m,Fri Oct 11 2024 11:40:11 GMT-0400 (Eastern Daylight Time),395219.40000009537,124_o_f_n_a.png,I,m,1653,14,1,2667.600000023842,392551.8000000715,9002,VNB,A,13
14,test,2,0.0,1-Back,1,z,Fri Oct 11 2024 11:40:11 GMT-0400 (Eastern Daylight Time),397502.8000000715,071_y_f_n_a.png,I,z,1259,15,1,2270.600000023842,395232.2000000477,9002,VNB,A,14
15,test,2,1.0,1-Back,1,m,Fri Oct 11 2024 11:40:11 GMT-0400 (Eastern Daylight Time),399936.10000002384,165_m_m_h_a.png,I,m,1406,16,1,2419.5,397516.60000002384,9002,VNB,A,15
16,test,2,0.0,1-Back,1,m,Fri Oct 11 2024 11:40:11 GMT-0400 (Eastern Daylight Time),402019.3000000715,124_o_f_d_a.png,I,m,1054,17,1,2069.0,399950.3000000715,9002,VNB,A,16
17,test,2,1.0,1-Back,1,z,Fri Oct 11 2024 11:40:11 GMT-0400 (Eastern Daylight Time),404603.0,039_o_m_d_a.png,I,z,1545,18,1,2567.6999999284744,402035.3000000715,9002,VNB,A,17
0,test,3,1.0,1-Back,,,Fri Oct 11 2024 11:40:11 GMT-0400 (Eastern Daylight Time),404603.0,124_o_f_h_a.png,I,space,2282,1,1,2567.6999999284744,402035.3000000715,9002,VNB,A,0
1,test,3,0.0,1-Back,1,m,Fri Oct 11 2024 11:40:11 GMT-0400 (Eastern Daylight Time),410952.8000000715,139_m_f_d_a.png,I,m,948,2,1,1953.0,408999.8000000715,9002,VNB,A,1
2,test,3,1.0,1-Back,1,m,Fri Oct 11 2024 11:40:11 GMT-0400 (Eastern Daylight Time),413369.40000009537,165_m_m_n_a.png,I,m,1397,3,1,2402.8000000715256,410966.60000002384,9002,VNB,A,2
3,test,3,0.0,1-Back,1,z,Fri Oct 11 2024 11:40:11 GMT-0400 (Eastern Daylight Time),415286.2000000477,124_o_f_n_a.png,I,z,883,4,1,1901.1000000238419,413385.10000002384,9002,VNB,A,3
4,test,3,1.0,1-Back,1,m,Fri Oct 11 2024 11:40:11 GMT-0400 (Eastern Daylight Time),417219.60000002384,039_o_m_d_a.png,I,m,904,5,1,1919.0,415300.60000002384,9002,VNB,A,4
5,test,3,0.0,1-Back,1,m,Fri Oct 11 2024 11:40:11 GMT-0400 (Eastern Daylight Time),419469.40000009537,071_y_f_h_a.png,I,m,1226,6,1,2235.7000000476837,417233.7000000477,9002,VNB,A,5
6,test,3,0.0,1-Back,1,z,Fri Oct 11 2024 11:40:11 GMT-0400 (Eastern Daylight Time),421303.0,109_y_m_h_a.png,I,z,816,7,1,1819.3999999761581,419483.60000002384,9002,VNB,A,6
7,test,3,0.0,1-Back,1,m,Fri Oct 11 2024 11:40:11 GMT-0400 (Eastern Daylight Time),423402.7000000477,139_m_f_n_a.png,I,m,1062,8,1,2084.100000023842,421318.60000002384,9002,VNB,A,7
8,test,3,0.0,1-Back,1,m,Fri Oct 11 2024 11:40:11 GMT-0400 (Eastern Daylight Time),425686.0,071_y_f_d_a.png,I,m,1250,9,1,2270.0999999046326,423415.90000009537,9002,VNB,A,8
9,test,3,1.0,1-Back,1,m,Fri Oct 11 2024 11:40:11 GMT-0400 (Eastern Daylight Time),427802.90000009537,039_o_m_n_a.png,I,m,1096,10,1,2103.3000000715256,425699.60000002384,9002,VNB,A,9
9,test,3,0.0,1-Back,0,m,Fri Oct 11 2024 11:40:11 GMT-0400 (Eastern Daylight Time),430069.5,165_m_m_h_a.png,I,z,1234,11,1,2253.1999999284744,427816.3000000715,9002,VNB,A,10
10,test,3,0.0,1-Back,1,z,Fri Oct 11 2024 11:40:11 GMT-0400 (Eastern Daylight Time),431852.8000000715,139_m_f_h_a.png,I,z,760,12,1,1768.5,430084.3000000715,9002,VNB,A,11
11,test,3,1.0,1-Back,1,m,Fri Oct 11 2024 11:40:11 GMT-0400 (Eastern Daylight Time),433636.0,124_o_f_d_a.png,I,m,753,13,1,1769.8999999761581,431866.10000002384,9002,VNB,A,12
12,test,3,0.0,1-Back,1,z,Fri Oct 11 2024 11:40:11 GMT-0400 (Eastern Daylight Time),435819.3000000715,165_m_m_d_a.png,I,z,1162,14,1,2167.8000000715256,433651.5,9002,VNB,A,13
13,test,3,0.0,1-Back,1,m,Fri Oct 11 2024 11:40:11 GMT-0400 (Eastern Daylight Time),438169.5,109_y_m_n_a.png,I,m,1330,15,1,2335.5999999046326,435833.90000009537,9002,VNB,A,14
14,test,3,1.0,1-Back,1,m,Fri Oct 11 2024 11:40:11 GMT-0400 (Eastern Daylight Time),440602.8000000715,039_o_m_h_a.png,I,m,1395,16,1,2417.2000000476837,438185.60000002384,9002,VNB,A,15
15,test,3,0.0,1-Back,1,m,Fri Oct 11 2024 11:40:11 GMT-0400 (Eastern Daylight Time),442619.40000009537,109_y_m_d_a.png,I,m,995,17,1,2001.9000000953674,440617.5,9002,VNB,A,16
16,test,3,1.0,1-Back,1,m,Fri Oct 11 2024 11:40:11 GMT-0400 (Eastern Daylight Time),444786.0,071_y_f_n_a.png,I,m,1138,18,1,2152.5999999046326,442633.40000009537,9002,VNB,A,17
0,test,4,1.0,1-Back,,,Fri Oct 11 2024 11:40:11 GMT-0400 (Eastern Daylight Time),444786.0,165_m_m_d_a.png,I,space,1683,1,1,2152.5999999046326,442633.40000009537,9002,VNB,A,0
1,test,4,0.0,1-Back,1,z,Fri Oct 11 2024 11:40:11 GMT-0400 (Eastern Daylight Time),450819.60000002384,039_o_m_d_a.png,I,z,1237,2,1,2253.100000023842,448566.5,9002,VNB,A,1
2,test,4,0.0,1-Back,1,m,Fri Oct 11 2024 11:40:11 GMT-0400 (Eastern Daylight Time),452854.0,109_y_m_h_a.png,I,m,985,3,1,2018.0,450836.0,9002,VNB,A,2
3,test,4,0.0,1-Back,1,m,Fri Oct 11 2024 11:40:11 GMT-0400 (Eastern Daylight Time),455152.60000002384,139_m_f_n_a.png,I,m,1273,4,1,2284.7999999523163,452867.8000000715,9002,VNB,A,3
4,test,4,1.0,1-Back,1,m,Fri Oct 11 2024 11:40:11 GMT-0400 (Eastern Daylight Time),457719.10000002384,124_o_f_h_a.png,I,m,1549,5,1,2552.399999976158,455166.7000000477,9002,VNB,A,4
5,test,4,0.0,1-Back,1,m,Fri Oct 11 2024 11:40:11 GMT-0400 (Eastern Daylight Time),460319.3000000715,165_m_m_n_a.png,I,m,1574,6,1,2586.3000000715256,457733.0,9002,VNB,A,5
6,test,4,0.0,1-Back,1,m,Fri Oct 11 2024 11:40:11 GMT-0400 (Eastern Daylight Time),462552.8000000715,109_y_m_d_a.png,I,m,1214,7,1,2218.600000023842,460334.2000000477,9002,VNB,A,6
7,test,4,1.0,1-Back,1,z,Fri Oct 11 2024 11:40:11 GMT-0400 (Eastern Daylight Time),464503.3000000715,071_y_f_d_a.png,I,z,933,8,1,1936.7000000476837,462566.60000002384,9002,VNB,A,7
8,test,4,0.0,1-Back,1,m,Fri Oct 11 2024 11:40:11 GMT-0400 (Eastern Daylight Time),466636.2000000477,139_m_f_h_a.png,I,m,1111,9,1,2121.0,464515.2000000477,9002,VNB,A,8
9,test,4,0.0,1-Back,1,z,Fri Oct 11 2024 11:40:11 GMT-0400 (Eastern Daylight Time),468502.8000000715,039_o_m_h_a.png,I,z,817,10,1,1851.3000000715256,466651.5,9002,VNB,A,9
10,test,4,1.0,1-Back,1,m,Fri Oct 11 2024 11:40:11 GMT-0400 (Eastern Daylight Time),470686.2000000477,124_o_f_n_a.png,I,m,1159,11,1,2170.600000023842,468515.60000002384,9002,VNB,A,10
11,test,4,0.0,1-Back,1,m,Fri Oct 11 2024 11:40:11 GMT-0400 (Eastern Daylight Time),473002.7000000477,139_m_f_d_a.png,I,m,1296,12,1,2302.0,470700.7000000477,9002,VNB,A,11
12,test,4,0.0,1-Back,1,m,Fri Oct 11 2024 11:40:11 GMT-0400 (Eastern Daylight Time),475469.5,071_y_f_n_a.png,I,m,1443,13,1,2452.2999999523163,473017.2000000477,9002,VNB,A,12
13,test,4,0.0,1-Back,1,m,Fri Oct 11 2024 11:40:11 GMT-0400 (Eastern Daylight Time),477486.10000002384,124_o_f_d_a.png,I,m,992,14,1,2002.7999999523163,475483.3000000715,9002,VNB,A,13
14,test,4,0.0,1-Back,1,m,Fri Oct 11 2024 11:40:11 GMT-0400 (Eastern Daylight Time),479669.40000009537,071_y_f_h_a.png,I,m,1151,15,1,2169.5,477499.90000009537,9002,VNB,A,14
15,test,4,1.0,1-Back,1,z,Fri Oct 11 2024 11:40:11 GMT-0400 (Eastern Daylight Time),481486.10000002384,165_m_m_h_a.png,I,z,791,16,1,1802.8999999761581,479683.2000000477,9002,VNB,A,15
16,test,4,0.0,1-Back,1,m,Fri Oct 11 2024 11:40:11 GMT-0400 (Eastern Daylight Time),483452.8000000715,039_o_m_n_a.png,I,m,944,17,1,1953.6000000238419,481499.2000000477,9002,VNB,A,16
17,test,4,1.0,1-Back,1,z,Fri Oct 11 2024 11:40:11 GMT-0400 (Eastern Daylight Time),485652.8000000715,109_y_m_n_a.png,I,z,1152,18,1,2182.899999976158,483469.90000009537,9002,VNB,A,17
0,test,5,1.0,1-Back,,,Fri Oct 11 2024 11:40:11 GMT-0400 (Eastern Daylight Time),485652.8000000715,039_o_m_n_a.png,I,space,1441,1,1,2182.899999976158,483469.90000009537,9002,VNB,A,0
1,test,5,1.0,1-Back,1,m,Fri Oct 11 2024 11:40:11 GMT-0400 (Eastern Daylight Time),491486.3000000715,124_o_f_h_a.png,I,m,1342,2,1,2353.7000000476837,489132.60000002384,9002,VNB,A,1
2,test,5,0.0,1-Back,1,m,Fri Oct 11 2024 11:40:11 GMT-0400 (Eastern Daylight Time),493836.10000002384,109_y_m_d_a.png,I,m,1328,3,1,2335.899999976158,491500.2000000477,9002,VNB,A,2
3,test,5,0.0,1-Back,1,z,Fri Oct 11 2024 11:40:11 GMT-0400 (Eastern Daylight Time),496219.40000009537,039_o_m_d_a.png,I,z,1362,4,1,2369.3000000715256,493850.10000002384,9002,VNB,A,3
4,test,5,0.0,1-Back,1,m,Fri Oct 11 2024 11:40:11 GMT-0400 (Eastern Daylight Time),498386.40000009537,139_m_f_h_a.png,I,m,1122,5,1,2151.2000000476837,496235.2000000477,9002,VNB,A,4
5,test,5,0.0,1-Back,1,m,Fri Oct 11 2024 11:40:11 GMT-0400 (Eastern Daylight Time),500769.5,071_y_f_n_a.png,I,m,1356,6,1,2369.5,498400.0,9002,VNB,A,5
5,test,5,1.0,1-Back,0,z,Fri Oct 11 2024 11:40:11 GMT-0400 (Eastern Daylight Time),503769.40000009537,124_o_f_n_a.png,I,m,1964,7,1,2984.0,500785.40000009537,9002,VNB,A,6
6,test,5,0.0,1-Back,1,m,Fri Oct 11 2024 11:40:11 GMT-0400 (Eastern Daylight Time),506202.90000009537,139_m_f_d_a.png,I,m,1412,8,1,2418.3000000715256,503784.60000002384,9002,VNB,A,7
7,test,5,0.0,1-Back,1,m,Fri Oct 11 2024 11:40:11 GMT-0400 (Eastern Daylight Time),508469.60000002384,109_y_m_h_a.png,I,m,1217,9,1,2250.5,506219.10000002384,9002,VNB,A,8
8,test,5,0.0,1-Back,1,m,Fri Oct 11 2024 11:40:11 GMT-0400 (Eastern Daylight Time),510419.5,071_y_f_d_a.png,I,m,920,10,1,1934.8999999761581,508484.60000002384,9002,VNB,A,9
8,test,5,0.0,1-Back,0,m,Fri Oct 11 2024 11:40:11 GMT-0400 (Eastern Daylight Time),512852.60000002384,165_m_m_n_a.png,I,z,1385,11,1,2417.2999999523163,510435.3000000715,9002,VNB,A,10
9,test,5,1.0,1-Back,1,z,Fri Oct 11 2024 11:40:11 GMT-0400 (Eastern Daylight Time),515452.8000000715,139_m_f_n_a.png,I,z,1577,12,1,2584.600000023842,512868.2000000477,9002,VNB,A,11
10,test,5,0.0,1-Back,1,m,Fri Oct 11 2024 11:40:11 GMT-0400 (Eastern Daylight Time),517519.5,039_o_m_h_a.png,I,m,1041,13,1,2053.5,515466.0,9002,VNB,A,12
11,test,5,0.0,1-Back,1,z,Fri Oct 11 2024 11:40:11 GMT-0400 (Eastern Daylight Time),519586.10000002384,165_m_m_h_a.png,I,z,1039,14,1,2053.5,517532.60000002384,9002,VNB,A,13
12,test,5,1.0,1-Back,1,m,Fri Oct 11 2024 11:40:11 GMT-0400 (Eastern Daylight Time),521786.2000000477,124_o_f_d_a.png,I,m,1180,15,1,2186.5,519599.7000000477,9002,VNB,A,14
13,test,5,0.0,1-Back,1,m,Fri Oct 11 2024 11:40:11 GMT-0400 (Eastern Daylight Time),524002.7000000477,109_y_m_n_a.png,I,m,1186,16,1,2203.0,521799.7000000477,9002,VNB,A,15
14,test,5,0.0,1-Back,1,m,Fri Oct 11 2024 11:40:11 GMT-0400 (Eastern Daylight Time),526436.3000000715,071_y_f_h_a.png,I,m,1403,17,1,2419.3000000715256,524017.0,9002,VNB,A,16
15,test,5,0.0,1-Back,1,m,Fri Oct 11 2024 11:40:11 GMT-0400 (Eastern Daylight Time),528686.3000000715,165_m_m_d_a.png,I,m,1226,18,1,2235.7000000476837,526450.6000000238,9002,VNB,A,17
0,prac,1,0.0,2-Back,,,Fri Oct 11 2024 11:40:11 GMT-0400 (Eastern Daylight Time),528686.3000000715,139_m_f_n_a.png,I,space,6086,1,1,2235.7000000476837,526450.6000000238,9002,VNB,A,0
0,prac,1,0.0,2-Back,,,Fri Oct 11 2024 11:40:11 GMT-0400 (Eastern Daylight Time),528686.3000000715,124_o_f_h_a.png,I,space,6086,2,1,2235.7000000476837,526450.6000000238,9002,VNB,A,0
1,prac,1,0.0,2-Back,1,m,Fri Oct 11 2024 11:40:11 GMT-0400 (Eastern Daylight Time),655186.7000000477,039_o_m_d_a.png,I,m,1179,3,1,2000.5,653186.2000000477,9002,VNB,A,1
2,prac,1,1.0,2-Back,1,z,Fri Oct 11 2024 11:40:11 GMT-0400 (Eastern Daylight Time),656886.4000000954,165_m_m_h_a.png,I,z,869,4,1,1681.9000000953674,655204.5,9002,VNB,A,2
2,prac,1,0.0,2-Back,0,m,Fri Oct 11 2024 11:40:11 GMT-0400 (Eastern Daylight Time),659719.1000000238,071_y_f_n_a.png,I,None,2002,5,1,2812.0,656907.1000000238,9002,VNB,A,3
3,prac,1,1.0,2-Back,1,z,Fri Oct 11 2024 11:40:11 GMT-0400 (Eastern Daylight Time),662069.7000000477,039_o_m_h_a.png,I,z,1524,6,1,2335.5,659734.2000000477,9002,VNB,A,4
3,prac,1,1.0,2-Back,0,z,Fri Oct 11 2024 11:40:11 GMT-0400 (Eastern Daylight Time),663903.1000000238,109_y_m_n_a.png,I,m,986,7,1,1818.1999999284744,662084.9000000954,9002,VNB,A,5
4,prac,1,0.0,2-Back,1,m,Fri Oct 11 2024 11:40:11 GMT-0400 (Eastern Daylight Time),666086.6000000238,139_m_f_d_a.png,I,m,1357,8,1,2167.899999976158,663918.7000000477,9002,VNB,A,6
5,prac,1,0.0,2-Back,1,m,Fri Oct 11 2024 11:40:11 GMT-0400 (Eastern Daylight Time),668336.3000000715,124_o_f_d_a.png,I,m,1369,9,1,2235.0,666101.3000000715,9002,VNB,A,7
5,prac,1,0.0,2-Back,0,m,Fri Oct 11 2024 11:40:11 GMT-0400 (Eastern Daylight Time),669853.2000000477,165_m_m_h_a.png,I,z,726,10,1,1501.2999999523163,668351.9000000954,9002,VNB,A,8
5,prac,1,1.0,2-Back,0,z,Fri Oct 11 2024 11:40:11 GMT-0400 (Eastern Daylight Time),672369.7000000477,071_y_f_d_a.png,I,m,1680,11,1,2500.0,669869.7000000477,9002,VNB,A,9
6,prac,1,0.0,2-Back,1,m,Fri Oct 11 2024 11:40:11 GMT-0400 (Eastern Daylight Time),675036.4000000954,039_o_m_n_a.png,I,m,1837,12,1,2651.5,672384.9000000954,9002,VNB,A,10
0,prac,2,0.0,2-Back,,,Fri Oct 11 2024 11:40:11 GMT-0400 (Eastern Daylight Time),675036.4000000954,139_m_f_n_a.png,I,a,10301,1,1,2651.5,672384.9000000954,9002,VNB,A,0
0,prac,2,0.0,2-Back,,,Fri Oct 11 2024 11:40:11 GMT-0400 (Eastern Daylight Time),675036.4000000954,124_o_f_h_a.png,I,a,10301,2,1,2651.5,672384.9000000954,9002,VNB,A,0
1,prac,2,0.0,2-Back,1,m,Fri Oct 11 2024 11:40:11 GMT-0400 (Eastern Daylight Time),692419.8000000715,039_o_m_d_a.png,I,m,1060,3,1,1884.1000000238419,690535.7000000477,9002,VNB,A,1
2,prac,2,1.0,2-Back,1,z,Fri Oct 11 2024 11:40:11 GMT-0400 (Eastern Daylight Time),694869.8000000715,165_m_m_h_a.png,I,z,1651,4,1,2434.0,692435.8000000715,9002,VNB,A,2
3,prac,2,0.0,2-Back,1,m,Fri Oct 11 2024 11:40:11 GMT-0400 (Eastern Daylight Time),697353.3000000715,071_y_f_n_a.png,I,m,1654,5,1,2468.600000023842,694884.7000000477,9002,VNB,A,3
4,prac,2,1.0,2-Back,1,z,Fri Oct 11 2024 11:40:11 GMT-0400 (Eastern Daylight Time),699720.0,039_o_m_h_a.png,I,z,1538,6,1,2351.0,697369.0,9002,VNB,A,4
5,prac,2,1.0,2-Back,1,z,Fri Oct 11 2024 11:40:11 GMT-0400 (Eastern Daylight Time),701919.6000000238,109_y_m_n_a.png,I,z,1355,7,1,2184.5,699735.1000000238,9002,VNB,A,5
6,prac,2,0.0,2-Back,1,m,Fri Oct 11 2024 11:40:11 GMT-0400 (Eastern Daylight Time),703569.9000000954,139_m_f_d_a.png,I,m,814,8,1,1636.1000000238419,701933.8000000715,9002,VNB,A,6
7,prac,2,0.0,2-Back,1,m,Fri Oct 11 2024 11:40:11 GMT-0400 (Eastern Daylight Time),705669.8000000715,124_o_f_d_a.png,I,m,1227,9,1,2085.0,703584.8000000715,9002,VNB,A,7
7,prac,2,0.0,2-Back,0,m,Fri Oct 11 2024 11:40:11 GMT-0400 (Eastern Daylight Time),707519.8000000715,165_m_m_h_a.png,I,z,1012,10,1,1831.8999999761581,705687.9000000954,9002,VNB,A,8
7,prac,2,1.0,2-Back,0,z,Fri Oct 11 2024 11:40:11 GMT-0400 (Eastern Daylight Time),709553.0,071_y_f_d_a.png,I,m,1196,11,1,2014.5999999046326,707538.4000000954,9002,VNB,A,9
7,prac,2,0.0,2-Back,0,m,Fri Oct 11 2024 11:40:11 GMT-0400 (Eastern Daylight Time),711536.3000000715,039_o_m_n_a.png,I,z,1131,12,1,1966.0,709570.3000000715,9002,VNB,A,10
0,test,1,0.0,2-Back,,,Fri Oct 11 2024 11:40:11 GMT-0400 (Eastern Daylight Time),711536.3000000715,109_y_m_h_a.png,I,space,9091,1,1,1966.0,709570.3000000715,9002,VNB,A,0
0,test,1,0.0,2-Back,,,Fri Oct 11 2024 11:40:11 GMT-0400 (Eastern Daylight Time),711536.3000000715,124_o_f_n_a.png,I,space,9091,2,1,1966.0,709570.3000000715,9002,VNB,A,0
1,test,1,0.0,2-Back,1,z,Fri Oct 11 2024 11:40:11 GMT-0400 (Eastern Daylight Time),734753.4000000954,039_o_m_h_a.png,I,z,989,3,1,2017.2000000476837,732736.2000000477,9002,VNB,A,1
2,test,1,0.0,2-Back,1,m,Fri Oct 11 2024 11:40:11 GMT-0400 (Eastern Daylight Time),737053.3000000715,139_m_f_d_a.png,I,m,1277,4,1,2285.5,734767.8000000715,9002,VNB,A,2
2,test,1,1.0,2-Back,0,m,Fri Oct 11 2024 11:40:11 GMT-0400 (Eastern Daylight Time),739319.8000000715,109_y_m_n_a.png,I,z,1233,5,1,2249.600000023842,737070.2000000477,9002,VNB,A,3
2,test,1,0.0,2-Back,0,z,Fri Oct 11 2024 11:40:11 GMT-0400 (Eastern Daylight Time),741936.3000000715,071_y_f_d_a.png,I,m,1573,6,1,2598.5,739337.8000000715,9002,VNB,A,4
2,test,1,0.0,2-Back,0,m,Fri Oct 11 2024 11:40:11 GMT-0400 (Eastern Daylight Time),744336.5,165_m_m_h_a.png,I,z,1373,7,1,2386.0999999046326,741950.4000000954,9002,VNB,A,5
3,test,1,1.0,2-Back,1,m,Fri Oct 11 2024 11:40:11 GMT-0400 (Eastern Daylight Time),746803.3000000715,071_y_f_n_a.png,I,m,1437,8,1,2452.2000000476837,744351.1000000238,9002,VNB,A,6
4,test,1,0.0,2-Back,1,z,Fri Oct 11 2024 11:40:11 GMT-0400 (Eastern Daylight Time),749269.6000000238,124_o_f_h_a.png,I,z,1418,9,1,2447.7999999523163,746821.8000000715,9002,VNB,A,7
5,test,1,0.0,2-Back,1,m,Fri Oct 11 2024 11:40:11 GMT-0400 (Eastern Daylight Time),751503.0,039_o_m_d_a.png,I,m,1208,10,1,2219.899999976158,749283.1000000238,9002,VNB,A,8
6,test,1,1.0,2-Back,1,m,Fri Oct 11 2024 11:40:11 GMT-0400 (Eastern Daylight Time),754502.4000000954,165_m_m_d_a.png,I,m,1982,11,1,2985.3000000715256,751517.1000000238,9002,VNB,A,9
7,test,1,0.0,2-Back,1,m,Fri Oct 11 2024 11:40:11 GMT-0400 (Eastern Daylight Time),756769.7000000477,139_m_f_n_a.png,I,m,1239,12,1,2254.7000000476837,754515.0,9002,VNB,A,10
8,test,1,0.0,2-Back,1,m,Fri Oct 11 2024 11:40:11 GMT-0400 (Eastern Daylight Time),759536.5,071_y_f_h_a.png,I,m,1740,13,1,2752.2999999523163,756784.2000000477,9002,VNB,A,11
9,test,1,0.0,2-Back,1,z,Fri Oct 11 2024 11:40:11 GMT-0400 (Eastern Daylight Time),762169.7000000477,165_m_m_n_a.png,I,z,1597,14,1,2611.7000000476837,759558.0,9002,VNB,A,12
10,test,1,0.0,2-Back,1,m,Fri Oct 11 2024 11:40:11 GMT-0400 (Eastern Daylight Time),764719.6000000238,109_y_m_d_a.png,I,m,1524,15,1,2535.7999999523163,762183.8000000715,9002,VNB,A,13
11,test,1,1.0,2-Back,1,m,Fri Oct 11 2024 11:40:11 GMT-0400 (Eastern Daylight Time),766886.7000000477,139_m_f_h_a.png,I,m,1134,16,1,2152.7000000476837,764734.0,9002,VNB,A,14
12,test,1,0.0,2-Back,1,z,Fri Oct 11 2024 11:40:11 GMT-0400 (Eastern Daylight Time),769469.7000000477,124_o_f_d_a.png,I,z,1559,17,1,2569.600000023842,766900.1000000238,9002,VNB,A,15
13,test,1,0.0,2-Back,1,m,Fri Oct 11 2024 11:40:11 GMT-0400 (Eastern Daylight Time),772236.6000000238,039_o_m_n_a.png,I,m,1744,18,1,2752.6999999284744,769483.9000000954,9002,VNB,A,16
0,test,2,0.0,2-Back,,,Fri Oct 11 2024 11:40:11 GMT-0400 (Eastern Daylight Time),772236.6000000238,165_m_m_h_a.png,I,space,1793,1,1,2752.6999999284744,769483.9000000954,9002,VNB,A,0
0,test,2,0.0,2-Back,,,Fri Oct 11 2024 11:40:11 GMT-0400 (Eastern Daylight Time),772236.6000000238,071_y_f_n_a.png,I,space,1793,2,1,2752.6999999284744,769483.9000000954,9002,VNB,A,0
1,test,2,1.0,2-Back,1,z,Fri Oct 11 2024 11:40:11 GMT-0400 (Eastern Daylight Time),781186.3000000715,124_o_f_h_a.png,I,z,971,3,1,2001.0,779185.3000000715,9002,VNB,A,1
2,test,2,0.0,2-Back,1,m,Fri Oct 11 2024 11:40:11 GMT-0400 (Eastern Daylight Time),783669.8000000715,039_o_m_d_a.png,I,m,1451,4,1,2469.899999976158,781199.9000000954,9002,VNB,A,2
3,test,2,0.0,2-Back,1,m,Fri Oct 11 2024 11:40:11 GMT-0400 (Eastern Daylight Time),786603.2000000477,139_m_f_d_a.png,I,m,1912,5,1,2919.2000000476837,783684.0,9002,VNB,A,3
3,test,2,0.0,2-Back,0,m,Fri Oct 11 2024 11:40:11 GMT-0400 (Eastern Daylight Time),789219.6000000238,109_y_m_h_a.png,I,z,1587,6,1,2601.7999999523163,786617.8000000715,9002,VNB,A,4
3,test,2,0.0,2-Back,0,m,Fri Oct 11 2024 11:40:11 GMT-0400 (Eastern Daylight Time),792219.6000000238,124_o_f_n_a.png,I,z,1977,7,1,2986.399999976158,789233.2000000477,9002,VNB,A,5
4,test,2,1.0,2-Back,1,z,Fri Oct 11 2024 11:40:11 GMT-0400 (Eastern Daylight Time),794769.9000000954,039_o_m_h_a.png,I,z,1522,8,1,2536.7000000476837,792233.2000000477,9002,VNB,A,6
5,test,2,0.0,2-Back,1,m,Fri Oct 11 2024 11:40:11 GMT-0400 (Eastern Daylight Time),797219.6000000238,071_y_f_d_a.png,I,m,1420,9,1,2435.7999999523163,794783.8000000715,9002,VNB,A,7
6,test,2,0.0,2-Back,1,m,Fri Oct 11 2024 11:40:11 GMT-0400 (Eastern Daylight Time),799969.8000000715,109_y_m_d_a.png,I,m,1722,10,1,2735.8000000715256,797234.0,9002,VNB,A,8
7,test,2,0.0,2-Back,1,m,Fri Oct 11 2024 11:40:11 GMT-0400 (Eastern Daylight Time),802286.5,165_m_m_n_a.png,I,m,1275,11,1,2300.7999999523163,799985.7000000477,9002,VNB,A,9
8,test,2,0.0,2-Back,1,m,Fri Oct 11 2024 11:40:11 GMT-0400 (Eastern Daylight Time),804302.9000000954,139_m_f_h_a.png,I,m,975,12,1,1998.6000000238419,802304.3000000715,9002,VNB,A,10
9,test,2,1.0,2-Back,1,z,Fri Oct 11 2024 11:40:11 GMT-0400 (Eastern Daylight Time),806303.0,039_o_m_n_a.png,I,z,975,13,1,1985.3999999761581,804317.6000000238,9002,VNB,A,11
10,test,2,0.0,2-Back,1,m,Fri Oct 11 2024 11:40:11 GMT-0400 (Eastern Daylight Time),808436.5,124_o_f_d_a.png,I,m,1103,14,1,2119.5,806317.0,9002,VNB,A,12
11,test,2,0.0,2-Back,1,m,Fri Oct 11 2024 11:40:11 GMT-0400 (Eastern Daylight Time),811353.1000000238,071_y_f_h_a.png,I,m,1897,15,1,2901.600000023842,808451.5,9002,VNB,A,13
11,test,2,0.0,2-Back,0,z,Fri Oct 11 2024 11:40:11 GMT-0400 (Eastern Daylight Time),813619.9000000954,165_m_m_d_a.png,I,m,1237,16,1,2251.9000000953674,811368.0,9002,VNB,A,14
12,test,2,0.0,2-Back,1,m,Fri Oct 11 2024 11:40:11 GMT-0400 (Eastern Daylight Time),815586.3000000715,109_y_m_n_a.png,I,m,920,17,1,1951.0,813635.3000000715,9002,VNB,A,15
12,test,2,1.0,2-Back,0,m,Fri Oct 11 2024 11:40:11 GMT-0400 (Eastern Daylight Time),818520.1000000238,139_m_f_n_a.png,I,z,1899,18,1,2920.6999999284744,815599.4000000954,9002,VNB,A,16
0,test,3,1.0,2-Back,,,Fri Oct 11 2024 11:40:11 GMT-0400 (Eastern Daylight Time),818520.1000000238,039_o_m_n_a.png,I,space,1870,1,1,2920.6999999284744,815599.4000000954,9002,VNB,A,0
0,test,3,1.0,2-Back,,,Fri Oct 11 2024 11:40:11 GMT-0400 (Eastern Daylight Time),818520.1000000238,124_o_f_d_a.png,I,space,1870,2,1,2920.6999999284744,815599.4000000954,9002,VNB,A,0
1,test,3,0.0,2-Back,1,m,Fri Oct 11 2024 11:40:11 GMT-0400 (Eastern Daylight Time),828336.3000000715,071_y_f_h_a.png,I,m,1723,3,1,2750.8000000715256,825585.5,9002,VNB,A,1
2,test,3,0.0,2-Back,1,z,Fri Oct 11 2024 11:40:11 GMT-0400 (Eastern Daylight Time),831236.8000000715,139_m_f_d_a.png,I,z,1869,4,1,2886.3000000715256,828350.5,9002,VNB,A,2
2,test,3,1.0,2-Back,0,m,Fri Oct 11 2024 11:40:11 GMT-0400 (Eastern Daylight Time),834103.0,109_y_m_n_a.png,I,z,1816,5,1,2849.7999999523163,831253.2000000477,9002,VNB,A,3
2,test,3,0.0,2-Back,0,m,Fri Oct 11 2024 11:40:11 GMT-0400 (Eastern Daylight Time),836719.2000000477,039_o_m_h_a.png,I,z,1590,6,1,2602.7999999523163,834116.4000000954,9002,VNB,A,4
2,test,3,0.0,2-Back,0,z,Fri Oct 11 2024 11:40:11 GMT-0400 (Eastern Daylight Time),839469.8000000715,071_y_f_n_a.png,I,m,1726,7,1,2738.0,836731.8000000715,9002,VNB,A,5
3,test,3,1.0,2-Back,1,m,Fri Oct 11 2024 11:40:11 GMT-0400 (Eastern Daylight Time),842186.6000000238,165_m_m_d_a.png,I,m,1697,8,1,2701.899999976158,839484.7000000477,9002,VNB,A,6
4,test,3,0.0,2-Back,1,m,Fri Oct 11 2024 11:40:11 GMT-0400 (Eastern Daylight Time),844736.8000000715,109_y_m_d_a.png,I,m,1523,9,1,2535.3000000715256,842201.5,9002,VNB,A,7
5,test,3,0.0,2-Back,1,m,Fri Oct 11 2024 11:40:11 GMT-0400 (Eastern Daylight Time),847286.5,124_o_f_h_a.png,I,m,1501,10,1,2534.6999999284744,844751.8000000715,9002,VNB,A,8
5,test,3,1.0,2-Back,0,m,Fri Oct 11 2024 11:40:11 GMT-0400 (Eastern Daylight Time),850320.2000000477,139_m_f_n_a.png,I,None,2016,11,1,3020.5,847299.7000000477,9002,VNB,A,9
5,test,3,1.0,2-Back,0,z,Fri Oct 11 2024 11:40:11 GMT-0400 (Eastern Daylight Time),853353.1000000238,165_m_m_h_a.png,I,None,2016,12,1,3018.600000023842,850334.5,9002,VNB,A,10
5,test,3,0.0,2-Back,0,m,Fri Oct 11 2024 11:40:11 GMT-0400 (Eastern Daylight Time),856136.3000000715,071_y_f_d_a.png,I,z,1765,13,1,2767.899999976158,853368.4000000954,9002,VNB,A,11
6,test,3,0.0,2-Back,1,m,Fri Oct 11 2024 11:40:11 GMT-0400 (Eastern Daylight Time),858703.3000000715,124_o_f_n_a.png,I,m,1542,14,1,2551.5,856151.8000000715,9002,VNB,A,12
7,test,3,0.0,2-Back,1,z,Fri Oct 11 2024 11:40:11 GMT-0400 (Eastern Daylight Time),861453.5,039_o_m_d_a.png,I,z,1710,15,1,2733.0,858720.5,9002,VNB,A,13
8,test,3,1.0,2-Back,1,m,Fri Oct 11 2024 11:40:11 GMT-0400 (Eastern Daylight Time),863886.5,139_m_f_h_a.png,I,m,1408,16,1,2419.1999999284744,861467.3000000715,9002,VNB,A,14
8,test,3,0.0,2-Back,0,m,Fri Oct 11 2024 11:40:11 GMT-0400 (Eastern Daylight Time),866386.7000000477,165_m_m_n_a.png,I,z,1471,17,1,2487.0,863899.7000000477,9002,VNB,A,15
8,test,3,0.0,2-Back,0,z,Fri Oct 11 2024 11:40:11 GMT-0400 (Eastern Daylight Time),869169.5,109_y_m_h_a.png,I,m,1755,18,1,2768.899999976158,866400.6000000238,9002,VNB,A,16
0,test,4,0.0,2-Back,,,Fri Oct 11 2024 11:40:11 GMT-0400 (Eastern Daylight Time),869169.5,139_m_f_n_a.png,I,space,1668,1,1,2768.899999976158,866400.6000000238,9002,VNB,A,0
0,test,4,0.0,2-Back,,,Fri Oct 11 2024 11:40:11 GMT-0400 (Eastern Daylight Time),869169.5,039_o_m_n_a.png,I,space,1668,2,1,2768.899999976158,866400.6000000238,9002,VNB,A,0
1,test,4,1.0,2-Back,1,m,Fri Oct 11 2024 11:40:11 GMT-0400 (Eastern Daylight Time),878103.4000000954,109_y_m_h_a.png,I,m,1100,3,1,2119.5,875983.9000000954,9002,VNB,A,1
2,test,4,1.0,2-Back,1,m,Fri Oct 11 2024 11:40:11 GMT-0400 (Eastern Daylight Time),880603.1000000238,124_o_f_d_a.png,I,m,1480,4,1,2484.5,878118.6000000238,9002,VNB,A,2
3,test,4,0.0,2-Back,1,z,Fri Oct 11 2024 11:40:11 GMT-0400 (Eastern Daylight Time),882619.7000000477,039_o_m_h_a.png,I,z,978,5,1,1990.6000000238419,880629.1000000238,9002,VNB,A,3
3,test,4,0.0,2-Back,0,m,Fri Oct 11 2024 11:40:11 GMT-0400 (Eastern Daylight Time),884936.2000000477,165_m_m_n_a.png,I,z,1281,6,1,2299.899999976158,882636.3000000715,9002,VNB,A,4
3,test,4,0.0,2-Back,0,m,Fri Oct 11 2024 11:40:11 GMT-0400 (Eastern Daylight Time),887970.0,139_m_f_d_a.png,I,None,2016,7,1,3019.899999976158,884950.1000000238,9002,VNB,A,5
4,test,4,0.0,2-Back,1,z,Fri Oct 11 2024 11:40:11 GMT-0400 (Eastern Daylight Time),890670.0,071_y_f_n_a.png,I,z,1676,8,1,2684.7999999523163,887985.2000000477,9002,VNB,A,6
5,test,4,1.0,2-Back,1,m,Fri Oct 11 2024 11:40:11 GMT-0400 (Eastern Daylight Time),892736.7000000477,124_o_f_h_a.png,I,m,1040,9,1,2053.0,890683.7000000477,9002,VNB,A,7
5,test,4,0.0,2-Back,0,m,Fri Oct 11 2024 11:40:11 GMT-0400 (Eastern Daylight Time),895769.9000000954,165_m_m_h_a.png,I,None,2016,10,1,3018.9000000953674,892751.0,9002,VNB,A,8
5,test,4,0.0,2-Back,0,m,Fri Oct 11 2024 11:40:11 GMT-0400 (Eastern Daylight Time),897969.8000000715,071_y_f_d_a.png,I,z,1172,11,1,2184.899999976158,895784.9000000954,9002,VNB,A,9
5,test,4,0.0,2-Back,0,m,Fri Oct 11 2024 11:40:11 GMT-0400 (Eastern Daylight Time),900569.9000000954,109_y_m_n_a.png,I,z,1580,12,1,2585.4000000953674,897984.5,9002,VNB,A,10
5,test,4,0.0,2-Back,0,z,Fri Oct 11 2024 11:40:11 GMT-0400 (Eastern Daylight Time),903470.0,039_o_m_d_a.png,I,m,1877,13,1,2886.5,900583.5,9002,VNB,A,11
6,test,4,1.0,2-Back,1,m,Fri Oct 11 2024 11:40:11 GMT-0400 (Eastern Daylight Time),906086.5,139_m_f_h_a.png,I,m,1584,14,1,2602.5999999046326,903483.9000000954,9002,VNB,A,12
7,test,4,1.0,2-Back,1,m,Fri Oct 11 2024 11:40:11 GMT-0400 (Eastern Daylight Time),908703.3000000715,071_y_f_h_a.png,I,m,1591,15,1,2601.8000000715256,906101.5,9002,VNB,A,13
8,test,4,0.0,2-Back,1,m,Fri Oct 11 2024 11:40:11 GMT-0400 (Eastern Daylight Time),911186.7000000477,124_o_f_n_a.png,I,m,1455,16,1,2468.5,908718.2000000477,9002,VNB,A,14
9,test,4,0.0,2-Back,1,m,Fri Oct 11 2024 11:40:11 GMT-0400 (Eastern Daylight Time),913703.2000000477,109_y_m_d_a.png,I,m,1483,17,1,2502.899999976158,911200.3000000715,9002,VNB,A,15
10,test,4,1.0,2-Back,1,m,Fri Oct 11 2024 11:40:11 GMT-0400 (Eastern Daylight Time),916253.2000000477,165_m_m_d_a.png,I,m,1527,18,1,2535.100000023842,913718.1000000238,9002,VNB,A,16
0,test,5,1.0,2-Back,,,Fri Oct 11 2024 11:40:11 GMT-0400 (Eastern Daylight Time),916253.2000000477,071_y_f_d_a.png,I,space,1321,1,1,2535.100000023842,913718.1000000238,9002,VNB,A,0
0,test,5,1.0,2-Back,,,Fri Oct 11 2024 11:40:11 GMT-0400 (Eastern Daylight Time),916253.2000000477,124_o_f_h_a.png,I,space,1321,2,1,2535.100000023842,913718.1000000238,9002,VNB,A,0
1,test,5,1.0,2-Back,1,z,Fri Oct 11 2024 11:40:11 GMT-0400 (Eastern Daylight Time),925220.1000000238,039_o_m_d_a.png,I,z,1437,3,1,2456.100000023842,922764.0,9002,VNB,A,1
2,test,5,1.0,2-Back,1,m,Fri Oct 11 2024 11:40:11 GMT-0400 (Eastern Daylight Time),927703.1000000238,139_m_f_n_a.png,I,m,1450,4,1,2468.100000023842,925235.0,9002,VNB,A,2
2,test,5,0.0,2-Back,0,m,Fri Oct 11 2024 11:40:11 GMT-0400 (Eastern Daylight Time),930753.5,165_m_m_h_a.png,I,None,2016,5,1,3033.899999976158,927719.6000000238,9002,VNB,A,3
3,test,5,0.0,2-Back,1,z,Fri Oct 11 2024 11:40:11 GMT-0400 (Eastern Daylight Time),933336.6000000238,071_y_f_n_a.png,I,z,1565,6,1,2569.6999999284744,930766.9000000954,9002,VNB,A,4
4,test,5,0.0,2-Back,1,m,Fri Oct 11 2024 11:40:11 GMT-0400 (Eastern Daylight Time),935319.9000000954,124_o_f_d_a.png,I,m,965,7,1,1969.3000000715256,933350.6000000238,9002,VNB,A,5
5,test,5,0.0,2-Back,1,m,Fri Oct 11 2024 11:40:11 GMT-0400 (Eastern Daylight Time),937953.4000000954,039_o_m_h_a.png,I,m,1590,8,1,2615.8000000715256,935337.6000000238,9002,VNB,A,6
5,test,5,1.0,2-Back,0,z,Fri Oct 11 2024 11:40:11 GMT-0400 (Eastern Daylight Time),940486.8000000715,139_m_f_d_a.png,I,m,1484,9,1,2516.8000000715256,937970.0,9002,VNB,A,7
5,test,5,0.0,2-Back,0,m,Fri Oct 11 2024 11:40:11 GMT-0400 (Eastern Daylight Time),943070.0,109_y_m_n_a.png,I,z,1560,10,1,2568.0,940502.0,9002,VNB,A,8
6,test,5,0.0,2-Back,1,m,Fri Oct 11 2024 11:40:11 GMT-0400 (Eastern Daylight Time),945769.9000000954,165_m_m_n_a.png,I,m,1664,11,1,2685.5,943084.4000000954,9002,VNB,A,9
6,test,5,0.0,2-Back,0,m,Fri Oct 11 2024 11:40:11 GMT-0400 (Eastern Daylight Time),948303.2000000477,071_y_f_h_a.png,I,z,1491,12,1,2515.7999999523163,945787.4000000954,9002,VNB,A,10
7,test,5,0.0,2-Back,1,m,Fri Oct 11 2024 11:40:11 GMT-0400 (Eastern Daylight Time),951169.9000000954,109_y_m_d_a.png,I,m,1822,13,1,2849.600000023842,948320.3000000715,9002,VNB,A,11
8,test,5,1.0,2-Back,1,z,Fri Oct 11 2024 11:40:11 GMT-0400 (Eastern Daylight Time),953353.1000000238,139_m_f_h_a.png,I,z,1164,14,1,2168.899999976158,951184.2000000477,9002,VNB,A,12
9,test,5,0.0,2-Back,1,m,Fri Oct 11 2024 11:40:11 GMT-0400 (Eastern Daylight Time),955569.8000000715,039_o_m_n_a.png,I,m,1189,15,1,2203.0,953366.8000000715,9002,VNB,A,13
10,test,5,0.0,2-Back,1,m,Fri Oct 11 2024 11:40:11 GMT-0400 (Eastern Daylight Time),958486.9000000954,165_m_m_d_a.png,I,m,1867,16,1,2899.2000000476837,955587.7000000477,9002,VNB,A,14
11,test,5,0.0,2-Back,1,z,Fri Oct 11 2024 11:40:11 GMT-0400 (Eastern Daylight Time),961436.9000000954,124_o_f_n_a.png,I,z,1927,17,1,2936.4000000953674,958500.5,9002,VNB,A,15
11,test,5,1.0,2-Back,0,m,Fri Oct 11 2024 11:40:11 GMT-0400 (Eastern Daylight Time),964470.2000000477,109_y_m_h_a.png,I,None,2016,18,1,3020.0,961450.2000000477,9002,VNB,A,16
