acc_sum,block,block_c,condition,correct,correct_response,datetime,endtime,flanker,jitter,project,response,response_test_buffer_response,response_test_target_response,response_time,response_time_test_buffer_response,response_time_test_target_response,row_sel,session_number,start_end,starttime,subject_id,target,task,task_vers,time_test_buffer,time_test_buffer_response,time_test_constants,time_test_flanker,time_test_jitter,time_test_logger,time_test_target,time_test_target_response,time_test_variables,trial
1,prac,1,con,1,z,Wed Feb 05 2025 15:41:54 GMT-0600 (Central Standard Time),230425.69999980927,lime,800,I,z,,,882,,,5,1,2993.0,227432.69999980927,00,lime,NF,C,,,,,,,,,,1
1,prac,1,inc,0,z,Wed Feb 05 2025 15:41:54 GMT-0600 (Central Standard Time),233192.90000009537,copper,900,I,m,,,553,,,2,1,2757.9000000953674,230435.0,00,cherry,NF,C,,,,,,,,,,2
2,prac,1,inc,1,m,Wed Feb 05 2025 15:41:54 GMT-0600 (Central Standard Time),236056.7999997139,raisin,1100,I,m,,,452,,,12,1,2857.0999999046326,233199.69999980927,00,cobalt,NF,C,,,,,,,,,,3
3,prac,1,inc,1,z,Wed Feb 05 2025 15:41:54 GMT-0600 (Central Standard Time),238639.90000009537,iron,900,I,z,,,376,,,6,1,2576.6000003814697,236063.2999997139,00,pear,NF,C,,,,,,,,,,4
4,prac,1,inc,1,m,Wed Feb 05 2025 15:41:54 GMT-0600 (Central Standard Time),241423.2999997139,cherry,900,I,m,,,570,,,10,1,2777.2999997138977,238646.0,00,copper,NF,C,,,,,,,,,,5
4,prac,1,con,0,m,Wed Feb 05 2025 15:41:54 GMT-0600 (Central Standard Time),244288.40000009537,gold,800,I,z,,,760,,,13,1,2858.6000003814697,241429.7999997139,00,gold,NF,C,,,,,,,,,,6
4,prac,1,inc,0,z,Wed Feb 05 2025 15:41:54 GMT-0600 (Central Standard Time),247387.5,cobalt,1100,I,m,,,691,,,4,1,3095.5999999046326,244291.90000009537,00,raisin,NF,C,,,,,,,,,,7
4,prac,1,inc,0,m,Wed Feb 05 2025 15:41:54 GMT-0600 (Central Standard Time),250453.59999990463,plum,1100,I,z,,,658,,,16,1,3059.5999999046326,247394.0,00,lead,NF,C,,,,,,,,,,8
4,prac,1,inc,0,m,Wed Feb 05 2025 15:41:54 GMT-0600 (Central Standard Time),253182.69999980927,pear,900,I,z,,,516,,,14,1,2723.2999997138977,250459.40000009537,00,iron,NF,C,,,,,,,,,,9
4,prac,1,con,0,z,Wed Feb 05 2025 15:41:54 GMT-0600 (Central Standard Time),255868.2999997139,banana,800,I,m,,,581,,,1,1,2681.8999996185303,253186.40000009537,00,banana,NF,C,,,,,,,,,,10
4,prac,1,con,0,m,Wed Feb 05 2025 15:41:54 GMT-0600 (Central Standard Time),258764.5,zinc,1000,I,z,,,612,,,15,1,2889.7000002861023,255874.7999997139,00,zinc,NF,C,,,,,,,,,,11
4,prac,1,inc,0,z,Wed Feb 05 2025 15:41:54 GMT-0600 (Central Standard Time),261849.2999997139,lead,1100,I,m,,,667,,,8,1,3081.5999999046326,258767.69999980927,00,plum,NF,C,,,,,,,,,,12
4,prac,1,con,0,z,Wed Feb 05 2025 15:41:54 GMT-0600 (Central Standard Time),264733.0,orange,1000,I,m,,,576,,,3,1,2880.2000002861023,261852.7999997139,00,orange,NF,C,,,,,,,,,,13
5,prac,1,con,1,m,Wed Feb 05 2025 15:41:54 GMT-0600 (Central Standard Time),267397.0,silver,1000,I,m,,,357,,,11,1,2660.5999999046326,264736.40000009537,00,silver,NF,C,,,,,,,,,,14
6,prac,1,con,1,z,Wed Feb 05 2025 15:41:54 GMT-0600 (Central Standard Time),270230.5,kiwi,1000,I,z,,,530,,,7,1,2826.5999999046326,267403.90000009537,00,kiwi,NF,C,,,,,,,,,,15
7,prac,1,con,1,m,Wed Feb 05 2025 15:41:54 GMT-0600 (Central Standard Time),273012.59999990463,bronze,800,I,m,,,688,,,9,1,2777.300000190735,270235.2999997139,00,bronze,NF,C,,,,,,,,,,16
0,prac,2,con,0,z,Wed Feb 05 2025 15:41:54 GMT-0600 (Central Standard Time),289408.09999990463,lime,800,I,m,,,986,,,5,1,3094.699999809265,286313.40000009537,00,lime,NF,C,,,,,,,,,,1
1,prac,2,inc,1,m,Wed Feb 05 2025 15:41:54 GMT-0600 (Central Standard Time),292288.2999997139,cherry,900,I,m,,,680,,,10,1,2874.0999999046326,289414.19999980927,00,copper,NF,C,,,,,,,,,,2
2,prac,2,con,1,z,Wed Feb 05 2025 15:41:54 GMT-0600 (Central Standard Time),294738.69999980927,banana,800,I,z,,,333,,,1,1,2443.699999809265,292295.0,00,banana,NF,C,,,,,,,,,,3
3,prac,2,con,1,z,Wed Feb 05 2025 15:41:54 GMT-0600 (Central Standard Time),297538.5,orange,1000,I,z,,,484,,,3,1,2794.5999999046326,294743.90000009537,00,orange,NF,C,,,,,,,,,,4
4,prac,2,inc,1,z,Wed Feb 05 2025 15:41:54 GMT-0600 (Central Standard Time),300519.19999980927,lead,1100,I,z,,,580,,,8,1,2974.0999999046326,297545.09999990463,00,plum,NF,C,,,,,,,,,,5
5,prac,2,inc,1,m,Wed Feb 05 2025 15:41:54 GMT-0600 (Central Standard Time),303201.90000009537,pear,900,I,m,,,474,,,14,1,2675.6000003814697,300526.2999997139,00,iron,NF,C,,,,,,,,,,6
6,prac,2,con,1,m,Wed Feb 05 2025 15:41:54 GMT-0600 (Central Standard Time),305869.2999997139,bronze,800,I,m,,,563,,,9,1,2661.5,303207.7999997139,00,bronze,NF,C,,,,,,,,,,7
7,prac,2,inc,1,m,Wed Feb 05 2025 15:41:54 GMT-0600 (Central Standard Time),308818.40000009537,raisin,1100,I,m,,,544,,,12,1,2943.300000190735,305875.09999990463,00,cobalt,NF,C,,,,,,,,,,8
8,prac,2,con,1,m,Wed Feb 05 2025 15:41:54 GMT-0600 (Central Standard Time),311650.69999980927,silver,1000,I,m,,,524,,,11,1,2824.2999997138977,308826.40000009537,00,silver,NF,C,,,,,,,,,,9
9,prac,2,con,1,z,Wed Feb 05 2025 15:41:54 GMT-0600 (Central Standard Time),314651.40000009537,kiwi,1000,I,z,,,700,,,7,1,2990.6000003814697,311660.7999997139,00,kiwi,NF,C,,,,,,,,,,10
10,prac,2,con,1,m,Wed Feb 05 2025 15:41:54 GMT-0600 (Central Standard Time),317514.40000009537,zinc,1000,I,m,,,558,,,15,1,2857.4000000953674,314657.0,00,zinc,NF,C,,,,,,,,,,11
11,prac,2,inc,1,z,Wed Feb 05 2025 15:41:54 GMT-0600 (Central Standard Time),320248.09999990463,copper,900,I,z,,,518,,,2,1,2726.199999809265,317521.90000009537,00,cherry,NF,C,,,,,,,,,,12
12,prac,2,inc,1,m,Wed Feb 05 2025 15:41:54 GMT-0600 (Central Standard Time),323197.09999990463,plum,1100,I,m,,,532,,,16,1,2940.0999999046326,320257.0,00,lead,NF,C,,,,,,,,,,13
13,prac,2,inc,1,z,Wed Feb 05 2025 15:41:54 GMT-0600 (Central Standard Time),326246.90000009537,cobalt,1100,I,z,,,650,,,4,1,3043.2000002861023,323203.69999980927,00,raisin,NF,C,,,,,,,,,,14
13,prac,2,con,0,m,Wed Feb 05 2025 15:41:54 GMT-0600 (Central Standard Time),329028.2999997139,gold,800,I,z,,,682,,,13,1,2772.8999996185303,326255.40000009537,00,gold,NF,C,,,,,,,,,,15
14,prac,2,inc,1,z,Wed Feb 05 2025 15:41:54 GMT-0600 (Central Standard Time),331859.69999980927,iron,900,I,z,,,616,,,6,1,2826.5,329033.19999980927,00,pear,NF,C,,,,,,,,,,16
0,test,1,inc,0,m,Wed Feb 05 2025 15:41:54 GMT-0600 (Central Standard Time),359452.09999990463,plum,1100,I,None,None,None,1799,1799.0,215.0,112,1,3640.699999809265,355811.40000009537,00,iron,NF,C,355463,355463,353621,354731,353623,357262,355247,355247,357262,1
1,test,1,inc,1,z,Wed Feb 05 2025 15:41:54 GMT-0600 (Central Standard Time),361616.7999997139,cobalt,1100,I,z,z,None,527,328.0,199.0,32,1,2159.0,359457.7999997139,00,raisin,NF,C,359096,359096,357268,358380,357269,359427,358897,358897,359427,2
2,test,1,con,1,z,Wed Feb 05 2025 15:41:54 GMT-0600 (Central Standard Time),363449.69999980927,cherry,900,I,z,z,None,384,185.0,199.0,10,1,1825.5999999046326,361624.09999990463,00,cherry,NF,C,361062,361062,359434,360346,359435,361260,360862,360862,361260,3
3,test,1,con,1,m,Wed Feb 05 2025 15:41:54 GMT-0600 (Central Standard Time),365566.69999980927,lead,1100,I,m,m,None,472,273.0,199.0,124,1,2112.0999999046326,363454.59999990463,00,lead,NF,C,363094,363094,361265,362379,361266,363377,362895,362895,363377,4
4,test,1,con,1,m,Wed Feb 05 2025 15:41:54 GMT-0600 (Central Standard Time),367731.7999997139,cobalt,1100,I,m,m,None,517,318.0,199.0,92,1,2160.8999996185303,365570.90000009537,00,cobalt,NF,C,365209,365209,363381,364495,363382,365542,365010,365010,365542,5
5,test,1,inc,1,z,Wed Feb 05 2025 15:41:54 GMT-0600 (Central Standard Time),369566.40000009537,bronze,800,I,z,z,None,498,283.0,215.0,21,1,1829.6000003814697,367736.7999997139,00,orange,NF,C,367093,367093,365547,366360,365548,367377,366877,366877,367376,6
5,test,1,inc,0,m,Wed Feb 05 2025 15:41:54 GMT-0600 (Central Standard Time),371763.09999990463,cherry,900,I,z,z,None,759,560.0,199.0,86,1,2192.0999999046326,369571.0,00,silver,NF,C,369008,369008,367381,368292,367383,369573,368809,368809,369573,7
6,test,1,con,1,z,Wed Feb 05 2025 15:41:54 GMT-0600 (Central Standard Time),373647.40000009537,plum,900,I,z,z,None,450,249.0,201.0,58,1,1879.6000003814697,371767.7999997139,00,plum,NF,C,371208,371208,369578,370492,369579,371458,371007,371007,371457,8
7,test,1,inc,1,m,Wed Feb 05 2025 15:41:54 GMT-0600 (Central Standard Time),375761.40000009537,kiwi,1000,I,m,m,None,566,352.0,214.0,119,1,2109.300000190735,373652.09999990463,00,zinc,NF,C,373207,373207,371462,372475,371463,373572,372992,372992,373571,9
8,test,1,inc,1,z,Wed Feb 05 2025 15:41:54 GMT-0600 (Central Standard Time),377910.90000009537,bronze,800,I,z,z,None,811,595.0,216.0,29,1,2144.4000000953674,375766.5,00,raisin,NF,C,375124,375124,373577,374391,373577,375721,374907,374907,375721,10
9,test,1,con,1,m,Wed Feb 05 2025 15:41:54 GMT-0600 (Central Standard Time),379661.90000009537,cobalt,900,I,m,m,None,306,92.0,214.0,90,1,1745.4000000953674,377916.5,00,cobalt,NF,C,377372,377372,375727,376641,375727,377472,377157,377157,377472,11
10,test,1,inc,1,z,Wed Feb 05 2025 15:41:54 GMT-0600 (Central Standard Time),381592.7999997139,iron,900,I,z,z,None,489,277.0,212.0,46,1,1927.0999999046326,379665.69999980927,00,pear,NF,C,379121,379121,377476,378390,377476,379403,378908,378908,379403,12
10,test,1,inc,0,m,Wed Feb 05 2025 15:41:54 GMT-0600 (Central Standard Time),383294.19999980927,banana,800,I,z,z,None,356,142.0,214.0,93,1,1698.6999998092651,381595.5,00,cobalt,NF,C,380954,380954,379406,380223,379406,381104,380739,380739,381104,13
11,test,1,inc,1,m,Wed Feb 05 2025 15:41:54 GMT-0600 (Central Standard Time),385277.09999990463,pear,900,I,m,m,None,533,318.0,215.0,102,1,1978.4000000953674,383298.69999980927,00,gold,NF,C,382753,382753,381109,382021,381110,383087,382538,382538,383087,14
12,test,1,con,1,z,Wed Feb 05 2025 15:41:54 GMT-0600 (Central Standard Time),387425.09999990463,lime,1100,I,z,z,None,502,288.0,214.0,36,1,2142.9000000953674,385282.19999980927,00,lime,NF,C,384936,384936,383092,384204,383094,385235,384722,384722,385235,15
13,test,1,con,1,m,Wed Feb 05 2025 15:41:54 GMT-0600 (Central Standard Time),389525.0,gold,1100,I,m,m,None,450,251.0,199.0,100,1,2095.5,387429.5,00,gold,NF,C,387069,387069,385240,386355,385240,387335,386870,386870,387335,16
14,test,1,inc,1,z,Wed Feb 05 2025 15:41:54 GMT-0600 (Central Standard Time),391623.59999990463,copper,900,I,z,z,None,654,438.0,216.0,14,1,2093.800000190735,389529.7999997139,00,cherry,NF,C,388986,388986,387340,388252,387341,389434,388770,388770,389434,17
15,test,1,inc,1,z,Wed Feb 05 2025 15:41:54 GMT-0600 (Central Standard Time),393756.59999990463,iron,900,I,z,z,None,689,476.0,213.0,38,1,2128.699999809265,391627.90000009537,00,lime,NF,C,391084,391084,389438,390353,389439,391567,390869,390870,391567,18
16,test,1,con,1,z,Wed Feb 05 2025 15:41:54 GMT-0600 (Central Standard Time),395623.59999990463,orange,900,I,z,z,None,436,224.0,212.0,18,1,1862.5999999046326,393761.0,00,orange,NF,C,393200,393200,391571,392484,391572,393434,392987,392987,393434,19
17,test,1,con,1,z,Wed Feb 05 2025 15:41:54 GMT-0600 (Central Standard Time),397339.0,kiwi,800,I,z,z,None,369,168.0,201.0,49,1,1710.4000000953674,395628.59999990463,00,kiwi,NF,C,394967,394967,393439,394251,393440,395149,394765,394765,395149,20
18,test,1,con,1,z,Wed Feb 05 2025 15:41:54 GMT-0600 (Central Standard Time),399038.7999997139,lime,800,I,z,z,None,357,157.0,200.0,33,1,1693.2999997138977,397345.5,00,lime,NF,C,396683,396683,395155,395967,395157,396849,396483,396483,396849,21
19,test,1,inc,1,m,Wed Feb 05 2025 15:41:54 GMT-0600 (Central Standard Time),400904.40000009537,cherry,900,I,m,m,None,420,205.0,215.0,70,1,1860.9000000953674,399043.5,00,bronze,NF,C,398498,398498,396854,397767,396855,398714,398283,398283,398714,22
20,test,1,con,1,z,Wed Feb 05 2025 15:41:54 GMT-0600 (Central Standard Time),403253.69999980927,kiwi,1100,I,z,z,None,704,489.0,215.0,52,1,2344.0999999046326,400909.59999990463,00,kiwi,NF,C,400566,400566,398720,399832,398721,401064,400350,400350,401064,23
20,test,1,con,0,m,Wed Feb 05 2025 15:41:54 GMT-0600 (Central Standard Time),405187.0,silver,900,I,z,z,None,492,293.0,199.0,82,1,1927.7000002861023,403259.2999997139,00,silver,NF,C,402698,402698,401069,401980,401070,402997,402499,402499,402997,24
21,test,1,con,1,z,Wed Feb 05 2025 15:41:54 GMT-0600 (Central Standard Time),407102.59999990463,pear,1000,I,z,z,None,373,157.0,216.0,43,1,1910.9000000953674,405191.69999980927,00,pear,NF,C,404747,404747,403002,404014,403003,404913,404531,404531,404913,25
22,test,1,con,1,m,Wed Feb 05 2025 15:41:54 GMT-0600 (Central Standard Time),408968.2999997139,silver,800,I,m,m,None,517,302.0,215.0,81,1,1859.5999999046326,407108.69999980927,00,silver,NF,C,406462,406462,404919,405731,404920,406778,406247,406247,406778,26
23,test,1,inc,1,m,Wed Feb 05 2025 15:41:54 GMT-0600 (Central Standard Time),411083.7999997139,pear,900,I,m,m,None,675,476.0,199.0,110,1,2109.5999999046326,408974.19999980927,00,iron,NF,C,408412,408412,406784,407697,406785,408894,408213,408213,408894,27
24,test,1,con,1,m,Wed Feb 05 2025 15:41:54 GMT-0600 (Central Standard Time),413232.7999997139,zinc,1000,I,m,m,None,609,394.0,215.0,115,1,2144.2999997138977,411088.5,00,zinc,NF,C,410645,410645,408899,409914,408900,411043,410430,410430,411043,28
24,test,1,con,0,z,Wed Feb 05 2025 15:41:54 GMT-0600 (Central Standard Time),415216.69999980927,lime,900,I,m,m,None,536,321.0,215.0,34,1,1980.2999997138977,413236.40000009537,00,lime,NF,C,412695,412695,411046,411962,411047,413027,412479,412479,413027,29
25,test,1,con,1,m,Wed Feb 05 2025 15:41:54 GMT-0600 (Central Standard Time),416983.40000009537,copper,800,I,m,m,None,431,232.0,199.0,73,1,1761.8000001907349,415221.59999990463,00,copper,NF,C,414560,414561,413032,413844,413033,414793,414361,414361,414793,30
26,test,1,con,1,z,Wed Feb 05 2025 15:41:54 GMT-0600 (Central Standard Time),419148.09999990463,orange,1100,I,z,z,None,525,310.0,215.0,20,1,2159.5,416988.59999990463,00,orange,NF,C,416642,416642,414799,415911,414799,416958,416427,416427,416958,31
27,test,1,con,1,z,Wed Feb 05 2025 15:41:54 GMT-0600 (Central Standard Time),421281.7999997139,pear,1100,I,z,z,None,492,279.0,213.0,44,1,2127.2999997138977,419154.5,00,pear,NF,C,418808,418808,416965,418076,416966,419092,418594,418594,419092,32
28,test,1,inc,1,z,Wed Feb 05 2025 15:41:54 GMT-0600 (Central Standard Time),423264.19999980927,iron,900,I,z,z,None,547,348.0,199.0,54,1,1976.2999997138977,421287.90000009537,00,kiwi,NF,C,420725,420725,419098,420009,419099,421074,420525,420525,421074,33
29,test,1,inc,1,m,Wed Feb 05 2025 15:41:54 GMT-0600 (Central Standard Time),425363.2999997139,raisin,1100,I,m,m,None,458,244.0,214.0,96,1,2092.8999996185303,423270.40000009537,00,cobalt,NF,C,422924,422924,421080,422192,421081,423173,422709,422709,423173,34
30,test,1,inc,1,z,Wed Feb 05 2025 15:41:54 GMT-0600 (Central Standard Time),427261.2999997139,bronze,800,I,z,z,None,555,356.0,199.0,5,1,1893.7999997138977,425367.5,00,banana,NF,C,424707,424707,423178,423990,423178,425071,424508,424508,425071,35
31,test,1,con,1,m,Wed Feb 05 2025 15:41:54 GMT-0600 (Central Standard Time),429195.09999990463,gold,800,I,m,m,None,606,392.0,214.0,97,1,1930.6999998092651,427264.40000009537,00,gold,NF,C,426608,426608,425074,425890,425075,427005,426393,426393,427005,36
32,test,1,con,1,m,Wed Feb 05 2025 15:41:54 GMT-0600 (Central Standard Time),431063.0,bronze,900,I,m,m,None,424,224.0,200.0,66,1,1864.2000002861023,429198.7999997139,00,bronze,NF,C,428640,428640,427009,427924,427010,428873,428440,428440,428873,37
33,test,1,inc,1,z,Wed Feb 05 2025 15:41:54 GMT-0600 (Central Standard Time),432927.59999990463,gold,800,I,z,z,None,521,321.0,200.0,37,1,1860.1999998092651,431067.40000009537,00,lime,NF,C,430406,430406,428877,429690,428878,430738,430206,430206,430738,38
34,test,1,con,1,m,Wed Feb 05 2025 15:41:54 GMT-0600 (Central Standard Time),435393.19999980927,iron,900,I,m,m,None,1028,829.0,199.0,106,1,2458.699999809265,432934.5,00,iron,NF,C,432371,432371,430745,431655,430746,433203,432172,432172,433203,39
35,test,1,con,1,z,Wed Feb 05 2025 15:41:54 GMT-0600 (Central Standard Time),437575.2999997139,cherry,1100,I,z,z,None,549,337.0,212.0,12,1,2178.199999809265,435397.09999990463,00,cherry,NF,C,435039,435039,433207,434323,433208,435385,434827,434827,435385,40
36,test,1,con,1,m,Wed Feb 05 2025 15:41:54 GMT-0600 (Central Standard Time),439642.59999990463,cobalt,1000,I,m,m,None,525,312.0,213.0,91,1,2061.300000190735,437581.2999997139,00,cobalt,NF,C,437135,437135,435391,436405,435393,437453,436922,436922,437453,41
37,test,1,inc,1,m,Wed Feb 05 2025 15:41:54 GMT-0600 (Central Standard Time),441625.59999990463,cherry,900,I,m,m,None,535,320.0,215.0,78,1,1976.5999999046326,439649.0,00,copper,NF,C,439103,439103,437459,438372,437460,439436,438888,438888,439436,42
38,test,1,inc,1,z,Wed Feb 05 2025 15:41:54 GMT-0600 (Central Standard Time),443741.40000009537,zinc,1000,I,z,z,None,568,368.0,200.0,47,1,2110.5,441630.90000009537,00,pear,NF,C,441169,441169,439441,440452,439442,441551,440969,440969,441551,43
39,test,1,con,1,z,Wed Feb 05 2025 15:41:54 GMT-0600 (Central Standard Time),445658.09999990463,cherry,800,I,z,z,None,569,353.0,216.0,9,1,1911.5,443746.59999990463,00,cherry,NF,C,443102,443102,441557,442370,441558,443468,442886,442886,443468,44
40,test,1,inc,1,m,Wed Feb 05 2025 15:41:54 GMT-0600 (Central Standard Time),447739.90000009537,orange,1000,I,m,m,None,540,327.0,213.0,95,1,2075.7000002861023,445664.19999980927,00,cobalt,NF,C,445217,445217,443474,444486,443475,445550,445003,445003,445550,45
41,test,1,inc,1,z,Wed Feb 05 2025 15:41:54 GMT-0600 (Central Standard Time),449688.69999980927,copper,900,I,z,z,None,511,311.0,200.0,6,1,1944.5999999046326,447744.09999990463,00,banana,NF,C,447184,447185,445554,446467,445555,447499,446984,446984,447499,46
42,test,1,con,1,z,Wed Feb 05 2025 15:41:54 GMT-0600 (Central Standard Time),452223.40000009537,banana,1000,I,z,z,None,999,799.0,200.0,3,1,2530.300000190735,449693.09999990463,00,banana,NF,C,449234,449234,447503,448517,447504,450034,449033,449033,450033,47
43,test,1,inc,1,z,Wed Feb 05 2025 15:41:54 GMT-0600 (Central Standard Time),454290.5,silver,1000,I,z,z,None,534,335.0,199.0,31,1,2059.5999999046326,452230.90000009537,00,raisin,NF,C,451765,451765,450041,451049,450042,452101,451566,451566,452101,48
44,test,1,con,1,m,Wed Feb 05 2025 15:41:54 GMT-0600 (Central Standard Time),456654.59999990463,zinc,1100,I,m,m,None,717,500.0,217.0,116,1,2358.199999809265,454296.40000009537,00,zinc,NF,C,453949,453949,452106,453217,452108,454465,453732,453732,454465,49
45,test,1,inc,1,m,Wed Feb 05 2025 15:41:54 GMT-0600 (Central Standard Time),458569.59999990463,banana,800,I,m,m,None,578,378.0,200.0,77,1,1911.0999999046326,456658.5,00,copper,NF,C,455998,455998,454469,455281,454469,456380,455798,455798,456380,50
46,test,1,inc,1,m,Wed Feb 05 2025 15:41:54 GMT-0600 (Central Standard Time),460768.90000009537,raisin,1100,I,m,m,None,566,353.0,213.0,72,1,2195.5,458573.40000009537,00,bronze,NF,C,458214,458214,456383,457497,456384,458579,458000,458000,458579,51
47,test,1,con,1,z,Wed Feb 05 2025 15:41:54 GMT-0600 (Central Standard Time),462701.2999997139,pear,800,I,z,z,None,590,374.0,216.0,41,1,1925.2999997138977,460776.0,00,pear,NF,C,460130,460130,458586,459398,458588,460511,459914,459914,460511,52
48,test,1,inc,1,m,Wed Feb 05 2025 15:41:54 GMT-0600 (Central Standard Time),464601.0,banana,800,I,m,m,None,552,353.0,199.0,85,1,1895.4000000953674,462705.59999990463,00,silver,NF,C,462046,462046,460516,461330,460516,462411,461845,461846,462411,53
49,test,1,con,1,m,Wed Feb 05 2025 15:41:54 GMT-0600 (Central Standard Time),466685.2999997139,silver,1000,I,m,m,None,530,317.0,213.0,83,1,2079.0,464606.2999997139,00,silver,NF,C,464162,464162,462416,463427,462417,464495,463948,463948,464495,54
50,test,1,inc,1,z,Wed Feb 05 2025 15:41:54 GMT-0600 (Central Standard Time),469150.09999990463,cobalt,1100,I,z,z,None,831,632.0,199.0,24,1,2459.0999999046326,466691.0,00,orange,NF,C,466328,466328,464501,465612,464502,466960,466129,466129,466960,55
51,test,1,con,1,z,Wed Feb 05 2025 15:41:54 GMT-0600 (Central Standard Time),471283.5,pear,900,I,z,z,None,683,469.0,214.0,42,1,2127.5,469156.0,00,pear,NF,C,468610,468610,466966,467878,466967,469094,468395,468395,469094,56
52,test,1,con,1,m,Wed Feb 05 2025 15:41:54 GMT-0600 (Central Standard Time),473264.59999990463,gold,900,I,m,m,None,532,316.0,216.0,98,1,1973.5999999046326,471291.0,00,gold,NF,C,470744,470744,469101,470011,469102,471075,470526,470527,471075,57
53,test,1,inc,1,m,Wed Feb 05 2025 15:41:54 GMT-0600 (Central Standard Time),475464.69999980927,raisin,1100,I,m,m,None,554,339.0,215.0,80,1,2193.699999809265,473271.0,00,copper,NF,C,472925,472925,471081,472192,471082,473275,472710,472710,473275,58
54,test,1,con,1,z,Wed Feb 05 2025 15:41:54 GMT-0600 (Central Standard Time),477546.90000009537,orange,1000,I,z,z,None,542,327.0,215.0,19,1,2076.4000000953674,475470.5,00,orange,NF,C,475026,475026,473281,474294,473281,475357,474810,474810,475357,59
55,test,1,con,1,m,Wed Feb 05 2025 15:41:54 GMT-0600 (Central Standard Time),479579.40000009537,zinc,900,I,m,m,None,591,377.0,214.0,114,1,2027.4000000953674,477552.0,00,zinc,NF,C,477007,477007,475362,476275,475363,477389,476793,476793,477389,60
56,test,1,inc,1,z,Wed Feb 05 2025 15:41:54 GMT-0600 (Central Standard Time),481695.69999980927,silver,1000,I,z,z,None,580,381.0,199.0,23,1,2111.5,479584.19999980927,00,orange,NF,C,479124,479124,477394,478408,477395,479506,478925,478925,479506,61
57,test,1,con,1,z,Wed Feb 05 2025 15:41:54 GMT-0600 (Central Standard Time),483976.2999997139,lime,1000,I,z,z,None,742,543.0,199.0,35,1,2275.699999809265,481700.59999990463,00,lime,NF,C,481239,481239,479511,480523,479511,481786,481040,481040,481786,62
58,test,1,con,1,m,Wed Feb 05 2025 15:41:54 GMT-0600 (Central Standard Time),486178.7999997139,copper,1100,I,m,m,None,561,345.0,216.0,76,1,2196.2999997138977,483982.5,00,copper,NF,C,483640,483640,481793,482908,481793,483989,483423,483423,483989,63
59,test,1,con,1,m,Wed Feb 05 2025 15:41:54 GMT-0600 (Central Standard Time),488160.2999997139,zinc,800,I,m,m,None,644,430.0,214.0,113,1,1975.8999996185303,486184.40000009537,00,zinc,NF,C,485538,485538,483994,484807,483995,485970,485323,485323,485970,64
60,test,1,con,1,m,Wed Feb 05 2025 15:41:54 GMT-0600 (Central Standard Time),490693.2999997139,lead,1000,I,m,m,None,995,783.0,212.0,123,1,2528.0,488165.2999997139,00,lead,NF,C,487720,487720,485975,486987,485976,488503,487507,487507,488503,65
61,test,1,con,1,m,Wed Feb 05 2025 15:41:54 GMT-0600 (Central Standard Time),492774.90000009537,copper,1000,I,m,m,None,545,330.0,215.0,75,1,2076.1000003814697,490698.7999997139,00,copper,NF,C,490254,490254,488509,489522,488510,490585,490038,490038,490585,66
62,test,1,con,1,z,Wed Feb 05 2025 15:41:54 GMT-0600 (Central Standard Time),494542.90000009537,banana,800,I,z,z,None,432,233.0,199.0,1,1,1761.2000002861023,492781.69999980927,00,banana,NF,C,492119,492119,490592,491403,490593,492353,491920,491920,492353,67
63,test,1,inc,1,m,Wed Feb 05 2025 15:41:54 GMT-0600 (Central Standard Time),496673.09999990463,plum,1100,I,m,m,None,483,272.0,211.0,128,1,2125.300000190735,494547.7999997139,00,lead,NF,C,494199,494199,492358,493468,492359,494483,493988,493988,494483,68
64,test,1,con,1,z,Wed Feb 05 2025 15:41:54 GMT-0600 (Central Standard Time),498956.69999980927,plum,1100,I,z,z,None,642,442.0,200.0,60,1,2280.0,496676.69999980927,00,plum,NF,C,496317,496317,494487,495602,494487,496767,496116,496116,496767,69
65,test,1,con,1,z,Wed Feb 05 2025 15:41:54 GMT-0600 (Central Standard Time),500989.0,banana,900,I,z,z,None,605,391.0,214.0,2,1,2027.7000002861023,498961.2999997139,00,banana,NF,C,498400,498400,496771,497684,496772,498799,498186,498186,498799,70
66,test,1,inc,1,m,Wed Feb 05 2025 15:41:54 GMT-0600 (Central Standard Time),503154.59999990463,raisin,1100,I,m,m,None,541,342.0,199.0,88,1,2160.9000000953674,500993.69999980927,00,silver,NF,C,500617,500617,498804,499916,498805,500965,500418,500418,500965,71
67,test,1,inc,1,m,Wed Feb 05 2025 15:41:54 GMT-0600 (Central Standard Time),505206.09999990463,orange,1000,I,m,m,None,516,316.0,200.0,79,1,2046.6999998092651,503159.40000009537,00,copper,NF,C,502700,502700,500969,501984,500970,503016,502500,502500,503016,72
68,test,1,inc,1,m,Wed Feb 05 2025 15:41:54 GMT-0600 (Central Standard Time),507223.0,kiwi,1000,I,m,m,None,482,267.0,215.0,111,1,2011.9000000953674,505211.09999990463,00,iron,NF,C,504766,504766,503021,504032,503022,505033,504550,504550,505033,73
69,test,1,inc,1,z,Wed Feb 05 2025 15:41:54 GMT-0600 (Central Standard Time),509254.69999980927,copper,900,I,z,z,None,598,399.0,199.0,30,1,2027.5999999046326,507227.09999990463,00,raisin,NF,C,506665,506665,505037,505949,505038,507065,506466,506466,507065,74
70,test,1,inc,1,z,Wed Feb 05 2025 15:41:54 GMT-0600 (Central Standard Time),511435.09999990463,gold,800,I,z,z,None,834,635.0,199.0,61,1,2176.0,509259.09999990463,00,plum,NF,C,508596,508596,507069,507882,507070,509245,508397,508397,509245,75
71,test,1,inc,1,m,Wed Feb 05 2025 15:41:54 GMT-0600 (Central Standard Time),513418.09999990463,plum,1100,I,m,m,None,335,118.0,217.0,104,1,1979.4000000953674,511438.69999980927,00,gold,NF,C,511097,511097,509249,510365,509249,511228,510880,510880,511228,76
71,test,1,inc,0,m,Wed Feb 05 2025 15:41:54 GMT-0600 (Central Standard Time),515435.90000009537,orange,1000,I,z,z,None,474,261.0,213.0,71,1,2013.1000003814697,513422.7999997139,00,bronze,NF,C,512978,512978,511233,512245,511234,513246,512764,512764,513246,77
72,test,1,con,1,m,Wed Feb 05 2025 15:41:54 GMT-0600 (Central Standard Time),517267.09999990463,bronze,800,I,m,m,None,484,284.0,200.0,65,1,1826.5999999046326,515440.5,00,bronze,NF,C,514779,514779,513251,514064,513251,515077,514579,514579,515077,78
73,test,1,inc,1,z,Wed Feb 05 2025 15:41:54 GMT-0600 (Central Standard Time),519168.40000009537,gold,800,I,z,z,None,566,366.0,200.0,53,1,1896.1000003814697,517272.2999997139,00,kiwi,NF,C,516612,516612,515082,515896,515084,516978,516412,516412,516978,79
74,test,1,inc,1,m,Wed Feb 05 2025 15:41:54 GMT-0600 (Central Standard Time),521083.2999997139,lime,800,I,m,m,None,567,368.0,199.0,117,1,1910.8999996185303,519172.40000009537,00,zinc,NF,C,518511,518511,516982,517794,516983,518893,518312,518312,518893,80
75,test,1,con,1,z,Wed Feb 05 2025 15:41:54 GMT-0600 (Central Standard Time),523185.69999980927,cherry,1000,I,z,z,None,568,353.0,215.0,11,1,2096.0999999046326,521089.59999990463,00,cherry,NF,C,520642,520642,518900,519912,518901,520996,520427,520427,520996,81
76,test,1,inc,1,z,Wed Feb 05 2025 15:41:54 GMT-0600 (Central Standard Time),525331.5,zinc,1000,I,z,z,None,608,409.0,199.0,63,1,2140.5999999046326,523190.90000009537,00,plum,NF,C,522726,522726,521001,522011,521002,523142,522527,522527,523142,82
77,test,1,inc,1,m,Wed Feb 05 2025 15:41:54 GMT-0600 (Central Standard Time),527298.0,orange,1000,I,m,m,None,420,221.0,199.0,87,1,1961.8000001907349,525336.1999998093,00,silver,NF,C,524874,524874,523146,524160,523147,525108,524675,524675,525108,83
78,test,1,con,1,z,Wed Feb 05 2025 15:41:54 GMT-0600 (Central Standard Time),529314.4000000954,kiwi,1000,I,z,z,None,468,269.0,199.0,51,1,2010.7000002861023,527303.6999998093,00,kiwi,NF,C,526842,526842,525114,526125,525114,527124,526642,526642,527124,84
79,test,1,inc,1,z,Wed Feb 05 2025 15:41:54 GMT-0600 (Central Standard Time),531228.2999997139,bronze,800,I,z,z,None,564,349.0,215.0,13,1,1909.5999999046326,529318.6999998093,00,cherry,NF,C,528673,528673,527129,527942,527129,529038,528458,528458,529038,85
80,test,1,inc,1,m,Wed Feb 05 2025 15:41:54 GMT-0600 (Central Standard Time),533044.2999997139,lime,800,I,m,m,None,479,264.0,215.0,101,1,1811.6999998092651,531232.5999999046,00,gold,NF,C,530590,530590,529043,529856,529044,530854,530375,530375,530854,86
81,test,1,con,1,z,Wed Feb 05 2025 15:41:54 GMT-0600 (Central Standard Time),535295.5,kiwi,900,I,z,z,None,806,606.0,200.0,50,1,2248.0,533047.5,00,kiwi,NF,C,532490,532490,530858,531774,530858,533106,532289,532289,533106,87
82,test,1,inc,1,m,Wed Feb 05 2025 15:41:54 GMT-0600 (Central Standard Time),537296.1999998093,cherry,900,I,m,m,None,553,339.0,214.0,94,1,1995.5999999046326,535300.5999999046,00,cobalt,NF,C,534755,534756,533111,534023,533111,535106,534541,534541,535106,88
83,test,1,inc,1,m,Wed Feb 05 2025 15:41:54 GMT-0600 (Central Standard Time),539794.0,plum,1100,I,m,m,None,859,646.0,213.0,120,1,2491.7000002861023,537302.2999997139,00,zinc,NF,C,536954,536955,535112,536223,535113,537604,536741,536741,537604,89
84,test,1,con,1,z,Wed Feb 05 2025 15:41:54 GMT-0600 (Central Standard Time),541928.4000000954,banana,1100,I,z,z,None,499,300.0,199.0,4,1,2129.300000190735,539799.0999999046,00,banana,NF,C,539438,539438,537609,538723,537610,539738,539239,539239,539738,90
85,test,1,con,1,m,Wed Feb 05 2025 15:41:54 GMT-0600 (Central Standard Time),544125.4000000954,bronze,1000,I,m,m,None,665,451.0,214.0,67,1,2191.5,541933.9000000954,00,bronze,NF,C,541484,541484,539744,540754,539745,541935,541270,541270,541935,91
86,test,1,con,1,m,Wed Feb 05 2025 15:41:54 GMT-0600 (Central Standard Time),545941.1999998093,iron,800,I,m,m,None,472,258.0,214.0,105,1,1810.9000000953674,544130.2999997139,00,iron,NF,C,543485,543485,541940,542752,541941,543751,543271,543271,543751,92
87,test,1,inc,1,m,Wed Feb 05 2025 15:41:54 GMT-0600 (Central Standard Time),548008.4000000954,pear,900,I,m,m,None,631,432.0,199.0,126,1,2062.5,545945.9000000954,00,lead,NF,C,545386,545386,543756,544670,543757,545818,545187,545187,545818,93
88,test,1,inc,1,z,Wed Feb 05 2025 15:41:54 GMT-0600 (Central Standard Time),550141.2999997139,silver,1000,I,z,z,None,582,383.0,199.0,15,1,2127.5,548013.7999997139,00,cherry,NF,C,547553,547553,545824,546835,545825,547951,547353,547353,547951,94
89,test,1,inc,1,z,Wed Feb 05 2025 15:41:54 GMT-0600 (Central Standard Time),552306.5999999046,zinc,1000,I,z,z,None,618,418.0,200.0,39,1,2160.199999809265,550146.4000000954,00,lime,NF,C,549685,549685,547956,548969,547957,550117,549484,549484,550117,95
90,test,1,con,1,z,Wed Feb 05 2025 15:41:54 GMT-0600 (Central Standard Time),554422.9000000954,raisin,800,I,z,z,None,771,557.0,214.0,25,1,2108.0,552314.9000000954,00,raisin,NF,C,551666,551667,550125,550935,550125,552233,551452,551452,552233,96
91,test,1,con,1,m,Wed Feb 05 2025 15:41:54 GMT-0600 (Central Standard Time),556355.4000000954,lead,900,I,m,m,None,492,276.0,216.0,122,1,1926.2000002861023,554429.1999998093,00,lead,NF,C,553883,553883,552239,553152,552240,554166,553667,553667,554165,97
92,test,1,con,1,z,Wed Feb 05 2025 15:41:54 GMT-0600 (Central Standard Time),558171.4000000954,plum,800,I,z,z,None,491,276.0,215.0,57,1,1810.0,556361.4000000954,00,plum,NF,C,555700,555700,554171,554982,554173,555981,555484,555484,555981,98
93,test,1,con,1,z,Wed Feb 05 2025 15:41:54 GMT-0600 (Central Standard Time),560254.4000000954,plum,1000,I,z,z,None,538,324.0,214.0,59,1,2075.0,558179.4000000954,00,plum,NF,C,557732,557732,555989,557000,555991,558064,557517,557517,558064,99
94,test,1,inc,1,m,Wed Feb 05 2025 15:41:54 GMT-0600 (Central Standard Time),562071.4000000954,banana,800,I,m,m,None,481,268.0,213.0,69,1,1808.4000000953674,560263.0,00,bronze,NF,C,559613,559613,558073,558883,558075,559882,559400,559400,559881,100
95,test,1,inc,1,m,Wed Feb 05 2025 15:41:54 GMT-0600 (Central Standard Time),564787.1999998093,kiwi,1000,I,m,m,None,1170,969.0,201.0,103,1,2707.0999999046326,562080.0999999046,00,gold,NF,C,561614,561614,559890,560896,559892,562597,561412,561412,562597,101
96,test,1,con,1,m,Wed Feb 05 2025 15:41:54 GMT-0600 (Central Standard Time),567051.0,iron,1100,I,m,m,None,622,409.0,213.0,108,1,2255.5999999046326,564795.4000000954,00,iron,NF,C,564446,564446,562605,563712,562607,564861,564232,564232,564861,102
97,test,1,inc,1,z,Wed Feb 05 2025 15:41:54 GMT-0600 (Central Standard Time),569336.2999997139,lead,1100,I,z,z,None,651,452.0,199.0,56,1,2278.7999997138977,567057.5,00,kiwi,NF,C,566694,566694,564868,565981,564868,567146,566495,566495,567146,103
98,test,1,inc,1,z,Wed Feb 05 2025 15:41:54 GMT-0600 (Central Standard Time),571851.0,lead,1100,I,z,z,None,876,661.0,215.0,40,1,2509.4000000953674,569341.5999999046,00,lime,NF,C,568995,568995,567152,568263,567153,569661,568780,568780,569661,104
99,test,1,inc,1,z,Wed Feb 05 2025 15:41:54 GMT-0600 (Central Standard Time),574015.5999999046,copper,900,I,z,z,None,727,513.0,214.0,22,1,2160.5999999046326,571855.0,00,orange,NF,C,571310,571310,569665,570579,569666,571826,571096,571096,571826,105
100,test,1,con,1,m,Wed Feb 05 2025 15:41:54 GMT-0600 (Central Standard Time),576099.9000000954,iron,1000,I,m,m,None,528,318.0,210.0,107,1,2074.5,574025.4000000954,00,iron,NF,C,573577,573577,571835,572844,571837,573910,573367,573367,573910,106
100,test,1,inc,0,m,Wed Feb 05 2025 15:41:54 GMT-0600 (Central Standard Time),578399.0,kiwi,1000,I,z,z,None,755,540.0,215.0,127,1,2289.7000002861023,576109.2999997139,00,lead,NF,C,575659,575659,573919,574928,573921,576209,575444,575444,576209,107
101,test,1,con,1,z,Wed Feb 05 2025 15:41:54 GMT-0600 (Central Standard Time),581131.9000000954,raisin,1100,I,z,z,None,1083,867.0,216.0,28,1,2723.300000190735,578408.5999999046,00,raisin,NF,C,578060,578060,576219,577326,576220,578942,577844,577844,578942,108
102,test,1,inc,1,z,Wed Feb 05 2025 15:41:54 GMT-0600 (Central Standard Time),583198.1999998093,silver,1000,I,z,z,None,517,318.0,199.0,7,1,2060.199999809265,581138.0,00,banana,NF,C,580674,580674,578948,579959,578949,581008,580475,580475,581008,109
103,test,1,con,1,m,Wed Feb 05 2025 15:41:54 GMT-0600 (Central Standard Time),585162.0,copper,900,I,m,m,None,543,327.0,216.0,74,1,1959.2000002861023,583202.7999997139,00,copper,NF,C,582641,582641,581013,581923,581014,582972,582425,582425,582972,110
104,test,1,con,1,m,Wed Feb 05 2025 15:41:54 GMT-0600 (Central Standard Time),587694.2999997139,bronze,1100,I,m,m,None,887,674.0,213.0,68,1,2526.8999996185303,585167.4000000954,00,bronze,NF,C,584822,584822,582977,584091,582978,585504,584608,584608,585504,111
105,test,1,con,1,m,Wed Feb 05 2025 15:41:54 GMT-0600 (Central Standard Time),589911.9000000954,silver,1100,I,m,m,None,582,366.0,216.0,84,1,2212.4000000953674,587699.5,00,silver,NF,C,587356,587356,585510,586623,585511,587722,587140,587140,587722,112
106,test,1,inc,1,z,Wed Feb 05 2025 15:41:54 GMT-0600 (Central Standard Time),591845.1999998093,gold,800,I,z,z,None,590,376.0,214.0,45,1,1928.0999999046326,589917.0999999046,00,pear,NF,C,589272,589272,587727,588539,587728,589655,589057,589057,589655,113
107,test,1,inc,1,z,Wed Feb 05 2025 15:41:54 GMT-0600 (Central Standard Time),593942.2999997139,zinc,1000,I,z,z,None,556,355.0,201.0,55,1,2092.3999996185303,591849.9000000954,00,kiwi,NF,C,591387,591387,589660,590672,589661,591752,591186,591186,591752,114
108,test,1,con,1,m,Wed Feb 05 2025 15:41:54 GMT-0600 (Central Standard Time),596111.5,lead,800,I,m,m,None,835,620.0,215.0,121,1,2166.5,593945.0,00,lead,NF,C,593301,593301,591755,592568,591756,593922,593086,593086,593921,115
109,test,1,inc,1,m,Wed Feb 05 2025 15:41:54 GMT-0600 (Central Standard Time),598025.1999998093,lime,800,I,m,m,None,569,351.0,218.0,109,1,1908.0999999046326,596117.0999999046,00,iron,NF,C,595472,595472,593927,594738,593928,595835,595254,595254,595835,116
110,test,1,inc,1,z,Wed Feb 05 2025 15:41:54 GMT-0600 (Central Standard Time),600128.0,cobalt,1100,I,z,z,None,467,252.0,215.0,16,1,2098.2000002861023,598029.7999997139,00,cherry,NF,C,597686,597686,595840,596954,595841,597938,597470,597470,597938,117
111,test,1,con,1,m,Wed Feb 05 2025 15:41:54 GMT-0600 (Central Standard Time),602092.2999997139,cobalt,800,I,m,m,None,619,415.0,204.0,89,1,1959.0999999046326,600133.1999998093,00,cobalt,NF,C,599472,599472,597943,598753,597944,599902,599267,599268,599902,118
112,test,1,inc,1,z,Wed Feb 05 2025 15:41:54 GMT-0600 (Central Standard Time),604157.7999997139,iron,900,I,z,z,None,616,417.0,199.0,62,1,2057.3999996185303,602100.4000000954,00,plum,NF,C,601534,601535,599910,600819,599912,601968,601335,601335,601968,119
113,test,1,con,1,z,Wed Feb 05 2025 15:41:54 GMT-0600 (Central Standard Time),606322.5999999046,raisin,900,I,z,z,None,727,527.0,200.0,26,1,2158.800000190735,604163.7999997139,00,raisin,NF,C,603601,603601,601974,602886,601975,604133,603401,603401,604133,120
114,test,1,con,1,z,Wed Feb 05 2025 15:41:54 GMT-0600 (Central Standard Time),608388.6999998093,raisin,1000,I,z,z,None,516,317.0,199.0,27,1,2061.9000000953674,606326.7999997139,00,raisin,NF,C,605867,605867,604137,605151,604138,606199,605667,605667,606199,121
115,test,1,inc,1,z,Wed Feb 05 2025 15:41:54 GMT-0600 (Central Standard Time),610488.5999999046,cobalt,1100,I,z,z,None,462,248.0,214.0,8,1,2092.199999809265,608396.4000000954,00,banana,NF,C,608049,608050,606206,607316,606207,608299,607835,607835,608299,122
116,test,1,con,1,z,Wed Feb 05 2025 15:41:54 GMT-0600 (Central Standard Time),612287.5999999046,orange,800,I,z,z,None,454,240.0,214.0,17,1,1793.6999998092651,610493.9000000954,00,orange,NF,C,609848,609848,608304,609116,608305,610098,609633,609633,610098,123
117,test,1,inc,1,z,Wed Feb 05 2025 15:41:54 GMT-0600 (Central Standard Time),614503.6999998093,lead,1100,I,z,z,None,571,357.0,214.0,48,1,2210.4000000953674,612293.2999997139,00,pear,NF,C,611947,611947,610103,611214,610104,612314,611732,611732,612314,124
118,test,1,inc,1,m,Wed Feb 05 2025 15:41:54 GMT-0600 (Central Standard Time),616318.9000000954,pear,900,I,m,m,None,371,157.0,214.0,118,1,1809.7000002861023,614509.1999998093,00,zinc,NF,C,613962,613962,612319,613232,612320,614129,613748,613748,614129,125
119,test,1,inc,1,z,Wed Feb 05 2025 15:41:54 GMT-0600 (Central Standard Time),618352.6999998093,lead,1100,I,z,z,None,396,181.0,215.0,64,1,2030.1999998092651,616322.5,00,plum,NF,C,615979,615979,614133,615248,614134,616163,615764,615764,616163,126
119,test,1,inc,0,m,Wed Feb 05 2025 15:41:54 GMT-0600 (Central Standard Time),620134.9000000954,lime,800,I,z,z,None,447,232.0,215.0,125,1,1777.0,618357.9000000954,00,lead,NF,C,617713,617713,616168,616979,616169,617945,617498,617498,617945,127
119,test,1,con,0,m,Wed Feb 05 2025 15:41:54 GMT-0600 (Central Standard Time),622086.1999998093,gold,1000,I,z,z,None,417,217.0,200.0,99,1,1945.9000000953674,620140.2999997139,00,gold,NF,C,619679,619679,617950,618962,617951,619896,619479,619479,619896,128
