acc_sum,block,block_c,change,condition,correct,correct_response,datetime,endtime,face,project,response,response_time,row_sel,session_number,start_end,starttime,subject_id,task,task_vers,trial
0,prac,1,,1-Back,,,Mon Feb 24 2025 18:25:33 GMT-0600 (Central Standard Time),,005_o_f_d_a.png,O,space,15163,1,1,,,7059,VNB,B,0
1,prac,1,0.0,1-Back,1,m,Mon Feb 24 2025 18:25:33 GMT-0600 (Central Standard Time),141316.20000001788,020_y_f_n_a.png,O,m,1152,2,1,2017.800000011921,139298.40000000596,7059,VNB,B,1
2,prac,1,0.0,1-Back,1,m,Mon Feb 24 2025 18:25:33 GMT-0600 (Central Standard Time),143512.70000001788,007_m_m_h_a.png,O,m,1302,3,1,2186.7000000178814,141326.0,7059,VNB,B,2
3,prac,1,0.0,1-Back,1,m,Mon Feb 24 2025 18:25:33 GMT-0600 (Central Standard Time),145695.5,016_y_m_d_a.png,O,m,1295,4,1,2172.2999999821186,143523.20000001788,7059,VNB,B,3
4,prac,1,0.0,1-Back,1,m,Mon Feb 24 2025 18:25:33 GMT-0600 (Central Standard Time),147712.5,005_o_f_n_a.png,O,m,1120,5,1,2007.5,145705.0,7059,VNB,B,4
5,prac,1,1.0,1-Back,1,z,Mon Feb 24 2025 18:25:33 GMT-0600 (Central Standard Time),149694.40000000596,016_y_m_n_a.png,O,z,1099,6,1,1973.2999999821186,147721.10000002384,7059,VNB,B,5
6,prac,1,0.0,1-Back,1,m,Mon Feb 24 2025 18:25:33 GMT-0600 (Central Standard Time),151444.60000002384,004_o_m_h_a.png,O,m,883,7,1,1741.1000000238419,149703.5,7059,VNB,B,6
7,prac,1,0.0,1-Back,1,m,Mon Feb 24 2025 18:25:33 GMT-0600 (Central Standard Time),153727.0,011_m_f_d_a.png,O,m,1410,8,1,2271.2999999821186,151455.70000001788,7059,VNB,B,7
8,prac,1,1.0,1-Back,1,z,Mon Feb 24 2025 18:25:33 GMT-0600 (Central Standard Time),156509.60000002384,020_y_f_d_a.png,O,z,1910,9,1,2773.5,153736.10000002384,7059,VNB,B,8
9,prac,1,0.0,1-Back,1,m,Mon Feb 24 2025 18:25:33 GMT-0600 (Central Standard Time),158624.30000001192,007_m_m_n_a.png,O,m,1227,10,1,2104.300000011921,156520.0,7059,VNB,B,9
10,prac,1,0.0,1-Back,1,m,Mon Feb 24 2025 18:25:33 GMT-0600 (Central Standard Time),160658.70000001788,005_o_f_h_a.png,O,m,1141,11,1,2024.0999999940395,158634.60000002384,7059,VNB,B,10
11,prac,1,0.0,1-Back,1,m,Mon Feb 24 2025 18:25:33 GMT-0600 (Central Standard Time),162789.80000001192,016_y_m_d_a.png,O,m,1238,12,1,2121.300000011921,160668.5,7059,VNB,B,11
0,test,1,0.0,1-Back,,,Mon Feb 24 2025 18:25:33 GMT-0600 (Central Standard Time),162789.80000001192,020_y_f_d_a.png,O,space,8414,1,1,2121.300000011921,160668.5,7059,VNB,B,0
1,test,1,0.0,1-Back,1,m,Mon Feb 24 2025 18:25:33 GMT-0600 (Central Standard Time),186900.30000001192,011_m_f_n_a.png,O,m,868,2,1,1894.5,185005.80000001192,7059,VNB,B,1
2,test,1,0.0,1-Back,1,m,Mon Feb 24 2025 18:25:33 GMT-0600 (Central Standard Time),189115.30000001192,004_o_m_h_a.png,O,m,1191,3,1,2207.9000000059605,186907.40000000596,7059,VNB,B,2
3,test,1,1.0,1-Back,1,z,Mon Feb 24 2025 18:25:33 GMT-0600 (Central Standard Time),190864.40000000596,007_m_m_h_a.png,O,z,719,4,1,1739.7999999821186,189124.60000002384,7059,VNB,B,3
4,test,1,0.0,1-Back,1,m,Mon Feb 24 2025 18:25:33 GMT-0600 (Central Standard Time),192680.5,005_o_f_n_a.png,O,m,788,5,1,1808.3999999761581,190872.10000002384,7059,VNB,B,4
5,test,1,0.0,1-Back,1,m,Mon Feb 24 2025 18:25:33 GMT-0600 (Central Standard Time),194844.10000002384,016_y_m_d_a.png,O,m,1130,6,1,2157.100000023842,192687.0,7059,VNB,B,5
6,test,1,1.0,1-Back,1,z,Mon Feb 24 2025 18:25:33 GMT-0600 (Central Standard Time),196995.80000001192,011_m_f_d_a.png,O,z,1117,7,1,2148.9000000059605,194846.90000000596,7059,VNB,B,6
7,test,1,0.0,1-Back,1,m,Mon Feb 24 2025 18:25:33 GMT-0600 (Central Standard Time),198895.80000001192,020_y_f_h_a.png,O,m,869,8,1,1892.9000000059605,197002.90000000596,7059,VNB,B,7
8,test,1,0.0,1-Back,1,m,Mon Feb 24 2025 18:25:33 GMT-0600 (Central Standard Time),201043.80000001192,004_o_m_n_a.png,O,m,1123,9,1,2139.4000000059605,198904.40000000596,7059,VNB,B,8
9,test,1,0.0,1-Back,1,m,Mon Feb 24 2025 18:25:33 GMT-0600 (Central Standard Time),202912.70000001788,016_y_m_h_a.png,O,m,850,10,1,1862.9000000059605,201049.80000001192,7059,VNB,B,9
10,test,1,0.0,1-Back,1,m,Mon Feb 24 2025 18:25:33 GMT-0600 (Central Standard Time),205026.90000000596,004_o_m_d_a.png,O,m,1084,11,1,2109.9000000059605,202917.0,7059,VNB,B,10
11,test,1,1.0,1-Back,1,z,Mon Feb 24 2025 18:25:33 GMT-0600 (Central Standard Time),206926.30000001192,005_o_f_d_a.png,O,z,873,12,1,1891.699999988079,205034.60000002384,7059,VNB,B,11
12,test,1,0.0,1-Back,1,m,Mon Feb 24 2025 18:25:33 GMT-0600 (Central Standard Time),208857.80000001192,007_m_m_n_a.png,O,m,908,13,1,1924.300000011921,206933.5,7059,VNB,B,12
13,test,1,1.0,1-Back,1,z,Mon Feb 24 2025 18:25:33 GMT-0600 (Central Standard Time),211075.30000001192,020_y_f_n_a.png,O,z,1183,14,1,2213.5,208861.80000001192,7059,VNB,B,13
14,test,1,0.0,1-Back,1,m,Mon Feb 24 2025 18:25:33 GMT-0600 (Central Standard Time),213023.20000001788,011_m_f_h_a.png,O,m,920,15,1,1940.7000000178814,211082.5,7059,VNB,B,14
15,test,1,0.0,1-Back,1,m,Mon Feb 24 2025 18:25:33 GMT-0600 (Central Standard Time),215240.10000002384,007_m_m_d_a.png,O,m,1189,16,1,2213.9000000059605,213026.20000001788,7059,VNB,B,15
16,test,1,0.0,1-Back,1,m,Mon Feb 24 2025 18:25:33 GMT-0600 (Central Standard Time),217355.10000002384,016_y_m_n_a.png,O,m,1091,17,1,2107.9000000059605,215247.20000001788,7059,VNB,B,16
17,test,1,0.0,1-Back,1,m,Mon Feb 24 2025 18:25:33 GMT-0600 (Central Standard Time),219587.40000000596,005_o_f_h_a.png,O,m,1205,18,1,2225.4000000059605,217362.0,7059,VNB,B,17
0,test,2,0.0,1-Back,,,Mon Feb 24 2025 18:25:33 GMT-0600 (Central Standard Time),219587.40000000596,016_y_m_n_a.png,O,space,2362,1,1,2225.4000000059605,217362.0,7059,VNB,B,0
1,test,2,0.0,1-Back,1,m,Mon Feb 24 2025 18:25:33 GMT-0600 (Central Standard Time),225923.0,020_y_f_h_a.png,O,m,934,2,1,1942.0999999940395,223980.90000000596,7059,VNB,B,1
2,test,2,1.0,1-Back,1,m,Mon Feb 24 2025 18:25:33 GMT-0600 (Central Standard Time),227952.40000000596,004_o_m_n_a.png,O,m,1012,3,1,2021.699999988079,225930.70000001788,7059,VNB,B,2
3,test,2,0.0,1-Back,1,m,Mon Feb 24 2025 18:25:33 GMT-0600 (Central Standard Time),230118.80000001192,011_m_f_d_a.png,O,m,1138,4,1,2159.199999988079,227959.60000002384,7059,VNB,B,3
4,test,2,0.0,1-Back,1,z,Mon Feb 24 2025 18:25:33 GMT-0600 (Central Standard Time),232083.70000001788,007_m_m_d_a.png,O,z,942,5,1,1958.800000011921,230124.90000000596,7059,VNB,B,4
5,test,2,0.0,1-Back,1,m,Mon Feb 24 2025 18:25:33 GMT-0600 (Central Standard Time),233984.90000000596,016_y_m_h_a.png,O,m,871,6,1,1896.5,232088.40000000596,7059,VNB,B,5
6,test,2,1.0,1-Back,1,z,Mon Feb 24 2025 18:25:33 GMT-0600 (Central Standard Time),236150.5,005_o_f_h_a.png,O,z,1131,7,1,2158.7999999821186,233991.70000001788,7059,VNB,B,6
7,test,2,0.0,1-Back,1,m,Mon Feb 24 2025 18:25:33 GMT-0600 (Central Standard Time),238265.90000000596,011_m_f_n_a.png,O,m,1093,8,1,2108.0,236157.90000000596,7059,VNB,B,7
8,test,2,0.0,1-Back,1,m,Mon Feb 24 2025 18:25:33 GMT-0600 (Central Standard Time),240432.10000002384,020_y_f_d_a.png,O,m,1149,9,1,2159.7000000178814,238272.40000000596,7059,VNB,B,8
9,test,2,0.0,1-Back,1,m,Mon Feb 24 2025 18:25:33 GMT-0600 (Central Standard Time),242414.40000000596,007_m_m_n_a.png,O,m,954,10,1,1973.699999988079,240440.70000001788,7059,VNB,B,9
10,test,2,1.0,1-Back,1,m,Mon Feb 24 2025 18:25:33 GMT-0600 (Central Standard Time),244432.60000002384,011_m_f_h_a.png,O,m,999,11,1,2010.9000000059605,242421.70000001788,7059,VNB,B,10
11,test,2,0.0,1-Back,1,z,Mon Feb 24 2025 18:25:33 GMT-0600 (Central Standard Time),246197.90000000596,004_o_m_h_a.png,O,z,742,12,1,1756.9000000059605,244441.0,7059,VNB,B,11
12,test,2,0.0,1-Back,1,m,Mon Feb 24 2025 18:25:33 GMT-0600 (Central Standard Time),248163.0,016_y_m_d_a.png,O,m,934,13,1,1958.5999999940395,246204.40000000596,7059,VNB,B,12
13,test,2,0.0,1-Back,1,m,Mon Feb 24 2025 18:25:33 GMT-0600 (Central Standard Time),250229.30000001192,005_o_f_n_a.png,O,m,1041,14,1,2058.699999988079,248170.60000002384,7059,VNB,B,13
14,test,2,0.0,1-Back,1,z,Mon Feb 24 2025 18:25:33 GMT-0600 (Central Standard Time),252345.30000001192,020_y_f_n_a.png,O,z,1087,15,1,2109.0,250236.30000001192,7059,VNB,B,14
15,test,2,1.0,1-Back,1,m,Mon Feb 24 2025 18:25:33 GMT-0600 (Central Standard Time),254344.80000001192,007_m_m_h_a.png,O,m,970,16,1,1989.699999988079,252355.10000002384,7059,VNB,B,15
16,test,2,0.0,1-Back,1,m,Mon Feb 24 2025 18:25:33 GMT-0600 (Central Standard Time),256394.20000001788,005_o_f_d_a.png,O,m,1020,17,1,2041.0999999940395,254353.10000002384,7059,VNB,B,16
17,test,2,1.0,1-Back,1,z,Mon Feb 24 2025 18:25:33 GMT-0600 (Central Standard Time),258178.10000002384,004_o_m_d_a.png,O,z,767,18,1,1776.800000011921,256401.30000001192,7059,VNB,B,17
0,test,3,1.0,1-Back,,,Mon Feb 24 2025 18:25:33 GMT-0600 (Central Standard Time),258178.10000002384,005_o_f_h_a.png,O,space,2097,1,1,1776.800000011921,256401.30000001192,7059,VNB,B,0
1,test,3,0.0,1-Back,1,m,Mon Feb 24 2025 18:25:33 GMT-0600 (Central Standard Time),264508.3000000119,011_m_f_d_a.png,O,m,1067,2,1,2091.800000011921,262416.5,7059,VNB,B,1
2,test,3,1.0,1-Back,1,m,Mon Feb 24 2025 18:25:33 GMT-0600 (Central Standard Time),266491.40000000596,007_m_m_n_a.png,O,m,951,3,1,1974.5999999940395,264516.8000000119,7059,VNB,B,2
3,test,3,0.0,1-Back,1,z,Mon Feb 24 2025 18:25:33 GMT-0600 (Central Standard Time),268573.5,005_o_f_n_a.png,O,z,1065,4,1,2075.5,266498.0,7059,VNB,B,3
4,test,3,1.0,1-Back,1,m,Mon Feb 24 2025 18:25:33 GMT-0600 (Central Standard Time),270855.10000002384,004_o_m_d_a.png,O,m,1255,5,1,2274.800000011921,268580.3000000119,7059,VNB,B,4
5,test,3,0.0,1-Back,1,m,Mon Feb 24 2025 18:25:33 GMT-0600 (Central Standard Time),272921.5,020_y_f_h_a.png,O,m,1045,6,1,2058.5,270863.0,7059,VNB,B,5
6,test,3,0.0,1-Back,1,z,Mon Feb 24 2025 18:25:33 GMT-0600 (Central Standard Time),274638.0,016_y_m_h_a.png,O,z,698,7,1,1709.699999988079,272928.3000000119,7059,VNB,B,6
7,test,3,0.0,1-Back,1,m,Mon Feb 24 2025 18:25:33 GMT-0600 (Central Standard Time),276454.40000000596,011_m_f_n_a.png,O,m,789,8,1,1806.699999988079,274647.7000000179,7059,VNB,B,7
8,test,3,0.0,1-Back,1,m,Mon Feb 24 2025 18:25:33 GMT-0600 (Central Standard Time),278238.2000000179,020_y_f_d_a.png,O,m,767,9,1,1776.0999999940395,276462.10000002384,7059,VNB,B,8
9,test,3,1.0,1-Back,1,m,Mon Feb 24 2025 18:25:33 GMT-0600 (Central Standard Time),280135.7000000179,004_o_m_n_a.png,O,m,878,10,1,1891.0999999940395,278244.60000002384,7059,VNB,B,9
10,test,3,0.0,1-Back,1,m,Mon Feb 24 2025 18:25:33 GMT-0600 (Central Standard Time),281918.8000000119,007_m_m_h_a.png,O,m,764,11,1,1774.699999988079,280144.10000002384,7059,VNB,B,10
11,test,3,0.0,1-Back,1,z,Mon Feb 24 2025 18:25:33 GMT-0600 (Central Standard Time),283851.5,011_m_f_h_a.png,O,z,909,12,1,1926.2999999821186,281925.2000000179,7059,VNB,B,11
12,test,3,1.0,1-Back,1,m,Mon Feb 24 2025 18:25:33 GMT-0600 (Central Standard Time),285748.8000000119,005_o_f_d_a.png,O,m,880,13,1,1890.4000000059605,283858.40000000596,7059,VNB,B,12
13,test,3,0.0,1-Back,1,z,Mon Feb 24 2025 18:25:33 GMT-0600 (Central Standard Time),287867.5,007_m_m_d_a.png,O,z,1094,14,1,2115.0999999940395,285752.40000000596,7059,VNB,B,13
14,test,3,0.0,1-Back,1,m,Mon Feb 24 2025 18:25:33 GMT-0600 (Central Standard Time),289682.40000000596,016_y_m_n_a.png,O,m,790,15,1,1806.5999999940395,287875.8000000119,7059,VNB,B,14
15,test,3,1.0,1-Back,1,m,Mon Feb 24 2025 18:25:33 GMT-0600 (Central Standard Time),291399.8000000119,004_o_m_h_a.png,O,m,694,16,1,1709.800000011921,289690.0,7059,VNB,B,15
16,test,3,0.0,1-Back,1,m,Mon Feb 24 2025 18:25:33 GMT-0600 (Central Standard Time),293199.5,016_y_m_d_a.png,O,m,780,17,1,1790.0,291409.5,7059,VNB,B,16
17,test,3,1.0,1-Back,1,m,Mon Feb 24 2025 18:25:33 GMT-0600 (Central Standard Time),295099.40000000596,020_y_f_n_a.png,O,m,852,18,1,1888.199999988079,293211.2000000179,7059,VNB,B,17
0,test,4,1.0,1-Back,,,Mon Feb 24 2025 18:25:33 GMT-0600 (Central Standard Time),295099.40000000596,007_m_m_d_a.png,O,space,2024,1,1,1888.199999988079,293211.2000000179,7059,VNB,B,0
1,test,4,0.0,1-Back,1,z,Mon Feb 24 2025 18:25:33 GMT-0600 (Central Standard Time),301546.90000000596,004_o_m_d_a.png,O,z,1383,2,1,2407.699999988079,299139.2000000179,7059,VNB,B,1
2,test,4,0.0,1-Back,1,m,Mon Feb 24 2025 18:25:33 GMT-0600 (Central Standard Time),303379.5,016_y_m_h_a.png,O,m,801,3,1,1823.3999999761581,301556.10000002384,7059,VNB,B,2
3,test,4,0.0,1-Back,1,m,Mon Feb 24 2025 18:25:33 GMT-0600 (Central Standard Time),305163.5,011_m_f_n_a.png,O,m,753,4,1,1774.0,303389.5,7059,VNB,B,3
4,test,4,1.0,1-Back,1,m,Mon Feb 24 2025 18:25:33 GMT-0600 (Central Standard Time),307179.2000000179,005_o_f_h_a.png,O,m,993,5,1,2008.0999999940395,305171.10000002384,7059,VNB,B,4
5,test,4,0.0,1-Back,1,m,Mon Feb 24 2025 18:25:33 GMT-0600 (Central Standard Time),308976.90000000596,007_m_m_n_a.png,O,m,776,6,1,1791.9000000059605,307185.0,7059,VNB,B,5
6,test,4,0.0,1-Back,1,m,Mon Feb 24 2025 18:25:33 GMT-0600 (Central Standard Time),310859.90000000596,016_y_m_d_a.png,O,m,859,7,1,1874.199999988079,308985.7000000179,7059,VNB,B,6
7,test,4,1.0,1-Back,1,z,Mon Feb 24 2025 18:25:33 GMT-0600 (Central Standard Time),312959.2000000179,020_y_f_d_a.png,O,z,1072,8,1,2091.7000000178814,310867.5,7059,VNB,B,7
8,test,4,0.0,1-Back,1,m,Mon Feb 24 2025 18:25:33 GMT-0600 (Central Standard Time),314959.60000002384,011_m_f_h_a.png,O,m,982,9,1,1993.4000000059605,312966.2000000179,7059,VNB,B,8
9,test,4,0.0,1-Back,1,z,Mon Feb 24 2025 18:25:33 GMT-0600 (Central Standard Time),317058.40000000596,004_o_m_h_a.png,O,z,1076,10,1,2088.5999999940395,314969.8000000119,7059,VNB,B,9
10,test,4,1.0,1-Back,1,m,Mon Feb 24 2025 18:25:33 GMT-0600 (Central Standard Time),318925.90000000596,005_o_f_n_a.png,O,m,849,11,1,1863.5,317062.40000000596,7059,VNB,B,10
11,test,4,0.0,1-Back,1,m,Mon Feb 24 2025 18:25:33 GMT-0600 (Central Standard Time),321206.2000000179,011_m_f_d_a.png,O,m,1255,12,1,2275.0999999940395,318931.10000002384,7059,VNB,B,11
12,test,4,0.0,1-Back,1,m,Mon Feb 24 2025 18:25:33 GMT-0600 (Central Standard Time),323672.40000000596,020_y_f_n_a.png,O,m,1437,13,1,2458.199999988079,321214.2000000179,7059,VNB,B,12
13,test,4,0.0,1-Back,1,m,Mon Feb 24 2025 18:25:33 GMT-0600 (Central Standard Time),326105.2000000179,005_o_f_d_a.png,O,m,1416,14,1,2423.9000000059605,323681.3000000119,7059,VNB,B,13
14,test,4,0.0,1-Back,1,m,Mon Feb 24 2025 18:25:33 GMT-0600 (Central Standard Time),328138.3000000119,020_y_f_h_a.png,O,m,1003,15,1,2025.4000000059605,326112.90000000596,7059,VNB,B,14
15,test,4,1.0,1-Back,1,z,Mon Feb 24 2025 18:25:33 GMT-0600 (Central Standard Time),329787.0,007_m_m_h_a.png,O,z,626,16,1,1641.199999988079,328145.8000000119,7059,VNB,B,15
16,test,4,0.0,1-Back,1,m,Mon Feb 24 2025 18:25:33 GMT-0600 (Central Standard Time),331803.5,004_o_m_n_a.png,O,m,992,17,1,2008.699999988079,329794.8000000119,7059,VNB,B,16
17,test,4,1.0,1-Back,1,z,Mon Feb 24 2025 18:25:33 GMT-0600 (Central Standard Time),333552.7000000179,016_y_m_n_a.png,O,z,732,18,1,1739.9000000059605,331812.8000000119,7059,VNB,B,17
0,test,5,1.0,1-Back,,,Mon Feb 24 2025 18:25:33 GMT-0600 (Central Standard Time),333552.7000000179,004_o_m_n_a.png,O,space,1412,1,1,1739.9000000059605,331812.8000000119,7059,VNB,B,0
1,test,5,1.0,1-Back,1,m,Mon Feb 24 2025 18:25:33 GMT-0600 (Central Standard Time),338853.7000000179,005_o_f_h_a.png,O,m,842,2,1,1858.800000011921,336994.90000000596,7059,VNB,B,1
2,test,5,0.0,1-Back,1,m,Mon Feb 24 2025 18:25:33 GMT-0600 (Central Standard Time),340667.60000002384,016_y_m_d_a.png,O,m,793,3,1,1811.0,338856.60000002384,7059,VNB,B,2
3,test,5,0.0,1-Back,1,z,Mon Feb 24 2025 18:25:33 GMT-0600 (Central Standard Time),342532.60000002384,004_o_m_d_a.png,O,z,840,4,1,1858.5,340674.10000002384,7059,VNB,B,3
4,test,5,0.0,1-Back,1,m,Mon Feb 24 2025 18:25:33 GMT-0600 (Central Standard Time),344283.60000002384,011_m_f_h_a.png,O,m,718,5,1,1742.9000000059605,342540.7000000179,7059,VNB,B,4
5,test,5,0.0,1-Back,1,m,Mon Feb 24 2025 18:25:33 GMT-0600 (Central Standard Time),346132.5,020_y_f_n_a.png,O,m,825,6,1,1840.5,344292.0,7059,VNB,B,5
6,test,5,1.0,1-Back,1,z,Mon Feb 24 2025 18:25:33 GMT-0600 (Central Standard Time),348016.10000002384,005_o_f_n_a.png,O,z,866,7,1,1876.7000000178814,346139.40000000596,7059,VNB,B,6
7,test,5,0.0,1-Back,1,m,Mon Feb 24 2025 18:25:33 GMT-0600 (Central Standard Time),349930.0,011_m_f_d_a.png,O,m,892,8,1,1906.5999999940395,348023.40000000596,7059,VNB,B,7
8,test,5,0.0,1-Back,1,m,Mon Feb 24 2025 18:25:33 GMT-0600 (Central Standard Time),351731.0,016_y_m_h_a.png,O,m,769,9,1,1793.8999999761581,349937.10000002384,7059,VNB,B,8
9,test,5,0.0,1-Back,1,m,Mon Feb 24 2025 18:25:33 GMT-0600 (Central Standard Time),353513.8000000119,020_y_f_d_a.png,O,m,754,10,1,1775.4000000059605,351738.40000000596,7059,VNB,B,9
10,test,5,0.0,1-Back,1,m,Mon Feb 24 2025 18:25:33 GMT-0600 (Central Standard Time),355214.40000000596,007_m_m_n_a.png,O,m,675,11,1,1692.0,353522.40000000596,7059,VNB,B,10
11,test,5,1.0,1-Back,1,z,Mon Feb 24 2025 18:25:33 GMT-0600 (Central Standard Time),357028.8000000119,011_m_f_n_a.png,O,z,783,12,1,1807.300000011921,355221.5,7059,VNB,B,11
12,test,5,0.0,1-Back,1,m,Mon Feb 24 2025 18:25:33 GMT-0600 (Central Standard Time),358712.90000000596,004_o_m_h_a.png,O,m,666,13,1,1676.9000000059605,357036.0,7059,VNB,B,12
13,test,5,0.0,1-Back,1,z,Mon Feb 24 2025 18:25:33 GMT-0600 (Central Standard Time),360743.90000000596,007_m_m_h_a.png,O,z,1005,14,1,2025.5,358718.40000000596,7059,VNB,B,13
14,test,5,1.0,1-Back,1,m,Mon Feb 24 2025 18:25:33 GMT-0600 (Central Standard Time),362627.3000000119,005_o_f_d_a.png,O,m,852,15,1,1875.800000011921,360751.5,7059,VNB,B,14
15,test,5,0.0,1-Back,1,m,Mon Feb 24 2025 18:25:33 GMT-0600 (Central Standard Time),364626.2000000179,016_y_m_n_a.png,O,m,979,16,1,1991.0,362635.2000000179,7059,VNB,B,15
16,test,5,0.0,1-Back,1,m,Mon Feb 24 2025 18:25:33 GMT-0600 (Central Standard Time),366360.2000000179,020_y_f_h_a.png,O,m,717,17,1,1725.7000000178814,364634.5,7059,VNB,B,16
17,test,5,0.0,1-Back,1,m,Mon Feb 24 2025 18:25:33 GMT-0600 (Central Standard Time),368160.10000002384,007_m_m_d_a.png,O,m,784,18,1,1795.1000000238419,366365.0,7059,VNB,B,17
0,prac,1,0.0,2-Back,,,Mon Feb 24 2025 18:25:33 GMT-0600 (Central Standard Time),368160.10000002384,011_m_f_n_a.png,O,space,6829,1,1,1795.1000000238419,366365.0,7059,VNB,B,0
0,prac,1,0.0,2-Back,,,Mon Feb 24 2025 18:25:33 GMT-0600 (Central Standard Time),368160.10000002384,005_o_f_h_a.png,O,space,6829,2,1,1795.1000000238419,366365.0,7059,VNB,B,0
1,prac,1,0.0,2-Back,1,m,Mon Feb 24 2025 18:25:33 GMT-0600 (Central Standard Time),485922.5,004_o_m_d_a.png,O,m,1390,3,1,2243.7999999821186,483678.7000000179,7059,VNB,B,1
2,prac,1,1.0,2-Back,1,z,Mon Feb 24 2025 18:25:33 GMT-0600 (Central Standard Time),488238.40000000596,007_m_m_h_a.png,O,z,1419,4,1,2306.199999988079,485932.2000000179,7059,VNB,B,2
3,prac,1,0.0,2-Back,1,m,Mon Feb 24 2025 18:25:33 GMT-0600 (Central Standard Time),490935.60000002384,020_y_f_n_a.png,O,m,1825,5,1,2688.600000023842,488247.0,7059,VNB,B,3
3,prac,1,1.0,2-Back,0,z,Mon Feb 24 2025 18:25:33 GMT-0600 (Central Standard Time),493086.8000000119,004_o_m_h_a.png,O,m,1285,6,1,2142.699999988079,490944.10000002384,7059,VNB,B,4
4,prac,1,1.0,2-Back,1,z,Mon Feb 24 2025 18:25:33 GMT-0600 (Central Standard Time),495386.8000000119,016_y_m_n_a.png,O,z,1408,7,1,2291.4000000059605,493095.40000000596,7059,VNB,B,5
5,prac,1,0.0,2-Back,1,m,Mon Feb 24 2025 18:25:33 GMT-0600 (Central Standard Time),498050.40000000596,011_m_f_d_a.png,O,m,1775,8,1,2654.699999988079,495395.7000000179,7059,VNB,B,6
6,prac,1,0.0,2-Back,1,m,Mon Feb 24 2025 18:25:33 GMT-0600 (Central Standard Time),500832.60000002384,005_o_f_d_a.png,O,m,1881,9,1,2773.9000000059605,498058.7000000179,7059,VNB,B,7
7,prac,1,0.0,2-Back,1,m,Mon Feb 24 2025 18:25:33 GMT-0600 (Central Standard Time),503482.2000000179,007_m_m_h_a.png,O,m,1867,10,1,2640.7000000178814,500841.5,7059,VNB,B,8
8,prac,1,1.0,2-Back,1,z,Mon Feb 24 2025 18:25:33 GMT-0600 (Central Standard Time),505332.10000002384,020_y_f_d_a.png,O,z,974,11,1,1843.0,503489.10000002384,7059,VNB,B,9
9,prac,1,0.0,2-Back,1,m,Mon Feb 24 2025 18:25:33 GMT-0600 (Central Standard Time),507646.90000000596,004_o_m_n_a.png,O,m,1435,12,1,2306.5,505340.40000000596,7059,VNB,B,10
0,test,1,0.0,2-Back,,,Mon Feb 24 2025 18:25:33 GMT-0600 (Central Standard Time),507646.90000000596,016_y_m_h_a.png,O,space,6990,1,1,2306.5,505340.40000000596,7059,VNB,B,0
0,test,1,0.0,2-Back,,,Mon Feb 24 2025 18:25:33 GMT-0600 (Central Standard Time),507646.90000000596,005_o_f_n_a.png,O,space,6990,2,1,2306.5,505340.40000000596,7059,VNB,B,0
1,test,1,0.0,2-Back,1,z,Mon Feb 24 2025 18:25:33 GMT-0600 (Central Standard Time),527341.7000000179,004_o_m_h_a.png,O,z,1199,3,1,2224.9000000059605,525116.8000000119,7059,VNB,B,1
2,test,1,0.0,2-Back,1,m,Mon Feb 24 2025 18:25:33 GMT-0600 (Central Standard Time),529774.5,011_m_f_d_a.png,O,m,1415,4,1,2424.7999999821186,527349.7000000179,7059,VNB,B,2
2,test,1,1.0,2-Back,0,m,Mon Feb 24 2025 18:25:33 GMT-0600 (Central Standard Time),532807.1000000238,016_y_m_n_a.png,O,None,2016,5,1,3024.7000000178814,529782.400000006,7059,VNB,B,3
2,test,1,0.0,2-Back,0,z,Mon Feb 24 2025 18:25:33 GMT-0600 (Central Standard Time),535105.6000000238,020_y_f_d_a.png,O,m,1269,6,1,2288.800000011921,532816.8000000119,7059,VNB,B,4
3,test,1,0.0,2-Back,1,m,Mon Feb 24 2025 18:25:33 GMT-0600 (Central Standard Time),537555.5,007_m_m_h_a.png,O,m,1419,7,1,2439.899999976158,535115.6000000238,7059,VNB,B,5
4,test,1,1.0,2-Back,1,m,Mon Feb 24 2025 18:25:33 GMT-0600 (Central Standard Time),539537.5,020_y_f_n_a.png,O,m,952,8,1,1974.2999999821186,537563.2000000179,7059,VNB,B,6
5,test,1,0.0,2-Back,1,z,Mon Feb 24 2025 18:25:33 GMT-0600 (Central Standard Time),541319.900000006,005_o_f_h_a.png,O,z,754,9,1,1773.4000000059605,539546.5,7059,VNB,B,7
6,test,1,0.0,2-Back,1,m,Mon Feb 24 2025 18:25:33 GMT-0600 (Central Standard Time),544086.7000000179,004_o_m_d_a.png,O,m,1749,10,1,2759.300000011921,541327.400000006,7059,VNB,B,8
7,test,1,1.0,2-Back,1,m,Mon Feb 24 2025 18:25:33 GMT-0600 (Central Standard Time),546868.400000006,007_m_m_d_a.png,O,m,1758,11,1,2775.0999999940395,544093.3000000119,7059,VNB,B,9
8,test,1,0.0,2-Back,1,m,Mon Feb 24 2025 18:25:33 GMT-0600 (Central Standard Time),549318.7000000179,011_m_f_n_a.png,O,m,1424,12,1,2443.5999999940395,546875.1000000238,7059,VNB,B,10
9,test,1,0.0,2-Back,1,m,Mon Feb 24 2025 18:25:33 GMT-0600 (Central Standard Time),551400.2000000179,020_y_f_h_a.png,O,m,1052,13,1,2071.5,549328.7000000179,7059,VNB,B,11
10,test,1,0.0,2-Back,1,z,Mon Feb 24 2025 18:25:33 GMT-0600 (Central Standard Time),553335.1000000238,007_m_m_n_a.png,O,z,901,14,1,1927.1000000238419,551408.0,7059,VNB,B,12
11,test,1,0.0,2-Back,1,m,Mon Feb 24 2025 18:25:33 GMT-0600 (Central Standard Time),556180.8000000119,016_y_m_d_a.png,O,m,1822,15,1,2837.199999988079,553343.6000000238,7059,VNB,B,13
11,test,1,1.0,2-Back,0,m,Mon Feb 24 2025 18:25:33 GMT-0600 (Central Standard Time),558563.3000000119,011_m_f_h_a.png,O,z,1357,16,1,2376.199999988079,556187.1000000238,7059,VNB,B,14
12,test,1,0.0,2-Back,1,z,Mon Feb 24 2025 18:25:33 GMT-0600 (Central Standard Time),560830.5,005_o_f_d_a.png,O,z,1247,17,1,2264.5999999940395,558565.900000006,7059,VNB,B,15
13,test,1,0.0,2-Back,1,m,Mon Feb 24 2025 18:25:33 GMT-0600 (Central Standard Time),563414.6000000238,004_o_m_n_a.png,O,m,1567,18,1,2575.9000000059605,560838.7000000179,7059,VNB,B,16
0,test,2,0.0,2-Back,,,Mon Feb 24 2025 18:25:33 GMT-0600 (Central Standard Time),563414.6000000238,007_m_m_h_a.png,O,space,1630,1,1,2575.9000000059605,560838.7000000179,7059,VNB,B,0
0,test,2,0.0,2-Back,,,Mon Feb 24 2025 18:25:33 GMT-0600 (Central Standard Time),563414.6000000238,020_y_f_n_a.png,O,space,1630,2,1,2575.9000000059605,560838.7000000179,7059,VNB,B,0
1,test,2,1.0,2-Back,1,z,Mon Feb 24 2025 18:25:33 GMT-0600 (Central Standard Time),572659.900000006,005_o_f_h_a.png,O,z,1326,3,1,2337.5,570322.400000006,7059,VNB,B,1
2,test,2,0.0,2-Back,1,m,Mon Feb 24 2025 18:25:33 GMT-0600 (Central Standard Time),575159.8000000119,004_o_m_d_a.png,O,m,1471,4,1,2491.5999999940395,572668.2000000179,7059,VNB,B,2
2,test,2,0.0,2-Back,0,m,Mon Feb 24 2025 18:25:33 GMT-0600 (Central Standard Time),578191.7000000179,011_m_f_d_a.png,O,None,2014,5,1,3024.300000011921,575167.400000006,7059,VNB,B,3
2,test,2,0.0,2-Back,0,m,Mon Feb 24 2025 18:25:33 GMT-0600 (Central Standard Time),580991.0,016_y_m_h_a.png,O,z,1781,6,1,2790.5,578200.5,7059,VNB,B,4
2,test,2,0.0,2-Back,0,m,Mon Feb 24 2025 18:25:33 GMT-0600 (Central Standard Time),583639.7000000179,005_o_f_n_a.png,O,z,1621,7,1,2641.5,580998.2000000179,7059,VNB,B,5
2,test,2,1.0,2-Back,0,z,Mon Feb 24 2025 18:25:33 GMT-0600 (Central Standard Time),586272.5,004_o_m_h_a.png,O,m,1603,8,1,2625.199999988079,583647.3000000119,7059,VNB,B,6
3,test,2,0.0,2-Back,1,m,Mon Feb 24 2025 18:25:33 GMT-0600 (Central Standard Time),589121.5,020_y_f_d_a.png,O,m,1828,9,1,2841.899999976158,586279.6000000238,7059,VNB,B,7
4,test,2,0.0,2-Back,1,m,Mon Feb 24 2025 18:25:33 GMT-0600 (Central Standard Time),591589.400000006,016_y_m_d_a.png,O,m,1452,10,1,2460.0,589129.400000006,7059,VNB,B,8
5,test,2,0.0,2-Back,1,m,Mon Feb 24 2025 18:25:33 GMT-0600 (Central Standard Time),594369.5,007_m_m_n_a.png,O,m,1751,11,1,2772.0999999940395,591597.400000006,7059,VNB,B,9
6,test,2,0.0,2-Back,1,m,Mon Feb 24 2025 18:25:33 GMT-0600 (Central Standard Time),597135.0,011_m_f_h_a.png,O,m,1738,12,1,2758.899999976158,594376.1000000238,7059,VNB,B,10
7,test,2,1.0,2-Back,1,z,Mon Feb 24 2025 18:25:33 GMT-0600 (Central Standard Time),599435.0,004_o_m_n_a.png,O,z,1267,13,1,2297.199999988079,597137.8000000119,7059,VNB,B,11
8,test,2,0.0,2-Back,1,m,Mon Feb 24 2025 18:25:33 GMT-0600 (Central Standard Time),602367.2000000179,005_o_f_d_a.png,O,m,1915,14,1,2925.5999999940395,599441.6000000238,7059,VNB,B,12
8,test,2,0.0,2-Back,0,m,Mon Feb 24 2025 18:25:33 GMT-0600 (Central Standard Time),605399.900000006,020_y_f_h_a.png,O,None,2016,15,1,3022.9000000059605,602377.0,7059,VNB,B,13
9,test,2,0.0,2-Back,1,z,Mon Feb 24 2025 18:25:33 GMT-0600 (Central Standard Time),607948.7000000179,007_m_m_d_a.png,O,z,1516,16,1,2540.5,605408.2000000179,7059,VNB,B,14
10,test,2,0.0,2-Back,1,m,Mon Feb 24 2025 18:25:33 GMT-0600 (Central Standard Time),610766.900000006,016_y_m_n_a.png,O,m,1782,17,1,2812.2999999821186,607954.6000000238,7059,VNB,B,15
11,test,2,1.0,2-Back,1,m,Mon Feb 24 2025 18:25:33 GMT-0600 (Central Standard Time),613032.0,011_m_f_n_a.png,O,m,1250,18,1,2257.5,610774.5,7059,VNB,B,16
0,test,3,1.0,2-Back,,,Mon Feb 24 2025 18:25:33 GMT-0600 (Central Standard Time),613032.0,004_o_m_n_a.png,O,space,1732,1,1,2257.5,610774.5,7059,VNB,B,0
0,test,3,1.0,2-Back,,,Mon Feb 24 2025 18:25:33 GMT-0600 (Central Standard Time),613032.0,005_o_f_d_a.png,O,space,1732,2,1,2257.5,610774.5,7059,VNB,B,0
1,test,3,0.0,2-Back,1,m,Mon Feb 24 2025 18:25:33 GMT-0600 (Central Standard Time),621912.7000000179,020_y_f_h_a.png,O,m,983,3,1,1995.2000000178814,619917.5,7059,VNB,B,1
2,test,3,0.0,2-Back,1,z,Mon Feb 24 2025 18:25:33 GMT-0600 (Central Standard Time),624210.5,011_m_f_d_a.png,O,z,1269,4,1,2288.7999999821186,621921.7000000179,7059,VNB,B,2
3,test,3,1.0,2-Back,1,m,Mon Feb 24 2025 18:25:33 GMT-0600 (Central Standard Time),626960.7000000179,016_y_m_n_a.png,O,m,1731,5,1,2744.5,624216.2000000179,7059,VNB,B,3
3,test,3,0.0,2-Back,0,m,Mon Feb 24 2025 18:25:33 GMT-0600 (Central Standard Time),629943.1000000238,004_o_m_h_a.png,O,z,1967,6,1,2976.300000011921,626966.8000000119,7059,VNB,B,4
4,test,3,0.0,2-Back,1,z,Mon Feb 24 2025 18:25:33 GMT-0600 (Central Standard Time),632507.3000000119,020_y_f_n_a.png,O,z,1534,7,1,2557.699999988079,629949.6000000238,7059,VNB,B,5
5,test,3,1.0,2-Back,1,m,Mon Feb 24 2025 18:25:33 GMT-0600 (Central Standard Time),634941.2000000179,007_m_m_d_a.png,O,m,1400,8,1,2425.9000000059605,632515.3000000119,7059,VNB,B,6
6,test,3,0.0,2-Back,1,m,Mon Feb 24 2025 18:25:33 GMT-0600 (Central Standard Time),637607.0,016_y_m_d_a.png,O,m,1642,9,1,2657.2999999821186,634949.7000000179,7059,VNB,B,7
7,test,3,0.0,2-Back,1,m,Mon Feb 24 2025 18:25:33 GMT-0600 (Central Standard Time),639823.400000006,005_o_f_h_a.png,O,m,1199,10,1,2209.2999999821186,637614.1000000238,7059,VNB,B,8
8,test,3,1.0,2-Back,1,m,Mon Feb 24 2025 18:25:33 GMT-0600 (Central Standard Time),642505.8000000119,011_m_f_n_a.png,O,m,1662,11,1,2676.0999999940395,639829.7000000179,7059,VNB,B,9
9,test,3,1.0,2-Back,1,z,Mon Feb 24 2025 18:25:33 GMT-0600 (Central Standard Time),645137.0,007_m_m_h_a.png,O,z,1611,12,1,2623.399999976158,642513.6000000238,7059,VNB,B,10
10,test,3,0.0,2-Back,1,m,Mon Feb 24 2025 18:25:33 GMT-0600 (Central Standard Time),647821.2000000179,020_y_f_d_a.png,O,m,1659,13,1,2675.7000000178814,645145.5,7059,VNB,B,11
10,test,3,0.0,2-Back,0,m,Mon Feb 24 2025 18:25:33 GMT-0600 (Central Standard Time),650852.2000000179,005_o_f_n_a.png,O,None,2015,14,1,3021.800000011921,647830.400000006,7059,VNB,B,12
11,test,3,0.0,2-Back,1,z,Mon Feb 24 2025 18:25:33 GMT-0600 (Central Standard Time),653351.3000000119,004_o_m_d_a.png,O,z,1481,15,1,2490.5999999940395,650860.7000000179,7059,VNB,B,13
12,test,3,1.0,2-Back,1,m,Mon Feb 24 2025 18:25:33 GMT-0600 (Central Standard Time),656184.1000000238,011_m_f_h_a.png,O,m,1813,16,1,2825.5,653358.6000000238,7059,VNB,B,14
12,test,3,0.0,2-Back,0,m,Mon Feb 24 2025 18:25:33 GMT-0600 (Central Standard Time),658815.7000000179,007_m_m_n_a.png,O,z,1613,17,1,2620.7000000178814,656195.0,7059,VNB,B,15
13,test,3,0.0,2-Back,1,z,Mon Feb 24 2025 18:25:33 GMT-0600 (Central Standard Time),661248.2000000179,016_y_m_h_a.png,O,z,1404,18,1,2424.4000000059605,658823.8000000119,7059,VNB,B,16
0,test,4,0.0,2-Back,,,Mon Feb 24 2025 18:25:33 GMT-0600 (Central Standard Time),661248.2000000179,011_m_f_n_a.png,O,space,1596,1,1,2424.4000000059605,658823.8000000119,7059,VNB,B,0
0,test,4,0.0,2-Back,,,Mon Feb 24 2025 18:25:33 GMT-0600 (Central Standard Time),661248.2000000179,004_o_m_n_a.png,O,space,1596,2,1,2424.4000000059605,658823.8000000119,7059,VNB,B,0
1,test,4,1.0,2-Back,1,m,Mon Feb 24 2025 18:25:33 GMT-0600 (Central Standard Time),670096.6000000238,016_y_m_h_a.png,O,m,1004,3,1,2025.6000000238419,668071.0,7059,VNB,B,1
2,test,4,1.0,2-Back,1,m,Mon Feb 24 2025 18:25:33 GMT-0600 (Central Standard Time),672231.5,005_o_f_d_a.png,O,m,1117,4,1,2126.0,670105.5,7059,VNB,B,2
3,test,4,0.0,2-Back,1,z,Mon Feb 24 2025 18:25:33 GMT-0600 (Central Standard Time),674494.7000000179,004_o_m_h_a.png,O,z,1238,5,1,2255.0999999940395,672239.6000000238,7059,VNB,B,3
4,test,4,0.0,2-Back,1,m,Mon Feb 24 2025 18:25:33 GMT-0600 (Central Standard Time),677176.2000000179,007_m_m_n_a.png,O,m,1654,6,1,2674.5,674501.7000000179,7059,VNB,B,4
4,test,4,0.0,2-Back,0,m,Mon Feb 24 2025 18:25:33 GMT-0600 (Central Standard Time),680210.0,011_m_f_d_a.png,O,None,2015,7,1,3026.5,677183.5,7059,VNB,B,5
5,test,4,0.0,2-Back,1,z,Mon Feb 24 2025 18:25:33 GMT-0600 (Central Standard Time),682259.0,020_y_f_n_a.png,O,z,1026,8,1,2041.2999999821186,680217.7000000179,7059,VNB,B,6
6,test,4,1.0,2-Back,1,m,Mon Feb 24 2025 18:25:33 GMT-0600 (Central Standard Time),684442.2000000179,005_o_f_h_a.png,O,m,1160,9,1,2175.0999999940395,682267.1000000238,7059,VNB,B,7
7,test,4,0.0,2-Back,1,m,Mon Feb 24 2025 18:25:33 GMT-0600 (Central Standard Time),686990.6000000238,007_m_m_h_a.png,O,m,1523,10,1,2540.7000000178814,684449.900000006,7059,VNB,B,8
7,test,4,0.0,2-Back,0,m,Mon Feb 24 2025 18:25:33 GMT-0600 (Central Standard Time),689375.0,020_y_f_d_a.png,O,z,1366,11,1,2377.0,686998.0,7059,VNB,B,9
8,test,4,0.0,2-Back,1,m,Mon Feb 24 2025 18:25:33 GMT-0600 (Central Standard Time),691322.3000000119,016_y_m_n_a.png,O,m,927,12,1,1938.699999988079,689383.6000000238,7059,VNB,B,10
8,test,4,0.0,2-Back,0,z,Mon Feb 24 2025 18:25:33 GMT-0600 (Central Standard Time),693955.5,004_o_m_d_a.png,O,m,1601,13,1,2624.899999976158,691330.6000000238,7059,VNB,B,11
9,test,4,1.0,2-Back,1,m,Mon Feb 24 2025 18:25:33 GMT-0600 (Central Standard Time),696221.8000000119,011_m_f_h_a.png,O,m,1248,14,1,2258.4000000059605,693963.400000006,7059,VNB,B,12
10,test,4,1.0,2-Back,1,m,Mon Feb 24 2025 18:25:33 GMT-0600 (Central Standard Time),698221.3000000119,020_y_f_h_a.png,O,m,966,15,1,1991.199999988079,696230.1000000238,7059,VNB,B,13
11,test,4,0.0,2-Back,1,m,Mon Feb 24 2025 18:25:33 GMT-0600 (Central Standard Time),700653.900000006,005_o_f_n_a.png,O,m,1400,16,1,2422.699999988079,698231.2000000179,7059,VNB,B,14
12,test,4,0.0,2-Back,1,m,Mon Feb 24 2025 18:25:33 GMT-0600 (Central Standard Time),703669.400000006,016_y_m_d_a.png,O,m,1991,17,1,3008.699999988079,700660.7000000179,7059,VNB,B,15
13,test,4,1.0,2-Back,1,m,Mon Feb 24 2025 18:25:33 GMT-0600 (Central Standard Time),705968.400000006,007_m_m_d_a.png,O,m,1271,18,1,2290.7999999821186,703677.6000000238,7059,VNB,B,16
0,test,5,1.0,2-Back,,,Mon Feb 24 2025 18:25:33 GMT-0600 (Central Standard Time),705968.400000006,020_y_f_d_a.png,O,space,1260,1,1,2290.7999999821186,703677.6000000238,7059,VNB,B,0
0,test,5,1.0,2-Back,,,Mon Feb 24 2025 18:25:33 GMT-0600 (Central Standard Time),705968.400000006,005_o_f_h_a.png,O,space,1260,2,1,2290.7999999821186,703677.6000000238,7059,VNB,B,0
1,test,5,1.0,2-Back,1,z,Mon Feb 24 2025 18:25:33 GMT-0600 (Central Standard Time),714698.400000006,004_o_m_d_a.png,O,z,1210,3,1,2226.699999988079,712471.7000000179,7059,VNB,B,1
2,test,5,1.0,2-Back,1,m,Mon Feb 24 2025 18:25:33 GMT-0600 (Central Standard Time),717097.6000000238,011_m_f_n_a.png,O,m,1369,4,1,2396.4000000059605,714701.2000000179,7059,VNB,B,2
3,test,5,0.0,2-Back,1,m,Mon Feb 24 2025 18:25:33 GMT-0600 (Central Standard Time),719814.0,007_m_m_h_a.png,O,m,1698,5,1,2708.899999976158,717105.1000000238,7059,VNB,B,3
4,test,5,0.0,2-Back,1,z,Mon Feb 24 2025 18:25:33 GMT-0600 (Central Standard Time),721896.2000000179,020_y_f_n_a.png,O,z,1055,6,1,2077.0,719819.2000000179,7059,VNB,B,4
5,test,5,0.0,2-Back,1,m,Mon Feb 24 2025 18:25:33 GMT-0600 (Central Standard Time),723862.2000000179,005_o_f_d_a.png,O,m,940,7,1,1957.800000011921,721904.400000006,7059,VNB,B,5
5,test,5,0.0,2-Back,0,m,Mon Feb 24 2025 18:25:33 GMT-0600 (Central Standard Time),726894.2000000179,004_o_m_h_a.png,O,None,2014,8,1,3024.9000000059605,723869.3000000119,7059,VNB,B,6
5,test,5,1.0,2-Back,0,z,Mon Feb 24 2025 18:25:33 GMT-0600 (Central Standard Time),728895.5,011_m_f_d_a.png,O,m,983,9,1,1995.8999999761581,726899.6000000238,7059,VNB,B,7
6,test,5,0.0,2-Back,1,m,Mon Feb 24 2025 18:25:33 GMT-0600 (Central Standard Time),731409.6000000238,016_y_m_n_a.png,O,m,1495,10,1,2508.2000000178814,728901.400000006,7059,VNB,B,8
7,test,5,0.0,2-Back,1,m,Mon Feb 24 2025 18:25:33 GMT-0600 (Central Standard Time),733493.7000000179,007_m_m_n_a.png,O,m,1065,11,1,2075.2000000178814,731418.5,7059,VNB,B,9
8,test,5,0.0,2-Back,1,m,Mon Feb 24 2025 18:25:33 GMT-0600 (Central Standard Time),735358.8000000119,020_y_f_h_a.png,O,m,840,12,1,1856.800000011921,733502.0,7059,VNB,B,10
9,test,5,0.0,2-Back,1,m,Mon Feb 24 2025 18:25:33 GMT-0600 (Central Standard Time),737957.7000000179,016_y_m_d_a.png,O,m,1581,13,1,2590.5999999940395,735367.1000000238,7059,VNB,B,11
10,test,5,1.0,2-Back,1,z,Mon Feb 24 2025 18:25:33 GMT-0600 (Central Standard Time),740007.1000000238,011_m_f_h_a.png,O,z,1022,14,1,2040.0,737967.1000000238,7059,VNB,B,12
11,test,5,0.0,2-Back,1,m,Mon Feb 24 2025 18:25:33 GMT-0600 (Central Standard Time),742056.3000000119,004_o_m_n_a.png,O,m,1021,15,1,2042.4000000059605,740013.900000006,7059,VNB,B,13
11,test,5,0.0,2-Back,0,m,Mon Feb 24 2025 18:25:33 GMT-0600 (Central Standard Time),744506.0,007_m_m_d_a.png,O,z,1418,16,1,2442.0999999940395,742063.900000006,7059,VNB,B,14
11,test,5,0.0,2-Back,0,z,Mon Feb 24 2025 18:25:33 GMT-0600 (Central Standard Time),747154.6000000238,005_o_f_n_a.png,O,m,1616,17,1,2640.4000000059605,744514.2000000179,7059,VNB,B,15
12,test,5,1.0,2-Back,1,m,Mon Feb 24 2025 18:25:33 GMT-0600 (Central Standard Time),749420.7000000179,016_y_m_h_a.png,O,m,1240,18,1,2259.0999999940395,747161.6000000238,7059,VNB,B,16
