acc_sum,block_c,block_dur,condition,correct,correct_response,countdown,datetime,endtime,project,response,response_time,response_time_test1_response,response_time_test2_response,row_sel,same,session_number,start_end,starttime,stim1,stim2,subject_id,task,task_vers,time_test1,time_test2,trial
1,1,0.0,prac,1,m,30000.0,Fri Mar 28 2025 14:25:12 GMT-0500 (Central Daylight Time),46352.299999952316,O,m,1375,,,2,no,1,2896.399999976158,43455.89999997616,practrial2.png,practrial2b.png,7114,PC,C,,,1
2,1,0.0,prac,1,z,30000.0,Fri Mar 28 2025 14:25:12 GMT-0500 (Central Daylight Time),48851.39999997616,O,z,947,,,1,yes,1,2478.100000023842,46373.299999952316,practrial1.png,practrial1.png,7114,PC,C,,,2
3,1,0.0,prac,1,m,30000.0,Fri Mar 28 2025 14:25:12 GMT-0500 (Central Daylight Time),51833.0,O,m,1433,,,6,no,1,2962.5,48870.5,practrial6.png,practrial6b.png,7114,PC,C,,,3
4,1,0.0,prac,1,z,30000.0,Fri Mar 28 2025 14:25:12 GMT-0500 (Central Daylight Time),54266.10000002384,O,z,894,,,5,yes,1,2422.899999976158,51843.200000047684,practrial5.png,practrial5.png,7114,PC,C,,,4
5,1,0.0,prac,1,m,30000.0,Fri Mar 28 2025 14:25:12 GMT-0500 (Central Daylight Time),56831.60000002384,O,m,1023,,,4,no,1,2550.8000000715256,54280.799999952316,practrial4.png,practrial4b.png,7114,PC,C,,,5
6,1,0.0,prac,1,z,30000.0,Fri Mar 28 2025 14:25:12 GMT-0500 (Central Daylight Time),59614.39999997616,O,z,1231,,,3,yes,1,2764.7999999523163,56849.60000002384,practrial3.png,practrial3.png,7114,PC,C,,,6
1,1,2.066999912261963,test,1,z,27933.000087738037,Fri Mar 28 2025 14:25:12 GMT-0500 (Central Daylight Time),71694.10000002384,O,z,2057,2057,,1,yes,1,2059.7000000476837,69634.39999997616,test1trial1.png,test1trial1.png,7114,PC,C,61927,,1
2,1,3.066999912261963,test,1,m,26933.000087738037,Fri Mar 28 2025 14:25:12 GMT-0500 (Central Daylight Time),72694.10000002384,O,m,983,983,,2,no,1,987.8999999761581,71706.20000004768,test1trial2.png,test1trial2b.png,7114,PC,C,64000,,2
3,1,4.115999937057495,test,1,z,25884.000062942505,Fri Mar 28 2025 14:25:12 GMT-0500 (Central Daylight Time),73743.20000004768,O,z,1035,1035,,3,yes,1,1040.3000000715256,72702.89999997616,test1trial3.png,test1trial3.png,7114,PC,C,64996,,3
4,1,5.065999984741211,test,1,m,24934.00001525879,Fri Mar 28 2025 14:25:12 GMT-0500 (Central Daylight Time),74692.70000004768,O,m,931,931,,4,no,1,937.5,73755.20000004768,test1trial4.png,test1trial4b.png,7114,PC,C,66052,,4
5,1,6.347999811172485,test,1,z,23652.000188827515,Fri Mar 28 2025 14:25:12 GMT-0500 (Central Daylight Time),75975.60000002384,O,z,1263,1263,,5,yes,1,1271.1000000238419,74704.5,test1trial5.png,test1trial5.png,7114,PC,C,67000,,5
6,1,7.197999954223633,test,1,m,22802.000045776367,Fri Mar 28 2025 14:25:12 GMT-0500 (Central Daylight Time),76825.0,O,m,817,817,,6,no,1,836.2999999523163,75988.70000004768,test1trial6.png,test1trial6b.png,7114,PC,C,68285,,6
7,1,8.513999938964844,test,1,z,21486.000061035156,Fri Mar 28 2025 14:25:12 GMT-0500 (Central Daylight Time),78141.5,O,z,1299,1299,,7,yes,1,1310.3999999761581,76831.10000002384,test1trial7.png,test1trial7.png,7114,PC,C,69124,,7
7,1,9.996999979019165,test,0,m,20003.000020980835,Fri Mar 28 2025 14:25:12 GMT-0500 (Central Daylight Time),79624.29999995232,O,z,1462,1462,,8,no,1,1471.3999999761581,78152.89999997616,test1trial8.png,test1trial8b.png,7114,PC,C,70449,,8
8,1,11.21399998664856,test,1,z,18786.00001335144,Fri Mar 28 2025 14:25:12 GMT-0500 (Central Daylight Time),80840.60000002384,O,z,1194,1194,,9,yes,1,1203.7000000476837,79636.89999997616,test1trial9.png,test1trial9.png,7114,PC,C,71933,,9
9,1,12.096999883651733,test,1,m,17903.000116348267,Fri Mar 28 2025 14:25:12 GMT-0500 (Central Daylight Time),81723.70000004768,O,m,850,850,,10,no,1,870.9000000953674,80852.79999995232,test1trial10.png,test1trial10b.png,7114,PC,C,73149,,10
10,1,13.178999900817871,test,1,z,16821.00009918213,Fri Mar 28 2025 14:25:12 GMT-0500 (Central Daylight Time),82806.39999997616,O,z,1064,1064,,11,yes,1,1070.2999999523163,81736.10000002384,test1trial11.png,test1trial11.png,7114,PC,C,74031,,11
10,1,14.76199984550476,test,0,m,15238.00015449524,Fri Mar 28 2025 14:25:12 GMT-0500 (Central Daylight Time),84389.29999995232,O,z,1571,1571,,12,no,1,1575.0,82814.29999995232,test1trial12.png,test1trial12b.png,7114,PC,C,75108,,12
11,1,15.977999925613403,test,1,m,14022.000074386597,Fri Mar 28 2025 14:25:12 GMT-0500 (Central Daylight Time),85605.5,O,m,1197,1197,,13,no,1,1204.2000000476837,84401.29999995232,test1trial13.png,test1trial13b.png,7114,PC,C,76698,,13
12,1,17.143999814987183,test,1,m,12856.000185012817,Fri Mar 28 2025 14:25:12 GMT-0500 (Central Daylight Time),86771.20000004768,O,m,1141,1141,,14,no,1,1153.6000000238419,85617.60000002384,test1trial14.png,test1trial14b.png,7114,PC,C,77913,,14
13,1,18.027999877929688,test,1,z,11972.000122070312,Fri Mar 28 2025 14:25:12 GMT-0500 (Central Daylight Time),87655.29999995232,O,z,868,868,,15,yes,1,880.5999999046326,86774.70000004768,test1trial15.png,test1trial15.png,7114,PC,C,79066,,15
14,1,19.359999895095825,test,1,m,10640.000104904175,Fri Mar 28 2025 14:25:12 GMT-0500 (Central Daylight Time),88986.89999997616,O,m,1315,1315,,16,no,1,1320.1999999284744,87666.70000004768,test1trial16.png,test1trial16b.png,7114,PC,C,79963,,16
15,1,20.47599983215332,test,1,z,9524.00016784668,Fri Mar 28 2025 14:25:12 GMT-0500 (Central Daylight Time),90103.5,O,z,1100,1100,,17,yes,1,1113.3999999761581,88990.10000002384,test1trial17.png,test1trial17.png,7114,PC,C,81282,,17
16,1,21.542999982833862,test,1,m,8457.000017166138,Fri Mar 28 2025 14:25:12 GMT-0500 (Central Daylight Time),91169.79999995232,O,m,1047,1047,,18,no,1,1062.7999999523163,90107.0,test1trial18.png,test1trial18b.png,7114,PC,C,82399,,18
16,1,23.026000022888184,test,0,m,6973.999977111816,Fri Mar 28 2025 14:25:12 GMT-0500 (Central Daylight Time),92652.5,O,z,1476,1476,,19,no,1,1479.2000000476837,91173.29999995232,test1trial19.png,test1trial19b.png,7114,PC,C,83466,,19
17,1,24.47499990463257,test,1,z,5525.000095367432,Fri Mar 28 2025 14:25:12 GMT-0500 (Central Daylight Time),94102.10000002384,O,z,1434,1434,,20,yes,1,1446.1000000238419,92656.0,test1trial20.png,test1trial20.png,7114,PC,C,84948,,20
18,1,25.39199995994568,test,1,z,4608.000040054321,Fri Mar 28 2025 14:25:12 GMT-0500 (Central Daylight Time),95018.60000002384,O,z,896,896,,21,yes,1,912.7000000476837,94105.89999997616,test1trial21.png,test1trial21.png,7114,PC,C,86398,,21
19,1,26.69099998474121,test,1,z,3309.000015258789,Fri Mar 28 2025 14:25:12 GMT-0500 (Central Daylight Time),96318.0,O,z,1291,1291,,22,yes,1,1295.6000000238419,95022.39999997616,test1trial22.png,test1trial22.png,7114,PC,C,87315,,22
20,1,27.556999921798706,test,1,z,2443.000078201294,Fri Mar 28 2025 14:25:12 GMT-0500 (Central Daylight Time),97184.39999997616,O,z,848,848,,23,yes,1,862.6999999284744,96321.70000004768,test1trial23.png,test1trial23.png,7114,PC,C,88614,,23
21,1,28.83999991416931,test,1,z,1160.0000858306885,Fri Mar 28 2025 14:25:12 GMT-0500 (Central Daylight Time),98467.20000004768,O,z,1271,1271,,24,yes,1,1279.7000000476837,97187.5,test1trial24.png,test1trial24.png,7114,PC,C,89479,,24
22,1,29.889999866485596,test,1,m,110.0001335144043,Fri Mar 28 2025 14:25:12 GMT-0500 (Central Daylight Time),99517.0,O,m,1043,1043,,25,no,1,1046.3999999761581,98470.60000002384,test1trial25.png,test1trial25b.png,7114,PC,C,90763,,25
22,1,30.006999969482422,test,0,m,-6.999969482421875,Fri Mar 28 2025 14:25:12 GMT-0500 (Central Daylight Time),99633.60000002384,O,None,111,111,,26,no,1,113.10000002384186,99520.5,test1trial26.png,test1trial26b.png,7114,PC,C,91813,,26
0,2,1.3000001907348633,test,0,m,28699.999809265137,Fri Mar 28 2025 14:25:12 GMT-0500 (Central Daylight Time),105481.79999995232,O,z,1289,,1289.0,1,no,1,5961.299999952316,99520.5,test2trial1.png,test2trial1b.png,7114,PC,C,,96477.0,1
1,2,3.5490000247955322,test,1,m,26450.999975204468,Fri Mar 28 2025 14:25:12 GMT-0500 (Central Daylight Time),107731.10000002384,O,m,2244,,2244.0,2,no,1,8210.600000023842,99520.5,test2trial2.png,test2trial2b.png,7114,PC,C,,97778.0,2
2,2,4.449000120162964,test,1,z,25550.999879837036,Fri Mar 28 2025 14:25:12 GMT-0500 (Central Daylight Time),108630.70000004768,O,z,883,,883.0,3,yes,1,9110.200000047684,99520.5,test2trial3.png,test2trial3.png,7114,PC,C,,100027.0,3
3,2,5.365000009536743,test,1,z,24634.999990463257,Fri Mar 28 2025 14:25:12 GMT-0500 (Central Daylight Time),109547.10000002384,O,z,895,,895.0,4,yes,1,10026.600000023842,99520.5,test2trial4.png,test2trial4.png,7114,PC,C,,100927.0,4
4,2,6.881999969482422,test,1,z,23118.000030517578,Fri Mar 28 2025 14:25:12 GMT-0500 (Central Daylight Time),111063.60000002384,O,z,1500,,1500.0,5,yes,1,11543.100000023842,99520.5,test2trial5.png,test2trial5.png,7114,PC,C,,101842.0,5
5,2,8.180999994277954,test,1,z,21819.000005722046,Fri Mar 28 2025 14:25:12 GMT-0500 (Central Daylight Time),112363.10000002384,O,z,1289,,1289.0,6,yes,1,12842.600000023842,99520.5,test2trial6.png,test2trial6.png,7114,PC,C,,103365.0,6
6,2,9.297000169754028,test,1,m,20702.99983024597,Fri Mar 28 2025 14:25:12 GMT-0500 (Central Daylight Time),113479.29999995232,O,m,1099,,1099.0,7,no,1,13958.799999952316,99520.5,test2trial7.png,test2trial7b.png,7114,PC,C,,104659.0,7
7,2,10.198000192642212,test,1,m,19801.999807357788,Fri Mar 28 2025 14:25:12 GMT-0500 (Central Daylight Time),114379.70000004768,O,m,888,,888.0,8,no,1,14859.200000047684,99520.5,test2trial8.png,test2trial8b.png,7114,PC,C,,105775.0,8
8,2,11.547000169754028,test,1,z,18452.99983024597,Fri Mar 28 2025 14:25:12 GMT-0500 (Central Daylight Time),115728.5,O,z,1321,,1321.0,9,yes,1,16208.0,99520.5,test2trial9.png,test2trial9.png,7114,PC,C,,106685.0,9
9,2,12.580000162124634,test,1,z,17419.999837875366,Fri Mar 28 2025 14:25:12 GMT-0500 (Central Daylight Time),116761.39999997616,O,z,1022,,1022.0,10,yes,1,17240.899999976158,99520.5,test2trial10.png,test2trial10.png,7114,PC,C,,108024.0,10
10,2,13.463000059127808,test,1,m,16536.999940872192,Fri Mar 28 2025 14:25:12 GMT-0500 (Central Daylight Time),117644.60000002384,O,m,869,,869.0,11,no,1,18124.100000023842,99520.5,test2trial11.png,test2trial11b.png,7114,PC,C,,109057.0,11
11,2,14.629000186920166,test,1,m,15370.999813079834,Fri Mar 28 2025 14:25:12 GMT-0500 (Central Daylight Time),118810.70000004768,O,m,1146,,1146.0,12,no,1,19290.200000047684,99520.5,test2trial12.png,test2trial12b.png,7114,PC,C,,109940.0,12
12,2,15.529000043869019,test,1,z,14470.999956130981,Fri Mar 28 2025 14:25:12 GMT-0500 (Central Daylight Time),119710.29999995232,O,z,884,,884.0,13,yes,1,20189.799999952316,99520.5,test2trial13.png,test2trial13.png,7114,PC,C,,111106.0,13
13,2,17.144999980926514,test,1,m,12855.000019073486,Fri Mar 28 2025 14:25:12 GMT-0500 (Central Daylight Time),121326.5,O,m,1608,,1608.0,14,no,1,21806.0,99520.5,test2trial14.png,test2trial14b.png,7114,PC,C,,112006.0,14
14,2,18.061000108718872,test,1,m,11938.999891281128,Fri Mar 28 2025 14:25:12 GMT-0500 (Central Daylight Time),122242.79999995232,O,m,904,,904.0,15,no,1,22722.299999952316,99520.5,test2trial15.png,test2trial15b.png,7114,PC,C,,113622.0,15
15,2,19.47699999809265,test,1,m,10523.000001907349,Fri Mar 28 2025 14:25:12 GMT-0500 (Central Daylight Time),123659.0,O,m,1412,,1412.0,16,no,1,24138.5,99520.5,test2trial16.png,test2trial16b.png,7114,PC,C,,114538.0,16
16,2,20.627000093460083,test,1,z,9372.999906539917,Fri Mar 28 2025 14:25:12 GMT-0500 (Central Daylight Time),124808.60000002384,O,z,1139,,1139.0,17,yes,1,25288.100000023842,99520.5,test2trial17.png,test2trial17.png,7114,PC,C,,115955.0,17
17,2,21.509999990463257,test,1,z,8490.000009536743,Fri Mar 28 2025 14:25:12 GMT-0500 (Central Daylight Time),125691.70000004768,O,z,869,,869.0,18,yes,1,26171.200000047684,99520.5,test2trial18.png,test2trial18.png,7114,PC,C,,117104.0,18
18,2,22.9760000705719,test,1,z,7023.999929428101,Fri Mar 28 2025 14:25:12 GMT-0500 (Central Daylight Time),127157.89999997616,O,z,1451,,1451.0,19,yes,1,27637.399999976158,99520.5,test2trial19.png,test2trial19.png,7114,PC,C,,117987.0,19
18,2,24.909000158309937,test,0,z,5090.9998416900635,Fri Mar 28 2025 14:25:12 GMT-0500 (Central Daylight Time),129090.60000002384,O,m,1913,,1913.0,20,yes,1,29570.100000023842,99520.5,test2trial20.png,test2trial20.png,7114,PC,C,,119453.0,20
19,2,26.808000087738037,test,1,z,3191.999912261963,Fri Mar 28 2025 14:25:12 GMT-0500 (Central Daylight Time),130989.89999997616,O,z,1892,,1892.0,21,yes,1,31469.399999976158,99520.5,test2trial21.png,test2trial21.png,7114,PC,C,,121386.0,21
19,2,27.77500009536743,test,0,m,2224.9999046325684,Fri Mar 28 2025 14:25:12 GMT-0500 (Central Daylight Time),131956.29999995232,O,z,961,,961.0,22,no,1,32435.799999952316,99520.5,test2trial22.png,test2trial22b.png,7114,PC,C,,123285.0,22
20,2,29.756999969482422,test,1,m,243.00003051757812,Fri Mar 28 2025 14:25:12 GMT-0500 (Central Daylight Time),133938.89999997616,O,m,1978,,1978.0,23,no,1,34418.39999997616,99520.5,test2trial23.png,test2trial23b.png,7114,PC,C,,124252.0,23
20,2,30.006999969482422,test,0,m,-6.999969482421875,Fri Mar 28 2025 14:25:12 GMT-0500 (Central Daylight Time),134188.89999997616,O,None,246,,246.0,24,no,1,34668.39999997616,99520.5,test2trial24.png,test2trial24b.png,7114,PC,C,,126234.0,24
