acc_sum,block,block_c,change,condition,correct,correct_response,datetime,endtime,face,project,response,response_time,row_sel,session_number,start_end,starttime,subject_id,task,task_vers,trial
0,prac,1,,1-Back,,,Mon Mar 17 2025 14:54:03 GMT-0500 (Central Daylight Time),,050_m_f_n_a.png,O,space,3478,1,1,,,7085,NNB,A,0
1,prac,1,0.0,1-Back,1,m,Mon Mar 17 2025 14:54:03 GMT-0500 (Central Daylight Time),119375.40000000596,063_y_f_n_a.png,O,m,604,2,1,1409.0,117966.40000000596,7085,NNB,A,1
2,prac,1,1.0,1-Back,1,z,Mon Mar 17 2025 14:54:03 GMT-0500 (Central Daylight Time),121041.5,063_y_f_n_a.png,O,z,885,3,1,1659.4000000059605,119382.09999999404,7085,NNB,A,2
3,prac,1,0.0,1-Back,1,m,Mon Mar 17 2025 14:54:03 GMT-0500 (Central Daylight Time),122824.30000001192,053_o_m_n_a.png,O,m,962,4,1,1775.5,121048.80000001192,7085,NNB,A,3
4,prac,1,0.0,1-Back,1,m,Mon Mar 17 2025 14:54:03 GMT-0500 (Central Daylight Time),124690.19999998808,058_m_m_n_a.png,O,m,1051,5,1,1858.699999988079,122831.5,7085,NNB,A,4
5,prac,1,1.0,1-Back,1,z,Mon Mar 17 2025 14:54:03 GMT-0500 (Central Daylight Time),126622.90000000596,058_m_m_n_a.png,O,z,1154,6,1,1925.800000011921,124697.09999999404,7085,NNB,A,5
6,prac,1,0.0,1-Back,1,m,Mon Mar 17 2025 14:54:03 GMT-0500 (Central Daylight Time),128372.40000000596,047_o_f_n_a.png,O,m,909,7,1,1742.4000000059605,126630.0,7085,NNB,A,6
7,prac,1,0.0,1-Back,1,m,Mon Mar 17 2025 14:54:03 GMT-0500 (Central Daylight Time),130172.90000000596,045_m_m_n_a.png,O,m,1001,8,1,1793.300000011921,128379.59999999404,7085,NNB,A,7
8,prac,1,0.0,1-Back,1,m,Mon Mar 17 2025 14:54:03 GMT-0500 (Central Daylight Time),131688.09999999404,050_m_f_n_a.png,O,m,736,9,1,1508.0999999940395,130180.0,7085,NNB,A,8
9,prac,1,1.0,1-Back,1,z,Mon Mar 17 2025 14:54:03 GMT-0500 (Central Daylight Time),133254.30000001192,050_m_f_n_a.png,O,z,788,10,1,1559.1000000238419,131695.19999998808,7085,NNB,A,9
10,prac,1,0.0,1-Back,1,m,Mon Mar 17 2025 14:54:03 GMT-0500 (Central Daylight Time),134837.0,053_o_m_n_a.png,O,m,806,11,1,1575.699999988079,133261.30000001192,7085,NNB,A,10
11,prac,1,0.0,1-Back,1,m,Mon Mar 17 2025 14:54:03 GMT-0500 (Central Daylight Time),136853.0,010_y_f_n_a.png,O,m,1186,12,1,2008.800000011921,134844.19999998808,7085,NNB,A,11
0,test,1,0.0,1-Back,,,Mon Mar 17 2025 14:54:03 GMT-0500 (Central Daylight Time),136853.0,063_y_f_n_a.png,O,space,5061,1,1,2008.800000011921,134844.19999998808,7085,NNB,A,0
1,test,1,0.0,1-Back,1,m,Mon Mar 17 2025 14:54:03 GMT-0500 (Central Daylight Time),151215.19999998808,043_m_f_n_a.png,O,m,572,2,1,1593.0999999940395,149622.09999999404,7085,NNB,A,1
2,test,1,0.0,1-Back,1,m,Mon Mar 17 2025 14:54:03 GMT-0500 (Central Daylight Time),153831.19999998808,010_y_f_n_a.png,O,m,1588,3,1,2610.0999999940395,151221.09999999404,7085,NNB,A,2
3,test,1,1.0,1-Back,1,z,Mon Mar 17 2025 14:54:03 GMT-0500 (Central Daylight Time),155530.40000000596,010_y_f_n_a.png,O,z,668,4,1,1693.5999999940395,153836.80000001192,7085,NNB,A,3
4,test,1,0.0,1-Back,1,m,Mon Mar 17 2025 14:54:03 GMT-0500 (Central Daylight Time),157296.5,043_m_f_n_a.png,O,m,745,5,1,1760.199999988079,155536.30000001192,7085,NNB,A,4
5,test,1,0.0,1-Back,1,m,Mon Mar 17 2025 14:54:03 GMT-0500 (Central Daylight Time),158912.90000000596,053_o_m_n_a.png,O,m,587,6,1,1610.300000011921,157302.59999999404,7085,NNB,A,5
6,test,1,1.0,1-Back,1,z,Mon Mar 17 2025 14:54:03 GMT-0500 (Central Daylight Time),160645.5,053_o_m_n_a.png,O,z,715,7,1,1726.699999988079,158918.80000001192,7085,NNB,A,6
7,test,1,0.0,1-Back,1,m,Mon Mar 17 2025 14:54:03 GMT-0500 (Central Daylight Time),162461.59999999404,058_m_m_n_a.png,O,m,798,8,1,1810.199999988079,160651.40000000596,7085,NNB,A,7
8,test,1,0.0,1-Back,1,m,Mon Mar 17 2025 14:54:03 GMT-0500 (Central Daylight Time),164444.19999998808,047_o_f_n_a.png,O,m,957,9,1,1976.699999988079,162467.5,7085,NNB,A,8
9,test,1,0.0,1-Back,1,m,Mon Mar 17 2025 14:54:03 GMT-0500 (Central Daylight Time),166843.90000000596,058_m_m_n_a.png,O,m,1367,10,1,2393.800000011921,164450.09999999404,7085,NNB,A,9
10,test,1,0.0,1-Back,1,m,Mon Mar 17 2025 14:54:03 GMT-0500 (Central Daylight Time),168709.80000001192,041_y_m_n_a.png,O,m,848,11,1,1860.1000000238419,166849.69999998808,7085,NNB,A,10
11,test,1,1.0,1-Back,1,z,Mon Mar 17 2025 14:54:03 GMT-0500 (Central Daylight Time),170259.09999999404,041_y_m_n_a.png,O,z,526,12,1,1543.199999988079,168715.90000000596,7085,NNB,A,11
12,test,1,0.0,1-Back,1,m,Mon Mar 17 2025 14:54:03 GMT-0500 (Central Daylight Time),171925.19999998808,044_o_f_n_a.png,O,m,648,13,1,1660.2999999821186,170264.90000000596,7085,NNB,A,12
13,test,1,1.0,1-Back,1,z,Mon Mar 17 2025 14:54:03 GMT-0500 (Central Daylight Time),173658.19999998808,044_o_f_n_a.png,O,z,710,14,1,1726.7999999821186,171931.40000000596,7085,NNB,A,13
14,test,1,0.0,1-Back,1,m,Mon Mar 17 2025 14:54:03 GMT-0500 (Central Daylight Time),175474.19999998808,008_y_m_n_a.png,O,m,785,15,1,1810.2999999821186,173663.90000000596,7085,NNB,A,14
15,test,1,0.0,1-Back,1,m,Mon Mar 17 2025 14:54:03 GMT-0500 (Central Daylight Time),177290.30000001192,050_m_f_n_a.png,O,m,785,16,1,1810.300000011921,175480.0,7085,NNB,A,15
16,test,1,0.0,1-Back,1,m,Mon Mar 17 2025 14:54:03 GMT-0500 (Central Daylight Time),178989.80000001192,046_o_m_n_a.png,O,m,681,17,1,1693.9000000059605,177295.90000000596,7085,NNB,A,16
17,test,1,0.0,1-Back,1,m,Mon Mar 17 2025 14:54:03 GMT-0500 (Central Daylight Time),180839.19999998808,050_m_f_n_a.png,O,m,810,18,1,1843.5999999940395,178995.59999999404,7085,NNB,A,17
0,test,2,0.0,1-Back,,,Mon Mar 17 2025 14:54:03 GMT-0500 (Central Daylight Time),180839.19999998808,058_m_m_n_a.png,O,space,3268,1,1,1843.5999999940395,178995.59999999404,7085,NNB,A,0
1,test,2,0.0,1-Back,1,m,Mon Mar 17 2025 14:54:03 GMT-0500 (Central Daylight Time),188303.59999999404,043_m_f_n_a.png,O,m,1137,2,1,2158.699999988079,186144.90000000596,7085,NNB,A,1
2,test,2,1.0,1-Back,1,z,Mon Mar 17 2025 14:54:03 GMT-0500 (Central Daylight Time),189819.90000000596,043_m_f_n_a.png,O,z,492,3,1,1510.5,188309.40000000596,7085,NNB,A,2
3,test,2,0.0,1-Back,1,m,Mon Mar 17 2025 14:54:03 GMT-0500 (Central Daylight Time),191636.0,058_m_m_n_a.png,O,m,791,4,1,1810.300000011921,189825.69999998808,7085,NNB,A,3
4,test,2,0.0,1-Back,1,m,Mon Mar 17 2025 14:54:03 GMT-0500 (Central Daylight Time),193268.59999999404,041_y_m_n_a.png,O,m,607,5,1,1626.5999999940395,191642.0,7085,NNB,A,4
5,test,2,0.0,1-Back,1,m,Mon Mar 17 2025 14:54:03 GMT-0500 (Central Daylight Time),194984.90000000596,063_y_f_n_a.png,O,m,687,6,1,1710.4000000059605,193274.5,7085,NNB,A,5
6,test,2,1.0,1-Back,1,z,Mon Mar 17 2025 14:54:03 GMT-0500 (Central Daylight Time),196551.19999998808,063_y_f_n_a.png,O,z,539,7,1,1560.5,194990.69999998808,7085,NNB,A,6
7,test,2,0.0,1-Back,1,m,Mon Mar 17 2025 14:54:03 GMT-0500 (Central Daylight Time),198167.19999998808,041_y_m_n_a.png,O,m,588,8,1,1610.199999988079,196557.0,7085,NNB,A,7
8,test,2,0.0,1-Back,1,m,Mon Mar 17 2025 14:54:03 GMT-0500 (Central Daylight Time),199800.0,044_o_f_n_a.png,O,m,604,9,1,1626.5999999940395,198173.40000000596,7085,NNB,A,8
9,test,2,0.0,1-Back,1,m,Mon Mar 17 2025 14:54:03 GMT-0500 (Central Daylight Time),201500.09999999404,045_m_m_n_a.png,O,m,683,10,1,1693.9000000059605,199806.19999998808,7085,NNB,A,9
10,test,2,1.0,1-Back,1,z,Mon Mar 17 2025 14:54:03 GMT-0500 (Central Daylight Time),203411.69999998808,045_m_m_n_a.png,O,z,752,11,1,1905.699999988079,201506.0,7085,NNB,A,10
11,test,2,0.0,1-Back,1,m,Mon Mar 17 2025 14:54:03 GMT-0500 (Central Daylight Time),204998.40000000596,044_o_f_n_a.png,O,m,564,12,1,1580.2000000178814,203418.19999998808,7085,NNB,A,11
12,test,2,0.0,1-Back,1,m,Mon Mar 17 2025 14:54:03 GMT-0500 (Central Daylight Time),206847.80000001192,047_o_f_n_a.png,O,m,829,13,1,1843.800000011921,205004.0,7085,NNB,A,12
13,test,2,0.0,1-Back,1,m,Mon Mar 17 2025 14:54:03 GMT-0500 (Central Daylight Time),208664.0,053_o_m_n_a.png,O,m,788,14,1,1810.199999988079,206853.80000001192,7085,NNB,A,13
14,test,2,0.0,1-Back,1,m,Mon Mar 17 2025 14:54:03 GMT-0500 (Central Daylight Time),210480.0,046_o_m_n_a.png,O,m,795,15,1,1809.9000000059605,208670.09999999404,7085,NNB,A,14
15,test,2,1.0,1-Back,1,z,Mon Mar 17 2025 14:54:03 GMT-0500 (Central Daylight Time),212229.69999998808,046_o_m_n_a.png,O,z,723,16,1,1744.0,210485.69999998808,7085,NNB,A,15
16,test,2,0.0,1-Back,1,m,Mon Mar 17 2025 14:54:03 GMT-0500 (Central Daylight Time),214062.19999998808,008_y_m_n_a.png,O,m,814,17,1,1826.7999999821186,212235.40000000596,7085,NNB,A,16
17,test,2,1.0,1-Back,1,z,Mon Mar 17 2025 14:54:03 GMT-0500 (Central Daylight Time),215745.0,008_y_m_n_a.png,O,z,653,18,1,1676.699999988079,214068.30000001192,7085,NNB,A,17
0,test,3,1.0,1-Back,,,Mon Mar 17 2025 14:54:03 GMT-0500 (Central Daylight Time),215745.0,010_y_f_n_a.png,O,space,1634,1,1,1676.699999988079,214068.30000001192,7085,NNB,A,0
1,test,3,0.0,1-Back,1,m,Mon Mar 17 2025 14:54:03 GMT-0500 (Central Daylight Time),221561.0,046_o_m_n_a.png,O,m,1070,2,1,2094.0999999940395,219466.90000000596,7085,NNB,A,1
2,test,3,1.0,1-Back,1,z,Mon Mar 17 2025 14:54:03 GMT-0500 (Central Daylight Time),223292.59999999404,046_o_m_n_a.png,O,z,699,3,1,1725.7999999821186,221566.80000001192,7085,NNB,A,2
3,test,3,0.0,1-Back,1,m,Mon Mar 17 2025 14:54:03 GMT-0500 (Central Daylight Time),225008.5,050_m_f_n_a.png,O,m,687,4,1,1709.699999988079,223298.80000001192,7085,NNB,A,3
4,test,3,1.0,1-Back,1,z,Mon Mar 17 2025 14:54:03 GMT-0500 (Central Daylight Time),226641.5,050_m_f_n_a.png,O,z,602,5,1,1626.699999988079,225014.80000001192,7085,NNB,A,4
5,test,3,0.0,1-Back,1,m,Mon Mar 17 2025 14:54:03 GMT-0500 (Central Daylight Time),228340.90000000596,044_o_f_n_a.png,O,m,681,6,1,1693.5,226647.40000000596,7085,NNB,A,5
5,test,3,0.0,1-Back,0,m,Mon Mar 17 2025 14:54:03 GMT-0500 (Central Daylight Time),230123.80000001192,041_y_m_n_a.png,O,z,750,7,1,1777.300000011921,228346.5,7085,NNB,A,6
6,test,3,0.0,1-Back,1,m,Mon Mar 17 2025 14:54:03 GMT-0500 (Central Daylight Time),231789.90000000596,044_o_f_n_a.png,O,m,639,8,1,1660.0,230129.90000000596,7085,NNB,A,7
7,test,3,0.0,1-Back,1,m,Mon Mar 17 2025 14:54:03 GMT-0500 (Central Daylight Time),233605.90000000596,008_y_m_n_a.png,O,m,797,9,1,1810.0,231795.90000000596,7085,NNB,A,8
8,test,3,1.0,1-Back,1,z,Mon Mar 17 2025 14:54:03 GMT-0500 (Central Daylight Time),235255.40000000596,008_y_m_n_a.png,O,z,629,10,1,1643.7000000178814,233611.69999998808,7085,NNB,A,9
9,test,3,0.0,1-Back,1,m,Mon Mar 17 2025 14:54:03 GMT-0500 (Central Daylight Time),237038.19999998808,043_m_f_n_a.png,O,m,764,11,1,1776.7999999821186,235261.40000000596,7085,NNB,A,10
10,test,3,0.0,1-Back,1,m,Mon Mar 17 2025 14:54:03 GMT-0500 (Central Daylight Time),238987.5,063_y_f_n_a.png,O,m,917,12,1,1943.0999999940395,237044.40000000596,7085,NNB,A,11
11,test,3,1.0,1-Back,1,z,Mon Mar 17 2025 14:54:03 GMT-0500 (Central Daylight Time),240603.59999999404,063_y_f_n_a.png,O,z,592,13,1,1609.9000000059605,238993.69999998808,7085,NNB,A,12
12,test,3,0.0,1-Back,1,m,Mon Mar 17 2025 14:54:03 GMT-0500 (Central Daylight Time),242453.0,043_m_f_n_a.png,O,m,831,14,1,1843.5,240609.5,7085,NNB,A,13
13,test,3,0.0,1-Back,1,m,Mon Mar 17 2025 14:54:03 GMT-0500 (Central Daylight Time),244369.19999998808,058_m_m_n_a.png,O,m,886,15,1,1910.3999999761581,242458.80000001192,7085,NNB,A,14
14,test,3,1.0,1-Back,1,z,Mon Mar 17 2025 14:54:03 GMT-0500 (Central Daylight Time),246185.40000000596,058_m_m_n_a.png,O,z,794,16,1,1810.300000011921,244375.09999999404,7085,NNB,A,15
15,test,3,0.0,1-Back,1,m,Mon Mar 17 2025 14:54:03 GMT-0500 (Central Daylight Time),247951.40000000596,047_o_f_n_a.png,O,m,738,17,1,1759.800000011921,246191.59999999404,7085,NNB,A,16
16,test,3,1.0,1-Back,1,z,Mon Mar 17 2025 14:54:03 GMT-0500 (Central Daylight Time),249751.0,047_o_f_n_a.png,O,z,772,18,1,1793.5999999940395,247957.40000000596,7085,NNB,A,17
0,test,4,1.0,1-Back,,,Mon Mar 17 2025 14:54:03 GMT-0500 (Central Daylight Time),249751.0,050_m_f_n_a.png,O,space,1652,1,1,1793.5999999940395,247957.40000000596,7085,NNB,A,0
1,test,4,0.0,1-Back,1,m,Mon Mar 17 2025 14:54:03 GMT-0500 (Central Daylight Time),255149.30000001192,046_o_m_n_a.png,O,m,698,2,1,1710.2000000178814,253439.09999999404,7085,NNB,A,1
2,test,4,0.0,1-Back,1,m,Mon Mar 17 2025 14:54:03 GMT-0500 (Central Daylight Time),256898.59999999404,050_m_f_n_a.png,O,m,718,3,1,1743.699999988079,255154.90000000596,7085,NNB,A,2
3,test,4,0.0,1-Back,1,m,Mon Mar 17 2025 14:54:03 GMT-0500 (Central Daylight Time),258564.90000000596,044_o_f_n_a.png,O,m,641,4,1,1660.0999999940395,256904.80000001192,7085,NNB,A,3
4,test,4,1.0,1-Back,1,z,Mon Mar 17 2025 14:54:03 GMT-0500 (Central Daylight Time),260381.09999999404,044_o_f_n_a.png,O,z,790,5,1,1810.2999999821186,258570.80000001192,7085,NNB,A,4
5,test,4,0.0,1-Back,1,m,Mon Mar 17 2025 14:54:03 GMT-0500 (Central Daylight Time),261948.90000000596,063_y_f_n_a.png,O,m,534,6,1,1561.800000011921,260387.09999999404,7085,NNB,A,5
6,test,4,0.0,1-Back,1,m,Mon Mar 17 2025 14:54:03 GMT-0500 (Central Daylight Time),263846.6999999881,041_y_m_n_a.png,O,m,872,7,1,1892.0,261954.69999998808,7085,NNB,A,6
7,test,4,1.0,1-Back,1,z,Mon Mar 17 2025 14:54:03 GMT-0500 (Central Daylight Time),265462.6999999881,041_y_m_n_a.png,O,z,597,8,1,1610.0999999940395,263852.59999999404,7085,NNB,A,7
8,test,4,0.0,1-Back,1,m,Mon Mar 17 2025 14:54:03 GMT-0500 (Central Daylight Time),267195.3000000119,063_y_f_n_a.png,O,m,700,9,1,1726.800000011921,265468.5,7085,NNB,A,8
9,test,4,0.0,1-Back,1,m,Mon Mar 17 2025 14:54:03 GMT-0500 (Central Daylight Time),268845.09999999404,045_m_m_n_a.png,O,m,624,10,1,1642.7999999821186,267202.3000000119,7085,NNB,A,9
10,test,4,1.0,1-Back,1,z,Mon Mar 17 2025 14:54:03 GMT-0500 (Central Daylight Time),270494.40000000596,045_m_m_n_a.png,O,z,630,11,1,1643.0999999940395,268851.3000000119,7085,NNB,A,10
11,test,4,0.0,1-Back,1,m,Mon Mar 17 2025 14:54:03 GMT-0500 (Central Daylight Time),272227.1999999881,047_o_f_n_a.png,O,m,709,12,1,1726.699999988079,270500.5,7085,NNB,A,11
12,test,4,0.0,1-Back,1,m,Mon Mar 17 2025 14:54:03 GMT-0500 (Central Daylight Time),274121.3000000119,053_o_m_n_a.png,O,m,877,13,1,1887.5,272233.8000000119,7085,NNB,A,12
13,test,4,0.0,1-Back,1,m,Mon Mar 17 2025 14:54:03 GMT-0500 (Central Daylight Time),275809.3000000119,047_o_f_n_a.png,O,m,661,14,1,1681.2000000178814,274128.09999999404,7085,NNB,A,13
14,test,4,0.0,1-Back,1,m,Mon Mar 17 2025 14:54:03 GMT-0500 (Central Daylight Time),277609.0,010_y_f_n_a.png,O,m,778,15,1,1793.0999999940395,275815.90000000596,7085,NNB,A,14
15,test,4,1.0,1-Back,1,z,Mon Mar 17 2025 14:54:03 GMT-0500 (Central Daylight Time),279225.09999999404,010_y_f_n_a.png,O,z,586,16,1,1609.5999999940395,277615.5,7085,NNB,A,15
16,test,4,0.0,1-Back,1,m,Mon Mar 17 2025 14:54:03 GMT-0500 (Central Daylight Time),280824.6999999881,043_m_f_n_a.png,O,m,578,17,1,1593.5,279231.1999999881,7085,NNB,A,16
17,test,4,1.0,1-Back,1,z,Mon Mar 17 2025 14:54:03 GMT-0500 (Central Daylight Time),282607.3000000119,043_m_f_n_a.png,O,z,755,18,1,1776.300000011921,280831.0,7085,NNB,A,17
0,test,5,1.0,1-Back,,,Mon Mar 17 2025 14:54:03 GMT-0500 (Central Daylight Time),282607.3000000119,053_o_m_n_a.png,O,space,1452,1,1,1776.300000011921,280831.0,7085,NNB,A,0
1,test,5,1.0,1-Back,1,z,Mon Mar 17 2025 14:54:03 GMT-0500 (Central Daylight Time),287905.90000000596,053_o_m_n_a.png,O,z,786,2,1,1810.300000011921,286095.59999999404,7085,NNB,A,1
2,test,5,0.0,1-Back,1,m,Mon Mar 17 2025 14:54:03 GMT-0500 (Central Daylight Time),289755.1999999881,063_y_f_n_a.png,O,m,826,3,1,1842.8999999761581,287912.3000000119,7085,NNB,A,2
3,test,5,0.0,1-Back,1,m,Mon Mar 17 2025 14:54:03 GMT-0500 (Central Daylight Time),291471.1999999881,041_y_m_n_a.png,O,m,688,4,1,1710.0999999940395,289761.09999999404,7085,NNB,A,3
4,test,5,0.0,1-Back,1,m,Mon Mar 17 2025 14:54:03 GMT-0500 (Central Daylight Time),293670.59999999404,063_y_f_n_a.png,O,m,1171,5,1,2193.0,291477.59999999404,7085,NNB,A,4
5,test,5,0.0,1-Back,1,m,Mon Mar 17 2025 14:54:03 GMT-0500 (Central Daylight Time),295470.09999999404,058_m_m_n_a.png,O,m,773,6,1,1793.2999999821186,293676.8000000119,7085,NNB,A,5
6,test,5,1.0,1-Back,1,z,Mon Mar 17 2025 14:54:03 GMT-0500 (Central Daylight Time),297103.0,058_m_m_n_a.png,O,z,613,7,1,1626.4000000059605,295476.59999999404,7085,NNB,A,6
7,test,5,0.0,1-Back,1,m,Mon Mar 17 2025 14:54:03 GMT-0500 (Central Daylight Time),298852.1999999881,010_y_f_n_a.png,O,m,716,8,1,1743.3999999761581,297108.8000000119,7085,NNB,A,7
8,test,5,0.0,1-Back,1,m,Mon Mar 17 2025 14:54:03 GMT-0500 (Central Daylight Time),300568.40000000596,008_y_m_n_a.png,O,m,695,9,1,1710.2000000178814,298858.1999999881,7085,NNB,A,8
9,test,5,0.0,1-Back,1,m,Mon Mar 17 2025 14:54:03 GMT-0500 (Central Daylight Time),302417.6999999881,010_y_f_n_a.png,O,m,819,10,1,1843.199999988079,300574.5,7085,NNB,A,9
10,test,5,0.0,1-Back,1,m,Mon Mar 17 2025 14:54:03 GMT-0500 (Central Daylight Time),304183.8000000119,047_o_f_n_a.png,O,m,744,11,1,1759.800000011921,302424.0,7085,NNB,A,10
11,test,5,1.0,1-Back,1,z,Mon Mar 17 2025 14:54:03 GMT-0500 (Central Daylight Time),305934.40000000596,047_o_f_n_a.png,O,z,731,12,1,1744.4000000059605,304190.0,7085,NNB,A,11
12,test,5,0.0,1-Back,1,m,Mon Mar 17 2025 14:54:03 GMT-0500 (Central Daylight Time),307799.3000000119,046_o_m_n_a.png,O,m,838,13,1,1858.6000000238419,305940.6999999881,7085,NNB,A,12
13,test,5,0.0,1-Back,1,m,Mon Mar 17 2025 14:54:03 GMT-0500 (Central Daylight Time),309648.90000000596,050_m_f_n_a.png,O,m,828,14,1,1843.5999999940395,307805.3000000119,7085,NNB,A,13
14,test,5,1.0,1-Back,1,z,Mon Mar 17 2025 14:54:03 GMT-0500 (Central Daylight Time),311498.1999999881,050_m_f_n_a.png,O,z,827,15,1,1843.3999999761581,309654.8000000119,7085,NNB,A,14
15,test,5,0.0,1-Back,1,m,Mon Mar 17 2025 14:54:03 GMT-0500 (Central Daylight Time),313364.40000000596,046_o_m_n_a.png,O,m,849,16,1,1860.300000011921,311504.09999999404,7085,NNB,A,15
16,test,5,0.0,1-Back,1,m,Mon Mar 17 2025 14:54:03 GMT-0500 (Central Daylight Time),315130.40000000596,043_m_f_n_a.png,O,m,743,17,1,1760.300000011921,313370.09999999404,7085,NNB,A,16
17,test,5,0.0,1-Back,1,m,Mon Mar 17 2025 14:54:03 GMT-0500 (Central Daylight Time),317196.59999999404,045_m_m_n_a.png,O,m,1049,18,1,2060.199999988079,315136.40000000596,7085,NNB,A,17
0,prac,1,0.0,2-Back,,,Mon Mar 17 2025 14:54:03 GMT-0500 (Central Daylight Time),317196.59999999404,008_y_m_n_a.png,O,space,8457,1,1,2060.199999988079,315136.40000000596,7085,NNB,A,0
0,prac,1,0.0,2-Back,,,Mon Mar 17 2025 14:54:03 GMT-0500 (Central Daylight Time),317196.59999999404,043_m_f_n_a.png,O,space,8457,2,1,2060.199999988079,315136.40000000596,7085,NNB,A,0
1,prac,1,1.0,2-Back,1,m,Mon Mar 17 2025 14:54:03 GMT-0500 (Central Daylight Time),437559.09999999404,046_o_m_n_a.png,O,m,898,3,1,1692.2999999821186,435866.8000000119,7085,NNB,A,1
1,prac,1,0.0,2-Back,0,m,Mon Mar 17 2025 14:54:03 GMT-0500 (Central Daylight Time),440391.40000000596,047_o_f_n_a.png,O,None,2001,4,1,2824.9000000059605,437566.5,7085,NNB,A,2
1,prac,1,0.0,2-Back,0,z,Mon Mar 17 2025 14:54:03 GMT-0500 (Central Daylight Time),442407.3000000119,046_o_m_n_a.png,O,m,1238,5,1,2008.300000011921,440399.0,7085,NNB,A,3
1,prac,1,1.0,2-Back,0,z,Mon Mar 17 2025 14:54:03 GMT-0500 (Central Daylight Time),444323.59999999404,047_o_f_n_a.png,O,m,1141,6,1,1908.9000000059605,442414.6999999881,7085,NNB,A,4
1,prac,1,0.0,2-Back,0,m,Mon Mar 17 2025 14:54:03 GMT-0500 (Central Daylight Time),446339.40000000596,045_m_m_n_a.png,O,z,1209,7,1,2008.5,444330.90000000596,7085,NNB,A,5
1,prac,1,0.0,2-Back,0,m,Mon Mar 17 2025 14:54:03 GMT-0500 (Central Daylight Time),449138.6999999881,053_o_m_n_a.png,O,None,2001,8,1,2792.0,446346.6999999881,7085,NNB,A,6
2,prac,1,0.0,2-Back,1,m,Mon Mar 17 2025 14:54:03 GMT-0500 (Central Daylight Time),450855.0,010_y_f_n_a.png,O,m,930,9,1,1709.0,449146.0,7085,NNB,A,7
3,prac,1,1.0,2-Back,1,z,Mon Mar 17 2025 14:54:03 GMT-0500 (Central Daylight Time),452454.09999999404,053_o_m_n_a.png,O,z,814,10,1,1592.0999999940395,450862.0,7085,NNB,A,8
4,prac,1,0.0,2-Back,1,m,Mon Mar 17 2025 14:54:03 GMT-0500 (Central Daylight Time),454453.40000000596,063_y_f_n_a.png,O,m,1189,11,1,1991.9000000059605,452461.5,7085,NNB,A,9
5,prac,1,0.0,2-Back,1,m,Mon Mar 17 2025 14:54:03 GMT-0500 (Central Daylight Time),456119.8000000119,045_m_m_n_a.png,O,m,887,12,1,1659.300000011921,454460.5,7085,NNB,A,10
0,prac,2,0.0,2-Back,,,Mon Mar 17 2025 14:54:03 GMT-0500 (Central Daylight Time),456119.8000000119,008_y_m_n_a.png,O,a,4473,1,1,1659.300000011921,454460.5,7085,NNB,A,0
0,prac,2,0.0,2-Back,,,Mon Mar 17 2025 14:54:03 GMT-0500 (Central Daylight Time),456119.8000000119,043_m_f_n_a.png,O,a,4473,2,1,1659.300000011921,454460.5,7085,NNB,A,0
1,prac,2,1.0,2-Back,1,m,Mon Mar 17 2025 14:54:03 GMT-0500 (Central Daylight Time),467249.6999999881,046_o_m_n_a.png,O,m,818,3,1,1592.199999988079,465657.5,7085,NNB,A,1
1,prac,2,0.0,2-Back,0,m,Mon Mar 17 2025 14:54:03 GMT-0500 (Central Daylight Time),470031.90000000596,047_o_f_n_a.png,O,None,2009,4,1,2775.2000000178814,467256.6999999881,7085,NNB,A,2
1,prac,2,0.0,2-Back,0,z,Mon Mar 17 2025 14:54:03 GMT-0500 (Central Daylight Time),472131.3000000119,046_o_m_n_a.png,O,m,1324,5,1,2091.9000000059605,470039.40000000596,7085,NNB,A,3
2,prac,2,1.0,2-Back,1,z,Mon Mar 17 2025 14:54:03 GMT-0500 (Central Daylight Time),473881.1999999881,047_o_f_n_a.png,O,z,969,6,1,1742.3999999761581,472138.8000000119,7085,NNB,A,4
3,prac,2,0.0,2-Back,1,m,Mon Mar 17 2025 14:54:03 GMT-0500 (Central Daylight Time),475497.0,045_m_m_n_a.png,O,m,827,7,1,1608.9000000059605,473888.09999999404,7085,NNB,A,5
4,prac,2,0.0,2-Back,1,m,Mon Mar 17 2025 14:54:03 GMT-0500 (Central Daylight Time),477313.09999999404,053_o_m_n_a.png,O,m,1035,8,1,1808.2999999821186,475504.8000000119,7085,NNB,A,6
5,prac,2,0.0,2-Back,1,m,Mon Mar 17 2025 14:54:03 GMT-0500 (Central Daylight Time),479196.09999999404,010_y_f_n_a.png,O,m,1107,9,1,1875.9000000059605,477320.1999999881,7085,NNB,A,7
6,prac,2,1.0,2-Back,1,z,Mon Mar 17 2025 14:54:03 GMT-0500 (Central Daylight Time),480945.3000000119,053_o_m_n_a.png,O,z,960,10,1,1741.800000011921,479203.5,7085,NNB,A,8
7,prac,2,0.0,2-Back,1,m,Mon Mar 17 2025 14:54:03 GMT-0500 (Central Daylight Time),482778.09999999404,063_y_f_n_a.png,O,m,1051,11,1,1825.5,480952.59999999404,7085,NNB,A,9
8,prac,2,0.0,2-Back,1,m,Mon Mar 17 2025 14:54:03 GMT-0500 (Central Daylight Time),484844.09999999404,045_m_m_n_a.png,O,m,1290,12,1,2058.7999999821186,482785.3000000119,7085,NNB,A,10
0,test,1,0.0,2-Back,,,Mon Mar 17 2025 14:54:03 GMT-0500 (Central Daylight Time),484844.09999999404,041_y_m_n_a.png,O,space,12156,1,1,2058.7999999821186,482785.3000000119,7085,NNB,A,0
0,test,1,0.0,2-Back,,,Mon Mar 17 2025 14:54:03 GMT-0500 (Central Daylight Time),484844.09999999404,041_y_m_n_a.png,O,space,12156,2,1,2058.7999999821186,482785.3000000119,7085,NNB,A,0
1,test,1,0.0,2-Back,1,m,Mon Mar 17 2025 14:54:03 GMT-0500 (Central Daylight Time),511435.6999999881,047_o_f_n_a.png,O,m,775,3,1,1792.7999999821186,509642.90000000596,7085,NNB,A,1
2,test,1,0.0,2-Back,1,m,Mon Mar 17 2025 14:54:03 GMT-0500 (Central Daylight Time),513785.09999999404,058_m_m_n_a.png,O,m,1327,4,1,2343.0999999940395,511442.0,7085,NNB,A,2
3,test,1,1.0,2-Back,1,z,Mon Mar 17 2025 14:54:03 GMT-0500 (Central Daylight Time),515717.5,047_o_f_n_a.png,O,z,915,5,1,1926.5999999940395,513790.90000000596,7085,NNB,A,3
4,test,1,0.0,2-Back,1,m,Mon Mar 17 2025 14:54:03 GMT-0500 (Central Daylight Time),517533.8000000119,063_y_f_n_a.png,O,m,797,6,1,1810.0,515723.8000000119,7085,NNB,A,4
4,test,1,0.0,2-Back,0,m,Mon Mar 17 2025 14:54:03 GMT-0500 (Central Daylight Time),519300.0,058_m_m_n_a.png,O,z,742,7,1,1759.800000011921,517540.1999999881,7085,NNB,A,5
5,test,1,1.0,2-Back,1,z,Mon Mar 17 2025 14:54:03 GMT-0500 (Central Daylight Time),521282.59999999404,063_y_f_n_a.png,O,z,960,8,1,1976.2999999821186,519306.3000000119,7085,NNB,A,6
6,test,1,0.0,2-Back,1,m,Mon Mar 17 2025 14:54:03 GMT-0500 (Central Daylight Time),523148.6999999881,008_y_m_n_a.png,O,m,842,9,1,1859.7999999821186,521288.90000000596,7085,NNB,A,7
7,test,1,0.0,2-Back,1,m,Mon Mar 17 2025 14:54:03 GMT-0500 (Central Daylight Time),524964.900000006,044_o_f_n_a.png,O,m,790,10,1,1809.5999999940395,523155.3000000119,7085,NNB,A,8
8,test,1,1.0,2-Back,1,z,Mon Mar 17 2025 14:54:03 GMT-0500 (Central Daylight Time),526764.3000000119,008_y_m_n_a.png,O,z,775,11,1,1793.300000011921,524971.0,7085,NNB,A,9
9,test,1,0.0,2-Back,1,m,Mon Mar 17 2025 14:54:03 GMT-0500 (Central Daylight Time),528946.900000006,043_m_f_n_a.png,O,m,1159,12,1,2176.5,526770.400000006,7085,NNB,A,10
10,test,1,0.0,2-Back,1,m,Mon Mar 17 2025 14:54:03 GMT-0500 (Central Daylight Time),531612.8000000119,043_m_f_n_a.png,O,m,1640,13,1,2659.5,528953.3000000119,7085,NNB,A,11
11,test,1,0.0,2-Back,1,m,Mon Mar 17 2025 14:54:03 GMT-0500 (Central Daylight Time),533462.3000000119,046_o_m_n_a.png,O,m,822,14,1,1843.0,531619.3000000119,7085,NNB,A,12
12,test,1,0.0,2-Back,1,m,Mon Mar 17 2025 14:54:03 GMT-0500 (Central Daylight Time),535278.3000000119,044_o_f_n_a.png,O,m,797,15,1,1808.9000000059605,533469.400000006,7085,NNB,A,13
13,test,1,1.0,2-Back,1,z,Mon Mar 17 2025 14:54:03 GMT-0500 (Central Daylight Time),537060.900000006,046_o_m_n_a.png,O,z,765,16,1,1776.0999999940395,535284.8000000119,7085,NNB,A,14
14,test,1,0.0,2-Back,1,m,Mon Mar 17 2025 14:54:03 GMT-0500 (Central Daylight Time),538844.099999994,050_m_f_n_a.png,O,m,750,17,1,1777.2999999821186,537066.8000000119,7085,NNB,A,15
15,test,1,0.0,2-Back,1,m,Mon Mar 17 2025 14:54:03 GMT-0500 (Central Daylight Time),540626.5,045_m_m_n_a.png,O,m,752,18,1,1776.0999999940395,538850.400000006,7085,NNB,A,16
0,test,2,0.0,2-Back,,,Mon Mar 17 2025 14:54:03 GMT-0500 (Central Daylight Time),540626.5,045_m_m_n_a.png,O,space,1409,1,1,1776.0999999940395,538850.400000006,7085,NNB,A,0
0,test,2,0.0,2-Back,,,Mon Mar 17 2025 14:54:03 GMT-0500 (Central Daylight Time),540626.5,010_y_f_n_a.png,O,space,1409,2,1,1776.0999999940395,538850.400000006,7085,NNB,A,0
1,test,2,1.0,2-Back,1,z,Mon Mar 17 2025 14:54:03 GMT-0500 (Central Daylight Time),548824.099999994,045_m_m_n_a.png,O,z,662,3,1,1677.199999988079,547146.900000006,7085,NNB,A,1
2,test,2,0.0,2-Back,1,m,Mon Mar 17 2025 14:54:03 GMT-0500 (Central Daylight Time),550673.400000006,050_m_f_n_a.png,O,m,827,4,1,1842.9000000059605,548830.5,7085,NNB,A,2
2,test,2,0.0,2-Back,0,m,Mon Mar 17 2025 14:54:03 GMT-0500 (Central Daylight Time),552273.0,010_y_f_n_a.png,O,z,570,5,1,1593.4000000059605,550679.599999994,7085,NNB,A,3
3,test,2,0.0,2-Back,1,m,Mon Mar 17 2025 14:54:03 GMT-0500 (Central Daylight Time),554022.3000000119,046_o_m_n_a.png,O,m,722,6,1,1743.0,552279.3000000119,7085,NNB,A,4
4,test,2,0.0,2-Back,1,m,Mon Mar 17 2025 14:54:03 GMT-0500 (Central Daylight Time),555888.599999994,063_y_f_n_a.png,O,m,845,7,1,1859.9000000059605,554028.6999999881,7085,NNB,A,5
5,test,2,1.0,2-Back,1,z,Mon Mar 17 2025 14:54:03 GMT-0500 (Central Daylight Time),557422.5,046_o_m_n_a.png,O,z,507,8,1,1527.699999988079,555894.8000000119,7085,NNB,A,6
6,test,2,0.0,2-Back,1,m,Mon Mar 17 2025 14:54:03 GMT-0500 (Central Daylight Time),559320.5,008_y_m_n_a.png,O,m,879,9,1,1891.800000011921,557428.6999999881,7085,NNB,A,7
7,test,2,0.0,2-Back,1,m,Mon Mar 17 2025 14:54:03 GMT-0500 (Central Daylight Time),561070.3000000119,008_y_m_n_a.png,O,m,730,10,1,1743.4000000059605,559326.900000006,7085,NNB,A,8
8,test,2,0.0,2-Back,1,m,Mon Mar 17 2025 14:54:03 GMT-0500 (Central Daylight Time),562953.0,043_m_f_n_a.png,O,m,861,11,1,1876.5999999940395,561076.400000006,7085,NNB,A,9
9,test,2,0.0,2-Back,1,m,Mon Mar 17 2025 14:54:03 GMT-0500 (Central Daylight Time),564985.5,010_y_f_n_a.png,O,m,1010,12,1,2026.199999988079,562959.3000000119,7085,NNB,A,10
10,test,2,1.0,2-Back,1,z,Mon Mar 17 2025 14:54:03 GMT-0500 (Central Daylight Time),566668.599999994,043_m_f_n_a.png,O,z,649,13,1,1676.7999999821186,564991.8000000119,7085,NNB,A,11
11,test,2,0.0,2-Back,1,m,Mon Mar 17 2025 14:54:03 GMT-0500 (Central Daylight Time),568534.3000000119,053_o_m_n_a.png,O,m,847,14,1,1859.4000000059605,566674.900000006,7085,NNB,A,12
11,test,2,0.0,2-Back,0,m,Mon Mar 17 2025 14:54:03 GMT-0500 (Central Daylight Time),570433.8000000119,053_o_m_n_a.png,O,z,878,15,1,1892.7000000178814,568541.099999994,7085,NNB,A,13
12,test,2,0.0,2-Back,1,m,Mon Mar 17 2025 14:54:03 GMT-0500 (Central Daylight Time),572333.3000000119,044_o_f_n_a.png,O,m,873,16,1,1893.4000000059605,570439.900000006,7085,NNB,A,14
13,test,2,0.0,2-Back,1,m,Mon Mar 17 2025 14:54:03 GMT-0500 (Central Daylight Time),574082.8000000119,058_m_m_n_a.png,O,m,718,17,1,1743.2000000178814,572339.599999994,7085,NNB,A,15
14,test,2,1.0,2-Back,1,z,Mon Mar 17 2025 14:54:03 GMT-0500 (Central Daylight Time),575715.5,044_o_f_n_a.png,O,z,600,18,1,1626.699999988079,574088.8000000119,7085,NNB,A,16
0,test,3,1.0,2-Back,,,Mon Mar 17 2025 14:54:03 GMT-0500 (Central Daylight Time),575715.5,041_y_m_n_a.png,O,space,1312,1,1,1626.699999988079,574088.8000000119,7085,NNB,A,0
0,test,3,1.0,2-Back,,,Mon Mar 17 2025 14:54:03 GMT-0500 (Central Daylight Time),575715.5,041_y_m_n_a.png,O,space,1312,2,1,1626.699999988079,574088.8000000119,7085,NNB,A,0
1,test,3,0.0,2-Back,1,m,Mon Mar 17 2025 14:54:03 GMT-0500 (Central Daylight Time),583879.8000000119,044_o_f_n_a.png,O,m,712,3,1,1726.2000000178814,582153.599999994,7085,NNB,A,1
2,test,3,0.0,2-Back,1,m,Mon Mar 17 2025 14:54:03 GMT-0500 (Central Daylight Time),585695.6999999881,045_m_m_n_a.png,O,m,787,4,1,1809.699999988079,583886.0,7085,NNB,A,2
3,test,3,1.0,2-Back,1,z,Mon Mar 17 2025 14:54:03 GMT-0500 (Central Daylight Time),587279.6999999881,044_o_f_n_a.png,O,z,563,5,1,1578.0999999940395,585701.599999994,7085,NNB,A,3
4,test,3,0.0,2-Back,1,m,Mon Mar 17 2025 14:54:03 GMT-0500 (Central Daylight Time),589679.0,008_y_m_n_a.png,O,m,1373,6,1,2392.9000000059605,587286.099999994,7085,NNB,A,4
5,test,3,0.0,2-Back,1,m,Mon Mar 17 2025 14:54:03 GMT-0500 (Central Daylight Time),591660.599999994,045_m_m_n_a.png,O,m,958,7,1,1975.199999988079,589685.400000006,7085,NNB,A,5
6,test,3,1.0,2-Back,1,z,Mon Mar 17 2025 14:54:03 GMT-0500 (Central Daylight Time),593310.099999994,008_y_m_n_a.png,O,z,630,8,1,1643.0999999940395,591667.0,7085,NNB,A,6
7,test,3,0.0,2-Back,1,m,Mon Mar 17 2025 14:54:03 GMT-0500 (Central Daylight Time),595059.6999999881,010_y_f_n_a.png,O,m,725,9,1,1743.3999999761581,593316.3000000119,7085,NNB,A,7
8,test,3,0.0,2-Back,1,m,Mon Mar 17 2025 14:54:03 GMT-0500 (Central Daylight Time),596992.099999994,058_m_m_n_a.png,O,m,912,10,1,1926.2999999821186,595065.8000000119,7085,NNB,A,8
9,test,3,1.0,2-Back,1,z,Mon Mar 17 2025 14:54:03 GMT-0500 (Central Daylight Time),598908.5,010_y_f_n_a.png,O,z,891,11,1,1910.4000000059605,596998.099999994,7085,NNB,A,9
10,test,3,1.0,2-Back,1,z,Mon Mar 17 2025 14:54:03 GMT-0500 (Central Daylight Time),601007.6999999881,058_m_m_n_a.png,O,z,1072,12,1,2092.699999988079,598915.0,7085,NNB,A,10
11,test,3,0.0,2-Back,1,m,Mon Mar 17 2025 14:54:03 GMT-0500 (Central Daylight Time),602940.5,044_o_f_n_a.png,O,m,915,13,1,1926.5,601014.0,7085,NNB,A,11
12,test,3,0.0,2-Back,1,m,Mon Mar 17 2025 14:54:03 GMT-0500 (Central Daylight Time),604690.0,050_m_f_n_a.png,O,m,719,14,1,1742.800000011921,602947.1999999881,7085,NNB,A,12
13,test,3,0.0,2-Back,1,m,Mon Mar 17 2025 14:54:03 GMT-0500 (Central Daylight Time),606389.400000006,046_o_m_n_a.png,O,m,673,15,1,1692.9000000059605,604696.5,7085,NNB,A,13
14,test,3,1.0,2-Back,1,z,Mon Mar 17 2025 14:54:03 GMT-0500 (Central Daylight Time),608372.0,050_m_f_n_a.png,O,z,957,16,1,1976.0999999940395,606395.900000006,7085,NNB,A,14
15,test,3,0.0,2-Back,1,m,Mon Mar 17 2025 14:54:03 GMT-0500 (Central Daylight Time),610105.099999994,047_o_f_n_a.png,O,m,711,17,1,1726.7999999821186,608378.3000000119,7085,NNB,A,15
15,test,3,0.0,2-Back,0,m,Mon Mar 17 2025 14:54:03 GMT-0500 (Central Daylight Time),612420.8000000119,047_o_f_n_a.png,O,z,1290,18,1,2309.5,610111.3000000119,7085,NNB,A,16
0,test,4,0.0,2-Back,,,Mon Mar 17 2025 14:54:03 GMT-0500 (Central Daylight Time),612420.8000000119,053_o_m_n_a.png,O,space,1759,1,1,2309.5,610111.3000000119,7085,NNB,A,0
0,test,4,0.0,2-Back,,,Mon Mar 17 2025 14:54:03 GMT-0500 (Central Daylight Time),612420.8000000119,063_y_f_n_a.png,O,space,1759,2,1,2309.5,610111.3000000119,7085,NNB,A,0
1,test,4,1.0,2-Back,1,z,Mon Mar 17 2025 14:54:03 GMT-0500 (Central Daylight Time),621184.8000000119,053_o_m_n_a.png,O,z,878,3,1,1893.7000000178814,619291.099999994,7085,NNB,A,1
2,test,4,1.0,2-Back,1,z,Mon Mar 17 2025 14:54:03 GMT-0500 (Central Daylight Time),623000.599999994,063_y_f_n_a.png,O,z,795,4,1,1809.5,621191.099999994,7085,NNB,A,2
3,test,4,0.0,2-Back,1,m,Mon Mar 17 2025 14:54:03 GMT-0500 (Central Daylight Time),624850.5,044_o_f_n_a.png,O,m,819,5,1,1843.4000000059605,623007.099999994,7085,NNB,A,3
3,test,4,0.0,2-Back,0,m,Mon Mar 17 2025 14:54:03 GMT-0500 (Central Daylight Time),626682.900000006,044_o_f_n_a.png,O,z,809,6,1,1826.0999999940395,624856.8000000119,7085,NNB,A,4
4,test,4,0.0,2-Back,1,m,Mon Mar 17 2025 14:54:03 GMT-0500 (Central Daylight Time),628415.599999994,043_m_f_n_a.png,O,m,704,7,1,1726.2999999821186,626689.3000000119,7085,NNB,A,5
5,test,4,0.0,2-Back,1,m,Mon Mar 17 2025 14:54:03 GMT-0500 (Central Daylight Time),630182.0,008_y_m_n_a.png,O,m,747,8,1,1759.9000000059605,628422.099999994,7085,NNB,A,6
6,test,4,1.0,2-Back,1,z,Mon Mar 17 2025 14:54:03 GMT-0500 (Central Daylight Time),631765.0,043_m_f_n_a.png,O,z,566,9,1,1576.800000011921,630188.1999999881,7085,NNB,A,7
7,test,4,0.0,2-Back,1,m,Mon Mar 17 2025 14:54:03 GMT-0500 (Central Daylight Time),633447.599999994,058_m_m_n_a.png,O,m,662,10,1,1676.4000000059605,631771.1999999881,7085,NNB,A,8
8,test,4,0.0,2-Back,1,m,Mon Mar 17 2025 14:54:03 GMT-0500 (Central Daylight Time),635613.5,008_y_m_n_a.png,O,m,1147,11,1,2159.9000000059605,633453.599999994,7085,NNB,A,9
9,test,4,0.0,2-Back,1,m,Mon Mar 17 2025 14:54:03 GMT-0500 (Central Daylight Time),637462.900000006,047_o_f_n_a.png,O,m,822,12,1,1843.300000011921,635619.599999994,7085,NNB,A,10
10,test,4,0.0,2-Back,1,m,Mon Mar 17 2025 14:54:03 GMT-0500 (Central Daylight Time),639229.400000006,041_y_m_n_a.png,O,m,733,13,1,1759.9000000059605,637469.5,7085,NNB,A,11
11,test,4,1.0,2-Back,1,z,Mon Mar 17 2025 14:54:03 GMT-0500 (Central Daylight Time),641028.5,047_o_f_n_a.png,O,z,782,14,1,1792.800000011921,639235.6999999881,7085,NNB,A,12
12,test,4,1.0,2-Back,1,z,Mon Mar 17 2025 14:54:03 GMT-0500 (Central Daylight Time),642961.3000000119,041_y_m_n_a.png,O,z,909,15,1,1926.7000000178814,641034.599999994,7085,NNB,A,13
13,test,4,0.0,2-Back,1,m,Mon Mar 17 2025 14:54:03 GMT-0500 (Central Daylight Time),644694.099999994,045_m_m_n_a.png,O,m,714,16,1,1726.4000000059605,642967.6999999881,7085,NNB,A,14
14,test,4,0.0,2-Back,1,m,Mon Mar 17 2025 14:54:03 GMT-0500 (Central Daylight Time),646643.400000006,050_m_f_n_a.png,O,m,917,17,1,1942.7000000178814,644700.6999999881,7085,NNB,A,15
15,test,4,1.0,2-Back,1,z,Mon Mar 17 2025 14:54:03 GMT-0500 (Central Daylight Time),648209.5,045_m_m_n_a.png,O,z,544,18,1,1559.699999988079,646649.8000000119,7085,NNB,A,16
0,test,5,1.0,2-Back,,,Mon Mar 17 2025 14:54:03 GMT-0500 (Central Daylight Time),648209.5,041_y_m_n_a.png,O,space,1242,1,1,1559.699999988079,646649.8000000119,7085,NNB,A,0
0,test,5,1.0,2-Back,,,Mon Mar 17 2025 14:54:03 GMT-0500 (Central Daylight Time),648209.5,050_m_f_n_a.png,O,space,1242,2,1,1559.699999988079,646649.8000000119,7085,NNB,A,0
1,test,5,1.0,2-Back,1,z,Mon Mar 17 2025 14:54:03 GMT-0500 (Central Daylight Time),656157.3000000119,041_y_m_n_a.png,O,z,623,3,1,1643.7000000178814,654513.599999994,7085,NNB,A,1
2,test,5,1.0,2-Back,1,z,Mon Mar 17 2025 14:54:03 GMT-0500 (Central Daylight Time),657972.8000000119,050_m_f_n_a.png,O,z,798,4,1,1809.5,656163.3000000119,7085,NNB,A,2
3,test,5,0.0,2-Back,1,m,Mon Mar 17 2025 14:54:03 GMT-0500 (Central Daylight Time),659873.8000000119,047_o_f_n_a.png,O,m,878,5,1,1894.800000011921,657979.0,7085,NNB,A,3
4,test,5,0.0,2-Back,1,m,Mon Mar 17 2025 14:54:03 GMT-0500 (Central Daylight Time),662005.1999999881,041_y_m_n_a.png,O,m,1106,6,1,2125.399999976158,659879.8000000119,7085,NNB,A,4
5,test,5,0.0,2-Back,1,m,Mon Mar 17 2025 14:54:03 GMT-0500 (Central Daylight Time),663821.3000000119,010_y_f_n_a.png,O,m,798,7,1,1809.6000000238419,662011.6999999881,7085,NNB,A,5
5,test,5,0.0,2-Back,0,m,Mon Mar 17 2025 14:54:03 GMT-0500 (Central Daylight Time),665521.0,047_o_f_n_a.png,O,z,670,8,1,1693.4000000059605,663827.599999994,7085,NNB,A,6
5,test,5,1.0,2-Back,0,z,Mon Mar 17 2025 14:54:03 GMT-0500 (Central Daylight Time),667320.400000006,010_y_f_n_a.png,O,m,778,9,1,1793.300000011921,665527.099999994,7085,NNB,A,7
6,test,5,0.0,2-Back,1,m,Mon Mar 17 2025 14:54:03 GMT-0500 (Central Daylight Time),669136.3000000119,046_o_m_n_a.png,O,m,795,10,1,1810.0,667326.3000000119,7085,NNB,A,8
7,test,5,0.0,2-Back,1,m,Mon Mar 17 2025 14:54:03 GMT-0500 (Central Daylight Time),671068.8000000119,043_m_f_n_a.png,O,m,915,11,1,1926.4000000059605,669142.400000006,7085,NNB,A,9
8,test,5,0.0,2-Back,1,m,Mon Mar 17 2025 14:54:03 GMT-0500 (Central Daylight Time),672951.599999994,058_m_m_n_a.png,O,m,856,12,1,1876.7999999821186,671074.8000000119,7085,NNB,A,10
8,test,5,0.0,2-Back,0,m,Mon Mar 17 2025 14:54:03 GMT-0500 (Central Daylight Time),674751.1999999881,046_o_m_n_a.png,O,z,779,13,1,1793.0,672958.1999999881,7085,NNB,A,11
8,test,5,1.0,2-Back,0,z,Mon Mar 17 2025 14:54:03 GMT-0500 (Central Daylight Time),676667.3000000119,058_m_m_n_a.png,O,m,884,14,1,1909.800000011921,674757.5,7085,NNB,A,12
9,test,5,0.0,2-Back,1,m,Mon Mar 17 2025 14:54:03 GMT-0500 (Central Daylight Time),678583.400000006,063_y_f_n_a.png,O,m,888,15,1,1909.5999999940395,676673.8000000119,7085,NNB,A,13
10,test,5,0.0,2-Back,1,m,Mon Mar 17 2025 14:54:03 GMT-0500 (Central Daylight Time),680266.099999994,053_o_m_n_a.png,O,m,652,16,1,1676.5,678589.599999994,7085,NNB,A,14
11,test,5,0.0,2-Back,1,m,Mon Mar 17 2025 14:54:03 GMT-0500 (Central Daylight Time),681982.5,043_m_f_n_a.png,O,m,697,17,1,1709.9000000059605,680272.599999994,7085,NNB,A,15
12,test,5,1.0,2-Back,1,z,Mon Mar 17 2025 14:54:03 GMT-0500 (Central Daylight Time),683898.5,053_o_m_n_a.png,O,z,894,18,1,1909.699999988079,681988.8000000119,7085,NNB,A,16
