block_c,block_dur,condition,countdown,datetime,endtime,list,multichar_response,project,response,response_time,session_number,start_end,starttime,subject_id,task,task_vers,trial
,,,,Fri Mar 07 2025 15:04:34 GMT-0600 (Central Standard Time),,,,O,space,1449,1,,,7099,WL,A,
prac,,0,,Fri Mar 07 2025 15:04:34 GMT-0600 (Central Standard Time),,NA,b,O,b,2627,1,,,7099,WL,A,1.0
prac,,0,,Fri Mar 07 2025 15:04:34 GMT-0600 (Central Standard Time),,NA,bo,O,o,61,1,,,7099,WL,A,1.0
prac,,0,,Fri Mar 07 2025 15:04:34 GMT-0600 (Central Standard Time),,NA,boo,O,o,136,1,,,7099,WL,A,1.0
prac,,0,,Fri Mar 07 2025 15:04:34 GMT-0600 (Central Standard Time),,NA,boos,O,s,132,1,,,7099,WL,A,1.0
prac,,0,,Fri Mar 07 2025 15:04:34 GMT-0600 (Central Standard Time),,NA,boost,O,t,61,1,,,7099,WL,A,1.0
prac,,0,,Fri Mar 07 2025 15:04:34 GMT-0600 (Central Standard Time),,NA,boostenter,O,enter,1139,1,,,7099,WL,A,1.0
1,1.9320001602172852,learn,58067.999839782715,Fri Mar 07 2025 15:04:34 GMT-0600 (Central Standard Time),148282.80000000447,A,b,O,b,1912,1,1932.1000000014901,146350.70000000298,7099,WL,A,1.0
1,2.013000011444092,learn,57986.99998855591,Fri Mar 07 2025 15:04:34 GMT-0600 (Central Standard Time),148363.3999999985,A,bo,O,o,67,1,2012.6999999955297,146350.70000000298,7099,WL,A,1.0
1,2.182000160217285,learn,57817.999839782715,Fri Mar 07 2025 15:04:34 GMT-0600 (Central Standard Time),148532.1000000015,A,boo,O,o,147,1,2181.39999999851,146350.70000000298,7099,WL,A,1.0
1,2.42900013923645,learn,57570.99986076355,Fri Mar 07 2025 15:04:34 GMT-0600 (Central Standard Time),148779.3999999985,A,book,O,k,233,1,2428.6999999955297,146350.70000000298,7099,WL,A,1.0
1,2.8489999771118164,learn,57151.00002288818,Fri Mar 07 2025 15:04:34 GMT-0600 (Central Standard Time),149198.8999999985,A,bookenter,O,enter,416,1,2848.1999999955297,146350.70000000298,7099,WL,A,1.0
1,3.248000144958496,learn,56751.999855041504,Fri Mar 07 2025 15:04:34 GMT-0600 (Central Standard Time),149598.3999999985,A,f,O,f,393,1,399.09999999403954,149199.30000000447,7099,WL,A,2.0
1,3.2970001697540283,learn,56702.99983024597,Fri Mar 07 2025 15:04:34 GMT-0600 (Central Standard Time),149646.8999999985,A,fl,O,l,40,1,447.59999999403954,149199.30000000447,7099,WL,A,2.0
1,3.498000144958496,learn,56501.999855041504,Fri Mar 07 2025 15:04:34 GMT-0600 (Central Standard Time),149848.30000000447,A,flo,O,o,185,1,649.0,149199.30000000447,7099,WL,A,2.0
1,3.562999963760376,learn,56437.000036239624,Fri Mar 07 2025 15:04:34 GMT-0600 (Central Standard Time),149913.6000000015,A,flow,O,w,44,1,714.2999999970198,149199.30000000447,7099,WL,A,2.0
1,3.5950000286102295,learn,56404.99997138977,Fri Mar 07 2025 15:04:34 GMT-0600 (Central Standard Time),149945.5,A,flowe,O,e,20,1,746.1999999955297,149199.30000000447,7099,WL,A,2.0
1,3.6460001468658447,learn,56353.999853134155,Fri Mar 07 2025 15:04:34 GMT-0600 (Central Standard Time),149996.1000000015,A,flower,O,r,29,1,796.7999999970198,149199.30000000447,7099,WL,A,2.0
1,3.814000129699707,learn,56185.99987030029,Fri Mar 07 2025 15:04:34 GMT-0600 (Central Standard Time),150164.6000000015,A,flowerenter,O,enter,145,1,965.2999999970198,149199.30000000447,7099,WL,A,2.0
1,4.814000129699707,learn,55185.99987030029,Fri Mar 07 2025 15:04:34 GMT-0600 (Central Standard Time),151164.70000000298,A,t,O,t,987,1,999.8000000044703,150164.8999999985,7099,WL,A,3.0
1,4.998000144958496,learn,55001.999855041504,Fri Mar 07 2025 15:04:34 GMT-0600 (Central Standard Time),151348.0,A,tr,O,r,162,1,1183.1000000014901,150164.8999999985,7099,WL,A,3.0
1,5.045000076293945,learn,54954.999923706055,Fri Mar 07 2025 15:04:34 GMT-0600 (Central Standard Time),151395.5,A,tra,O,a,31,1,1230.6000000014901,150164.8999999985,7099,WL,A,3.0
1,5.114000082015991,learn,54885.99991798401,Fri Mar 07 2025 15:04:34 GMT-0600 (Central Standard Time),151463.70000000298,A,trai,O,i,50,1,1298.8000000044703,150164.8999999985,7099,WL,A,3.0
1,5.180999994277954,learn,54819.000005722046,Fri Mar 07 2025 15:04:34 GMT-0600 (Central Standard Time),151530.80000000447,A,train,O,n,53,1,1365.9000000059605,150164.8999999985,7099,WL,A,3.0
1,5.414999961853027,learn,54585.00003814697,Fri Mar 07 2025 15:04:34 GMT-0600 (Central Standard Time),151764.80000000447,A,trainenter,O,enter,220,1,1599.9000000059605,150164.8999999985,7099,WL,A,3.0
1,5.730000019073486,learn,54269.999980926514,Fri Mar 07 2025 15:04:34 GMT-0600 (Central Standard Time),152080.6000000015,A,m,O,m,298,1,315.3999999985099,151765.20000000298,7099,WL,A,4.0
1,5.897000074386597,learn,54102.9999256134,Fri Mar 07 2025 15:04:34 GMT-0600 (Central Standard Time),152246.70000000298,A,mu,O,u,150,1,481.5,151765.20000000298,7099,WL,A,4.0
1,5.979000091552734,learn,54020.999908447266,Fri Mar 07 2025 15:04:34 GMT-0600 (Central Standard Time),152329.6000000015,A,mug,O,g,70,1,564.3999999985099,151765.20000000298,7099,WL,A,4.0
1,6.147000074386597,learn,53852.9999256134,Fri Mar 07 2025 15:04:34 GMT-0600 (Central Standard Time),152496.70000000298,A,mugenter,O,enter,151,1,731.5,151765.20000000298,7099,WL,A,4.0
1,6.7790000438690186,learn,53220.99995613098,Fri Mar 07 2025 15:04:34 GMT-0600 (Central Standard Time),153129.80000000447,A,c,O,c,614,1,632.7000000029802,152497.1000000015,7099,WL,A,5.0
1,6.864000082015991,learn,53135.99991798401,Fri Mar 07 2025 15:04:34 GMT-0600 (Central Standard Time),153214.0,A,ch,O,h,76,1,716.8999999985099,152497.1000000015,7099,WL,A,5.0
1,6.911999940872192,learn,53088.00005912781,Fri Mar 07 2025 15:04:34 GMT-0600 (Central Standard Time),153262.20000000298,A,chi,O,i,31,1,765.1000000014901,152497.1000000015,7099,WL,A,5.0
1,7.080000162124634,learn,52919.999837875366,Fri Mar 07 2025 15:04:34 GMT-0600 (Central Standard Time),153430.5,A,chim,O,m,152,1,933.3999999985099,152497.1000000015,7099,WL,A,5.0
1,7.2820000648498535,learn,52717.99993515015,Fri Mar 07 2025 15:04:34 GMT-0600 (Central Standard Time),153631.80000000447,A,chimn,O,n,183,1,1134.7000000029802,152497.1000000015,7099,WL,A,5.0
1,7.397000074386597,learn,52602.9999256134,Fri Mar 07 2025 15:04:34 GMT-0600 (Central Standard Time),153747.30000000447,A,chimne,O,e,94,1,1250.2000000029802,152497.1000000015,7099,WL,A,5.0
1,7.480999946594238,learn,52519.00005340576,Fri Mar 07 2025 15:04:34 GMT-0600 (Central Standard Time),153830.8999999985,A,chimney,O,y,74,1,1333.7999999970198,152497.1000000015,7099,WL,A,5.0
1,7.630000114440918,learn,52369.99988555908,Fri Mar 07 2025 15:04:34 GMT-0600 (Central Standard Time),153980.1000000015,A,chimneyenter,O,enter,134,1,1483.0,152497.1000000015,7099,WL,A,5.0
1,8.01200008392334,learn,51987.99991607666,Fri Mar 07 2025 15:04:34 GMT-0600 (Central Standard Time),154362.6000000015,A,m,O,m,372,1,382.20000000298023,153980.3999999985,7099,WL,A,6.0
1,8.078999996185303,learn,51921.0000038147,Fri Mar 07 2025 15:04:34 GMT-0600 (Central Standard Time),154429.70000000298,A,me,O,e,60,1,449.30000000447035,153980.3999999985,7099,WL,A,6.0
1,8.17900013923645,learn,51820.99986076355,Fri Mar 07 2025 15:04:34 GMT-0600 (Central Standard Time),154529.5,A,mea,O,a,90,1,549.1000000014901,153980.3999999985,7099,WL,A,6.0
1,8.281000137329102,learn,51718.9998626709,Fri Mar 07 2025 15:04:34 GMT-0600 (Central Standard Time),154631.20000000298,A,mead,O,d,95,1,650.8000000044703,153980.3999999985,7099,WL,A,6.0
1,8.796000003814697,learn,51203.9999961853,Fri Mar 07 2025 15:04:34 GMT-0600 (Central Standard Time),155146.6000000015,A,meado,O,o,505,1,1166.2000000029802,153980.3999999985,7099,WL,A,6.0
1,8.896000146865845,learn,51103.999853134155,Fri Mar 07 2025 15:04:34 GMT-0600 (Central Standard Time),155246.0,A,meadow,O,w,84,1,1265.6000000014901,153980.3999999985,7099,WL,A,6.0
1,8.995000123977661,learn,51004.99987602234,Fri Mar 07 2025 15:04:34 GMT-0600 (Central Standard Time),155345.3999999985,A,meadowenter,O,enter,86,1,1365.0,153980.3999999985,7099,WL,A,6.0
1,9.396000146865845,learn,50603.999853134155,Fri Mar 07 2025 15:04:34 GMT-0600 (Central Standard Time),155746.5,A,a,O,a,382,1,400.79999999701977,155345.70000000298,7099,WL,A,7.0
1,9.478000164031982,learn,50521.99983596802,Fri Mar 07 2025 15:04:34 GMT-0600 (Central Standard Time),155828.8999999985,A,ap,O,p,69,1,483.19999999552965,155345.70000000298,7099,WL,A,7.0
1,9.61300015449524,learn,50386.99984550476,Fri Mar 07 2025 15:04:34 GMT-0600 (Central Standard Time),155963.20000000298,A,app,O,p,120,1,617.5,155345.70000000298,7099,WL,A,7.0
1,9.778000116348267,learn,50221.99988365173,Fri Mar 07 2025 15:04:34 GMT-0600 (Central Standard Time),156128.6000000015,A,appl,O,l,147,1,782.8999999985099,155345.70000000298,7099,WL,A,7.0
1,9.880000114440918,learn,50119.99988555908,Fri Mar 07 2025 15:04:34 GMT-0600 (Central Standard Time),156230.0,A,apple,O,e,92,1,884.2999999970198,155345.70000000298,7099,WL,A,7.0
1,10.01200008392334,learn,49987.99991607666,Fri Mar 07 2025 15:04:34 GMT-0600 (Central Standard Time),156362.3999999985,A,appleenter,O,enter,119,1,1016.6999999955297,155345.70000000298,7099,WL,A,7.0
1,10.496999979019165,learn,49503.000020980835,Fri Mar 07 2025 15:04:34 GMT-0600 (Central Standard Time),156847.6000000015,A,g,O,g,479,1,485.0,156362.6000000015,7099,WL,A,8.0
1,10.561000108718872,learn,49438.99989128113,Fri Mar 07 2025 15:04:34 GMT-0600 (Central Standard Time),156911.3999999985,A,go,O,o,45,1,548.7999999970198,156362.6000000015,7099,WL,A,8.0
1,10.729000091552734,learn,49270.999908447266,Fri Mar 07 2025 15:04:34 GMT-0600 (Central Standard Time),157079.70000000298,A,gol,O,l,151,1,717.1000000014901,156362.6000000015,7099,WL,A,8.0
1,10.82800006866455,learn,49171.99993133545,Fri Mar 07 2025 15:04:34 GMT-0600 (Central Standard Time),157178.20000000298,A,gold,O,d,78,1,815.6000000014901,156362.6000000015,7099,WL,A,8.0
1,10.979000091552734,learn,49020.999908447266,Fri Mar 07 2025 15:04:34 GMT-0600 (Central Standard Time),157329.30000000447,A,goldenter,O,enter,130,1,966.7000000029802,156362.6000000015,7099,WL,A,8.0
1,11.778000116348267,learn,48221.99988365173,Fri Mar 07 2025 15:04:34 GMT-0600 (Central Standard Time),158128.1000000015,A,f,O,f,790,1,798.5,157329.6000000015,7099,WL,A,9.0
1,11.84500002861023,learn,48154.99997138977,Fri Mar 07 2025 15:04:34 GMT-0600 (Central Standard Time),158195.5,A,fl,O,l,54,1,865.8999999985099,157329.6000000015,7099,WL,A,9.0
1,12.029000043869019,learn,47970.99995613098,Fri Mar 07 2025 15:04:34 GMT-0600 (Central Standard Time),158379.3999999985,A,flo,O,o,164,1,1049.7999999970198,157329.6000000015,7099,WL,A,9.0
1,12.075999975204468,learn,47924.00002479553,Fri Mar 07 2025 15:04:34 GMT-0600 (Central Standard Time),158426.5,A,flow,O,w,35,1,1096.8999999985099,157329.6000000015,7099,WL,A,9.0
1,12.127000093460083,learn,47872.99990653992,Fri Mar 07 2025 15:04:34 GMT-0600 (Central Standard Time),158476.8999999985,A,flowe,O,e,29,1,1147.2999999970198,157329.6000000015,7099,WL,A,9.0
1,12.160000085830688,learn,47839.99991416931,Fri Mar 07 2025 15:04:34 GMT-0600 (Central Standard Time),158510.1000000015,A,flower,O,r,12,1,1180.5,157329.6000000015,7099,WL,A,9.0
1,12.245000123977661,learn,47754.99987602234,Fri Mar 07 2025 15:04:34 GMT-0600 (Central Standard Time),158595.70000000298,A,flowerenter,O,enter,72,1,1266.1000000014901,157329.6000000015,7099,WL,A,9.0
1,18.177000045776367,learn,41822.99995422363,Fri Mar 07 2025 15:04:34 GMT-0600 (Central Standard Time),164527.5,A,r,O,r,5926,1,5931.5,158596.0,7099,WL,A,10.0
1,18.276000022888184,learn,41723.99997711182,Fri Mar 07 2025 15:04:34 GMT-0600 (Central Standard Time),164626.3999999985,A,ru,O,u,77,1,6030.39999999851,158596.0,7099,WL,A,10.0
1,18.360000133514404,learn,41639.999866485596,Fri Mar 07 2025 15:04:34 GMT-0600 (Central Standard Time),164710.3999999985,A,rug,O,g,77,1,6114.39999999851,158596.0,7099,WL,A,10.0
1,18.659000158309937,learn,41340.99984169006,Fri Mar 07 2025 15:04:34 GMT-0600 (Central Standard Time),165009.30000000447,A,rugenter,O,enter,288,1,6413.30000000447,158596.0,7099,WL,A,10.0
1,25.192000150680542,learn,34807.99984931946,Fri Mar 07 2025 15:04:34 GMT-0600 (Central Standard Time),171542.20000000298,A,f,O,f,6510,1,6532.60000000149,165009.6000000015,7099,WL,A,11.0
1,25.223000049591064,learn,34776.999950408936,Fri Mar 07 2025 15:04:34 GMT-0600 (Central Standard Time),171572.80000000447,A,fi,O,i,7,1,6563.20000000298,165009.6000000015,7099,WL,A,11.0
1,25.272000074386597,learn,34727.9999256134,Fri Mar 07 2025 15:04:34 GMT-0600 (Central Standard Time),171622.30000000447,A,fin,O,n,43,1,6612.70000000298,165009.6000000015,7099,WL,A,11.0
1,25.35800004005432,learn,34641.99995994568,Fri Mar 07 2025 15:04:34 GMT-0600 (Central Standard Time),171708.0,A,fing,O,g,72,1,6698.39999999851,165009.6000000015,7099,WL,A,11.0
1,25.52400016784668,learn,34475.99983215332,Fri Mar 07 2025 15:04:34 GMT-0600 (Central Standard Time),171874.5,A,finge,O,e,146,1,6864.89999999851,165009.6000000015,7099,WL,A,11.0
1,25.538000106811523,learn,34461.99989318848,Fri Mar 07 2025 15:04:34 GMT-0600 (Central Standard Time),171888.70000000298,A,finger,O,r,1,1,6879.10000000149,165009.6000000015,7099,WL,A,11.0
1,25.657000064849854,learn,34342.99993515015,Fri Mar 07 2025 15:04:34 GMT-0600 (Central Standard Time),172007.0,A,fingerenter,O,enter,105,1,6997.39999999851,165009.6000000015,7099,WL,A,11.0
1,60.01300001144409,learn,-13.000011444091797,Fri Mar 07 2025 15:04:34 GMT-0600 (Central Standard Time),206364.30000000447,A,None,O,None,34351,1,34356.90000000596,172007.3999999985,7099,WL,A,12.0
2,0.5,learn,59500.0,Fri Mar 07 2025 15:04:34 GMT-0600 (Central Standard Time),275341.6000000015,A,a,O,a,485,1,499.8999999985099,274841.700000003,7099,WL,A,1.0
2,0.5989999771118164,learn,59401.00002288818,Fri Mar 07 2025 15:04:34 GMT-0600 (Central Standard Time),275440.200000003,A,ap,O,p,89,1,598.5,274841.700000003,7099,WL,A,1.0
2,0.8329999446868896,learn,59167.00005531311,Fri Mar 07 2025 15:04:34 GMT-0600 (Central Standard Time),275674.30000000447,A,app,O,p,213,1,832.6000000014901,274841.700000003,7099,WL,A,1.0
2,1.0499999523162842,learn,58950.000047683716,Fri Mar 07 2025 15:04:34 GMT-0600 (Central Standard Time),275892.0,A,appl,O,l,196,1,1050.2999999970198,274841.700000003,7099,WL,A,1.0
2,1.1990001201629639,learn,58800.999879837036,Fri Mar 07 2025 15:04:34 GMT-0600 (Central Standard Time),276040.200000003,A,apple,O,e,131,1,1198.5,274841.700000003,7099,WL,A,1.0
2,1.3500001430511475,learn,58649.99985694885,Fri Mar 07 2025 15:04:34 GMT-0600 (Central Standard Time),276190.8999999985,A,appleenter,O,enter,144,1,1349.1999999955297,274841.700000003,7099,WL,A,1.0
2,1.633000135421753,learn,58366.99986457825,Fri Mar 07 2025 15:04:34 GMT-0600 (Central Standard Time),276474.80000000447,A,g,O,g,273,1,283.6000000014901,276191.200000003,7099,WL,A,2.0
2,1.7000000476837158,learn,58299.999952316284,Fri Mar 07 2025 15:04:34 GMT-0600 (Central Standard Time),276541.8999999985,A,go,O,o,60,1,350.69999999552965,276191.200000003,7099,WL,A,2.0
2,1.8989999294281006,learn,58101.0000705719,Fri Mar 07 2025 15:04:34 GMT-0600 (Central Standard Time),276739.8999999985,A,gol,O,l,185,1,548.6999999955297,276191.200000003,7099,WL,A,2.0
2,2.0160000324249268,learn,57983.99996757507,Fri Mar 07 2025 15:04:34 GMT-0600 (Central Standard Time),276857.5,A,gold,O,d,100,1,666.2999999970198,276191.200000003,7099,WL,A,2.0
2,2.1000001430511475,learn,57899.99985694885,Fri Mar 07 2025 15:04:34 GMT-0600 (Central Standard Time),276941.200000003,A,goldenter,O,enter,77,1,750.0,276191.200000003,7099,WL,A,2.0
2,2.265000104904175,learn,57734.999895095825,Fri Mar 07 2025 15:04:34 GMT-0600 (Central Standard Time),277106.80000000447,A,s,O,s,154,1,165.40000000596046,276941.3999999985,7099,WL,A,3.0
2,2.3310000896453857,learn,57668.999910354614,Fri Mar 07 2025 15:04:34 GMT-0600 (Central Standard Time),277172.5,A,sa,O,a,52,1,231.10000000149012,276941.3999999985,7099,WL,A,3.0
2,2.3980000019073486,learn,57601.99999809265,Fri Mar 07 2025 15:04:34 GMT-0600 (Central Standard Time),277239.1000000015,A,sal,O,l,58,1,297.70000000298023,276941.3999999985,7099,WL,A,3.0
2,2.5160000324249268,learn,57483.99996757507,Fri Mar 07 2025 15:04:34 GMT-0600 (Central Standard Time),277357.6000000015,A,salt,O,t,112,1,416.20000000298023,276941.3999999985,7099,WL,A,3.0
2,2.631999969482422,learn,57368.00003051758,Fri Mar 07 2025 15:04:34 GMT-0600 (Central Standard Time),277473.5,A,saltenter,O,enter,96,1,532.1000000014901,276941.3999999985,7099,WL,A,3.0
2,3.0160000324249268,learn,56983.99996757507,Fri Mar 07 2025 15:04:34 GMT-0600 (Central Standard Time),277857.200000003,A,b,O,b,365,1,383.3999999985099,277473.80000000447,7099,WL,A,4.0
2,3.0989999771118164,learn,56901.00002288818,Fri Mar 07 2025 15:04:34 GMT-0600 (Central Standard Time),277940.1000000015,A,bu,O,u,69,1,466.29999999701977,277473.80000000447,7099,WL,A,4.0
2,3.2339999675750732,learn,56766.00003242493,Fri Mar 07 2025 15:04:34 GMT-0600 (Central Standard Time),278075.0,A,but,O,t,116,1,601.1999999955297,277473.80000000447,7099,WL,A,4.0
2,3.365999937057495,learn,56634.000062942505,Fri Mar 07 2025 15:04:34 GMT-0600 (Central Standard Time),278207.200000003,A,butt,O,t,123,1,733.3999999985099,277473.80000000447,7099,WL,A,4.0
2,3.447999954223633,learn,56552.00004577637,Fri Mar 07 2025 15:04:34 GMT-0600 (Central Standard Time),278289.5,A,butto,O,o,70,1,815.6999999955297,277473.80000000447,7099,WL,A,4.0
2,3.5340001583099365,learn,56465.99984169006,Fri Mar 07 2025 15:04:34 GMT-0600 (Central Standard Time),278375.200000003,A,button,O,n,79,1,901.3999999985099,277473.80000000447,7099,WL,A,4.0
2,3.7150001525878906,learn,56284.99984741211,Fri Mar 07 2025 15:04:34 GMT-0600 (Central Standard Time),278556.6000000015,A,buttonenter,O,enter,166,1,1082.7999999970198,277473.80000000447,7099,WL,A,4.0
2,3.9000000953674316,learn,56099.99990463257,Fri Mar 07 2025 15:04:34 GMT-0600 (Central Standard Time),278740.8999999985,A,c,O,c,162,1,184.0,278556.8999999985,7099,WL,A,5.0
2,3.9639999866485596,learn,56036.00001335144,Fri Mar 07 2025 15:04:34 GMT-0600 (Central Standard Time),278805.3999999985,A,ch,O,h,55,1,248.5,278556.8999999985,7099,WL,A,5.0
2,4.049000024795532,learn,55950.99997520447,Fri Mar 07 2025 15:04:34 GMT-0600 (Central Standard Time),278890.30000000447,A,chi,O,i,65,1,333.40000000596046,278556.8999999985,7099,WL,A,5.0
2,4.199000120162964,learn,55800.999879837036,Fri Mar 07 2025 15:04:34 GMT-0600 (Central Standard Time),279040.30000000447,A,chim,O,m,133,1,483.40000000596046,278556.8999999985,7099,WL,A,5.0
2,4.348999977111816,learn,55651.00002288818,Fri Mar 07 2025 15:04:34 GMT-0600 (Central Standard Time),279190.3999999985,A,chime,O,e,144,1,633.5,278556.8999999985,7099,WL,A,5.0
2,4.466000080108643,learn,55533.99991989136,Fri Mar 07 2025 15:04:34 GMT-0600 (Central Standard Time),279307.5,A,chimey,O,y,96,1,750.6000000014901,278556.8999999985,7099,WL,A,5.0
2,4.766999959945679,learn,55233.00004005432,Fri Mar 07 2025 15:04:34 GMT-0600 (Central Standard Time),279608.30000000447,A,chime,O,backspace,294,1,1051.4000000059605,278556.8999999985,7099,WL,A,5.0
2,4.898999929428101,learn,55101.0000705719,Fri Mar 07 2025 15:04:34 GMT-0600 (Central Standard Time),279740.8999999985,A,chim,O,backspace,110,1,1184.0,278556.8999999985,7099,WL,A,5.0
2,5.0980000495910645,learn,54901.999950408936,Fri Mar 07 2025 15:04:34 GMT-0600 (Central Standard Time),279939.8999999985,A,chimn,O,n,185,1,1383.0,278556.8999999985,7099,WL,A,5.0
2,5.199000120162964,learn,54800.999879837036,Fri Mar 07 2025 15:04:34 GMT-0600 (Central Standard Time),280040.3999999985,A,chimne,O,e,83,1,1483.5,278556.8999999985,7099,WL,A,5.0
2,5.29800009727478,learn,54701.99990272522,Fri Mar 07 2025 15:04:34 GMT-0600 (Central Standard Time),280139.700000003,A,chimney,O,y,85,1,1582.8000000044703,278556.8999999985,7099,WL,A,5.0
2,5.397000074386597,learn,54602.9999256134,Fri Mar 07 2025 15:04:34 GMT-0600 (Central Standard Time),280239.0,A,chimneyenter,O,enter,93,1,1682.1000000014901,278556.8999999985,7099,WL,A,5.0
2,6.398000001907349,learn,53601.99999809265,Fri Mar 07 2025 15:04:34 GMT-0600 (Central Standard Time),281239.3999999985,A,f,O,f,995,1,1000.1999999955297,280239.200000003,7099,WL,A,6.0
2,6.447000026702881,learn,53552.99997329712,Fri Mar 07 2025 15:04:34 GMT-0600 (Central Standard Time),281288.0,A,fl,O,l,31,1,1048.7999999970198,280239.200000003,7099,WL,A,6.0
2,6.615000009536743,learn,53384.99999046326,Fri Mar 07 2025 15:04:34 GMT-0600 (Central Standard Time),281456.3999999985,A,flo,O,o,152,1,1217.1999999955297,280239.200000003,7099,WL,A,6.0
2,6.680000066757202,learn,53319.9999332428,Fri Mar 07 2025 15:04:34 GMT-0600 (Central Standard Time),281521.3999999985,A,flow,O,w,46,1,1282.1999999955297,280239.200000003,7099,WL,A,6.0
2,6.730000019073486,learn,53269.999980926514,Fri Mar 07 2025 15:04:34 GMT-0600 (Central Standard Time),281571.30000000447,A,flowe,O,e,27,1,1332.1000000014901,280239.200000003,7099,WL,A,6.0
2,6.763000011444092,learn,53236.99998855591,Fri Mar 07 2025 15:04:34 GMT-0600 (Central Standard Time),281604.8999999985,A,flower,O,r,11,1,1365.6999999955297,280239.200000003,7099,WL,A,6.0
2,7.0320000648498535,learn,52967.99993515015,Fri Mar 07 2025 15:04:34 GMT-0600 (Central Standard Time),281873.200000003,A,flowerenter,O,enter,252,1,1634.0,280239.200000003,7099,WL,A,6.0
2,7.998000144958496,learn,52001.999855041504,Fri Mar 07 2025 15:04:34 GMT-0600 (Central Standard Time),282839.3999999985,A,r,O,r,950,1,965.8999999985099,281873.5,7099,WL,A,7.0
2,8.081000089645386,learn,51918.999910354614,Fri Mar 07 2025 15:04:34 GMT-0600 (Central Standard Time),282922.30000000447,A,ru,O,u,63,1,1048.8000000044703,281873.5,7099,WL,A,7.0
2,8.164999961853027,learn,51835.00003814697,Fri Mar 07 2025 15:04:34 GMT-0600 (Central Standard Time),283006.3999999985,A,rug,O,g,76,1,1132.8999999985099,281873.5,7099,WL,A,7.0
2,8.532000064849854,learn,51467.99993515015,Fri Mar 07 2025 15:04:34 GMT-0600 (Central Standard Time),283373.700000003,A,rugenter,O,enter,360,1,1500.2000000029802,281873.5,7099,WL,A,7.0
2,9.21399998664856,learn,50786.00001335144,Fri Mar 07 2025 15:04:34 GMT-0600 (Central Standard Time),284055.3999999985,A,m,O,m,676,1,681.5,283373.8999999985,7099,WL,A,8.0
2,9.27999997138977,learn,50720.00002861023,Fri Mar 07 2025 15:04:34 GMT-0600 (Central Standard Time),284121.0,A,me,O,e,55,1,747.1000000014901,283373.8999999985,7099,WL,A,8.0
2,9.398000001907349,learn,50601.99999809265,Fri Mar 07 2025 15:04:34 GMT-0600 (Central Standard Time),284239.6000000015,A,mea,O,a,103,1,865.7000000029802,283373.8999999985,7099,WL,A,8.0
2,9.496999979019165,learn,50503.000020980835,Fri Mar 07 2025 15:04:34 GMT-0600 (Central Standard Time),284338.80000000447,A,mead,O,d,87,1,964.9000000059605,283373.8999999985,7099,WL,A,8.0
2,9.663000106811523,learn,50336.99989318848,Fri Mar 07 2025 15:04:34 GMT-0600 (Central Standard Time),284504.8999999985,A,meado,O,o,157,1,1131.0,283373.8999999985,7099,WL,A,8.0
2,9.781000137329102,learn,50218.9998626709,Fri Mar 07 2025 15:04:34 GMT-0600 (Central Standard Time),284622.1000000015,A,meadow,O,w,93,1,1248.2000000029802,283373.8999999985,7099,WL,A,8.0
2,9.92900013923645,learn,50070.99986076355,Fri Mar 07 2025 15:04:34 GMT-0600 (Central Standard Time),284770.8999999985,A,meadowenter,O,enter,123,1,1397.0,283373.8999999985,7099,WL,A,8.0
2,10.279000043869019,learn,49720.99995613098,Fri Mar 07 2025 15:04:34 GMT-0600 (Central Standard Time),285120.6000000015,A,f,O,f,342,1,349.3999999985099,284771.200000003,7099,WL,A,9.0
2,10.345999956130981,learn,49654.00004386902,Fri Mar 07 2025 15:04:34 GMT-0600 (Central Standard Time),285187.6000000015,A,fl,O,l,44,1,416.3999999985099,284771.200000003,7099,WL,A,9.0
2,10.498000144958496,learn,49501.999855041504,Fri Mar 07 2025 15:04:34 GMT-0600 (Central Standard Time),285339.200000003,A,flo,O,o,131,1,568.0,284771.200000003,7099,WL,A,9.0
2,10.544000148773193,learn,49455.99985122681,Fri Mar 07 2025 15:04:34 GMT-0600 (Central Standard Time),285385.80000000447,A,flow,O,w,34,1,614.6000000014901,284771.200000003,7099,WL,A,9.0
2,10.611999988555908,learn,49388.00001144409,Fri Mar 07 2025 15:04:34 GMT-0600 (Central Standard Time),285453.8999999985,A,flowe,O,e,46,1,682.6999999955297,284771.200000003,7099,WL,A,9.0
2,10.627000093460083,learn,49372.99990653992,Fri Mar 07 2025 15:04:34 GMT-0600 (Central Standard Time),285468.80000000447,A,flower,O,r,7,1,697.6000000014901,284771.200000003,7099,WL,A,9.0
2,10.746000051498413,learn,49253.99994850159,Fri Mar 07 2025 15:04:34 GMT-0600 (Central Standard Time),285587.3999999985,A,flowerenter,O,enter,109,1,816.1999999955297,284771.200000003,7099,WL,A,9.0
2,12.529000043869019,learn,47470.99995613098,Fri Mar 07 2025 15:04:34 GMT-0600 (Central Standard Time),287370.30000000447,A,a,O,a,1764,1,1782.6000000014901,285587.700000003,7099,WL,A,10.0
2,12.594000101089478,learn,47405.99989891052,Fri Mar 07 2025 15:04:34 GMT-0600 (Central Standard Time),287435.80000000447,A,ap,O,p,51,1,1848.1000000014901,285587.700000003,7099,WL,A,10.0
2,12.746000051498413,learn,47253.99994850159,Fri Mar 07 2025 15:04:34 GMT-0600 (Central Standard Time),287587.6000000015,A,app,O,p,139,1,1999.8999999985099,285587.700000003,7099,WL,A,10.0
2,12.896000146865845,learn,47103.999853134155,Fri Mar 07 2025 15:04:34 GMT-0600 (Central Standard Time),287737.700000003,A,appl,O,l,140,1,2150.0,285587.700000003,7099,WL,A,10.0
2,12.979000091552734,learn,47020.999908447266,Fri Mar 07 2025 15:04:34 GMT-0600 (Central Standard Time),287820.700000003,A,apple,O,e,70,1,2233.0,285587.700000003,7099,WL,A,10.0
2,13.046000003814697,learn,46953.9999961853,Fri Mar 07 2025 15:04:34 GMT-0600 (Central Standard Time),287887.3999999985,A,appleenter,O,enter,49,1,2299.6999999955297,285587.700000003,7099,WL,A,10.0
2,15.878000020980835,learn,44121.999979019165,Fri Mar 07 2025 15:04:34 GMT-0600 (Central Standard Time),290719.1000000015,A,b,O,b,2825,1,2831.39999999851,287887.700000003,7099,WL,A,11.0
2,15.960999965667725,learn,44039.000034332275,Fri Mar 07 2025 15:04:34 GMT-0600 (Central Standard Time),290802.8999999985,A,bu,O,u,58,1,2915.1999999955297,287887.700000003,7099,WL,A,11.0
2,16.07800006866455,learn,43921.99993133545,Fri Mar 07 2025 15:04:34 GMT-0600 (Central Standard Time),290919.30000000447,A,but,O,t,106,1,3031.60000000149,287887.700000003,7099,WL,A,11.0
2,16.21399998664856,learn,43786.00001335144,Fri Mar 07 2025 15:04:34 GMT-0600 (Central Standard Time),291055.1000000015,A,butt,O,t,113,1,3167.39999999851,287887.700000003,7099,WL,A,11.0
2,16.294000148773193,learn,43705.99985122681,Fri Mar 07 2025 15:04:34 GMT-0600 (Central Standard Time),291135.6000000015,A,butto,O,o,65,1,3247.89999999851,287887.700000003,7099,WL,A,11.0
2,16.378999948501587,learn,43621.00005149841,Fri Mar 07 2025 15:04:34 GMT-0600 (Central Standard Time),291221.0,A,button,O,n,61,1,3333.2999999970198,287887.700000003,7099,WL,A,11.0
2,16.460999965667725,learn,43539.000034332275,Fri Mar 07 2025 15:04:34 GMT-0600 (Central Standard Time),291302.0,A,buttonenter,O,enter,65,1,3414.2999999970198,287887.700000003,7099,WL,A,11.0
2,23.825999975204468,learn,36174.00002479553,Fri Mar 07 2025 15:04:34 GMT-0600 (Central Standard Time),298667.8999999985,A,h,O,h,7345,1,7365.69999999553,291302.200000003,7099,WL,A,12.0
2,23.873000144958496,learn,36126.999855041504,Fri Mar 07 2025 15:04:34 GMT-0600 (Central Standard Time),298715.3999999985,A,ha,O,a,25,1,7413.19999999553,291302.200000003,7099,WL,A,12.0
2,23.943000078201294,learn,36056.999921798706,Fri Mar 07 2025 15:04:34 GMT-0600 (Central Standard Time),298784.80000000447,A,har,O,r,53,1,7482.60000000149,291302.200000003,7099,WL,A,12.0
2,24.193000078201294,learn,35806.999921798706,Fri Mar 07 2025 15:04:34 GMT-0600 (Central Standard Time),299034.8999999985,A,harp,O,p,226,1,7732.69999999553,291302.200000003,7099,WL,A,12.0
2,24.442000150680542,learn,35557.99984931946,Fri Mar 07 2025 15:04:34 GMT-0600 (Central Standard Time),299283.80000000447,A,harpenter,O,enter,235,1,7981.60000000149,291302.200000003,7099,WL,A,12.0
2,24.992000102996826,learn,35007.999897003174,Fri Mar 07 2025 15:04:34 GMT-0600 (Central Standard Time),299833.80000000447,A,g,O,g,541,1,549.8000000044703,299284.0,7099,WL,A,13.0
2,25.039000034332275,learn,34960.999965667725,Fri Mar 07 2025 15:04:34 GMT-0600 (Central Standard Time),299881.30000000447,A,go,O,o,24,1,597.3000000044703,299284.0,7099,WL,A,13.0
2,25.19099998474121,learn,34809.00001525879,Fri Mar 07 2025 15:04:34 GMT-0600 (Central Standard Time),300033.30000000447,A,gol,O,l,135,1,749.3000000044703,299284.0,7099,WL,A,13.0
2,25.29100012779236,learn,34708.99987220764,Fri Mar 07 2025 15:04:34 GMT-0600 (Central Standard Time),300133.5,A,gold,O,d,88,1,849.5,299284.0,7099,WL,A,13.0
2,25.407999992370605,learn,34592.000007629395,Fri Mar 07 2025 15:04:34 GMT-0600 (Central Standard Time),300249.5,A,goldenter,O,enter,101,1,965.5,299284.0,7099,WL,A,13.0
2,32.24000000953674,learn,27759.999990463257,Fri Mar 07 2025 15:04:34 GMT-0600 (Central Standard Time),307081.80000000447,A,f,O,f,6822,1,6832.0,300249.80000000447,7099,WL,A,14.0
2,32.28699994087219,learn,27713.000059127808,Fri Mar 07 2025 15:04:34 GMT-0600 (Central Standard Time),307129.30000000447,A,fi,O,i,32,1,6879.5,300249.80000000447,7099,WL,A,14.0
2,32.33899998664856,learn,27661.00001335144,Fri Mar 07 2025 15:04:34 GMT-0600 (Central Standard Time),307181.3999999985,A,fin,O,n,37,1,6931.5999999940395,300249.80000000447,7099,WL,A,14.0
2,32.42300009727478,learn,27576.99990272522,Fri Mar 07 2025 15:04:34 GMT-0600 (Central Standard Time),307264.700000003,A,fing,O,g,63,1,7014.89999999851,300249.80000000447,7099,WL,A,14.0
2,32.55800008773804,learn,27441.999912261963,Fri Mar 07 2025 15:04:34 GMT-0600 (Central Standard Time),307399.700000003,A,finge,O,e,128,1,7149.89999999851,300249.80000000447,7099,WL,A,14.0
2,32.604000091552734,learn,27395.999908447266,Fri Mar 07 2025 15:04:34 GMT-0600 (Central Standard Time),307445.700000003,A,finger,O,r,29,1,7195.89999999851,300249.80000000447,7099,WL,A,14.0
2,32.68900012969971,learn,27310.999870300293,Fri Mar 07 2025 15:04:34 GMT-0600 (Central Standard Time),307530.8999999985,A,fingerenter,O,enter,74,1,7281.0999999940395,300249.80000000447,7099,WL,A,14.0
2,60.01200008392334,learn,-12.000083923339844,Fri Mar 07 2025 15:04:34 GMT-0600 (Central Standard Time),334854.1000000015,A,None,O,None,27317,1,27323.0,307531.1000000015,7099,WL,A,15.0
3,0.4160001277923584,learn,59583.99987220764,Fri Mar 07 2025 15:04:34 GMT-0600 (Central Standard Time),402501.700000003,A,l,O,l,401,1,416.1000000014901,402085.6000000015,7099,WL,A,1.0
3,0.6159999370574951,learn,59384.000062942505,Fri Mar 07 2025 15:04:34 GMT-0600 (Central Standard Time),402701.200000003,A,lo,O,o,178,1,615.6000000014901,402085.6000000015,7099,WL,A,1.0
3,0.6809999942779541,learn,59319.000005722046,Fri Mar 07 2025 15:04:34 GMT-0600 (Central Standard Time),402767.1000000015,A,log,O,g,60,1,681.5,402085.6000000015,7099,WL,A,1.0
3,0.8819999694824219,learn,59118.00003051758,Fri Mar 07 2025 15:04:34 GMT-0600 (Central Standard Time),402967.30000000447,A,logenter,O,enter,193,1,881.7000000029802,402085.6000000015,7099,WL,A,1.0
3,1.1140000820159912,learn,58885.99991798401,Fri Mar 07 2025 15:04:34 GMT-0600 (Central Standard Time),403199.80000000447,A,k,O,k,224,1,232.30000000447035,402967.5,7099,WL,A,2.0
3,1.1979999542236328,learn,58802.00004577637,Fri Mar 07 2025 15:04:34 GMT-0600 (Central Standard Time),403284.1000000015,A,ke,O,e,73,1,316.6000000014901,402967.5,7099,WL,A,2.0
3,1.2980000972747803,learn,58701.99990272522,Fri Mar 07 2025 15:04:34 GMT-0600 (Central Standard Time),403383.8999999985,A,key,O,y,92,1,416.3999999985099,402967.5,7099,WL,A,2.0
3,1.3980000019073486,learn,58601.99999809265,Fri Mar 07 2025 15:04:34 GMT-0600 (Central Standard Time),403483.6000000015,A,keyenter,O,enter,76,1,516.1000000014901,402967.5,7099,WL,A,2.0
3,1.5820000171661377,learn,58417.99998283386,Fri Mar 07 2025 15:04:34 GMT-0600 (Central Standard Time),403667.3999999985,A,r,O,r,172,1,183.5,403483.8999999985,7099,WL,A,3.0
3,1.681999921798706,learn,58318.000078201294,Fri Mar 07 2025 15:04:34 GMT-0600 (Central Standard Time),403767.8999999985,A,ra,O,a,84,1,284.0,403483.8999999985,7099,WL,A,3.0
3,1.7820000648498535,learn,58217.99993515015,Fri Mar 07 2025 15:04:34 GMT-0600 (Central Standard Time),403867.6000000015,A,rat,O,t,77,1,383.70000000298023,403483.8999999985,7099,WL,A,3.0
3,1.8980000019073486,learn,58101.99999809265,Fri Mar 07 2025 15:04:34 GMT-0600 (Central Standard Time),403983.700000003,A,ratt,O,t,99,1,499.80000000447035,403483.8999999985,7099,WL,A,3.0
3,1.9660000801086426,learn,58033.99991989136,Fri Mar 07 2025 15:04:34 GMT-0600 (Central Standard Time),404051.5,A,rattl,O,l,46,1,567.6000000014901,403483.8999999985,7099,WL,A,3.0
3,2.0480000972747803,learn,57951.99990272522,Fri Mar 07 2025 15:04:34 GMT-0600 (Central Standard Time),404133.80000000447,A,rattle,O,e,67,1,649.9000000059605,403483.8999999985,7099,WL,A,3.0
3,2.1640000343322754,learn,57835.999965667725,Fri Mar 07 2025 15:04:34 GMT-0600 (Central Standard Time),404249.6000000015,A,rattleenter,O,enter,105,1,765.7000000029802,403483.8999999985,7099,WL,A,3.0
3,2.3489999771118164,learn,57651.00002288818,Fri Mar 07 2025 15:04:34 GMT-0600 (Central Standard Time),404434.80000000447,A,g,O,g,174,1,185.0,404249.80000000447,7099,WL,A,4.0
3,2.430999994277954,learn,57569.000005722046,Fri Mar 07 2025 15:04:34 GMT-0600 (Central Standard Time),404516.5,A,go,O,o,68,1,266.69999999552965,404249.80000000447,7099,WL,A,4.0
3,2.5799999237060547,learn,57420.000076293945,Fri Mar 07 2025 15:04:34 GMT-0600 (Central Standard Time),404666.1000000015,A,gol,O,l,129,1,416.29999999701977,404249.80000000447,7099,WL,A,4.0
3,2.6480000019073486,learn,57351.99999809265,Fri Mar 07 2025 15:04:34 GMT-0600 (Central Standard Time),404733.3999999985,A,gold,O,d,42,1,483.59999999403954,404249.80000000447,7099,WL,A,4.0
3,2.7320001125335693,learn,57267.99988746643,Fri Mar 07 2025 15:04:34 GMT-0600 (Central Standard Time),404817.200000003,A,goldenter,O,enter,73,1,567.3999999985099,404249.80000000447,7099,WL,A,4.0
3,3.296999931335449,learn,56703.00006866455,Fri Mar 07 2025 15:04:34 GMT-0600 (Central Standard Time),405383.0,A,h,O,h,558,1,565.5,404817.5,7099,WL,A,5.0
3,3.365000009536743,learn,56634.99999046326,Fri Mar 07 2025 15:04:34 GMT-0600 (Central Standard Time),405450.200000003,A,ha,O,a,47,1,632.7000000029802,404817.5,7099,WL,A,5.0
3,3.430999994277954,learn,56569.000005722046,Fri Mar 07 2025 15:04:34 GMT-0600 (Central Standard Time),405516.700000003,A,har,O,r,43,1,699.2000000029802,404817.5,7099,WL,A,5.0
3,3.515000104904175,learn,56484.999895095825,Fri Mar 07 2025 15:04:34 GMT-0600 (Central Standard Time),405600.5,A,harp,O,p,61,1,783.0,404817.5,7099,WL,A,5.0
3,3.631999969482422,learn,56368.00003051758,Fri Mar 07 2025 15:04:34 GMT-0600 (Central Standard Time),405717.80000000447,A,harpenter,O,enter,110,1,900.3000000044703,404817.5,7099,WL,A,5.0
3,4.5980000495910645,learn,55401.999950408936,Fri Mar 07 2025 15:04:34 GMT-0600 (Central Standard Time),406683.30000000447,A,p,O,p,945,1,965.2000000029802,405718.1000000015,7099,WL,A,6.0
3,4.946000099182129,learn,55053.99990081787,Fri Mar 07 2025 15:04:34 GMT-0600 (Central Standard Time),407032.1000000015,A,,O,backspace,339,1,1314.0,405718.1000000015,7099,WL,A,6.0
3,5.163000106811523,learn,54836.99989318848,Fri Mar 07 2025 15:04:34 GMT-0600 (Central Standard Time),407249.1000000015,A,f,O,f,201,1,1531.0,405718.1000000015,7099,WL,A,6.0
3,5.230000019073486,learn,54769.999980926514,Fri Mar 07 2025 15:04:34 GMT-0600 (Central Standard Time),407315.6000000015,A,fl,O,l,45,1,1597.5,405718.1000000015,7099,WL,A,6.0
3,5.401000022888184,learn,54598.99997711182,Fri Mar 07 2025 15:04:34 GMT-0600 (Central Standard Time),407486.8999999985,A,flo,O,o,154,1,1768.7999999970198,405718.1000000015,7099,WL,A,6.0
3,5.483000040054321,learn,54516.99995994568,Fri Mar 07 2025 15:04:34 GMT-0600 (Central Standard Time),407568.3999999985,A,flow,O,w,66,1,1850.2999999970198,405718.1000000015,7099,WL,A,6.0
3,5.51800012588501,learn,54481.99987411499,Fri Mar 07 2025 15:04:34 GMT-0600 (Central Standard Time),407603.200000003,A,flowe,O,e,16,1,1885.1000000014901,405718.1000000015,7099,WL,A,6.0
3,5.545000076293945,learn,54454.999923706055,Fri Mar 07 2025 15:04:34 GMT-0600 (Central Standard Time),407630.5,A,flower,O,r,13,1,1912.3999999985099,405718.1000000015,7099,WL,A,6.0
3,6.046999931335449,learn,53953.00006866455,Fri Mar 07 2025 15:04:34 GMT-0600 (Central Standard Time),408132.30000000447,A,flowerenter,O,enter,480,1,2414.2000000029802,405718.1000000015,7099,WL,A,6.0
3,6.4649999141693115,learn,53535.00008583069,Fri Mar 07 2025 15:04:34 GMT-0600 (Central Standard Time),408550.200000003,A,a,O,a,412,1,417.6000000014901,408132.6000000015,7099,WL,A,7.0
3,6.579999923706055,learn,53420.000076293945,Fri Mar 07 2025 15:04:34 GMT-0600 (Central Standard Time),408666.0,A,ap,O,p,105,1,533.3999999985099,408132.6000000015,7099,WL,A,7.0
3,6.746999979019165,learn,53253.000020980835,Fri Mar 07 2025 15:04:34 GMT-0600 (Central Standard Time),408832.700000003,A,app,O,p,149,1,700.1000000014901,408132.6000000015,7099,WL,A,7.0
3,6.913000106811523,learn,53086.99989318848,Fri Mar 07 2025 15:04:34 GMT-0600 (Central Standard Time),408998.700000003,A,appl,O,l,148,1,866.1000000014901,408132.6000000015,7099,WL,A,7.0
3,6.996999979019165,learn,53003.000020980835,Fri Mar 07 2025 15:04:34 GMT-0600 (Central Standard Time),409082.200000003,A,apple,O,e,61,1,949.6000000014901,408132.6000000015,7099,WL,A,7.0
3,7.078999996185303,learn,52921.0000038147,Fri Mar 07 2025 15:04:34 GMT-0600 (Central Standard Time),409164.3999999985,A,appleenter,O,enter,68,1,1031.7999999970198,408132.6000000015,7099,WL,A,7.0
3,7.263999938964844,learn,52736.000061035156,Fri Mar 07 2025 15:04:34 GMT-0600 (Central Standard Time),409349.700000003,A,m,O,m,164,1,185.10000000149012,409164.6000000015,7099,WL,A,8.0
3,7.329999923706055,learn,52670.000076293945,Fri Mar 07 2025 15:04:34 GMT-0600 (Central Standard Time),409415.30000000447,A,me,O,e,57,1,250.70000000298023,409164.6000000015,7099,WL,A,8.0
3,7.397000074386597,learn,52602.9999256134,Fri Mar 07 2025 15:04:34 GMT-0600 (Central Standard Time),409482.3999999985,A,mea,O,a,48,1,317.79999999701977,409164.6000000015,7099,WL,A,8.0
3,7.5959999561309814,learn,52404.00004386902,Fri Mar 07 2025 15:04:34 GMT-0600 (Central Standard Time),409681.8999999985,A,mead,O,d,188,1,517.2999999970198,409164.6000000015,7099,WL,A,8.0
3,7.697000026702881,learn,52302.99997329712,Fri Mar 07 2025 15:04:34 GMT-0600 (Central Standard Time),409782.3999999985,A,meado,O,o,94,1,617.7999999970198,409164.6000000015,7099,WL,A,8.0
3,7.829999923706055,learn,52170.000076293945,Fri Mar 07 2025 15:04:34 GMT-0600 (Central Standard Time),409915.5,A,meadow,O,w,119,1,750.8999999985099,409164.6000000015,7099,WL,A,8.0
3,8.161999940872192,learn,51838.00005912781,Fri Mar 07 2025 15:04:34 GMT-0600 (Central Standard Time),410247.8999999985,A,meadowenter,O,enter,314,1,1083.2999999970198,409164.6000000015,7099,WL,A,8.0
3,8.431999921798706,learn,51568.000078201294,Fri Mar 07 2025 15:04:34 GMT-0600 (Central Standard Time),410517.80000000447,A,f,O,f,257,1,269.70000000298023,410248.1000000015,7099,WL,A,9.0
3,8.513999938964844,learn,51486.000061035156,Fri Mar 07 2025 15:04:34 GMT-0600 (Central Standard Time),410599.6000000015,A,fi,O,i,74,1,351.5,410248.1000000015,7099,WL,A,9.0
3,8.59500002861023,learn,51404.99997138977,Fri Mar 07 2025 15:04:34 GMT-0600 (Central Standard Time),410681.0,A,fin,O,n,62,1,432.8999999985099,410248.1000000015,7099,WL,A,9.0
3,8.628000020980835,learn,51371.999979019165,Fri Mar 07 2025 15:04:34 GMT-0600 (Central Standard Time),410713.3999999985,A,fing,O,g,21,1,465.29999999701977,410248.1000000015,7099,WL,A,9.0
3,8.79800009727478,learn,51201.99990272522,Fri Mar 07 2025 15:04:34 GMT-0600 (Central Standard Time),410883.5,A,finge,O,e,152,1,635.3999999985099,410248.1000000015,7099,WL,A,9.0
3,8.82699990272522,learn,51173.00009727478,Fri Mar 07 2025 15:04:34 GMT-0600 (Central Standard Time),410912.80000000447,A,finger,O,r,10,1,664.7000000029802,410248.1000000015,7099,WL,A,9.0
3,8.895999908447266,learn,51104.000091552734,Fri Mar 07 2025 15:04:34 GMT-0600 (Central Standard Time),410982.0,A,fingerenter,O,enter,65,1,733.8999999985099,410248.1000000015,7099,WL,A,9.0
3,9.34500002861023,learn,50654.99997138977,Fri Mar 07 2025 15:04:34 GMT-0600 (Central Standard Time),411431.1000000015,A,h,O,h,433,1,448.8999999985099,410982.200000003,7099,WL,A,10.0
3,9.44700002670288,learn,50552.99997329712,Fri Mar 07 2025 15:04:34 GMT-0600 (Central Standard Time),411532.5,A,ha,O,a,86,1,550.2999999970198,410982.200000003,7099,WL,A,10.0
3,9.510999917984009,learn,50489.00008201599,Fri Mar 07 2025 15:04:34 GMT-0600 (Central Standard Time),411596.200000003,A,har,O,r,39,1,614.0,410982.200000003,7099,WL,A,10.0
3,9.579999923706055,learn,50420.000076293945,Fri Mar 07 2025 15:04:34 GMT-0600 (Central Standard Time),411665.80000000447,A,harp,O,p,50,1,683.6000000014901,410982.200000003,7099,WL,A,10.0
3,9.712000131607056,learn,50287.999868392944,Fri Mar 07 2025 15:04:34 GMT-0600 (Central Standard Time),411797.5,A,harpenter,O,enter,123,1,815.2999999970198,410982.200000003,7099,WL,A,10.0
3,10.562000036239624,learn,49437.999963760376,Fri Mar 07 2025 15:04:34 GMT-0600 (Central Standard Time),412647.700000003,A,l,O,l,843,1,849.8999999985099,411797.80000000447,7099,WL,A,11.0
3,11.013000011444092,learn,48986.99998855591,Fri Mar 07 2025 15:04:34 GMT-0600 (Central Standard Time),413098.200000003,A,,O,backspace,431,1,1300.3999999985099,411797.80000000447,7099,WL,A,11.0
3,12.680000066757202,learn,47319.9999332428,Fri Mar 07 2025 15:04:34 GMT-0600 (Central Standard Time),414765.6000000015,A,t,O,t,1643,1,2967.7999999970198,411797.80000000447,7099,WL,A,11.0
3,12.812000036239624,learn,47187.999963760376,Fri Mar 07 2025 15:04:34 GMT-0600 (Central Standard Time),414897.700000003,A,tr,O,r,122,1,3099.89999999851,411797.80000000447,7099,WL,A,11.0
3,12.877000093460083,learn,47122.99990653992,Fri Mar 07 2025 15:04:34 GMT-0600 (Central Standard Time),414963.0,A,tra,O,a,51,1,3165.1999999955297,411797.80000000447,7099,WL,A,11.0
3,12.944000005722046,learn,47055.999994277954,Fri Mar 07 2025 15:04:34 GMT-0600 (Central Standard Time),415029.3999999985,A,trai,O,i,44,1,3231.5999999940395,411797.80000000447,7099,WL,A,11.0
3,12.993000030517578,learn,47006.99996948242,Fri Mar 07 2025 15:04:34 GMT-0600 (Central Standard Time),415078.6000000015,A,train,O,n,33,1,3280.7999999970198,411797.80000000447,7099,WL,A,11.0
3,13.144000053405762,learn,46855.99994659424,Fri Mar 07 2025 15:04:34 GMT-0600 (Central Standard Time),415229.5,A,trainenter,O,enter,129,1,3431.6999999955297,411797.80000000447,7099,WL,A,11.0
3,22.308000087738037,learn,37691.99991226196,Fri Mar 07 2025 15:04:34 GMT-0600 (Central Standard Time),424394.6000000015,A,f,O,f,9154,1,9164.79999999702,415229.80000000447,7099,WL,A,12.0
3,22.390000104904175,learn,37609.999895095825,Fri Mar 07 2025 15:04:34 GMT-0600 (Central Standard Time),424476.0,A,fl,O,l,57,1,9246.19999999553,415229.80000000447,7099,WL,A,12.0
3,22.558000087738037,learn,37441.99991226196,Fri Mar 07 2025 15:04:34 GMT-0600 (Central Standard Time),424644.200000003,A,flo,O,o,146,1,9414.39999999851,415229.80000000447,7099,WL,A,12.0
3,22.58899998664856,learn,37411.00001335144,Fri Mar 07 2025 15:04:34 GMT-0600 (Central Standard Time),424675.0,A,flow,O,w,19,1,9445.19999999553,415229.80000000447,7099,WL,A,12.0
3,22.622999906539917,learn,37377.00009346008,Fri Mar 07 2025 15:04:34 GMT-0600 (Central Standard Time),424709.3999999985,A,flowe,O,e,29,1,9479.59999999404,415229.80000000447,7099,WL,A,12.0
3,22.674000024795532,learn,37325.99997520447,Fri Mar 07 2025 15:04:34 GMT-0600 (Central Standard Time),424759.8999999985,A,flower,O,r,35,1,9530.09999999404,415229.80000000447,7099,WL,A,12.0
3,22.789999961853027,learn,37210.00003814697,Fri Mar 07 2025 15:04:34 GMT-0600 (Central Standard Time),424876.5,A,flowerenter,O,enter,92,1,9646.69999999553,415229.80000000447,7099,WL,A,12.0
3,24.890000104904175,learn,35109.999895095825,Fri Mar 07 2025 15:04:34 GMT-0600 (Central Standard Time),426975.80000000447,A,r,O,r,2092,1,2099.10000000149,424876.700000003,7099,WL,A,13.0
3,24.97499990463257,learn,35025.00009536743,Fri Mar 07 2025 15:04:34 GMT-0600 (Central Standard Time),427060.80000000447,A,ri,O,i,70,1,2184.10000000149,424876.700000003,7099,WL,A,13.0
3,25.04100012779236,learn,34958.99987220764,Fri Mar 07 2025 15:04:34 GMT-0600 (Central Standard Time),427127.0,A,rin,O,n,44,1,2250.2999999970198,424876.700000003,7099,WL,A,13.0
3,25.08899998664856,learn,34911.00001335144,Fri Mar 07 2025 15:04:34 GMT-0600 (Central Standard Time),427174.700000003,A,ring,O,g,39,1,2298.0,424876.700000003,7099,WL,A,13.0
3,25.707000017166138,learn,34292.99998283386,Fri Mar 07 2025 15:04:34 GMT-0600 (Central Standard Time),427793.1000000015,A,ringenter,O,enter,609,1,2916.39999999851,424876.700000003,7099,WL,A,13.0
3,27.58999991416931,learn,32410.00008583069,Fri Mar 07 2025 15:04:34 GMT-0600 (Central Standard Time),429676.200000003,A,r,O,r,1872,1,1882.8999999985099,427793.30000000447,7099,WL,A,14.0
3,27.67199993133545,learn,32328.00006866455,Fri Mar 07 2025 15:04:34 GMT-0600 (Central Standard Time),429758.1000000015,A,ru,O,u,75,1,1964.7999999970198,427793.30000000447,7099,WL,A,14.0
3,27.772000074386597,learn,32227.999925613403,Fri Mar 07 2025 15:04:34 GMT-0600 (Central Standard Time),429858.200000003,A,rug,O,g,79,1,2064.89999999851,427793.30000000447,7099,WL,A,14.0
3,27.939000129699707,learn,32060.999870300293,Fri Mar 07 2025 15:04:34 GMT-0600 (Central Standard Time),430025.6000000015,A,rugenter,O,enter,147,1,2232.2999999970198,427793.30000000447,7099,WL,A,14.0
3,32.93900012969971,learn,27060.999870300293,Fri Mar 07 2025 15:04:34 GMT-0600 (Central Standard Time),435025.5,A,c,O,c,4978,1,4999.60000000149,430025.8999999985,7099,WL,A,15.0
3,32.985000133514404,learn,27014.999866485596,Fri Mar 07 2025 15:04:34 GMT-0600 (Central Standard Time),435071.6000000015,A,ch,O,h,34,1,5045.70000000298,430025.8999999985,7099,WL,A,15.0
3,33.03699994087219,learn,26963.000059127808,Fri Mar 07 2025 15:04:34 GMT-0600 (Central Standard Time),435123.3999999985,A,chi,O,i,32,1,5097.5,430025.8999999985,7099,WL,A,15.0
3,33.187999963760376,learn,26812.000036239624,Fri Mar 07 2025 15:04:34 GMT-0600 (Central Standard Time),435274.5,A,chim,O,m,132,1,5248.60000000149,430025.8999999985,7099,WL,A,15.0
3,33.270999908447266,learn,26729.000091552734,Fri Mar 07 2025 15:04:34 GMT-0600 (Central Standard Time),435357.5,A,chime,O,e,68,1,5331.60000000149,430025.8999999985,7099,WL,A,15.0
3,33.68900012969971,learn,26310.999870300293,Fri Mar 07 2025 15:04:34 GMT-0600 (Central Standard Time),435775.0,A,chim,O,backspace,410,1,5749.10000000149,430025.8999999985,7099,WL,A,15.0
3,33.87000012397766,learn,26129.99987602234,Fri Mar 07 2025 15:04:34 GMT-0600 (Central Standard Time),435956.30000000447,A,chimn,O,n,172,1,5930.4000000059605,430025.8999999985,7099,WL,A,15.0
3,33.97099995613098,learn,26029.00004386902,Fri Mar 07 2025 15:04:34 GMT-0600 (Central Standard Time),436057.0,A,chimne,O,e,92,1,6031.10000000149,430025.8999999985,7099,WL,A,15.0
3,34.104000091552734,learn,25895.999908447266,Fri Mar 07 2025 15:04:34 GMT-0600 (Central Standard Time),436190.200000003,A,chimney,O,y,118,1,6164.30000000447,430025.8999999985,7099,WL,A,15.0
3,34.20300006866455,learn,25796.99993133545,Fri Mar 07 2025 15:04:34 GMT-0600 (Central Standard Time),436289.6000000015,A,chimneyenter,O,enter,90,1,6263.70000000298,430025.8999999985,7099,WL,A,15.0
4,0.33299994468688965,learn,59667.00005531311,Fri Mar 07 2025 15:04:34 GMT-0600 (Central Standard Time),502952.0,A,l,O,l,315,1,332.69999999552965,502619.30000000447,7099,WL,A,1.0
4,0.48399996757507324,learn,59516.00003242493,Fri Mar 07 2025 15:04:34 GMT-0600 (Central Standard Time),503102.5,A,lo,O,o,136,1,483.19999999552965,502619.30000000447,7099,WL,A,1.0
4,0.5659999847412109,learn,59434.00001525879,Fri Mar 07 2025 15:04:34 GMT-0600 (Central Standard Time),503185.1000000015,A,log,O,g,71,1,565.7999999970198,502619.30000000447,7099,WL,A,1.0
4,0.9010000228881836,learn,59098.99997711182,Fri Mar 07 2025 15:04:34 GMT-0600 (Central Standard Time),503519.200000003,A,logenter,O,enter,317,1,899.8999999985099,502619.30000000447,7099,WL,A,1.0
4,1.1349999904632568,learn,58865.00000953674,Fri Mar 07 2025 15:04:34 GMT-0600 (Central Standard Time),503753.80000000447,A,k,O,k,216,1,234.30000000447035,503519.5,7099,WL,A,2.0
4,1.25,learn,58750.0,Fri Mar 07 2025 15:04:34 GMT-0600 (Central Standard Time),503869.200000003,A,ke,O,e,99,1,349.70000000298023,503519.5,7099,WL,A,2.0
4,1.3499999046325684,learn,58650.00009536743,Fri Mar 07 2025 15:04:34 GMT-0600 (Central Standard Time),503969.30000000447,A,key,O,y,91,1,449.80000000447035,503519.5,7099,WL,A,2.0
4,1.498999834060669,learn,58501.00016593933,Fri Mar 07 2025 15:04:34 GMT-0600 (Central Standard Time),504118.0,A,keyenter,O,enter,135,1,598.5,503519.5,7099,WL,A,2.0
4,1.7000000476837158,learn,58299.999952316284,Fri Mar 07 2025 15:04:34 GMT-0600 (Central Standard Time),504318.3999999985,A,r,O,r,185,1,200.09999999403954,504118.30000000447,7099,WL,A,3.0
4,1.7660000324249268,learn,58233.99996757507,Fri Mar 07 2025 15:04:34 GMT-0600 (Central Standard Time),504384.6000000015,A,ra,O,a,47,1,266.29999999701977,504118.30000000447,7099,WL,A,3.0
4,1.8680000305175781,learn,58131.99996948242,Fri Mar 07 2025 15:04:34 GMT-0600 (Central Standard Time),504486.3999999985,A,rat,O,t,95,1,368.09999999403954,504118.30000000447,7099,WL,A,3.0
4,1.998999834060669,learn,58001.00016593933,Fri Mar 07 2025 15:04:34 GMT-0600 (Central Standard Time),504617.5,A,ratt,O,t,119,1,499.19999999552965,504118.30000000447,7099,WL,A,3.0
4,2.047999858856201,learn,57952.0001411438,Fri Mar 07 2025 15:04:34 GMT-0600 (Central Standard Time),504666.700000003,A,rattl,O,l,33,1,548.3999999985099,504118.30000000447,7099,WL,A,3.0
4,2.115000009536743,learn,57884.99999046326,Fri Mar 07 2025 15:04:34 GMT-0600 (Central Standard Time),504734.30000000447,A,rattle,O,e,53,1,616.0,504118.30000000447,7099,WL,A,3.0
4,2.384000062942505,learn,57615.999937057495,Fri Mar 07 2025 15:04:34 GMT-0600 (Central Standard Time),505002.200000003,A,rattleenter,O,enter,249,1,883.8999999985099,504118.30000000447,7099,WL,A,3.0
4,2.566999912261963,learn,57433.00008773804,Fri Mar 07 2025 15:04:34 GMT-0600 (Central Standard Time),505185.200000003,A,g,O,g,165,1,182.70000000298023,505002.5,7099,WL,A,4.0
4,2.6480000019073486,learn,57351.99999809265,Fri Mar 07 2025 15:04:34 GMT-0600 (Central Standard Time),505267.0,A,go,O,o,60,1,264.5,505002.5,7099,WL,A,4.0
4,2.8320000171661377,learn,57167.99998283386,Fri Mar 07 2025 15:04:34 GMT-0600 (Central Standard Time),505450.3999999985,A,gol,O,l,171,1,447.8999999985099,505002.5,7099,WL,A,4.0
4,2.9159998893737793,learn,57084.00011062622,Fri Mar 07 2025 15:04:34 GMT-0600 (Central Standard Time),505534.3999999985,A,gold,O,d,75,1,531.8999999985099,505002.5,7099,WL,A,4.0
4,3.0,learn,57000.0,Fri Mar 07 2025 15:04:34 GMT-0600 (Central Standard Time),505618.5,A,goldenter,O,enter,70,1,616.0,505002.5,7099,WL,A,4.0
4,3.2330000400543213,learn,56766.99995994568,Fri Mar 07 2025 15:04:34 GMT-0600 (Central Standard Time),505851.6000000015,A,b,O,b,214,1,232.89999999850988,505618.700000003,7099,WL,A,5.0
4,3.297999858856201,learn,56702.0001411438,Fri Mar 07 2025 15:04:34 GMT-0600 (Central Standard Time),505916.3999999985,A,bo,O,o,52,1,297.69999999552965,505618.700000003,7099,WL,A,5.0
4,3.447999954223633,learn,56552.00004577637,Fri Mar 07 2025 15:04:34 GMT-0600 (Central Standard Time),506066.700000003,A,boo,O,o,139,1,448.0,505618.700000003,7099,WL,A,5.0
4,3.5149998664855957,learn,56485.000133514404,Fri Mar 07 2025 15:04:34 GMT-0600 (Central Standard Time),506134.1000000015,A,book,O,k,51,1,515.3999999985099,505618.700000003,7099,WL,A,5.0
4,3.682999849319458,learn,56317.00015068054,Fri Mar 07 2025 15:04:34 GMT-0600 (Central Standard Time),506301.80000000447,A,bookenter,O,enter,159,1,683.1000000014901,505618.700000003,7099,WL,A,5.0
4,3.8509998321533203,learn,56149.00016784668,Fri Mar 07 2025 15:04:34 GMT-0600 (Central Standard Time),506469.80000000447,A,f,O,f,162,1,167.80000000447035,506302.0,7099,WL,A,6.0
4,3.9489998817443848,learn,56051.000118255615,Fri Mar 07 2025 15:04:34 GMT-0600 (Central Standard Time),506567.8999999985,A,fl,O,l,80,1,265.8999999985099,506302.0,7099,WL,A,6.0
4,4.115999937057495,learn,55884.000062942505,Fri Mar 07 2025 15:04:34 GMT-0600 (Central Standard Time),506734.30000000447,A,flo,O,o,150,1,432.30000000447035,506302.0,7099,WL,A,6.0
4,4.198999881744385,learn,55801.000118255615,Fri Mar 07 2025 15:04:34 GMT-0600 (Central Standard Time),506817.5,A,floe,O,e,72,1,515.5,506302.0,7099,WL,A,6.0
4,4.247999906539917,learn,55752.00009346008,Fri Mar 07 2025 15:04:34 GMT-0600 (Central Standard Time),506866.5,A,floer,O,r,37,1,564.5,506302.0,7099,WL,A,6.0
4,4.497999906539917,learn,55502.00009346008,Fri Mar 07 2025 15:04:34 GMT-0600 (Central Standard Time),507116.700000003,A,floerenter,O,enter,237,1,814.7000000029802,506302.0,7099,WL,A,6.0
4,6.082000017166138,learn,53917.99998283386,Fri Mar 07 2025 15:04:34 GMT-0600 (Central Standard Time),508700.80000000447,A,r,O,r,1572,1,1583.8000000044703,507117.0,7099,WL,A,7.0
4,6.164000034332275,learn,53835.999965667725,Fri Mar 07 2025 15:04:34 GMT-0600 (Central Standard Time),508782.5,A,ru,O,u,74,1,1665.5,507117.0,7099,WL,A,7.0
4,6.266999959945679,learn,53733.00004005432,Fri Mar 07 2025 15:04:34 GMT-0600 (Central Standard Time),508885.3999999985,A,rug,O,g,94,1,1768.3999999985099,507117.0,7099,WL,A,7.0
4,6.998999834060669,learn,53001.00016593933,Fri Mar 07 2025 15:04:34 GMT-0600 (Central Standard Time),509617.5,A,rugenter,O,enter,721,1,2500.5,507117.0,7099,WL,A,7.0
4,8.664000034332275,learn,51335.999965667725,Fri Mar 07 2025 15:04:34 GMT-0600 (Central Standard Time),511283.200000003,A,c,O,c,1656,1,1665.3999999985099,509617.80000000447,7099,WL,A,8.0
4,8.763999938964844,learn,51236.000061035156,Fri Mar 07 2025 15:04:34 GMT-0600 (Central Standard Time),511382.700000003,A,ch,O,h,84,1,1764.8999999985099,509617.80000000447,7099,WL,A,8.0
4,8.86299991607666,learn,51137.00008392334,Fri Mar 07 2025 15:04:34 GMT-0600 (Central Standard Time),511482.1000000015,A,cha,O,a,80,1,1864.2999999970198,509617.80000000447,7099,WL,A,8.0
4,8.948999881744385,learn,51051.000118255615,Fri Mar 07 2025 15:04:34 GMT-0600 (Central Standard Time),511567.5,A,chai,O,i,77,1,1949.6999999955297,509617.80000000447,7099,WL,A,8.0
4,9.01199984550476,learn,50988.00015449524,Fri Mar 07 2025 15:04:34 GMT-0600 (Central Standard Time),511630.700000003,A,chain,O,n,51,1,2012.8999999985099,509617.80000000447,7099,WL,A,8.0
4,9.412999868392944,learn,50587.000131607056,Fri Mar 07 2025 15:04:34 GMT-0600 (Central Standard Time),512031.8999999985,A,chainenter,O,enter,384,1,2414.0999999940395,509617.80000000447,7099,WL,A,8.0
4,10.680000066757202,learn,49319.9999332428,Fri Mar 07 2025 15:04:34 GMT-0600 (Central Standard Time),513299.200000003,A,m,O,m,1257,1,1267.0,512032.200000003,7099,WL,A,9.0
4,10.763000011444092,learn,49236.99998855591,Fri Mar 07 2025 15:04:34 GMT-0600 (Central Standard Time),513382.0,A,me,O,e,77,1,1349.7999999970198,512032.200000003,7099,WL,A,9.0
4,10.812000036239624,learn,49187.999963760376,Fri Mar 07 2025 15:04:34 GMT-0600 (Central Standard Time),513430.6000000015,A,mea,O,a,40,1,1398.3999999985099,512032.200000003,7099,WL,A,9.0
4,10.996000051498413,learn,49003.99994850159,Fri Mar 07 2025 15:04:34 GMT-0600 (Central Standard Time),513615.1000000015,A,mead,O,d,167,1,1582.8999999985099,512032.200000003,7099,WL,A,9.0
4,11.129999876022339,learn,48870.00012397766,Fri Mar 07 2025 15:04:34 GMT-0600 (Central Standard Time),513748.6000000015,A,meado,O,o,118,1,1716.3999999985099,512032.200000003,7099,WL,A,9.0
4,11.246999979019165,learn,48753.000020980835,Fri Mar 07 2025 15:04:34 GMT-0600 (Central Standard Time),513865.700000003,A,meadow,O,w,98,1,1833.5,512032.200000003,7099,WL,A,9.0
4,11.463000059127808,learn,48536.99994087219,Fri Mar 07 2025 15:04:34 GMT-0600 (Central Standard Time),514081.5,A,meadown,O,n,204,1,2049.2999999970198,512032.200000003,7099,WL,A,9.0
4,11.930999994277954,learn,48069.000005722046,Fri Mar 07 2025 15:04:34 GMT-0600 (Central Standard Time),514549.700000003,A,meadow,O,backspace,461,1,2517.5,512032.200000003,7099,WL,A,9.0
4,12.228999853134155,learn,47771.000146865845,Fri Mar 07 2025 15:04:34 GMT-0600 (Central Standard Time),514847.8999999985,A,meadowenter,O,enter,279,1,2815.6999999955297,512032.200000003,7099,WL,A,9.0
4,13.727999925613403,learn,46272.0000743866,Fri Mar 07 2025 15:04:34 GMT-0600 (Central Standard Time),516346.8999999985,A,c,O,c,1478,1,1498.6999999955297,514848.200000003,7099,WL,A,10.0
4,13.777999877929688,learn,46222.00012207031,Fri Mar 07 2025 15:04:34 GMT-0600 (Central Standard Time),516396.200000003,A,ch,O,h,42,1,1548.0,514848.200000003,7099,WL,A,10.0
4,13.895999908447266,learn,46104.000091552734,Fri Mar 07 2025 15:04:34 GMT-0600 (Central Standard Time),516514.5,A,chi,O,i,102,1,1666.2999999970198,514848.200000003,7099,WL,A,10.0
4,14.027999877929688,learn,45972.00012207031,Fri Mar 07 2025 15:04:34 GMT-0600 (Central Standard Time),516647.1000000015,A,chim,O,m,109,1,1798.8999999985099,514848.200000003,7099,WL,A,10.0
4,14.345999956130981,learn,45654.00004386902,Fri Mar 07 2025 15:04:34 GMT-0600 (Central Standard Time),516964.80000000447,A,chimn,O,n,304,1,2116.60000000149,514848.200000003,7099,WL,A,10.0
4,14.444000005722046,learn,45555.999994277954,Fri Mar 07 2025 15:04:34 GMT-0600 (Central Standard Time),517062.8999999985,A,chimne,O,e,82,1,2214.6999999955297,514848.200000003,7099,WL,A,10.0
4,14.54699993133545,learn,45453.00006866455,Fri Mar 07 2025 15:04:34 GMT-0600 (Central Standard Time),517165.6000000015,A,chimney,O,y,94,1,2317.39999999851,514848.200000003,7099,WL,A,10.0
4,14.845999956130981,learn,45154.00004386902,Fri Mar 07 2025 15:04:34 GMT-0600 (Central Standard Time),517464.30000000447,A,chimneyenter,O,enter,280,1,2616.10000000149,514848.200000003,7099,WL,A,10.0
4,15.095999956130981,learn,44904.00004386902,Fri Mar 07 2025 15:04:34 GMT-0600 (Central Standard Time),517714.5,A,f,O,f,231,1,250.0,517464.5,7099,WL,A,11.0
4,15.194999933242798,learn,44805.0000667572,Fri Mar 07 2025 15:04:34 GMT-0600 (Central Standard Time),517814.1000000015,A,fi,O,i,83,1,349.6000000014901,517464.5,7099,WL,A,11.0
4,15.312999963760376,learn,44687.000036239624,Fri Mar 07 2025 15:04:34 GMT-0600 (Central Standard Time),517931.3999999985,A,fin,O,n,96,1,466.8999999985099,517464.5,7099,WL,A,11.0
4,15.378999948501587,learn,44621.00005149841,Fri Mar 07 2025 15:04:34 GMT-0600 (Central Standard Time),517997.3999999985,A,fing,O,g,57,1,532.8999999985099,517464.5,7099,WL,A,11.0
4,15.562999963760376,learn,44437.000036239624,Fri Mar 07 2025 15:04:34 GMT-0600 (Central Standard Time),518181.200000003,A,finge,O,e,163,1,716.7000000029802,517464.5,7099,WL,A,11.0
4,15.592999935150146,learn,44407.00006484985,Fri Mar 07 2025 15:04:34 GMT-0600 (Central Standard Time),518211.6000000015,A,finger,O,r,15,1,747.1000000014901,517464.5,7099,WL,A,11.0
4,15.694999933242798,learn,44305.0000667572,Fri Mar 07 2025 15:04:34 GMT-0600 (Central Standard Time),518313.6000000015,A,fingerenter,O,enter,93,1,849.1000000014901,517464.5,7099,WL,A,11.0
4,16.644999980926514,learn,43355.000019073486,Fri Mar 07 2025 15:04:34 GMT-0600 (Central Standard Time),519264.0,A,a,O,a,933,1,950.1000000014901,518313.8999999985,7099,WL,A,12.0
4,16.727999925613403,learn,43272.0000743866,Fri Mar 07 2025 15:04:34 GMT-0600 (Central Standard Time),519346.700000003,A,ap,O,p,62,1,1032.8000000044703,518313.8999999985,7099,WL,A,12.0
4,16.895999908447266,learn,43104.000091552734,Fri Mar 07 2025 15:04:34 GMT-0600 (Central Standard Time),519514.3999999985,A,app,O,p,146,1,1200.5,518313.8999999985,7099,WL,A,12.0
4,17.026999950408936,learn,42973.000049591064,Fri Mar 07 2025 15:04:34 GMT-0600 (Central Standard Time),519646.200000003,A,appl,O,l,116,1,1332.3000000044703,518313.8999999985,7099,WL,A,12.0
4,17.128000020980835,learn,42871.999979019165,Fri Mar 07 2025 15:04:34 GMT-0600 (Central Standard Time),519746.6000000015,A,apple,O,e,86,1,1432.7000000029802,518313.8999999985,7099,WL,A,12.0
4,17.210000038146973,learn,42789.99996185303,Fri Mar 07 2025 15:04:34 GMT-0600 (Central Standard Time),519829.200000003,A,appleenter,O,enter,68,1,1515.3000000044703,518313.8999999985,7099,WL,A,12.0
4,18.062000036239624,learn,41937.999963760376,Fri Mar 07 2025 15:04:34 GMT-0600 (Central Standard Time),520680.700000003,A,s,O,s,835,1,851.3000000044703,519829.3999999985,7099,WL,A,13.0
4,18.14400005340576,learn,41855.99994659424,Fri Mar 07 2025 15:04:34 GMT-0600 (Central Standard Time),520762.6000000015,A,sa,O,a,70,1,933.2000000029802,519829.3999999985,7099,WL,A,13.0
4,18.228999853134155,learn,41771.000146865845,Fri Mar 07 2025 15:04:34 GMT-0600 (Central Standard Time),520847.30000000447,A,sal,O,l,80,1,1017.9000000059605,519829.3999999985,7099,WL,A,13.0
4,18.361999988555908,learn,41638.00001144409,Fri Mar 07 2025 15:04:34 GMT-0600 (Central Standard Time),520980.3999999985,A,salt,O,t,110,1,1151.0,519829.3999999985,7099,WL,A,13.0
4,18.425999879837036,learn,41574.000120162964,Fri Mar 07 2025 15:04:34 GMT-0600 (Central Standard Time),521045.1000000015,A,saltenter,O,enter,56,1,1215.7000000029802,519829.3999999985,7099,WL,A,13.0
4,28.575000047683716,learn,31424.999952316284,Fri Mar 07 2025 15:04:34 GMT-0600 (Central Standard Time),531193.700000003,A,f,O,f,10138,1,10148.39999999851,521045.30000000447,7099,WL,A,14.0
4,28.674000024795532,learn,31325.999975204468,Fri Mar 07 2025 15:04:34 GMT-0600 (Central Standard Time),531293.1000000015,A,fl,O,l,84,1,10247.79999999702,521045.30000000447,7099,WL,A,14.0
4,28.842000007629395,learn,31157.999992370605,Fri Mar 07 2025 15:04:34 GMT-0600 (Central Standard Time),531461.200000003,A,flo,O,o,145,1,10415.89999999851,521045.30000000447,7099,WL,A,14.0
4,28.94099998474121,learn,31059.00001525879,Fri Mar 07 2025 15:04:34 GMT-0600 (Central Standard Time),531559.6000000015,A,flow,O,w,76,1,10514.29999999702,521045.30000000447,7099,WL,A,14.0
4,28.954999923706055,learn,31045.000076293945,Fri Mar 07 2025 15:04:34 GMT-0600 (Central Standard Time),531573.8000000045,A,flowe,O,e,5,1,10528.5,521045.30000000447,7099,WL,A,14.0
4,29.00600004196167,learn,30993.99995803833,Fri Mar 07 2025 15:04:34 GMT-0600 (Central Standard Time),531625.1000000015,A,flower,O,r,42,1,10579.79999999702,521045.30000000447,7099,WL,A,14.0
4,29.157000064849854,learn,30842.999935150146,Fri Mar 07 2025 15:04:34 GMT-0600 (Central Standard Time),531775.3999999985,A,flowerenter,O,enter,134,1,10730.09999999404,521045.30000000447,7099,WL,A,14.0
4,34.98799991607666,learn,25012.00008392334,Fri Mar 07 2025 15:04:34 GMT-0600 (Central Standard Time),537607.200000003,A,a,O,a,5825,1,5831.60000000149,531775.6000000015,7099,WL,A,15.0
4,35.03699994087219,learn,24963.000059127808,Fri Mar 07 2025 15:04:34 GMT-0600 (Central Standard Time),537655.3999999985,A,ap,O,p,36,1,5879.79999999702,531775.6000000015,7099,WL,A,15.0
4,35.187999963760376,learn,24812.000036239624,Fri Mar 07 2025 15:04:34 GMT-0600 (Central Standard Time),537807.1000000015,A,app,O,p,145,1,6031.5,531775.6000000015,7099,WL,A,15.0
4,35.33999991416931,learn,24660.00008583069,Fri Mar 07 2025 15:04:34 GMT-0600 (Central Standard Time),537959.3000000045,A,appl,O,l,146,1,6183.70000000298,531775.6000000015,7099,WL,A,15.0
4,35.437999963760376,learn,24562.000036239624,Fri Mar 07 2025 15:04:34 GMT-0600 (Central Standard Time),538057.3999999985,A,apple,O,e,78,1,6281.79999999702,531775.6000000015,7099,WL,A,15.0
4,35.57200002670288,learn,24427.99997329712,Fri Mar 07 2025 15:04:34 GMT-0600 (Central Standard Time),538191.0,A,appleenter,O,enter,127,1,6415.39999999851,531775.6000000015,7099,WL,A,15.0
5,0.4159998893737793,learn,60000.0,Fri Mar 07 2025 15:04:34 GMT-0600 (Central Standard Time),604285.8000000045,A,b,O,b,401,1,415.5,603870.3000000045,7099,WL,A,1.0
5,0.48199987411499023,learn,60000.0,Fri Mar 07 2025 15:04:34 GMT-0600 (Central Standard Time),604351.3999999985,A,bo,O,o,48,1,481.09999999403954,603870.3000000045,7099,WL,A,1.0
5,0.6189999580383301,learn,60000.0,Fri Mar 07 2025 15:04:34 GMT-0600 (Central Standard Time),604488.5,A,boo,O,o,132,1,618.1999999955297,603870.3000000045,7099,WL,A,1.0
5,0.7669999599456787,learn,60000.0,Fri Mar 07 2025 15:04:34 GMT-0600 (Central Standard Time),604636.5,A,book,O,k,134,1,766.1999999955297,603870.3000000045,7099,WL,A,1.0
5,1.1489999294281006,learn,60000.0,Fri Mar 07 2025 15:04:34 GMT-0600 (Central Standard Time),605018.5,A,bookenter,O,enter,362,1,1148.1999999955297,603870.3000000045,7099,WL,A,1.0
5,1.3829998970031738,learn,60000.0,Fri Mar 07 2025 15:04:34 GMT-0600 (Central Standard Time),605252.8999999985,A,b,O,b,221,1,234.19999999552965,605018.700000003,7099,WL,A,2.0
5,1.5,learn,60000.0,Fri Mar 07 2025 15:04:34 GMT-0600 (Central Standard Time),605369.8000000045,A,bu,O,u,106,1,351.1000000014901,605018.700000003,7099,WL,A,2.0
5,1.61899995803833,learn,60000.0,Fri Mar 07 2025 15:04:34 GMT-0600 (Central Standard Time),605488.3000000045,A,but,O,t,112,1,469.6000000014901,605018.700000003,7099,WL,A,2.0
5,1.750999927520752,learn,60000.0,Fri Mar 07 2025 15:04:34 GMT-0600 (Central Standard Time),605620.6000000015,A,butt,O,t,118,1,601.8999999985099,605018.700000003,7099,WL,A,2.0
5,1.8499999046325684,learn,60000.0,Fri Mar 07 2025 15:04:34 GMT-0600 (Central Standard Time),605720.200000003,A,butto,O,o,76,1,701.5,605018.700000003,7099,WL,A,2.0
5,1.9159998893737793,learn,60000.0,Fri Mar 07 2025 15:04:34 GMT-0600 (Central Standard Time),605786.200000003,A,button,O,n,44,1,767.5,605018.700000003,7099,WL,A,2.0
5,2.3489999771118164,learn,60000.0,Fri Mar 07 2025 15:04:34 GMT-0600 (Central Standard Time),606218.8999999985,A,buttonenter,O,enter,413,1,1200.1999999955297,605018.700000003,7099,WL,A,2.0
5,2.549999952316284,learn,60000.0,Fri Mar 07 2025 15:04:34 GMT-0600 (Central Standard Time),606419.3999999985,A,r,O,r,181,1,200.19999999552965,606219.200000003,7099,WL,A,3.0
5,2.615999937057495,learn,60000.0,Fri Mar 07 2025 15:04:34 GMT-0600 (Central Standard Time),606485.8000000045,A,ra,O,a,51,1,266.6000000014901,606219.200000003,7099,WL,A,3.0
5,2.7319998741149902,learn,60000.0,Fri Mar 07 2025 15:04:34 GMT-0600 (Central Standard Time),606602.0,A,rat,O,t,105,1,382.79999999701977,606219.200000003,7099,WL,A,3.0
5,2.865000009536743,learn,60000.0,Fri Mar 07 2025 15:04:34 GMT-0600 (Central Standard Time),606735.0,A,ratt,O,t,117,1,515.7999999970198,606219.200000003,7099,WL,A,3.0
5,2.9489998817443848,learn,60000.0,Fri Mar 07 2025 15:04:34 GMT-0600 (Central Standard Time),606818.8999999985,A,rattl,O,l,70,1,599.6999999955297,606219.200000003,7099,WL,A,3.0
5,3.049999952316284,learn,60000.0,Fri Mar 07 2025 15:04:34 GMT-0600 (Central Standard Time),606919.8000000045,A,rattle,O,e,84,1,700.6000000014901,606219.200000003,7099,WL,A,3.0
5,3.2009999752044678,learn,60000.0,Fri Mar 07 2025 15:04:34 GMT-0600 (Central Standard Time),607070.3999999985,A,rattleenter,O,enter,145,1,851.1999999955297,606219.200000003,7099,WL,A,3.0
5,3.5160000324249268,learn,60000.0,Fri Mar 07 2025 15:04:34 GMT-0600 (Central Standard Time),607385.6000000015,A,l,O,l,305,1,314.8999999985099,607070.700000003,7099,WL,A,4.0
5,3.681999921798706,learn,60000.0,Fri Mar 07 2025 15:04:34 GMT-0600 (Central Standard Time),607551.700000003,A,lo,O,o,159,1,481.0,607070.700000003,7099,WL,A,4.0
5,3.7660000324249268,learn,60000.0,Fri Mar 07 2025 15:04:34 GMT-0600 (Central Standard Time),607635.3000000045,A,log,O,g,72,1,564.6000000014901,607070.700000003,7099,WL,A,4.0
5,4.049999952316284,learn,60000.0,Fri Mar 07 2025 15:04:34 GMT-0600 (Central Standard Time),607919.6000000015,A,logenter,O,enter,278,1,848.8999999985099,607070.700000003,7099,WL,A,4.0
5,4.33299994468689,learn,60000.0,Fri Mar 07 2025 15:04:34 GMT-0600 (Central Standard Time),608202.5,A,k,O,k,264,1,282.6000000014901,607919.8999999985,7099,WL,A,5.0
5,4.415999889373779,learn,60000.0,Fri Mar 07 2025 15:04:34 GMT-0600 (Central Standard Time),608286.200000003,A,ke,O,e,78,1,366.30000000447035,607919.8999999985,7099,WL,A,5.0
5,4.549000024795532,learn,60000.0,Fri Mar 07 2025 15:04:34 GMT-0600 (Central Standard Time),608418.8000000045,A,key,O,y,112,1,498.90000000596046,607919.8999999985,7099,WL,A,5.0
5,4.7829999923706055,learn,60000.0,Fri Mar 07 2025 15:04:34 GMT-0600 (Central Standard Time),608652.3999999985,A,keyenter,O,enter,222,1,732.5,607919.8999999985,7099,WL,A,5.0
5,4.9649999141693115,learn,60000.0,Fri Mar 07 2025 15:04:34 GMT-0600 (Central Standard Time),608834.3999999985,A,g,O,g,171,1,181.69999999552965,608652.700000003,7099,WL,A,6.0
5,5.0320000648498535,learn,60000.0,Fri Mar 07 2025 15:04:34 GMT-0600 (Central Standard Time),608901.3000000045,A,go,O,o,52,1,248.60000000149012,608652.700000003,7099,WL,A,6.0
5,5.198999881744385,learn,60000.0,Fri Mar 07 2025 15:04:34 GMT-0600 (Central Standard Time),609068.5,A,gol,O,l,153,1,415.79999999701977,608652.700000003,7099,WL,A,6.0
5,5.2829999923706055,learn,60000.0,Fri Mar 07 2025 15:04:34 GMT-0600 (Central Standard Time),609152.8000000045,A,gold,O,d,61,1,500.1000000014901,608652.700000003,7099,WL,A,6.0
5,5.448999881744385,learn,60000.0,Fri Mar 07 2025 15:04:34 GMT-0600 (Central Standard Time),609319.200000003,A,goldenter,O,enter,149,1,666.5,608652.700000003,7099,WL,A,6.0
5,5.664999961853027,learn,60000.0,Fri Mar 07 2025 15:04:34 GMT-0600 (Central Standard Time),609534.6000000015,A,a,O,a,209,1,215.20000000298023,609319.3999999985,7099,WL,A,7.0
5,5.75,learn,60000.0,Fri Mar 07 2025 15:04:34 GMT-0600 (Central Standard Time),609619.5,A,ap,O,p,62,1,300.1000000014901,609319.3999999985,7099,WL,A,7.0
5,5.898999929428101,learn,60000.0,Fri Mar 07 2025 15:04:34 GMT-0600 (Central Standard Time),609768.3000000045,A,app,O,p,130,1,448.90000000596046,609319.3999999985,7099,WL,A,7.0
5,6.0329999923706055,learn,60000.0,Fri Mar 07 2025 15:04:34 GMT-0600 (Central Standard Time),609902.5,A,appl,O,l,129,1,583.1000000014901,609319.3999999985,7099,WL,A,7.0
5,6.13100004196167,learn,60000.0,Fri Mar 07 2025 15:04:34 GMT-0600 (Central Standard Time),610000.6000000015,A,apple,O,e,80,1,681.2000000029802,609319.3999999985,7099,WL,A,7.0
5,6.363999843597412,learn,60000.0,Fri Mar 07 2025 15:04:34 GMT-0600 (Central Standard Time),610234.1000000015,A,appleenter,O,enter,222,1,914.7000000029802,609319.3999999985,7099,WL,A,7.0
5,6.599999904632568,learn,60000.0,Fri Mar 07 2025 15:04:34 GMT-0600 (Central Standard Time),610469.3999999985,A,m,O,m,214,1,235.09999999403954,610234.3000000045,7099,WL,A,8.0
5,6.697000026702881,learn,60000.0,Fri Mar 07 2025 15:04:34 GMT-0600 (Central Standard Time),610567.3000000045,A,me,O,e,91,1,333.0,610234.3000000045,7099,WL,A,8.0
5,6.763000011444092,learn,60000.0,Fri Mar 07 2025 15:04:34 GMT-0600 (Central Standard Time),610632.700000003,A,mea,O,a,54,1,398.3999999985099,610234.3000000045,7099,WL,A,8.0
5,6.914999961853027,learn,60000.0,Fri Mar 07 2025 15:04:34 GMT-0600 (Central Standard Time),610784.8000000045,A,mead,O,d,131,1,550.5,610234.3000000045,7099,WL,A,8.0
5,6.963000059127808,learn,60000.0,Fri Mar 07 2025 15:04:34 GMT-0600 (Central Standard Time),610832.8000000045,A,meado,O,o,30,1,598.5,610234.3000000045,7099,WL,A,8.0
5,7.0980000495910645,learn,60000.0,Fri Mar 07 2025 15:04:34 GMT-0600 (Central Standard Time),610967.6000000015,A,meadow,O,w,120,1,733.2999999970198,610234.3000000045,7099,WL,A,8.0
5,7.546999931335449,learn,60000.0,Fri Mar 07 2025 15:04:34 GMT-0600 (Central Standard Time),611417.1000000015,A,meadowenter,O,enter,430,1,1182.7999999970198,610234.3000000045,7099,WL,A,8.0
5,7.8480000495910645,learn,60000.0,Fri Mar 07 2025 15:04:34 GMT-0600 (Central Standard Time),611717.6000000015,A,c,O,c,288,1,300.20000000298023,611417.3999999985,7099,WL,A,9.0
5,7.895999908447266,learn,60000.0,Fri Mar 07 2025 15:04:34 GMT-0600 (Central Standard Time),611765.8999999985,A,ch,O,h,34,1,348.5,611417.3999999985,7099,WL,A,9.0
5,7.98199987411499,learn,60000.0,Fri Mar 07 2025 15:04:34 GMT-0600 (Central Standard Time),611851.8999999985,A,chi,O,i,66,1,434.5,611417.3999999985,7099,WL,A,9.0
5,8.148000001907349,learn,60000.0,Fri Mar 07 2025 15:04:34 GMT-0600 (Central Standard Time),612017.6000000015,A,chin,O,n,154,1,600.2000000029802,611417.3999999985,7099,WL,A,9.0
5,8.398000001907349,learn,60000.0,Fri Mar 07 2025 15:04:34 GMT-0600 (Central Standard Time),612268.3000000045,A,chine,O,e,229,1,850.9000000059605,611417.3999999985,7099,WL,A,9.0
5,8.664999961853027,learn,60000.0,Fri Mar 07 2025 15:04:34 GMT-0600 (Central Standard Time),612534.8000000045,A,chin,O,backspace,261,1,1117.4000000059605,611417.3999999985,7099,WL,A,9.0
5,8.799000024795532,learn,60000.0,Fri Mar 07 2025 15:04:34 GMT-0600 (Central Standard Time),612669.200000003,A,chi,O,backspace,111,1,1251.8000000044703,611417.3999999985,7099,WL,A,9.0
5,8.980999946594238,learn,60000.0,Fri Mar 07 2025 15:04:34 GMT-0600 (Central Standard Time),612850.8000000045,A,chim,O,m,170,1,1433.4000000059605,611417.3999999985,7099,WL,A,9.0
5,9.063999891281128,learn,60000.0,Fri Mar 07 2025 15:04:34 GMT-0600 (Central Standard Time),612933.8000000045,A,chime,O,e,68,1,1516.4000000059605,611417.3999999985,7099,WL,A,9.0
5,9.180999994277954,learn,60000.0,Fri Mar 07 2025 15:04:34 GMT-0600 (Central Standard Time),613050.5,A,chimey,O,y,104,1,1633.1000000014901,611417.3999999985,7099,WL,A,9.0
5,9.530999898910522,learn,60000.0,Fri Mar 07 2025 15:04:34 GMT-0600 (Central Standard Time),613400.8000000045,A,chimeyenter,O,enter,332,1,1983.4000000059605,611417.3999999985,7099,WL,A,9.0
5,9.88100004196167,learn,60000.0,Fri Mar 07 2025 15:04:34 GMT-0600 (Central Standard Time),613751.0,A,f,O,f,336,1,349.8999999985099,613401.1000000015,7099,WL,A,10.0
5,9.96399998664856,learn,60000.0,Fri Mar 07 2025 15:04:34 GMT-0600 (Central Standard Time),613834.0,A,fi,O,i,71,1,432.8999999985099,613401.1000000015,7099,WL,A,10.0
5,10.02999997138977,learn,60000.0,Fri Mar 07 2025 15:04:34 GMT-0600 (Central Standard Time),613899.8000000045,A,fin,O,n,52,1,498.70000000298023,613401.1000000015,7099,WL,A,10.0
5,10.078999996185303,learn,60000.0,Fri Mar 07 2025 15:04:34 GMT-0600 (Central Standard Time),613948.8999999985,A,fing,O,g,35,1,547.7999999970198,613401.1000000015,7099,WL,A,10.0
5,10.247999906539917,learn,60000.0,Fri Mar 07 2025 15:04:34 GMT-0600 (Central Standard Time),614117.3999999985,A,finge,O,e,154,1,716.2999999970198,613401.1000000015,7099,WL,A,10.0
5,10.29699993133545,learn,60000.0,Fri Mar 07 2025 15:04:34 GMT-0600 (Central Standard Time),614166.700000003,A,finger,O,r,24,1,765.6000000014901,613401.1000000015,7099,WL,A,10.0
5,10.46399998664856,learn,60000.0,Fri Mar 07 2025 15:04:34 GMT-0600 (Central Standard Time),614333.5,A,fingerenter,O,enter,152,1,932.3999999985099,613401.1000000015,7099,WL,A,10.0
5,10.744999885559082,learn,60000.0,Fri Mar 07 2025 15:04:34 GMT-0600 (Central Standard Time),614615.200000003,A,a,O,a,275,1,281.5,614333.700000003,7099,WL,A,11.0
5,11.080999851226807,learn,60000.0,Fri Mar 07 2025 15:04:34 GMT-0600 (Central Standard Time),614950.3999999985,A,,O,backspace,320,1,616.6999999955297,614333.700000003,7099,WL,A,11.0
5,11.145999908447266,learn,60000.0,Fri Mar 07 2025 15:04:34 GMT-0600 (Central Standard Time),615016.3000000045,A,s,O,s,49,1,682.6000000014901,614333.700000003,7099,WL,A,11.0
5,11.230999946594238,learn,60000.0,Fri Mar 07 2025 15:04:34 GMT-0600 (Central Standard Time),615100.700000003,A,sa,O,a,63,1,767.0,614333.700000003,7099,WL,A,11.0
5,11.395999908447266,learn,60000.0,Fri Mar 07 2025 15:04:34 GMT-0600 (Central Standard Time),615266.1000000015,A,sal,O,l,154,1,932.3999999985099,614333.700000003,7099,WL,A,11.0
5,11.598000049591064,learn,60000.0,Fri Mar 07 2025 15:04:34 GMT-0600 (Central Standard Time),615467.6000000015,A,salt,O,t,181,1,1133.8999999985099,614333.700000003,7099,WL,A,11.0
5,11.680000066757202,learn,60000.0,Fri Mar 07 2025 15:04:34 GMT-0600 (Central Standard Time),615549.5,A,saltenter,O,enter,77,1,1215.7999999970198,614333.700000003,7099,WL,A,11.0
5,11.94700002670288,learn,60000.0,Fri Mar 07 2025 15:04:34 GMT-0600 (Central Standard Time),615816.3000000045,A,h,O,h,258,1,266.5,615549.8000000045,7099,WL,A,12.0
5,12.02999997138977,learn,60000.0,Fri Mar 07 2025 15:04:34 GMT-0600 (Central Standard Time),615899.8000000045,A,ha,O,a,63,1,350.0,615549.8000000045,7099,WL,A,12.0
5,12.078999996185303,learn,60000.0,Fri Mar 07 2025 15:04:34 GMT-0600 (Central Standard Time),615948.5,A,har,O,r,26,1,398.69999999552965,615549.8000000045,7099,WL,A,12.0
5,12.19700002670288,learn,60000.0,Fri Mar 07 2025 15:04:34 GMT-0600 (Central Standard Time),616066.3999999985,A,harp,O,p,99,1,516.5999999940395,615549.8000000045,7099,WL,A,12.0
5,12.378999948501587,learn,60000.0,Fri Mar 07 2025 15:04:34 GMT-0600 (Central Standard Time),616249.0,A,harpenter,O,enter,163,1,699.1999999955297,615549.8000000045,7099,WL,A,12.0
5,22.66100001335144,learn,60000.0,Fri Mar 07 2025 15:04:34 GMT-0600 (Central Standard Time),626530.3000000045,A,m,O,m,10264,1,10281.0,616249.3000000045,7099,WL,A,13.0
5,22.72599983215332,learn,60000.0,Fri Mar 07 2025 15:04:34 GMT-0600 (Central Standard Time),626595.8000000045,A,me,O,e,45,1,10346.5,616249.3000000045,7099,WL,A,13.0
5,22.825999975204468,learn,60000.0,Fri Mar 07 2025 15:04:34 GMT-0600 (Central Standard Time),626696.0,A,mea,O,a,79,1,10446.69999999553,616249.3000000045,7099,WL,A,13.0
5,22.927000045776367,learn,60000.0,Fri Mar 07 2025 15:04:34 GMT-0600 (Central Standard Time),626797.1000000015,A,mead,O,d,79,1,10547.79999999702,616249.3000000045,7099,WL,A,13.0
5,23.05999994277954,learn,60000.0,Fri Mar 07 2025 15:04:34 GMT-0600 (Central Standard Time),626929.5,A,meado,O,o,114,1,10680.19999999553,616249.3000000045,7099,WL,A,13.0
5,23.14299988746643,learn,60000.0,Fri Mar 07 2025 15:04:34 GMT-0600 (Central Standard Time),627012.8999999985,A,meadow,O,w,60,1,10763.59999999404,616249.3000000045,7099,WL,A,13.0
5,23.442999839782715,learn,60000.0,Fri Mar 07 2025 15:04:34 GMT-0600 (Central Standard Time),627312.700000003,A,meadowenter,O,enter,282,1,11063.39999999851,616249.3000000045,7099,WL,A,13.0
5,27.141000032424927,learn,60000.0,Fri Mar 07 2025 15:04:34 GMT-0600 (Central Standard Time),631010.6000000015,A,enter,O,enter,3678,1,3697.60000000149,627313.0,7099,WL,A,14.0
5,27.491999864578247,learn,60000.0,Fri Mar 07 2025 15:04:34 GMT-0600 (Central Standard Time),631361.8999999985,A,enter,O,enter,341,1,351.09999999403954,631010.8000000045,7099,WL,A,15.0
6,0.3970000743865967,distr,59602.9999256134,Fri Mar 07 2025 15:04:34 GMT-0600 (Central Standard Time),698623.0,B,m,O,m,380,1,396.69999999552965,698226.3000000045,7099,WL,A,1.0
6,0.497999906539917,distr,59502.00009346008,Fri Mar 07 2025 15:04:34 GMT-0600 (Central Standard Time),698723.8999999985,B,me,O,e,89,1,497.59999999403954,698226.3000000045,7099,WL,A,1.0
6,0.562999963760376,distr,59437.000036239624,Fri Mar 07 2025 15:04:34 GMT-0600 (Central Standard Time),698789.6000000015,B,mea,O,a,43,1,563.2999999970198,698226.3000000045,7099,WL,A,1.0
6,0.6979999542236328,distr,59302.00004577637,Fri Mar 07 2025 15:04:34 GMT-0600 (Central Standard Time),698924.3000000045,B,meal,O,l,110,1,698.0,698226.3000000045,7099,WL,A,1.0
6,1.0109999179840088,distr,58989.00008201599,Fri Mar 07 2025 15:04:34 GMT-0600 (Central Standard Time),699237.700000003,B,mealenter,O,enter,294,1,1011.3999999985099,698226.3000000045,7099,WL,A,1.0
6,1.2799999713897705,distr,58720.00002861023,Fri Mar 07 2025 15:04:34 GMT-0600 (Central Standard Time),699505.8000000045,B,p,O,p,259,1,267.90000000596046,699237.8999999985,7099,WL,A,2.0
6,1.3629999160766602,distr,58637.00008392334,Fri Mar 07 2025 15:04:34 GMT-0600 (Central Standard Time),699589.3999999985,B,pe,O,e,62,1,351.5,699237.8999999985,7099,WL,A,2.0
6,1.4279999732971191,distr,58572.00002670288,Fri Mar 07 2025 15:04:34 GMT-0600 (Central Standard Time),699654.3999999985,B,pea,O,a,47,1,416.5,699237.8999999985,7099,WL,A,2.0
6,1.5299999713897705,distr,58470.00002861023,Fri Mar 07 2025 15:04:34 GMT-0600 (Central Standard Time),699756.8000000045,B,peac,O,c,80,1,518.9000000059605,699237.8999999985,7099,WL,A,2.0
6,1.5789999961853027,distr,58421.0000038147,Fri Mar 07 2025 15:04:34 GMT-0600 (Central Standard Time),699805.3999999985,B,peach,O,h,32,1,567.5,699237.8999999985,7099,WL,A,2.0
6,1.928999900817871,distr,58071.00009918213,Fri Mar 07 2025 15:04:34 GMT-0600 (Central Standard Time),700155.1000000015,B,peachenter,O,enter,330,1,917.2000000029802,699237.8999999985,7099,WL,A,2.0
6,2.2130000591278076,distr,57786.99994087219,Fri Mar 07 2025 15:04:34 GMT-0600 (Central Standard Time),700439.200000003,B,b,O,b,263,1,283.80000000447035,700155.3999999985,7099,WL,A,3.0
6,2.296999931335449,distr,57703.00006866455,Fri Mar 07 2025 15:04:34 GMT-0600 (Central Standard Time),700523.1000000015,B,bo,O,o,70,1,367.70000000298023,700155.3999999985,7099,WL,A,3.0
6,2.428999900817871,distr,57571.00009918213,Fri Mar 07 2025 15:04:34 GMT-0600 (Central Standard Time),700655.700000003,B,bow,O,w,110,1,500.30000000447035,700155.3999999985,7099,WL,A,3.0
6,2.513000011444092,distr,57486.99998855591,Fri Mar 07 2025 15:04:34 GMT-0600 (Central Standard Time),700738.8999999985,B,bowl,O,l,72,1,583.5,700155.3999999985,7099,WL,A,3.0
6,2.8289999961853027,distr,57171.0000038147,Fri Mar 07 2025 15:04:34 GMT-0600 (Central Standard Time),701055.3000000045,B,bowlenter,O,enter,310,1,899.9000000059605,700155.3999999985,7099,WL,A,3.0
6,3.6630001068115234,distr,56336.99989318848,Fri Mar 07 2025 15:04:34 GMT-0600 (Central Standard Time),701889.0,B,b,O,b,825,1,833.5,701055.5,7099,WL,A,4.0
6,3.746000051498413,distr,56253.99994850159,Fri Mar 07 2025 15:04:34 GMT-0600 (Central Standard Time),701972.200000003,B,bo,O,o,71,1,916.7000000029802,701055.5,7099,WL,A,4.0
6,3.878999948501587,distr,56121.00005149841,Fri Mar 07 2025 15:04:34 GMT-0600 (Central Standard Time),702105.6000000015,B,bot,O,t,114,1,1050.1000000014901,701055.5,7099,WL,A,4.0
6,3.996000051498413,distr,56003.99994850159,Fri Mar 07 2025 15:04:34 GMT-0600 (Central Standard Time),702222.3999999985,B,bott,O,t,102,1,1166.8999999985099,701055.5,7099,WL,A,4.0
6,4.078999996185303,distr,55921.0000038147,Fri Mar 07 2025 15:04:34 GMT-0600 (Central Standard Time),702305.700000003,B,bottl,O,l,65,1,1250.2000000029802,701055.5,7099,WL,A,4.0
6,4.180999994277954,distr,55819.000005722046,Fri Mar 07 2025 15:04:34 GMT-0600 (Central Standard Time),702406.8000000045,B,bottle,O,e,76,1,1351.3000000044703,701055.5,7099,WL,A,4.0
6,4.260999917984009,distr,55739.00008201599,Fri Mar 07 2025 15:04:34 GMT-0600 (Central Standard Time),702487.5,B,bottleenter,O,enter,70,1,1432.0,701055.5,7099,WL,A,4.0
6,6.211999893188477,distr,53788.00010681152,Fri Mar 07 2025 15:04:34 GMT-0600 (Central Standard Time),704438.1000000015,B,c,O,c,1936,1,1950.2999999970198,702487.8000000045,7099,WL,A,5.0
6,6.295000076293945,distr,53704.999923706055,Fri Mar 07 2025 15:04:34 GMT-0600 (Central Standard Time),704521.200000003,B,ch,O,h,65,1,2033.3999999985099,702487.8000000045,7099,WL,A,5.0
6,6.394999980926514,distr,53605.000019073486,Fri Mar 07 2025 15:04:34 GMT-0600 (Central Standard Time),704620.8000000045,B,cha,O,a,78,1,2133.0,702487.8000000045,7099,WL,A,5.0
6,6.51200008392334,distr,53487.99991607666,Fri Mar 07 2025 15:04:34 GMT-0600 (Central Standard Time),704738.1000000015,B,chai,O,i,105,1,2250.2999999970198,702487.8000000045,7099,WL,A,5.0
6,6.5940001010894775,distr,53405.99989891052,Fri Mar 07 2025 15:04:34 GMT-0600 (Central Standard Time),704820.8000000045,B,chair,O,r,67,1,2333.0,702487.8000000045,7099,WL,A,5.0
6,6.727999925613403,distr,53272.0000743866,Fri Mar 07 2025 15:04:34 GMT-0600 (Central Standard Time),704954.200000003,B,chairenter,O,enter,115,1,2466.39999999851,702487.8000000045,7099,WL,A,5.0
6,7.328999996185303,distr,52671.0000038147,Fri Mar 07 2025 15:04:34 GMT-0600 (Central Standard Time),705555.6000000015,B,s,O,s,590,1,601.1000000014901,704954.5,7099,WL,A,6.0
6,7.430000066757202,distr,52569.9999332428,Fri Mar 07 2025 15:04:34 GMT-0600 (Central Standard Time),705656.0,B,se,O,e,94,1,701.5,704954.5,7099,WL,A,6.0
6,7.5959999561309814,distr,52404.00004386902,Fri Mar 07 2025 15:04:34 GMT-0600 (Central Standard Time),705822.700000003,B,see,O,e,160,1,868.2000000029802,704954.5,7099,WL,A,6.0
6,7.7790000438690186,distr,52220.99995613098,Fri Mar 07 2025 15:04:34 GMT-0600 (Central Standard Time),706005.0,B,seed,O,d,159,1,1050.5,704954.5,7099,WL,A,6.0
6,7.878000020980835,distr,52121.999979019165,Fri Mar 07 2025 15:04:34 GMT-0600 (Central Standard Time),706103.8000000045,B,seedenter,O,enter,74,1,1149.3000000044703,704954.5,7099,WL,A,6.0
6,24.44099998474121,distr,35559.00001525879,Fri Mar 07 2025 15:04:34 GMT-0600 (Central Standard Time),722667.3999999985,B,enter,O,enter,16552,1,16563.29999999702,706104.1000000015,7099,WL,A,7.0
6,24.740000009536743,distr,35259.99999046326,Fri Mar 07 2025 15:04:34 GMT-0600 (Central Standard Time),722966.3999999985,B,enter,O,enter,293,1,298.69999999552965,722667.700000003,7099,WL,A,8.0
6,24.937999963760376,distr,35062.000036239624,Fri Mar 07 2025 15:04:34 GMT-0600 (Central Standard Time),723165.1000000015,B,enter,O,enter,186,1,198.29999999701977,722966.8000000045,7099,WL,A,9.0
6,25.08999991416931,distr,34910.00008583069,Fri Mar 07 2025 15:04:34 GMT-0600 (Central Standard Time),723317.200000003,B,enter,O,enter,147,1,151.80000000447035,723165.3999999985,7099,WL,A,10.0
6,25.454999923706055,distr,34545.000076293945,Fri Mar 07 2025 15:04:34 GMT-0600 (Central Standard Time),723681.3999999985,B,enter,O,enter,355,1,363.8999999985099,723317.5,7099,WL,A,11.0
6,25.722000122070312,distr,34277.99987792969,Fri Mar 07 2025 15:04:34 GMT-0600 (Central Standard Time),723949.0,B,enter,O,enter,254,1,267.29999999701977,723681.700000003,7099,WL,A,12.0
6,25.92300009727478,distr,34076.99990272522,Fri Mar 07 2025 15:04:34 GMT-0600 (Central Standard Time),724149.3999999985,B,enter,O,enter,187,1,200.0,723949.3999999985,7099,WL,A,13.0
6,26.08899998664856,distr,33911.00001335144,Fri Mar 07 2025 15:04:34 GMT-0600 (Central Standard Time),724315.5,B,enter,O,enter,155,1,165.69999999552965,724149.8000000045,7099,WL,A,14.0
6,26.519999980926514,distr,33480.000019073486,Fri Mar 07 2025 15:04:34 GMT-0600 (Central Standard Time),724746.8000000045,B,enter,O,enter,411,1,430.90000000596046,724315.8999999985,7099,WL,A,15.0
7,4.614000082015991,immed,55385.99991798401,Fri Mar 07 2025 15:04:34 GMT-0600 (Central Standard Time),745874.0,A,c,O,c,4603,1,4614.0,741260.0,7099,WL,A,1.0
7,4.732000112533569,immed,55267.99988746643,Fri Mar 07 2025 15:04:34 GMT-0600 (Central Standard Time),745991.5,A,ch,O,h,101,1,4731.5,741260.0,7099,WL,A,1.0
7,4.848999977111816,immed,55151.00002288818,Fri Mar 07 2025 15:04:34 GMT-0600 (Central Standard Time),746109.0,A,cha,O,a,110,1,4849.0,741260.0,7099,WL,A,1.0
7,4.9649999141693115,immed,55035.00008583069,Fri Mar 07 2025 15:04:34 GMT-0600 (Central Standard Time),746224.700000003,A,chai,O,i,99,1,4964.70000000298,741260.0,7099,WL,A,1.0
7,5.08299994468689,immed,54917.00005531311,Fri Mar 07 2025 15:04:34 GMT-0600 (Central Standard Time),746342.3999999985,A,chair,O,r,109,1,5082.39999999851,741260.0,7099,WL,A,1.0
7,5.930999994277954,immed,54069.000005722046,Fri Mar 07 2025 15:04:34 GMT-0600 (Central Standard Time),747190.8000000045,A,chairenter,O,enter,833,1,5930.80000000447,741260.0,7099,WL,A,1.0
7,6.180999994277954,immed,53819.000005722046,Fri Mar 07 2025 15:04:34 GMT-0600 (Central Standard Time),747441.0,A,g,O,g,231,1,249.89999999850988,747191.1000000015,7099,WL,A,2.0
7,6.229000091552734,immed,53770.999908447266,Fri Mar 07 2025 15:04:34 GMT-0600 (Central Standard Time),747488.8999999985,A,go,O,o,38,1,297.79999999701977,747191.1000000015,7099,WL,A,2.0
7,6.398000001907349,immed,53601.99999809265,Fri Mar 07 2025 15:04:34 GMT-0600 (Central Standard Time),747657.5,A,gol,O,l,160,1,466.3999999985099,747191.1000000015,7099,WL,A,2.0
7,6.497999906539917,immed,53502.00009346008,Fri Mar 07 2025 15:04:34 GMT-0600 (Central Standard Time),747757.8000000045,A,gold,O,d,95,1,566.7000000029802,747191.1000000015,7099,WL,A,2.0
7,6.663000106811523,immed,53336.99989318848,Fri Mar 07 2025 15:04:34 GMT-0600 (Central Standard Time),747923.3000000045,A,goldenter,O,enter,144,1,732.2000000029802,747191.1000000015,7099,WL,A,2.0
7,7.730999946594238,immed,52269.00005340576,Fri Mar 07 2025 15:04:34 GMT-0600 (Central Standard Time),748991.0,A,f,O,f,1052,1,1067.6000000014901,747923.3999999985,7099,WL,A,3.0
7,7.796000003814697,immed,52203.9999961853,Fri Mar 07 2025 15:04:34 GMT-0600 (Central Standard Time),749055.8000000045,A,fi,O,i,46,1,1132.4000000059605,747923.3999999985,7099,WL,A,3.0
7,7.865000009536743,immed,52134.99999046326,Fri Mar 07 2025 15:04:34 GMT-0600 (Central Standard Time),749124.5,A,fin,O,n,47,1,1201.1000000014901,747923.3999999985,7099,WL,A,3.0
7,7.947000026702881,immed,52052.99997329712,Fri Mar 07 2025 15:04:34 GMT-0600 (Central Standard Time),749206.5,A,fing,O,g,66,1,1283.1000000014901,747923.3999999985,7099,WL,A,3.0
7,8.082000017166138,immed,51917.99998283386,Fri Mar 07 2025 15:04:34 GMT-0600 (Central Standard Time),749341.700000003,A,finge,O,e,127,1,1418.3000000044703,747923.3999999985,7099,WL,A,3.0
7,8.111000061035156,immed,51888.999938964844,Fri Mar 07 2025 15:04:34 GMT-0600 (Central Standard Time),749371.3000000045,A,finger,O,r,16,1,1447.9000000059605,747923.3999999985,7099,WL,A,3.0
7,8.246999979019165,immed,51753.000020980835,Fri Mar 07 2025 15:04:34 GMT-0600 (Central Standard Time),749507.1000000015,A,fingerenter,O,enter,117,1,1583.7000000029802,747923.3999999985,7099,WL,A,3.0
7,8.54800009727478,immed,51451.99990272522,Fri Mar 07 2025 15:04:34 GMT-0600 (Central Standard Time),749807.5,A,l,O,l,285,1,300.1000000014901,749507.3999999985,7099,WL,A,4.0
7,8.681999921798706,immed,51318.000078201294,Fri Mar 07 2025 15:04:34 GMT-0600 (Central Standard Time),749941.3000000045,A,lo,O,o,128,1,433.90000000596046,749507.3999999985,7099,WL,A,4.0
7,8.763000011444092,immed,51236.99998855591,Fri Mar 07 2025 15:04:34 GMT-0600 (Central Standard Time),750022.6000000015,A,log,O,g,67,1,515.2000000029802,749507.3999999985,7099,WL,A,4.0
7,8.913000106811523,immed,51086.99989318848,Fri Mar 07 2025 15:04:34 GMT-0600 (Central Standard Time),750172.8999999985,A,logenter,O,enter,139,1,665.5,749507.3999999985,7099,WL,A,4.0
7,9.148000001907349,immed,50851.99999809265,Fri Mar 07 2025 15:04:34 GMT-0600 (Central Standard Time),750408.0,A,k,O,k,230,1,234.89999999850988,750173.1000000015,7099,WL,A,5.0
7,9.230999946594238,immed,50769.00005340576,Fri Mar 07 2025 15:04:34 GMT-0600 (Central Standard Time),750490.5,A,ke,O,e,64,1,317.3999999985099,750173.1000000015,7099,WL,A,5.0
7,9.345999956130981,immed,50654.00004386902,Fri Mar 07 2025 15:04:34 GMT-0600 (Central Standard Time),750606.200000003,A,key,O,y,101,1,433.1000000014901,750173.1000000015,7099,WL,A,5.0
7,9.663000106811523,immed,50336.99989318848,Fri Mar 07 2025 15:04:34 GMT-0600 (Central Standard Time),750922.3999999985,A,keyenter,O,enter,304,1,749.2999999970198,750173.1000000015,7099,WL,A,5.0
7,11.314000129699707,immed,48685.99987030029,Fri Mar 07 2025 15:04:34 GMT-0600 (Central Standard Time),752573.3999999985,A,m,O,m,1630,1,1650.6999999955297,750922.700000003,7099,WL,A,6.0
7,11.378000020980835,immed,48621.999979019165,Fri Mar 07 2025 15:04:34 GMT-0600 (Central Standard Time),752637.700000003,A,me,O,e,49,1,1715.0,750922.700000003,7099,WL,A,6.0
7,11.446000099182129,immed,48553.99990081787,Fri Mar 07 2025 15:04:34 GMT-0600 (Central Standard Time),752705.6000000015,A,mea,O,a,57,1,1782.8999999985099,750922.700000003,7099,WL,A,6.0
7,11.578999996185303,immed,48421.0000038147,Fri Mar 07 2025 15:04:34 GMT-0600 (Central Standard Time),752838.700000003,A,mead,O,d,116,1,1916.0,750922.700000003,7099,WL,A,6.0
7,11.680000066757202,immed,48319.9999332428,Fri Mar 07 2025 15:04:34 GMT-0600 (Central Standard Time),752939.5,A,meado,O,o,80,1,2016.7999999970198,750922.700000003,7099,WL,A,6.0
7,11.796000003814697,immed,48203.9999961853,Fri Mar 07 2025 15:04:34 GMT-0600 (Central Standard Time),753055.3000000045,A,meadow,O,w,100,1,2132.60000000149,750922.700000003,7099,WL,A,6.0
7,12.27999997138977,immed,47720.00002861023,Fri Mar 07 2025 15:04:34 GMT-0600 (Central Standard Time),753540.0,A,meadowenter,O,enter,462,1,2617.2999999970198,750922.700000003,7099,WL,A,6.0
7,12.61299991607666,immed,47387.00008392334,Fri Mar 07 2025 15:04:34 GMT-0600 (Central Standard Time),753872.5,A,c,O,c,324,1,332.29999999701977,753540.200000003,7099,WL,A,7.0
7,12.67799997329712,immed,47322.00002670288,Fri Mar 07 2025 15:04:34 GMT-0600 (Central Standard Time),753937.5,A,ch,O,h,46,1,397.29999999701977,753540.200000003,7099,WL,A,7.0
7,12.763000011444092,immed,47236.99998855591,Fri Mar 07 2025 15:04:34 GMT-0600 (Central Standard Time),754022.6000000015,A,chi,O,i,59,1,482.3999999985099,753540.200000003,7099,WL,A,7.0
7,12.913000106811523,immed,47086.99989318848,Fri Mar 07 2025 15:04:34 GMT-0600 (Central Standard Time),754172.8000000045,A,chim,O,m,137,1,632.6000000014901,753540.200000003,7099,WL,A,7.0
7,13.046000003814697,immed,46953.9999961853,Fri Mar 07 2025 15:04:34 GMT-0600 (Central Standard Time),754305.6000000015,A,chime,O,e,124,1,765.3999999985099,753540.200000003,7099,WL,A,7.0
7,13.864000082015991,immed,46135.99991798401,Fri Mar 07 2025 15:04:34 GMT-0600 (Central Standard Time),755123.3999999985,A,chimey,O,y,797,1,1583.1999999955297,753540.200000003,7099,WL,A,7.0
7,14.678999900817871,immed,45321.00009918213,Fri Mar 07 2025 15:04:34 GMT-0600 (Central Standard Time),755939.0,A,chime,O,backspace,796,1,2398.7999999970198,753540.200000003,7099,WL,A,7.0
7,14.811000108718872,immed,45188.99989128113,Fri Mar 07 2025 15:04:34 GMT-0600 (Central Standard Time),756070.8999999985,A,chim,O,backspace,117,1,2530.6999999955297,753540.200000003,7099,WL,A,7.0
7,15.078999996185303,immed,44921.0000038147,Fri Mar 07 2025 15:04:34 GMT-0600 (Central Standard Time),756338.8000000045,A,chimn,O,n,246,1,2798.60000000149,753540.200000003,7099,WL,A,7.0
7,15.194999933242798,immed,44805.0000667572,Fri Mar 07 2025 15:04:34 GMT-0600 (Central Standard Time),756455.200000003,A,chimne,O,e,101,1,2915.0,753540.200000003,7099,WL,A,7.0
7,15.276999950408936,immed,44723.000049591064,Fri Mar 07 2025 15:04:34 GMT-0600 (Central Standard Time),756537.200000003,A,chimney,O,y,72,1,2997.0,753540.200000003,7099,WL,A,7.0
7,15.378999948501587,immed,44621.00005149841,Fri Mar 07 2025 15:04:34 GMT-0600 (Central Standard Time),756638.700000003,A,chimneyenter,O,enter,96,1,3098.5,753540.200000003,7099,WL,A,7.0
7,16.24500012397766,immed,43754.99987602234,Fri Mar 07 2025 15:04:34 GMT-0600 (Central Standard Time),757504.6000000015,A,b,O,b,860,1,865.6000000014901,756639.0,7099,WL,A,8.0
7,16.32699990272522,immed,43673.00009727478,Fri Mar 07 2025 15:04:34 GMT-0600 (Central Standard Time),757586.3000000045,A,bu,O,u,70,1,947.3000000044703,756639.0,7099,WL,A,8.0
7,16.461999893188477,immed,43538.00010681152,Fri Mar 07 2025 15:04:34 GMT-0600 (Central Standard Time),757721.5,A,but,O,t,118,1,1082.5,756639.0,7099,WL,A,8.0
7,16.578999996185303,immed,43421.0000038147,Fri Mar 07 2025 15:04:34 GMT-0600 (Central Standard Time),757839.200000003,A,butt,O,t,110,1,1200.2000000029802,756639.0,7099,WL,A,8.0
7,16.677000045776367,immed,43322.99995422363,Fri Mar 07 2025 15:04:34 GMT-0600 (Central Standard Time),757937.200000003,A,butto,O,o,88,1,1298.2000000029802,756639.0,7099,WL,A,8.0
7,16.74500012397766,immed,43254.99987602234,Fri Mar 07 2025 15:04:34 GMT-0600 (Central Standard Time),758004.5,A,button,O,n,62,1,1365.5,756639.0,7099,WL,A,8.0
7,16.89400005340576,immed,43105.99994659424,Fri Mar 07 2025 15:04:34 GMT-0600 (Central Standard Time),758154.200000003,A,buttonenter,O,enter,130,1,1515.2000000029802,756639.0,7099,WL,A,8.0
7,17.17899990081787,immed,42821.00009918213,Fri Mar 07 2025 15:04:34 GMT-0600 (Central Standard Time),758438.700000003,A,h,O,h,279,1,284.20000000298023,758154.5,7099,WL,A,9.0
7,17.24399995803833,immed,42756.00004196167,Fri Mar 07 2025 15:04:34 GMT-0600 (Central Standard Time),758504.200000003,A,ha,O,a,47,1,349.70000000298023,758154.5,7099,WL,A,9.0
7,17.30999994277954,immed,42690.00005722046,Fri Mar 07 2025 15:04:34 GMT-0600 (Central Standard Time),758569.3999999985,A,har,O,r,46,1,414.8999999985099,758154.5,7099,WL,A,9.0
7,17.413000106811523,immed,42586.99989318848,Fri Mar 07 2025 15:04:34 GMT-0600 (Central Standard Time),758673.0,A,harp,O,p,94,1,518.5,758154.5,7099,WL,A,9.0
7,17.57699990272522,immed,42423.00009727478,Fri Mar 07 2025 15:04:34 GMT-0600 (Central Standard Time),758836.8999999985,A,harpenter,O,enter,158,1,682.3999999985099,758154.5,7099,WL,A,9.0
7,17.76099991798401,immed,42239.00008201599,Fri Mar 07 2025 15:04:34 GMT-0600 (Central Standard Time),759020.700000003,A,s,O,s,171,1,183.70000000298023,758837.0,7099,WL,A,10.0
7,17.844000101089478,immed,42155.99989891052,Fri Mar 07 2025 15:04:34 GMT-0600 (Central Standard Time),759103.5,A,sa,O,a,61,1,266.5,758837.0,7099,WL,A,10.0
7,17.89199995994568,immed,42108.00004005432,Fri Mar 07 2025 15:04:34 GMT-0600 (Central Standard Time),759152.1000000015,A,sal,O,l,36,1,315.1000000014901,758837.0,7099,WL,A,10.0
7,18.061000108718872,immed,41938.99989128113,Fri Mar 07 2025 15:04:34 GMT-0600 (Central Standard Time),759320.8000000045,A,salt,O,t,159,1,483.80000000447035,758837.0,7099,WL,A,10.0
7,18.30999994277954,immed,41690.00005722046,Fri Mar 07 2025 15:04:34 GMT-0600 (Central Standard Time),759569.6000000015,A,saltenter,O,enter,229,1,732.6000000014901,758837.0,7099,WL,A,10.0
7,25.625999927520752,immed,34374.00007247925,Fri Mar 07 2025 15:04:34 GMT-0600 (Central Standard Time),766885.8000000045,A,enter,O,enter,7294,1,7315.9000000059605,759569.8999999985,7099,WL,A,11.0
7,25.79100012779236,immed,34208.99987220764,Fri Mar 07 2025 15:04:34 GMT-0600 (Central Standard Time),767051.0,A,enter,O,enter,144,1,164.89999999850988,766886.1000000015,7099,WL,A,12.0
7,25.907000064849854,immed,34092.99993515015,Fri Mar 07 2025 15:04:34 GMT-0600 (Central Standard Time),767167.3000000045,A,enter,O,enter,108,1,116.10000000149012,767051.200000003,7099,WL,A,13.0
7,26.22499990463257,immed,33775.00009536743,Fri Mar 07 2025 15:04:34 GMT-0600 (Central Standard Time),767484.8999999985,A,enter,O,enter,304,1,317.29999999701977,767167.6000000015,7099,WL,A,14.0
7,26.54100012779236,immed,33458.99987220764,Fri Mar 07 2025 15:04:34 GMT-0600 (Central Standard Time),767800.8000000045,A,enter,O,enter,298,1,315.6000000014901,767485.200000003,7099,WL,A,15.0
