acc_sum,block,block_c,change,condition,correct,correct_response,datetime,endtime,face,project,response,response_time,row_sel,session_number,start_end,starttime,subject_id,task,task_vers,trial
0,prac,1,,1-Back,,,Mon Nov 04 2024 15:47:14 GMT-0600 (Central Standard Time),,005_o_f_d_a.png,O,space,9531,1,1,,,7035,VNB,B,0
0,prac,1,0.0,1-Back,0,m,Mon Nov 04 2024 15:47:14 GMT-0600 (Central Standard Time),133231.29999995232,020_y_f_n_a.png,O,z,1431,2,1,2316.5,130914.79999995232,7035,VNB,B,1
1,prac,1,0.0,1-Back,1,m,Mon Nov 04 2024 15:47:14 GMT-0600 (Central Standard Time),135747.40000009537,007_m_m_h_a.png,O,m,1511,3,1,2429.7000000476837,133317.70000004768,7035,VNB,B,2
2,prac,1,0.0,1-Back,1,m,Mon Nov 04 2024 15:47:14 GMT-0600 (Central Standard Time),137979.70000004768,016_y_m_d_a.png,O,m,1230,4,1,2141.2000000476837,135838.5,7035,VNB,B,3
3,prac,1,0.0,1-Back,1,m,Mon Nov 04 2024 15:47:14 GMT-0600 (Central Standard Time),140212.60000014305,005_o_f_n_a.png,O,m,1288,5,1,2204.7000000476837,138007.90000009537,7035,VNB,B,4
4,prac,1,1.0,1-Back,1,z,Mon Nov 04 2024 15:47:14 GMT-0600 (Central Standard Time),142345.40000009537,016_y_m_n_a.png,O,z,1128,6,1,2041.5,140303.90000009537,7035,VNB,B,5
5,prac,1,0.0,1-Back,1,m,Mon Nov 04 2024 15:47:14 GMT-0600 (Central Standard Time),144311.40000009537,004_o_m_h_a.png,O,m,1041,7,1,1940.9000000953674,142370.5,7035,VNB,B,6
6,prac,1,0.0,1-Back,1,m,Mon Nov 04 2024 15:47:14 GMT-0600 (Central Standard Time),146377.40000009537,011_m_f_d_a.png,O,m,1112,8,1,2032.5,144344.90000009537,7035,VNB,B,7
6,prac,1,1.0,1-Back,0,z,Mon Nov 04 2024 15:47:14 GMT-0600 (Central Standard Time),148226.20000004768,020_y_f_d_a.png,O,m,910,9,1,1810.5,146415.70000004768,7035,VNB,B,8
6,prac,1,0.0,1-Back,0,m,Mon Nov 04 2024 15:47:14 GMT-0600 (Central Standard Time),151208.5,007_m_m_n_a.png,O,None,2002,10,1,2903.2000000476837,148305.29999995232,7035,VNB,B,9
7,prac,1,0.0,1-Back,1,m,Mon Nov 04 2024 15:47:14 GMT-0600 (Central Standard Time),153259.70000004768,005_o_f_h_a.png,O,m,1105,11,1,2016.2000000476837,151243.5,7035,VNB,B,10
8,prac,1,0.0,1-Back,1,m,Mon Nov 04 2024 15:47:14 GMT-0600 (Central Standard Time),155506.29999995232,016_y_m_d_a.png,O,m,1245,12,1,2162.399999856949,153343.90000009537,7035,VNB,B,11
0,test,1,0.0,1-Back,,,Mon Nov 04 2024 15:47:14 GMT-0600 (Central Standard Time),155506.29999995232,020_y_f_d_a.png,O,space,9459,1,1,2162.399999856949,153343.90000009537,7035,VNB,B,0
1,test,1,0.0,1-Back,1,m,Mon Nov 04 2024 15:47:14 GMT-0600 (Central Standard Time),176000.70000004768,011_m_f_n_a.png,O,m,1282,2,1,2292.9000000953674,173707.79999995232,7035,VNB,B,1
2,test,1,0.0,1-Back,1,m,Mon Nov 04 2024 15:47:14 GMT-0600 (Central Standard Time),177916.5,004_o_m_h_a.png,O,m,811,3,1,1832.2000000476837,176084.29999995232,7035,VNB,B,2
3,test,1,1.0,1-Back,1,z,Mon Nov 04 2024 15:47:14 GMT-0600 (Central Standard Time),179799.10000014305,007_m_m_h_a.png,O,z,775,4,1,1855.6000001430511,177943.5,7035,VNB,B,3
4,test,1,0.0,1-Back,1,m,Mon Nov 04 2024 15:47:14 GMT-0600 (Central Standard Time),181665.29999995232,005_o_f_n_a.png,O,m,764,5,1,1774.0999999046326,179891.20000004768,7035,VNB,B,4
5,test,1,0.0,1-Back,1,m,Mon Nov 04 2024 15:47:14 GMT-0600 (Central Standard Time),183514.29999995232,016_y_m_d_a.png,O,m,746,6,1,1760.5,181753.79999995232,7035,VNB,B,5
6,test,1,1.0,1-Back,1,z,Mon Nov 04 2024 15:47:14 GMT-0600 (Central Standard Time),185697.0,011_m_f_d_a.png,O,z,1073,7,1,2087.0999999046326,183609.90000009537,7035,VNB,B,6
7,test,1,0.0,1-Back,1,m,Mon Nov 04 2024 15:47:14 GMT-0600 (Central Standard Time),187713.0,020_y_f_h_a.png,O,m,907,8,1,1928.0,185785.0,7035,VNB,B,7
7,test,1,0.0,1-Back,0,m,Mon Nov 04 2024 15:47:14 GMT-0600 (Central Standard Time),189812.40000009537,004_o_m_n_a.png,O,z,994,9,1,2004.1000001430511,187808.29999995232,7035,VNB,B,8
8,test,1,0.0,1-Back,1,m,Mon Nov 04 2024 15:47:14 GMT-0600 (Central Standard Time),192311.5,016_y_m_h_a.png,O,m,1391,10,1,2469.7000000476837,189841.79999995232,7035,VNB,B,9
9,test,1,0.0,1-Back,1,m,Mon Nov 04 2024 15:47:14 GMT-0600 (Central Standard Time),194394.10000014305,004_o_m_d_a.png,O,m,980,11,1,1987.3000001907349,192406.79999995232,7035,VNB,B,10
10,test,1,1.0,1-Back,1,z,Mon Nov 04 2024 15:47:14 GMT-0600 (Central Standard Time),196576.79999995232,005_o_f_d_a.png,O,z,1098,12,1,2101.0999999046326,194475.70000004768,7035,VNB,B,11
11,test,1,0.0,1-Back,1,m,Mon Nov 04 2024 15:47:14 GMT-0600 (Central Standard Time),198659.29999995232,007_m_m_n_a.png,O,m,979,13,1,2054.5,196604.79999995232,7035,VNB,B,12
12,test,1,1.0,1-Back,1,z,Mon Nov 04 2024 15:47:14 GMT-0600 (Central Standard Time),200809.10000014305,020_y_f_n_a.png,O,z,1031,14,1,2121.300000190735,198687.79999995232,7035,VNB,B,13
13,test,1,0.0,1-Back,1,m,Mon Nov 04 2024 15:47:14 GMT-0600 (Central Standard Time),202774.79999995232,011_m_f_h_a.png,O,m,860,15,1,1941.5999999046326,200833.20000004768,7035,VNB,B,14
14,test,1,0.0,1-Back,1,m,Mon Nov 04 2024 15:47:14 GMT-0600 (Central Standard Time),204925.29999995232,007_m_m_d_a.png,O,m,1050,16,1,2052.5,202872.79999995232,7035,VNB,B,15
15,test,1,0.0,1-Back,1,m,Mon Nov 04 2024 15:47:14 GMT-0600 (Central Standard Time),206822.70000004768,016_y_m_n_a.png,O,m,875,17,1,1892.9000000953674,204929.79999995232,7035,VNB,B,16
16,test,1,0.0,1-Back,1,m,Mon Nov 04 2024 15:47:14 GMT-0600 (Central Standard Time),208689.40000009537,005_o_f_h_a.png,O,m,847,18,1,1853.5,206835.90000009537,7035,VNB,B,17
0,test,2,0.0,1-Back,,,Mon Nov 04 2024 15:47:14 GMT-0600 (Central Standard Time),208689.40000009537,016_y_m_n_a.png,O,space,1493,1,1,1853.5,206835.90000009537,7035,VNB,B,0
1,test,2,0.0,1-Back,1,m,Mon Nov 04 2024 15:47:14 GMT-0600 (Central Standard Time),214138.0,020_y_f_h_a.png,O,m,889,2,1,1904.0,212234.0,7035,VNB,B,1
2,test,2,1.0,1-Back,1,m,Mon Nov 04 2024 15:47:14 GMT-0600 (Central Standard Time),215952.79999995232,004_o_m_n_a.png,O,m,770,3,1,1787.7999999523163,214165.0,7035,VNB,B,2
3,test,2,0.0,1-Back,1,m,Mon Nov 04 2024 15:47:14 GMT-0600 (Central Standard Time),218002.90000009537,011_m_f_d_a.png,O,m,1021,4,1,2045.4000000953674,215957.5,7035,VNB,B,3
4,test,2,0.0,1-Back,1,z,Mon Nov 04 2024 15:47:14 GMT-0600 (Central Standard Time),219785.79999995232,007_m_m_d_a.png,O,z,730,5,1,1752.3999998569489,218033.40000009537,7035,VNB,B,4
5,test,2,0.0,1-Back,1,m,Mon Nov 04 2024 15:47:14 GMT-0600 (Central Standard Time),221601.90000009537,016_y_m_h_a.png,O,m,714,6,1,1725.7999999523163,219876.10000014305,7035,VNB,B,5
6,test,2,1.0,1-Back,1,z,Mon Nov 04 2024 15:47:14 GMT-0600 (Central Standard Time),223784.60000014305,005_o_f_h_a.png,O,z,1073,7,1,2090.7000000476837,221693.90000009537,7035,VNB,B,6
7,test,2,0.0,1-Back,1,m,Mon Nov 04 2024 15:47:14 GMT-0600 (Central Standard Time),225700.5,011_m_f_n_a.png,O,m,786,8,1,1887.7999999523163,223812.70000004768,7035,VNB,B,7
8,test,2,0.0,1-Back,1,m,Mon Nov 04 2024 15:47:14 GMT-0600 (Central Standard Time),227816.79999995232,020_y_f_d_a.png,O,m,990,9,1,2016.0999999046326,225800.70000004768,7035,VNB,B,8
9,test,2,0.0,1-Back,1,m,Mon Nov 04 2024 15:47:14 GMT-0600 (Central Standard Time),229865.90000009537,007_m_m_n_a.png,O,m,939,10,1,1961.4000000953674,227904.5,7035,VNB,B,9
10,test,2,1.0,1-Back,1,m,Mon Nov 04 2024 15:47:14 GMT-0600 (Central Standard Time),231931.79999995232,011_m_f_h_a.png,O,m,961,11,1,1975.1999998092651,229956.60000014305,7035,VNB,B,10
11,test,2,0.0,1-Back,1,z,Mon Nov 04 2024 15:47:14 GMT-0600 (Central Standard Time),233797.79999995232,004_o_m_h_a.png,O,z,761,12,1,1777.0,232020.79999995232,7035,VNB,B,11
12,test,2,0.0,1-Back,1,m,Mon Nov 04 2024 15:47:14 GMT-0600 (Central Standard Time),235647.40000009537,016_y_m_d_a.png,O,m,741,13,1,1825.5,233821.90000009537,7035,VNB,B,12
13,test,2,0.0,1-Back,1,m,Mon Nov 04 2024 15:47:14 GMT-0600 (Central Standard Time),237513.20000004768,005_o_f_n_a.png,O,m,831,14,1,1846.2999999523163,235666.90000009537,7035,VNB,B,13
14,test,2,0.0,1-Back,1,z,Mon Nov 04 2024 15:47:14 GMT-0600 (Central Standard Time),239396.0,020_y_f_n_a.png,O,z,780,15,1,1793.0,237603.0,7035,VNB,B,14
15,test,2,1.0,1-Back,1,m,Mon Nov 04 2024 15:47:14 GMT-0600 (Central Standard Time),241145.10000014305,007_m_m_h_a.png,O,m,655,16,1,1726.7000000476837,239418.40000009537,7035,VNB,B,15
16,test,2,0.0,1-Back,1,m,Mon Nov 04 2024 15:47:14 GMT-0600 (Central Standard Time),243078.10000014305,005_o_f_d_a.png,O,m,843,17,1,1918.1000001430511,241160.0,7035,VNB,B,16
17,test,2,1.0,1-Back,1,z,Mon Nov 04 2024 15:47:14 GMT-0600 (Central Standard Time),244827.60000014305,004_o_m_d_a.png,O,z,647,18,1,1659.8000001907349,243167.79999995232,7035,VNB,B,17
0,test,3,1.0,1-Back,,,Mon Nov 04 2024 15:47:14 GMT-0600 (Central Standard Time),244827.60000014305,005_o_f_h_a.png,O,space,1106,1,1,1659.8000001907349,243167.79999995232,7035,VNB,B,0
1,test,3,0.0,1-Back,1,m,Mon Nov 04 2024 15:47:14 GMT-0600 (Central Standard Time),249992.70000004768,011_m_f_d_a.png,O,m,757,2,1,1852.0,248140.70000004768,7035,VNB,B,1
1,test,3,1.0,1-Back,0,m,Mon Nov 04 2024 15:47:14 GMT-0600 (Central Standard Time),252075.20000004768,007_m_m_n_a.png,O,z,979,3,1,2054.7000000476837,250020.5,7035,VNB,B,2
2,test,3,0.0,1-Back,1,z,Mon Nov 04 2024 15:47:14 GMT-0600 (Central Standard Time),254657.60000014305,005_o_f_n_a.png,O,z,1464,4,1,2477.9000000953674,252179.70000004768,7035,VNB,B,3
3,test,3,1.0,1-Back,1,m,Mon Nov 04 2024 15:47:14 GMT-0600 (Central Standard Time),256473.60000014305,004_o_m_d_a.png,O,m,714,5,1,1784.8000001907349,254688.79999995232,7035,VNB,B,4
4,test,3,0.0,1-Back,1,m,Mon Nov 04 2024 15:47:14 GMT-0600 (Central Standard Time),258423.10000014305,020_y_f_h_a.png,O,m,834,6,1,1864.2000000476837,256558.90000009537,7035,VNB,B,5
5,test,3,0.0,1-Back,1,z,Mon Nov 04 2024 15:47:14 GMT-0600 (Central Standard Time),260255.90000009537,016_y_m_h_a.png,O,z,716,7,1,1747.0,258508.90000009537,7035,VNB,B,6
6,test,3,0.0,1-Back,1,m,Mon Nov 04 2024 15:47:14 GMT-0600 (Central Standard Time),262089.10000014305,011_m_f_n_a.png,O,m,732,8,1,1745.7000000476837,260343.40000009537,7035,VNB,B,7
7,test,3,0.0,1-Back,1,m,Mon Nov 04 2024 15:47:14 GMT-0600 (Central Standard Time),264054.7999999523,020_y_f_d_a.png,O,m,859,9,1,1880.5,262174.2999999523,7035,VNB,B,8
8,test,3,1.0,1-Back,1,m,Mon Nov 04 2024 15:47:14 GMT-0600 (Central Standard Time),266270.40000009537,004_o_m_n_a.png,O,m,1109,10,1,2118.9000000953674,264151.5,7035,VNB,B,9
9,test,3,0.0,1-Back,1,m,Mon Nov 04 2024 15:47:14 GMT-0600 (Central Standard Time),268229.5,007_m_m_h_a.png,O,m,858,11,1,1860.7999999523163,266368.7000000477,7035,VNB,B,10
10,test,3,0.0,1-Back,1,z,Mon Nov 04 2024 15:47:14 GMT-0600 (Central Standard Time),270136.0,011_m_f_h_a.png,O,z,874,12,1,1893.7000000476837,268242.2999999523,7035,VNB,B,11
11,test,3,1.0,1-Back,1,m,Mon Nov 04 2024 15:47:14 GMT-0600 (Central Standard Time),272018.7000000477,005_o_f_d_a.png,O,m,756,13,1,1854.5,270164.2000000477,7035,VNB,B,12
12,test,3,0.0,1-Back,1,z,Mon Nov 04 2024 15:47:14 GMT-0600 (Central Standard Time),273901.2000000477,007_m_m_d_a.png,O,z,768,14,1,1791.7000000476837,272109.5,7035,VNB,B,13
13,test,3,0.0,1-Back,1,m,Mon Nov 04 2024 15:47:14 GMT-0600 (Central Standard Time),275684.2000000477,016_y_m_n_a.png,O,m,678,15,1,1697.0999999046326,273987.10000014305,7035,VNB,B,14
14,test,3,1.0,1-Back,1,m,Mon Nov 04 2024 15:47:14 GMT-0600 (Central Standard Time),277700.60000014305,004_o_m_h_a.png,O,m,919,16,1,1995.5,275705.10000014305,7035,VNB,B,15
15,test,3,0.0,1-Back,1,m,Mon Nov 04 2024 15:47:14 GMT-0600 (Central Standard Time),279566.5,016_y_m_d_a.png,O,m,760,17,1,1833.0999999046326,277733.40000009537,7035,VNB,B,16
16,test,3,1.0,1-Back,1,m,Mon Nov 04 2024 15:47:14 GMT-0600 (Central Standard Time),281432.40000009537,020_y_f_n_a.png,O,m,749,18,1,1837.0,279595.40000009537,7035,VNB,B,17
0,test,4,1.0,1-Back,,,Mon Nov 04 2024 15:47:14 GMT-0600 (Central Standard Time),281432.40000009537,007_m_m_d_a.png,O,space,1069,1,1,1837.0,279595.40000009537,7035,VNB,B,0
1,test,4,0.0,1-Back,1,z,Mon Nov 04 2024 15:47:14 GMT-0600 (Central Standard Time),286913.40000009537,004_o_m_d_a.png,O,z,1214,2,1,2218.9000000953674,284694.5,7035,VNB,B,1
2,test,4,0.0,1-Back,1,m,Mon Nov 04 2024 15:47:14 GMT-0600 (Central Standard Time),288679.90000009537,016_y_m_h_a.png,O,m,724,3,1,1739.6000001430511,286940.2999999523,7035,VNB,B,2
3,test,4,0.0,1-Back,1,m,Mon Nov 04 2024 15:47:14 GMT-0600 (Central Standard Time),290479.2999999523,011_m_f_n_a.png,O,m,684,4,1,1701.2999999523163,288778.0,7035,VNB,B,3
3,test,4,1.0,1-Back,0,m,Mon Nov 04 2024 15:47:14 GMT-0600 (Central Standard Time),292578.5,005_o_f_h_a.png,O,z,988,5,1,2070.5999999046326,290507.90000009537,7035,VNB,B,4
4,test,4,0.0,1-Back,1,m,Mon Nov 04 2024 15:47:14 GMT-0600 (Central Standard Time),295294.60000014305,007_m_m_n_a.png,O,m,1609,6,1,2686.100000143051,292608.5,7035,VNB,B,5
5,test,4,0.0,1-Back,1,m,Mon Nov 04 2024 15:47:14 GMT-0600 (Central Standard Time),297410.2999999523,016_y_m_d_a.png,O,m,1022,7,1,2034.1999998092651,295376.10000014305,7035,VNB,B,6
6,test,4,1.0,1-Back,1,z,Mon Nov 04 2024 15:47:14 GMT-0600 (Central Standard Time),299343.0,020_y_f_d_a.png,O,z,892,8,1,1908.8999998569489,297434.10000014305,7035,VNB,B,7
7,test,4,0.0,1-Back,1,m,Mon Nov 04 2024 15:47:14 GMT-0600 (Central Standard Time),301392.40000009537,011_m_f_h_a.png,O,m,932,9,1,2021.2999999523163,299371.10000014305,7035,VNB,B,8
8,test,4,0.0,1-Back,1,z,Mon Nov 04 2024 15:47:14 GMT-0600 (Central Standard Time),303208.2999999523,004_o_m_h_a.png,O,z,766,10,1,1796.7999999523163,301411.5,7035,VNB,B,9
9,test,4,1.0,1-Back,1,m,Mon Nov 04 2024 15:47:14 GMT-0600 (Central Standard Time),304924.5,005_o_f_n_a.png,O,m,661,11,1,1679.2000000476837,303245.2999999523,7035,VNB,B,10
10,test,4,0.0,1-Back,1,m,Mon Nov 04 2024 15:47:14 GMT-0600 (Central Standard Time),307290.0,011_m_f_d_a.png,O,m,1265,12,1,2340.2000000476837,304949.7999999523,7035,VNB,B,11
11,test,4,0.0,1-Back,1,m,Mon Nov 04 2024 15:47:14 GMT-0600 (Central Standard Time),309473.2000000477,020_y_f_n_a.png,O,m,1090,13,1,2113.2999999523163,307359.90000009537,7035,VNB,B,12
12,test,4,0.0,1-Back,1,m,Mon Nov 04 2024 15:47:14 GMT-0600 (Central Standard Time),311788.90000009537,005_o_f_d_a.png,O,m,1211,14,1,2289.0,309499.90000009537,7035,VNB,B,13
13,test,4,0.0,1-Back,1,m,Mon Nov 04 2024 15:47:14 GMT-0600 (Central Standard Time),313721.60000014305,020_y_f_h_a.png,O,m,840,15,1,1851.8000001907349,311869.7999999523,7035,VNB,B,14
14,test,4,1.0,1-Back,1,z,Mon Nov 04 2024 15:47:14 GMT-0600 (Central Standard Time),315804.2999999523,007_m_m_h_a.png,O,z,970,16,1,1989.2999999523163,313815.0,7035,VNB,B,15
15,test,4,0.0,1-Back,1,m,Mon Nov 04 2024 15:47:14 GMT-0600 (Central Standard Time),317770.2000000477,004_o_m_n_a.png,O,m,856,17,1,1941.2999999523163,315828.90000009537,7035,VNB,B,16
16,test,4,1.0,1-Back,1,z,Mon Nov 04 2024 15:47:14 GMT-0600 (Central Standard Time),319736.90000009537,016_y_m_n_a.png,O,z,865,18,1,1938.7000000476837,317798.2000000477,7035,VNB,B,17
0,test,5,1.0,1-Back,,,Mon Nov 04 2024 15:47:14 GMT-0600 (Central Standard Time),319736.90000009537,004_o_m_n_a.png,O,space,1165,1,1,1938.7000000476837,317798.2000000477,7035,VNB,B,0
1,test,5,1.0,1-Back,1,m,Mon Nov 04 2024 15:47:14 GMT-0600 (Central Standard Time),324817.7999999523,005_o_f_h_a.png,O,m,847,2,1,1853.1999998092651,322964.60000014305,7035,VNB,B,1
2,test,5,0.0,1-Back,1,m,Mon Nov 04 2024 15:47:14 GMT-0600 (Central Standard Time),326684.0,016_y_m_d_a.png,O,m,820,3,1,1838.2000000476837,324845.7999999523,7035,VNB,B,2
3,test,5,0.0,1-Back,1,z,Mon Nov 04 2024 15:47:14 GMT-0600 (Central Standard Time),328550.2999999523,004_o_m_d_a.png,O,z,753,4,1,1837.5999999046326,326712.7000000477,7035,VNB,B,3
4,test,5,0.0,1-Back,1,m,Mon Nov 04 2024 15:47:14 GMT-0600 (Central Standard Time),330633.2999999523,011_m_f_h_a.png,O,m,983,5,1,1996.1999998092651,328637.10000014305,7035,VNB,B,4
5,test,5,0.0,1-Back,1,m,Mon Nov 04 2024 15:47:14 GMT-0600 (Central Standard Time),332548.7999999523,020_y_f_n_a.png,O,m,794,6,1,1816.0,330732.7999999523,7035,VNB,B,5
6,test,5,1.0,1-Back,1,z,Mon Nov 04 2024 15:47:14 GMT-0600 (Central Standard Time),334598.10000014305,005_o_f_n_a.png,O,z,942,7,1,2025.9000000953674,332572.2000000477,7035,VNB,B,6
7,test,5,0.0,1-Back,1,m,Mon Nov 04 2024 15:47:14 GMT-0600 (Central Standard Time),336864.2999999523,011_m_f_d_a.png,O,m,1149,8,1,2171.5,334692.7999999523,7035,VNB,B,7
8,test,5,0.0,1-Back,1,m,Mon Nov 04 2024 15:47:14 GMT-0600 (Central Standard Time),338779.90000009537,016_y_m_h_a.png,O,m,812,9,1,1829.2000000476837,336950.7000000477,7035,VNB,B,8
9,test,5,0.0,1-Back,1,m,Mon Nov 04 2024 15:47:14 GMT-0600 (Central Standard Time),340779.60000014305,020_y_f_d_a.png,O,m,888,10,1,1909.1000001430511,338870.5,7035,VNB,B,9
10,test,5,0.0,1-Back,1,m,Mon Nov 04 2024 15:47:14 GMT-0600 (Central Standard Time),342562.10000014305,007_m_m_n_a.png,O,m,739,11,1,1759.2000000476837,340802.90000009537,7035,VNB,B,10
11,test,5,1.0,1-Back,1,z,Mon Nov 04 2024 15:47:14 GMT-0600 (Central Standard Time),344544.7000000477,011_m_f_n_a.png,O,z,948,12,1,1958.0999999046326,342586.60000014305,7035,VNB,B,11
12,test,5,0.0,1-Back,1,m,Mon Nov 04 2024 15:47:14 GMT-0600 (Central Standard Time),346511.0,004_o_m_h_a.png,O,m,919,13,1,1943.7999999523163,344567.2000000477,7035,VNB,B,12
13,test,5,0.0,1-Back,1,z,Mon Nov 04 2024 15:47:14 GMT-0600 (Central Standard Time),348343.60000014305,007_m_m_h_a.png,O,z,791,14,1,1802.4000000953674,346541.2000000477,7035,VNB,B,13
14,test,5,1.0,1-Back,1,m,Mon Nov 04 2024 15:47:14 GMT-0600 (Central Standard Time),350209.60000014305,005_o_f_d_a.png,O,m,756,15,1,1838.8000001907349,348370.7999999523,7035,VNB,B,14
15,test,5,0.0,1-Back,1,m,Mon Nov 04 2024 15:47:14 GMT-0600 (Central Standard Time),352308.7999999523,016_y_m_n_a.png,O,m,986,16,1,2011.0,350297.7999999523,7035,VNB,B,15
16,test,5,0.0,1-Back,1,m,Mon Nov 04 2024 15:47:14 GMT-0600 (Central Standard Time),354724.90000009537,020_y_f_h_a.png,O,m,1311,17,1,2325.9000000953674,352399.0,7035,VNB,B,16
17,test,5,0.0,1-Back,1,m,Mon Nov 04 2024 15:47:14 GMT-0600 (Central Standard Time),356807.60000014305,007_m_m_d_a.png,O,m,975,18,1,1984.8000001907349,354822.7999999523,7035,VNB,B,17
0,prac,1,0.0,2-Back,,,Mon Nov 04 2024 15:47:14 GMT-0600 (Central Standard Time),356807.60000014305,011_m_f_n_a.png,O,space,10434,1,1,1984.8000001907349,354822.7999999523,7035,VNB,B,0
0,prac,1,0.0,2-Back,,,Mon Nov 04 2024 15:47:14 GMT-0600 (Central Standard Time),356807.60000014305,005_o_f_h_a.png,O,space,10434,2,1,1984.8000001907349,354822.7999999523,7035,VNB,B,0
1,prac,1,0.0,2-Back,1,m,Mon Nov 04 2024 15:47:14 GMT-0600 (Central Standard Time),456523.7999999523,004_o_m_d_a.png,O,m,1337,3,1,2257.5,454266.2999999523,7035,VNB,B,1
1,prac,1,1.0,2-Back,0,z,Mon Nov 04 2024 15:47:14 GMT-0600 (Central Standard Time),458857.7000000477,007_m_m_h_a.png,O,m,1287,4,1,2238.0,456619.7000000477,7035,VNB,B,2
1,prac,1,0.0,2-Back,0,m,Mon Nov 04 2024 15:47:14 GMT-0600 (Central Standard Time),461306.5,020_y_f_n_a.png,O,z,1528,5,1,2429.899999856949,458876.60000014305,7035,VNB,B,3
2,prac,1,1.0,2-Back,1,z,Mon Nov 04 2024 15:47:14 GMT-0600 (Central Standard Time),463654.7999999523,004_o_m_h_a.png,O,z,1410,6,1,2305.5,461349.2999999523,7035,VNB,B,4
3,prac,1,1.0,2-Back,1,z,Mon Nov 04 2024 15:47:14 GMT-0600 (Central Standard Time),466138.7000000477,016_y_m_n_a.png,O,z,1537,7,1,2474.7000000476837,463664.0,7035,VNB,B,5
3,prac,1,0.0,2-Back,0,m,Mon Nov 04 2024 15:47:14 GMT-0600 (Central Standard Time),468504.10000014305,011_m_f_d_a.png,O,z,1400,8,1,2322.800000190735,466181.2999999523,7035,VNB,B,6
4,prac,1,0.0,2-Back,1,m,Mon Nov 04 2024 15:47:14 GMT-0600 (Central Standard Time),470820.2999999523,005_o_f_d_a.png,O,m,1288,9,1,2212.5,468607.7999999523,7035,VNB,B,7
4,prac,1,0.0,2-Back,0,m,Mon Nov 04 2024 15:47:14 GMT-0600 (Central Standard Time),473052.2999999523,007_m_m_h_a.png,O,z,1189,10,1,2125.199999809265,470927.10000014305,7035,VNB,B,8
5,prac,1,1.0,2-Back,1,z,Mon Nov 04 2024 15:47:14 GMT-0600 (Central Standard Time),475518.60000014305,020_y_f_d_a.png,O,z,1526,11,1,2440.100000143051,473078.5,7035,VNB,B,9
6,prac,1,0.0,2-Back,1,m,Mon Nov 04 2024 15:47:14 GMT-0600 (Central Standard Time),478034.5,004_o_m_n_a.png,O,m,1531,12,1,2421.0999999046326,475613.40000009537,7035,VNB,B,10
0,prac,2,0.0,2-Back,,,Mon Nov 04 2024 15:47:14 GMT-0600 (Central Standard Time),478034.5,011_m_f_n_a.png,O,a,5669,1,1,2421.0999999046326,475613.40000009537,7035,VNB,B,0
0,prac,2,0.0,2-Back,,,Mon Nov 04 2024 15:47:14 GMT-0600 (Central Standard Time),478034.5,005_o_f_h_a.png,O,a,5669,2,1,2421.0999999046326,475613.40000009537,7035,VNB,B,0
1,prac,2,0.0,2-Back,1,m,Mon Nov 04 2024 15:47:14 GMT-0600 (Central Standard Time),491312.2000000477,004_o_m_d_a.png,O,m,1289,3,1,2187.5,489124.7000000477,7035,VNB,B,1
2,prac,2,1.0,2-Back,1,z,Mon Nov 04 2024 15:47:14 GMT-0600 (Central Standard Time),493412.7999999523,007_m_m_h_a.png,O,z,1165,4,1,2093.0999999046326,491319.7000000477,7035,VNB,B,2
2,prac,2,0.0,2-Back,0,m,Mon Nov 04 2024 15:47:14 GMT-0600 (Central Standard Time),496095.2000000477,020_y_f_n_a.png,O,z,1716,5,1,2596.2999999523163,493498.90000009537,7035,VNB,B,3
3,prac,2,1.0,2-Back,1,z,Mon Nov 04 2024 15:47:14 GMT-0600 (Central Standard Time),498277.7999999523,004_o_m_h_a.png,O,z,1239,6,1,2142.399999856949,496135.40000009537,7035,VNB,B,4
4,prac,2,1.0,2-Back,1,z,Mon Nov 04 2024 15:47:14 GMT-0600 (Central Standard Time),500760.40000009537,016_y_m_n_a.png,O,z,1533,7,1,2454.7999999523163,498305.60000014305,7035,VNB,B,5
5,prac,2,0.0,2-Back,1,m,Mon Nov 04 2024 15:47:14 GMT-0600 (Central Standard Time),503326.10000014305,011_m_f_d_a.png,O,m,1558,8,1,2460.2000000476837,500865.90000009537,7035,VNB,B,6
5,prac,2,0.0,2-Back,0,m,Mon Nov 04 2024 15:47:14 GMT-0600 (Central Standard Time),505808.7999999523,005_o_f_d_a.png,O,z,1486,9,1,2394.399999856949,503414.40000009537,7035,VNB,B,7
5,prac,2,0.0,2-Back,0,m,Mon Nov 04 2024 15:47:14 GMT-0600 (Central Standard Time),507841.0,007_m_m_h_a.png,O,z,1228,10,1,1997.3999998569489,505843.60000014305,7035,VNB,B,8
6,prac,2,1.0,2-Back,1,z,Mon Nov 04 2024 15:47:14 GMT-0600 (Central Standard Time),510240.40000009537,020_y_f_d_a.png,O,z,1455,11,1,2363.7000000476837,507876.7000000477,7035,VNB,B,9
7,prac,2,0.0,2-Back,1,m,Mon Nov 04 2024 15:47:14 GMT-0600 (Central Standard Time),512256.5,004_o_m_n_a.png,O,m,1083,12,1,1980.7000000476837,510275.7999999523,7035,VNB,B,10
0,test,1,0.0,2-Back,,,Mon Nov 04 2024 15:47:14 GMT-0600 (Central Standard Time),512256.5,016_y_m_h_a.png,O,space,11030,1,1,1980.7000000476837,510275.7999999523,7035,VNB,B,0
0,test,1,0.0,2-Back,,,Mon Nov 04 2024 15:47:14 GMT-0600 (Central Standard Time),512256.5,005_o_f_n_a.png,O,space,11030,2,1,1980.7000000476837,510275.7999999523,7035,VNB,B,0
1,test,1,0.0,2-Back,1,z,Mon Nov 04 2024 15:47:14 GMT-0600 (Central Standard Time),537714.7999999523,004_o_m_h_a.png,O,z,1496,3,1,2512.399999856949,535202.4000000954,7035,VNB,B,1
2,test,1,0.0,2-Back,1,m,Mon Nov 04 2024 15:47:14 GMT-0600 (Central Standard Time),540214.0,011_m_f_d_a.png,O,m,1453,4,1,2470.899999856949,537743.100000143,7035,VNB,B,2
2,test,1,1.0,2-Back,0,m,Mon Nov 04 2024 15:47:14 GMT-0600 (Central Standard Time),542796.5,016_y_m_n_a.png,O,z,1470,5,1,2488.2000000476837,540308.2999999523,7035,VNB,B,3
2,test,1,0.0,2-Back,0,z,Mon Nov 04 2024 15:47:14 GMT-0600 (Central Standard Time),544928.7999999523,020_y_f_d_a.png,O,m,1033,6,1,2048.699999809265,542880.100000143,7035,VNB,B,4
3,test,1,0.0,2-Back,1,m,Mon Nov 04 2024 15:47:14 GMT-0600 (Central Standard Time),547377.9000000954,007_m_m_h_a.png,O,m,1363,7,1,2367.7999999523163,545010.100000143,7035,VNB,B,5
4,test,1,1.0,2-Back,1,m,Mon Nov 04 2024 15:47:14 GMT-0600 (Central Standard Time),549744.0,020_y_f_n_a.png,O,m,1318,8,1,2347.5,547396.5,7035,VNB,B,6
5,test,1,0.0,2-Back,1,z,Mon Nov 04 2024 15:47:14 GMT-0600 (Central Standard Time),551609.7000000477,005_o_f_h_a.png,O,z,830,9,1,1847.5,549762.2000000477,7035,VNB,B,7
6,test,1,0.0,2-Back,1,m,Mon Nov 04 2024 15:47:14 GMT-0600 (Central Standard Time),553942.7999999523,004_o_m_d_a.png,O,m,1284,10,1,2306.899999856949,551635.9000000954,7035,VNB,B,8
6,test,1,1.0,2-Back,0,m,Mon Nov 04 2024 15:47:14 GMT-0600 (Central Standard Time),556124.7999999523,007_m_m_d_a.png,O,z,1069,11,1,2087.899999856949,554036.9000000954,7035,VNB,B,9
7,test,1,0.0,2-Back,1,m,Mon Nov 04 2024 15:47:14 GMT-0600 (Central Standard Time),558374.5,011_m_f_n_a.png,O,m,1209,12,1,2224.2999999523163,556150.2000000477,7035,VNB,B,10
7,test,1,0.0,2-Back,0,m,Mon Nov 04 2024 15:47:14 GMT-0600 (Central Standard Time),560840.2000000477,020_y_f_h_a.png,O,z,1333,13,1,2366.5999999046326,558473.600000143,7035,VNB,B,11
7,test,1,0.0,2-Back,0,z,Mon Nov 04 2024 15:47:14 GMT-0600 (Central Standard Time),563389.100000143,007_m_m_n_a.png,O,m,1435,14,1,2453.9000000953674,560935.2000000477,7035,VNB,B,12
8,test,1,0.0,2-Back,1,m,Mon Nov 04 2024 15:47:14 GMT-0600 (Central Standard Time),566038.7999999523,016_y_m_d_a.png,O,m,1551,15,1,2632.699999809265,563406.100000143,7035,VNB,B,13
8,test,1,1.0,2-Back,0,m,Mon Nov 04 2024 15:47:14 GMT-0600 (Central Standard Time),568887.7000000477,011_m_f_h_a.png,O,z,1808,16,1,2820.7000000476837,566067.0,7035,VNB,B,14
9,test,1,0.0,2-Back,1,z,Mon Nov 04 2024 15:47:14 GMT-0600 (Central Standard Time),571586.9000000954,005_o_f_d_a.png,O,z,1596,17,1,2673.0,568913.9000000954,7035,VNB,B,15
10,test,1,0.0,2-Back,1,m,Mon Nov 04 2024 15:47:14 GMT-0600 (Central Standard Time),573553.0,004_o_m_n_a.png,O,m,924,18,1,1945.3999998569489,571607.600000143,7035,VNB,B,16
0,test,2,0.0,2-Back,,,Mon Nov 04 2024 15:47:14 GMT-0600 (Central Standard Time),573553.0,007_m_m_h_a.png,O,space,1293,1,1,1945.3999998569489,571607.600000143,7035,VNB,B,0
0,test,2,0.0,2-Back,,,Mon Nov 04 2024 15:47:14 GMT-0600 (Central Standard Time),573553.0,020_y_f_n_a.png,O,space,1293,2,1,1945.3999998569489,571607.600000143,7035,VNB,B,0
1,test,2,1.0,2-Back,1,z,Mon Nov 04 2024 15:47:14 GMT-0600 (Central Standard Time),582366.4000000954,005_o_f_h_a.png,O,z,1142,3,1,2152.2000000476837,580214.2000000477,7035,VNB,B,1
2,test,2,0.0,2-Back,1,m,Mon Nov 04 2024 15:47:14 GMT-0600 (Central Standard Time),584499.100000143,004_o_m_d_a.png,O,m,1029,4,1,2037.3000001907349,582461.7999999523,7035,VNB,B,2
2,test,2,0.0,2-Back,0,m,Mon Nov 04 2024 15:47:14 GMT-0600 (Central Standard Time),586765.100000143,011_m_f_d_a.png,O,z,1152,5,1,2172.600000143051,584592.5,7035,VNB,B,3
3,test,2,0.0,2-Back,1,m,Mon Nov 04 2024 15:47:14 GMT-0600 (Central Standard Time),588914.2000000477,016_y_m_h_a.png,O,m,1046,6,1,2125.5999999046326,586788.600000143,7035,VNB,B,4
3,test,2,0.0,2-Back,0,m,Mon Nov 04 2024 15:47:14 GMT-0600 (Central Standard Time),590930.4000000954,005_o_f_n_a.png,O,z,905,7,1,1924.1000001430511,589006.2999999523,7035,VNB,B,5
4,test,2,1.0,2-Back,1,z,Mon Nov 04 2024 15:47:14 GMT-0600 (Central Standard Time),593329.2999999523,004_o_m_h_a.png,O,z,1297,8,1,2371.2999999523163,590958.0,7035,VNB,B,6
4,test,2,0.0,2-Back,0,m,Mon Nov 04 2024 15:47:14 GMT-0600 (Central Standard Time),596045.5,020_y_f_d_a.png,O,z,1603,9,1,2689.0,593356.5,7035,VNB,B,7
4,test,2,0.0,2-Back,0,m,Mon Nov 04 2024 15:47:14 GMT-0600 (Central Standard Time),598278.2999999523,016_y_m_d_a.png,O,z,1126,10,1,2203.2999999523163,596075.0,7035,VNB,B,8
5,test,2,0.0,2-Back,1,m,Mon Nov 04 2024 15:47:14 GMT-0600 (Central Standard Time),600477.4000000954,007_m_m_n_a.png,O,m,1094,11,1,2114.100000143051,598363.2999999523,7035,VNB,B,9
6,test,2,0.0,2-Back,1,m,Mon Nov 04 2024 15:47:14 GMT-0600 (Central Standard Time),603076.2999999523,011_m_f_h_a.png,O,m,1499,12,1,2577.0999999046326,600499.2000000477,7035,VNB,B,10
7,test,2,1.0,2-Back,1,z,Mon Nov 04 2024 15:47:14 GMT-0600 (Central Standard Time),605325.600000143,004_o_m_n_a.png,O,z,1127,13,1,2141.100000143051,603184.5,7035,VNB,B,11
8,test,2,0.0,2-Back,1,m,Mon Nov 04 2024 15:47:14 GMT-0600 (Central Standard Time),607291.600000143,005_o_f_d_a.png,O,m,870,14,1,1944.3000001907349,605347.2999999523,7035,VNB,B,12
8,test,2,0.0,2-Back,0,m,Mon Nov 04 2024 15:47:14 GMT-0600 (Central Standard Time),609057.2000000477,020_y_f_h_a.png,O,z,655,15,1,1676.7999999523163,607380.4000000954,7035,VNB,B,13
8,test,2,0.0,2-Back,0,z,Mon Nov 04 2024 15:47:14 GMT-0600 (Central Standard Time),611490.2999999523,007_m_m_d_a.png,O,m,1413,16,1,2423.2999999523163,609067.0,7035,VNB,B,14
8,test,2,0.0,2-Back,0,m,Mon Nov 04 2024 15:47:14 GMT-0600 (Central Standard Time),614223.100000143,016_y_m_n_a.png,O,z,1684,17,1,2704.5,611518.600000143,7035,VNB,B,15
8,test,2,1.0,2-Back,0,m,Mon Nov 04 2024 15:47:14 GMT-0600 (Central Standard Time),616538.600000143,011_m_f_n_a.png,O,z,1279,18,1,2289.2000000476837,614249.4000000954,7035,VNB,B,16
0,test,3,1.0,2-Back,,,Mon Nov 04 2024 15:47:14 GMT-0600 (Central Standard Time),616538.600000143,004_o_m_n_a.png,O,space,1091,1,1,2289.2000000476837,614249.4000000954,7035,VNB,B,0
0,test,3,1.0,2-Back,,,Mon Nov 04 2024 15:47:14 GMT-0600 (Central Standard Time),616538.600000143,005_o_f_d_a.png,O,space,1091,2,1,2289.2000000476837,614249.4000000954,7035,VNB,B,0
1,test,3,0.0,2-Back,1,m,Mon Nov 04 2024 15:47:14 GMT-0600 (Central Standard Time),624902.600000143,020_y_f_h_a.png,O,m,882,3,1,1912.0,622990.600000143,7035,VNB,B,1
2,test,3,0.0,2-Back,1,z,Mon Nov 04 2024 15:47:14 GMT-0600 (Central Standard Time),627551.7000000477,011_m_f_d_a.png,O,z,1608,4,1,2620.4000000953674,624931.2999999523,7035,VNB,B,2
3,test,3,1.0,2-Back,1,m,Mon Nov 04 2024 15:47:14 GMT-0600 (Central Standard Time),630534.0,016_y_m_n_a.png,O,m,1935,5,1,2959.0,627575.0,7035,VNB,B,3
3,test,3,0.0,2-Back,0,m,Mon Nov 04 2024 15:47:14 GMT-0600 (Central Standard Time),633200.7999999523,004_o_m_h_a.png,O,z,1569,6,1,2633.399999856949,630567.4000000954,7035,VNB,B,4
3,test,3,0.0,2-Back,0,z,Mon Nov 04 2024 15:47:14 GMT-0600 (Central Standard Time),635315.7999999523,020_y_f_n_a.png,O,m,1006,7,1,2086.399999856949,633229.4000000954,7035,VNB,B,5
4,test,3,1.0,2-Back,1,m,Mon Nov 04 2024 15:47:14 GMT-0600 (Central Standard Time),637631.7999999523,007_m_m_d_a.png,O,m,1200,8,1,2284.0999999046326,635347.7000000477,7035,VNB,B,6
4,test,3,0.0,2-Back,0,m,Mon Nov 04 2024 15:47:14 GMT-0600 (Central Standard Time),640464.2000000477,016_y_m_d_a.png,O,z,1724,9,1,2803.2000000476837,637661.0,7035,VNB,B,7
5,test,3,0.0,2-Back,1,m,Mon Nov 04 2024 15:47:14 GMT-0600 (Central Standard Time),642729.7999999523,005_o_f_h_a.png,O,m,1164,10,1,2181.2999999523163,640548.5,7035,VNB,B,8
6,test,3,1.0,2-Back,1,m,Mon Nov 04 2024 15:47:14 GMT-0600 (Central Standard Time),644979.2000000477,011_m_f_n_a.png,O,m,1138,11,1,2155.2000000476837,642824.0,7035,VNB,B,9
7,test,3,1.0,2-Back,1,z,Mon Nov 04 2024 15:47:14 GMT-0600 (Central Standard Time),646995.2999999523,007_m_m_h_a.png,O,z,905,12,1,1921.0,645074.2999999523,7035,VNB,B,10
7,test,3,0.0,2-Back,0,m,Mon Nov 04 2024 15:47:14 GMT-0600 (Central Standard Time),650148.2999999523,020_y_f_d_a.png,O,None,2015,13,1,3032.5,647115.7999999523,7035,VNB,B,11
8,test,3,0.0,2-Back,1,m,Mon Nov 04 2024 15:47:14 GMT-0600 (Central Standard Time),652227.0,005_o_f_n_a.png,O,m,979,14,1,2049.2000000476837,650177.7999999523,7035,VNB,B,12
9,test,3,0.0,2-Back,1,z,Mon Nov 04 2024 15:47:14 GMT-0600 (Central Standard Time),654442.7999999523,004_o_m_d_a.png,O,z,1171,15,1,2193.7999999523163,652249.0,7035,VNB,B,13
10,test,3,1.0,2-Back,1,m,Mon Nov 04 2024 15:47:14 GMT-0600 (Central Standard Time),656574.600000143,011_m_f_h_a.png,O,m,1025,16,1,2105.7000000476837,654468.9000000954,7035,VNB,B,14
10,test,3,0.0,2-Back,0,m,Mon Nov 04 2024 15:47:14 GMT-0600 (Central Standard Time),658858.2000000477,007_m_m_n_a.png,O,z,1257,17,1,2278.9000000953674,656579.2999999523,7035,VNB,B,15
11,test,3,0.0,2-Back,1,z,Mon Nov 04 2024 15:47:14 GMT-0600 (Central Standard Time),661257.4000000954,016_y_m_h_a.png,O,z,1356,18,1,2376.0,658881.4000000954,7035,VNB,B,16
0,test,4,0.0,2-Back,,,Mon Nov 04 2024 15:47:14 GMT-0600 (Central Standard Time),661257.4000000954,011_m_f_n_a.png,O,space,997,1,1,2376.0,658881.4000000954,7035,VNB,B,0
0,test,4,0.0,2-Back,,,Mon Nov 04 2024 15:47:14 GMT-0600 (Central Standard Time),661257.4000000954,004_o_m_n_a.png,O,space,997,2,1,2376.0,658881.4000000954,7035,VNB,B,0
1,test,4,1.0,2-Back,1,m,Mon Nov 04 2024 15:47:14 GMT-0600 (Central Standard Time),669488.0,016_y_m_h_a.png,O,m,825,3,1,1834.5999999046326,667653.4000000954,7035,VNB,B,1
2,test,4,1.0,2-Back,1,m,Mon Nov 04 2024 15:47:14 GMT-0600 (Central Standard Time),671704.2999999523,005_o_f_d_a.png,O,m,1170,4,1,2190.7999999523163,669513.5,7035,VNB,B,2
3,test,4,0.0,2-Back,1,z,Mon Nov 04 2024 15:47:14 GMT-0600 (Central Standard Time),673636.4000000954,004_o_m_h_a.png,O,z,804,5,1,1819.1000001430511,671817.2999999523,7035,VNB,B,3
4,test,4,0.0,2-Back,1,m,Mon Nov 04 2024 15:47:14 GMT-0600 (Central Standard Time),675769.0,007_m_m_n_a.png,O,m,1014,6,1,2100.899999856949,673668.100000143,7035,VNB,B,4
4,test,4,0.0,2-Back,0,m,Mon Nov 04 2024 15:47:14 GMT-0600 (Central Standard Time),677685.2000000477,011_m_f_d_a.png,O,z,810,7,1,1832.5,675852.7000000477,7035,VNB,B,5
4,test,4,0.0,2-Back,0,z,Mon Nov 04 2024 15:47:14 GMT-0600 (Central Standard Time),679851.100000143,020_y_f_n_a.png,O,m,1062,8,1,2074.300000190735,677776.7999999523,7035,VNB,B,6
5,test,4,1.0,2-Back,1,m,Mon Nov 04 2024 15:47:14 GMT-0600 (Central Standard Time),682050.2999999523,005_o_f_h_a.png,O,m,1096,9,1,2170.5,679879.7999999523,7035,VNB,B,7
5,test,4,0.0,2-Back,0,m,Mon Nov 04 2024 15:47:14 GMT-0600 (Central Standard Time),684283.0,007_m_m_h_a.png,O,z,1129,10,1,2146.0,682137.0,7035,VNB,B,8
6,test,4,0.0,2-Back,1,m,Mon Nov 04 2024 15:47:14 GMT-0600 (Central Standard Time),687282.100000143,020_y_f_d_a.png,O,m,1889,11,1,2905.4000000953674,684376.7000000477,7035,VNB,B,9
6,test,4,0.0,2-Back,0,m,Mon Nov 04 2024 15:47:14 GMT-0600 (Central Standard Time),690398.0,016_y_m_n_a.png,O,None,2015,12,1,3086.399999856949,687311.600000143,7035,VNB,B,10
7,test,4,0.0,2-Back,1,z,Mon Nov 04 2024 15:47:14 GMT-0600 (Central Standard Time),693312.100000143,004_o_m_d_a.png,O,z,1790,13,1,2817.4000000953674,690494.7000000477,7035,VNB,B,11
7,test,4,1.0,2-Back,0,m,Mon Nov 04 2024 15:47:14 GMT-0600 (Central Standard Time),695896.2000000477,011_m_f_h_a.png,O,z,1483,14,1,2563.9000000953674,693332.2999999523,7035,VNB,B,12
7,test,4,1.0,2-Back,0,m,Mon Nov 04 2024 15:47:14 GMT-0600 (Central Standard Time),698228.4000000954,020_y_f_h_a.png,O,z,1219,15,1,2238.5,695989.9000000954,7035,VNB,B,13
8,test,4,0.0,2-Back,1,m,Mon Nov 04 2024 15:47:14 GMT-0600 (Central Standard Time),701294.0,005_o_f_n_a.png,O,m,1942,16,1,2969.5999999046326,698324.4000000954,7035,VNB,B,14
9,test,4,0.0,2-Back,1,m,Mon Nov 04 2024 15:47:14 GMT-0600 (Central Standard Time),703360.5,016_y_m_d_a.png,O,m,965,17,1,1970.5999999046326,701389.9000000954,7035,VNB,B,15
9,test,4,1.0,2-Back,0,m,Mon Nov 04 2024 15:47:14 GMT-0600 (Central Standard Time),705676.0,007_m_m_d_a.png,O,z,1211,18,1,2288.0999999046326,703387.9000000954,7035,VNB,B,16
0,test,5,1.0,2-Back,,,Mon Nov 04 2024 15:47:14 GMT-0600 (Central Standard Time),705676.0,020_y_f_d_a.png,O,space,1026,1,1,2288.0999999046326,703387.9000000954,7035,VNB,B,0
0,test,5,1.0,2-Back,,,Mon Nov 04 2024 15:47:14 GMT-0600 (Central Standard Time),705676.0,005_o_f_h_a.png,O,space,1026,2,1,2288.0999999046326,703387.9000000954,7035,VNB,B,0
0,test,5,1.0,2-Back,0,z,Mon Nov 04 2024 15:47:14 GMT-0600 (Central Standard Time),715190.100000143,004_o_m_d_a.png,O,None,2016,3,1,3029.800000190735,712160.2999999523,7035,VNB,B,1
1,test,5,1.0,2-Back,1,m,Mon Nov 04 2024 15:47:14 GMT-0600 (Central Standard Time),717238.7999999523,011_m_f_n_a.png,O,m,934,4,1,1959.5,715279.2999999523,7035,VNB,B,2
1,test,5,0.0,2-Back,0,m,Mon Nov 04 2024 15:47:14 GMT-0600 (Central Standard Time),719804.7000000477,007_m_m_h_a.png,O,z,1469,5,1,2541.0999999046326,717263.600000143,7035,VNB,B,3
1,test,5,0.0,2-Back,0,z,Mon Nov 04 2024 15:47:14 GMT-0600 (Central Standard Time),722720.2999999523,020_y_f_n_a.png,O,m,1807,6,1,2824.399999856949,719895.9000000954,7035,VNB,B,4
1,test,5,0.0,2-Back,0,m,Mon Nov 04 2024 15:47:14 GMT-0600 (Central Standard Time),725252.7000000477,005_o_f_d_a.png,O,z,1419,7,1,2443.0999999046326,722809.600000143,7035,VNB,B,5
1,test,5,0.0,2-Back,0,m,Mon Nov 04 2024 15:47:14 GMT-0600 (Central Standard Time),727952.0,004_o_m_h_a.png,O,z,1574,8,1,2596.5999999046326,725355.4000000954,7035,VNB,B,6
1,test,5,1.0,2-Back,0,z,Mon Nov 04 2024 15:47:14 GMT-0600 (Central Standard Time),730751.100000143,011_m_f_d_a.png,O,m,1692,9,1,2773.300000190735,727977.7999999523,7035,VNB,B,7
1,test,5,0.0,2-Back,0,m,Mon Nov 04 2024 15:47:14 GMT-0600 (Central Standard Time),733200.4000000954,016_y_m_n_a.png,O,z,1341,10,1,2419.7000000476837,730780.7000000477,7035,VNB,B,8
1,test,5,0.0,2-Back,0,m,Mon Nov 04 2024 15:47:14 GMT-0600 (Central Standard Time),735249.600000143,007_m_m_n_a.png,O,z,939,11,1,2023.6000001430511,733226.0,7035,VNB,B,9
2,test,5,0.0,2-Back,1,m,Mon Nov 04 2024 15:47:14 GMT-0600 (Central Standard Time),737582.2999999523,020_y_f_h_a.png,O,m,1202,12,1,2301.0,735281.2999999523,7035,VNB,B,10
2,test,5,0.0,2-Back,0,m,Mon Nov 04 2024 15:47:14 GMT-0600 (Central Standard Time),740681.2999999523,016_y_m_d_a.png,O,None,2015,13,1,3074.5999999046326,737606.7000000477,7035,VNB,B,11
3,test,5,1.0,2-Back,1,z,Mon Nov 04 2024 15:47:14 GMT-0600 (Central Standard Time),743646.7999999523,011_m_f_h_a.png,O,z,1821,14,1,2846.5999999046326,740800.2000000477,7035,VNB,B,12
3,test,5,0.0,2-Back,0,m,Mon Nov 04 2024 15:47:14 GMT-0600 (Central Standard Time),745962.0,004_o_m_n_a.png,O,z,1269,15,1,2285.7999999523163,743676.2000000477,7035,VNB,B,13
4,test,5,0.0,2-Back,1,m,Mon Nov 04 2024 15:47:14 GMT-0600 (Central Standard Time),748112.0,007_m_m_d_a.png,O,m,1124,16,1,2145.5,745966.5,7035,VNB,B,14
4,test,5,0.0,2-Back,0,z,Mon Nov 04 2024 15:47:14 GMT-0600 (Central Standard Time),751194.2999999523,005_o_f_n_a.png,O,m,1972,17,1,2992.199999809265,748202.100000143,7035,VNB,B,15
5,test,5,1.0,2-Back,1,m,Mon Nov 04 2024 15:47:14 GMT-0600 (Central Standard Time),753693.600000143,016_y_m_h_a.png,O,m,1393,18,1,2403.2000000476837,751290.4000000954,7035,VNB,B,16
