block_c,block_dur,condition,countdown,datetime,endtime,list,multichar_response,project,response,response_time,session_number,start_end,starttime,subject_id,task,task_vers,trial
,,,,Wed Oct 02 2024 18:06:01 GMT-0500 (Central Daylight Time),,,,O,space,487,1,,,7021,WL,A,
prac,,0,,Wed Oct 02 2024 18:06:01 GMT-0500 (Central Daylight Time),,NA,b,O,b,3960,1,,,7021,WL,A,1.0
prac,,0,,Wed Oct 02 2024 18:06:01 GMT-0500 (Central Daylight Time),,NA,bo,O,o,453,1,,,7021,WL,A,1.0
prac,,0,,Wed Oct 02 2024 18:06:01 GMT-0500 (Central Daylight Time),,NA,boo,O,o,164,1,,,7021,WL,A,1.0
prac,,0,,Wed Oct 02 2024 18:06:01 GMT-0500 (Central Daylight Time),,NA,boos,O,s,125,1,,,7021,WL,A,1.0
prac,,0,,Wed Oct 02 2024 18:06:01 GMT-0500 (Central Daylight Time),,NA,boost,O,t,314,1,,,7021,WL,A,1.0
prac,,0,,Wed Oct 02 2024 18:06:01 GMT-0500 (Central Daylight Time),,NA,boostenter,O,enter,2978,1,,,7021,WL,A,1.0
1,1.1659998893737793,learn,58834.00011062622,Wed Oct 02 2024 18:06:01 GMT-0500 (Central Daylight Time),162510.30000007153,A,b,O,b,1135,1,1164.9000000953674,161345.39999997616,7021,WL,A,1.0
1,1.4829998016357422,learn,58517.00019836426,Wed Oct 02 2024 18:06:01 GMT-0500 (Central Daylight Time),162827.5,A,bo,O,o,283,1,1482.1000000238419,161345.39999997616,7021,WL,A,1.0
1,1.6489999294281006,learn,58351.0000705719,Wed Oct 02 2024 18:06:01 GMT-0500 (Central Daylight Time),162993.30000007153,A,boo,O,o,126,1,1647.9000000953674,161345.39999997616,7021,WL,A,1.0
1,1.9659998416900635,learn,58034.00015830994,Wed Oct 02 2024 18:06:01 GMT-0500 (Central Daylight Time),163310.0,A,book,O,k,297,1,1964.6000000238419,161345.39999997616,7021,WL,A,1.0
1,4.130999803543091,learn,55869.00019645691,Wed Oct 02 2024 18:06:01 GMT-0500 (Central Daylight Time),165475.30000007153,A,bookenter,O,enter,2141,1,4129.900000095367,161345.39999997616,7021,WL,A,1.0
1,4.847999811172485,learn,55152.000188827515,Wed Oct 02 2024 18:06:01 GMT-0500 (Central Daylight Time),166192.5,A,a,O,a,706,1,716.7999999523163,165475.70000004768,7021,WL,A,2.0
1,5.447999954223633,learn,54552.00004577637,Wed Oct 02 2024 18:06:01 GMT-0500 (Central Daylight Time),166792.20000004768,A,ap,O,p,573,1,1316.5,165475.70000004768,7021,WL,A,2.0
1,5.597999811172485,learn,54402.000188827515,Wed Oct 02 2024 18:06:01 GMT-0500 (Central Daylight Time),166942.20000004768,A,app,O,p,115,1,1466.5,165475.70000004768,7021,WL,A,2.0
1,5.880999803543091,learn,54119.00019645691,Wed Oct 02 2024 18:06:01 GMT-0500 (Central Daylight Time),167225.30000007153,A,appl,O,l,247,1,1749.6000000238419,165475.70000004768,7021,WL,A,2.0
1,6.0299999713897705,learn,53970.00002861023,Wed Oct 02 2024 18:06:01 GMT-0500 (Central Daylight Time),167374.39999997616,A,apple,O,e,111,1,1898.6999999284744,165475.70000004768,7021,WL,A,2.0
1,6.396999835968018,learn,53603.00016403198,Wed Oct 02 2024 18:06:01 GMT-0500 (Central Daylight Time),167741.20000004768,A,appleenter,O,enter,349,1,2265.5,165475.70000004768,7021,WL,A,2.0
1,7.230999946594238,learn,52769.00005340576,Wed Oct 02 2024 18:06:01 GMT-0500 (Central Daylight Time),168574.80000007153,A,m,O,m,816,1,833.3000000715256,167741.5,7021,WL,A,3.0
1,7.379999876022339,learn,52620.00012397766,Wed Oct 02 2024 18:06:01 GMT-0500 (Central Daylight Time),168724.39999997616,A,me,O,e,114,1,982.8999999761581,167741.5,7021,WL,A,3.0
1,7.547999858856201,learn,52452.0001411438,Wed Oct 02 2024 18:06:01 GMT-0500 (Central Daylight Time),168891.60000002384,A,mea,O,a,142,1,1150.1000000238419,167741.5,7021,WL,A,3.0
1,7.746999979019165,learn,52253.000020980835,Wed Oct 02 2024 18:06:01 GMT-0500 (Central Daylight Time),169091.39999997616,A,mead,O,d,169,1,1349.8999999761581,167741.5,7021,WL,A,3.0
1,7.96399998664856,learn,52036.00001335144,Wed Oct 02 2024 18:06:01 GMT-0500 (Central Daylight Time),169308.0,A,meado,O,o,175,1,1566.5,167741.5,7021,WL,A,3.0
1,8.11299991607666,learn,51887.00008392334,Wed Oct 02 2024 18:06:01 GMT-0500 (Central Daylight Time),169457.20000004768,A,meadow,O,w,111,1,1715.7000000476837,167741.5,7021,WL,A,3.0
1,8.462999820709229,learn,51537.00017929077,Wed Oct 02 2024 18:06:01 GMT-0500 (Central Daylight Time),169807.30000007153,A,meadowenter,O,enter,330,1,2065.8000000715256,167741.5,7021,WL,A,3.0
1,8.780999898910522,learn,51219.00010108948,Wed Oct 02 2024 18:06:01 GMT-0500 (Central Daylight Time),170125.0,A,c,O,c,310,1,317.2999999523163,169807.70000004768,7021,WL,A,4.0
1,8.946999788284302,learn,51053.0002117157,Wed Oct 02 2024 18:06:01 GMT-0500 (Central Daylight Time),170291.0,A,ch,O,h,138,1,483.2999999523163,169807.70000004768,7021,WL,A,4.0
1,9.079999923706055,learn,50920.000076293945,Wed Oct 02 2024 18:06:01 GMT-0500 (Central Daylight Time),170424.30000007153,A,chi,O,i,104,1,616.6000000238419,169807.70000004768,7021,WL,A,4.0
1,9.312999963760376,learn,50687.000036239624,Wed Oct 02 2024 18:06:01 GMT-0500 (Central Daylight Time),170657.5,A,chim,O,m,205,1,849.7999999523163,169807.70000004768,7021,WL,A,4.0
1,9.846999883651733,learn,50153.00011634827,Wed Oct 02 2024 18:06:01 GMT-0500 (Central Daylight Time),171190.70000004768,A,chimn,O,n,506,1,1383.0,169807.70000004768,7021,WL,A,4.0
1,9.962999820709229,learn,50037.00017929077,Wed Oct 02 2024 18:06:01 GMT-0500 (Central Daylight Time),171307.5,A,chimne,O,e,84,1,1499.7999999523163,169807.70000004768,7021,WL,A,4.0
1,10.228999853134155,learn,49771.000146865845,Wed Oct 02 2024 18:06:01 GMT-0500 (Central Daylight Time),171573.39999997616,A,chimney,O,y,231,1,1765.6999999284744,169807.70000004768,7021,WL,A,4.0
1,11.245999813079834,learn,48754.000186920166,Wed Oct 02 2024 18:06:01 GMT-0500 (Central Daylight Time),172589.60000002384,A,chimneyenter,O,enter,993,1,2781.899999976158,169807.70000004768,7021,WL,A,4.0
1,15.561999797821045,learn,44438.000202178955,Wed Oct 02 2024 18:06:01 GMT-0500 (Central Daylight Time),176905.5,A,k,O,k,4304,1,4315.5,172590.0,7021,WL,A,5.0
1,15.661999940872192,learn,44338.00005912781,Wed Oct 02 2024 18:06:01 GMT-0500 (Central Daylight Time),177005.10000002384,A,ke,O,e,76,1,4415.100000023842,172590.0,7021,WL,A,5.0
1,16.02899980545044,learn,43971.00019454956,Wed Oct 02 2024 18:06:01 GMT-0500 (Central Daylight Time),177372.0,A,key,O,y,334,1,4782.0,172590.0,7021,WL,A,5.0
1,16.727999925613403,learn,43272.0000743866,Wed Oct 02 2024 18:06:01 GMT-0500 (Central Daylight Time),178071.10000002384,A,keyenter,O,enter,663,1,5481.100000023842,172590.0,7021,WL,A,5.0
1,20.07799983024597,learn,39922.00016975403,Wed Oct 02 2024 18:06:01 GMT-0500 (Central Daylight Time),181420.70000004768,A,f,O,f,3334,1,3349.3000000715256,178071.39999997616,7021,WL,A,6.0
1,20.15499997138977,learn,39845.00002861023,Wed Oct 02 2024 18:06:01 GMT-0500 (Central Daylight Time),181498.60000002384,A,fl,O,l,45,1,3427.2000000476837,178071.39999997616,7021,WL,A,6.0
1,20.3439998626709,learn,39656.0001373291,Wed Oct 02 2024 18:06:01 GMT-0500 (Central Daylight Time),181687.39999997616,A,flo,O,o,165,1,3616.0,178071.39999997616,7021,WL,A,6.0
1,20.477999925613403,learn,39522.0000743866,Wed Oct 02 2024 18:06:01 GMT-0500 (Central Daylight Time),181820.70000004768,A,flow,O,w,98,1,3749.3000000715256,178071.39999997616,7021,WL,A,6.0
1,20.5939998626709,learn,39406.0001373291,Wed Oct 02 2024 18:06:01 GMT-0500 (Central Daylight Time),181937.20000004768,A,flowe,O,e,86,1,3865.8000000715256,178071.39999997616,7021,WL,A,6.0
1,20.76099991798401,learn,39239.00008201599,Wed Oct 02 2024 18:06:01 GMT-0500 (Central Daylight Time),182103.80000007153,A,flower,O,r,138,1,4032.4000000953674,178071.39999997616,7021,WL,A,6.0
1,21.40999984741211,learn,38590.00015258789,Wed Oct 02 2024 18:06:01 GMT-0500 (Central Daylight Time),182753.0,A,flowerenter,O,enter,618,1,4681.600000023842,178071.39999997616,7021,WL,A,6.0
1,24.592999935150146,learn,35407.00006484985,Wed Oct 02 2024 18:06:01 GMT-0500 (Central Daylight Time),185935.89999997616,A,t,O,t,3173,1,3182.5999999046326,182753.30000007153,7021,WL,A,7.0
1,24.825999975204468,learn,35174.00002479553,Wed Oct 02 2024 18:06:01 GMT-0500 (Central Daylight Time),186169.30000007153,A,tr,O,r,208,1,3416.0,182753.30000007153,7021,WL,A,7.0
1,24.925999879837036,learn,35074.000120162964,Wed Oct 02 2024 18:06:01 GMT-0500 (Central Daylight Time),186269.20000004768,A,tra,O,a,66,1,3515.899999976158,182753.30000007153,7021,WL,A,7.0
1,25.14199995994568,learn,34858.00004005432,Wed Oct 02 2024 18:06:01 GMT-0500 (Central Daylight Time),186485.0,A,trai,O,i,182,1,3731.6999999284744,182753.30000007153,7021,WL,A,7.0
1,25.358999967575073,learn,34641.00003242493,Wed Oct 02 2024 18:06:01 GMT-0500 (Central Daylight Time),186702.30000007153,A,train,O,n,208,1,3949.0,182753.30000007153,7021,WL,A,7.0
1,25.89199995994568,learn,34108.00004005432,Wed Oct 02 2024 18:06:01 GMT-0500 (Central Daylight Time),187234.80000007153,A,trainenter,O,enter,494,1,4481.5,182753.30000007153,7021,WL,A,7.0
1,30.0239999294281,learn,29976.0000705719,Wed Oct 02 2024 18:06:01 GMT-0500 (Central Daylight Time),191367.5,A,a,O,a,4115,1,4132.399999976158,187235.10000002384,7021,WL,A,8.0
1,30.473999977111816,learn,29526.000022888184,Wed Oct 02 2024 18:06:01 GMT-0500 (Central Daylight Time),191817.39999997616,A,ap,O,p,413,1,4582.299999952316,187235.10000002384,7021,WL,A,8.0
1,30.607999801635742,learn,29392.000198364258,Wed Oct 02 2024 18:06:01 GMT-0500 (Central Daylight Time),191950.70000004768,A,app,O,p,108,1,4715.600000023842,187235.10000002384,7021,WL,A,8.0
1,30.85699987411499,learn,29143.00012588501,Wed Oct 02 2024 18:06:01 GMT-0500 (Central Daylight Time),192200.60000002384,A,appl,O,l,211,1,4965.5,187235.10000002384,7021,WL,A,8.0
1,30.973999977111816,learn,29026.000022888184,Wed Oct 02 2024 18:06:01 GMT-0500 (Central Daylight Time),192316.89999997616,A,apple,O,e,93,1,5081.799999952316,187235.10000002384,7021,WL,A,8.0
1,31.306999921798706,learn,28693.000078201294,Wed Oct 02 2024 18:06:01 GMT-0500 (Central Daylight Time),192649.70000004768,A,appleenter,O,enter,303,1,5414.600000023842,187235.10000002384,7021,WL,A,8.0
1,49.367999792099,learn,10632.000207901001,Wed Oct 02 2024 18:06:01 GMT-0500 (Central Daylight Time),210711.10000002384,A,g,O,g,18052,1,18061.200000047684,192649.89999997616,7021,WL,A,9.0
1,49.50099992752075,learn,10499.000072479248,Wed Oct 02 2024 18:06:01 GMT-0500 (Central Daylight Time),210843.89999997616,A,go,O,o,93,1,18194.0,192649.89999997616,7021,WL,A,9.0
1,49.71799993515015,learn,10282.000064849854,Wed Oct 02 2024 18:06:01 GMT-0500 (Central Daylight Time),211061.0,A,gol,O,l,197,1,18411.100000023842,192649.89999997616,7021,WL,A,9.0
1,49.800999879837036,learn,10199.000120162964,Wed Oct 02 2024 18:06:01 GMT-0500 (Central Daylight Time),211144.30000007153,A,gold,O,d,56,1,18494.400000095367,192649.89999997616,7021,WL,A,9.0
1,50.5,learn,9500.0,Wed Oct 02 2024 18:06:01 GMT-0500 (Central Daylight Time),211843.39999997616,A,goldenter,O,enter,668,1,19193.5,192649.89999997616,7021,WL,A,9.0
1,57.16599988937378,learn,2834.0001106262207,Wed Oct 02 2024 18:06:01 GMT-0500 (Central Daylight Time),218508.70000004768,A,b,O,b,6650,1,6665.100000023842,211843.60000002384,7021,WL,A,10.0
1,57.448999881744385,learn,2551.0001182556152,Wed Oct 02 2024 18:06:01 GMT-0500 (Central Daylight Time),218791.60000002384,A,bu,O,u,248,1,6948.0,211843.60000002384,7021,WL,A,10.0
1,57.66499996185303,learn,2335.0000381469727,Wed Oct 02 2024 18:06:01 GMT-0500 (Central Daylight Time),219008.30000007153,A,but,O,t,180,1,7164.700000047684,211843.60000002384,7021,WL,A,10.0
1,57.83200001716614,learn,2167.9999828338623,Wed Oct 02 2024 18:06:01 GMT-0500 (Central Daylight Time),219175.10000002384,A,butt,O,t,141,1,7331.5,211843.60000002384,7021,WL,A,10.0
1,57.98199987411499,learn,2018.0001258850098,Wed Oct 02 2024 18:06:01 GMT-0500 (Central Daylight Time),219325.20000004768,A,butto,O,o,121,1,7481.600000023842,211843.60000002384,7021,WL,A,10.0
1,58.23199987411499,learn,1768.0001258850098,Wed Oct 02 2024 18:06:01 GMT-0500 (Central Daylight Time),219574.80000007153,A,button,O,n,218,1,7731.200000047684,211843.60000002384,7021,WL,A,10.0
1,59.013999938964844,learn,986.0000610351562,Wed Oct 02 2024 18:06:01 GMT-0500 (Central Daylight Time),220357.10000002384,A,buttonenter,O,enter,757,1,8513.5,211843.60000002384,7021,WL,A,10.0
1,60.014999866485596,learn,-14.999866485595703,Wed Oct 02 2024 18:06:01 GMT-0500 (Central Daylight Time),221357.70000004768,A,None,O,None,993,1,1000.3000000715256,220357.39999997616,7021,WL,A,11.0
2,0.75,learn,59250.0,Wed Oct 02 2024 18:06:01 GMT-0500 (Central Daylight Time),291301.2000000477,A,b,O,b,727,1,748.8000000715256,290552.39999997616,7021,WL,A,1.0
2,1.0329999923706055,learn,58967.000007629395,Wed Oct 02 2024 18:06:01 GMT-0500 (Central Daylight Time),291584.60000002384,A,bo,O,o,245,1,1032.2000000476837,290552.39999997616,7021,WL,A,1.0
2,1.2170000076293945,learn,58782.999992370605,Wed Oct 02 2024 18:06:01 GMT-0500 (Central Daylight Time),291767.8000000715,A,boo,O,o,149,1,1215.4000000953674,290552.39999997616,7021,WL,A,1.0
2,1.4660000801086426,learn,58533.99991989136,Wed Oct 02 2024 18:06:01 GMT-0500 (Central Daylight Time),292017.7000000477,A,book,O,k,222,1,1465.3000000715256,290552.39999997616,7021,WL,A,1.0
2,2.2660000324249268,learn,57733.99996757507,Wed Oct 02 2024 18:06:01 GMT-0500 (Central Daylight Time),292816.8000000715,A,bookenter,O,enter,774,1,2264.4000000953674,290552.39999997616,7021,WL,A,1.0
2,2.6489999294281006,learn,57351.0000705719,Wed Oct 02 2024 18:06:01 GMT-0500 (Central Daylight Time),293200.39999997616,A,f,O,f,373,1,383.2999999523163,292817.10000002384,7021,WL,A,2.0
2,2.933000087738037,learn,57066.99991226196,Wed Oct 02 2024 18:06:01 GMT-0500 (Central Daylight Time),293484.0,A,fl,O,l,256,1,666.8999999761581,292817.10000002384,7021,WL,A,2.0
2,3.1489999294281006,learn,56851.0000705719,Wed Oct 02 2024 18:06:01 GMT-0500 (Central Daylight Time),293700.5,A,flo,O,o,188,1,883.3999999761581,292817.10000002384,7021,WL,A,2.0
2,3.2990000247955322,learn,56700.99997520447,Wed Oct 02 2024 18:06:01 GMT-0500 (Central Daylight Time),293850.7000000477,A,flow,O,w,119,1,1033.6000000238419,292817.10000002384,7021,WL,A,2.0
2,3.433000087738037,learn,56566.99991226196,Wed Oct 02 2024 18:06:01 GMT-0500 (Central Daylight Time),293983.8000000715,A,flowe,O,e,106,1,1166.7000000476837,292817.10000002384,7021,WL,A,2.0
2,3.6660001277923584,learn,56333.99987220764,Wed Oct 02 2024 18:06:01 GMT-0500 (Central Daylight Time),294217.0,A,flower,O,r,204,1,1399.8999999761581,292817.10000002384,7021,WL,A,2.0
2,4.131999969482422,learn,55868.00003051758,Wed Oct 02 2024 18:06:01 GMT-0500 (Central Daylight Time),294682.8000000715,A,flowerenter,O,enter,427,1,1865.7000000476837,292817.10000002384,7021,WL,A,2.0
2,4.716000080108643,learn,55283.99991989136,Wed Oct 02 2024 18:06:01 GMT-0500 (Central Daylight Time),295266.2000000477,A,m,O,m,571,1,583.1000000238419,294683.10000002384,7021,WL,A,3.0
2,4.8500001430511475,learn,55149.99985694885,Wed Oct 02 2024 18:06:01 GMT-0500 (Central Daylight Time),295400.10000002384,A,me,O,e,109,1,717.0,294683.10000002384,7021,WL,A,3.0
2,5.08299994468689,learn,54917.00005531311,Wed Oct 02 2024 18:06:01 GMT-0500 (Central Daylight Time),295633.2000000477,A,mea,O,a,198,1,950.1000000238419,294683.10000002384,7021,WL,A,3.0
2,5.33299994468689,learn,54667.00005531311,Wed Oct 02 2024 18:06:01 GMT-0500 (Central Daylight Time),295883.10000002384,A,mead,O,d,220,1,1200.0,294683.10000002384,7021,WL,A,3.0
2,5.700000047683716,learn,54299.999952316284,Wed Oct 02 2024 18:06:01 GMT-0500 (Central Daylight Time),296249.7000000477,A,meado,O,o,339,1,1566.6000000238419,294683.10000002384,7021,WL,A,3.0
2,5.799000024795532,learn,54200.99997520447,Wed Oct 02 2024 18:06:01 GMT-0500 (Central Daylight Time),296349.3000000715,A,meadow,O,w,76,1,1666.2000000476837,294683.10000002384,7021,WL,A,3.0
2,6.265000104904175,learn,53734.999895095825,Wed Oct 02 2024 18:06:01 GMT-0500 (Central Daylight Time),296815.39999997616,A,meadowenter,O,enter,439,1,2132.2999999523163,294683.10000002384,7021,WL,A,3.0
2,6.765000104904175,learn,53234.999895095825,Wed Oct 02 2024 18:06:01 GMT-0500 (Central Daylight Time),297315.3000000715,A,l,O,l,478,1,499.5,296815.8000000715,7021,WL,A,4.0
2,7.049000024795532,learn,52950.99997520447,Wed Oct 02 2024 18:06:01 GMT-0500 (Central Daylight Time),297599.2000000477,A,lo,O,o,274,1,783.3999999761581,296815.8000000715,7021,WL,A,4.0
2,7.299000024795532,learn,52700.99997520447,Wed Oct 02 2024 18:06:01 GMT-0500 (Central Daylight Time),297849.2000000477,A,log,O,g,222,1,1033.3999999761581,296815.8000000715,7021,WL,A,4.0
2,7.881999969482422,learn,52118.00003051758,Wed Oct 02 2024 18:06:01 GMT-0500 (Central Daylight Time),298431.60000002384,A,logenter,O,enter,547,1,1615.7999999523163,296815.8000000715,7021,WL,A,4.0
2,8.464999914169312,learn,51535.00008583069,Wed Oct 02 2024 18:06:01 GMT-0500 (Central Daylight Time),299015.39999997616,A,k,O,k,566,1,583.5,298431.89999997616,7021,WL,A,5.0
2,8.765000104904175,learn,51234.999895095825,Wed Oct 02 2024 18:06:01 GMT-0500 (Central Daylight Time),299315.39999997616,A,ke,O,e,260,1,883.5,298431.89999997616,7021,WL,A,5.0
2,9.098000049591064,learn,50901.999950408936,Wed Oct 02 2024 18:06:01 GMT-0500 (Central Daylight Time),299648.39999997616,A,key,O,y,305,1,1216.5,298431.89999997616,7021,WL,A,5.0
2,9.54800009727478,learn,50451.99990272522,Wed Oct 02 2024 18:06:01 GMT-0500 (Central Daylight Time),300097.7000000477,A,keyenter,O,enter,419,1,1665.8000000715256,298431.89999997616,7021,WL,A,5.0
2,9.914999961853027,learn,50085.00003814697,Wed Oct 02 2024 18:06:01 GMT-0500 (Central Daylight Time),300465.0,A,r,O,r,356,1,367.0,300098.0,7021,WL,A,6.0
2,10.197999954223633,learn,49802.00004577637,Wed Oct 02 2024 18:06:01 GMT-0500 (Central Daylight Time),300748.3000000715,A,ru,O,u,243,1,650.3000000715256,300098.0,7021,WL,A,6.0
2,10.748000144958496,learn,49251.999855041504,Wed Oct 02 2024 18:06:01 GMT-0500 (Central Daylight Time),301298.2000000477,A,rug,O,g,511,1,1200.2000000476837,300098.0,7021,WL,A,6.0
2,11.380000114440918,learn,48619.99988555908,Wed Oct 02 2024 18:06:01 GMT-0500 (Central Daylight Time),301930.60000002384,A,rugenter,O,enter,594,1,1832.6000000238419,300098.0,7021,WL,A,6.0
2,11.730999946594238,learn,48269.00005340576,Wed Oct 02 2024 18:06:01 GMT-0500 (Central Daylight Time),302281.3000000715,A,r,O,r,332,1,350.5,301930.8000000715,7021,WL,A,7.0
2,11.864000082015991,learn,48135.99991798401,Wed Oct 02 2024 18:06:01 GMT-0500 (Central Daylight Time),302414.39999997616,A,ra,O,a,99,1,483.59999990463257,301930.8000000715,7021,WL,A,7.0
2,12.031000137329102,learn,47968.9998626709,Wed Oct 02 2024 18:06:01 GMT-0500 (Central Daylight Time),302580.89999997616,A,rat,O,t,135,1,650.0999999046326,301930.8000000715,7021,WL,A,7.0
2,12.214999914169312,learn,47785.00008583069,Wed Oct 02 2024 18:06:01 GMT-0500 (Central Daylight Time),302765.0,A,ratt,O,t,160,1,834.1999999284744,301930.8000000715,7021,WL,A,7.0
2,12.54699993133545,learn,47453.00006866455,Wed Oct 02 2024 18:06:01 GMT-0500 (Central Daylight Time),303097.39999997616,A,rattl,O,l,305,1,1166.5999999046326,301930.8000000715,7021,WL,A,7.0
2,12.664000034332275,learn,47335.999965667725,Wed Oct 02 2024 18:06:01 GMT-0500 (Central Daylight Time),303214.0,A,rattle,O,e,84,1,1283.1999999284744,301930.8000000715,7021,WL,A,7.0
2,13.095999956130981,learn,46904.00004386902,Wed Oct 02 2024 18:06:01 GMT-0500 (Central Daylight Time),303646.5,A,rattleenter,O,enter,407,1,1715.6999999284744,301930.8000000715,7021,WL,A,7.0
2,13.614000082015991,learn,46385.99991798401,Wed Oct 02 2024 18:06:01 GMT-0500 (Central Daylight Time),304163.8000000715,A,g,O,g,495,1,517.1000000238419,303646.7000000477,7021,WL,A,8.0
2,13.847000122070312,learn,46152.99987792969,Wed Oct 02 2024 18:06:01 GMT-0500 (Central Daylight Time),304397.0,A,go,O,o,212,1,750.2999999523163,303646.7000000477,7021,WL,A,8.0
2,14.079999923706055,learn,45920.000076293945,Wed Oct 02 2024 18:06:01 GMT-0500 (Central Daylight Time),304630.2000000477,A,gol,O,l,209,1,983.5,303646.7000000477,7021,WL,A,8.0
2,14.312999963760376,learn,45687.000036239624,Wed Oct 02 2024 18:06:01 GMT-0500 (Central Daylight Time),304863.60000002384,A,gold,O,d,201,1,1216.8999999761581,303646.7000000477,7021,WL,A,8.0
2,14.746000051498413,learn,45253.99994850159,Wed Oct 02 2024 18:06:01 GMT-0500 (Central Daylight Time),305296.10000002384,A,goldenter,O,enter,405,1,1649.3999999761581,303646.7000000477,7021,WL,A,8.0
2,15.463000059127808,learn,44536.99994087219,Wed Oct 02 2024 18:06:01 GMT-0500 (Central Daylight Time),306013.2000000477,A,c,O,c,702,1,716.8999999761581,305296.3000000715,7021,WL,A,9.0
2,15.86299991607666,learn,44137.00008392334,Wed Oct 02 2024 18:06:01 GMT-0500 (Central Daylight Time),306412.8000000715,A,ch,O,h,376,1,1116.5,305296.3000000715,7021,WL,A,9.0
2,16.02999997138977,learn,43970.00002861023,Wed Oct 02 2024 18:06:01 GMT-0500 (Central Daylight Time),306579.8000000715,A,chi,O,i,131,1,1283.5,305296.3000000715,7021,WL,A,9.0
2,16.34599995613098,learn,43654.00004386902,Wed Oct 02 2024 18:06:01 GMT-0500 (Central Daylight Time),306896.3000000715,A,chim,O,m,280,1,1600.0,305296.3000000715,7021,WL,A,9.0
2,16.67900013923645,learn,43320.99986076355,Wed Oct 02 2024 18:06:01 GMT-0500 (Central Daylight Time),307229.39999997616,A,chimn,O,n,305,1,1933.0999999046326,305296.3000000715,7021,WL,A,9.0
2,16.996000051498413,learn,43003.99994850159,Wed Oct 02 2024 18:06:01 GMT-0500 (Central Daylight Time),307546.0,A,chimne,O,e,288,1,2249.6999999284744,305296.3000000715,7021,WL,A,9.0
2,17.312000036239624,learn,42687.999963760376,Wed Oct 02 2024 18:06:01 GMT-0500 (Central Daylight Time),307862.60000002384,A,chimney,O,y,290,1,2566.2999999523163,305296.3000000715,7021,WL,A,9.0
2,18.01200008392334,learn,41987.99991607666,Wed Oct 02 2024 18:06:01 GMT-0500 (Central Daylight Time),308561.60000002384,A,chimneyenter,O,enter,669,1,3265.2999999523163,305296.3000000715,7021,WL,A,9.0
2,19.09500002861023,learn,40904.99997138977,Wed Oct 02 2024 18:06:01 GMT-0500 (Central Daylight Time),309645.3000000715,A,b,O,b,1068,1,1083.4000000953674,308561.89999997616,7021,WL,A,10.0
2,19.378000020980835,learn,40621.999979019165,Wed Oct 02 2024 18:06:01 GMT-0500 (Central Daylight Time),309928.5,A,bu,O,u,248,1,1366.6000000238419,308561.89999997616,7021,WL,A,10.0
2,19.594000101089478,learn,40405.99989891052,Wed Oct 02 2024 18:06:01 GMT-0500 (Central Daylight Time),310144.5,A,but,O,t,179,1,1582.6000000238419,308561.89999997616,7021,WL,A,10.0
2,19.76200008392334,learn,40237.99991607666,Wed Oct 02 2024 18:06:01 GMT-0500 (Central Daylight Time),310311.7000000477,A,butt,O,t,150,1,1749.8000000715256,308561.89999997616,7021,WL,A,10.0
2,19.878000020980835,learn,40121.999979019165,Wed Oct 02 2024 18:06:01 GMT-0500 (Central Daylight Time),310428.39999997616,A,butto,O,o,87,1,1866.5,308561.89999997616,7021,WL,A,10.0
2,20.16100001335144,learn,39838.99998664856,Wed Oct 02 2024 18:06:01 GMT-0500 (Central Daylight Time),310711.0,A,button,O,n,249,1,2149.100000023842,308561.89999997616,7021,WL,A,10.0
2,20.794000148773193,learn,39205.99985122681,Wed Oct 02 2024 18:06:01 GMT-0500 (Central Daylight Time),311344.0,A,buttonenter,O,enter,619,1,2782.100000023842,308561.89999997616,7021,WL,A,10.0
2,25.924999952316284,learn,34075.000047683716,Wed Oct 02 2024 18:06:01 GMT-0500 (Central Daylight Time),316475.5,A,t,O,t,5125,1,5131.199999928474,311344.3000000715,7021,WL,A,11.0
2,26.20900011062622,learn,33790.99988937378,Wed Oct 02 2024 18:06:01 GMT-0500 (Central Daylight Time),316759.5,A,tr,O,r,273,1,5415.199999928474,311344.3000000715,7021,WL,A,11.0
2,26.30900001525879,learn,33690.99998474121,Wed Oct 02 2024 18:06:01 GMT-0500 (Central Daylight Time),316859.5,A,tra,O,a,71,1,5515.199999928474,311344.3000000715,7021,WL,A,11.0
2,26.542999982833862,learn,33457.00001716614,Wed Oct 02 2024 18:06:01 GMT-0500 (Central Daylight Time),317092.8000000715,A,trai,O,i,203,1,5748.5,311344.3000000715,7021,WL,A,11.0
2,26.759000062942505,learn,33240.999937057495,Wed Oct 02 2024 18:06:01 GMT-0500 (Central Daylight Time),317309.3000000715,A,train,O,n,194,1,5965.0,311344.3000000715,7021,WL,A,11.0
2,27.475000143051147,learn,32524.999856948853,Wed Oct 02 2024 18:06:01 GMT-0500 (Central Daylight Time),318025.2000000477,A,trainenter,O,enter,687,1,6680.899999976158,311344.3000000715,7021,WL,A,11.0
2,32.92400002479553,learn,27075.999975204468,Wed Oct 02 2024 18:06:01 GMT-0500 (Central Daylight Time),323474.10000002384,A,r,O,r,5430,1,5448.600000023842,318025.5,7021,WL,A,12.0
2,33.03999996185303,learn,26960.000038146973,Wed Oct 02 2024 18:06:01 GMT-0500 (Central Daylight Time),323590.0,A,ra,O,a,90,1,5564.5,318025.5,7021,WL,A,12.0
2,33.2739999294281,learn,26726.0000705719,Wed Oct 02 2024 18:06:01 GMT-0500 (Central Daylight Time),323824.0,A,rat,O,t,214,1,5798.5,318025.5,7021,WL,A,12.0
2,33.42400002479553,learn,26575.999975204468,Wed Oct 02 2024 18:06:01 GMT-0500 (Central Daylight Time),323973.8000000715,A,ratt,O,t,117,1,5948.300000071526,318025.5,7021,WL,A,12.0
2,33.58999991416931,learn,26410.00008583069,Wed Oct 02 2024 18:06:01 GMT-0500 (Central Daylight Time),324140.60000002384,A,rattl,O,l,137,1,6115.100000023842,318025.5,7021,WL,A,12.0
2,33.67400002479553,learn,26325.999975204468,Wed Oct 02 2024 18:06:01 GMT-0500 (Central Daylight Time),324223.8000000715,A,rattle,O,e,58,1,6198.300000071526,318025.5,7021,WL,A,12.0
2,34.1560001373291,learn,25843.9998626709,Wed Oct 02 2024 18:06:01 GMT-0500 (Central Daylight Time),324706.3000000715,A,rattleenter,O,enter,456,1,6680.800000071526,318025.5,7021,WL,A,12.0
2,55.10000014305115,learn,4899.9998569488525,Wed Oct 02 2024 18:06:01 GMT-0500 (Central Daylight Time),345650.3000000715,A,f,O,f,20925,1,20943.700000047684,324706.60000002384,7021,WL,A,13.0
2,55.25,learn,4750.0,Wed Oct 02 2024 18:06:01 GMT-0500 (Central Daylight Time),345800.0,A,fi,O,i,123,1,21093.399999976158,324706.60000002384,7021,WL,A,13.0
2,55.467000007629395,learn,4532.9999923706055,Wed Oct 02 2024 18:06:01 GMT-0500 (Central Daylight Time),346016.7000000477,A,fin,O,n,190,1,21310.100000023842,324706.60000002384,7021,WL,A,13.0
2,55.60000014305115,learn,4399.9998569488525,Wed Oct 02 2024 18:06:01 GMT-0500 (Central Daylight Time),346150.0,A,fing,O,g,99,1,21443.399999976158,324706.60000002384,7021,WL,A,13.0
2,55.79900002479553,learn,4200.999975204468,Wed Oct 02 2024 18:06:01 GMT-0500 (Central Daylight Time),346349.10000002384,A,finge,O,e,176,1,21642.5,324706.60000002384,7021,WL,A,13.0
2,55.8989999294281,learn,4101.000070571899,Wed Oct 02 2024 18:06:01 GMT-0500 (Central Daylight Time),346449.60000002384,A,finger,O,r,87,1,21743.0,324706.60000002384,7021,WL,A,13.0
2,56.24900007247925,learn,3750.999927520752,Wed Oct 02 2024 18:06:01 GMT-0500 (Central Daylight Time),346798.89999997616,A,fingerenter,O,enter,323,1,22092.299999952316,324706.60000002384,7021,WL,A,13.0
2,56.56599998474121,learn,3434.000015258789,Wed Oct 02 2024 18:06:01 GMT-0500 (Central Daylight Time),347116.10000002384,A,s,O,s,295,1,316.89999997615814,346799.2000000477,7021,WL,A,14.0
2,56.76600003242493,learn,3233.9999675750732,Wed Oct 02 2024 18:06:01 GMT-0500 (Central Daylight Time),347316.3000000715,A,sl,O,l,163,1,517.1000000238419,346799.2000000477,7021,WL,A,14.0
2,56.8989999294281,learn,3101.0000705718994,Wed Oct 02 2024 18:06:01 GMT-0500 (Central Daylight Time),347449.60000002384,A,sla,O,a,105,1,650.3999999761581,346799.2000000477,7021,WL,A,14.0
2,57.21600008010864,learn,2783.9999198913574,Wed Oct 02 2024 18:06:01 GMT-0500 (Central Daylight Time),347765.89999997616,A,slat,O,t,292,1,966.6999999284744,346799.2000000477,7021,WL,A,14.0
2,57.54900002479553,learn,2450.999975204468,Wed Oct 02 2024 18:06:01 GMT-0500 (Central Daylight Time),348098.60000002384,A,slatenter,O,enter,295,1,1299.3999999761581,346799.2000000477,7021,WL,A,14.0
2,60.015000104904175,learn,-15.000104904174805,Wed Oct 02 2024 18:06:01 GMT-0500 (Central Daylight Time),350565.0,A,None,O,None,2461,1,2466.1999999284744,348098.8000000715,7021,WL,A,15.0
3,2.5830001831054688,learn,57416.99981689453,Wed Oct 02 2024 18:06:01 GMT-0500 (Central Daylight Time),420842.3000000715,A,b,O,b,2546,1,2582.0,418260.3000000715,7021,WL,A,1.0
3,2.883000135421753,learn,57116.99986457825,Wed Oct 02 2024 18:06:01 GMT-0500 (Central Daylight Time),421142.0,A,bo,O,o,272,1,2881.6999999284744,418260.3000000715,7021,WL,A,1.0
3,3.0490000247955322,learn,56950.99997520447,Wed Oct 02 2024 18:06:01 GMT-0500 (Central Daylight Time),421308.5,A,boo,O,o,136,1,3048.1999999284744,418260.3000000715,7021,WL,A,1.0
3,3.881999969482422,learn,56118.00003051758,Wed Oct 02 2024 18:06:01 GMT-0500 (Central Daylight Time),422141.7000000477,A,book,O,k,801,1,3881.399999976158,418260.3000000715,7021,WL,A,1.0
3,4.29800009727478,learn,55701.99990272522,Wed Oct 02 2024 18:06:01 GMT-0500 (Central Daylight Time),422557.5,A,bookenter,O,enter,385,1,4297.199999928474,418260.3000000715,7021,WL,A,1.0
3,4.79800009727478,learn,55201.99990272522,Wed Oct 02 2024 18:06:01 GMT-0500 (Central Daylight Time),423057.3000000715,A,f,O,f,488,1,499.40000009536743,422557.89999997616,7021,WL,A,2.0
3,5.098999977111816,learn,54901.00002288818,Wed Oct 02 2024 18:06:01 GMT-0500 (Central Daylight Time),423358.10000002384,A,fl,O,l,285,1,800.2000000476837,422557.89999997616,7021,WL,A,2.0
3,5.332000017166138,learn,54667.99998283386,Wed Oct 02 2024 18:06:01 GMT-0500 (Central Daylight Time),423591.3000000715,A,flo,O,o,207,1,1033.4000000953674,422557.89999997616,7021,WL,A,2.0
3,5.515000104904175,learn,54484.999895095825,Wed Oct 02 2024 18:06:01 GMT-0500 (Central Daylight Time),423774.39999997616,A,flow,O,w,158,1,1216.5,422557.89999997616,7021,WL,A,2.0
3,5.664999961853027,learn,54335.00003814697,Wed Oct 02 2024 18:06:01 GMT-0500 (Central Daylight Time),423924.2000000477,A,flowe,O,e,128,1,1366.3000000715256,422557.89999997616,7021,WL,A,2.0
3,5.79800009727478,learn,54201.99990272522,Wed Oct 02 2024 18:06:01 GMT-0500 (Central Daylight Time),424057.7000000477,A,flower,O,r,107,1,1499.8000000715256,422557.89999997616,7021,WL,A,2.0
3,6.331000089645386,learn,53668.999910354614,Wed Oct 02 2024 18:06:01 GMT-0500 (Central Daylight Time),424590.2000000477,A,flowerenter,O,enter,500,1,2032.3000000715256,422557.89999997616,7021,WL,A,2.0
3,6.781000137329102,learn,53218.9998626709,Wed Oct 02 2024 18:06:01 GMT-0500 (Central Daylight Time),425040.8000000715,A,t,O,t,440,1,450.2000000476837,424590.60000002384,7021,WL,A,3.0
3,7.031000137329102,learn,52968.9998626709,Wed Oct 02 2024 18:06:01 GMT-0500 (Central Daylight Time),425290.60000002384,A,tr,O,r,213,1,700.0,424590.60000002384,7021,WL,A,3.0
3,7.114000082015991,learn,52885.99991798401,Wed Oct 02 2024 18:06:01 GMT-0500 (Central Daylight Time),425373.60000002384,A,tra,O,a,63,1,783.0,424590.60000002384,7021,WL,A,3.0
3,7.2820000648498535,learn,52717.99993515015,Wed Oct 02 2024 18:06:01 GMT-0500 (Central Daylight Time),425541.0,A,trai,O,i,156,1,950.3999999761581,424590.60000002384,7021,WL,A,3.0
3,7.498000144958496,learn,52501.999855041504,Wed Oct 02 2024 18:06:01 GMT-0500 (Central Daylight Time),425757.10000002384,A,train,O,n,184,1,1166.5,424590.60000002384,7021,WL,A,3.0
3,7.7799999713897705,learn,52220.00002861023,Wed Oct 02 2024 18:06:01 GMT-0500 (Central Daylight Time),426039.8000000715,A,trainenter,O,enter,256,1,1449.2000000476837,424590.60000002384,7021,WL,A,3.0
3,8.164000034332275,learn,51835.999965667725,Wed Oct 02 2024 18:06:01 GMT-0500 (Central Daylight Time),426423.89999997616,A,r,O,r,367,1,383.89999997615814,426040.0,7021,WL,A,4.0
3,8.414000034332275,learn,51585.999965667725,Wed Oct 02 2024 18:06:01 GMT-0500 (Central Daylight Time),426673.60000002384,A,ru,O,u,212,1,633.6000000238419,426040.0,7021,WL,A,4.0
3,8.614000082015991,learn,51385.99991798401,Wed Oct 02 2024 18:06:01 GMT-0500 (Central Daylight Time),426873.39999997616,A,rug,O,g,165,1,833.3999999761581,426040.0,7021,WL,A,4.0
3,8.980000019073486,learn,51019.999980926514,Wed Oct 02 2024 18:06:01 GMT-0500 (Central Daylight Time),427239.2000000477,A,rugenter,O,enter,332,1,1199.2000000476837,426040.0,7021,WL,A,4.0
3,10.430000066757202,learn,49569.9999332428,Wed Oct 02 2024 18:06:01 GMT-0500 (Central Daylight Time),428689.5,A,m,O,m,1431,1,1450.0,427239.5,7021,WL,A,5.0
3,10.630000114440918,learn,49369.99988555908,Wed Oct 02 2024 18:06:01 GMT-0500 (Central Daylight Time),428889.5,A,me,O,e,172,1,1650.0,427239.5,7021,WL,A,5.0
3,10.77999997138977,learn,49220.00002861023,Wed Oct 02 2024 18:06:01 GMT-0500 (Central Daylight Time),429039.10000002384,A,mea,O,a,127,1,1799.6000000238419,427239.5,7021,WL,A,5.0
3,10.963000059127808,learn,49036.99994087219,Wed Oct 02 2024 18:06:01 GMT-0500 (Central Daylight Time),429222.60000002384,A,mead,O,d,161,1,1983.1000000238419,427239.5,7021,WL,A,5.0
3,11.128999948501587,learn,48871.00005149841,Wed Oct 02 2024 18:06:01 GMT-0500 (Central Daylight Time),429388.7000000477,A,meado,O,o,136,1,2149.2000000476837,427239.5,7021,WL,A,5.0
3,11.330000162124634,learn,48669.999837875366,Wed Oct 02 2024 18:06:01 GMT-0500 (Central Daylight Time),429589.10000002384,A,meadow,O,w,193,1,2349.600000023842,427239.5,7021,WL,A,5.0
3,13.462000131607056,learn,46537.999868392944,Wed Oct 02 2024 18:06:01 GMT-0500 (Central Daylight Time),431721.2000000477,A,meadowenter,O,enter,2104,1,4481.700000047684,427239.5,7021,WL,A,5.0
3,14.078999996185303,learn,45921.0000038147,Wed Oct 02 2024 18:06:01 GMT-0500 (Central Daylight Time),432338.3000000715,A,h,O,h,605,1,616.9000000953674,431721.39999997616,7021,WL,A,6.0
3,14.212000131607056,learn,45787.999868392944,Wed Oct 02 2024 18:06:01 GMT-0500 (Central Daylight Time),432471.60000002384,A,ha,O,a,108,1,750.2000000476837,431721.39999997616,7021,WL,A,6.0
3,14.496000051498413,learn,45503.99994850159,Wed Oct 02 2024 18:06:01 GMT-0500 (Central Daylight Time),432754.89999997616,A,har,O,r,255,1,1033.5,431721.39999997616,7021,WL,A,6.0
3,14.729000091552734,learn,45270.999908447266,Wed Oct 02 2024 18:06:01 GMT-0500 (Central Daylight Time),432988.2000000477,A,harp,O,p,202,1,1266.8000000715256,431721.39999997616,7021,WL,A,6.0
3,16.89400005340576,learn,43105.99994659424,Wed Oct 02 2024 18:06:01 GMT-0500 (Central Daylight Time),435153.39999997616,A,harpenter,O,enter,2129,1,3432.0,431721.39999997616,7021,WL,A,6.0
3,19.81000018119812,learn,40189.99981880188,Wed Oct 02 2024 18:06:01 GMT-0500 (Central Daylight Time),438069.60000002384,A,f,O,f,2909,1,2916.0,435153.60000002384,7021,WL,A,7.0
3,19.97699999809265,learn,40023.00000190735,Wed Oct 02 2024 18:06:01 GMT-0500 (Central Daylight Time),438236.39999997616,A,fi,O,i,130,1,3082.7999999523163,435153.60000002384,7021,WL,A,7.0
3,20.194000005722046,learn,39805.999994277954,Wed Oct 02 2024 18:06:01 GMT-0500 (Central Daylight Time),438453.0,A,fin,O,n,186,1,3299.399999976158,435153.60000002384,7021,WL,A,7.0
3,20.292999982833862,learn,39707.00001716614,Wed Oct 02 2024 18:06:01 GMT-0500 (Central Daylight Time),438552.7000000477,A,fing,O,g,74,1,3399.100000023842,435153.60000002384,7021,WL,A,7.0
3,20.526999950408936,learn,39473.000049591064,Wed Oct 02 2024 18:06:01 GMT-0500 (Central Daylight Time),438786.3000000715,A,finge,O,e,205,1,3632.7000000476837,435153.60000002384,7021,WL,A,7.0
3,20.593000173568726,learn,39406.999826431274,Wed Oct 02 2024 18:06:01 GMT-0500 (Central Daylight Time),438852.2000000477,A,finger,O,r,43,1,3698.600000023842,435153.60000002384,7021,WL,A,7.0
3,20.960000038146973,learn,39039.99996185303,Wed Oct 02 2024 18:06:01 GMT-0500 (Central Daylight Time),439218.7000000477,A,fingerenter,O,enter,341,1,4065.100000023842,435153.60000002384,7021,WL,A,7.0
3,21.926000118255615,learn,38073.999881744385,Wed Oct 02 2024 18:06:01 GMT-0500 (Central Daylight Time),440185.8000000715,A,s,O,s,955,1,966.8000000715256,439219.0,7021,WL,A,8.0
3,22.210000038146973,learn,37789.99996185303,Wed Oct 02 2024 18:06:01 GMT-0500 (Central Daylight Time),440469.0,A,sa,O,a,252,1,1250.0,439219.0,7021,WL,A,8.0
3,22.542999982833862,learn,37457.00001716614,Wed Oct 02 2024 18:06:01 GMT-0500 (Central Daylight Time),440802.2000000477,A,sal,O,l,307,1,1583.2000000476837,439219.0,7021,WL,A,8.0
3,22.843000173568726,learn,37156.999826431274,Wed Oct 02 2024 18:06:01 GMT-0500 (Central Daylight Time),441102.10000002384,A,salt,O,t,271,1,1883.1000000238419,439219.0,7021,WL,A,8.0
3,23.55900001525879,learn,36440.99998474121,Wed Oct 02 2024 18:06:01 GMT-0500 (Central Daylight Time),441817.89999997616,A,saltenter,O,enter,686,1,2598.899999976158,439219.0,7021,WL,A,8.0
3,24.842000007629395,learn,35157.999992370605,Wed Oct 02 2024 18:06:01 GMT-0500 (Central Daylight Time),443101.7000000477,A,a,O,a,1277,1,1283.6000000238419,441818.10000002384,7021,WL,A,9.0
3,25.259000062942505,learn,34740.999937057495,Wed Oct 02 2024 18:06:01 GMT-0500 (Central Daylight Time),443518.0,A,ap,O,p,384,1,1699.8999999761581,441818.10000002384,7021,WL,A,9.0
3,25.424999952316284,learn,34575.000047683716,Wed Oct 02 2024 18:06:01 GMT-0500 (Central Daylight Time),443683.8000000715,A,app,O,p,126,1,1865.7000000476837,441818.10000002384,7021,WL,A,9.0
3,25.674999952316284,learn,34325.000047683716,Wed Oct 02 2024 18:06:01 GMT-0500 (Central Daylight Time),443934.5,A,appl,O,l,242,1,2116.399999976158,441818.10000002384,7021,WL,A,9.0
3,25.825000047683716,learn,34174.999952316284,Wed Oct 02 2024 18:06:01 GMT-0500 (Central Daylight Time),444084.5,A,apple,O,e,121,1,2266.399999976158,441818.10000002384,7021,WL,A,9.0
3,26.258000135421753,learn,33741.99986457825,Wed Oct 02 2024 18:06:01 GMT-0500 (Central Daylight Time),444517.0,A,appleenter,O,enter,400,1,2698.899999976158,441818.10000002384,7021,WL,A,9.0
3,26.624000072479248,learn,33375.99992752075,Wed Oct 02 2024 18:06:01 GMT-0500 (Central Daylight Time),444883.5,A,c,O,c,361,1,366.2999999523163,444517.2000000477,7021,WL,A,10.0
3,26.77400016784668,learn,33225.99983215332,Wed Oct 02 2024 18:06:01 GMT-0500 (Central Daylight Time),445033.7000000477,A,ch,O,h,128,1,516.5,444517.2000000477,7021,WL,A,10.0
3,26.924000024795532,learn,33075.99997520447,Wed Oct 02 2024 18:06:01 GMT-0500 (Central Daylight Time),445183.39999997616,A,chi,O,i,125,1,666.1999999284744,444517.2000000477,7021,WL,A,10.0
3,27.19099998474121,learn,32809.00001525879,Wed Oct 02 2024 18:06:01 GMT-0500 (Central Daylight Time),445449.89999997616,A,chim,O,m,244,1,932.6999999284744,444517.2000000477,7021,WL,A,10.0
3,27.473999977111816,learn,32526.000022888184,Wed Oct 02 2024 18:06:01 GMT-0500 (Central Daylight Time),445733.3000000715,A,chimn,O,n,267,1,1216.1000000238419,444517.2000000477,7021,WL,A,10.0
3,27.591000080108643,learn,32408.999919891357,Wed Oct 02 2024 18:06:01 GMT-0500 (Central Daylight Time),445849.89999997616,A,chimne,O,e,100,1,1332.6999999284744,444517.2000000477,7021,WL,A,10.0
3,27.874000072479248,learn,32125.999927520752,Wed Oct 02 2024 18:06:01 GMT-0500 (Central Daylight Time),446133.0,A,chimney,O,y,275,1,1615.7999999523163,444517.2000000477,7021,WL,A,10.0
3,28.574000120162964,learn,31425.999879837036,Wed Oct 02 2024 18:06:01 GMT-0500 (Central Daylight Time),446832.89999997616,A,chimneyenter,O,enter,687,1,2315.6999999284744,444517.2000000477,7021,WL,A,10.0
3,32.42200016975403,learn,27577.99983024597,Wed Oct 02 2024 18:06:01 GMT-0500 (Central Daylight Time),450681.60000002384,A,k,O,k,3829,1,3848.399999976158,446833.2000000477,7021,WL,A,11.0
3,32.94000005722046,learn,27059.99994277954,Wed Oct 02 2024 18:06:01 GMT-0500 (Central Daylight Time),451199.0,A,ke,O,e,507,1,4365.799999952316,446833.2000000477,7021,WL,A,11.0
3,33.18900012969971,learn,26810.999870300293,Wed Oct 02 2024 18:06:01 GMT-0500 (Central Daylight Time),451448.60000002384,A,key,O,y,222,1,4615.399999976158,446833.2000000477,7021,WL,A,11.0
3,33.73900008201599,learn,26260.99991798401,Wed Oct 02 2024 18:06:01 GMT-0500 (Central Daylight Time),451997.8000000715,A,keyenter,O,enter,525,1,5164.600000023842,446833.2000000477,7021,WL,A,11.0
3,34.13900017738342,learn,25860.999822616577,Wed Oct 02 2024 18:06:01 GMT-0500 (Central Daylight Time),452398.5,A,r,O,r,384,1,400.39999997615814,451998.10000002384,7021,WL,A,12.0
3,34.289000034332275,learn,25710.999965667725,Wed Oct 02 2024 18:06:01 GMT-0500 (Central Daylight Time),452548.39999997616,A,ra,O,a,112,1,550.2999999523163,451998.10000002384,7021,WL,A,12.0
3,34.456000089645386,learn,25543.999910354614,Wed Oct 02 2024 18:06:01 GMT-0500 (Central Daylight Time),452715.0,A,rat,O,t,130,1,716.8999999761581,451998.10000002384,7021,WL,A,12.0
3,34.6560001373291,learn,25343.9998626709,Wed Oct 02 2024 18:06:01 GMT-0500 (Central Daylight Time),452915.0,A,ratt,O,t,162,1,916.8999999761581,451998.10000002384,7021,WL,A,12.0
3,35.121999979019165,learn,24878.000020980835,Wed Oct 02 2024 18:06:01 GMT-0500 (Central Daylight Time),453381.39999997616,A,rattl,O,l,435,1,1383.2999999523163,451998.10000002384,7021,WL,A,12.0
3,35.2720000743866,learn,24727.999925613403,Wed Oct 02 2024 18:06:01 GMT-0500 (Central Daylight Time),453531.60000002384,A,rattle,O,e,112,1,1533.5,451998.10000002384,7021,WL,A,12.0
3,35.705000162124634,learn,24294.999837875366,Wed Oct 02 2024 18:06:01 GMT-0500 (Central Daylight Time),453963.89999997616,A,rattleenter,O,enter,400,1,1965.7999999523163,451998.10000002384,7021,WL,A,12.0
3,37.855000019073486,learn,22144.999980926514,Wed Oct 02 2024 18:06:01 GMT-0500 (Central Daylight Time),456113.89999997616,A,g,O,g,2130,1,2149.6999999284744,453964.2000000477,7021,WL,A,13.0
3,38.05400013923645,learn,21945.99986076355,Wed Oct 02 2024 18:06:01 GMT-0500 (Central Daylight Time),456313.8000000715,A,go,O,o,172,1,2349.600000023842,453964.2000000477,7021,WL,A,13.0
3,38.271000146865845,learn,21728.999853134155,Wed Oct 02 2024 18:06:01 GMT-0500 (Central Daylight Time),456530.3000000715,A,gol,O,l,184,1,2566.100000023842,453964.2000000477,7021,WL,A,13.0
3,38.4539999961853,learn,21546.000003814697,Wed Oct 02 2024 18:06:01 GMT-0500 (Central Daylight Time),456713.60000002384,A,gold,O,d,149,1,2749.399999976158,453964.2000000477,7021,WL,A,13.0
3,39.15300011634827,learn,20846.999883651733,Wed Oct 02 2024 18:06:01 GMT-0500 (Central Daylight Time),457412.7000000477,A,goldenter,O,enter,676,1,3448.5,453964.2000000477,7021,WL,A,13.0
3,60.015000104904175,learn,-15.000104904174805,Wed Oct 02 2024 18:06:01 GMT-0500 (Central Daylight Time),478273.2000000477,A,None,O,None,20855,1,20860.200000047684,457413.0,7021,WL,A,14.0
4,1.383000135421753,learn,58616.99986457825,Wed Oct 02 2024 18:06:01 GMT-0500 (Central Daylight Time),545618.2000000477,A,b,O,b,1347,1,1382.5,544235.7000000477,7021,WL,A,1.0
4,1.7829999923706055,learn,58217.000007629395,Wed Oct 02 2024 18:06:01 GMT-0500 (Central Daylight Time),546017.7000000477,A,bo,O,o,373,1,1782.0,544235.7000000477,7021,WL,A,1.0
4,1.933000087738037,learn,58066.99991226196,Wed Oct 02 2024 18:06:01 GMT-0500 (Central Daylight Time),546167.7000000477,A,boo,O,o,124,1,1932.0,544235.7000000477,7021,WL,A,1.0
4,2.2820000648498535,learn,57717.99993515015,Wed Oct 02 2024 18:06:01 GMT-0500 (Central Daylight Time),546517.5,A,book,O,k,318,1,2281.7999999523163,544235.7000000477,7021,WL,A,1.0
4,2.682000160217285,learn,57317.999839782715,Wed Oct 02 2024 18:06:01 GMT-0500 (Central Daylight Time),546916.7000000477,A,bookenter,O,enter,375,1,2681.0,544235.7000000477,7021,WL,A,1.0
4,3.015000104904175,learn,56984.999895095825,Wed Oct 02 2024 18:06:01 GMT-0500 (Central Daylight Time),547250.3999999762,A,f,O,f,322,1,333.5,546916.8999999762,7021,WL,A,2.0
4,3.3489999771118164,learn,56651.00002288818,Wed Oct 02 2024 18:06:01 GMT-0500 (Central Daylight Time),547583.8999999762,A,fl,O,l,300,1,667.0,546916.8999999762,7021,WL,A,2.0
4,3.631999969482422,learn,56368.00003051758,Wed Oct 02 2024 18:06:01 GMT-0500 (Central Daylight Time),547867.1000000238,A,flo,O,o,254,1,950.2000000476837,546916.8999999762,7021,WL,A,2.0
4,3.8480000495910645,learn,56151.999950408936,Wed Oct 02 2024 18:06:01 GMT-0500 (Central Daylight Time),548083.1000000238,A,flow,O,w,186,1,1166.2000000476837,546916.8999999762,7021,WL,A,2.0
4,3.9820001125335693,learn,56017.99988746643,Wed Oct 02 2024 18:06:01 GMT-0500 (Central Daylight Time),548216.8999999762,A,flowe,O,e,118,1,1300.0,546916.8999999762,7021,WL,A,2.0
4,4.164999961853027,learn,55835.00003814697,Wed Oct 02 2024 18:06:01 GMT-0500 (Central Daylight Time),548400.3000000715,A,flower,O,r,148,1,1483.4000000953674,546916.8999999762,7021,WL,A,2.0
4,4.981000185012817,learn,55018.99981498718,Wed Oct 02 2024 18:06:01 GMT-0500 (Central Daylight Time),549216.0,A,flowerenter,O,enter,779,1,2299.100000023842,546916.8999999762,7021,WL,A,2.0
4,6.430999994277954,learn,53569.000005722046,Wed Oct 02 2024 18:06:01 GMT-0500 (Central Daylight Time),550666.2000000477,A,t,O,t,1430,1,1449.8999999761581,549216.3000000715,7021,WL,A,3.0
4,6.680000066757202,learn,53319.9999332428,Wed Oct 02 2024 18:06:01 GMT-0500 (Central Daylight Time),550915.3999999762,A,tr,O,r,217,1,1699.0999999046326,549216.3000000715,7021,WL,A,3.0
4,6.764000177383423,learn,53235.99982261658,Wed Oct 02 2024 18:06:01 GMT-0500 (Central Daylight Time),550999.3000000715,A,tra,O,a,75,1,1783.0,549216.3000000715,7021,WL,A,3.0
4,6.998000144958496,learn,53001.999855041504,Wed Oct 02 2024 18:06:01 GMT-0500 (Central Daylight Time),551232.7000000477,A,trai,O,i,199,1,2016.3999999761581,549216.3000000715,7021,WL,A,3.0
4,7.21399998664856,learn,52786.00001335144,Wed Oct 02 2024 18:06:01 GMT-0500 (Central Daylight Time),551449.3000000715,A,train,O,n,187,1,2233.0,549216.3000000715,7021,WL,A,3.0
4,7.480000019073486,learn,52519.999980926514,Wed Oct 02 2024 18:06:01 GMT-0500 (Central Daylight Time),551715.1000000238,A,trainenter,O,enter,235,1,2498.7999999523163,549216.3000000715,7021,WL,A,3.0
4,7.864000082015991,learn,52135.99991798401,Wed Oct 02 2024 18:06:01 GMT-0500 (Central Daylight Time),552098.8999999762,A,r,O,r,363,1,383.5,551715.3999999762,7021,WL,A,4.0
4,8.147000074386597,learn,51852.9999256134,Wed Oct 02 2024 18:06:01 GMT-0500 (Central Daylight Time),552381.8000000715,A,ru,O,u,253,1,666.4000000953674,551715.3999999762,7021,WL,A,4.0
4,8.414000034332275,learn,51585.999965667725,Wed Oct 02 2024 18:06:01 GMT-0500 (Central Daylight Time),552648.7000000477,A,rug,O,g,243,1,933.3000000715256,551715.3999999762,7021,WL,A,4.0
4,8.896000146865845,learn,51103.999853134155,Wed Oct 02 2024 18:06:01 GMT-0500 (Central Daylight Time),553131.3999999762,A,rugenter,O,enter,457,1,1416.0,551715.3999999762,7021,WL,A,4.0
4,12.396000146865845,learn,47603.999853134155,Wed Oct 02 2024 18:06:01 GMT-0500 (Central Daylight Time),556630.8999999762,A,s,O,s,3492,1,3499.2999999523163,553131.6000000238,7021,WL,A,5.0
4,12.662000179290771,learn,47337.99982070923,Wed Oct 02 2024 18:06:01 GMT-0500 (Central Daylight Time),556897.2000000477,A,sa,O,a,241,1,3765.600000023842,553131.6000000238,7021,WL,A,5.0
4,12.812000036239624,learn,47187.999963760376,Wed Oct 02 2024 18:06:01 GMT-0500 (Central Daylight Time),557047.5,A,sal,O,l,118,1,3915.899999976158,553131.6000000238,7021,WL,A,5.0
4,13.061000108718872,learn,46938.99989128113,Wed Oct 02 2024 18:06:01 GMT-0500 (Central Daylight Time),557296.3999999762,A,salt,O,t,223,1,4164.799999952316,553131.6000000238,7021,WL,A,5.0
4,13.34500002861023,learn,46654.99997138977,Wed Oct 02 2024 18:06:01 GMT-0500 (Central Daylight Time),557579.8999999762,A,saltenter,O,enter,268,1,4448.299999952316,553131.6000000238,7021,WL,A,5.0
4,13.778000116348267,learn,46221.99988365173,Wed Oct 02 2024 18:06:01 GMT-0500 (Central Daylight Time),558013.5,A,f,O,f,426,1,433.2999999523163,557580.2000000477,7021,WL,A,6.0
4,13.978000164031982,learn,46021.99983596802,Wed Oct 02 2024 18:06:01 GMT-0500 (Central Daylight Time),558213.3999999762,A,fi,O,i,181,1,633.1999999284744,557580.2000000477,7021,WL,A,6.0
4,14.245000123977661,learn,45754.99987602234,Wed Oct 02 2024 18:06:01 GMT-0500 (Central Daylight Time),558480.3999999762,A,fin,O,n,230,1,900.1999999284744,557580.2000000477,7021,WL,A,6.0
4,14.361999988555908,learn,45638.00001144409,Wed Oct 02 2024 18:06:01 GMT-0500 (Central Daylight Time),558596.8999999762,A,fing,O,g,78,1,1016.6999999284744,557580.2000000477,7021,WL,A,6.0
4,14.57800006866455,learn,45421.99993133545,Wed Oct 02 2024 18:06:01 GMT-0500 (Central Daylight Time),558813.5,A,finge,O,e,185,1,1233.2999999523163,557580.2000000477,7021,WL,A,6.0
4,14.644999980926514,learn,45355.000019073486,Wed Oct 02 2024 18:06:01 GMT-0500 (Central Daylight Time),558879.7000000477,A,finger,O,r,40,1,1299.5,557580.2000000477,7021,WL,A,6.0
4,15.111000061035156,learn,44888.999938964844,Wed Oct 02 2024 18:06:01 GMT-0500 (Central Daylight Time),559345.8999999762,A,fingerenter,O,enter,437,1,1765.6999999284744,557580.2000000477,7021,WL,A,6.0
4,15.91100001335144,learn,44088.99998664856,Wed Oct 02 2024 18:06:01 GMT-0500 (Central Daylight Time),560146.3999999762,A,a,O,a,779,1,800.1999999284744,559346.2000000477,7021,WL,A,7.0
4,16.194000005722046,learn,43805.999994277954,Wed Oct 02 2024 18:06:01 GMT-0500 (Central Daylight Time),560429.5,A,ap,O,p,252,1,1083.2999999523163,559346.2000000477,7021,WL,A,7.0
4,16.361000061035156,learn,43638.999938964844,Wed Oct 02 2024 18:06:01 GMT-0500 (Central Daylight Time),560596.5,A,app,O,p,145,1,1250.2999999523163,559346.2000000477,7021,WL,A,7.0
4,16.611000061035156,learn,43388.999938964844,Wed Oct 02 2024 18:06:01 GMT-0500 (Central Daylight Time),560846.3000000715,A,appl,O,l,217,1,1500.1000000238419,559346.2000000477,7021,WL,A,7.0
4,16.778000116348267,learn,43221.99988365173,Wed Oct 02 2024 18:06:01 GMT-0500 (Central Daylight Time),561013.3999999762,A,apple,O,e,136,1,1667.1999999284744,559346.2000000477,7021,WL,A,7.0
4,17.044000148773193,learn,42955.99985122681,Wed Oct 02 2024 18:06:01 GMT-0500 (Central Daylight Time),561278.7000000477,A,appleenter,O,enter,243,1,1932.5,559346.2000000477,7021,WL,A,7.0
4,17.39400005340576,learn,42605.99994659424,Wed Oct 02 2024 18:06:01 GMT-0500 (Central Daylight Time),561629.3000000715,A,c,O,c,344,1,350.3000000715256,561279.0,7021,WL,A,8.0
4,17.611000061035156,learn,42388.999938964844,Wed Oct 02 2024 18:06:01 GMT-0500 (Central Daylight Time),561845.8999999762,A,ch,O,h,185,1,566.8999999761581,561279.0,7021,WL,A,8.0
4,18.8270001411438,learn,41172.9998588562,Wed Oct 02 2024 18:06:01 GMT-0500 (Central Daylight Time),563062.0,A,chi,O,i,1192,1,1783.0,561279.0,7021,WL,A,8.0
4,19.16000008583069,learn,40839.99991416931,Wed Oct 02 2024 18:06:01 GMT-0500 (Central Daylight Time),563395.3999999762,A,chim,O,m,296,1,2116.399999976158,561279.0,7021,WL,A,8.0
4,20.110000133514404,learn,39889.999866485596,Wed Oct 02 2024 18:06:01 GMT-0500 (Central Daylight Time),564344.7000000477,A,chimn,O,n,923,1,3065.7000000476837,561279.0,7021,WL,A,8.0
4,20.210000038146973,learn,39789.99996185303,Wed Oct 02 2024 18:06:01 GMT-0500 (Central Daylight Time),564445.2000000477,A,chimne,O,e,80,1,3166.2000000476837,561279.0,7021,WL,A,8.0
4,20.610000133514404,learn,39389.999866485596,Wed Oct 02 2024 18:06:01 GMT-0500 (Central Daylight Time),564844.8999999762,A,chimney,O,y,376,1,3565.899999976158,561279.0,7021,WL,A,8.0
4,21.29200005531311,learn,38707.99994468689,Wed Oct 02 2024 18:06:01 GMT-0500 (Central Daylight Time),565527.3000000715,A,chimneyenter,O,enter,656,1,4248.300000071526,561279.0,7021,WL,A,8.0
4,25.19099998474121,learn,34809.00001525879,Wed Oct 02 2024 18:06:01 GMT-0500 (Central Daylight Time),569426.7000000477,A,r,O,r,3888,1,3899.2000000476837,565527.5,7021,WL,A,9.0
4,25.424999952316284,learn,34575.000047683716,Wed Oct 02 2024 18:06:01 GMT-0500 (Central Daylight Time),569659.8999999762,A,ra,O,a,203,1,4132.399999976158,565527.5,7021,WL,A,9.0
4,25.725000143051147,learn,34274.99985694885,Wed Oct 02 2024 18:06:01 GMT-0500 (Central Daylight Time),569959.7000000477,A,rat,O,t,267,1,4432.200000047684,565527.5,7021,WL,A,9.0
4,25.85700011253357,learn,34142.99988746643,Wed Oct 02 2024 18:06:01 GMT-0500 (Central Daylight Time),570092.2000000477,A,ratt,O,t,108,1,4564.700000047684,565527.5,7021,WL,A,9.0
4,26.10800004005432,learn,33891.99995994568,Wed Oct 02 2024 18:06:01 GMT-0500 (Central Daylight Time),570343.0,A,rattl,O,l,234,1,4815.5,565527.5,7021,WL,A,9.0
4,26.258000135421753,learn,33741.99986457825,Wed Oct 02 2024 18:06:01 GMT-0500 (Central Daylight Time),570493.0,A,rattle,O,e,122,1,4965.5,565527.5,7021,WL,A,9.0
4,26.94000005722046,learn,33059.99994277954,Wed Oct 02 2024 18:06:01 GMT-0500 (Central Daylight Time),571175.3000000715,A,rattleenter,O,enter,649,1,5647.800000071526,565527.5,7021,WL,A,9.0
4,27.657999992370605,learn,32342.000007629395,Wed Oct 02 2024 18:06:01 GMT-0500 (Central Daylight Time),571893.0,A,k,O,k,711,1,717.3999999761581,571175.6000000238,7021,WL,A,10.0
4,27.85700011253357,learn,32142.99988746643,Wed Oct 02 2024 18:06:01 GMT-0500 (Central Daylight Time),572092.5,A,ke,O,e,161,1,916.8999999761581,571175.6000000238,7021,WL,A,10.0
4,28.174000024795532,learn,31825.999975204468,Wed Oct 02 2024 18:06:01 GMT-0500 (Central Daylight Time),572409.1000000238,A,key,O,y,281,1,1233.5,571175.6000000238,7021,WL,A,10.0
4,28.94000005722046,learn,31059.99994277954,Wed Oct 02 2024 18:06:01 GMT-0500 (Central Daylight Time),573174.8000000715,A,keyenter,O,enter,731,1,1999.2000000476837,571175.6000000238,7021,WL,A,10.0
4,30.207000017166138,learn,29792.999982833862,Wed Oct 02 2024 18:06:01 GMT-0500 (Central Daylight Time),574441.8000000715,A,b,O,b,1256,1,1266.8000000715256,573175.0,7021,WL,A,11.0
4,30.539999961853027,learn,29460.000038146973,Wed Oct 02 2024 18:06:01 GMT-0500 (Central Daylight Time),574774.8999999762,A,bu,O,u,299,1,1599.8999999761581,573175.0,7021,WL,A,11.0
4,30.740000009536743,learn,29259.999990463257,Wed Oct 02 2024 18:06:01 GMT-0500 (Central Daylight Time),574974.8999999762,A,but,O,t,167,1,1799.8999999761581,573175.0,7021,WL,A,11.0
4,30.890000104904175,learn,29109.999895095825,Wed Oct 02 2024 18:06:01 GMT-0500 (Central Daylight Time),575125.2000000477,A,butt,O,t,128,1,1950.2000000476837,573175.0,7021,WL,A,11.0
4,31.055999994277954,learn,28944.000005722046,Wed Oct 02 2024 18:06:01 GMT-0500 (Central Daylight Time),575291.5,A,butto,O,o,137,1,2116.5,573175.0,7021,WL,A,11.0
4,31.356000185012817,learn,28643.999814987183,Wed Oct 02 2024 18:06:01 GMT-0500 (Central Daylight Time),575591.3000000715,A,button,O,n,268,1,2416.3000000715256,573175.0,7021,WL,A,11.0
4,32.50600004196167,learn,27493.99995803833,Wed Oct 02 2024 18:06:01 GMT-0500 (Central Daylight Time),576740.7000000477,A,buttonl,O,l,1112,1,3565.7000000476837,573175.0,7021,WL,A,11.0
4,32.72200012207031,learn,27277.999877929688,Wed Oct 02 2024 18:06:01 GMT-0500 (Central Daylight Time),576957.3000000715,A,buttonlo,O,o,193,1,3782.3000000715256,573175.0,7021,WL,A,11.0
4,32.92200016975403,learn,27077.99983024597,Wed Oct 02 2024 18:06:01 GMT-0500 (Central Daylight Time),577157.3000000715,A,buttonlog,O,g,175,1,3982.3000000715256,573175.0,7021,WL,A,11.0
4,33.705000162124634,learn,26294.999837875366,Wed Oct 02 2024 18:06:01 GMT-0500 (Central Daylight Time),577939.8999999762,A,buttonlogenter,O,enter,744,1,4764.899999976158,573175.0,7021,WL,A,11.0
4,42.05299997329712,learn,17947.00002670288,Wed Oct 02 2024 18:06:01 GMT-0500 (Central Daylight Time),586287.8999999762,A,g,O,g,8340,1,8347.799999952316,577940.1000000238,7021,WL,A,12.0
4,42.236000061035156,learn,17763.999938964844,Wed Oct 02 2024 18:06:01 GMT-0500 (Central Daylight Time),586471.0,A,go,O,o,151,1,8530.899999976158,577940.1000000238,7021,WL,A,12.0
4,42.43600010871887,learn,17563.999891281128,Wed Oct 02 2024 18:06:01 GMT-0500 (Central Daylight Time),586671.0,A,gol,O,l,168,1,8730.899999976158,577940.1000000238,7021,WL,A,12.0
4,42.585999965667725,learn,17414.000034332275,Wed Oct 02 2024 18:06:01 GMT-0500 (Central Daylight Time),586821.0,A,gold,O,d,119,1,8880.899999976158,577940.1000000238,7021,WL,A,12.0
4,43.13499999046326,learn,16865.000009536743,Wed Oct 02 2024 18:06:01 GMT-0500 (Central Daylight Time),587370.0,A,goldenter,O,enter,520,1,9429.899999976158,577940.1000000238,7021,WL,A,12.0
4,45.18500018119812,learn,14814.99981880188,Wed Oct 02 2024 18:06:01 GMT-0500 (Central Daylight Time),589420.0,A,k,O,k,2036,1,2049.6999999284744,587370.3000000715,7021,WL,A,13.0
4,45.41799998283386,learn,14582.000017166138,Wed Oct 02 2024 18:06:01 GMT-0500 (Central Daylight Time),589653.2000000477,A,ke,O,e,212,1,2282.899999976158,587370.3000000715,7021,WL,A,13.0
4,45.735000133514404,learn,14264.999866485596,Wed Oct 02 2024 18:06:01 GMT-0500 (Central Daylight Time),589970.0,A,key,O,y,289,1,2599.6999999284744,587370.3000000715,7021,WL,A,13.0
4,46.50100016593933,learn,13498.999834060669,Wed Oct 02 2024 18:06:01 GMT-0500 (Central Daylight Time),590736.6000000238,A,keyr,O,r,731,1,3366.2999999523163,587370.3000000715,7021,WL,A,13.0
4,46.66799998283386,learn,13332.000017166138,Wed Oct 02 2024 18:06:01 GMT-0500 (Central Daylight Time),590903.0,A,keyra,O,a,134,1,3532.6999999284744,587370.3000000715,7021,WL,A,13.0
4,46.884000062942505,learn,13115.999937057495,Wed Oct 02 2024 18:06:01 GMT-0500 (Central Daylight Time),591119.3999999762,A,keyrat,O,t,181,1,3749.0999999046326,587370.3000000715,7021,WL,A,13.0
4,47.03400015830994,learn,12965.999841690063,Wed Oct 02 2024 18:06:01 GMT-0500 (Central Daylight Time),591269.3999999762,A,keyratt,O,t,125,1,3899.0999999046326,587370.3000000715,7021,WL,A,13.0
4,47.20099997520447,learn,12799.000024795532,Wed Oct 02 2024 18:06:01 GMT-0500 (Central Daylight Time),591436.1000000238,A,keyrattl,O,l,135,1,4065.7999999523163,587370.3000000715,7021,WL,A,13.0
4,47.33400011062622,learn,12665.99988937378,Wed Oct 02 2024 18:06:01 GMT-0500 (Central Daylight Time),591569.0,A,keyrattle,O,e,106,1,4198.699999928474,587370.3000000715,7021,WL,A,13.0
4,48.799999952316284,learn,11200.000047683716,Wed Oct 02 2024 18:06:01 GMT-0500 (Central Daylight Time),593035.5,A,keyrattl,O,backspace,1448,1,5665.199999928474,587370.3000000715,7021,WL,A,13.0
4,48.98399996757507,learn,11016.000032424927,Wed Oct 02 2024 18:06:01 GMT-0500 (Central Daylight Time),593219.0,A,keyratt,O,backspace,155,1,5848.699999928474,587370.3000000715,7021,WL,A,13.0
4,49.15000009536743,learn,10849.999904632568,Wed Oct 02 2024 18:06:01 GMT-0500 (Central Daylight Time),593385.6000000238,A,keyrat,O,backspace,139,1,6015.299999952316,587370.3000000715,7021,WL,A,13.0
4,49.31599998474121,learn,10684.000015258789,Wed Oct 02 2024 18:06:01 GMT-0500 (Central Daylight Time),593551.3999999762,A,keyra,O,backspace,139,1,6181.099999904633,587370.3000000715,7021,WL,A,13.0
4,49.48300004005432,learn,10516.999959945679,Wed Oct 02 2024 18:06:01 GMT-0500 (Central Daylight Time),593718.5,A,keyr,O,backspace,154,1,6348.199999928474,587370.3000000715,7021,WL,A,13.0
4,49.700000047683716,learn,10299.999952316284,Wed Oct 02 2024 18:06:01 GMT-0500 (Central Daylight Time),593935.3999999762,A,key,O,backspace,183,1,6565.099999904633,587370.3000000715,7021,WL,A,13.0
4,50.78400015830994,learn,9215.999841690063,Wed Oct 02 2024 18:06:01 GMT-0500 (Central Daylight Time),595017.6000000238,A,keyenter,O,enter,1053,1,7647.299999952316,587370.3000000715,7021,WL,A,13.0
4,51.151000022888184,learn,8848.999977111816,Wed Oct 02 2024 18:06:01 GMT-0500 (Central Daylight Time),595384.8999999762,A,r,O,r,349,1,367.0,595017.8999999762,7021,WL,A,14.0
4,51.28400015830994,learn,8715.999841690063,Wed Oct 02 2024 18:06:01 GMT-0500 (Central Daylight Time),595517.8000000715,A,ra,O,a,110,1,499.90000009536743,595017.8999999762,7021,WL,A,14.0
4,51.467000007629395,learn,8532.999992370605,Wed Oct 02 2024 18:06:01 GMT-0500 (Central Daylight Time),595700.7000000477,A,rat,O,t,159,1,682.8000000715256,595017.8999999762,7021,WL,A,14.0
4,51.634000062942505,learn,8365.999937057495,Wed Oct 02 2024 18:06:01 GMT-0500 (Central Daylight Time),595867.8999999762,A,ratt,O,t,153,1,850.0,595017.8999999762,7021,WL,A,14.0
4,51.83400011062622,learn,8165.999889373779,Wed Oct 02 2024 18:06:01 GMT-0500 (Central Daylight Time),596067.8999999762,A,rattl,O,l,162,1,1050.0,595017.8999999762,7021,WL,A,14.0
4,51.95099997520447,learn,8049.000024795532,Wed Oct 02 2024 18:06:01 GMT-0500 (Central Daylight Time),596184.0,A,rattle,O,e,89,1,1166.1000000238419,595017.8999999762,7021,WL,A,14.0
4,52.83400011062622,learn,7165.999889373779,Wed Oct 02 2024 18:06:01 GMT-0500 (Central Daylight Time),597066.8999999762,A,rattleenter,O,enter,854,1,2049.0,595017.8999999762,7021,WL,A,14.0
4,60.015000104904175,learn,-15.000104904174805,Wed Oct 02 2024 18:06:01 GMT-0500 (Central Daylight Time),604248.6000000238,A,None,O,None,7176,1,7181.399999976158,597067.2000000477,7021,WL,A,15.0
5,0.6159999370574951,learn,60000.0,Wed Oct 02 2024 18:06:01 GMT-0500 (Central Daylight Time),670426.3999999762,A,b,O,b,581,1,615.5999999046326,669810.8000000715,7021,WL,A,1.0
5,0.9330000877380371,learn,60000.0,Wed Oct 02 2024 18:06:01 GMT-0500 (Central Daylight Time),670743.7000000477,A,bo,O,o,305,1,932.8999999761581,669810.8000000715,7021,WL,A,1.0
5,1.0989999771118164,learn,60000.0,Wed Oct 02 2024 18:06:01 GMT-0500 (Central Daylight Time),670909.8000000715,A,boo,O,o,142,1,1099.0,669810.8000000715,7021,WL,A,1.0
5,1.3829998970031738,learn,60000.0,Wed Oct 02 2024 18:06:01 GMT-0500 (Central Daylight Time),671193.0,A,book,O,k,256,1,1382.1999999284744,669810.8000000715,7021,WL,A,1.0
5,1.9820001125335693,learn,60000.0,Wed Oct 02 2024 18:06:01 GMT-0500 (Central Daylight Time),671792.3999999762,A,bookenter,O,enter,565,1,1981.5999999046326,669810.8000000715,7021,WL,A,1.0
5,2.683000087738037,learn,60000.0,Wed Oct 02 2024 18:06:01 GMT-0500 (Central Daylight Time),672493.3000000715,A,f,O,f,693,1,700.6000000238419,671792.7000000477,7021,WL,A,2.0
5,2.931999921798706,learn,60000.0,Wed Oct 02 2024 18:06:01 GMT-0500 (Central Daylight Time),672742.7000000477,A,fl,O,l,217,1,950.0,671792.7000000477,7021,WL,A,2.0
5,3.131999969482422,learn,60000.0,Wed Oct 02 2024 18:06:01 GMT-0500 (Central Daylight Time),672942.5,A,flo,O,o,176,1,1149.7999999523163,671792.7000000477,7021,WL,A,2.0
5,3.3989999294281006,learn,60000.0,Wed Oct 02 2024 18:06:01 GMT-0500 (Central Daylight Time),673209.3999999762,A,flow,O,w,239,1,1416.6999999284744,671792.7000000477,7021,WL,A,2.0
5,3.5480000972747803,learn,60000.0,Wed Oct 02 2024 18:06:01 GMT-0500 (Central Daylight Time),673358.8999999762,A,flowe,O,e,117,1,1566.1999999284744,671792.7000000477,7021,WL,A,2.0
5,3.7320001125335693,learn,60000.0,Wed Oct 02 2024 18:06:01 GMT-0500 (Central Daylight Time),673542.5,A,flower,O,r,163,1,1749.7999999523163,671792.7000000477,7021,WL,A,2.0
5,4.2809998989105225,learn,60000.0,Wed Oct 02 2024 18:06:01 GMT-0500 (Central Daylight Time),674091.6000000238,A,flowerenter,O,enter,510,1,2298.899999976158,671792.7000000477,7021,WL,A,2.0
5,4.865000009536743,learn,60000.0,Wed Oct 02 2024 18:06:01 GMT-0500 (Central Daylight Time),674675.3000000715,A,t,O,t,562,1,583.4000000953674,674091.8999999762,7021,WL,A,3.0
5,5.098999977111816,learn,60000.0,Wed Oct 02 2024 18:06:01 GMT-0500 (Central Daylight Time),674909.1000000238,A,tr,O,r,211,1,817.2000000476837,674091.8999999762,7021,WL,A,3.0
5,5.230999946594238,learn,60000.0,Wed Oct 02 2024 18:06:01 GMT-0500 (Central Daylight Time),675041.3000000715,A,tra,O,a,108,1,949.4000000953674,674091.8999999762,7021,WL,A,3.0
5,5.447999954223633,learn,60000.0,Wed Oct 02 2024 18:06:01 GMT-0500 (Central Daylight Time),675258.7000000477,A,trai,O,i,200,1,1166.8000000715256,674091.8999999762,7021,WL,A,3.0
5,5.747999906539917,learn,60000.0,Wed Oct 02 2024 18:06:01 GMT-0500 (Central Daylight Time),675558.5,A,train,O,n,266,1,1466.6000000238419,674091.8999999762,7021,WL,A,3.0
5,6.897000074386597,learn,60000.0,Wed Oct 02 2024 18:06:01 GMT-0500 (Central Daylight Time),676707.3999999762,A,trainenter,O,enter,1110,1,2615.5,674091.8999999762,7021,WL,A,3.0
5,9.147000074386597,learn,60000.0,Wed Oct 02 2024 18:06:01 GMT-0500 (Central Daylight Time),678957.3000000715,A,r,O,r,2235,1,2249.600000023842,676707.7000000477,7021,WL,A,4.0
5,9.413000106811523,learn,60000.0,Wed Oct 02 2024 18:06:01 GMT-0500 (Central Daylight Time),679223.8000000715,A,ru,O,u,243,1,2516.100000023842,676707.7000000477,7021,WL,A,4.0
5,9.579999923706055,learn,60000.0,Wed Oct 02 2024 18:06:01 GMT-0500 (Central Daylight Time),679390.6000000238,A,rug,O,g,143,1,2682.899999976158,676707.7000000477,7021,WL,A,4.0
5,10.213000059127808,learn,60000.0,Wed Oct 02 2024 18:06:01 GMT-0500 (Central Daylight Time),680023.0,A,rugenter,O,enter,600,1,3315.2999999523163,676707.7000000477,7021,WL,A,4.0
5,11.27999997138977,learn,60000.0,Wed Oct 02 2024 18:06:01 GMT-0500 (Central Daylight Time),681090.2000000477,A,m,O,m,1048,1,1067.0,680023.2000000477,7021,WL,A,5.0
5,11.395999908447266,learn,60000.0,Wed Oct 02 2024 18:06:01 GMT-0500 (Central Daylight Time),681206.7000000477,A,me,O,e,92,1,1183.5,680023.2000000477,7021,WL,A,5.0
5,11.578999996185303,learn,60000.0,Wed Oct 02 2024 18:06:01 GMT-0500 (Central Daylight Time),681389.8999999762,A,mea,O,a,155,1,1366.6999999284744,680023.2000000477,7021,WL,A,5.0
5,11.812999963760376,learn,60000.0,Wed Oct 02 2024 18:06:01 GMT-0500 (Central Daylight Time),681623.2000000477,A,mead,O,d,208,1,1600.0,680023.2000000477,7021,WL,A,5.0
5,11.963000059127808,learn,60000.0,Wed Oct 02 2024 18:06:01 GMT-0500 (Central Daylight Time),681773.2000000477,A,meado,O,o,119,1,1750.0,680023.2000000477,7021,WL,A,5.0
5,12.145999908447266,learn,60000.0,Wed Oct 02 2024 18:06:01 GMT-0500 (Central Daylight Time),681956.5,A,meadow,O,w,145,1,1933.2999999523163,680023.2000000477,7021,WL,A,5.0
5,12.84500002861023,learn,60000.0,Wed Oct 02 2024 18:06:01 GMT-0500 (Central Daylight Time),682655.3999999762,A,meadowenter,O,enter,676,1,2632.1999999284744,680023.2000000477,7021,WL,A,5.0
5,13.361999988555908,learn,60000.0,Wed Oct 02 2024 18:06:01 GMT-0500 (Central Daylight Time),683172.7000000477,A,h,O,h,503,1,517.0,682655.7000000477,7021,WL,A,6.0
5,13.479000091552734,learn,60000.0,Wed Oct 02 2024 18:06:01 GMT-0500 (Central Daylight Time),683289.2000000477,A,ha,O,a,90,1,633.5,682655.7000000477,7021,WL,A,6.0
5,13.729000091552734,learn,60000.0,Wed Oct 02 2024 18:06:01 GMT-0500 (Central Daylight Time),683539.3000000715,A,har,O,r,213,1,883.6000000238419,682655.7000000477,7021,WL,A,6.0
5,14.09500002861023,learn,60000.0,Wed Oct 02 2024 18:06:01 GMT-0500 (Central Daylight Time),683905.8999999762,A,harp,O,p,327,1,1250.1999999284744,682655.7000000477,7021,WL,A,6.0
5,14.894000053405762,learn,60000.0,Wed Oct 02 2024 18:06:01 GMT-0500 (Central Daylight Time),684704.8000000715,A,harpenter,O,enter,764,1,2049.100000023842,682655.7000000477,7021,WL,A,6.0
5,16.628000020980835,learn,60000.0,Wed Oct 02 2024 18:06:01 GMT-0500 (Central Daylight Time),686438.0,A,s,O,s,1727,1,1733.0,684705.0,7021,WL,A,7.0
5,16.89400005340576,learn,60000.0,Wed Oct 02 2024 18:06:01 GMT-0500 (Central Daylight Time),686704.8999999762,A,sa,O,a,240,1,1999.8999999761581,684705.0,7021,WL,A,7.0
5,17.026999950408936,learn,60000.0,Wed Oct 02 2024 18:06:01 GMT-0500 (Central Daylight Time),686837.8999999762,A,sal,O,l,110,1,2132.899999976158,684705.0,7021,WL,A,7.0
5,17.32800006866455,learn,60000.0,Wed Oct 02 2024 18:06:01 GMT-0500 (Central Daylight Time),687138.0,A,salt,O,t,263,1,2433.0,684705.0,7021,WL,A,7.0
5,17.609999895095825,learn,60000.0,Wed Oct 02 2024 18:06:01 GMT-0500 (Central Daylight Time),687420.5,A,saltenter,O,enter,259,1,2715.5,684705.0,7021,WL,A,7.0
5,18.344000101089478,learn,60000.0,Wed Oct 02 2024 18:06:01 GMT-0500 (Central Daylight Time),688154.3999999762,A,f,O,f,714,1,733.5999999046326,687420.8000000715,7021,WL,A,8.0
5,18.509999990463257,learn,60000.0,Wed Oct 02 2024 18:06:01 GMT-0500 (Central Daylight Time),688320.8000000715,A,fi,O,i,133,1,900.0,687420.8000000715,7021,WL,A,8.0
5,18.74399995803833,learn,60000.0,Wed Oct 02 2024 18:06:01 GMT-0500 (Central Daylight Time),688554.2000000477,A,fin,O,n,197,1,1133.3999999761581,687420.8000000715,7021,WL,A,8.0
5,18.877000093460083,learn,60000.0,Wed Oct 02 2024 18:06:01 GMT-0500 (Central Daylight Time),688687.5,A,fing,O,g,102,1,1266.6999999284744,687420.8000000715,7021,WL,A,8.0
5,19.111000061035156,learn,60000.0,Wed Oct 02 2024 18:06:01 GMT-0500 (Central Daylight Time),688921.3999999762,A,finge,O,e,212,1,1500.5999999046326,687420.8000000715,7021,WL,A,8.0
5,19.16000008583069,learn,60000.0,Wed Oct 02 2024 18:06:01 GMT-0500 (Central Daylight Time),688970.0,A,finger,O,r,33,1,1549.1999999284744,687420.8000000715,7021,WL,A,8.0
5,19.7260000705719,learn,60000.0,Wed Oct 02 2024 18:06:01 GMT-0500 (Central Daylight Time),689536.5,A,fingerenter,O,enter,551,1,2115.6999999284744,687420.8000000715,7021,WL,A,8.0
5,20.575999975204468,learn,60000.0,Wed Oct 02 2024 18:06:01 GMT-0500 (Central Daylight Time),690386.6000000238,A,a,O,a,830,1,849.7999999523163,689536.8000000715,7021,WL,A,9.0
5,20.82699990272522,learn,60000.0,Wed Oct 02 2024 18:06:01 GMT-0500 (Central Daylight Time),690637.3000000715,A,ap,O,p,230,1,1100.5,689536.8000000715,7021,WL,A,9.0
5,21.026999950408936,learn,60000.0,Wed Oct 02 2024 18:06:01 GMT-0500 (Central Daylight Time),690837.2000000477,A,app,O,p,177,1,1300.3999999761581,689536.8000000715,7021,WL,A,9.0
5,21.292999982833862,learn,60000.0,Wed Oct 02 2024 18:06:01 GMT-0500 (Central Daylight Time),691103.5,A,appl,O,l,233,1,1566.6999999284744,689536.8000000715,7021,WL,A,9.0
5,21.460000038146973,learn,60000.0,Wed Oct 02 2024 18:06:01 GMT-0500 (Central Daylight Time),691270.1000000238,A,apple,O,e,143,1,1733.2999999523163,689536.8000000715,7021,WL,A,9.0
5,22.22499990463257,learn,60000.0,Wed Oct 02 2024 18:06:01 GMT-0500 (Central Daylight Time),692035.7000000477,A,appleenter,O,enter,728,1,2498.899999976158,689536.8000000715,7021,WL,A,9.0
5,22.55900001525879,learn,60000.0,Wed Oct 02 2024 18:06:01 GMT-0500 (Central Daylight Time),692369.6000000238,A,c,O,c,323,1,333.60000002384186,692036.0,7021,WL,A,10.0
5,22.776000022888184,learn,60000.0,Wed Oct 02 2024 18:06:01 GMT-0500 (Central Daylight Time),692586.3000000715,A,ch,O,h,188,1,550.3000000715256,692036.0,7021,WL,A,10.0
5,22.908999919891357,learn,60000.0,Wed Oct 02 2024 18:06:01 GMT-0500 (Central Daylight Time),692719.5,A,chi,O,i,108,1,683.5,692036.0,7021,WL,A,10.0
5,23.175999879837036,learn,60000.0,Wed Oct 02 2024 18:06:01 GMT-0500 (Central Daylight Time),692986.1000000238,A,chim,O,m,239,1,950.1000000238419,692036.0,7021,WL,A,10.0
5,23.425999879837036,learn,60000.0,Wed Oct 02 2024 18:06:01 GMT-0500 (Central Daylight Time),693236.1000000238,A,chimn,O,n,212,1,1200.1000000238419,692036.0,7021,WL,A,10.0
5,23.55900001525879,learn,60000.0,Wed Oct 02 2024 18:06:01 GMT-0500 (Central Daylight Time),693369.3000000715,A,chimne,O,e,106,1,1333.3000000715256,692036.0,7021,WL,A,10.0
5,23.891000032424927,learn,60000.0,Wed Oct 02 2024 18:06:01 GMT-0500 (Central Daylight Time),693701.7000000477,A,chimney,O,y,300,1,1665.7000000476837,692036.0,7021,WL,A,10.0
5,24.891000032424927,learn,60000.0,Wed Oct 02 2024 18:06:01 GMT-0500 (Central Daylight Time),694701.5,A,chimneyenter,O,enter,991,1,2665.5,692036.0,7021,WL,A,10.0
5,28.723000049591064,learn,60000.0,Wed Oct 02 2024 18:06:01 GMT-0500 (Central Daylight Time),698533.7000000477,A,k,O,k,3817,1,3831.899999976158,694701.8000000715,7021,WL,A,11.0
5,28.85700011253357,learn,60000.0,Wed Oct 02 2024 18:06:01 GMT-0500 (Central Daylight Time),698667.5,A,ke,O,e,117,1,3965.6999999284744,694701.8000000715,7021,WL,A,11.0
5,29.140000104904175,learn,60000.0,Wed Oct 02 2024 18:06:01 GMT-0500 (Central Daylight Time),698950.6000000238,A,key,O,y,259,1,4248.799999952316,694701.8000000715,7021,WL,A,11.0
5,29.555999994277954,learn,60000.0,Wed Oct 02 2024 18:06:01 GMT-0500 (Central Daylight Time),699366.6000000238,A,keyenter,O,enter,385,1,4664.799999952316,694701.8000000715,7021,WL,A,11.0
5,29.92300009727478,learn,60000.0,Wed Oct 02 2024 18:06:01 GMT-0500 (Central Daylight Time),699734.0,A,r,O,r,352,1,367.10000002384186,699366.8999999762,7021,WL,A,12.0
5,30.072999954223633,learn,60000.0,Wed Oct 02 2024 18:06:01 GMT-0500 (Central Daylight Time),699883.8999999762,A,ra,O,a,116,1,517.0,699366.8999999762,7021,WL,A,12.0
5,30.272000074386597,learn,60000.0,Wed Oct 02 2024 18:06:01 GMT-0500 (Central Daylight Time),700082.8000000715,A,rat,O,t,161,1,715.9000000953674,699366.8999999762,7021,WL,A,12.0
5,30.44000005722046,learn,60000.0,Wed Oct 02 2024 18:06:01 GMT-0500 (Central Daylight Time),700250.3999999762,A,ratt,O,t,155,1,883.5,699366.8999999762,7021,WL,A,12.0
5,30.572999954223633,learn,60000.0,Wed Oct 02 2024 18:06:01 GMT-0500 (Central Daylight Time),700383.5,A,rattl,O,l,109,1,1016.6000000238419,699366.8999999762,7021,WL,A,12.0
5,30.789999961853027,learn,60000.0,Wed Oct 02 2024 18:06:01 GMT-0500 (Central Daylight Time),700600.2000000477,A,rattle,O,e,183,1,1233.3000000715256,699366.8999999762,7021,WL,A,12.0
5,31.60599994659424,learn,60000.0,Wed Oct 02 2024 18:06:01 GMT-0500 (Central Daylight Time),701416.0,A,rattleenter,O,enter,790,1,2049.100000023842,699366.8999999762,7021,WL,A,12.0
5,34.67199993133545,learn,60000.0,Wed Oct 02 2024 18:06:01 GMT-0500 (Central Daylight Time),704482.1000000238,A,b,O,b,3055,1,3065.899999976158,701416.2000000477,7021,WL,A,13.0
5,34.98799991607666,learn,60000.0,Wed Oct 02 2024 18:06:01 GMT-0500 (Central Daylight Time),704798.7000000477,A,bu,O,u,292,1,3382.5,701416.2000000477,7021,WL,A,13.0
5,35.22099995613098,learn,60000.0,Wed Oct 02 2024 18:06:01 GMT-0500 (Central Daylight Time),705031.3999999762,A,but,O,t,209,1,3615.1999999284744,701416.2000000477,7021,WL,A,13.0
5,35.38800001144409,learn,60000.0,Wed Oct 02 2024 18:06:01 GMT-0500 (Central Daylight Time),705198.7000000477,A,butt,O,t,156,1,3782.5,701416.2000000477,7021,WL,A,13.0
5,35.50500011444092,learn,60000.0,Wed Oct 02 2024 18:06:01 GMT-0500 (Central Daylight Time),705315.2000000477,A,butto,O,o,88,1,3899.0,701416.2000000477,7021,WL,A,13.0
5,35.82200002670288,learn,60000.0,Wed Oct 02 2024 18:06:01 GMT-0500 (Central Daylight Time),705632.1000000238,A,button,O,n,283,1,4215.899999976158,701416.2000000477,7021,WL,A,13.0
5,36.23699998855591,learn,60000.0,Wed Oct 02 2024 18:06:01 GMT-0500 (Central Daylight Time),706047.8000000715,A,buttonenter,O,enter,383,1,4631.600000023842,701416.2000000477,7021,WL,A,13.0
5,37.90400004386902,learn,60000.0,Wed Oct 02 2024 18:06:01 GMT-0500 (Central Daylight Time),707714.0,A,l,O,l,1646,1,1666.0,706048.0,7021,WL,A,14.0
5,38.15400004386902,learn,60000.0,Wed Oct 02 2024 18:06:01 GMT-0500 (Central Daylight Time),707963.8999999762,A,lo,O,o,233,1,1915.8999999761581,706048.0,7021,WL,A,14.0
5,38.354000091552734,learn,60000.0,Wed Oct 02 2024 18:06:01 GMT-0500 (Central Daylight Time),708164.2000000477,A,log,O,g,169,1,2116.2000000476837,706048.0,7021,WL,A,14.0
5,38.97000002861023,learn,60000.0,Wed Oct 02 2024 18:06:01 GMT-0500 (Central Daylight Time),708780.3999999762,A,logenter,O,enter,596,1,2732.399999976158,706048.0,7021,WL,A,14.0
5,40.15300011634827,learn,60000.0,Wed Oct 02 2024 18:06:01 GMT-0500 (Central Daylight Time),709963.8999999762,A,g,O,g,1162,1,1183.1999999284744,708780.7000000477,7021,WL,A,15.0
5,40.26900005340576,learn,60000.0,Wed Oct 02 2024 18:06:01 GMT-0500 (Central Daylight Time),710079.7000000477,A,go,O,o,92,1,1299.0,708780.7000000477,7021,WL,A,15.0
5,40.519999980926514,learn,60000.0,Wed Oct 02 2024 18:06:01 GMT-0500 (Central Daylight Time),710330.3999999762,A,gol,O,l,229,1,1549.6999999284744,708780.7000000477,7021,WL,A,15.0
5,40.76900005340576,learn,60000.0,Wed Oct 02 2024 18:06:01 GMT-0500 (Central Daylight Time),710579.7000000477,A,gold,O,d,219,1,1799.0,708780.7000000477,7021,WL,A,15.0
5,41.60199999809265,learn,60000.0,Wed Oct 02 2024 18:06:01 GMT-0500 (Central Daylight Time),711412.7000000477,A,goldenter,O,enter,822,1,2632.0,708780.7000000477,7021,WL,A,15.0
6,0.2999999523162842,distr,59700.000047683716,Wed Oct 02 2024 18:06:01 GMT-0500 (Central Daylight Time),784273.2000000477,B,b,O,b,269,1,300.10000002384186,783973.1000000238,7021,WL,A,1.0
6,0.682999849319458,distr,59317.00015068054,Wed Oct 02 2024 18:06:01 GMT-0500 (Central Daylight Time),784656.1000000238,B,bo,O,o,351,1,683.0,783973.1000000238,7021,WL,A,1.0
6,1.0499999523162842,distr,58950.000047683716,Wed Oct 02 2024 18:06:01 GMT-0500 (Central Daylight Time),785022.6000000238,B,bow,O,w,335,1,1049.5,783973.1000000238,7021,WL,A,1.0
6,1.3999998569488525,distr,58600.00014305115,Wed Oct 02 2024 18:06:01 GMT-0500 (Central Daylight Time),785372.5,B,bowl,O,l,313,1,1399.3999999761581,783973.1000000238,7021,WL,A,1.0
6,2.0820000171661377,distr,57917.99998283386,Wed Oct 02 2024 18:06:01 GMT-0500 (Central Daylight Time),786054.8999999762,B,bowlenter,O,enter,658,1,2081.7999999523163,783973.1000000238,7021,WL,A,1.0
6,2.5160000324249268,distr,57483.99996757507,Wed Oct 02 2024 18:06:01 GMT-0500 (Central Daylight Time),786488.8000000715,B,d,O,d,415,1,433.7000000476837,786055.1000000238,7021,WL,A,2.0
6,2.682999849319458,distr,57317.00015068054,Wed Oct 02 2024 18:06:01 GMT-0500 (Central Daylight Time),786655.3000000715,B,da,O,a,141,1,600.2000000476837,786055.1000000238,7021,WL,A,2.0
6,3.0160000324249268,distr,56983.99996757507,Wed Oct 02 2024 18:06:01 GMT-0500 (Central Daylight Time),786988.5,B,daw,O,w,296,1,933.3999999761581,786055.1000000238,7021,WL,A,2.0
6,3.2330000400543213,distr,56766.99995994568,Wed Oct 02 2024 18:06:01 GMT-0500 (Central Daylight Time),787205.3000000715,B,dawn,O,n,194,1,1150.2000000476837,786055.1000000238,7021,WL,A,2.0
6,3.947999954223633,distr,56052.00004577637,Wed Oct 02 2024 18:06:01 GMT-0500 (Central Daylight Time),787920.8999999762,B,dawnenter,O,enter,686,1,1865.7999999523163,786055.1000000238,7021,WL,A,2.0
6,4.865000009536743,distr,55134.99999046326,Wed Oct 02 2024 18:06:01 GMT-0500 (Central Daylight Time),788837.8000000715,B,p,O,p,911,1,916.6000000238419,787921.2000000477,7021,WL,A,3.0
6,5.0320000648498535,distr,54967.99993515015,Wed Oct 02 2024 18:06:01 GMT-0500 (Central Daylight Time),789004.6000000238,B,pe,O,e,129,1,1083.3999999761581,787921.2000000477,7021,WL,A,3.0
6,5.181999921798706,distr,54818.000078201294,Wed Oct 02 2024 18:06:01 GMT-0500 (Central Daylight Time),789154.6000000238,B,pea,O,a,114,1,1233.3999999761581,787921.2000000477,7021,WL,A,3.0
6,5.430999994277954,distr,54569.000005722046,Wed Oct 02 2024 18:06:01 GMT-0500 (Central Daylight Time),789403.8000000715,B,peac,O,c,211,1,1482.6000000238419,787921.2000000477,7021,WL,A,3.0
6,5.598999977111816,distr,54401.00002288818,Wed Oct 02 2024 18:06:01 GMT-0500 (Central Daylight Time),789571.1000000238,B,peach,O,h,147,1,1649.8999999761581,787921.2000000477,7021,WL,A,3.0
6,6.313999891281128,distr,53686.00010871887,Wed Oct 02 2024 18:06:01 GMT-0500 (Central Daylight Time),790286.7000000477,B,peachenter,O,enter,683,1,2365.5,787921.2000000477,7021,WL,A,3.0
6,8.263999938964844,distr,51736.000061035156,Wed Oct 02 2024 18:06:01 GMT-0500 (Central Daylight Time),792236.8000000715,B,p,O,p,1936,1,1949.8000000715256,790287.0,7021,WL,A,4.0
6,8.563999891281128,distr,51436.00010871887,Wed Oct 02 2024 18:06:01 GMT-0500 (Central Daylight Time),792536.7000000477,B,pl,O,l,265,1,2249.7000000476837,790287.0,7021,WL,A,4.0
6,8.664999961853027,distr,51335.00003814697,Wed Oct 02 2024 18:06:01 GMT-0500 (Central Daylight Time),792637.3000000715,B,pla,O,a,77,1,2350.3000000715256,790287.0,7021,WL,A,4.0
6,8.897000074386597,distr,51102.9999256134,Wed Oct 02 2024 18:06:01 GMT-0500 (Central Daylight Time),792869.8999999762,B,plan,O,n,210,1,2582.899999976158,790287.0,7021,WL,A,4.0
6,9.063999891281128,distr,50936.00010871887,Wed Oct 02 2024 18:06:01 GMT-0500 (Central Daylight Time),793036.6000000238,B,plane,O,e,138,1,2749.600000023842,790287.0,7021,WL,A,4.0
6,9.645999908447266,distr,50354.000091552734,Wed Oct 02 2024 18:06:01 GMT-0500 (Central Daylight Time),793618.8999999762,B,planeenter,O,enter,543,1,3331.899999976158,790287.0,7021,WL,A,4.0
6,10.21399998664856,distr,49786.00001335144,Wed Oct 02 2024 18:06:01 GMT-0500 (Central Daylight Time),794186.2000000477,B,i,O,i,548,1,567.0,793619.2000000477,7021,WL,A,5.0
6,10.44700002670288,distr,49552.99997329712,Wed Oct 02 2024 18:06:01 GMT-0500 (Central Daylight Time),794419.3999999762,B,in,O,n,204,1,800.1999999284744,793619.2000000477,7021,WL,A,5.0
6,10.562999963760376,distr,49437.000036239624,Wed Oct 02 2024 18:06:01 GMT-0500 (Central Daylight Time),794536.1000000238,B,ins,O,s,84,1,916.8999999761581,793619.2000000477,7021,WL,A,5.0
6,10.763000011444092,distr,49236.99998855591,Wed Oct 02 2024 18:06:01 GMT-0500 (Central Daylight Time),794735.7000000477,B,inse,O,e,172,1,1116.5,793619.2000000477,7021,WL,A,5.0
6,11.129999876022339,distr,48870.00012397766,Wed Oct 02 2024 18:06:01 GMT-0500 (Central Daylight Time),795102.6000000238,B,insec,O,c,344,1,1483.3999999761581,793619.2000000477,7021,WL,A,5.0
6,11.480000019073486,distr,48519.999980926514,Wed Oct 02 2024 18:06:01 GMT-0500 (Central Daylight Time),795452.5,B,insect,O,t,322,1,1833.2999999523163,793619.2000000477,7021,WL,A,5.0
6,12.378999948501587,distr,47621.00005149841,Wed Oct 02 2024 18:06:01 GMT-0500 (Central Daylight Time),796351.5,B,insectenter,O,enter,864,1,2732.2999999523163,793619.2000000477,7021,WL,A,5.0
6,14.312999963760376,distr,45687.000036239624,Wed Oct 02 2024 18:06:01 GMT-0500 (Central Daylight Time),798285.2000000477,B,c,O,c,1911,1,1933.3999999761581,796351.8000000715,7021,WL,A,6.0
6,14.496000051498413,distr,45503.99994850159,Wed Oct 02 2024 18:06:01 GMT-0500 (Central Daylight Time),798468.1000000238,B,ch,O,h,153,1,2116.2999999523163,796351.8000000715,7021,WL,A,6.0
6,14.59500002861023,distr,45404.99997138977,Wed Oct 02 2024 18:06:01 GMT-0500 (Central Daylight Time),798567.8000000715,B,cha,O,a,74,1,2216.0,796351.8000000715,7021,WL,A,6.0
6,14.744999885559082,distr,45255.00011444092,Wed Oct 02 2024 18:06:01 GMT-0500 (Central Daylight Time),798717.8000000715,B,chai,O,i,127,1,2366.0,796351.8000000715,7021,WL,A,6.0
6,14.91100001335144,distr,45088.99998664856,Wed Oct 02 2024 18:06:01 GMT-0500 (Central Daylight Time),798884.0,B,chair,O,r,146,1,2532.1999999284744,796351.8000000715,7021,WL,A,6.0
6,15.57800006866455,distr,44421.99993133545,Wed Oct 02 2024 18:06:01 GMT-0500 (Central Daylight Time),799550.5,B,chairenter,O,enter,647,1,3198.6999999284744,796351.8000000715,7021,WL,A,6.0
6,18.66100001335144,distr,41338.99998664856,Wed Oct 02 2024 18:06:01 GMT-0500 (Central Daylight Time),802633.5,B,s,O,s,3073,1,3082.7999999523163,799550.7000000477,7021,WL,A,7.0
6,18.876999855041504,distr,41123.000144958496,Wed Oct 02 2024 18:06:01 GMT-0500 (Central Daylight Time),802850.1000000238,B,se,O,e,192,1,3299.399999976158,799550.7000000477,7021,WL,A,7.0
6,19.07699990272522,distr,40923.00009727478,Wed Oct 02 2024 18:06:01 GMT-0500 (Central Daylight Time),803050.0,B,see,O,e,173,1,3499.2999999523163,799550.7000000477,7021,WL,A,7.0
6,19.3439998626709,distr,40656.0001373291,Wed Oct 02 2024 18:06:01 GMT-0500 (Central Daylight Time),803316.5,B,seed,O,d,238,1,3765.7999999523163,799550.7000000477,7021,WL,A,7.0
6,19.743000030517578,distr,40256.99996948242,Wed Oct 02 2024 18:06:01 GMT-0500 (Central Daylight Time),803715.6000000238,B,seedenter,O,enter,361,1,4164.899999976158,799550.7000000477,7021,WL,A,7.0
6,20.193000078201294,distr,39806.999921798706,Wed Oct 02 2024 18:06:01 GMT-0500 (Central Daylight Time),804166.0,B,s,O,s,442,1,450.10000002384186,803715.8999999762,7021,WL,A,8.0
6,20.443000078201294,distr,39556.999921798706,Wed Oct 02 2024 18:06:01 GMT-0500 (Central Daylight Time),804416.0,B,sh,O,h,225,1,700.1000000238419,803715.8999999762,7021,WL,A,8.0
6,20.65999984741211,distr,39340.00015258789,Wed Oct 02 2024 18:06:01 GMT-0500 (Central Daylight Time),804632.8000000715,B,she,O,e,190,1,916.9000000953674,803715.8999999762,7021,WL,A,8.0
6,20.82699990272522,distr,39173.00009727478,Wed Oct 02 2024 18:06:01 GMT-0500 (Central Daylight Time),804799.3999999762,B,shee,O,e,142,1,1083.5,803715.8999999762,7021,WL,A,8.0
6,21.193000078201294,distr,38806.999921798706,Wed Oct 02 2024 18:06:01 GMT-0500 (Central Daylight Time),805165.7000000477,B,sheep,O,p,335,1,1449.8000000715256,803715.8999999762,7021,WL,A,8.0
6,21.592999935150146,distr,38407.00006484985,Wed Oct 02 2024 18:06:01 GMT-0500 (Central Daylight Time),805565.2000000477,B,sheepenter,O,enter,379,1,1849.3000000715256,803715.8999999762,7021,WL,A,8.0
6,22.075999975204468,distr,37924.00002479553,Wed Oct 02 2024 18:06:01 GMT-0500 (Central Daylight Time),806049.0,B,m,O,m,465,1,483.60000002384186,805565.3999999762,7021,WL,A,9.0
6,22.20899987220764,distr,37791.00012779236,Wed Oct 02 2024 18:06:01 GMT-0500 (Central Daylight Time),806182.0,B,me,O,e,111,1,616.6000000238419,805565.3999999762,7021,WL,A,9.0
6,22.39299988746643,distr,37607.00011253357,Wed Oct 02 2024 18:06:01 GMT-0500 (Central Daylight Time),806365.3999999762,B,mea,O,a,151,1,800.0,805565.3999999762,7021,WL,A,9.0
6,22.759999990463257,distr,37240.00000953674,Wed Oct 02 2024 18:06:01 GMT-0500 (Central Daylight Time),806732.2000000477,B,meal,O,l,336,1,1166.8000000715256,805565.3999999762,7021,WL,A,9.0
6,23.424999952316284,distr,36575.000047683716,Wed Oct 02 2024 18:06:01 GMT-0500 (Central Daylight Time),807397.8000000715,B,mealenter,O,enter,643,1,1832.4000000953674,805565.3999999762,7021,WL,A,9.0
6,60.014999866485596,distr,-14.999866485595703,Wed Oct 02 2024 18:06:01 GMT-0500 (Central Daylight Time),843986.6000000238,B,None,O,None,36582,1,36588.5,807398.1000000238,7021,WL,A,10.0
7,1.633000135421753,immed,58366.99986457825,Wed Oct 02 2024 18:06:01 GMT-0500 (Central Daylight Time),880174.3999999762,A,b,O,b,1611,1,1631.8999999761581,878542.5,7021,WL,A,1.0
7,1.933000087738037,immed,58066.99991226196,Wed Oct 02 2024 18:06:01 GMT-0500 (Central Daylight Time),880474.5,A,bo,O,o,271,1,1932.0,878542.5,7021,WL,A,1.0
7,2.0989999771118164,immed,57901.00002288818,Wed Oct 02 2024 18:06:01 GMT-0500 (Central Daylight Time),880641.2000000477,A,boo,O,o,132,1,2098.7000000476837,878542.5,7021,WL,A,1.0
7,2.4820001125335693,immed,57517.99988746643,Wed Oct 02 2024 18:06:01 GMT-0500 (Central Daylight Time),881024.1000000238,A,book,O,k,348,1,2481.600000023842,878542.5,7021,WL,A,1.0
7,3.015000104904175,immed,56984.999895095825,Wed Oct 02 2024 18:06:01 GMT-0500 (Central Daylight Time),881556.8000000715,A,bookenter,O,enter,510,1,3014.3000000715256,878542.5,7021,WL,A,1.0
7,4.498000144958496,immed,55501.999855041504,Wed Oct 02 2024 18:06:01 GMT-0500 (Central Daylight Time),883039.7000000477,A,f,O,f,1464,1,1482.6000000238419,881557.1000000238,7021,WL,A,2.0
7,4.615999937057495,immed,55384.000062942505,Wed Oct 02 2024 18:06:01 GMT-0500 (Central Daylight Time),883157.2000000477,A,fl,O,l,95,1,1600.1000000238419,881557.1000000238,7021,WL,A,2.0
7,4.815999984741211,immed,55184.00001525879,Wed Oct 02 2024 18:06:01 GMT-0500 (Central Daylight Time),883357.5,A,flo,O,o,178,1,1800.3999999761581,881557.1000000238,7021,WL,A,2.0
7,5.015000104904175,immed,54984.999895095825,Wed Oct 02 2024 18:06:01 GMT-0500 (Central Daylight Time),883557.0,A,flow,O,w,169,1,1999.8999999761581,881557.1000000238,7021,WL,A,2.0
7,5.148000001907349,immed,54851.99999809265,Wed Oct 02 2024 18:06:01 GMT-0500 (Central Daylight Time),883689.8000000715,A,flowe,O,e,105,1,2132.7000000476837,881557.1000000238,7021,WL,A,2.0
7,5.2820000648498535,immed,54717.99993515015,Wed Oct 02 2024 18:06:01 GMT-0500 (Central Daylight Time),883823.6000000238,A,flower,O,r,111,1,2266.5,881557.1000000238,7021,WL,A,2.0
7,5.730999946594238,immed,54269.00005340576,Wed Oct 02 2024 18:06:01 GMT-0500 (Central Daylight Time),884272.6000000238,A,flowerenter,O,enter,422,1,2715.5,881557.1000000238,7021,WL,A,2.0
7,6.115000009536743,immed,53884.99999046326,Wed Oct 02 2024 18:06:01 GMT-0500 (Central Daylight Time),884656.3000000715,A,t,O,t,375,1,383.40000009536743,884272.8999999762,7021,WL,A,3.0
7,6.3480000495910645,immed,53651.999950408936,Wed Oct 02 2024 18:06:01 GMT-0500 (Central Daylight Time),884889.8000000715,A,tr,O,r,206,1,616.9000000953674,884272.8999999762,7021,WL,A,3.0
7,6.447999954223633,immed,53552.00004577637,Wed Oct 02 2024 18:06:01 GMT-0500 (Central Daylight Time),884989.7000000477,A,tra,O,a,69,1,716.8000000715256,884272.8999999762,7021,WL,A,3.0
7,6.680999994277954,immed,53319.000005722046,Wed Oct 02 2024 18:06:01 GMT-0500 (Central Daylight Time),885222.1000000238,A,trai,O,i,200,1,949.2000000476837,884272.8999999762,7021,WL,A,3.0
7,6.947999954223633,immed,53052.00004577637,Wed Oct 02 2024 18:06:01 GMT-0500 (Central Daylight Time),885489.5,A,train,O,n,248,1,1216.6000000238419,884272.8999999762,7021,WL,A,3.0
7,7.546999931335449,immed,52453.00006866455,Wed Oct 02 2024 18:06:01 GMT-0500 (Central Daylight Time),886088.7000000477,A,trainenter,O,enter,566,1,1815.8000000715256,884272.8999999762,7021,WL,A,3.0
7,10.04699993133545,immed,49953.00006866455,Wed Oct 02 2024 18:06:01 GMT-0500 (Central Daylight Time),888588.3999999762,A,b,O,b,2479,1,2499.399999976158,886089.0,7021,WL,A,4.0
7,10.347000122070312,immed,49652.99987792969,Wed Oct 02 2024 18:06:01 GMT-0500 (Central Daylight Time),888888.5,A,bu,O,u,274,1,2799.5,886089.0,7021,WL,A,4.0
7,10.52999997138977,immed,49470.00002861023,Wed Oct 02 2024 18:06:01 GMT-0500 (Central Daylight Time),889071.6000000238,A,but,O,t,151,1,2982.600000023842,886089.0,7021,WL,A,4.0
7,10.680000066757202,immed,49319.9999332428,Wed Oct 02 2024 18:06:01 GMT-0500 (Central Daylight Time),889221.6000000238,A,butt,O,t,118,1,3132.600000023842,886089.0,7021,WL,A,4.0
7,10.779000043869019,immed,49220.99995613098,Wed Oct 02 2024 18:06:01 GMT-0500 (Central Daylight Time),889321.1000000238,A,butto,O,o,77,1,3232.100000023842,886089.0,7021,WL,A,4.0
7,11.04699993133545,immed,48953.00006866455,Wed Oct 02 2024 18:06:01 GMT-0500 (Central Daylight Time),889588.3000000715,A,button,O,n,247,1,3499.3000000715256,886089.0,7021,WL,A,4.0
7,11.42900013923645,immed,48570.99986076355,Wed Oct 02 2024 18:06:01 GMT-0500 (Central Daylight Time),889970.7000000477,A,buttonenter,O,enter,352,1,3881.7000000476837,886089.0,7021,WL,A,4.0
7,11.896000146865845,immed,48103.999853134155,Wed Oct 02 2024 18:06:01 GMT-0500 (Central Daylight Time),890437.8999999762,A,l,O,l,452,1,466.89999997615814,889971.0,7021,WL,A,5.0
7,12.163000106811523,immed,47836.99989318848,Wed Oct 02 2024 18:06:01 GMT-0500 (Central Daylight Time),890704.6000000238,A,lo,O,o,231,1,733.6000000238419,889971.0,7021,WL,A,5.0
7,12.36299991607666,immed,47637.00008392334,Wed Oct 02 2024 18:06:01 GMT-0500 (Central Daylight Time),890904.6000000238,A,log,O,g,165,1,933.6000000238419,889971.0,7021,WL,A,5.0
7,12.712000131607056,immed,47287.999868392944,Wed Oct 02 2024 18:06:01 GMT-0500 (Central Daylight Time),891253.7000000477,A,logenter,O,enter,324,1,1282.7000000476837,889971.0,7021,WL,A,5.0
7,13.361999988555908,immed,46638.00001144409,Wed Oct 02 2024 18:06:01 GMT-0500 (Central Daylight Time),891903.3999999762,A,m,O,m,640,1,649.5,891253.8999999762,7021,WL,A,6.0
7,13.479000091552734,immed,46520.999908447266,Wed Oct 02 2024 18:06:01 GMT-0500 (Central Daylight Time),892021.2000000477,A,me,O,e,111,1,767.3000000715256,891253.8999999762,7021,WL,A,6.0
7,13.628999948501587,immed,46371.00005149841,Wed Oct 02 2024 18:06:01 GMT-0500 (Central Daylight Time),892170.8000000715,A,mea,O,a,114,1,916.9000000953674,891253.8999999762,7021,WL,A,6.0
7,13.84500002861023,immed,46154.99997138977,Wed Oct 02 2024 18:06:01 GMT-0500 (Central Daylight Time),892387.0,A,mead,O,d,179,1,1133.1000000238419,891253.8999999762,7021,WL,A,6.0
7,13.979000091552734,immed,46020.999908447266,Wed Oct 02 2024 18:06:01 GMT-0500 (Central Daylight Time),892520.8000000715,A,meado,O,o,118,1,1266.9000000953674,891253.8999999762,7021,WL,A,6.0
7,14.128999948501587,immed,45871.00005149841,Wed Oct 02 2024 18:06:01 GMT-0500 (Central Daylight Time),892670.7000000477,A,meadow,O,w,119,1,1416.8000000715256,891253.8999999762,7021,WL,A,6.0
7,14.477999925613403,immed,45522.0000743866,Wed Oct 02 2024 18:06:01 GMT-0500 (Central Daylight Time),893019.8000000715,A,meadowenter,O,enter,311,1,1765.9000000953674,891253.8999999762,7021,WL,A,6.0
7,14.878999948501587,immed,45121.00005149841,Wed Oct 02 2024 18:06:01 GMT-0500 (Central Daylight Time),893420.7000000477,A,h,O,h,379,1,400.8000000715256,893019.8999999762,7021,WL,A,7.0
7,15.01200008392334,immed,44987.99991607666,Wed Oct 02 2024 18:06:01 GMT-0500 (Central Daylight Time),893553.3000000715,A,ha,O,a,105,1,533.4000000953674,893019.8999999762,7021,WL,A,7.0
7,15.644999980926514,immed,44355.000019073486,Wed Oct 02 2024 18:06:01 GMT-0500 (Central Daylight Time),894186.7000000477,A,har,O,r,607,1,1166.8000000715256,893019.8999999762,7021,WL,A,7.0
7,15.84500002861023,immed,44154.99997138977,Wed Oct 02 2024 18:06:01 GMT-0500 (Central Daylight Time),894386.5,A,harp,O,p,172,1,1366.6000000238419,893019.8999999762,7021,WL,A,7.0
7,16.210999965667725,immed,43789.000034332275,Wed Oct 02 2024 18:06:01 GMT-0500 (Central Daylight Time),894752.5,A,harpenter,O,enter,340,1,1732.6000000238419,893019.8999999762,7021,WL,A,7.0
7,16.578999996185303,immed,43421.0000038147,Wed Oct 02 2024 18:06:01 GMT-0500 (Central Daylight Time),895119.8000000715,A,f,O,f,359,1,367.0,894752.8000000715,7021,WL,A,8.0
7,16.812000036239624,immed,43187.999963760376,Wed Oct 02 2024 18:06:01 GMT-0500 (Central Daylight Time),895353.1000000238,A,fi,O,i,206,1,600.2999999523163,894752.8000000715,7021,WL,A,8.0
7,17.07100009918213,immed,42928.99990081787,Wed Oct 02 2024 18:06:01 GMT-0500 (Central Daylight Time),895611.5,A,fin,O,n,220,1,858.6999999284744,894752.8000000715,7021,WL,A,8.0
7,17.26099991798401,immed,42739.00008201599,Wed Oct 02 2024 18:06:01 GMT-0500 (Central Daylight Time),895802.1000000238,A,fing,O,g,163,1,1049.2999999523163,894752.8000000715,7021,WL,A,8.0
7,17.479000091552734,immed,42520.999908447266,Wed Oct 02 2024 18:06:01 GMT-0500 (Central Daylight Time),896019.5,A,finge,O,e,196,1,1266.6999999284744,894752.8000000715,7021,WL,A,8.0
7,17.561000108718872,immed,42438.99989128113,Wed Oct 02 2024 18:06:01 GMT-0500 (Central Daylight Time),896102.1000000238,A,finger,O,r,52,1,1349.2999999523163,894752.8000000715,7021,WL,A,8.0
7,18.227999925613403,immed,41772.0000743866,Wed Oct 02 2024 18:06:01 GMT-0500 (Central Daylight Time),896768.5,A,fingerenter,O,enter,652,1,2015.6999999284744,894752.8000000715,7021,WL,A,8.0
7,18.611000061035156,immed,41388.999938964844,Wed Oct 02 2024 18:06:01 GMT-0500 (Central Daylight Time),897152.2000000477,A,s,O,s,374,1,383.39999997615814,896768.8000000715,7021,WL,A,9.0
7,18.82800006866455,immed,41171.99993133545,Wed Oct 02 2024 18:06:01 GMT-0500 (Central Daylight Time),897369.0,A,sa,O,a,191,1,600.1999999284744,896768.8000000715,7021,WL,A,9.0
7,19.01200008392334,immed,40987.99991607666,Wed Oct 02 2024 18:06:01 GMT-0500 (Central Daylight Time),897552.3000000715,A,sal,O,l,159,1,783.5,896768.8000000715,7021,WL,A,9.0
7,19.32800006866455,immed,40671.99993133545,Wed Oct 02 2024 18:06:01 GMT-0500 (Central Daylight Time),897868.2000000477,A,salt,O,t,296,1,1099.3999999761581,896768.8000000715,7021,WL,A,9.0
7,19.89400005340576,immed,40105.99994659424,Wed Oct 02 2024 18:06:01 GMT-0500 (Central Daylight Time),898434.6000000238,A,saltenter,O,enter,552,1,1665.7999999523163,896768.8000000715,7021,WL,A,9.0
7,20.67799997329712,immed,39322.00002670288,Wed Oct 02 2024 18:06:01 GMT-0500 (Central Daylight Time),899218.3999999762,A,g,O,g,773,1,783.5,898434.8999999762,7021,WL,A,10.0
7,20.794000148773193,immed,39205.99985122681,Wed Oct 02 2024 18:06:01 GMT-0500 (Central Daylight Time),899335.1000000238,A,go,O,o,92,1,900.2000000476837,898434.8999999762,7021,WL,A,10.0
7,21.01099991798401,immed,38989.00008201599,Wed Oct 02 2024 18:06:01 GMT-0500 (Central Daylight Time),899551.8000000715,A,gol,O,l,185,1,1116.9000000953674,898434.8999999762,7021,WL,A,10.0
7,21.194000005722046,immed,38805.999994277954,Wed Oct 02 2024 18:06:01 GMT-0500 (Central Daylight Time),899735.3000000715,A,gold,O,d,158,1,1300.4000000953674,898434.8999999762,7021,WL,A,10.0
7,21.842999935150146,immed,38157.00006484985,Wed Oct 02 2024 18:06:01 GMT-0500 (Central Daylight Time),900384.0,A,goldenter,O,enter,624,1,1949.1000000238419,898434.8999999762,7021,WL,A,10.0
7,22.344000101089478,immed,37655.99989891052,Wed Oct 02 2024 18:06:01 GMT-0500 (Central Daylight Time),900884.6000000238,A,a,O,a,487,1,500.2999999523163,900384.3000000715,7021,WL,A,11.0
7,22.794000148773193,immed,37205.99985122681,Wed Oct 02 2024 18:06:01 GMT-0500 (Central Daylight Time),901334.5,A,ap,O,p,421,1,950.1999999284744,900384.3000000715,7021,WL,A,11.0
7,22.927000045776367,immed,37072.99995422363,Wed Oct 02 2024 18:06:01 GMT-0500 (Central Daylight Time),901467.7000000477,A,app,O,p,107,1,1083.3999999761581,900384.3000000715,7021,WL,A,11.0
7,23.125999927520752,immed,36874.00007247925,Wed Oct 02 2024 18:06:01 GMT-0500 (Central Daylight Time),901667.3000000715,A,appl,O,l,171,1,1283.0,900384.3000000715,7021,WL,A,11.0
7,23.24399995803833,immed,36756.00004196167,Wed Oct 02 2024 18:06:01 GMT-0500 (Central Daylight Time),901784.3000000715,A,apple,O,e,94,1,1400.0,900384.3000000715,7021,WL,A,11.0
7,23.493000030517578,immed,36506.99996948242,Wed Oct 02 2024 18:06:01 GMT-0500 (Central Daylight Time),902033.5,A,appleenter,O,enter,215,1,1649.1999999284744,900384.3000000715,7021,WL,A,11.0
7,23.792999982833862,immed,36207.00001716614,Wed Oct 02 2024 18:06:01 GMT-0500 (Central Daylight Time),902334.0,A,c,O,c,286,1,300.1999999284744,902033.8000000715,7021,WL,A,12.0
7,23.993000030517578,immed,36006.99996948242,Wed Oct 02 2024 18:06:01 GMT-0500 (Central Daylight Time),902533.8999999762,A,ch,O,h,177,1,500.09999990463257,902033.8000000715,7021,WL,A,12.0
7,24.14300012588501,immed,35856.99987411499,Wed Oct 02 2024 18:06:01 GMT-0500 (Central Daylight Time),902683.8999999762,A,chi,O,i,116,1,650.0999999046326,902033.8000000715,7021,WL,A,12.0
7,24.375999927520752,immed,35624.00007247925,Wed Oct 02 2024 18:06:01 GMT-0500 (Central Daylight Time),902917.2000000477,A,chim,O,m,203,1,883.3999999761581,902033.8000000715,7021,WL,A,12.0
7,24.608999967575073,immed,35391.00003242493,Wed Oct 02 2024 18:06:01 GMT-0500 (Central Daylight Time),903149.7000000477,A,chimn,O,n,209,1,1115.8999999761581,902033.8000000715,7021,WL,A,12.0
7,24.7260000705719,immed,35273.9999294281,Wed Oct 02 2024 18:06:01 GMT-0500 (Central Daylight Time),903266.7000000477,A,chimne,O,e,102,1,1232.8999999761581,902033.8000000715,7021,WL,A,12.0
7,24.992000102996826,immed,35007.999897003174,Wed Oct 02 2024 18:06:01 GMT-0500 (Central Daylight Time),903532.8999999762,A,chimney,O,y,252,1,1499.0999999046326,902033.8000000715,7021,WL,A,12.0
7,25.64199995994568,immed,34358.00004005432,Wed Oct 02 2024 18:06:01 GMT-0500 (Central Daylight Time),904182.7000000477,A,chimneyenter,O,enter,628,1,2148.899999976158,902033.8000000715,7021,WL,A,12.0
7,36.42199993133545,immed,23578.00006866455,Wed Oct 02 2024 18:06:01 GMT-0500 (Central Daylight Time),914962.3999999762,A,r,O,r,10766,1,10779.399999976158,904183.0,7021,WL,A,13.0
7,36.57200002670288,immed,23427.99997329712,Wed Oct 02 2024 18:06:01 GMT-0500 (Central Daylight Time),915113.2000000477,A,ra,O,a,141,1,10930.200000047684,904183.0,7021,WL,A,13.0
7,36.7720000743866,immed,23227.999925613403,Wed Oct 02 2024 18:06:01 GMT-0500 (Central Daylight Time),915313.1000000238,A,rat,O,t,173,1,11130.100000023842,904183.0,7021,WL,A,13.0
7,36.92199993133545,immed,23078.00006866455,Wed Oct 02 2024 18:06:01 GMT-0500 (Central Daylight Time),915463.1000000238,A,ratt,O,t,129,1,11280.100000023842,904183.0,7021,WL,A,13.0
7,37.121999979019165,immed,22878.000020980835,Wed Oct 02 2024 18:06:01 GMT-0500 (Central Daylight Time),915663.1000000238,A,rattl,O,l,179,1,11480.100000023842,904183.0,7021,WL,A,13.0
7,37.23900008201599,immed,22760.99991798401,Wed Oct 02 2024 18:06:01 GMT-0500 (Central Daylight Time),915779.6000000238,A,rattle,O,e,78,1,11596.600000023842,904183.0,7021,WL,A,13.0
7,38.03800010681152,immed,21961.999893188477,Wed Oct 02 2024 18:06:01 GMT-0500 (Central Daylight Time),916578.7000000477,A,rattleenter,O,enter,762,1,12395.700000047684,904183.0,7021,WL,A,13.0
7,39.104000091552734,immed,20895.999908447266,Wed Oct 02 2024 18:06:01 GMT-0500 (Central Daylight Time),917645.1000000238,A,k,O,k,1060,1,1066.2000000476837,916578.8999999762,7021,WL,A,14.0
7,39.33800005912781,immed,20661.999940872192,Wed Oct 02 2024 18:06:01 GMT-0500 (Central Daylight Time),917878.8000000715,A,ke,O,e,210,1,1299.9000000953674,916578.8999999762,7021,WL,A,14.0
7,39.87100005149841,immed,20128.999948501587,Wed Oct 02 2024 18:06:01 GMT-0500 (Central Daylight Time),918412.0,A,key,O,y,496,1,1833.1000000238419,916578.8999999762,7021,WL,A,14.0
7,40.670000076293945,immed,19329.999923706055,Wed Oct 02 2024 18:06:01 GMT-0500 (Central Daylight Time),919211.1000000238,A,keyenter,O,enter,770,1,2632.2000000476837,916578.8999999762,7021,WL,A,14.0
7,51.0,immed,9000.0,Wed Oct 02 2024 18:06:01 GMT-0500 (Central Daylight Time),929541.0,A,l,O,l,10314,1,10329.699999928474,919211.3000000715,7021,WL,A,15.0
