Q,Q1,Q2,Q3,Q4,acc_sum,block,block_c,correct,correct_response,datetime,endtime,project,response,response_time,row_sel,session_number,squiggle1,squiggle1x,squiggle1y,squiggle2,squiggle2x,squiggle2y,squiggle3,squiggle3x,squiggle3y,squiggle4,squiggle4x,squiggle4y,start_end,starttime,subject_id,target_congruent,task,task_vers,testsquiggle,testsquigglex,testsquiggley,time_practice_delay,time_practice_fixation,time_practice_stimuli,time_practice_study,time_test_delay,time_test_fixation,time_test_stimuli,time_test_study,trial
1,1,0,0,0,0,prac,1,0,z,Thu Jan 09 2025 14:19:28 GMT-0600 (Central Standard Time),673089.700000003,I,None,2014,1,2,66.bmp,-120,-120,67.bmp,120,-120,68.bmp,-120,120,69.bmp,120,120,10827.30000000447,662262.3999999985,8008,yes,SM,C,66.bmp,-120,-120,177525,171497,179543,173512,,,,,1
3,0,0,1,0,1,prac,1,1,m,Thu Jan 09 2025 14:19:28 GMT-0600 (Central Standard Time),683420.0,I,m,1529,2,2,70.bmp,-120,-120,71.bmp,120,-120,72.bmp,-120,120,73.bmp,120,120,10326.0,673094.0,8008,no,SM,C,73.bmp,-120,120,188347,182328,190356,184341,,,,,2
4,0,0,0,1,1,prac,1,0,m,Thu Jan 09 2025 14:19:28 GMT-0600 (Central Standard Time),693950.1000000015,I,z,1702,3,2,74.bmp,-120,-120,75.bmp,120,-120,76.bmp,-120,120,77.bmp,120,120,10526.79999999702,683423.3000000045,8008,no,SM,C,74.bmp,120,120,198685,192657,200703,194671,,,,,3
2,0,1,0,0,1,prac,1,0,z,Thu Jan 09 2025 14:19:28 GMT-0600 (Central Standard Time),704779.8000000045,I,None,2015,4,2,78.bmp,-120,-120,79.bmp,120,-120,80.bmp,-120,120,81.bmp,120,120,10826.30000000447,693953.5,8008,yes,SM,C,79.bmp,120,-120,209215,203188,211233,205201,,,,,4
3,0,0,1,0,1,prac,1,0,z,Thu Jan 09 2025 14:19:28 GMT-0600 (Central Standard Time),715393.3000000045,I,m,1782,5,2,82.bmp,-120,-120,83.bmp,120,-120,84.bmp,-120,120,85.bmp,120,120,10609.80000000447,704783.5,8008,yes,SM,C,84.bmp,-120,120,220045,214018,222063,216031,,,,,5
1,1,0,0,0,1,prac,1,0,m,Thu Jan 09 2025 14:19:28 GMT-0600 (Central Standard Time),725623.3000000045,I,z,1408,6,2,86.bmp,-120,-120,87.bmp,120,-120,88.bmp,-120,120,89.bmp,120,120,10226.60000000149,715396.700000003,8008,no,SM,C,89.bmp,-120,-120,230659,224631,232676,226644,,,,,6
2,0,1,0,0,1,prac,1,0,m,Thu Jan 09 2025 14:19:28 GMT-0600 (Central Standard Time),736219.8999999985,I,z,1770,7,2,90.bmp,-120,-120,91.bmp,120,-120,92.bmp,-120,120,93.bmp,120,120,10591.89999999851,725628.0,8008,no,SM,C,90.bmp,120,-120,240889,234862,242906,236875,,,,,7
4,0,0,0,1,2,prac,1,1,z,Thu Jan 09 2025 14:19:28 GMT-0600 (Central Standard Time),746300.3999999985,I,z,1254,8,2,94.bmp,-120,-120,95.bmp,120,-120,96.bmp,-120,120,97.bmp,120,120,10077.09999999404,736223.3000000045,8008,yes,SM,C,97.bmp,120,120,251486,245458,253503,247471,,,,,8
1,1,0,0,0,0,prac,2,0,z,Thu Jan 09 2025 14:19:28 GMT-0600 (Central Standard Time),762928.5,I,m,1974,1,2,66.bmp,-120,-120,67.bmp,120,-120,68.bmp,-120,120,69.bmp,120,120,10794.39999999851,752134.1000000015,8008,yes,SM,C,66.bmp,-120,-120,267397,261368,269415,263383,,,,,1
3,0,0,1,0,0,prac,2,0,m,Thu Jan 09 2025 14:19:28 GMT-0600 (Central Standard Time),773119.8999999985,I,z,1289,2,2,70.bmp,-120,-120,71.bmp,120,-120,72.bmp,-120,120,73.bmp,120,120,10187.59999999404,762932.3000000045,8008,no,SM,C,73.bmp,-120,120,278194,272167,280212,274180,,,,,2
4,0,0,0,1,1,prac,2,1,m,Thu Jan 09 2025 14:19:28 GMT-0600 (Central Standard Time),783355.5,I,m,1413,3,2,74.bmp,-120,-120,75.bmp,120,-120,76.bmp,-120,120,77.bmp,120,120,10231.79999999702,773123.700000003,8008,no,SM,C,74.bmp,120,120,288390,282358,290408,284376,,,,,3
2,0,1,0,0,2,prac,2,1,z,Thu Jan 09 2025 14:19:28 GMT-0600 (Central Standard Time),793735.3000000045,I,z,1557,4,2,78.bmp,-120,-120,79.bmp,120,-120,80.bmp,-120,120,81.bmp,120,120,10376.0,783359.3000000045,8008,yes,SM,C,79.bmp,120,-120,298621,292593,300639,294607,,,,,4
3,0,0,1,0,3,prac,2,1,z,Thu Jan 09 2025 14:19:28 GMT-0600 (Central Standard Time),803982.3000000045,I,z,1418,5,2,82.bmp,-120,-120,83.bmp,120,-120,84.bmp,-120,120,85.bmp,120,120,10243.80000000447,793738.5,8008,yes,SM,C,84.bmp,-120,120,309001,302973,311019,304987,,,,,5
1,1,0,0,0,4,prac,2,1,m,Thu Jan 09 2025 14:19:28 GMT-0600 (Central Standard Time),814695.5,I,m,1892,6,2,86.bmp,-120,-120,87.bmp,120,-120,88.bmp,-120,120,89.bmp,120,120,10709.5,803986.0,8008,no,SM,C,89.bmp,-120,-120,319248,313220,321265,315234,,,,,6
2,0,1,0,0,5,prac,2,1,m,Thu Jan 09 2025 14:19:28 GMT-0600 (Central Standard Time),824975.700000003,I,m,1450,7,2,90.bmp,-120,-120,91.bmp,120,-120,92.bmp,-120,120,93.bmp,120,120,10277.10000000149,814698.6000000015,8008,no,SM,C,90.bmp,120,-120,329961,323933,331979,325947,,,,,7
4,0,0,0,1,6,prac,2,1,z,Thu Jan 09 2025 14:19:28 GMT-0600 (Central Standard Time),835305.700000003,I,z,1506,8,2,94.bmp,-120,-120,95.bmp,120,-120,96.bmp,-120,120,97.bmp,120,120,10326.80000000447,824978.8999999985,8008,yes,SM,C,97.bmp,120,120,340241,334213,342259,336227,,,,,8
4,0,0,0,1,0,test,1,0,m,Thu Jan 09 2025 14:19:28 GMT-0600 (Central Standard Time),901202.1000000015,I,None,2015,1,2,98.bmp,-120,-120,99.bmp,120,-120,100.bmp,-120,120,93.bmp,120,120,10060.79999999702,891141.3000000045,8008,yes,SM,C,100.bmp,120,120,340241,334213,342259,336227,406404.0,400376.0,408421.0,402390.0,1
2,0,1,0,0,1,test,1,1,m,Thu Jan 09 2025 14:19:28 GMT-0600 (Central Standard Time),910682.0,I,m,1424,2,2,51.bmp,-120,-120,52.bmp,120,-120,53.bmp,-120,120,54.bmp,120,120,9476.10000000149,901205.8999999985,8008,yes,SM,C,53.bmp,120,-120,340241,334213,342259,336227,416467.0,410440.0,418485.0,412453.0,2
1,1,0,0,0,2,test,1,1,z,Thu Jan 09 2025 14:19:28 GMT-0600 (Central Standard Time),920095.8000000045,I,z,1352,3,2,55.bmp,-120,-120,56.bmp,120,-120,57.bmp,-120,120,58.bmp,120,120,9410.5,910685.3000000045,8008,yes,SM,C,55.bmp,-120,-120,340241,334213,342259,336227,425948.0,419919.0,427965.0,421933.0,3
3,0,0,1,0,3,test,1,1,m,Thu Jan 09 2025 14:19:28 GMT-0600 (Central Standard Time),929892.6000000015,I,m,1746,4,2,59.bmp,-120,-120,60.bmp,120,-120,61.bmp,-120,120,62.bmp,120,120,9793.39999999851,920099.200000003,8008,yes,SM,C,59.bmp,-120,120,340241,334213,342259,336227,435361.0,429334.0,437379.0,431347.0,4
2,0,1,0,0,4,test,1,1,z,Thu Jan 09 2025 14:19:28 GMT-0600 (Central Standard Time),939572.700000003,I,z,1534,5,2,63.bmp,-120,-120,64.bmp,120,-120,65.bmp,-120,120,66.bmp,120,120,9676.60000000149,929896.1000000015,8008,yes,SM,C,64.bmp,120,-120,340241,334213,342259,336227,445158.0,439130.0,447271.0,441144.0,5
3,0,0,1,0,5,test,1,1,z,Thu Jan 09 2025 14:19:28 GMT-0600 (Central Standard Time),949453.1000000015,I,z,1821,6,2,67.bmp,-120,-120,68.bmp,120,-120,69.bmp,-120,120,70.bmp,120,120,9877.29999999702,939575.8000000045,8008,yes,SM,C,69.bmp,-120,120,340241,334213,342259,336227,454838.0,448810.0,456856.0,450824.0,6
4,0,0,0,1,6,test,1,1,z,Thu Jan 09 2025 14:19:28 GMT-0600 (Central Standard Time),959300.1000000015,I,z,1789,7,2,71.bmp,-120,-120,72.bmp,120,-120,73.bmp,-120,120,74.bmp,120,120,9843.89999999851,949456.200000003,8008,yes,SM,C,74.bmp,120,120,340241,334213,342259,336227,464719.0,458690.0,466736.0,460704.0,7
2,0,1,0,0,7,test,1,1,m,Thu Jan 09 2025 14:19:28 GMT-0600 (Central Standard Time),969463.700000003,I,m,1985,8,2,75.bmp,-120,-120,76.bmp,120,-120,77.bmp,-120,120,78.bmp,120,120,10160.0,959303.700000003,8008,yes,SM,C,75.bmp,120,-120,340241,334213,342259,336227,474682.0,468538.0,476700.0,470665.0,8
3,0,0,1,0,8,test,1,1,m,Thu Jan 09 2025 14:19:28 GMT-0600 (Central Standard Time),979393.8000000045,I,m,1874,9,2,79.bmp,-120,-120,80.bmp,120,-120,81.bmp,-120,120,82.bmp,120,120,9926.5,969467.3000000045,8008,yes,SM,C,80.bmp,-120,120,340241,334213,342259,336227,484729.0,478701.0,486747.0,480715.0,9
4,0,0,0,1,9,test,1,1,z,Thu Jan 09 2025 14:19:28 GMT-0600 (Central Standard Time),988757.6000000015,I,z,1304,10,2,87.bmp,-120,-120,88.bmp,120,-120,89.bmp,-120,120,90.bmp,120,120,9360.60000000149,979397.0,8008,yes,SM,C,90.bmp,120,120,340241,334213,342259,336227,494659.0,488631.0,496677.0,490645.0,10
3,0,0,1,0,9,test,1,0,z,Thu Jan 09 2025 14:19:28 GMT-0600 (Central Standard Time),998504.700000003,I,m,1692,11,2,83.bmp,-120,-120,84.bmp,120,-120,85.bmp,-120,120,86.bmp,120,120,9743.80000000447,988760.8999999985,8008,yes,SM,C,85.bmp,-120,120,340241,334213,342259,336227,504023.0,497995.0,506041.0,500009.0,11
2,0,1,0,0,10,test,1,1,m,Thu Jan 09 2025 14:19:28 GMT-0600 (Central Standard Time),1008201.5,I,m,1633,12,2,91.bmp,-120,-120,92.bmp,120,-120,93.bmp,-120,120,94.bmp,120,120,9693.79999999702,998507.700000003,8008,yes,SM,C,91.bmp,120,-120,340241,334213,342259,336227,513770.0,507742.0,515788.0,509757.0,12
3,0,0,1,0,11,test,1,1,m,Thu Jan 09 2025 14:19:28 GMT-0600 (Central Standard Time),1017915.3000000045,I,m,1648,13,2,95.bmp,-120,-120,96.bmp,120,-120,97.bmp,-120,120,98.bmp,120,120,9710.90000000596,1008204.3999999985,8008,yes,SM,C,96.bmp,-120,120,340241,334213,342259,336227,523467.0,517439.0,525485.0,519453.0,13
1,1,0,0,0,11,test,1,0,z,Thu Jan 09 2025 14:19:28 GMT-0600 (Central Standard Time),1027911.8999999985,I,m,1943,14,2,99.bmp,-120,-120,100.bmp,120,-120,54.bmp,-120,120,51.bmp,120,120,9993.19999999553,1017918.700000003,8008,yes,SM,C,99.bmp,-120,-120,340241,334213,342259,336227,533181.0,527153.0,535198.0,529166.0,14
4,0,0,0,1,11,test,1,0,m,Thu Jan 09 2025 14:19:28 GMT-0600 (Central Standard Time),1037709.0,I,z,1746,15,2,60.bmp,-120,-120,61.bmp,120,-120,62.bmp,-120,120,63.bmp,120,120,9793.69999999553,1027915.3000000045,8008,yes,SM,C,61.bmp,120,120,340241,334213,342259,336227,543177.0,537150.0,545195.0,539164.0,15
1,1,0,0,0,12,test,1,1,m,Thu Jan 09 2025 14:19:28 GMT-0600 (Central Standard Time),1046872.6000000015,I,m,1109,16,2,52.bmp,-120,-120,53.bmp,120,-120,54.bmp,-120,120,55.bmp,120,120,9160.39999999851,1037712.200000003,8008,yes,SM,C,55.bmp,-120,-120,340241,334213,342259,336227,552974.0,546946.0,554992.0,548960.0,16
3,0,0,1,0,13,test,1,1,m,Thu Jan 09 2025 14:19:28 GMT-0600 (Central Standard Time),1056136.5,I,m,1217,17,2,72.bmp,-120,-120,73.bmp,120,-120,74.bmp,-120,120,75.bmp,120,120,9260.60000000149,1046875.8999999985,8008,yes,SM,C,72.bmp,-120,120,340241,334213,342259,336227,562138.0,556110.0,564140.0,558124.0,17
1,1,0,0,0,13,test,1,0,z,Thu Jan 09 2025 14:19:28 GMT-0600 (Central Standard Time),1065400.200000003,I,m,1209,18,2,56.bmp,-120,-120,57.bmp,120,-120,58.bmp,-120,120,59.bmp,120,120,9260.5,1056139.700000003,8008,yes,SM,C,56.bmp,-120,-120,340241,334213,342259,336227,571402.0,565374.0,573420.0,567388.0,18
2,0,1,0,0,14,test,1,1,z,Thu Jan 09 2025 14:19:28 GMT-0600 (Central Standard Time),1074763.8000000045,I,z,1313,19,2,76.bmp,-120,-120,77.bmp,120,-120,78.bmp,-120,120,79.bmp,120,120,9359.90000000596,1065403.8999999985,8008,yes,SM,C,77.bmp,120,-120,340241,334213,342259,336227,580666.0,574638.0,582684.0,576652.0,19
3,0,0,1,0,15,test,1,1,z,Thu Jan 09 2025 14:19:28 GMT-0600 (Central Standard Time),1083977.8000000045,I,z,1158,20,2,80.bmp,-120,-120,81.bmp,120,-120,82.bmp,-120,120,83.bmp,120,120,9211.20000000298,1074766.6000000015,8008,yes,SM,C,82.bmp,-120,120,340241,334213,342259,336227,590030.0,584001.0,592047.0,586015.0,20
1,1,0,0,0,16,test,1,1,m,Thu Jan 09 2025 14:19:28 GMT-0600 (Central Standard Time),1093441.3999999985,I,m,1401,21,2,64.bmp,-120,-120,65.bmp,120,-120,66.bmp,-120,120,67.bmp,120,120,9459.89999999851,1083981.5,8008,yes,SM,C,66.bmp,-120,-120,340241,334213,342259,336227,599243.0,593216.0,601260.0,595229.0,21
4,0,0,0,1,16,test,1,0,z,Thu Jan 09 2025 14:19:28 GMT-0600 (Central Standard Time),1102905.0,I,m,1401,22,2,68.bmp,-120,-120,69.bmp,120,-120,70.bmp,-120,120,71.bmp,120,120,9460.5,1093444.5,8008,yes,SM,C,71.bmp,120,120,340241,334213,342259,336227,608707.0,602679.0,610725.0,604693.0,22
1,1,0,0,0,17,test,1,1,m,Thu Jan 09 2025 14:19:28 GMT-0600 (Central Standard Time),1112285.6000000015,I,m,1321,23,2,84.bmp,-120,-120,85.bmp,120,-120,86.bmp,-120,120,87.bmp,120,120,9377.60000000149,1102908.0,8008,yes,SM,C,87.bmp,-120,-120,340241,334213,342259,336227,618171.0,612142.0,620188.0,614157.0,23
2,0,1,0,0,18,test,1,1,z,Thu Jan 09 2025 14:19:28 GMT-0600 (Central Standard Time),1121815.8999999985,I,z,1476,24,2,92.bmp,-120,-120,93.bmp,120,-120,94.bmp,-120,120,95.bmp,120,120,9526.79999999702,1112289.1000000015,8008,yes,SM,C,93.bmp,120,-120,340241,334213,342259,336227,627551.0,621523.0,629569.0,623537.0,24
4,0,0,0,1,19,test,1,1,m,Thu Jan 09 2025 14:19:28 GMT-0600 (Central Standard Time),1131380.5,I,m,1514,25,2,96.bmp,-120,-120,97.bmp,120,-120,98.bmp,-120,120,99.bmp,120,120,9561.60000000149,1121818.8999999985,8008,yes,SM,C,98.bmp,120,120,340241,334213,342259,336227,637082.0,631053.0,639099.0,633067.0,25
1,1,0,0,0,19,test,1,0,z,Thu Jan 09 2025 14:19:28 GMT-0600 (Central Standard Time),1140859.6000000015,I,m,1430,26,2,88.bmp,-120,-120,89.bmp,120,-120,90.bmp,-120,120,91.bmp,120,120,9475.60000000149,1131384.0,8008,yes,SM,C,88.bmp,-120,-120,340241,334213,342259,336227,646645.0,640618.0,648663.0,642631.0,26
4,0,0,0,1,20,test,1,1,z,Thu Jan 09 2025 14:19:28 GMT-0600 (Central Standard Time),1150190.5,I,z,1278,27,2,100.bmp,-120,-120,61.bmp,120,-120,51.bmp,-120,120,52.bmp,120,120,9328.0,1140862.5,8008,yes,SM,C,52.bmp,120,120,340241,334213,342259,336227,656125.0,650097.0,658143.0,652111.0,27
3,0,0,1,0,20,test,1,0,m,Thu Jan 09 2025 14:19:28 GMT-0600 (Central Standard Time),1159587.3000000045,I,z,1340,28,2,53.bmp,-120,-120,54.bmp,120,-120,55.bmp,-120,120,56.bmp,120,120,9394.0,1150193.3000000045,8008,yes,SM,C,53.bmp,-120,120,340241,334213,342259,336227,665456.0,659427.0,667473.0,661442.0,28
2,0,1,0,0,20,test,1,0,z,Thu Jan 09 2025 14:19:28 GMT-0600 (Central Standard Time),1168901.0,I,m,1262,29,2,57.bmp,-120,-120,58.bmp,120,-120,59.bmp,-120,120,60.bmp,120,120,9310.39999999851,1159590.6000000015,8008,yes,SM,C,58.bmp,120,-120,340241,334213,342259,336227,674853.0,668825.0,676871.0,670839.0,29
3,0,0,1,0,21,test,1,1,z,Thu Jan 09 2025 14:19:28 GMT-0600 (Central Standard Time),1178647.8999999985,I,z,1693,30,2,61.bmp,-120,-120,62.bmp,120,-120,63.bmp,-120,120,64.bmp,120,120,9743.39999999851,1168904.5,8008,yes,SM,C,63.bmp,-120,120,340241,334213,342259,336227,684167.0,678139.0,686184.0,680153.0,30
1,1,0,0,0,21,test,1,0,z,Thu Jan 09 2025 14:19:28 GMT-0600 (Central Standard Time),1188111.8000000045,I,m,1410,31,2,65.bmp,-120,-120,66.bmp,120,-120,67.bmp,-120,120,68.bmp,120,120,9460.30000000447,1178651.5,8008,yes,SM,C,65.bmp,-120,-120,340241,334213,342259,336227,693914.0,687886.0,695931.0,689899.0,31
2,0,1,0,0,22,test,1,1,m,Thu Jan 09 2025 14:19:28 GMT-0600 (Central Standard Time),1197225.6000000015,I,m,1050,32,2,69.bmp,-120,-120,70.bmp,120,-120,71.bmp,-120,120,72.bmp,120,120,9110.5,1188115.1000000015,8008,yes,SM,C,69.bmp,120,-120,340241,334213,342259,336227,703377.0,697349.0,705395.0,699363.0,32
4,0,0,0,1,23,test,1,1,z,Thu Jan 09 2025 14:19:28 GMT-0600 (Central Standard Time),1206489.200000003,I,z,1208,33,2,81.bmp,-120,-120,82.bmp,120,-120,83.bmp,-120,120,84.bmp,120,120,9260.60000000149,1197228.6000000015,8008,yes,SM,C,84.bmp,120,120,340241,334213,342259,336227,712491.0,706463.0,714509.0,708477.0,33
2,0,1,0,0,23,test,1,0,z,Thu Jan 09 2025 14:19:28 GMT-0600 (Central Standard Time),1215919.700000003,I,m,1369,34,2,73.bmp,-120,-120,74.bmp,120,-120,75.bmp,-120,120,76.bmp,120,120,9427.60000000149,1206492.1000000015,8008,yes,SM,C,74.bmp,120,-120,340241,334213,342259,336227,721755.0,715726.0,723772.0,717741.0,34
4,0,0,0,1,24,test,1,1,m,Thu Jan 09 2025 14:19:28 GMT-0600 (Central Standard Time),1225133.3999999985,I,m,1154,35,2,77.bmp,-120,-120,78.bmp,120,-120,79.bmp,-120,120,80.bmp,120,120,9210.5,1215922.8999999985,8008,yes,SM,C,79.bmp,120,120,340241,334213,342259,336227,731185.0,725157.0,733203.0,727171.0,35
3,0,0,1,0,24,test,1,0,m,Thu Jan 09 2025 14:19:28 GMT-0600 (Central Standard Time),1235197.0,I,None,2013,36,2,85.bmp,-120,-120,86.bmp,120,-120,87.bmp,-120,120,88.bmp,120,120,10060.60000000149,1225136.3999999985,8008,yes,SM,C,85.bmp,-120,120,340241,334213,342259,336227,740399.0,734371.0,742418.0,736385.0,36
1,1,0,0,0,25,test,1,1,m,Thu Jan 09 2025 14:19:28 GMT-0600 (Central Standard Time),1244427.200000003,I,m,1181,37,2,89.bmp,-120,-120,90.bmp,120,-120,91.bmp,-120,120,92.bmp,120,120,9226.89999999851,1235200.3000000045,8008,yes,SM,C,90.bmp,-120,-120,340241,334213,342259,336227,750463.0,744434.0,752480.0,746448.0,37
2,0,1,0,0,25,test,1,0,m,Thu Jan 09 2025 14:19:28 GMT-0600 (Central Standard Time),1254491.3000000045,I,None,2014,38,2,93.bmp,-120,-120,94.bmp,120,-120,95.bmp,-120,120,96.bmp,120,120,10061.20000000298,1244430.1000000015,8008,yes,SM,C,95.bmp,120,-120,340241,334213,342259,336227,759693.0,753664.0,761711.0,755679.0,38
4,0,0,0,1,25,test,1,0,z,Thu Jan 09 2025 14:19:28 GMT-0600 (Central Standard Time),1264554.5,I,None,2014,39,2,97.bmp,-120,-120,98.bmp,120,-120,99.bmp,-120,120,100.bmp,120,120,10059.69999999553,1254494.8000000045,8008,yes,SM,C,100.bmp,120,120,340241,334213,342259,336227,769756.0,763729.0,771774.0,765742.0,39
3,0,0,1,0,25,test,1,0,m,Thu Jan 09 2025 14:19:28 GMT-0600 (Central Standard Time),1274617.8999999985,I,None,2015,40,2,54.bmp,-120,-120,55.bmp,120,-120,56.bmp,-120,120,57.bmp,120,120,10060.19999999553,1264557.700000003,8008,yes,SM,C,55.bmp,-120,120,340241,334213,342259,336227,779820.0,773792.0,781837.0,775806.0,40
1,1,0,0,0,25,test,1,0,z,Thu Jan 09 2025 14:19:28 GMT-0600 (Central Standard Time),1284681.5,I,None,2014,41,2,58.bmp,-120,-120,59.bmp,120,-120,60.bmp,-120,120,61.bmp,120,120,10060.69999999553,1274620.8000000045,8008,yes,SM,C,58.bmp,-120,-120,340241,334213,342259,336227,789884.0,783855.0,791901.0,785869.0,41
4,0,0,0,1,25,test,1,0,z,Thu Jan 09 2025 14:19:28 GMT-0600 (Central Standard Time),1294211.8999999985,I,m,1472,42,2,62.bmp,-120,-120,63.bmp,120,-120,64.bmp,-120,120,65.bmp,120,120,9527.29999999702,1284684.6000000015,8008,yes,SM,C,65.bmp,120,120,340241,334213,342259,336227,799947.0,793919.0,801965.0,795933.0,42
1,1,0,0,0,26,test,1,1,z,Thu Jan 09 2025 14:19:28 GMT-0600 (Central Standard Time),1304158.8000000045,I,z,1894,43,2,66.bmp,-120,-120,67.bmp,120,-120,68.bmp,-120,120,69.bmp,120,120,9944.0,1294214.8000000045,8008,yes,SM,C,66.bmp,-120,-120,340241,334213,342259,336227,809477.0,803449.0,811495.0,805463.0,43
4,0,0,0,1,27,test,1,1,m,Thu Jan 09 2025 14:19:28 GMT-0600 (Central Standard Time),1313472.5,I,m,1259,44,2,54.bmp,-120,-120,51.bmp,120,-120,52.bmp,-120,120,53.bmp,120,120,9310.19999999553,1304162.3000000045,8008,yes,SM,C,54.bmp,120,120,340241,334213,342259,336227,819425.0,813397.0,821442.0,815411.0,44
1,1,0,0,0,28,test,1,1,m,Thu Jan 09 2025 14:19:28 GMT-0600 (Central Standard Time),1322569.8000000045,I,m,1034,45,2,78.bmp,-120,-120,79.bmp,120,-120,80.bmp,-120,120,81.bmp,120,120,9093.70000000298,1313476.1000000015,8008,yes,SM,C,81.bmp,-120,-120,340241,334213,342259,336227,828738.0,822710.0,830755.0,824724.0,45
1,1,0,0,0,29,test,1,1,m,Thu Jan 09 2025 14:19:28 GMT-0600 (Central Standard Time),1331850.1000000015,I,m,1224,46,2,70.bmp,-120,-120,71.bmp,120,-120,72.bmp,-120,120,73.bmp,120,120,9277.20000000298,1322572.8999999985,8008,yes,SM,C,71.bmp,-120,-120,340241,334213,342259,336227,837835.0,831807.0,839853.0,833821.0,46
3,0,0,1,0,30,test,1,1,z,Thu Jan 09 2025 14:19:28 GMT-0600 (Central Standard Time),1340846.8000000045,I,z,936,47,2,74.bmp,-120,-120,75.bmp,120,-120,76.bmp,-120,120,77.bmp,120,120,8993.60000000149,1331853.200000003,8008,yes,SM,C,76.bmp,-120,120,340241,334213,342259,336227,847116.0,841087.0,849133.0,843101.0,47
3,0,0,1,0,31,test,1,1,z,Thu Jan 09 2025 14:19:28 GMT-0600 (Central Standard Time),1349894.3999999985,I,z,995,48,2,90.bmp,-120,-120,91.bmp,120,-120,92.bmp,-120,120,93.bmp,120,120,9044.79999999702,1340849.6000000015,8008,yes,SM,C,92.bmp,-120,120,340241,334213,342259,336227,856113.0,850084.0,858130.0,852099.0,48
2,0,1,0,0,31,test,1,0,z,Thu Jan 09 2025 14:19:28 GMT-0600 (Central Standard Time),1359574.5,I,m,1627,49,2,86.bmp,-120,-120,87.bmp,120,-120,88.bmp,-120,120,89.bmp,120,120,9677.10000000149,1349897.3999999985,8008,yes,SM,C,87.bmp,120,-120,340241,334213,342259,336227,865160.0,859132.0,867178.0,861146.0,49
3,0,0,1,0,32,test,1,1,m,Thu Jan 09 2025 14:19:28 GMT-0600 (Central Standard Time),1368755.1000000015,I,m,1090,50,2,82.bmp,-120,-120,83.bmp,120,-120,84.bmp,-120,120,85.bmp,120,120,9177.39999999851,1359577.700000003,8008,yes,SM,C,82.bmp,-120,120,340241,334213,342259,336227,874874.0,868812.0,876891.0,870871.0,50
2,0,1,0,0,32,test,1,0,z,Thu Jan 09 2025 14:19:28 GMT-0600 (Central Standard Time),1378518.8000000045,I,m,1703,51,2,94.bmp,-120,-120,95.bmp,120,-120,96.bmp,-120,120,97.bmp,120,120,9760.70000000298,1368758.1000000015,8008,yes,SM,C,95.bmp,120,-120,340241,334213,342259,336227,884021.0,877992.0,886038.0,880007.0,51
4,0,0,0,1,33,test,1,1,m,Thu Jan 09 2025 14:19:28 GMT-0600 (Central Standard Time),1388515.6000000015,I,m,1947,52,2,98.bmp,-120,-120,99.bmp,120,-120,100.bmp,-120,120,81.bmp,120,120,9993.70000000298,1378521.8999999985,8008,yes,SM,C,98.bmp,120,120,340241,334213,342259,336227,893785.0,887756.0,895802.0,889770.0,52
3,0,0,1,0,34,test,1,1,z,Thu Jan 09 2025 14:19:28 GMT-0600 (Central Standard Time),1398029.3000000045,I,z,1462,53,2,51.bmp,-120,-120,52.bmp,120,-120,53.bmp,-120,120,54.bmp,120,120,9510.90000000596,1388518.3999999985,8008,yes,SM,C,53.bmp,-120,120,340241,334213,342259,336227,903781.0,897753.0,905799.0,899767.0,53
1,1,0,0,0,34,test,1,0,m,Thu Jan 09 2025 14:19:28 GMT-0600 (Central Standard Time),1407109.8999999985,I,z,1028,54,2,55.bmp,-120,-120,56.bmp,120,-120,57.bmp,-120,120,58.bmp,120,120,9077.89999999851,1398032.0,8008,yes,SM,C,57.bmp,-120,-120,340241,334213,342259,336227,913295.0,907266.0,915313.0,909281.0,54
4,0,0,0,1,35,test,1,1,z,Thu Jan 09 2025 14:19:28 GMT-0600 (Central Standard Time),1416523.5,I,z,1356,55,2,59.bmp,-120,-120,60.bmp,120,-120,61.bmp,-120,120,62.bmp,120,120,9410.89999999851,1407112.6000000015,8008,yes,SM,C,62.bmp,120,120,340241,334213,342259,336227,922375.0,916347.0,924393.0,918361.0,55
2,0,1,0,0,36,test,1,1,m,Thu Jan 09 2025 14:19:28 GMT-0600 (Central Standard Time),1426337.1000000015,I,m,1758,56,2,63.bmp,-120,-120,64.bmp,120,-120,65.bmp,-120,120,66.bmp,120,120,9810.60000000149,1416526.5,8008,yes,SM,C,63.bmp,120,-120,340241,334213,342259,336227,931789.0,925761.0,933807.0,927775.0,56
4,0,0,0,1,37,test,1,1,m,Thu Jan 09 2025 14:19:28 GMT-0600 (Central Standard Time),1436134.3000000045,I,m,1737,57,2,67.bmp,-120,-120,68.bmp,120,-120,69.bmp,-120,120,70.bmp,120,120,9794.5,1426339.8000000045,8008,yes,SM,C,68.bmp,120,120,340241,334213,342259,336227,941604.0,935574.0,943620.0,937589.0,57
3,0,0,1,0,37,test,1,0,z,Thu Jan 09 2025 14:19:28 GMT-0600 (Central Standard Time),1445914.200000003,I,m,1716,58,2,71.bmp,-120,-120,72.bmp,120,-120,73.bmp,-120,120,74.bmp,120,120,9776.80000000447,1436137.3999999985,8008,yes,SM,C,73.bmp,-120,120,340241,334213,342259,336227,951400.0,945372.0,953417.0,947386.0,58
2,0,1,0,0,38,test,1,1,m,Thu Jan 09 2025 14:19:28 GMT-0600 (Central Standard Time),1455577.8000000045,I,m,1599,59,2,75.bmp,-120,-120,76.bmp,120,-120,77.bmp,-120,120,78.bmp,120,120,9660.80000000447,1445917.0,8008,yes,SM,C,78.bmp,120,-120,340241,334213,342259,336227,961180.0,955151.0,963198.0,957166.0,59
1,1,0,0,0,39,test,1,1,z,Thu Jan 09 2025 14:19:28 GMT-0600 (Central Standard Time),1465209.200000003,I,z,1568,60,2,79.bmp,-120,-120,80.bmp,120,-120,81.bmp,-120,120,82.bmp,120,120,9628.5,1455580.700000003,8008,yes,SM,C,79.bmp,-120,-120,340241,334213,342259,336227,970844.0,964815.0,972861.0,966829.0,60
2,0,1,0,0,39,test,1,0,z,Thu Jan 09 2025 14:19:28 GMT-0600 (Central Standard Time),1474822.1000000015,I,m,1561,61,2,83.bmp,-120,-120,84.bmp,120,-120,85.bmp,-120,120,86.bmp,120,120,9609.60000000149,1465212.5,8008,yes,SM,C,84.bmp,120,-120,340241,334213,342259,336227,980474.0,974447.0,982492.0,976459.0,61
4,0,0,0,1,40,test,1,1,z,Thu Jan 09 2025 14:19:28 GMT-0600 (Central Standard Time),1484052.3999999985,I,z,1180,62,2,91.bmp,-120,-120,92.bmp,120,-120,93.bmp,-120,120,94.bmp,120,120,9227.39999999851,1474825.0,8008,yes,SM,C,94.bmp,120,120,340241,334213,342259,336227,990088.0,984059.0,992105.0,986073.0,62
1,1,0,0,0,41,test,1,1,m,Thu Jan 09 2025 14:19:28 GMT-0600 (Central Standard Time),1493649.3000000045,I,m,1533,63,2,95.bmp,-120,-120,96.bmp,120,-120,97.bmp,-120,120,98.bmp,120,120,9594.0,1484055.3000000045,8008,yes,SM,C,95.bmp,-120,120,340241,334213,342259,336227,999318.0,993290.0,1001335.0,995304.0,63
2,0,1,0,0,41,test,1,0,z,Thu Jan 09 2025 14:19:28 GMT-0600 (Central Standard Time),1503713.3000000045,I,None,2015,64,2,99.bmp,-120,-120,100.bmp,120,-120,62.bmp,-120,120,51.bmp,120,120,10061.10000000149,1493652.200000003,8008,yes,SM,C,100.bmp,120,-120,340241,334213,342259,336227,1008915.0,1002886.0,1010932.0,1004901.0,64
4,0,0,0,1,42,test,1,1,m,Thu Jan 09 2025 14:19:28 GMT-0600 (Central Standard Time),1513411.1000000015,I,m,1633,65,2,52.bmp,-120,-120,53.bmp,120,-120,54.bmp,-120,120,55.bmp,120,120,9694.5,1503716.6000000015,8008,yes,SM,C,54.bmp,120,120,340241,334213,342259,336227,1018978.0,1012951.0,1020996.0,1014964.0,65
3,0,0,1,0,43,test,1,1,m,Thu Jan 09 2025 14:19:28 GMT-0600 (Central Standard Time),1522524.700000003,I,m,1064,66,2,56.bmp,-120,-120,57.bmp,120,-120,58.bmp,-120,120,59.bmp,120,120,9109.70000000298,1513415.0,8008,yes,SM,C,59.bmp,-120,120,340241,334213,342259,336227,1028676.0,1022649.0,1030693.0,1024661.0,66
2,0,1,0,0,44,test,1,1,m,Thu Jan 09 2025 14:19:28 GMT-0600 (Central Standard Time),1531937.3000000045,I,m,1350,67,2,87.bmp,-120,-120,88.bmp,120,-120,89.bmp,-120,120,90.bmp,120,120,9408.30000000447,1522529.0,8008,yes,SM,C,89.bmp,120,-120,340241,334213,342259,336227,1037789.0,1031763.0,1039807.0,1033775.0,67
3,0,0,1,0,45,test,1,1,z,Thu Jan 09 2025 14:19:28 GMT-0600 (Central Standard Time),1541601.1000000015,I,z,1608,68,2,60.bmp,-120,-120,61.bmp,120,-120,62.bmp,-120,120,63.bmp,120,120,9660.0,1531941.1000000015,8008,yes,SM,C,62.bmp,-120,120,340241,334213,342259,336227,1047203.0,1041175.0,1049221.0,1043189.0,68
1,1,0,0,0,46,test,1,1,m,Thu Jan 09 2025 14:19:28 GMT-0600 (Central Standard Time),1550831.5,I,m,1169,69,2,64.bmp,-120,-120,65.bmp,120,-120,66.bmp,-120,120,67.bmp,120,120,9227.5,1541604.0,8008,yes,SM,C,65.bmp,-120,-120,340241,334213,342259,336227,1056867.0,1050838.0,1058884.0,1052853.0,69
2,0,1,0,0,46,test,1,0,m,Thu Jan 09 2025 14:19:28 GMT-0600 (Central Standard Time),1560595.0,I,z,1697,70,2,68.bmp,-120,-120,69.bmp,120,-120,70.bmp,-120,120,71.bmp,120,120,9760.5,1550834.5,8008,yes,SM,C,70.bmp,120,-120,340241,334213,342259,336227,1066097.0,1060069.0,1068116.0,1062083.0,70
4,0,0,0,1,47,test,1,1,z,Thu Jan 09 2025 14:19:28 GMT-0600 (Central Standard Time),1570142.1000000015,I,z,1495,71,2,72.bmp,-120,-120,73.bmp,120,-120,74.bmp,-120,120,75.bmp,120,120,9544.29999999702,1560597.8000000045,8008,yes,SM,C,75.bmp,120,120,340241,334213,342259,336227,1075861.0,1069832.0,1077878.0,1071847.0,71
1,1,0,0,0,48,test,1,1,z,Thu Jan 09 2025 14:19:28 GMT-0600 (Central Standard Time),1579089.3000000045,I,z,882,72,2,76.bmp,-120,-120,77.bmp,120,-120,78.bmp,-120,120,79.bmp,120,120,8944.20000000298,1570145.1000000015,8008,yes,SM,C,76.bmp,-120,-120,340241,334213,342259,336227,1085408.0,1079379.0,1087427.0,1081394.0,72
2,0,1,0,0,49,test,1,1,z,Thu Jan 09 2025 14:19:28 GMT-0600 (Central Standard Time),1588653.1000000015,I,z,1504,73,2,80.bmp,-120,-120,81.bmp,120,-120,82.bmp,-120,120,83.bmp,120,120,9560.89999999851,1579092.200000003,8008,yes,SM,C,81.bmp,120,-120,340241,334213,342259,336227,1094355.0,1088326.0,1096373.0,1090340.0,73
4,0,0,0,1,50,test,1,1,m,Thu Jan 09 2025 14:19:28 GMT-0600 (Central Standard Time),1597767.0,I,m,1053,74,2,84.bmp,-120,-120,85.bmp,120,-120,86.bmp,-120,120,87.bmp,120,120,9110.89999999851,1588656.1000000015,8008,yes,SM,C,86.bmp,120,120,340241,334213,342259,336227,1103918.0,1097890.0,1105936.0,1099904.0,74
2,0,1,0,0,50,test,1,0,m,Thu Jan 09 2025 14:19:28 GMT-0600 (Central Standard Time),1607797.0,I,z,1971,75,2,88.bmp,-120,-120,89.bmp,120,-120,90.bmp,-120,120,91.bmp,120,120,10026.79999999702,1597770.200000003,8008,yes,SM,C,91.bmp,120,-120,340241,334213,342259,336227,1113033.0,1107005.0,1115050.0,1109018.0,75
1,1,0,0,0,51,test,1,1,z,Thu Jan 09 2025 14:19:28 GMT-0600 (Central Standard Time),1617194.0,I,z,1341,76,2,92.bmp,-120,-120,93.bmp,120,-120,94.bmp,-120,120,95.bmp,120,120,9393.39999999851,1607800.6000000015,8008,yes,SM,C,92.bmp,-120,-120,340241,334213,342259,336227,1123063.0,1117035.0,1125080.0,1119048.0,76
3,0,0,1,0,52,test,1,1,z,Thu Jan 09 2025 14:19:28 GMT-0600 (Central Standard Time),1626691.1000000015,I,z,1440,77,2,100.bmp,-120,-120,61.bmp,120,-120,51.bmp,-120,120,52.bmp,120,120,9494.29999999702,1617196.8000000045,8008,yes,SM,C,51.bmp,-120,120,340241,334213,342259,336227,1132460.0,1126431.0,1134477.0,1128445.0,77
1,1,0,0,0,52,test,1,0,m,Thu Jan 09 2025 14:19:28 GMT-0600 (Central Standard Time),1636754.6000000015,I,None,2013,78,2,96.bmp,-120,-120,97.bmp,120,-120,98.bmp,-120,120,99.bmp,120,120,10060.70000000298,1626693.8999999985,8008,yes,SM,C,97.bmp,-120,-120,340241,334213,342259,336227,1141957.0,1135928.0,1143975.0,1137943.0,78
4,0,0,0,1,52,test,1,0,m,Thu Jan 09 2025 14:19:28 GMT-0600 (Central Standard Time),1646335.0,I,z,1519,79,2,57.bmp,-120,-120,58.bmp,120,-120,59.bmp,-120,120,60.bmp,120,120,9577.69999999553,1636757.3000000045,8008,yes,SM,C,57.bmp,120,120,340241,334213,342259,336227,1152020.0,1145992.0,1154038.0,1148006.0,79
3,0,0,1,0,52,test,1,0,m,Thu Jan 09 2025 14:19:28 GMT-0600 (Central Standard Time),1656148.6000000015,I,z,1755,80,2,53.bmp,-120,-120,54.bmp,120,-120,55.bmp,-120,120,56.bmp,120,120,9810.89999999851,1646337.700000003,8008,yes,SM,C,56.bmp,-120,120,340241,334213,342259,336227,1161600.0,1155572.0,1163618.0,1157586.0,80
