Number,acc_sum,block,block_c,block_cond,con_img,correct,correct_response,datetime,endtime,jitter,project,response,response_time,row_sel,session_number,start_end,starttime,subject_id,task,task_vers,trial
8,1,prac,1,A,circle.png,1,m,Thu Jan 09 2025 12:48:08 GMT-0600 (Central Standard Time),94151.0,1600,I,m,1365,7,2,3759.89999999851,90391.10000000149,8008,NTS,C,1
2,2,prac,1,A,circle.png,1,z,Thu Jan 09 2025 12:48:08 GMT-0600 (Central Standard Time),97633.10000000149,2000,I,z,688,2,2,3474.6999999955297,94158.40000000596,8008,NTS,C,2
3,3,prac,1,A,circle.png,1,z,Thu Jan 09 2025 12:48:08 GMT-0600 (Central Standard Time),100382.5,1200,I,z,750,3,2,2744.2999999970198,97638.20000000298,8008,NTS,C,3
1,4,prac,1,A,circle.png,1,z,Thu Jan 09 2025 12:48:08 GMT-0600 (Central Standard Time),102781.70000000298,1000,I,z,607,1,2,2393.5,100388.20000000298,8008,NTS,C,4
9,5,prac,1,A,circle.png,1,m,Thu Jan 09 2025 12:48:08 GMT-0600 (Central Standard Time),105580.80000000447,1500,I,m,509,8,2,2793.8000000044703,102787.0,8008,NTS,C,5
7,6,prac,1,A,circle.png,1,m,Thu Jan 09 2025 12:48:08 GMT-0600 (Central Standard Time),108513.10000000149,1700,I,m,446,6,2,2926.6999999955297,105586.40000000596,8008,NTS,C,6
1,7,prac,1,A,circle.png,1,z,Thu Jan 09 2025 12:48:08 GMT-0600 (Central Standard Time),110945.70000000298,1000,I,z,638,1,2,2427.2000000029802,108518.5,8008,NTS,C,7
8,8,prac,1,A,circle.png,1,m,Thu Jan 09 2025 12:48:08 GMT-0600 (Central Standard Time),113945.0,1600,I,m,613,7,2,2994.39999999851,110950.60000000149,8008,NTS,C,8
2,9,prac,1,A,circle.png,1,z,Thu Jan 09 2025 12:48:08 GMT-0600 (Central Standard Time),117277.0,2000,I,z,534,2,2,3327.0,113950.0,8008,NTS,C,9
6,10,prac,1,A,circle.png,1,m,Thu Jan 09 2025 12:48:08 GMT-0600 (Central Standard Time),120592.80000000447,1900,I,m,622,5,2,3310.3000000044703,117282.5,8008,NTS,C,10
4,11,prac,1,A,circle.png,1,z,Thu Jan 09 2025 12:48:08 GMT-0600 (Central Standard Time),123458.5,1400,I,z,670,4,2,2860.1999999955297,120598.30000000447,8008,NTS,C,11
3,12,prac,1,A,circle.png,1,z,Thu Jan 09 2025 12:48:08 GMT-0600 (Central Standard Time),126091.20000000298,1200,I,z,645,3,2,2627.7999999970198,123463.40000000596,8008,NTS,C,12
7,1,prac,1,B,triangle.png,1,z,Thu Jan 09 2025 12:48:08 GMT-0600 (Central Standard Time),170660.70000000298,2000,I,z,1335,6,2,4128.5,166532.20000000298,8008,NTS,C,1
4,2,prac,1,B,triangle.png,1,m,Thu Jan 09 2025 12:48:08 GMT-0600 (Central Standard Time),173709.40000000596,1500,I,m,751,4,2,3038.9000000059605,170670.5,8008,NTS,C,2
1,3,prac,1,B,triangle.png,1,z,Thu Jan 09 2025 12:48:08 GMT-0600 (Central Standard Time),177224.90000000596,1900,I,z,822,1,2,3510.7000000029802,173714.20000000298,8008,NTS,C,3
9,4,prac,1,B,triangle.png,1,z,Thu Jan 09 2025 12:48:08 GMT-0600 (Central Standard Time),180223.80000000447,1400,I,z,798,8,2,2994.2000000029802,177229.6000000015,8008,NTS,C,4
9,5,prac,1,B,triangle.png,1,z,Thu Jan 09 2025 12:48:08 GMT-0600 (Central Standard Time),183439.70000000298,1400,I,z,1015,8,2,3210.89999999851,180228.80000000447,8008,NTS,C,5
3,6,prac,1,B,triangle.png,1,z,Thu Jan 09 2025 12:48:08 GMT-0600 (Central Standard Time),187038.5,1600,I,z,1199,3,2,3594.0,183444.5,8008,NTS,C,6
6,7,prac,1,B,triangle.png,1,m,Thu Jan 09 2025 12:48:08 GMT-0600 (Central Standard Time),189663.5,1000,I,m,728,5,2,2619.7999999970198,187043.70000000298,8008,NTS,C,7
3,8,prac,1,B,triangle.png,1,z,Thu Jan 09 2025 12:48:08 GMT-0600 (Central Standard Time),192920.0,1600,I,z,848,3,2,3251.0999999940395,189668.90000000596,8008,NTS,C,8
6,9,prac,1,B,triangle.png,1,m,Thu Jan 09 2025 12:48:08 GMT-0600 (Central Standard Time),195452.6000000015,1000,I,m,743,5,2,2527.7999999970198,192924.80000000447,8008,NTS,C,9
2,10,prac,1,B,triangle.png,1,m,Thu Jan 09 2025 12:48:08 GMT-0600 (Central Standard Time),198701.40000000596,1700,I,m,758,2,2,3243.8000000044703,195457.6000000015,8008,NTS,C,10
8,11,prac,1,B,triangle.png,1,m,Thu Jan 09 2025 12:48:08 GMT-0600 (Central Standard Time),201850.6000000015,1200,I,m,1161,7,2,3143.0,198707.6000000015,8008,NTS,C,11
2,12,prac,1,B,triangle.png,1,m,Thu Jan 09 2025 12:48:08 GMT-0600 (Central Standard Time),205049.70000000298,1700,I,m,704,2,2,3194.10000000149,201855.6000000015,8008,NTS,C,12
2,1,test,1,A,circle.png,1,z,Thu Jan 09 2025 12:48:08 GMT-0600 (Central Standard Time),231391.20000000298,2000,I,z,616,2,2,2644.7000000029802,228746.5,8008,NTS,C,1
7,2,test,1,A,circle.png,1,m,Thu Jan 09 2025 12:48:08 GMT-0600 (Central Standard Time),233790.6000000015,1700,I,m,668,6,2,2395.1999999955297,231395.40000000596,8008,NTS,C,2
3,3,test,1,A,circle.png,1,z,Thu Jan 09 2025 12:48:08 GMT-0600 (Central Standard Time),235773.1000000015,1200,I,z,760,3,2,1978.6999999955297,233794.40000000596,8008,NTS,C,3
9,4,test,1,A,circle.png,1,m,Thu Jan 09 2025 12:48:08 GMT-0600 (Central Standard Time),237989.20000000298,1500,I,m,694,8,2,2212.2000000029802,235777.0,8008,NTS,C,4
1,5,test,1,A,circle.png,1,z,Thu Jan 09 2025 12:48:08 GMT-0600 (Central Standard Time),239588.5,1000,I,z,569,1,2,1595.5999999940395,237992.90000000596,8008,NTS,C,5
4,6,test,1,A,circle.png,1,z,Thu Jan 09 2025 12:48:08 GMT-0600 (Central Standard Time),242204.5,1400,I,z,1194,4,2,2612.5,239592.0,8008,NTS,C,6
3,7,test,1,A,circle.png,1,z,Thu Jan 09 2025 12:48:08 GMT-0600 (Central Standard Time),244037.20000000298,1200,I,z,610,3,2,1829.1000000014901,242208.1000000015,8008,NTS,C,7
7,8,test,1,A,circle.png,1,m,Thu Jan 09 2025 12:48:08 GMT-0600 (Central Standard Time),246336.70000000298,1700,I,m,574,6,2,2296.2999999970198,244040.40000000596,8008,NTS,C,8
6,9,test,1,A,circle.png,1,m,Thu Jan 09 2025 12:48:08 GMT-0600 (Central Standard Time),248919.1000000015,1900,I,m,658,5,2,2578.89999999851,246340.20000000298,8008,NTS,C,9
1,10,test,1,A,circle.png,1,z,Thu Jan 09 2025 12:48:08 GMT-0600 (Central Standard Time),250552.0,1000,I,z,607,1,2,1629.1999999955297,248922.80000000447,8008,NTS,C,10
3,11,test,1,A,circle.png,1,z,Thu Jan 09 2025 12:48:08 GMT-0600 (Central Standard Time),252601.6000000015,1200,I,z,814,3,2,2044.1999999955297,250557.40000000596,8008,NTS,C,11
9,12,test,1,A,circle.png,1,m,Thu Jan 09 2025 12:48:08 GMT-0600 (Central Standard Time),254667.1000000015,1500,I,m,537,8,2,2061.6999999955297,252605.40000000596,8008,NTS,C,12
8,13,test,1,A,circle.png,1,m,Thu Jan 09 2025 12:48:08 GMT-0600 (Central Standard Time),256900.0,1600,I,m,602,7,2,2229.1999999955297,254670.80000000447,8008,NTS,C,13
4,14,test,1,A,circle.png,1,z,Thu Jan 09 2025 12:48:08 GMT-0600 (Central Standard Time),258999.40000000596,1400,I,z,667,4,2,2095.7000000029802,256903.70000000298,8008,NTS,C,14
7,15,test,1,A,circle.png,1,m,Thu Jan 09 2025 12:48:08 GMT-0600 (Central Standard Time),261398.30000000447,1700,I,m,668,6,2,2395.2000000029802,259003.1000000015,8008,NTS,C,15
2,16,test,1,A,circle.png,1,z,Thu Jan 09 2025 12:48:08 GMT-0600 (Central Standard Time),264064.30000000447,2000,I,z,640,2,2,2662.2000000029802,261402.1000000015,8008,NTS,C,16
3,17,test,1,A,circle.png,1,z,Thu Jan 09 2025 12:48:08 GMT-0600 (Central Standard Time),266113.80000000447,1200,I,z,822,3,2,2045.7000000029802,264068.1000000015,8008,NTS,C,17
8,18,test,1,A,circle.png,1,m,Thu Jan 09 2025 12:48:08 GMT-0600 (Central Standard Time),268479.5,1600,I,m,741,7,2,2362.1999999955297,266117.30000000447,8008,NTS,C,18
8,19,test,1,A,circle.png,1,m,Thu Jan 09 2025 12:48:08 GMT-0600 (Central Standard Time),270729.1000000015,1600,I,m,615,7,2,2246.10000000149,268483.0,8008,NTS,C,19
8,20,test,1,A,circle.png,1,m,Thu Jan 09 2025 12:48:08 GMT-0600 (Central Standard Time),273078.40000000596,1600,I,m,718,7,2,2345.8000000044703,270732.6000000015,8008,NTS,C,20
1,21,test,1,A,circle.png,1,z,Thu Jan 09 2025 12:48:08 GMT-0600 (Central Standard Time),274761.0,1000,I,z,664,1,2,1678.7999999970198,273082.200000003,8008,NTS,C,21
4,22,test,1,A,circle.png,1,z,Thu Jan 09 2025 12:48:08 GMT-0600 (Central Standard Time),276893.6000000015,1400,I,z,702,4,2,2129.10000000149,274764.5,8008,NTS,C,22
6,23,test,1,A,circle.png,1,m,Thu Jan 09 2025 12:48:08 GMT-0600 (Central Standard Time),279509.40000000596,1900,I,m,685,5,2,2612.2000000029802,276897.200000003,8008,NTS,C,23
2,24,test,1,A,circle.png,1,z,Thu Jan 09 2025 12:48:08 GMT-0600 (Central Standard Time),282058.700000003,2000,I,z,521,2,2,2545.60000000149,279513.1000000015,8008,NTS,C,24
3,1,test,1,B,triangle.png,1,z,Thu Jan 09 2025 12:48:08 GMT-0600 (Central Standard Time),345022.200000003,1600,I,z,843,3,2,2462.60000000149,342559.6000000015,8008,NTS,C,1
6,2,test,1,B,triangle.png,1,m,Thu Jan 09 2025 12:48:08 GMT-0600 (Central Standard Time),346571.90000000596,1000,I,m,528,5,2,1545.2000000029802,345026.700000003,8008,NTS,C,2
2,3,test,1,B,triangle.png,1,m,Thu Jan 09 2025 12:48:08 GMT-0600 (Central Standard Time),348737.80000000447,1200,I,m,939,10,2,2162.0,346575.80000000447,8008,NTS,C,3
9,4,test,1,B,triangle.png,1,z,Thu Jan 09 2025 12:48:08 GMT-0600 (Central Standard Time),351453.80000000447,1900,I,z,793,16,2,2711.89999999851,348741.90000000596,8008,NTS,C,4
9,5,test,1,B,triangle.png,1,z,Thu Jan 09 2025 12:48:08 GMT-0600 (Central Standard Time),353736.200000003,1400,I,z,857,8,2,2278.89999999851,351457.30000000447,8008,NTS,C,5
1,6,test,1,B,triangle.png,1,z,Thu Jan 09 2025 12:48:08 GMT-0600 (Central Standard Time),355902.30000000447,1400,I,z,743,9,2,2162.5,353739.80000000447,8008,NTS,C,6
6,7,test,1,B,triangle.png,1,m,Thu Jan 09 2025 12:48:08 GMT-0600 (Central Standard Time),358051.700000003,1500,I,m,621,13,2,2145.5,355906.200000003,8008,NTS,C,7
8,8,test,1,B,triangle.png,1,m,Thu Jan 09 2025 12:48:08 GMT-0600 (Central Standard Time),359985.6000000015,1200,I,m,699,7,2,1930.3999999985099,358055.200000003,8008,NTS,C,8
2,9,test,1,B,triangle.png,1,m,Thu Jan 09 2025 12:48:08 GMT-0600 (Central Standard Time),362516.90000000596,1700,I,m,811,2,2,2527.8000000044703,359989.1000000015,8008,NTS,C,9
7,10,test,1,B,triangle.png,1,z,Thu Jan 09 2025 12:48:08 GMT-0600 (Central Standard Time),365382.5,2000,I,z,835,6,2,2861.0999999940395,362521.40000000596,8008,NTS,C,10
8,11,test,1,B,triangle.png,1,m,Thu Jan 09 2025 12:48:08 GMT-0600 (Central Standard Time),367898.5,1700,I,m,795,15,2,2512.0,365386.5,8008,NTS,C,11
9,12,test,1,B,triangle.png,1,z,Thu Jan 09 2025 12:48:08 GMT-0600 (Central Standard Time),370214.200000003,1400,I,z,884,8,2,2312.0,367902.200000003,8008,NTS,C,12
7,13,test,1,B,triangle.png,1,z,Thu Jan 09 2025 12:48:08 GMT-0600 (Central Standard Time),372830.200000003,1600,I,z,985,14,2,2612.5,370217.700000003,8008,NTS,C,13
9,14,test,1,B,triangle.png,1,z,Thu Jan 09 2025 12:48:08 GMT-0600 (Central Standard Time),375596.1000000015,1900,I,z,837,16,2,2762.39999999851,372833.700000003,8008,NTS,C,14
1,15,test,1,B,triangle.png,1,z,Thu Jan 09 2025 12:48:08 GMT-0600 (Central Standard Time),378362.90000000596,1900,I,z,847,1,2,2763.3000000044703,375599.6000000015,8008,NTS,C,15
4,16,test,1,B,triangle.png,1,m,Thu Jan 09 2025 12:48:08 GMT-0600 (Central Standard Time),380511.30000000447,1500,I,m,625,4,2,2144.60000000149,378366.700000003,8008,NTS,C,16
4,17,test,1,B,triangle.png,1,m,Thu Jan 09 2025 12:48:08 GMT-0600 (Central Standard Time),382144.30000000447,1000,I,m,608,12,2,1629.5,380514.80000000447,8008,NTS,C,17
7,18,test,1,B,triangle.png,1,z,Thu Jan 09 2025 12:48:08 GMT-0600 (Central Standard Time),385076.200000003,2000,I,z,903,6,2,2928.2000000029802,382148.0,8008,NTS,C,18
3,19,test,1,B,triangle.png,1,z,Thu Jan 09 2025 12:48:08 GMT-0600 (Central Standard Time),387775.5,2000,I,z,675,11,2,2696.0,385079.5,8008,NTS,C,19
4,20,test,1,B,triangle.png,1,m,Thu Jan 09 2025 12:48:08 GMT-0600 (Central Standard Time),389908.200000003,1500,I,m,603,4,2,2129.10000000149,387779.1000000015,8008,NTS,C,20
6,21,test,1,B,triangle.png,1,m,Thu Jan 09 2025 12:48:08 GMT-0600 (Central Standard Time),392074.30000000447,1500,I,m,639,13,2,2162.3000000044703,389912.0,8008,NTS,C,21
3,22,test,1,B,triangle.png,1,z,Thu Jan 09 2025 12:48:08 GMT-0600 (Central Standard Time),394290.1000000015,1600,I,z,589,3,2,2212.1999999955297,392077.90000000596,8008,NTS,C,22
8,23,test,1,B,triangle.png,1,m,Thu Jan 09 2025 12:48:08 GMT-0600 (Central Standard Time),396639.40000000596,1700,I,m,617,15,2,2345.3000000044703,394294.1000000015,8008,NTS,C,23
1,24,test,1,B,triangle.png,1,z,Thu Jan 09 2025 12:48:08 GMT-0600 (Central Standard Time),399305.200000003,1900,I,z,740,1,2,2662.2000000029802,396643.0,8008,NTS,C,24
6,0,prac,1,C,circle.png,0,m,Thu Jan 09 2025 12:48:08 GMT-0600 (Central Standard Time),454271.200000003,2000,I,None,1514,5,2,4293.79999999702,449977.40000000596,8008,NTS,C,1
7,0,prac,1,C,triangle.png,0,z,Thu Jan 09 2025 12:48:08 GMT-0600 (Central Standard Time),457770.200000003,1200,I,None,1515,6,2,3493.60000000149,454276.6000000015,8008,NTS,C,2
4,0,prac,1,C,circle.png,0,z,Thu Jan 09 2025 12:48:08 GMT-0600 (Central Standard Time),460869.40000000596,1000,I,m,1300,4,2,3094.60000000149,457774.80000000447,8008,NTS,C,3
8,1,prac,1,C,triangle.png,1,m,Thu Jan 09 2025 12:48:08 GMT-0600 (Central Standard Time),464385.1000000015,1400,I,m,1329,7,2,3511.0,460874.1000000015,8008,NTS,C,4
3,2,prac,1,C,triangle.png,1,z,Thu Jan 09 2025 12:48:08 GMT-0600 (Central Standard Time),468167.30000000447,1500,I,z,1490,3,2,3777.60000000149,464389.700000003,8008,NTS,C,5
2,3,prac,1,C,triangle.png,1,m,Thu Jan 09 2025 12:48:08 GMT-0600 (Central Standard Time),471516.30000000447,1600,I,m,960,2,2,3344.0,468172.30000000447,8008,NTS,C,6
1,4,prac,1,C,circle.png,1,z,Thu Jan 09 2025 12:48:08 GMT-0600 (Central Standard Time),474881.6000000015,1700,I,z,871,1,2,3359.7999999970198,471521.80000000447,8008,NTS,C,7
9,4,prac,1,C,circle.png,0,m,Thu Jan 09 2025 12:48:08 GMT-0600 (Central Standard Time),478980.5,1900,I,z,1402,8,2,4094.0,474886.5,8008,NTS,C,8
1,5,prac,1,C,circle.png,1,z,Thu Jan 09 2025 12:48:08 GMT-0600 (Central Standard Time),482229.30000000447,1700,I,z,759,1,2,3244.2000000029802,478985.1000000015,8008,NTS,C,9
8,6,prac,1,C,triangle.png,1,m,Thu Jan 09 2025 12:48:08 GMT-0600 (Central Standard Time),485395.30000000447,1400,I,m,978,7,2,3161.2000000029802,482234.1000000015,8008,NTS,C,10
2,6,prac,1,C,triangle.png,0,m,Thu Jan 09 2025 12:48:08 GMT-0600 (Central Standard Time),488977.1000000015,1600,I,z,1188,2,2,3576.7999999970198,485400.30000000447,8008,NTS,C,11
6,7,prac,1,C,circle.png,1,m,Thu Jan 09 2025 12:48:08 GMT-0600 (Central Standard Time),492692.80000000447,2000,I,m,918,5,2,3710.7000000029802,488982.1000000015,8008,NTS,C,12
7,0,test,1,C,triangle.png,0,z,Thu Jan 09 2025 12:48:08 GMT-0600 (Central Standard Time),545959.700000003,1700,I,None,1515,6,2,3220.89999999851,542738.8000000045,8008,NTS,C,1
6,0,test,1,C,circle.png,0,m,Thu Jan 09 2025 12:48:08 GMT-0600 (Central Standard Time),549391.8000000045,1900,I,None,1515,5,2,3428.2000000029802,545963.6000000015,8008,NTS,C,2
2,0,test,1,C,triangle.png,0,m,Thu Jan 09 2025 12:48:08 GMT-0600 (Central Standard Time),552923.900000006,2000,I,None,1513,2,2,3528.60000000149,549395.3000000045,8008,NTS,C,3
7,0,test,1,C,triangle.png,0,z,Thu Jan 09 2025 12:48:08 GMT-0600 (Central Standard Time),556156.3000000045,1700,I,None,1514,22,2,3228.60000000149,552927.700000003,8008,NTS,C,4
9,0,test,1,C,circle.png,0,m,Thu Jan 09 2025 12:48:08 GMT-0600 (Central Standard Time),559188.6000000015,1500,I,None,1514,8,2,3028.2999999970198,556160.3000000045,8008,NTS,C,5
6,0,test,1,C,circle.png,0,m,Thu Jan 09 2025 12:48:08 GMT-0600 (Central Standard Time),562620.900000006,1900,I,None,1515,21,2,3428.60000000149,559192.3000000045,8008,NTS,C,6
4,1,test,1,C,circle.png,1,z,Thu Jan 09 2025 12:48:08 GMT-0600 (Central Standard Time),565370.0,1400,I,z,1322,4,2,2745.5999999940395,562624.400000006,8008,NTS,C,7
6,2,test,1,C,triangle.png,1,m,Thu Jan 09 2025 12:48:08 GMT-0600 (Central Standard Time),567569.1000000015,1000,I,m,1173,13,2,2195.5,565373.6000000015,8008,NTS,C,8
8,3,test,1,C,triangle.png,1,m,Thu Jan 09 2025 12:48:08 GMT-0600 (Central Standard Time),570351.8000000045,1600,I,m,1158,23,2,2778.7000000029802,567573.1000000015,8008,NTS,C,9
8,4,test,1,C,triangle.png,1,m,Thu Jan 09 2025 12:48:08 GMT-0600 (Central Standard Time),573017.400000006,1600,I,m,1039,7,2,2662.10000000149,570355.3000000045,8008,NTS,C,10
8,5,test,1,C,circle.png,1,m,Thu Jan 09 2025 12:48:08 GMT-0600 (Central Standard Time),575100.3000000045,1200,I,m,861,15,2,2079.3000000044703,573021.0,8008,NTS,C,11
2,6,test,1,C,circle.png,1,z,Thu Jan 09 2025 12:48:08 GMT-0600 (Central Standard Time),577999.200000003,1700,I,z,1175,10,2,2895.2999999970198,575103.900000006,8008,NTS,C,12
3,7,test,1,C,circle.png,1,z,Thu Jan 09 2025 12:48:08 GMT-0600 (Central Standard Time),580598.400000006,1600,I,z,976,19,2,2595.60000000149,578002.8000000045,8008,NTS,C,13
4,8,test,1,C,triangle.png,1,m,Thu Jan 09 2025 12:48:08 GMT-0600 (Central Standard Time),583047.700000003,1500,I,m,916,12,2,2445.39999999851,580602.3000000045,8008,NTS,C,14
1,9,test,1,C,circle.png,1,z,Thu Jan 09 2025 12:48:08 GMT-0600 (Central Standard Time),584880.400000006,1000,I,z,807,1,2,1829.0,583051.400000006,8008,NTS,C,15
3,10,test,1,C,circle.png,1,z,Thu Jan 09 2025 12:48:08 GMT-0600 (Central Standard Time),587347.5,1600,I,z,846,11,2,2463.39999999851,584884.1000000015,8008,NTS,C,16
7,11,test,1,C,circle.png,1,m,Thu Jan 09 2025 12:48:08 GMT-0600 (Central Standard Time),590378.900000006,2000,I,m,1011,14,2,3027.60000000149,587351.3000000045,8008,NTS,C,17
3,11,test,1,C,triangle.png,0,z,Thu Jan 09 2025 12:48:08 GMT-0600 (Central Standard Time),593111.200000003,1200,I,None,1514,3,2,2728.5,590382.700000003,8008,NTS,C,18
1,12,test,1,C,triangle.png,1,z,Thu Jan 09 2025 12:48:08 GMT-0600 (Central Standard Time),595876.900000006,1900,I,z,844,9,2,2762.0,593114.900000006,8008,NTS,C,19
4,13,test,1,C,triangle.png,1,m,Thu Jan 09 2025 12:48:08 GMT-0600 (Central Standard Time),598509.6000000015,1500,I,m,1110,20,2,2629.0,595880.6000000015,8008,NTS,C,20
9,13,test,1,C,circle.png,0,m,Thu Jan 09 2025 12:48:08 GMT-0600 (Central Standard Time),601542.0,1500,I,None,1515,24,2,3028.89999999851,598513.1000000015,8008,NTS,C,21
9,13,test,1,C,triangle.png,0,z,Thu Jan 09 2025 12:48:08 GMT-0600 (Central Standard Time),604474.3000000045,1400,I,None,1514,16,2,2928.89999999851,601545.400000006,8008,NTS,C,22
2,13,test,1,C,circle.png,0,z,Thu Jan 09 2025 12:48:08 GMT-0600 (Central Standard Time),607706.8000000045,1700,I,None,1515,18,2,3224.8000000044703,604482.0,8008,NTS,C,23
1,13,test,1,C,triangle.png,0,z,Thu Jan 09 2025 12:48:08 GMT-0600 (Central Standard Time),611139.0,1900,I,None,1515,17,2,3428.5999999940395,607710.400000006,8008,NTS,C,24
8,0,test,2,C,triangle.png,0,m,Thu Jan 09 2025 12:48:08 GMT-0600 (Central Standard Time),651693.0,1600,I,None,1514,7,2,3129.5,648563.5,8008,NTS,C,1
6,1,test,2,C,triangle.png,1,m,Thu Jan 09 2025 12:48:08 GMT-0600 (Central Standard Time),653825.700000003,1000,I,m,1106,13,2,2129.0,651696.700000003,8008,NTS,C,2
2,2,test,2,C,circle.png,1,z,Thu Jan 09 2025 12:48:08 GMT-0600 (Central Standard Time),656207.900000006,1700,I,z,649,18,2,2378.8000000044703,653829.1000000015,8008,NTS,C,3
3,3,test,2,C,circle.png,1,z,Thu Jan 09 2025 12:48:08 GMT-0600 (Central Standard Time),658675.1000000015,1600,I,z,847,19,2,2463.2999999970198,656211.8000000045,8008,NTS,C,4
3,4,test,2,C,circle.png,1,z,Thu Jan 09 2025 12:48:08 GMT-0600 (Central Standard Time),661439.700000003,1600,I,z,1019,11,2,2760.60000000149,658679.1000000015,8008,NTS,C,5
3,4,test,2,C,triangle.png,0,z,Thu Jan 09 2025 12:48:08 GMT-0600 (Central Standard Time),664172.3000000045,1200,I,None,1514,3,2,2728.8000000044703,661443.5,8008,NTS,C,6
4,5,test,2,C,triangle.png,1,m,Thu Jan 09 2025 12:48:08 GMT-0600 (Central Standard Time),666737.900000006,1500,I,m,1047,12,2,2562.0,664175.900000006,8008,NTS,C,7
1,6,test,2,C,triangle.png,1,z,Thu Jan 09 2025 12:48:08 GMT-0600 (Central Standard Time),669553.8000000045,1900,I,z,889,17,2,2812.3000000044703,666741.5,8008,NTS,C,8
4,7,test,2,C,triangle.png,1,m,Thu Jan 09 2025 12:48:08 GMT-0600 (Central Standard Time),672053.3000000045,1500,I,m,977,20,2,2495.89999999851,669557.400000006,8008,NTS,C,9
7,7,test,2,C,circle.png,0,m,Thu Jan 09 2025 12:48:08 GMT-0600 (Central Standard Time),675585.400000006,2000,I,None,1514,14,2,3528.5,672056.900000006,8008,NTS,C,10
6,8,test,2,C,triangle.png,1,m,Thu Jan 09 2025 12:48:08 GMT-0600 (Central Standard Time),676851.700000003,1000,I,m,237,21,2,1262.6000000014901,675589.1000000015,8008,NTS,C,11
7,8,test,2,C,circle.png,0,m,Thu Jan 09 2025 12:48:08 GMT-0600 (Central Standard Time),680383.6000000015,2000,I,None,1514,22,2,3528.5,676855.1000000015,8008,NTS,C,12
4,8,test,2,C,circle.png,0,z,Thu Jan 09 2025 12:48:08 GMT-0600 (Central Standard Time),683316.3000000045,1400,I,None,1514,4,2,2928.5,680387.8000000045,8008,NTS,C,13
8,9,test,2,C,circle.png,1,m,Thu Jan 09 2025 12:48:08 GMT-0600 (Central Standard Time),685482.0,1200,I,m,945,15,2,2161.6999999955297,683320.3000000045,8008,NTS,C,14
1,10,test,2,C,circle.png,1,z,Thu Jan 09 2025 12:48:08 GMT-0600 (Central Standard Time),687431.700000003,1000,I,z,917,1,2,1946.2999999970198,685485.400000006,8008,NTS,C,15
8,11,test,2,C,circle.png,1,m,Thu Jan 09 2025 12:48:08 GMT-0600 (Central Standard Time),689697.5,1200,I,m,1031,23,2,2262.0999999940395,687435.400000006,8008,NTS,C,16
6,11,test,2,C,circle.png,0,m,Thu Jan 09 2025 12:48:08 GMT-0600 (Central Standard Time),693130.0,1900,I,None,1514,5,2,3428.89999999851,689701.1000000015,8008,NTS,C,17
2,11,test,2,C,triangle.png,0,m,Thu Jan 09 2025 12:48:08 GMT-0600 (Central Standard Time),696662.200000003,2000,I,None,1514,2,2,3528.5,693133.700000003,8008,NTS,C,18
9,11,test,2,C,circle.png,0,m,Thu Jan 09 2025 12:48:08 GMT-0600 (Central Standard Time),699694.5,1500,I,None,1514,8,2,3028.6999999955297,696665.8000000045,8008,NTS,C,19
7,11,test,2,C,triangle.png,0,z,Thu Jan 09 2025 12:48:08 GMT-0600 (Central Standard Time),702927.1000000015,1700,I,None,1514,6,2,3228.89999999851,699698.200000003,8008,NTS,C,20
9,11,test,2,C,triangle.png,0,z,Thu Jan 09 2025 12:48:08 GMT-0600 (Central Standard Time),705859.3000000045,1400,I,None,1514,16,2,2928.7000000029802,702930.6000000015,8008,NTS,C,21
2,12,test,2,C,circle.png,1,z,Thu Jan 09 2025 12:48:08 GMT-0600 (Central Standard Time),708941.5,1700,I,z,1352,10,2,3078.7999999970198,705862.700000003,8008,NTS,C,22
9,13,test,2,C,triangle.png,1,z,Thu Jan 09 2025 12:48:08 GMT-0600 (Central Standard Time),711840.8000000045,1400,I,z,1473,24,2,2895.60000000149,708945.200000003,8008,NTS,C,23
1,14,test,2,C,triangle.png,1,z,Thu Jan 09 2025 12:48:08 GMT-0600 (Central Standard Time),714856.400000006,1900,I,z,1082,9,2,3011.8000000044703,711844.6000000015,8008,NTS,C,24
4,0,test,3,C,circle.png,0,z,Thu Jan 09 2025 12:48:08 GMT-0600 (Central Standard Time),728219.0,1400,I,None,1514,4,2,2929.5999999940395,725289.400000006,8008,NTS,C,1
6,1,test,3,C,circle.png,1,m,Thu Jan 09 2025 12:48:08 GMT-0600 (Central Standard Time),731351.1000000015,1900,I,m,1208,21,2,3127.89999999851,728223.200000003,8008,NTS,C,2
4,2,test,3,C,circle.png,1,z,Thu Jan 09 2025 12:48:08 GMT-0600 (Central Standard Time),734017.1000000015,1400,I,z,1240,20,2,2662.39999999851,731354.700000003,8008,NTS,C,3
8,2,test,3,C,triangle.png,0,m,Thu Jan 09 2025 12:48:08 GMT-0600 (Central Standard Time),737149.5,1600,I,None,1513,23,2,3128.5999999940395,734020.900000006,8008,NTS,C,4
8,2,test,3,C,circle.png,0,m,Thu Jan 09 2025 12:48:08 GMT-0600 (Central Standard Time),739882.0,1200,I,None,1514,15,2,2728.89999999851,737153.1000000015,8008,NTS,C,5
8,2,test,3,C,triangle.png,0,m,Thu Jan 09 2025 12:48:08 GMT-0600 (Central Standard Time),743014.3000000045,1600,I,None,1514,7,2,3126.8000000044703,739887.5,8008,NTS,C,6
3,2,test,3,C,triangle.png,0,z,Thu Jan 09 2025 12:48:08 GMT-0600 (Central Standard Time),745746.900000006,1200,I,None,1514,19,2,2729.0,743017.900000006,8008,NTS,C,7
2,2,test,3,C,triangle.png,0,m,Thu Jan 09 2025 12:48:08 GMT-0600 (Central Standard Time),749279.0,2000,I,None,1514,2,2,3528.5,745750.5,8008,NTS,C,8
3,2,test,3,C,triangle.png,0,z,Thu Jan 09 2025 12:48:08 GMT-0600 (Central Standard Time),750612.0,1200,I,m,104,3,2,1329.5,749282.5,8008,NTS,C,9
1,3,test,3,C,circle.png,1,z,Thu Jan 09 2025 12:48:08 GMT-0600 (Central Standard Time),752911.200000003,1000,I,z,1267,1,2,2293.2000000029802,750618.0,8008,NTS,C,10
7,3,test,3,C,triangle.png,0,z,Thu Jan 09 2025 12:48:08 GMT-0600 (Central Standard Time),756143.5,1700,I,None,1512,6,2,3228.6999999955297,752914.8000000045,8008,NTS,C,11
2,4,test,3,C,circle.png,1,z,Thu Jan 09 2025 12:48:08 GMT-0600 (Central Standard Time),759309.0,1700,I,z,1435,10,2,3161.7999999970198,756147.200000003,8008,NTS,C,12
1,5,test,3,C,triangle.png,1,z,Thu Jan 09 2025 12:48:08 GMT-0600 (Central Standard Time),762408.400000006,1900,I,z,1166,9,2,3095.8000000044703,759312.6000000015,8008,NTS,C,13
7,5,test,3,C,circle.png,0,m,Thu Jan 09 2025 12:48:08 GMT-0600 (Central Standard Time),765940.6000000015,2000,I,None,1515,14,2,3528.7999999970198,762411.8000000045,8008,NTS,C,14
2,5,test,3,C,triangle.png,0,m,Thu Jan 09 2025 12:48:08 GMT-0600 (Central Standard Time),769472.700000003,2000,I,None,1515,18,2,3528.60000000149,765944.1000000015,8008,NTS,C,15
9,5,test,3,C,triangle.png,0,z,Thu Jan 09 2025 12:48:08 GMT-0600 (Central Standard Time),772405.1000000015,1400,I,None,1513,16,2,2928.6999999955297,769476.400000006,8008,NTS,C,16
4,5,test,3,C,triangle.png,0,m,Thu Jan 09 2025 12:48:08 GMT-0600 (Central Standard Time),775437.5,1500,I,None,1513,12,2,3028.39999999851,772409.1000000015,8008,NTS,C,17
9,6,test,3,C,circle.png,1,m,Thu Jan 09 2025 12:48:08 GMT-0600 (Central Standard Time),778219.5,1500,I,m,1261,24,2,2778.5,775441.0,8008,NTS,C,18
7,7,test,3,C,triangle.png,1,z,Thu Jan 09 2025 12:48:08 GMT-0600 (Central Standard Time),781352.400000006,1700,I,z,1399,22,2,3129.3000000044703,778223.1000000015,8008,NTS,C,19
3,8,test,3,C,circle.png,1,z,Thu Jan 09 2025 12:48:08 GMT-0600 (Central Standard Time),784418.200000003,1600,I,z,1439,11,2,3062.0,781356.200000003,8008,NTS,C,20
6,8,test,3,C,triangle.png,0,m,Thu Jan 09 2025 12:48:08 GMT-0600 (Central Standard Time),786950.8000000045,1000,I,None,1515,13,2,2528.89999999851,784421.900000006,8008,NTS,C,21
1,9,test,3,C,circle.png,1,z,Thu Jan 09 2025 12:48:08 GMT-0600 (Central Standard Time),789116.6000000015,1000,I,z,1144,17,2,2161.89999999851,786954.700000003,8008,NTS,C,22
9,9,test,3,C,circle.png,0,m,Thu Jan 09 2025 12:48:08 GMT-0600 (Central Standard Time),792149.0,1500,I,None,1514,8,2,3028.89999999851,789120.1000000015,8008,NTS,C,23
6,9,test,3,C,circle.png,0,m,Thu Jan 09 2025 12:48:08 GMT-0600 (Central Standard Time),795581.200000003,1900,I,None,1514,5,2,3428.5,792152.700000003,8008,NTS,C,24
8,0,test,4,C,triangle.png,0,m,Thu Jan 09 2025 12:48:08 GMT-0600 (Central Standard Time),807627.3000000045,1600,I,None,1514,23,2,3128.89999999851,804498.400000006,8008,NTS,C,1
8,1,test,4,C,triangle.png,1,m,Thu Jan 09 2025 12:48:08 GMT-0600 (Central Standard Time),810193.200000003,1600,I,m,930,7,2,2561.2000000029802,807632.0,8008,NTS,C,2
3,2,test,4,C,circle.png,1,z,Thu Jan 09 2025 12:48:08 GMT-0600 (Central Standard Time),812559.5,1600,I,z,742,11,2,2362.5,810197.0,8008,NTS,C,3
4,3,test,4,C,circle.png,1,z,Thu Jan 09 2025 12:48:08 GMT-0600 (Central Standard Time),815325.400000006,1400,I,z,1336,20,2,2762.60000000149,812562.8000000045,8008,NTS,C,4
2,4,test,4,C,circle.png,1,z,Thu Jan 09 2025 12:48:08 GMT-0600 (Central Standard Time),817740.900000006,1700,I,z,686,10,2,2412.0,815328.900000006,8008,NTS,C,5
3,5,test,4,C,triangle.png,1,z,Thu Jan 09 2025 12:48:08 GMT-0600 (Central Standard Time),820323.400000006,1200,I,z,1354,3,2,2578.7000000029802,817744.700000003,8008,NTS,C,6
8,5,test,4,C,circle.png,0,m,Thu Jan 09 2025 12:48:08 GMT-0600 (Central Standard Time),823056.1000000015,1200,I,None,1514,15,2,2728.89999999851,820327.200000003,8008,NTS,C,7
2,5,test,4,C,triangle.png,0,m,Thu Jan 09 2025 12:48:08 GMT-0600 (Central Standard Time),826638.200000003,2000,I,None,1504,2,2,3578.5,823059.700000003,8008,NTS,C,8
1,5,test,4,C,triangle.png,0,z,Thu Jan 09 2025 12:48:08 GMT-0600 (Central Standard Time),830070.3000000045,1900,I,None,1514,9,2,3428.7000000029802,826641.6000000015,8008,NTS,C,9
6,5,test,4,C,circle.png,0,m,Thu Jan 09 2025 12:48:08 GMT-0600 (Central Standard Time),833502.900000006,1900,I,None,1515,5,2,3428.9000000059605,830074.0,8008,NTS,C,10
1,6,test,4,C,circle.png,1,z,Thu Jan 09 2025 12:48:08 GMT-0600 (Central Standard Time),835735.200000003,1000,I,z,1200,1,2,2227.2000000029802,833508.0,8008,NTS,C,11
4,6,test,4,C,triangle.png,0,m,Thu Jan 09 2025 12:48:08 GMT-0600 (Central Standard Time),838767.6000000015,1500,I,None,1514,12,2,3028.6999999955297,835738.900000006,8008,NTS,C,12
4,6,test,4,C,circle.png,0,z,Thu Jan 09 2025 12:48:08 GMT-0600 (Central Standard Time),841700.0,1400,I,None,1514,4,2,2928.6999999955297,838771.3000000045,8008,NTS,C,13
6,7,test,4,C,circle.png,1,m,Thu Jan 09 2025 12:48:08 GMT-0600 (Central Standard Time),844682.6000000015,1900,I,m,1055,21,2,2978.7999999970198,841703.8000000045,8008,NTS,C,14
9,8,test,4,C,circle.png,1,m,Thu Jan 09 2025 12:48:08 GMT-0600 (Central Standard Time),847698.0,1500,I,m,1497,8,2,3011.6999999955297,844686.3000000045,8008,NTS,C,15
2,8,test,4,C,triangle.png,0,m,Thu Jan 09 2025 12:48:08 GMT-0600 (Central Standard Time),851230.400000006,2000,I,None,1513,18,2,3528.5,847701.900000006,8008,NTS,C,16
7,8,test,4,C,triangle.png,0,z,Thu Jan 09 2025 12:48:08 GMT-0600 (Central Standard Time),854462.6000000015,1700,I,None,1513,6,2,3227.39999999851,851235.200000003,8008,NTS,C,17
9,8,test,4,C,triangle.png,0,z,Thu Jan 09 2025 12:48:08 GMT-0600 (Central Standard Time),857395.3000000045,1400,I,None,1514,16,2,2929.2000000029802,854466.1000000015,8008,NTS,C,18
9,9,test,4,C,circle.png,1,m,Thu Jan 09 2025 12:48:08 GMT-0600 (Central Standard Time),859777.6000000015,1500,I,m,864,24,2,2378.39999999851,857399.200000003,8008,NTS,C,19
1,9,test,4,C,circle.png,0,z,Thu Jan 09 2025 12:48:08 GMT-0600 (Central Standard Time),862310.6000000015,1000,I,None,1514,17,2,2529.60000000149,859781.0,8008,NTS,C,20
7,9,test,4,C,triangle.png,0,z,Thu Jan 09 2025 12:48:08 GMT-0600 (Central Standard Time),865542.5,1700,I,None,1514,22,2,3228.0999999940395,862314.400000006,8008,NTS,C,21
6,10,test,4,C,triangle.png,1,m,Thu Jan 09 2025 12:48:08 GMT-0600 (Central Standard Time),867625.3000000045,1000,I,m,1064,13,2,2079.3000000044703,865546.0,8008,NTS,C,22
7,11,test,4,C,circle.png,1,m,Thu Jan 09 2025 12:48:08 GMT-0600 (Central Standard Time),870990.900000006,2000,I,m,1334,14,2,3361.2000000029802,867629.700000003,8008,NTS,C,23
3,12,test,4,C,triangle.png,1,z,Thu Jan 09 2025 12:48:08 GMT-0600 (Central Standard Time),873423.6000000015,1200,I,z,1201,19,2,2428.89999999851,870994.700000003,8008,NTS,C,24
