acc_sum,block,block_c,change,condition,correct,correct_response,datetime,endtime,face,project,response,response_time,row_sel,session_number,start_end,starttime,subject_id,task,task_vers,trial
0,prac,1,,1-Back,,,Mon Oct 28 2024 15:23:17 GMT-0500 (Central Daylight Time),,097_m_f_n_a.png,O,space,11784,1,1,,,7028,NNB,B,0
1,prac,1,0.0,1-Back,1,m,Mon Oct 28 2024 15:23:17 GMT-0500 (Central Daylight Time),136035.7000000002,152_y_f_n_a.png,O,m,645,2,1,1510.7999999998137,134524.90000000037,7028,NNB,B,1
1,prac,1,1.0,1-Back,0,z,Mon Oct 28 2024 15:23:17 GMT-0500 (Central Daylight Time),138817.90000000037,152_y_f_n_a.png,O,None,2008,3,1,2776.3000000002794,136041.6000000001,7028,NNB,B,2
1,prac,1,0.0,1-Back,0,m,Mon Oct 28 2024 15:23:17 GMT-0500 (Central Daylight Time),141699.2000000002,176_o_m_n_a.png,O,None,2013,4,1,2875.600000000093,138823.6000000001,7028,NNB,B,3
2,prac,1,0.0,1-Back,1,m,Mon Oct 28 2024 15:23:17 GMT-0500 (Central Daylight Time),144232.90000000037,126_m_m_n_a.png,O,m,1671,5,1,2528.2000000001863,141704.7000000002,7028,NNB,B,4
3,prac,1,1.0,1-Back,1,z,Mon Oct 28 2024 15:23:17 GMT-0500 (Central Daylight Time),146044.6000000001,126_m_m_n_a.png,O,z,1027,6,1,1806.1999999997206,144238.40000000037,7028,NNB,B,5
3,prac,1,0.0,1-Back,0,m,Mon Oct 28 2024 15:23:17 GMT-0500 (Central Daylight Time),148930.30000000028,086_o_f_n_a.png,O,None,2003,7,1,2879.8000000002794,146050.5,7028,NNB,B,6
4,prac,1,0.0,1-Back,1,m,Mon Oct 28 2024 15:23:17 GMT-0500 (Central Daylight Time),151729.30000000028,178_m_m_n_a.png,O,m,1935,8,1,2793.3000000002794,148936.0,7028,NNB,B,7
5,prac,1,0.0,1-Back,1,m,Mon Oct 28 2024 15:23:17 GMT-0500 (Central Daylight Time),153478.7000000002,097_m_f_n_a.png,O,m,871,9,1,1743.7999999998137,151734.90000000037,7028,NNB,B,8
6,prac,1,1.0,1-Back,1,z,Mon Oct 28 2024 15:23:17 GMT-0500 (Central Daylight Time),154745.0,097_m_f_n_a.png,O,z,494,10,1,1260.8999999999069,153484.1000000001,7028,NNB,B,9
7,prac,1,0.0,1-Back,1,m,Mon Oct 28 2024 15:23:17 GMT-0500 (Central Daylight Time),156694.2000000002,176_o_m_n_a.png,O,m,1170,11,1,1942.7999999998137,154751.40000000037,7028,NNB,B,10
8,prac,1,0.0,1-Back,1,m,Mon Oct 28 2024 15:23:17 GMT-0500 (Central Daylight Time),158443.80000000028,173_y_f_n_a.png,O,m,879,12,1,1743.1000000000931,156700.7000000002,7028,NNB,B,11
0,test,1,0.0,1-Back,,,Mon Oct 28 2024 15:23:17 GMT-0500 (Central Daylight Time),158443.80000000028,152_y_f_n_a.png,O,space,16185,1,1,1743.1000000000931,156700.7000000002,7028,NNB,B,0
1,test,1,0.0,1-Back,1,m,Mon Oct 28 2024 15:23:17 GMT-0500 (Central Daylight Time),198581.40000000037,029_m_f_n_a.png,O,m,722,2,1,1744.9000000003725,196836.5,7028,NNB,B,1
2,test,1,0.0,1-Back,1,m,Mon Oct 28 2024 15:23:17 GMT-0500 (Central Daylight Time),200114.2000000002,173_y_f_n_a.png,O,m,516,3,1,1528.7000000001863,198585.5,7028,NNB,B,2
3,test,1,1.0,1-Back,1,z,Mon Oct 28 2024 15:23:17 GMT-0500 (Central Daylight Time),201913.30000000028,173_y_f_n_a.png,O,z,767,4,1,1794.2000000001863,200119.1000000001,7028,NNB,B,3
4,test,1,0.0,1-Back,1,m,Mon Oct 28 2024 15:23:17 GMT-0500 (Central Daylight Time),203746.2000000002,029_m_f_n_a.png,O,m,800,5,1,1829.2000000001863,201917.0,7028,NNB,B,4
5,test,1,0.0,1-Back,1,m,Mon Oct 28 2024 15:23:17 GMT-0500 (Central Daylight Time),205662.1000000001,176_o_m_n_a.png,O,m,895,6,1,1911.7999999998137,203750.30000000028,7028,NNB,B,5
6,test,1,1.0,1-Back,1,z,Mon Oct 28 2024 15:23:17 GMT-0500 (Central Daylight Time),207528.2000000002,176_o_m_n_a.png,O,z,843,7,1,1862.2999999998137,205665.90000000037,7028,NNB,B,6
7,test,1,0.0,1-Back,1,m,Mon Oct 28 2024 15:23:17 GMT-0500 (Central Daylight Time),209511.0,126_m_m_n_a.png,O,m,961,8,1,1978.7999999998137,207532.2000000002,7028,NNB,B,7
8,test,1,0.0,1-Back,1,m,Mon Oct 28 2024 15:23:17 GMT-0500 (Central Daylight Time),211277.30000000028,086_o_f_n_a.png,O,m,737,9,1,1762.3000000002794,209515.0,7028,NNB,B,8
9,test,1,0.0,1-Back,1,m,Mon Oct 28 2024 15:23:17 GMT-0500 (Central Daylight Time),213010.30000000028,126_m_m_n_a.png,O,m,716,10,1,1728.8000000002794,211281.5,7028,NNB,B,9
10,test,1,0.0,1-Back,1,m,Mon Oct 28 2024 15:23:17 GMT-0500 (Central Daylight Time),214842.6000000001,153_y_m_n_a.png,O,m,815,11,1,1828.1999999997206,213014.40000000037,7028,NNB,B,10
11,test,1,1.0,1-Back,1,z,Mon Oct 28 2024 15:23:17 GMT-0500 (Central Daylight Time),216425.6000000001,153_y_m_n_a.png,O,z,550,12,1,1578.6000000000931,214847.0,7028,NNB,B,11
12,test,1,0.0,1-Back,1,m,Mon Oct 28 2024 15:23:17 GMT-0500 (Central Daylight Time),218008.30000000028,110_o_f_n_a.png,O,m,560,13,1,1578.7000000001863,216429.6000000001,7028,NNB,B,12
13,test,1,1.0,1-Back,1,z,Mon Oct 28 2024 15:23:17 GMT-0500 (Central Daylight Time),220307.80000000028,110_o_f_n_a.png,O,z,1273,14,1,2295.600000000093,218012.2000000002,7028,NNB,B,13
14,test,1,0.0,1-Back,1,m,Mon Oct 28 2024 15:23:17 GMT-0500 (Central Daylight Time),222140.5,013_y_m_n_a.png,O,m,813,15,1,1828.5999999996275,220311.90000000037,7028,NNB,B,14
15,test,1,0.0,1-Back,1,m,Mon Oct 28 2024 15:23:17 GMT-0500 (Central Daylight Time),224056.40000000037,097_m_f_n_a.png,O,m,893,16,1,1911.2000000001863,222145.2000000002,7028,NNB,B,15
16,test,1,0.0,1-Back,1,m,Mon Oct 28 2024 15:23:17 GMT-0500 (Central Daylight Time),225589.6000000001,065_o_m_n_a.png,O,m,513,17,1,1529.0,224060.6000000001,7028,NNB,B,16
17,test,1,0.0,1-Back,1,m,Mon Oct 28 2024 15:23:17 GMT-0500 (Central Daylight Time),227205.6000000001,097_m_f_n_a.png,O,m,588,18,1,1612.0,225593.6000000001,7028,NNB,B,17
0,test,2,0.0,1-Back,,,Mon Oct 28 2024 15:23:17 GMT-0500 (Central Daylight Time),227205.6000000001,126_m_m_n_a.png,O,space,3420,1,1,1612.0,225593.6000000001,7028,NNB,B,0
1,test,2,0.0,1-Back,1,m,Mon Oct 28 2024 15:23:17 GMT-0500 (Central Daylight Time),234220.2000000002,029_m_f_n_a.png,O,m,539,2,1,1562.3999999999069,232657.80000000028,7028,NNB,B,1
2,test,2,1.0,1-Back,1,z,Mon Oct 28 2024 15:23:17 GMT-0500 (Central Daylight Time),235753.0,029_m_f_n_a.png,O,z,501,3,1,1529.0,234224.0,7028,NNB,B,2
3,test,2,0.0,1-Back,1,m,Mon Oct 28 2024 15:23:17 GMT-0500 (Central Daylight Time),237602.5,126_m_m_n_a.png,O,m,832,4,1,1846.0,235756.5,7028,NNB,B,3
4,test,2,0.0,1-Back,1,m,Mon Oct 28 2024 15:23:17 GMT-0500 (Central Daylight Time),239235.0,153_y_m_n_a.png,O,m,615,5,1,1628.3999999999069,237606.6000000001,7028,NNB,B,4
5,test,2,0.0,1-Back,1,m,Mon Oct 28 2024 15:23:17 GMT-0500 (Central Daylight Time),241167.90000000037,152_y_f_n_a.png,O,m,822,6,1,1929.1000000000931,239238.80000000028,7028,NNB,B,5
6,test,2,1.0,1-Back,1,z,Mon Oct 28 2024 15:23:17 GMT-0500 (Central Daylight Time),243200.5,152_y_f_n_a.png,O,z,1009,7,1,2028.7999999998137,241171.7000000002,7028,NNB,B,6
7,test,2,0.0,1-Back,1,m,Mon Oct 28 2024 15:23:17 GMT-0500 (Central Daylight Time),245200.2000000002,153_y_m_n_a.png,O,m,969,8,1,1995.6000000000931,243204.6000000001,7028,NNB,B,7
8,test,2,0.0,1-Back,1,m,Mon Oct 28 2024 15:23:17 GMT-0500 (Central Daylight Time),246866.2000000002,110_o_f_n_a.png,O,m,641,9,1,1662.3999999999069,245203.80000000028,7028,NNB,B,8
9,test,2,0.0,1-Back,1,m,Mon Oct 28 2024 15:23:17 GMT-0500 (Central Daylight Time),248532.2000000002,178_m_m_n_a.png,O,m,640,10,1,1662.0,246870.2000000002,7028,NNB,B,9
10,test,2,1.0,1-Back,1,z,Mon Oct 28 2024 15:23:17 GMT-0500 (Central Daylight Time),250398.2000000002,178_m_m_n_a.png,O,z,837,11,1,1862.3999999999069,248535.80000000028,7028,NNB,B,10
11,test,2,0.0,1-Back,1,m,Mon Oct 28 2024 15:23:17 GMT-0500 (Central Daylight Time),251897.80000000028,110_o_f_n_a.png,O,m,467,12,1,1495.6000000000931,250402.2000000002,7028,NNB,B,11
12,test,2,0.0,1-Back,1,m,Mon Oct 28 2024 15:23:17 GMT-0500 (Central Daylight Time),253680.6000000001,086_o_f_n_a.png,O,m,759,13,1,1778.7999999998137,251901.80000000028,7028,NNB,B,12
13,test,2,0.0,1-Back,1,m,Mon Oct 28 2024 15:23:17 GMT-0500 (Central Daylight Time),255463.5,176_o_m_n_a.png,O,m,761,14,1,1778.8999999999069,253684.6000000001,7028,NNB,B,13
14,test,2,0.0,1-Back,1,m,Mon Oct 28 2024 15:23:17 GMT-0500 (Central Daylight Time),257079.7000000002,065_o_m_n_a.png,O,m,586,15,1,1612.1000000000931,255467.6000000001,7028,NNB,B,14
15,test,2,1.0,1-Back,1,z,Mon Oct 28 2024 15:23:17 GMT-0500 (Central Daylight Time),258812.30000000028,065_o_m_n_a.png,O,z,713,16,1,1729.2000000001863,257083.1000000001,7028,NNB,B,15
16,test,2,0.0,1-Back,1,m,Mon Oct 28 2024 15:23:17 GMT-0500 (Central Daylight Time),260478.5,013_y_m_n_a.png,O,m,645,17,1,1662.8999999999069,258815.6000000001,7028,NNB,B,16
17,test,2,1.0,1-Back,1,z,Mon Oct 28 2024 15:23:17 GMT-0500 (Central Daylight Time),262178.2000000002,013_y_m_n_a.png,O,z,667,18,1,1695.8999999999069,260482.30000000028,7028,NNB,B,17
0,test,3,1.0,1-Back,,,Mon Oct 28 2024 15:23:17 GMT-0500 (Central Daylight Time),262178.2000000002,173_y_f_n_a.png,O,space,2527,1,1,1695.8999999999069,260482.30000000028,7028,NNB,B,0
1,test,3,0.0,1-Back,1,m,Mon Oct 28 2024 15:23:17 GMT-0500 (Central Daylight Time),268492.8000000003,065_o_m_n_a.png,O,m,662,1,1,1678.8000000002794,266814.0,7028,NNB,B,1
2,test,3,1.0,1-Back,1,z,Mon Oct 28 2024 15:23:17 GMT-0500 (Central Daylight Time),270260.1000000001,065_o_m_n_a.png,O,z,749,1,1,1763.8999999999069,268496.2000000002,7028,NNB,B,2
3,test,3,0.0,1-Back,1,m,Mon Oct 28 2024 15:23:17 GMT-0500 (Central Daylight Time),271774.8000000003,097_m_f_n_a.png,O,m,495,1,1,1511.3999999999069,270263.4000000004,7028,NNB,B,3
4,test,3,1.0,1-Back,1,z,Mon Oct 28 2024 15:23:17 GMT-0500 (Central Daylight Time),273441.1000000001,097_m_f_n_a.png,O,z,642,1,1,1663.1000000000931,271778.0,7028,NNB,B,4
5,test,3,0.0,1-Back,1,m,Mon Oct 28 2024 15:23:17 GMT-0500 (Central Daylight Time),275457.1000000001,110_o_f_n_a.png,O,m,993,1,1,2012.0,273445.1000000001,7028,NNB,B,5
6,test,3,0.0,1-Back,1,m,Mon Oct 28 2024 15:23:17 GMT-0500 (Central Daylight Time),277090.1000000001,153_y_m_n_a.png,O,m,608,1,1,1629.1999999997206,275460.9000000004,7028,NNB,B,6
7,test,3,0.0,1-Back,1,m,Mon Oct 28 2024 15:23:17 GMT-0500 (Central Daylight Time),278656.2000000002,110_o_f_n_a.png,O,m,535,1,1,1562.0,277094.2000000002,7028,NNB,B,7
8,test,3,0.0,1-Back,1,m,Mon Oct 28 2024 15:23:17 GMT-0500 (Central Daylight Time),280372.3000000003,013_y_m_n_a.png,O,m,689,1,1,1712.2000000001863,278660.1000000001,7028,NNB,B,8
8,test,3,1.0,1-Back,0,z,Mon Oct 28 2024 15:23:17 GMT-0500 (Central Daylight Time),281821.9000000004,013_y_m_n_a.png,O,m,429,1,1,1445.7000000001863,280376.2000000002,7028,NNB,B,9
9,test,3,0.0,1-Back,1,m,Mon Oct 28 2024 15:23:17 GMT-0500 (Central Daylight Time),283421.3000000003,029_m_f_n_a.png,O,m,580,1,1,1595.5,281825.8000000003,7028,NNB,B,10
10,test,3,0.0,1-Back,1,m,Mon Oct 28 2024 15:23:17 GMT-0500 (Central Daylight Time),285154.2000000002,152_y_f_n_a.png,O,m,700,1,1,1729.1000000000931,283425.1000000001,7028,NNB,B,11
11,test,3,1.0,1-Back,1,z,Mon Oct 28 2024 15:23:17 GMT-0500 (Central Daylight Time),286603.6000000001,152_y_f_n_a.png,O,z,423,1,1,1445.5,285158.1000000001,7028,NNB,B,12
12,test,3,0.0,1-Back,1,m,Mon Oct 28 2024 15:23:17 GMT-0500 (Central Daylight Time),288203.0,029_m_f_n_a.png,O,m,574,1,1,1595.8999999999069,286607.1000000001,7028,NNB,B,13
13,test,3,0.0,1-Back,1,m,Mon Oct 28 2024 15:23:17 GMT-0500 (Central Daylight Time),289852.5,126_m_m_n_a.png,O,m,622,1,1,1645.1999999997206,288207.3000000003,7028,NNB,B,14
14,test,3,1.0,1-Back,1,z,Mon Oct 28 2024 15:23:17 GMT-0500 (Central Daylight Time),291418.8000000003,126_m_m_n_a.png,O,z,549,1,1,1562.5,289856.3000000003,7028,NNB,B,15
15,test,3,0.0,1-Back,1,m,Mon Oct 28 2024 15:23:17 GMT-0500 (Central Daylight Time),292968.3000000003,086_o_f_n_a.png,O,m,518,1,1,1545.8000000002794,291422.5,7028,NNB,B,16
16,test,3,1.0,1-Back,1,z,Mon Oct 28 2024 15:23:17 GMT-0500 (Central Daylight Time),294668.8000000003,086_o_f_n_a.png,O,z,682,1,1,1696.5,292972.3000000003,7028,NNB,B,17
0,test,4,1.0,1-Back,,,Mon Oct 28 2024 15:23:17 GMT-0500 (Central Daylight Time),294668.8000000003,097_m_f_n_a.png,O,space,1788,1,1,1696.5,292972.3000000003,7028,NNB,B,0
1,test,4,0.0,1-Back,1,m,Mon Oct 28 2024 15:23:17 GMT-0500 (Central Daylight Time),300366.2000000002,065_o_m_n_a.png,O,m,779,2,1,1795.7999999998137,298570.4000000004,7028,NNB,B,1
2,test,4,0.0,1-Back,1,m,Mon Oct 28 2024 15:23:17 GMT-0500 (Central Daylight Time),301948.9000000004,097_m_f_n_a.png,O,m,563,3,1,1578.9000000003725,300370.0,7028,NNB,B,2
3,test,4,0.0,1-Back,1,m,Mon Oct 28 2024 15:23:17 GMT-0500 (Central Daylight Time),303565.1000000001,110_o_f_n_a.png,O,m,588,4,1,1612.5,301952.6000000001,7028,NNB,B,3
4,test,4,1.0,1-Back,1,z,Mon Oct 28 2024 15:23:17 GMT-0500 (Central Daylight Time),305231.2000000002,110_o_f_n_a.png,O,z,644,5,1,1661.7999999998137,303569.4000000004,7028,NNB,B,4
5,test,4,0.0,1-Back,1,m,Mon Oct 28 2024 15:23:17 GMT-0500 (Central Daylight Time),307180.5,152_y_f_n_a.png,O,m,922,6,1,1945.5,305235.0,7028,NNB,B,5
6,test,4,0.0,1-Back,1,m,Mon Oct 28 2024 15:23:17 GMT-0500 (Central Daylight Time),308846.6000000001,153_y_m_n_a.png,O,m,637,7,1,1662.1999999997206,307184.4000000004,7028,NNB,B,6
7,test,4,1.0,1-Back,1,z,Mon Oct 28 2024 15:23:17 GMT-0500 (Central Daylight Time),310662.8000000003,153_y_m_n_a.png,O,z,795,8,1,1812.3999999999069,308850.4000000004,7028,NNB,B,7
8,test,4,0.0,1-Back,1,m,Mon Oct 28 2024 15:23:17 GMT-0500 (Central Daylight Time),312179.0,152_y_f_n_a.png,O,m,483,9,1,1512.6999999997206,310666.3000000003,7028,NNB,B,8
9,test,4,0.0,1-Back,1,m,Mon Oct 28 2024 15:23:17 GMT-0500 (Central Daylight Time),313828.5,178_m_m_n_a.png,O,m,622,10,1,1646.0999999996275,312182.4000000004,7028,NNB,B,9
10,test,4,1.0,1-Back,1,z,Mon Oct 28 2024 15:23:17 GMT-0500 (Central Daylight Time),315379.0,178_m_m_n_a.png,O,z,517,11,1,1546.7999999998137,313832.2000000002,7028,NNB,B,10
11,test,4,0.0,1-Back,1,m,Mon Oct 28 2024 15:23:17 GMT-0500 (Central Daylight Time),316960.7000000002,086_o_f_n_a.png,O,m,559,12,1,1577.7000000001863,315383.0,7028,NNB,B,11
12,test,4,0.0,1-Back,1,m,Mon Oct 28 2024 15:23:17 GMT-0500 (Central Daylight Time),318460.4000000004,176_o_m_n_a.png,O,m,473,13,1,1495.6000000000931,316964.8000000003,7028,NNB,B,12
13,test,4,0.0,1-Back,1,m,Mon Oct 28 2024 15:23:17 GMT-0500 (Central Daylight Time),320209.8000000003,086_o_f_n_a.png,O,m,725,14,1,1744.6000000000931,318465.2000000002,7028,NNB,B,13
14,test,4,0.0,1-Back,1,m,Mon Oct 28 2024 15:23:17 GMT-0500 (Central Daylight Time),321675.9000000004,173_y_f_n_a.png,O,m,448,15,1,1462.3000000002794,320213.6000000001,7028,NNB,B,14
15,test,4,1.0,1-Back,1,z,Mon Oct 28 2024 15:23:17 GMT-0500 (Central Daylight Time),323392.1000000001,173_y_f_n_a.png,O,z,693,16,1,1712.1999999997206,321679.9000000004,7028,NNB,B,15
16,test,4,0.0,1-Back,1,m,Mon Oct 28 2024 15:23:17 GMT-0500 (Central Daylight Time),325026.2000000002,029_m_f_n_a.png,O,m,617,17,1,1630.1000000000931,323396.1000000001,7028,NNB,B,16
17,test,4,1.0,1-Back,1,z,Mon Oct 28 2024 15:23:17 GMT-0500 (Central Daylight Time),326741.3000000003,029_m_f_n_a.png,O,z,672,18,1,1711.3999999999069,325029.9000000004,7028,NNB,B,17
0,test,5,1.0,1-Back,,,Mon Oct 28 2024 15:23:17 GMT-0500 (Central Daylight Time),326741.3000000003,176_o_m_n_a.png,O,space,1116,1,1,1711.3999999999069,325029.9000000004,7028,NNB,B,0
1,test,5,1.0,1-Back,1,z,Mon Oct 28 2024 15:23:17 GMT-0500 (Central Daylight Time),331606.3000000003,176_o_m_n_a.png,O,z,695,2,1,1711.7000000001863,329894.6000000001,7028,NNB,B,1
2,test,5,0.0,1-Back,1,m,Mon Oct 28 2024 15:23:17 GMT-0500 (Central Daylight Time),333122.6000000001,152_y_f_n_a.png,O,m,499,3,1,1512.3999999999069,331610.2000000002,7028,NNB,B,2
2,test,5,0.0,1-Back,0,m,Mon Oct 28 2024 15:23:17 GMT-0500 (Central Daylight Time),334771.7000000002,153_y_m_n_a.png,O,z,631,4,1,1644.8999999999069,333126.8000000003,7028,NNB,B,3
3,test,5,0.0,1-Back,1,m,Mon Oct 28 2024 15:23:17 GMT-0500 (Central Daylight Time),336388.1000000001,152_y_f_n_a.png,O,m,590,5,1,1612.0,334776.1000000001,7028,NNB,B,4
4,test,5,0.0,1-Back,1,m,Mon Oct 28 2024 15:23:17 GMT-0500 (Central Daylight Time),338105.3000000003,126_m_m_n_a.png,O,m,684,6,1,1713.3000000002794,336392.0,7028,NNB,B,5
4,test,5,1.0,1-Back,0,z,Mon Oct 28 2024 15:23:17 GMT-0500 (Central Daylight Time),340403.3000000003,126_m_m_n_a.png,O,m,1257,7,1,2294.0,338109.3000000003,7028,NNB,B,6
5,test,5,0.0,1-Back,1,m,Mon Oct 28 2024 15:23:17 GMT-0500 (Central Daylight Time),341853.0,173_y_f_n_a.png,O,m,422,8,1,1446.0,340407.0,7028,NNB,B,7
6,test,5,0.0,1-Back,1,m,Mon Oct 28 2024 15:23:17 GMT-0500 (Central Daylight Time),343519.2000000002,013_y_m_n_a.png,O,m,644,9,1,1662.2999999998137,341856.9000000004,7028,NNB,B,8
7,test,5,0.0,1-Back,1,m,Mon Oct 28 2024 15:23:17 GMT-0500 (Central Daylight Time),345152.0,173_y_f_n_a.png,O,m,602,10,1,1628.8999999999069,343523.1000000001,7028,NNB,B,9
8,test,5,0.0,1-Back,1,m,Mon Oct 28 2024 15:23:17 GMT-0500 (Central Daylight Time),346701.1000000001,086_o_f_n_a.png,O,m,521,11,1,1545.1999999997206,345155.9000000004,7028,NNB,B,10
9,test,5,1.0,1-Back,1,z,Mon Oct 28 2024 15:23:17 GMT-0500 (Central Daylight Time),348317.8000000003,086_o_f_n_a.png,O,z,588,12,1,1612.8999999999069,346704.9000000004,7028,NNB,B,11
10,test,5,0.0,1-Back,1,m,Mon Oct 28 2024 15:23:17 GMT-0500 (Central Daylight Time),349950.4000000004,065_o_m_n_a.png,O,m,604,13,1,1629.1000000000931,348321.3000000003,7028,NNB,B,12
10,test,5,0.0,1-Back,0,m,Mon Oct 28 2024 15:23:17 GMT-0500 (Central Daylight Time),351549.8000000003,097_m_f_n_a.png,O,z,571,14,1,1595.3000000002794,349954.5,7028,NNB,B,13
11,test,5,1.0,1-Back,1,z,Mon Oct 28 2024 15:23:17 GMT-0500 (Central Daylight Time),353632.4000000004,097_m_f_n_a.png,O,z,1060,15,1,2078.7000000001863,351553.7000000002,7028,NNB,B,14
12,test,5,0.0,1-Back,1,m,Mon Oct 28 2024 15:23:17 GMT-0500 (Central Daylight Time),355282.4000000004,065_o_m_n_a.png,O,m,617,16,1,1646.0,353636.4000000004,7028,NNB,B,15
13,test,5,0.0,1-Back,1,m,Mon Oct 28 2024 15:23:17 GMT-0500 (Central Daylight Time),356914.8000000003,029_m_f_n_a.png,O,m,607,17,1,1628.8000000002794,355286.0,7028,NNB,B,16
14,test,5,0.0,1-Back,1,m,Mon Oct 28 2024 15:23:17 GMT-0500 (Central Daylight Time),358464.4000000004,178_m_m_n_a.png,O,m,422,18,1,1545.8000000002794,356918.6000000001,7028,NNB,B,17
0,prac,1,0.0,2-Back,,,Mon Oct 28 2024 15:23:17 GMT-0500 (Central Daylight Time),358464.4000000004,013_y_m_n_a.png,O,space,3497,1,1,1545.8000000002794,356918.6000000001,7028,NNB,B,0
0,prac,1,0.0,2-Back,,,Mon Oct 28 2024 15:23:17 GMT-0500 (Central Daylight Time),358464.4000000004,029_m_f_n_a.png,O,space,3497,2,1,1545.8000000002794,356918.6000000001,7028,NNB,B,0
1,prac,1,1.0,2-Back,1,m,Mon Oct 28 2024 15:23:17 GMT-0500 (Central Daylight Time),483060.0,065_o_m_n_a.png,O,m,1330,3,1,2178.2999999998137,480881.7000000002,7028,NNB,B,1
2,prac,1,0.0,2-Back,1,m,Mon Oct 28 2024 15:23:17 GMT-0500 (Central Daylight Time),484824.6000000001,086_o_f_n_a.png,O,m,874,4,1,1759.1999999997206,483065.4000000004,7028,NNB,B,2
2,prac,1,0.0,2-Back,0,z,Mon Oct 28 2024 15:23:17 GMT-0500 (Central Daylight Time),487591.6000000001,065_o_m_n_a.png,O,None,2008,5,1,2758.7999999998137,484832.8000000003,7028,NNB,B,3
2,prac,1,1.0,2-Back,0,z,Mon Oct 28 2024 15:23:17 GMT-0500 (Central Daylight Time),489789.9000000004,086_o_f_n_a.png,O,m,1413,6,1,2192.9000000003725,487597.0,7028,NNB,B,4
3,prac,1,0.0,2-Back,1,m,Mon Oct 28 2024 15:23:17 GMT-0500 (Central Daylight Time),491639.3000000003,178_m_m_n_a.png,O,m,971,7,1,1843.8999999999069,489795.4000000004,7028,NNB,B,5
4,prac,1,0.0,2-Back,1,m,Mon Oct 28 2024 15:23:17 GMT-0500 (Central Daylight Time),494171.9000000004,176_o_m_n_a.png,O,m,1653,8,1,2527.600000000093,491644.3000000003,7028,NNB,B,6
5,prac,1,0.0,2-Back,1,m,Mon Oct 28 2024 15:23:17 GMT-0500 (Central Daylight Time),495971.3000000003,173_y_f_n_a.png,O,m,929,9,1,1794.3999999999069,494176.9000000004,7028,NNB,B,7
6,prac,1,1.0,2-Back,1,z,Mon Oct 28 2024 15:23:17 GMT-0500 (Central Daylight Time),497354.2000000002,176_o_m_n_a.png,O,z,609,10,1,1377.2999999998137,495976.9000000004,7028,NNB,B,8
7,prac,1,0.0,2-Back,1,m,Mon Oct 28 2024 15:23:17 GMT-0500 (Central Daylight Time),499279.6000000001,152_y_f_n_a.png,O,m,964,11,1,1919.8999999999069,497359.7000000002,7028,NNB,B,9
7,prac,1,0.0,2-Back,0,m,Mon Oct 28 2024 15:23:17 GMT-0500 (Central Daylight Time),502052.7000000002,178_m_m_n_a.png,O,None,2001,12,1,2767.7999999998137,499284.9000000004,7028,NNB,B,10
0,test,1,0.0,2-Back,,,Mon Oct 28 2024 15:23:17 GMT-0500 (Central Daylight Time),502052.7000000002,153_y_m_n_a.png,O,space,13729,1,1,2767.7999999998137,499284.9000000004,7028,NNB,B,0
0,test,1,0.0,2-Back,,,Mon Oct 28 2024 15:23:17 GMT-0500 (Central Daylight Time),502052.7000000002,153_y_m_n_a.png,O,space,13729,2,1,2767.7999999998137,499284.9000000004,7028,NNB,B,0
1,test,1,0.0,2-Back,1,m,Mon Oct 28 2024 15:23:17 GMT-0500 (Central Daylight Time),530260.5,086_o_f_n_a.png,O,m,756,3,1,1778.6999999997206,528481.8000000003,7028,NNB,B,1
2,test,1,0.0,2-Back,1,m,Mon Oct 28 2024 15:23:17 GMT-0500 (Central Daylight Time),532842.9000000004,126_m_m_n_a.png,O,m,1565,4,1,2578.7000000001863,530264.2000000002,7028,NNB,B,2
3,test,1,1.0,2-Back,1,z,Mon Oct 28 2024 15:23:17 GMT-0500 (Central Daylight Time),535258.9000000004,086_o_f_n_a.png,O,z,1390,5,1,2413.100000000093,532845.8000000003,7028,NNB,B,3
4,test,1,0.0,2-Back,1,m,Mon Oct 28 2024 15:23:17 GMT-0500 (Central Daylight Time),537408.2000000002,152_y_f_n_a.png,O,m,1118,6,1,2146.2999999998137,535261.9000000004,7028,NNB,B,4
5,test,1,0.0,2-Back,1,m,Mon Oct 28 2024 15:23:17 GMT-0500 (Central Daylight Time),540324.1000000001,126_m_m_n_a.png,O,m,1897,7,1,2912.100000000093,537412.0,7028,NNB,B,5
6,test,1,1.0,2-Back,1,z,Mon Oct 28 2024 15:23:17 GMT-0500 (Central Daylight Time),542606.6000000001,152_y_f_n_a.png,O,z,1261,8,1,2279.399999999907,540327.2000000002,7028,NNB,B,6
7,test,1,0.0,2-Back,1,m,Mon Oct 28 2024 15:23:17 GMT-0500 (Central Daylight Time),544555.8000000003,013_y_m_n_a.png,O,m,931,9,1,1946.2000000001863,542609.6000000001,7028,NNB,B,7
8,test,1,0.0,2-Back,1,m,Mon Oct 28 2024 15:23:17 GMT-0500 (Central Daylight Time),546499.3000000003,110_o_f_n_a.png,O,m,909,10,1,1940.3000000002794,544559.0,7028,NNB,B,8
9,test,1,1.0,2-Back,1,z,Mon Oct 28 2024 15:23:17 GMT-0500 (Central Daylight Time),548438.1000000001,013_y_m_n_a.png,O,z,921,11,1,1934.8999999999069,546503.2000000002,7028,NNB,B,9
10,test,1,0.0,2-Back,1,m,Mon Oct 28 2024 15:23:17 GMT-0500 (Central Daylight Time),550404.1000000001,029_m_f_n_a.png,O,m,939,12,1,1961.8999999999069,548442.2000000002,7028,NNB,B,10
11,test,1,0.0,2-Back,1,m,Mon Oct 28 2024 15:23:17 GMT-0500 (Central Daylight Time),552703.4000000004,029_m_f_n_a.png,O,m,1277,13,1,2295.600000000093,550407.8000000003,7028,NNB,B,11
12,test,1,0.0,2-Back,1,m,Mon Oct 28 2024 15:23:17 GMT-0500 (Central Daylight Time),554669.6000000001,065_o_m_n_a.png,O,m,946,14,1,1962.6000000000931,552707.0,7028,NNB,B,12
13,test,1,0.0,2-Back,1,m,Mon Oct 28 2024 15:23:17 GMT-0500 (Central Daylight Time),556886.6000000001,110_o_f_n_a.png,O,m,1196,15,1,2214.0,554672.6000000001,7028,NNB,B,13
14,test,1,1.0,2-Back,1,z,Mon Oct 28 2024 15:23:17 GMT-0500 (Central Daylight Time),558618.4000000004,065_o_m_n_a.png,O,z,716,16,1,1728.5,556889.9000000004,7028,NNB,B,14
15,test,1,0.0,2-Back,1,m,Mon Oct 28 2024 15:23:17 GMT-0500 (Central Daylight Time),560850.7000000002,097_m_f_n_a.png,O,m,1215,17,1,2228.2999999998137,558622.4000000004,7028,NNB,B,15
16,test,1,0.0,2-Back,1,m,Mon Oct 28 2024 15:23:17 GMT-0500 (Central Daylight Time),562967.1000000001,178_m_m_n_a.png,O,m,1095,18,1,2112.6999999997206,560854.4000000004,7028,NNB,B,16
0,test,2,0.0,2-Back,,,Mon Oct 28 2024 15:23:17 GMT-0500 (Central Daylight Time),562967.1000000001,178_m_m_n_a.png,O,space,2242,1,1,2112.6999999997206,560854.4000000004,7028,NNB,B,0
0,test,2,0.0,2-Back,,,Mon Oct 28 2024 15:23:17 GMT-0500 (Central Daylight Time),562967.1000000001,173_y_f_n_a.png,O,space,2242,2,1,2112.6999999997206,560854.4000000004,7028,NNB,B,0
1,test,2,1.0,2-Back,1,z,Mon Oct 28 2024 15:23:17 GMT-0500 (Central Daylight Time),572547.1000000001,178_m_m_n_a.png,O,z,1174,3,1,2195.5,570351.6000000001,7028,NNB,B,1
2,test,2,0.0,2-Back,1,m,Mon Oct 28 2024 15:23:17 GMT-0500 (Central Daylight Time),574446.7000000002,097_m_f_n_a.png,O,m,878,4,1,1896.2000000001863,572550.5,7028,NNB,B,2
3,test,2,0.0,2-Back,1,m,Mon Oct 28 2024 15:23:17 GMT-0500 (Central Daylight Time),576679.1000000001,173_y_f_n_a.png,O,m,1203,5,1,2228.600000000093,574450.5,7028,NNB,B,3
4,test,2,0.0,2-Back,1,m,Mon Oct 28 2024 15:23:17 GMT-0500 (Central Daylight Time),578561.9000000004,065_o_m_n_a.png,O,m,858,6,1,1879.6000000000931,576682.3000000003,7028,NNB,B,4
5,test,2,0.0,2-Back,1,m,Mon Oct 28 2024 15:23:17 GMT-0500 (Central Daylight Time),580394.6000000001,152_y_f_n_a.png,O,m,815,7,1,1829.0,578565.6000000001,7028,NNB,B,5
6,test,2,1.0,2-Back,1,z,Mon Oct 28 2024 15:23:17 GMT-0500 (Central Daylight Time),582660.8000000003,065_o_m_n_a.png,O,z,1247,8,1,2262.5,580398.3000000003,7028,NNB,B,6
7,test,2,0.0,2-Back,1,m,Mon Oct 28 2024 15:23:17 GMT-0500 (Central Daylight Time),584776.8000000003,013_y_m_n_a.png,O,m,1085,9,1,2112.3000000002794,582664.5,7028,NNB,B,7
8,test,2,0.0,2-Back,1,m,Mon Oct 28 2024 15:23:17 GMT-0500 (Central Daylight Time),587142.6000000001,013_y_m_n_a.png,O,m,1345,10,1,2362.100000000093,584780.5,7028,NNB,B,8
9,test,2,0.0,2-Back,1,m,Mon Oct 28 2024 15:23:17 GMT-0500 (Central Daylight Time),589075.5,029_m_f_n_a.png,O,m,907,11,1,1929.1999999997206,587146.3000000003,7028,NNB,B,9
9,test,2,0.0,2-Back,0,m,Mon Oct 28 2024 15:23:17 GMT-0500 (Central Daylight Time),591824.5,173_y_f_n_a.png,O,z,1718,12,1,2744.899999999907,589079.6000000001,7028,NNB,B,10
10,test,2,1.0,2-Back,1,z,Mon Oct 28 2024 15:23:17 GMT-0500 (Central Daylight Time),594324.8000000003,029_m_f_n_a.png,O,z,1481,13,1,2496.5,591828.3000000003,7028,NNB,B,11
11,test,2,0.0,2-Back,1,m,Mon Oct 28 2024 15:23:17 GMT-0500 (Central Daylight Time),596389.5,176_o_m_n_a.png,O,m,1045,14,1,2060.7999999998137,594328.7000000002,7028,NNB,B,12
12,test,2,0.0,2-Back,1,m,Mon Oct 28 2024 15:23:17 GMT-0500 (Central Daylight Time),598455.7000000002,176_o_m_n_a.png,O,m,1036,15,1,2062.7999999998137,596392.9000000004,7028,NNB,B,13
13,test,2,0.0,2-Back,1,m,Mon Oct 28 2024 15:23:17 GMT-0500 (Central Daylight Time),600688.4000000004,110_o_f_n_a.png,O,m,1200,16,1,2229.2000000001863,598459.2000000002,7028,NNB,B,14
14,test,2,0.0,2-Back,1,m,Mon Oct 28 2024 15:23:17 GMT-0500 (Central Daylight Time),602554.3000000003,126_m_m_n_a.png,O,m,833,17,1,1862.0,600692.3000000003,7028,NNB,B,15
15,test,2,1.0,2-Back,1,z,Mon Oct 28 2024 15:23:17 GMT-0500 (Central Daylight Time),604354.0,110_o_f_n_a.png,O,z,767,18,1,1795.8999999999069,602558.1000000001,7028,NNB,B,16
0,test,3,1.0,2-Back,,,Mon Oct 28 2024 15:23:17 GMT-0500 (Central Daylight Time),604354.0,153_y_m_n_a.png,O,space,1727,1,1,1795.8999999999069,602558.1000000001,7028,NNB,B,0
0,test,3,1.0,2-Back,,,Mon Oct 28 2024 15:23:17 GMT-0500 (Central Daylight Time),604354.0,153_y_m_n_a.png,O,space,1727,2,1,1795.8999999999069,602558.1000000001,7028,NNB,B,0
1,test,3,0.0,2-Back,1,m,Mon Oct 28 2024 15:23:17 GMT-0500 (Central Daylight Time),613367.7000000002,110_o_f_n_a.png,O,m,1110,3,1,2128.600000000093,611239.1000000001,7028,NNB,B,1
2,test,3,0.0,2-Back,1,m,Mon Oct 28 2024 15:23:17 GMT-0500 (Central Daylight Time),615167.0,178_m_m_n_a.png,O,m,777,4,1,1795.5,613371.5,7028,NNB,B,2
3,test,3,1.0,2-Back,1,z,Mon Oct 28 2024 15:23:17 GMT-0500 (Central Daylight Time),616666.6000000001,110_o_f_n_a.png,O,z,474,5,1,1496.0,615170.6000000001,7028,NNB,B,3
4,test,3,0.0,2-Back,1,m,Mon Oct 28 2024 15:23:17 GMT-0500 (Central Daylight Time),618415.8000000003,013_y_m_n_a.png,O,m,727,6,1,1745.5,616670.3000000003,7028,NNB,B,4
4,test,3,0.0,2-Back,0,m,Mon Oct 28 2024 15:23:17 GMT-0500 (Central Daylight Time),621448.9000000004,178_m_m_n_a.png,O,None,2016,7,1,3029.100000000093,618419.8000000003,7028,NNB,B,5
4,test,3,1.0,2-Back,0,z,Mon Oct 28 2024 15:23:17 GMT-0500 (Central Daylight Time),623447.9000000004,013_y_m_n_a.png,O,m,977,8,1,1994.9000000003725,621453.0,7028,NNB,B,6
5,test,3,0.0,2-Back,1,m,Mon Oct 28 2024 15:23:17 GMT-0500 (Central Daylight Time),625763.7000000002,173_y_f_n_a.png,O,m,1290,9,1,2311.7000000001863,623452.0,7028,NNB,B,7
6,test,3,0.0,2-Back,1,m,Mon Oct 28 2024 15:23:17 GMT-0500 (Central Daylight Time),627813.3000000003,126_m_m_n_a.png,O,m,1021,10,1,2045.8000000002794,625767.5,7028,NNB,B,8
7,test,3,1.0,2-Back,1,z,Mon Oct 28 2024 15:23:17 GMT-0500 (Central Daylight Time),629912.5,173_y_f_n_a.png,O,z,1076,11,1,2095.399999999907,627817.1000000001,7028,NNB,B,9
8,test,3,1.0,2-Back,1,z,Mon Oct 28 2024 15:23:17 GMT-0500 (Central Daylight Time),631895.2000000002,126_m_m_n_a.png,O,z,953,12,1,1979.6000000000931,629915.6000000001,7028,NNB,B,10
9,test,3,0.0,2-Back,1,m,Mon Oct 28 2024 15:23:17 GMT-0500 (Central Daylight Time),633628.0,110_o_f_n_a.png,O,m,706,13,1,1728.5999999996275,631899.4000000004,7028,NNB,B,11
10,test,3,0.0,2-Back,1,m,Mon Oct 28 2024 15:23:17 GMT-0500 (Central Daylight Time),635760.7000000002,097_m_f_n_a.png,O,m,1101,14,1,2128.7999999998137,633631.9000000004,7028,NNB,B,12
11,test,3,0.0,2-Back,1,m,Mon Oct 28 2024 15:23:17 GMT-0500 (Central Daylight Time),638610.4000000004,065_o_m_n_a.png,O,m,1833,15,1,2846.5,635763.9000000004,7028,NNB,B,13
12,test,3,1.0,2-Back,1,z,Mon Oct 28 2024 15:23:17 GMT-0500 (Central Daylight Time),640421.0,097_m_f_n_a.png,O,z,795,16,1,1807.6999999997206,638613.3000000003,7028,NNB,B,14
13,test,3,0.0,2-Back,1,m,Mon Oct 28 2024 15:23:17 GMT-0500 (Central Daylight Time),642225.2000000002,086_o_f_n_a.png,O,m,792,17,1,1800.7999999998137,640424.4000000004,7028,NNB,B,15
14,test,3,0.0,2-Back,1,m,Mon Oct 28 2024 15:23:17 GMT-0500 (Central Daylight Time),645042.2000000002,086_o_f_n_a.png,O,m,1792,18,1,2813.2000000001863,642229.0,7028,NNB,B,16
0,test,4,0.0,2-Back,,,Mon Oct 28 2024 15:23:17 GMT-0500 (Central Daylight Time),645042.2000000002,176_o_m_n_a.png,O,space,1687,1,1,2813.2000000001863,642229.0,7028,NNB,B,0
0,test,4,0.0,2-Back,,,Mon Oct 28 2024 15:23:17 GMT-0500 (Central Daylight Time),645042.2000000002,152_y_f_n_a.png,O,space,1687,2,1,2813.2000000001863,642229.0,7028,NNB,B,0
1,test,4,1.0,2-Back,1,z,Mon Oct 28 2024 15:23:17 GMT-0500 (Central Daylight Time),653571.9000000004,176_o_m_n_a.png,O,z,598,3,1,1612.8000000002794,651959.1000000001,7028,NNB,B,1
1,test,4,1.0,2-Back,0,z,Mon Oct 28 2024 15:23:17 GMT-0500 (Central Daylight Time),655321.3000000003,152_y_f_n_a.png,O,m,718,4,1,1745.5,653575.8000000003,7028,NNB,B,2
2,test,4,0.0,2-Back,1,m,Mon Oct 28 2024 15:23:17 GMT-0500 (Central Daylight Time),657537.3000000003,110_o_f_n_a.png,O,m,1192,5,1,2212.0,655325.3000000003,7028,NNB,B,3
3,test,4,0.0,2-Back,1,m,Mon Oct 28 2024 15:23:17 GMT-0500 (Central Daylight Time),659703.2000000002,110_o_f_n_a.png,O,m,1136,6,1,2162.2999999998137,657540.9000000004,7028,NNB,B,4
4,test,4,0.0,2-Back,1,m,Mon Oct 28 2024 15:23:17 GMT-0500 (Central Daylight Time),661569.2000000002,029_m_f_n_a.png,O,m,834,7,1,1862.2999999998137,659706.9000000004,7028,NNB,B,5
5,test,4,0.0,2-Back,1,m,Mon Oct 28 2024 15:23:17 GMT-0500 (Central Daylight Time),663618.7000000002,013_y_m_n_a.png,O,m,1024,8,1,2045.7000000001863,661573.0,7028,NNB,B,6
6,test,4,1.0,2-Back,1,z,Mon Oct 28 2024 15:23:17 GMT-0500 (Central Daylight Time),665717.9000000004,029_m_f_n_a.png,O,z,1079,9,1,2095.3000000002794,663622.6000000001,7028,NNB,B,7
7,test,4,0.0,2-Back,1,m,Mon Oct 28 2024 15:23:17 GMT-0500 (Central Daylight Time),668000.4000000004,126_m_m_n_a.png,O,m,1251,10,1,2278.600000000093,665721.8000000003,7028,NNB,B,8
8,test,4,0.0,2-Back,1,m,Mon Oct 28 2024 15:23:17 GMT-0500 (Central Daylight Time),670283.4000000004,013_y_m_n_a.png,O,m,1256,11,1,2279.3000000002794,668004.1000000001,7028,NNB,B,9
9,test,4,0.0,2-Back,1,m,Mon Oct 28 2024 15:23:17 GMT-0500 (Central Daylight Time),672515.8000000003,086_o_f_n_a.png,O,m,1214,12,1,2228.8000000002794,670287.0,7028,NNB,B,10
10,test,4,0.0,2-Back,1,m,Mon Oct 28 2024 15:23:17 GMT-0500 (Central Daylight Time),674682.2000000002,153_y_m_n_a.png,O,m,1149,13,1,2162.7999999998137,672519.4000000004,7028,NNB,B,11
11,test,4,1.0,2-Back,1,z,Mon Oct 28 2024 15:23:17 GMT-0500 (Central Daylight Time),676314.7000000002,086_o_f_n_a.png,O,z,601,14,1,1628.8999999999069,674685.8000000003,7028,NNB,B,12
12,test,4,1.0,2-Back,1,z,Mon Oct 28 2024 15:23:17 GMT-0500 (Central Daylight Time),678064.0,153_y_m_n_a.png,O,z,727,15,1,1745.7999999998137,676318.2000000002,7028,NNB,B,13
13,test,4,0.0,2-Back,1,m,Mon Oct 28 2024 15:23:17 GMT-0500 (Central Daylight Time),679913.5,178_m_m_n_a.png,O,m,825,16,1,1845.7999999998137,678067.7000000002,7028,NNB,B,14
14,test,4,0.0,2-Back,1,m,Mon Oct 28 2024 15:23:17 GMT-0500 (Central Daylight Time),682679.1000000001,097_m_f_n_a.png,O,m,1735,17,1,2761.6999999997206,679917.4000000004,7028,NNB,B,15
14,test,4,1.0,2-Back,0,z,Mon Oct 28 2024 15:23:17 GMT-0500 (Central Daylight Time),684845.1000000001,178_m_m_n_a.png,O,m,1146,18,1,2162.100000000093,682683.0,7028,NNB,B,16
0,test,5,1.0,2-Back,,,Mon Oct 28 2024 15:23:17 GMT-0500 (Central Daylight Time),684845.1000000001,153_y_m_n_a.png,O,space,1452,1,1,2162.100000000093,682683.0,7028,NNB,B,0
0,test,5,1.0,2-Back,,,Mon Oct 28 2024 15:23:17 GMT-0500 (Central Daylight Time),684845.1000000001,097_m_f_n_a.png,O,space,1452,2,1,2162.100000000093,682683.0,7028,NNB,B,0
1,test,5,1.0,2-Back,1,z,Mon Oct 28 2024 15:23:17 GMT-0500 (Central Daylight Time),693159.1000000001,153_y_m_n_a.png,O,z,777,3,1,1795.5,691363.6000000001,7028,NNB,B,1
2,test,5,1.0,2-Back,1,z,Mon Oct 28 2024 15:23:17 GMT-0500 (Central Daylight Time),694692.0,097_m_f_n_a.png,O,z,506,4,1,1529.0999999996275,693162.9000000004,7028,NNB,B,2
3,test,5,0.0,2-Back,1,m,Mon Oct 28 2024 15:23:17 GMT-0500 (Central Daylight Time),696808.4000000004,086_o_f_n_a.png,O,m,1093,5,1,2112.5,694695.9000000004,7028,NNB,B,3
4,test,5,0.0,2-Back,1,m,Mon Oct 28 2024 15:23:17 GMT-0500 (Central Daylight Time),698624.3000000003,153_y_m_n_a.png,O,m,793,6,1,1812.3000000002794,696812.0,7028,NNB,B,4
5,test,5,0.0,2-Back,1,m,Mon Oct 28 2024 15:23:17 GMT-0500 (Central Daylight Time),700606.9000000004,173_y_f_n_a.png,O,m,953,7,1,1978.8000000002794,698628.1000000001,7028,NNB,B,5
6,test,5,0.0,2-Back,1,m,Mon Oct 28 2024 15:23:17 GMT-0500 (Central Daylight Time),703156.1000000001,086_o_f_n_a.png,O,m,1530,8,1,2546.1999999997206,700609.9000000004,7028,NNB,B,6
6,test,5,1.0,2-Back,0,z,Mon Oct 28 2024 15:23:17 GMT-0500 (Central Daylight Time),705305.4000000004,173_y_f_n_a.png,O,m,1125,9,1,2146.100000000093,703159.3000000003,7028,NNB,B,7
7,test,5,0.0,2-Back,1,m,Mon Oct 28 2024 15:23:17 GMT-0500 (Central Daylight Time),707154.7000000002,065_o_m_n_a.png,O,m,832,10,1,1845.8999999999069,705308.8000000003,7028,NNB,B,8
8,test,5,0.0,2-Back,1,m,Mon Oct 28 2024 15:23:17 GMT-0500 (Central Daylight Time),708920.9000000004,029_m_f_n_a.png,O,m,742,11,1,1762.8000000002794,707158.1000000001,7028,NNB,B,9
9,test,5,0.0,2-Back,1,m,Mon Oct 28 2024 15:23:17 GMT-0500 (Central Daylight Time),711503.2000000002,126_m_m_n_a.png,O,m,1552,12,1,2578.7000000001863,708924.5,7028,NNB,B,10
10,test,5,0.0,2-Back,1,m,Mon Oct 28 2024 15:23:17 GMT-0500 (Central Daylight Time),713486.2000000002,065_o_m_n_a.png,O,m,954,13,1,1979.2999999998137,711506.9000000004,7028,NNB,B,11
11,test,5,1.0,2-Back,1,z,Mon Oct 28 2024 15:23:17 GMT-0500 (Central Daylight Time),715802.2000000002,126_m_m_n_a.png,O,z,1283,14,1,2312.2000000001863,713490.0,7028,NNB,B,12
12,test,5,0.0,2-Back,1,m,Mon Oct 28 2024 15:23:17 GMT-0500 (Central Daylight Time),717901.3000000003,152_y_f_n_a.png,O,m,1071,15,1,2095.2000000001863,715806.1000000001,7028,NNB,B,13
13,test,5,0.0,2-Back,1,m,Mon Oct 28 2024 15:23:17 GMT-0500 (Central Daylight Time),719650.7000000002,176_o_m_n_a.png,O,m,732,16,1,1745.7999999998137,717904.9000000004,7028,NNB,B,14
14,test,5,0.0,2-Back,1,m,Mon Oct 28 2024 15:23:17 GMT-0500 (Central Daylight Time),721300.4000000004,029_m_f_n_a.png,O,m,630,17,1,1646.3000000002794,719654.1000000001,7028,NNB,B,15
14,test,5,1.0,2-Back,0,z,Mon Oct 28 2024 15:23:17 GMT-0500 (Central Daylight Time),723649.9000000004,176_o_m_n_a.png,O,m,1325,18,1,2345.9000000003725,721304.0,7028,NNB,B,16
