block_c,block_dur,condition,countdown,datetime,endtime,list,multichar_response,project,response,response_time,session_number,start_end,starttime,subject_id,task,task_vers,trial
,,,,Tue Jan 28 2025 13:16:35 GMT-0600 (Central Standard Time),,,,I,space,495,1,,,8015,WL,C,
prac,,0,,Tue Jan 28 2025 13:16:35 GMT-0600 (Central Standard Time),,NA,b,I,b,9059,1,,,8015,WL,C,1.0
prac,,0,,Tue Jan 28 2025 13:16:35 GMT-0600 (Central Standard Time),,NA,bo,I,o,543,1,,,8015,WL,C,1.0
prac,,0,,Tue Jan 28 2025 13:16:35 GMT-0600 (Central Standard Time),,NA,boo,I,o,288,1,,,8015,WL,C,1.0
prac,,0,,Tue Jan 28 2025 13:16:35 GMT-0600 (Central Standard Time),,NA,boos,I,s,172,1,,,8015,WL,C,1.0
prac,,0,,Tue Jan 28 2025 13:16:35 GMT-0600 (Central Standard Time),,NA,boost,I,t,327,1,,,8015,WL,C,1.0
prac,,0,,Tue Jan 28 2025 13:16:35 GMT-0600 (Central Standard Time),,NA,boostenter,I,enter,1464,1,,,8015,WL,C,1.0
1,0.9159998893737793,learn,59084.00011062622,Tue Jan 28 2025 13:16:35 GMT-0600 (Central Standard Time),125517.10000000894,A,t,I,t,906,1,916.1000000089407,124601.0,8015,WL,C,1.0
1,1.3659999370574951,learn,58634.000062942505,Tue Jan 28 2025 13:16:35 GMT-0600 (Central Standard Time),125966.80000001192,A,to,I,o,428,1,1365.800000011921,124601.0,8015,WL,C,1.0
1,1.5989999771118164,learn,58401.00002288818,Tue Jan 28 2025 13:16:35 GMT-0600 (Central Standard Time),126200.10000000894,A,tow,I,w,218,1,1599.1000000089407,124601.0,8015,WL,C,1.0
1,1.7659997940063477,learn,58234.00020599365,Tue Jan 28 2025 13:16:35 GMT-0600 (Central Standard Time),126366.90000000596,A,towe,I,e,146,1,1765.9000000059605,124601.0,8015,WL,C,1.0
1,2.0319998264312744,learn,57968.000173568726,Tue Jan 28 2025 13:16:35 GMT-0600 (Central Standard Time),126633.30000001192,A,tower,I,r,251,1,2032.300000011921,124601.0,8015,WL,C,1.0
1,2.7319998741149902,learn,57268.00012588501,Tue Jan 28 2025 13:16:35 GMT-0600 (Central Standard Time),127333.0,A,towerq,I,q,681,1,2732.0,124601.0,8015,WL,C,1.0
1,3.06499981880188,learn,56935.00018119812,Tue Jan 28 2025 13:16:35 GMT-0600 (Central Standard Time),127666.30000001192,A,towerqu,I,u,325,1,3065.300000011921,124601.0,8015,WL,C,1.0
1,3.3489999771118164,learn,56651.00002288818,Tue Jan 28 2025 13:16:35 GMT-0600 (Central Standard Time),127949.5,A,towerque,I,e,264,1,3348.5,124601.0,8015,WL,C,1.0
1,3.497999906539917,learn,56502.00009346008,Tue Jan 28 2025 13:16:35 GMT-0600 (Central Standard Time),128099.40000000596,A,towerquee,I,e,132,1,3498.4000000059605,124601.0,8015,WL,C,1.0
1,3.697999954223633,learn,56302.00004577637,Tue Jan 28 2025 13:16:35 GMT-0600 (Central Standard Time),128299.40000000596,A,towerqueen,I,n,182,1,3698.4000000059605,124601.0,8015,WL,C,1.0
1,4.664999961853027,learn,55335.00003814697,Tue Jan 28 2025 13:16:35 GMT-0600 (Central Standard Time),129265.80000001192,A,towerqueenc,I,c,941,1,4664.800000011921,124601.0,8015,WL,C,1.0
1,4.847999811172485,learn,55152.000188827515,Tue Jan 28 2025 13:16:35 GMT-0600 (Central Standard Time),129448.60000000894,A,towerqueenca,I,a,160,1,4847.600000008941,124601.0,8015,WL,C,1.0
1,4.913999795913696,learn,55086.000204086304,Tue Jan 28 2025 13:16:35 GMT-0600 (Central Standard Time),129515.40000000596,A,towerqueencam,I,m,49,1,4914.4000000059605,124601.0,8015,WL,C,1.0
1,5.113999843597412,learn,54886.00015640259,Tue Jan 28 2025 13:16:35 GMT-0600 (Central Standard Time),129715.40000000596,A,towerqueencamp,I,p,190,1,5114.4000000059605,124601.0,8015,WL,C,1.0
1,6.447999954223633,learn,53552.00004577637,Tue Jan 28 2025 13:16:35 GMT-0600 (Central Standard Time),131048.80000001192,A,towerqueencampd,I,d,1319,1,6447.800000011921,124601.0,8015,WL,C,1.0
1,6.580999851226807,learn,53419.00014877319,Tue Jan 28 2025 13:16:35 GMT-0600 (Central Standard Time),131181.70000000298,A,towerqueencampdo,I,o,113,1,6580.70000000298,124601.0,8015,WL,C,1.0
1,6.71399998664856,learn,53286.00001335144,Tue Jan 28 2025 13:16:35 GMT-0600 (Central Standard Time),131315.0,A,towerqueencampdoc,I,c,125,1,6714.0,124601.0,8015,WL,C,1.0
1,7.197999954223633,learn,52802.00004577637,Tue Jan 28 2025 13:16:35 GMT-0600 (Central Standard Time),131798.80000001192,A,towerqueencampdo,I,backspace,472,1,7197.800000011921,124601.0,8015,WL,C,1.0
1,8.596999883651733,learn,51403.00011634827,Tue Jan 28 2025 13:16:35 GMT-0600 (Central Standard Time),133198.0,A,towerqueencampdoc,I,c,1379,1,8597.0,124601.0,8015,WL,C,1.0
1,9.02999997138977,learn,50970.00002861023,Tue Jan 28 2025 13:16:35 GMT-0600 (Central Standard Time),133631.0,A,towerqueencampdoct,I,t,412,1,9030.0,124601.0,8015,WL,C,1.0
1,9.162999868392944,learn,50837.000131607056,Tue Jan 28 2025 13:16:35 GMT-0600 (Central Standard Time),133764.5,A,towerqueencampdocto,I,o,123,1,9163.5,124601.0,8015,WL,C,1.0
1,9.329999923706055,learn,50670.000076293945,Tue Jan 28 2025 13:16:35 GMT-0600 (Central Standard Time),133930.80000001192,A,towerqueencampdoctor,I,r,158,1,9329.800000011921,124601.0,8015,WL,C,1.0
1,10.096999883651733,learn,49903.00011634827,Tue Jan 28 2025 13:16:35 GMT-0600 (Central Standard Time),134697.5,A,towerqueencampdoctorb,I,b,744,1,10096.5,124601.0,8015,WL,C,1.0
1,10.329999923706055,learn,49670.000076293945,Tue Jan 28 2025 13:16:35 GMT-0600 (Central Standard Time),134930.80000001192,A,towerqueencampdoctorbo,I,o,210,1,10329.800000011921,124601.0,8015,WL,C,1.0
1,10.61299991607666,learn,49387.00008392334,Tue Jan 28 2025 13:16:35 GMT-0600 (Central Standard Time),135214.0,A,towerqueencampdoctorboy,I,y,263,1,10613.0,124601.0,8015,WL,C,1.0
1,11.146999835968018,learn,48853.00016403198,Tue Jan 28 2025 13:16:35 GMT-0600 (Central Standard Time),135748.20000000298,A,towerqueencampdoctorboys,I,s,524,1,11147.20000000298,124601.0,8015,WL,C,1.0
1,11.328999996185303,learn,48671.0000038147,Tue Jan 28 2025 13:16:35 GMT-0600 (Central Standard Time),135930.20000000298,A,towerqueencampdoctorboysu,I,u,157,1,11329.20000000298,124601.0,8015,WL,C,1.0
1,11.52899980545044,learn,48471.00019454956,Tue Jan 28 2025 13:16:35 GMT-0600 (Central Standard Time),136130.40000000596,A,towerqueencampdoctorboysug,I,g,184,1,11529.40000000596,124601.0,8015,WL,C,1.0
1,11.69599986076355,learn,48304.00013923645,Tue Jan 28 2025 13:16:35 GMT-0600 (Central Standard Time),136296.90000000596,A,towerqueencampdoctorboysuga,I,a,153,1,11695.90000000596,124601.0,8015,WL,C,1.0
1,11.895999908447266,learn,48104.000091552734,Tue Jan 28 2025 13:16:35 GMT-0600 (Central Standard Time),136496.80000001192,A,towerqueencampdoctorboysugar,I,r,185,1,11895.800000011921,124601.0,8015,WL,C,1.0
1,19.742999792099,learn,40257.000207901,Tue Jan 28 2025 13:16:35 GMT-0600 (Central Standard Time),144344.30000001192,A,towerqueencampdoctorboysugarf,I,f,7825,1,19743.30000001192,124601.0,8015,WL,C,1.0
1,19.90999984741211,learn,40090.00015258789,Tue Jan 28 2025 13:16:35 GMT-0600 (Central Standard Time),144511.0,A,towerqueencampdoctorboysugarfl,I,l,154,1,19910.0,124601.0,8015,WL,C,1.0
1,20.275999784469604,learn,39724.000215530396,Tue Jan 28 2025 13:16:35 GMT-0600 (Central Standard Time),144877.5,A,towerqueencampdoctorboysugarfly,I,y,355,1,20276.5,124601.0,8015,WL,C,1.0
1,33.92199993133545,learn,26078.00006866455,Tue Jan 28 2025 13:16:35 GMT-0600 (Central Standard Time),158523.30000001192,A,towerqueencampdoctorboysugarfl,I,backspace,13628,1,33922.30000001192,124601.0,8015,WL,C,1.0
1,34.92199993133545,learn,25078.00006866455,Tue Jan 28 2025 13:16:35 GMT-0600 (Central Standard Time),159522.90000000596,A,towerqueencampdoctorboysugarf,I,backspace,981,1,34921.90000000596,124601.0,8015,WL,C,1.0
1,35.121999979019165,learn,24878.000020980835,Tue Jan 28 2025 13:16:35 GMT-0600 (Central Standard Time),159722.80000001192,A,towerqueencampdoctorboysugar,I,backspace,175,1,35121.80000001192,124601.0,8015,WL,C,1.0
1,35.288999795913696,learn,24711.000204086304,Tue Jan 28 2025 13:16:35 GMT-0600 (Central Standard Time),159889.60000000894,A,towerqueencampdoctorboysuga,I,backspace,143,1,35288.60000000894,124601.0,8015,WL,C,1.0
1,35.437999963760376,learn,24562.000036239624,Tue Jan 28 2025 13:16:35 GMT-0600 (Central Standard Time),160039.20000000298,A,towerqueencampdoctorboysug,I,backspace,129,1,35438.20000000298,124601.0,8015,WL,C,1.0
1,35.58799982070923,learn,24412.00017929077,Tue Jan 28 2025 13:16:35 GMT-0600 (Central Standard Time),160189.40000000596,A,towerqueencampdoctorboysu,I,backspace,131,1,35588.40000000596,124601.0,8015,WL,C,1.0
1,35.73799991607666,learn,24262.00008392334,Tue Jan 28 2025 13:16:35 GMT-0600 (Central Standard Time),160339.20000000298,A,towerqueencampdoctorboys,I,backspace,141,1,35738.20000000298,124601.0,8015,WL,C,1.0
1,36.9210000038147,learn,23078.999996185303,Tue Jan 28 2025 13:16:35 GMT-0600 (Central Standard Time),161522.40000000596,A,towerqueencampdoctorboy,I,backspace,1167,1,36921.40000000596,124601.0,8015,WL,C,1.0
1,37.08799982070923,learn,22912.00017929077,Tue Jan 28 2025 13:16:35 GMT-0600 (Central Standard Time),161689.10000000894,A,towerqueencampdoctorbo,I,backspace,144,1,37088.10000000894,124601.0,8015,WL,C,1.0
1,37.22099995613098,learn,22779.00004386902,Tue Jan 28 2025 13:16:35 GMT-0600 (Central Standard Time),161822.20000000298,A,towerqueencampdoctorb,I,backspace,113,1,37221.20000000298,124601.0,8015,WL,C,1.0
1,37.370999813079834,learn,22629.000186920166,Tue Jan 28 2025 13:16:35 GMT-0600 (Central Standard Time),161972.20000000298,A,towerqueencampdoctor,I,backspace,140,1,37371.20000000298,124601.0,8015,WL,C,1.0
1,37.537999868392944,learn,22462.000131607056,Tue Jan 28 2025 13:16:35 GMT-0600 (Central Standard Time),162138.80000001192,A,towerqueencampdocto,I,backspace,143,1,37537.80000001192,124601.0,8015,WL,C,1.0
1,37.7039999961853,learn,22296.000003814697,Tue Jan 28 2025 13:16:35 GMT-0600 (Central Standard Time),162305.30000001192,A,towerqueencampdoct,I,backspace,144,1,37704.30000001192,124601.0,8015,WL,C,1.0
1,37.870999813079834,learn,22129.000186920166,Tue Jan 28 2025 13:16:35 GMT-0600 (Central Standard Time),162471.60000000894,A,towerqueencampdoc,I,backspace,145,1,37870.60000000894,124601.0,8015,WL,C,1.0
1,38.020999908447266,learn,21979.000091552734,Tue Jan 28 2025 13:16:35 GMT-0600 (Central Standard Time),162622.10000000894,A,towerqueencampdo,I,backspace,138,1,38021.10000000894,124601.0,8015,WL,C,1.0
1,38.1710000038147,learn,21828.999996185303,Tue Jan 28 2025 13:16:35 GMT-0600 (Central Standard Time),162772.0,A,towerqueencampd,I,backspace,140,1,38171.0,124601.0,8015,WL,C,1.0
1,38.33799982070923,learn,21662.00017929077,Tue Jan 28 2025 13:16:35 GMT-0600 (Central Standard Time),162938.70000000298,A,towerqueencamp,I,backspace,150,1,38337.70000000298,124601.0,8015,WL,C,1.0
1,38.50399994850159,learn,21496.000051498413,Tue Jan 28 2025 13:16:35 GMT-0600 (Central Standard Time),163105.20000000298,A,towerqueencam,I,backspace,152,1,38504.20000000298,124601.0,8015,WL,C,1.0
1,38.686999797821045,learn,21313.000202178955,Tue Jan 28 2025 13:16:35 GMT-0600 (Central Standard Time),163288.40000000596,A,towerqueenca,I,backspace,162,1,38687.40000000596,124601.0,8015,WL,C,1.0
1,38.853999853134155,learn,21146.000146865845,Tue Jan 28 2025 13:16:35 GMT-0600 (Central Standard Time),163455.10000000894,A,towerqueenc,I,backspace,146,1,38854.10000000894,124601.0,8015,WL,C,1.0
1,39.020999908447266,learn,20979.000091552734,Tue Jan 28 2025 13:16:35 GMT-0600 (Central Standard Time),163621.80000001192,A,towerqueen,I,backspace,147,1,39020.80000001192,124601.0,8015,WL,C,1.0
1,39.186999797821045,learn,20813.000202178955,Tue Jan 28 2025 13:16:35 GMT-0600 (Central Standard Time),163788.20000000298,A,towerquee,I,backspace,157,1,39187.20000000298,124601.0,8015,WL,C,1.0
1,39.353999853134155,learn,20646.000146865845,Tue Jan 28 2025 13:16:35 GMT-0600 (Central Standard Time),163954.90000000596,A,towerque,I,backspace,158,1,39353.90000000596,124601.0,8015,WL,C,1.0
1,39.53699994087219,learn,20463.000059127808,Tue Jan 28 2025 13:16:35 GMT-0600 (Central Standard Time),164138.30000001192,A,towerqu,I,backspace,169,1,39537.30000001192,124601.0,8015,WL,C,1.0
1,39.71999979019165,learn,20280.00020980835,Tue Jan 28 2025 13:16:35 GMT-0600 (Central Standard Time),164321.40000000596,A,towerq,I,backspace,168,1,39720.40000000596,124601.0,8015,WL,C,1.0
1,39.919999837875366,learn,20080.000162124634,Tue Jan 28 2025 13:16:35 GMT-0600 (Central Standard Time),164521.5,A,tower,I,backspace,177,1,39920.5,124601.0,8015,WL,C,1.0
1,41.269999980926514,learn,18730.000019073486,Tue Jan 28 2025 13:16:35 GMT-0600 (Central Standard Time),165871.0,A,towerenter,I,enter,1329,1,41270.0,124601.0,8015,WL,C,1.0
1,42.22999978065491,learn,17770.000219345093,Tue Jan 28 2025 13:16:35 GMT-0600 (Central Standard Time),166831.0,A,q,I,q,952,1,959.5999999940395,165871.40000000596,8015,WL,C,2.0
1,42.4210000038147,learn,17578.999996185303,Tue Jan 28 2025 13:16:35 GMT-0600 (Central Standard Time),167021.70000000298,A,qu,I,u,168,1,1150.2999999970198,165871.40000000596,8015,WL,C,2.0
1,42.65299987792969,learn,17347.000122070312,Tue Jan 28 2025 13:16:35 GMT-0600 (Central Standard Time),167253.80000001192,A,que,I,e,213,1,1382.4000000059605,165871.40000000596,8015,WL,C,2.0
1,42.8199999332428,learn,17180.000066757202,Tue Jan 28 2025 13:16:35 GMT-0600 (Central Standard Time),167420.80000001192,A,quee,I,e,149,1,1549.4000000059605,165871.40000000596,8015,WL,C,2.0
1,42.95299983024597,learn,17047.00016975403,Tue Jan 28 2025 13:16:35 GMT-0600 (Central Standard Time),167553.70000000298,A,queen,I,n,110,1,1682.2999999970198,165871.40000000596,8015,WL,C,2.0
1,43.6029999256134,learn,16397.000074386597,Tue Jan 28 2025 13:16:35 GMT-0600 (Central Standard Time),168203.5,A,queenenter,I,enter,633,1,2332.0999999940395,165871.40000000596,8015,WL,C,2.0
1,44.069000005722046,learn,15930.999994277954,Tue Jan 28 2025 13:16:35 GMT-0600 (Central Standard Time),168670.0,A,d,I,d,455,1,466.19999998807907,168203.80000001192,8015,WL,C,3.0
1,44.18599987030029,learn,15814.000129699707,Tue Jan 28 2025 13:16:35 GMT-0600 (Central Standard Time),168786.80000001192,A,do,I,o,93,1,583.0,168203.80000001192,8015,WL,C,3.0
1,45.26899981498718,learn,14731.000185012817,Tue Jan 28 2025 13:16:35 GMT-0600 (Central Standard Time),169869.70000000298,A,doc,I,c,1072,1,1665.8999999910593,168203.80000001192,8015,WL,C,3.0
1,45.569000005722046,learn,14430.999994277954,Tue Jan 28 2025 13:16:35 GMT-0600 (Central Standard Time),170169.60000000894,A,doco,I,o,284,1,1965.7999999970198,168203.80000001192,8015,WL,C,3.0
1,45.817999839782715,learn,14182.000160217285,Tue Jan 28 2025 13:16:35 GMT-0600 (Central Standard Time),170419.40000000596,A,docot,I,t,233,1,2215.5999999940395,168203.80000001192,8015,WL,C,3.0
1,46.234999895095825,learn,13765.000104904175,Tue Jan 28 2025 13:16:35 GMT-0600 (Central Standard Time),170836.10000000894,A,doco,I,backspace,400,1,2632.2999999970198,168203.80000001192,8015,WL,C,3.0
1,46.38499999046326,learn,13615.000009536743,Tue Jan 28 2025 13:16:35 GMT-0600 (Central Standard Time),170986.10000000894,A,doc,I,backspace,134,1,2782.2999999970198,168203.80000001192,8015,WL,C,3.0
1,47.150999784469604,learn,12849.000215530396,Tue Jan 28 2025 13:16:35 GMT-0600 (Central Standard Time),171752.40000000596,A,doct,I,t,744,1,3548.5999999940395,168203.80000001192,8015,WL,C,3.0
1,47.28499984741211,learn,12715.00015258789,Tue Jan 28 2025 13:16:35 GMT-0600 (Central Standard Time),171885.70000000298,A,docto,I,o,123,1,3681.8999999910593,168203.80000001192,8015,WL,C,3.0
1,48.067999839782715,learn,11932.000160217285,Tue Jan 28 2025 13:16:35 GMT-0600 (Central Standard Time),172668.80000001192,A,doctor,I,r,765,1,4465.0,168203.80000001192,8015,WL,C,3.0
1,48.41799998283386,learn,11582.000017166138,Tue Jan 28 2025 13:16:35 GMT-0600 (Central Standard Time),173018.70000000298,A,doctorenter,I,enter,334,1,4814.899999991059,168203.80000001192,8015,WL,C,3.0
1,49.18400001525879,learn,10815.999984741211,Tue Jan 28 2025 13:16:35 GMT-0600 (Central Standard Time),173785.20000000298,A,c,I,c,744,1,766.0999999940395,173019.10000000894,8015,WL,C,4.0
1,49.31699991226196,learn,10683.000087738037,Tue Jan 28 2025 13:16:35 GMT-0600 (Central Standard Time),173918.40000000596,A,ca,I,a,121,1,899.2999999970198,173019.10000000894,8015,WL,C,4.0
1,49.44999980926514,learn,10550.000190734863,Tue Jan 28 2025 13:16:35 GMT-0600 (Central Standard Time),174051.40000000596,A,cam,I,m,125,1,1032.2999999970198,173019.10000000894,8015,WL,C,4.0
1,49.650999784469604,learn,10349.000215530396,Tue Jan 28 2025 13:16:35 GMT-0600 (Central Standard Time),174251.60000000894,A,camp,I,p,183,1,1232.5,173019.10000000894,8015,WL,C,4.0
1,50.06699991226196,learn,9933.000087738037,Tue Jan 28 2025 13:16:35 GMT-0600 (Central Standard Time),174668.20000000298,A,campenter,I,enter,399,1,1649.0999999940395,173019.10000000894,8015,WL,C,4.0
1,51.14999985694885,learn,8850.000143051147,Tue Jan 28 2025 13:16:35 GMT-0600 (Central Standard Time),175751.10000000894,A,s,I,s,1062,1,1082.5,174668.60000000894,8015,WL,C,5.0
1,51.28399991989136,learn,8716.000080108643,Tue Jan 28 2025 13:16:35 GMT-0600 (Central Standard Time),175884.60000000894,A,su,I,u,123,1,1216.0,174668.60000000894,8015,WL,C,5.0
1,51.632999897003174,learn,8367.000102996826,Tue Jan 28 2025 13:16:35 GMT-0600 (Central Standard Time),176234.20000000298,A,suf,I,f,326,1,1565.5999999940395,174668.60000000894,8015,WL,C,5.0
1,52.46599984169006,learn,7534.0001583099365,Tue Jan 28 2025 13:16:35 GMT-0600 (Central Standard Time),177067.80000001192,A,su,I,backspace,817,1,2399.2000000029802,174668.60000000894,8015,WL,C,5.0
1,52.615999937057495,learn,7384.000062942505,Tue Jan 28 2025 13:16:35 GMT-0600 (Central Standard Time),177217.5,A,sug,I,g,127,1,2548.8999999910593,174668.60000000894,8015,WL,C,5.0
1,52.79899978637695,learn,7201.000213623047,Tue Jan 28 2025 13:16:35 GMT-0600 (Central Standard Time),177400.60000000894,A,suga,I,a,162,1,2732.0,174668.60000000894,8015,WL,C,5.0
1,52.99899983406067,learn,7001.000165939331,Tue Jan 28 2025 13:16:35 GMT-0600 (Central Standard Time),177600.70000000298,A,sugar,I,r,186,1,2932.0999999940395,174668.60000000894,8015,WL,C,5.0
1,53.598999977111816,learn,6401.000022888184,Tue Jan 28 2025 13:16:35 GMT-0600 (Central Standard Time),178200.5,A,sugarb,I,b,586,1,3531.8999999910593,174668.60000000894,8015,WL,C,5.0
1,54.3989999294281,learn,5601.000070571899,Tue Jan 28 2025 13:16:35 GMT-0600 (Central Standard Time),179000.20000000298,A,sugar,I,backspace,787,1,4331.5999999940395,174668.60000000894,8015,WL,C,5.0
1,54.73199987411499,learn,5268.00012588501,Tue Jan 28 2025 13:16:35 GMT-0600 (Central Standard Time),179333.40000000596,A,sugarenter,I,enter,314,1,4664.79999999702,174668.60000000894,8015,WL,C,5.0
1,55.281999826431274,learn,4718.000173568726,Tue Jan 28 2025 13:16:35 GMT-0600 (Central Standard Time),179883.20000000298,A,b,I,b,533,1,549.3999999910593,179333.80000001192,8015,WL,C,6.0
1,56.74799990653992,learn,3252.000093460083,Tue Jan 28 2025 13:16:35 GMT-0600 (Central Standard Time),181349.30000001192,A,bo,I,o,1454,1,2015.5,179333.80000001192,8015,WL,C,6.0
1,57.03099989891052,learn,2969.0001010894775,Tue Jan 28 2025 13:16:35 GMT-0600 (Central Standard Time),181632.70000000298,A,boy,I,y,268,1,2298.8999999910593,179333.80000001192,8015,WL,C,6.0
1,58.098999977111816,learn,1901.0000228881836,Tue Jan 28 2025 13:16:35 GMT-0600 (Central Standard Time),182700.10000000894,A,boyenter,I,enter,1058,1,3366.2999999970198,179333.80000001192,8015,WL,C,6.0
1,58.46399998664856,learn,1536.0000133514404,Tue Jan 28 2025 13:16:35 GMT-0600 (Central Standard Time),183065.40000000596,A,f,I,f,350,1,365.0,182700.40000000596,8015,WL,C,7.0
1,58.663999795913696,learn,1336.0002040863037,Tue Jan 28 2025 13:16:35 GMT-0600 (Central Standard Time),183265.40000000596,A,fl,I,l,185,1,565.0,182700.40000000596,8015,WL,C,7.0
1,59.263999938964844,learn,736.0000610351562,Tue Jan 28 2025 13:16:35 GMT-0600 (Central Standard Time),183865.30000001192,A,fly,I,y,577,1,1164.9000000059605,182700.40000000596,8015,WL,C,7.0
1,60.013999938964844,learn,-13.99993896484375,Tue Jan 28 2025 13:16:35 GMT-0600 (Central Standard Time),184615.30000001192,A,flyNone,I,None,742,1,1914.9000000059605,182700.40000000596,8015,WL,C,7.0
2,2.3499999046325684,learn,57650.00009536743,Tue Jan 28 2025 13:16:35 GMT-0600 (Central Standard Time),255926.20000000298,A,w,I,w,2330,1,2349.3999999910593,253576.80000001192,8015,WL,C,1.0
2,2.5329999923706055,learn,57467.000007629395,Tue Jan 28 2025 13:16:35 GMT-0600 (Central Standard Time),256109.40000000596,A,wh,I,h,164,1,2532.5999999940395,253576.80000001192,8015,WL,C,1.0
2,2.7829999923706055,learn,57217.000007629395,Tue Jan 28 2025 13:16:35 GMT-0600 (Central Standard Time),256359.30000001192,A,whe,I,e,229,1,2782.5,253576.80000001192,8015,WL,C,1.0
2,3.3489999771118164,learn,56651.00002288818,Tue Jan 28 2025 13:16:35 GMT-0600 (Central Standard Time),256925.80000001192,A,whea,I,a,547,1,3349.0,253576.80000001192,8015,WL,C,1.0
2,3.6659998893737793,learn,56334.00011062622,Tue Jan 28 2025 13:16:35 GMT-0600 (Central Standard Time),257242.30000001192,A,wheat,I,t,301,1,3665.5,253576.80000001192,8015,WL,C,1.0
2,4.515000104904175,learn,55484.999895095825,Tue Jan 28 2025 13:16:35 GMT-0600 (Central Standard Time),258092.10000000894,A,wheatenter,I,enter,832,1,4515.29999999702,253576.80000001192,8015,WL,C,1.0
2,7.5309998989105225,learn,52469.00010108948,Tue Jan 28 2025 13:16:35 GMT-0600 (Central Standard Time),261107.40000000596,A,q,I,q,2999,1,3014.9000000059605,258092.5,8015,WL,C,2.0
2,7.730999946594238,learn,52269.00005340576,Tue Jan 28 2025 13:16:35 GMT-0600 (Central Standard Time),261307.60000000894,A,qu,I,u,180,1,3215.1000000089407,258092.5,8015,WL,C,2.0
2,7.898000001907349,learn,52101.99999809265,Tue Jan 28 2025 13:16:35 GMT-0600 (Central Standard Time),261474.20000000298,A,que,I,e,153,1,3381.7000000029802,258092.5,8015,WL,C,2.0
2,8.21399998664856,learn,51786.00001335144,Tue Jan 28 2025 13:16:35 GMT-0600 (Central Standard Time),261790.80000001192,A,quee,I,e,305,1,3698.300000011921,258092.5,8015,WL,C,2.0
2,8.414000034332275,learn,51585.999965667725,Tue Jan 28 2025 13:16:35 GMT-0600 (Central Standard Time),261990.80000001192,A,queen,I,n,187,1,3898.300000011921,258092.5,8015,WL,C,2.0
2,8.831000089645386,learn,51168.999910354614,Tue Jan 28 2025 13:16:35 GMT-0600 (Central Standard Time),262407.40000000596,A,queenenter,I,enter,396,1,4314.9000000059605,258092.5,8015,WL,C,2.0
2,9.263999938964844,learn,50736.000061035156,Tue Jan 28 2025 13:16:35 GMT-0600 (Central Standard Time),262840.60000000894,A,t,I,t,412,1,433.0,262407.60000000894,8015,WL,C,3.0
2,9.38100004196167,learn,50618.99995803833,Tue Jan 28 2025 13:16:35 GMT-0600 (Central Standard Time),262957.40000000596,A,to,I,o,107,1,549.7999999970198,262407.60000000894,8015,WL,C,3.0
2,9.614000082015991,learn,50385.99991798401,Tue Jan 28 2025 13:16:35 GMT-0600 (Central Standard Time),263190.5,A,tow,I,w,222,1,782.8999999910593,262407.60000000894,8015,WL,C,3.0
2,9.88100004196167,learn,50118.99995803833,Tue Jan 28 2025 13:16:35 GMT-0600 (Central Standard Time),263457.10000000894,A,towe,I,e,252,1,1049.5,262407.60000000894,8015,WL,C,3.0
2,10.096999883651733,learn,49903.00011634827,Tue Jan 28 2025 13:16:35 GMT-0600 (Central Standard Time),263673.700000003,A,tower,I,r,203,1,1266.0999999940395,262407.60000000894,8015,WL,C,3.0
2,10.596999883651733,learn,49403.00011634827,Tue Jan 28 2025 13:16:35 GMT-0600 (Central Standard Time),264173.5,A,towerenter,I,enter,490,1,1765.8999999910593,262407.60000000894,8015,WL,C,3.0
2,11.763000011444092,learn,48236.99998855591,Tue Jan 28 2025 13:16:35 GMT-0600 (Central Standard Time),265339.700000003,A,c,I,c,1157,1,1165.7999999970198,264173.90000000596,8015,WL,C,4.0
2,11.913000106811523,learn,48086.99989318848,Tue Jan 28 2025 13:16:35 GMT-0600 (Central Standard Time),265489.5,A,ca,I,a,135,1,1315.5999999940395,264173.90000000596,8015,WL,C,4.0
2,12.02999997138977,learn,47970.00002861023,Tue Jan 28 2025 13:16:35 GMT-0600 (Central Standard Time),265606.40000000596,A,cam,I,m,105,1,1432.5,264173.90000000596,8015,WL,C,4.0
2,12.263000011444092,learn,47736.99998855591,Tue Jan 28 2025 13:16:35 GMT-0600 (Central Standard Time),265839.5,A,camp,I,p,212,1,1665.5999999940395,264173.90000000596,8015,WL,C,4.0
2,12.663000106811523,learn,47336.99989318848,Tue Jan 28 2025 13:16:35 GMT-0600 (Central Standard Time),266239.700000003,A,campenter,I,enter,379,1,2065.7999999970198,264173.90000000596,8015,WL,C,4.0
2,13.279000043869019,learn,46720.99995613098,Tue Jan 28 2025 13:16:35 GMT-0600 (Central Standard Time),266856.0,A,f,I,f,595,1,616.0,266240.0,8015,WL,C,5.0
2,13.496000051498413,learn,46503.99994850159,Tue Jan 28 2025 13:16:35 GMT-0600 (Central Standard Time),267072.60000000894,A,fl,I,l,203,1,832.6000000089407,266240.0,8015,WL,C,5.0
2,13.946000099182129,learn,46053.99990081787,Tue Jan 28 2025 13:16:35 GMT-0600 (Central Standard Time),267522.60000000894,A,fla,I,a,426,1,1282.6000000089407,266240.0,8015,WL,C,5.0
2,14.178999900817871,learn,45821.00009918213,Tue Jan 28 2025 13:16:35 GMT-0600 (Central Standard Time),267755.700000003,A,flag,I,g,225,1,1515.7000000029802,266240.0,8015,WL,C,5.0
2,14.861999988555908,learn,45138.00001144409,Tue Jan 28 2025 13:16:35 GMT-0600 (Central Standard Time),268438.8000000119,A,flagenter,I,enter,663,1,2198.800000011921,266240.0,8015,WL,C,5.0
2,15.444999933242798,learn,44555.0000667572,Tue Jan 28 2025 13:16:35 GMT-0600 (Central Standard Time),269022.0,A,h,I,h,572,1,582.8999999910593,268439.10000000894,8015,WL,C,6.0
2,15.661999940872192,learn,44338.00005912781,Tue Jan 28 2025 13:16:35 GMT-0600 (Central Standard Time),269238.5,A,ho,I,o,196,1,799.3999999910593,268439.10000000894,8015,WL,C,6.0
2,15.861999988555908,learn,44138.00001144409,Tue Jan 28 2025 13:16:35 GMT-0600 (Central Standard Time),269438.60000000894,A,hom,I,m,187,1,999.5,268439.10000000894,8015,WL,C,6.0
2,16.027999877929688,learn,43972.00012207031,Tue Jan 28 2025 13:16:35 GMT-0600 (Central Standard Time),269605.10000000894,A,home,I,e,148,1,1166.0,268439.10000000894,8015,WL,C,6.0
2,16.57800006866455,learn,43421.99993133545,Tue Jan 28 2025 13:16:35 GMT-0600 (Central Standard Time),270155.0,A,homeenter,I,enter,526,1,1715.8999999910593,268439.10000000894,8015,WL,C,6.0
2,16.894999980926514,learn,43105.000019073486,Tue Jan 28 2025 13:16:35 GMT-0600 (Central Standard Time),270471.60000000894,A,b,I,b,296,1,316.29999999701977,270155.3000000119,8015,WL,C,7.0
2,17.062000036239624,learn,42937.999963760376,Tue Jan 28 2025 13:16:35 GMT-0600 (Central Standard Time),270638.10000000894,A,bo,I,o,155,1,482.79999999701977,270155.3000000119,8015,WL,C,7.0
2,17.41100001335144,learn,42588.99998664856,Tue Jan 28 2025 13:16:35 GMT-0600 (Central Standard Time),270987.700000003,A,boy,I,y,332,1,832.3999999910593,270155.3000000119,8015,WL,C,7.0
2,17.92799997329712,learn,42072.00002670288,Tue Jan 28 2025 13:16:35 GMT-0600 (Central Standard Time),271504.40000000596,A,boyenter,I,enter,503,1,1349.0999999940395,270155.3000000119,8015,WL,C,7.0
2,18.295000076293945,learn,41704.999923706055,Tue Jan 28 2025 13:16:35 GMT-0600 (Central Standard Time),271871.200000003,A,b,I,b,354,1,366.5,271504.700000003,8015,WL,C,8.0
2,18.494999885559082,learn,41505.00011444092,Tue Jan 28 2025 13:16:35 GMT-0600 (Central Standard Time),272071.10000000894,A,bo,I,o,180,1,566.4000000059605,271504.700000003,8015,WL,C,8.0
2,18.76099991798401,learn,41239.00008201599,Tue Jan 28 2025 13:16:35 GMT-0600 (Central Standard Time),272337.700000003,A,bod,I,d,251,1,833.0,271504.700000003,8015,WL,C,8.0
2,18.977999925613403,learn,41022.0000743866,Tue Jan 28 2025 13:16:35 GMT-0600 (Central Standard Time),272554.3000000119,A,body,I,y,193,1,1049.6000000089407,271504.700000003,8015,WL,C,8.0
2,19.844000101089478,learn,40155.99989891052,Tue Jan 28 2025 13:16:35 GMT-0600 (Central Standard Time),273420.60000000894,A,bodyenter,I,enter,856,1,1915.9000000059605,271504.700000003,8015,WL,C,8.0
2,22.47699999809265,learn,37523.00000190735,Tue Jan 28 2025 13:16:35 GMT-0600 (Central Standard Time),276053.200000003,A,c,I,c,2623,1,2632.2000000029802,273421.0,8015,WL,C,9.0
2,22.710000038146973,learn,37289.99996185303,Tue Jan 28 2025 13:16:35 GMT-0600 (Central Standard Time),276286.3000000119,A,ca,I,a,221,1,2865.300000011921,273421.0,8015,WL,C,9.0
2,22.993000030517578,learn,37006.99996948242,Tue Jan 28 2025 13:16:35 GMT-0600 (Central Standard Time),276569.8000000119,A,cat,I,t,261,1,3148.800000011921,273421.0,8015,WL,C,9.0
2,23.14299988746643,learn,36857.00011253357,Tue Jan 28 2025 13:16:35 GMT-0600 (Central Standard Time),276719.40000000596,A,catt,I,t,129,1,3298.4000000059605,273421.0,8015,WL,C,9.0
2,23.325999975204468,learn,36674.00002479553,Tue Jan 28 2025 13:16:35 GMT-0600 (Central Standard Time),276902.8000000119,A,cattl,I,l,171,1,3481.800000011921,273421.0,8015,WL,C,9.0
2,23.45900011062622,learn,36540.99988937378,Tue Jan 28 2025 13:16:35 GMT-0600 (Central Standard Time),277036.10000000894,A,cattle,I,e,124,1,3615.1000000089407,273421.0,8015,WL,C,9.0
2,23.759999990463257,learn,36240.00000953674,Tue Jan 28 2025 13:16:35 GMT-0600 (Central Standard Time),277336.3000000119,A,cattleenter,I,enter,287,1,3915.300000011921,273421.0,8015,WL,C,9.0
2,30.141000032424927,learn,29858.999967575073,Tue Jan 28 2025 13:16:35 GMT-0600 (Central Standard Time),283717.40000000596,A,s,I,s,6363,1,6380.70000000298,277336.700000003,8015,WL,C,10.0
2,30.323999881744385,learn,29676.000118255615,Tue Jan 28 2025 13:16:35 GMT-0600 (Central Standard Time),283900.60000000894,A,su,I,u,164,1,6563.9000000059605,277336.700000003,8015,WL,C,10.0
2,31.006999969482422,learn,28993.000030517578,Tue Jan 28 2025 13:16:35 GMT-0600 (Central Standard Time),284583.60000000894,A,sua,I,a,670,1,7246.9000000059605,277336.700000003,8015,WL,C,10.0
2,31.94000005722046,learn,28059.99994277954,Tue Jan 28 2025 13:16:35 GMT-0600 (Central Standard Time),285516.8000000119,A,su,I,backspace,912,1,8180.100000008941,277336.700000003,8015,WL,C,10.0
2,32.90700006484985,learn,27092.999935150146,Tue Jan 28 2025 13:16:35 GMT-0600 (Central Standard Time),286483.3000000119,A,sug,I,g,950,1,9146.60000000894,277336.700000003,8015,WL,C,10.0
2,33.12400007247925,learn,26875.999927520752,Tue Jan 28 2025 13:16:35 GMT-0600 (Central Standard Time),286700.8000000119,A,suga,I,a,207,1,9364.10000000894,277336.700000003,8015,WL,C,10.0
2,33.33999991416931,learn,26660.00008583069,Tue Jan 28 2025 13:16:35 GMT-0600 (Central Standard Time),286916.40000000596,A,sugar,I,r,197,1,9579.70000000298,277336.700000003,8015,WL,C,10.0
2,33.640000104904175,learn,26359.999895095825,Tue Jan 28 2025 13:16:35 GMT-0600 (Central Standard Time),287216.200000003,A,sugarenter,I,enter,286,1,9879.5,277336.700000003,8015,WL,C,10.0
2,46.986000061035156,learn,13013.999938964844,Tue Jan 28 2025 13:16:35 GMT-0600 (Central Standard Time),300563.200000003,A,enter,I,enter,13330,1,13346.59999999404,287216.60000000894,8015,WL,C,11.0
2,47.85199999809265,learn,12148.000001907349,Tue Jan 28 2025 13:16:35 GMT-0600 (Central Standard Time),301428.40000000596,A,enter,I,enter,855,1,864.7999999970198,300563.60000000894,8015,WL,C,12.0
2,48.53500008583069,learn,11464.999914169312,Tue Jan 28 2025 13:16:35 GMT-0600 (Central Standard Time),302111.5,A,enter,I,enter,662,1,682.6999999880791,301428.8000000119,8015,WL,C,13.0
2,49.20099997520447,learn,10799.000024795532,Tue Jan 28 2025 13:16:35 GMT-0600 (Central Standard Time),302777.90000000596,A,enter,I,enter,651,1,666.0,302111.90000000596,8015,WL,C,14.0
2,49.78399991989136,learn,10216.000080108643,Tue Jan 28 2025 13:16:35 GMT-0600 (Central Standard Time),303361.3000000119,A,enter,I,enter,569,1,583.1000000089407,302778.200000003,8015,WL,C,15.0
3,1.3990001678466797,learn,58600.99983215332,Tue Jan 28 2025 13:16:35 GMT-0600 (Central Standard Time),371556.60000000894,A,t,I,t,1382,1,1399.6000000089407,370157.0,8015,WL,C,1.0
3,1.633000135421753,learn,58366.99986457825,Tue Jan 28 2025 13:16:35 GMT-0600 (Central Standard Time),371789.8000000119,A,to,I,o,221,1,1632.800000011921,370157.0,8015,WL,C,1.0
3,1.8489999771118164,learn,58151.00002288818,Tue Jan 28 2025 13:16:35 GMT-0600 (Central Standard Time),372006.40000000596,A,tow,I,w,204,1,1849.4000000059605,370157.0,8015,WL,C,1.0
3,2.0989999771118164,learn,57901.00002288818,Tue Jan 28 2025 13:16:35 GMT-0600 (Central Standard Time),372256.5,A,towe,I,e,236,1,2099.5,370157.0,8015,WL,C,1.0
3,2.3320000171661377,learn,57667.99998283386,Tue Jan 28 2025 13:16:35 GMT-0600 (Central Standard Time),372489.5,A,tower,I,r,210,1,2332.5,370157.0,8015,WL,C,1.0
3,3.1490001678466797,learn,56850.99983215332,Tue Jan 28 2025 13:16:35 GMT-0600 (Central Standard Time),373306.0,A,towerenter,I,enter,801,1,3149.0,370157.0,8015,WL,C,1.0
3,4.7820000648498535,learn,55217.99993515015,Tue Jan 28 2025 13:16:35 GMT-0600 (Central Standard Time),374938.700000003,A,w,I,w,1610,1,1632.3999999910593,373306.3000000119,8015,WL,C,2.0
3,4.898000001907349,learn,55101.99999809265,Tue Jan 28 2025 13:16:35 GMT-0600 (Central Standard Time),375055.40000000596,A,wh,I,h,96,1,1749.0999999940395,373306.3000000119,8015,WL,C,2.0
3,5.04800009727478,learn,54951.99990272522,Tue Jan 28 2025 13:16:35 GMT-0600 (Central Standard Time),375205.60000000894,A,whe,I,e,131,1,1899.2999999970198,373306.3000000119,8015,WL,C,2.0
3,5.232000112533569,learn,54767.99988746643,Tue Jan 28 2025 13:16:35 GMT-0600 (Central Standard Time),375388.60000000894,A,whea,I,a,173,1,2082.2999999970198,373306.3000000119,8015,WL,C,2.0
3,5.465000152587891,learn,54534.99984741211,Tue Jan 28 2025 13:16:35 GMT-0600 (Central Standard Time),375621.90000000596,A,wheat,I,t,214,1,2315.5999999940395,373306.3000000119,8015,WL,C,2.0
3,5.8480000495910645,learn,54151.999950408936,Tue Jan 28 2025 13:16:35 GMT-0600 (Central Standard Time),376005.10000000894,A,wheatenter,I,enter,373,1,2698.7999999970198,373306.3000000119,8015,WL,C,2.0
3,7.281000137329102,learn,52718.9998626709,Tue Jan 28 2025 13:16:35 GMT-0600 (Central Standard Time),377438.0,A,s,I,s,1413,1,1432.5,376005.5,8015,WL,C,3.0
3,7.414000034332275,learn,52585.999965667725,Tue Jan 28 2025 13:16:35 GMT-0600 (Central Standard Time),377571.40000000596,A,su,I,u,118,1,1565.9000000059605,376005.5,8015,WL,C,3.0
3,7.63100004196167,learn,52368.99995803833,Tue Jan 28 2025 13:16:35 GMT-0600 (Central Standard Time),377787.90000000596,A,sug,I,g,207,1,1782.4000000059605,376005.5,8015,WL,C,3.0
3,7.864000082015991,learn,52135.99991798401,Tue Jan 28 2025 13:16:35 GMT-0600 (Central Standard Time),378021.40000000596,A,suga,I,a,214,1,2015.9000000059605,376005.5,8015,WL,C,3.0
3,8.064000129699707,learn,51935.99987030029,Tue Jan 28 2025 13:16:35 GMT-0600 (Central Standard Time),378221.3000000119,A,sugar,I,r,181,1,2215.800000011921,376005.5,8015,WL,C,3.0
3,8.699000120162964,learn,51300.999879837036,Tue Jan 28 2025 13:16:35 GMT-0600 (Central Standard Time),378856.5,A,sugarenter,I,enter,621,1,2851.0,376005.5,8015,WL,C,3.0
3,9.380000114440918,learn,50619.99988555908,Tue Jan 28 2025 13:16:35 GMT-0600 (Central Standard Time),379537.5,A,b,I,b,667,1,680.5999999940395,378856.90000000596,8015,WL,C,4.0
3,10.77999997138977,learn,49220.00002861023,Tue Jan 28 2025 13:16:35 GMT-0600 (Central Standard Time),380937.0,A,bo,I,o,1385,1,2080.0999999940395,378856.90000000596,8015,WL,C,4.0
3,11.562999963760376,learn,48437.000036239624,Tue Jan 28 2025 13:16:35 GMT-0600 (Central Standard Time),381720.0,A,bod,I,d,770,1,2863.0999999940395,378856.90000000596,8015,WL,C,4.0
3,11.830000162124634,learn,48169.999837875366,Tue Jan 28 2025 13:16:35 GMT-0600 (Central Standard Time),381986.700000003,A,body,I,y,258,1,3129.7999999970198,378856.90000000596,8015,WL,C,4.0
3,12.26200008392334,learn,47737.99991607666,Tue Jan 28 2025 13:16:35 GMT-0600 (Central Standard Time),382419.5,A,bodyenter,I,enter,425,1,3562.5999999940395,378856.90000000596,8015,WL,C,4.0
3,12.729000091552734,learn,47270.999908447266,Tue Jan 28 2025 13:16:35 GMT-0600 (Central Standard Time),382886.3000000119,A,h,I,h,455,1,466.6000000089407,382419.700000003,8015,WL,C,5.0
3,12.92900013923645,learn,47070.99986076355,Tue Jan 28 2025 13:16:35 GMT-0600 (Central Standard Time),383086.3000000119,A,ho,I,o,189,1,666.6000000089407,382419.700000003,8015,WL,C,5.0
3,13.162000179290771,learn,46837.99982070923,Tue Jan 28 2025 13:16:35 GMT-0600 (Central Standard Time),383319.5,A,hom,I,m,220,1,899.7999999970198,382419.700000003,8015,WL,C,5.0
3,13.345999956130981,learn,46654.00004386902,Tue Jan 28 2025 13:16:35 GMT-0600 (Central Standard Time),383502.8000000119,A,home,I,e,163,1,1083.1000000089407,382419.700000003,8015,WL,C,5.0
3,14.246000051498413,learn,45753.99994850159,Tue Jan 28 2025 13:16:35 GMT-0600 (Central Standard Time),384402.700000003,A,homeenter,I,enter,891,1,1983.0,382419.700000003,8015,WL,C,5.0
3,16.07800006866455,learn,43921.99993133545,Tue Jan 28 2025 13:16:35 GMT-0600 (Central Standard Time),386235.40000000596,A,q,I,q,1816,1,1832.5,384402.90000000596,8015,WL,C,6.0
3,16.278000116348267,learn,43721.99988365173,Tue Jan 28 2025 13:16:35 GMT-0600 (Central Standard Time),386435.10000000894,A,qu,I,u,184,1,2032.2000000029802,384402.90000000596,8015,WL,C,6.0
3,16.41100001335144,learn,43588.99998664856,Tue Jan 28 2025 13:16:35 GMT-0600 (Central Standard Time),386568.40000000596,A,que,I,e,120,1,2165.5,384402.90000000596,8015,WL,C,6.0
3,16.695000171661377,learn,43304.99982833862,Tue Jan 28 2025 13:16:35 GMT-0600 (Central Standard Time),386851.700000003,A,quee,I,e,266,1,2448.7999999970198,384402.90000000596,8015,WL,C,6.0
3,16.91100001335144,learn,43088.99998664856,Tue Jan 28 2025 13:16:35 GMT-0600 (Central Standard Time),387068.40000000596,A,queen,I,n,208,1,2665.5,384402.90000000596,8015,WL,C,6.0
3,17.311000108718872,learn,42688.99989128113,Tue Jan 28 2025 13:16:35 GMT-0600 (Central Standard Time),387468.3000000119,A,queenenter,I,enter,383,1,3065.4000000059605,384402.90000000596,8015,WL,C,6.0
3,19.89400005340576,learn,40105.99994659424,Tue Jan 28 2025 13:16:35 GMT-0600 (Central Standard Time),390050.700000003,A,f,I,f,2574,1,2582.0999999940395,387468.60000000894,8015,WL,C,7.0
3,20.14400005340576,learn,39855.99994659424,Tue Jan 28 2025 13:16:35 GMT-0600 (Central Standard Time),390300.60000000894,A,fl,I,l,232,1,2832.0,387468.60000000894,8015,WL,C,7.0
3,20.31000018119812,learn,39689.99981880188,Tue Jan 28 2025 13:16:35 GMT-0600 (Central Standard Time),390467.10000000894,A,fla,I,a,158,1,2998.5,387468.60000000894,8015,WL,C,7.0
3,20.64300012588501,learn,39356.99987411499,Tue Jan 28 2025 13:16:35 GMT-0600 (Central Standard Time),390800.60000000894,A,flag,I,g,320,1,3332.0,387468.60000000894,8015,WL,C,7.0
3,21.593000173568726,learn,38406.999826431274,Tue Jan 28 2025 13:16:35 GMT-0600 (Central Standard Time),391750.200000003,A,flagenter,I,enter,938,1,4281.5999999940395,387468.60000000894,8015,WL,C,7.0
3,23.075999975204468,learn,36924.00002479553,Tue Jan 28 2025 13:16:35 GMT-0600 (Central Standard Time),393233.10000000894,A,c,I,c,1470,1,1482.5,391750.60000000894,8015,WL,C,8.0
3,23.259000062942505,learn,36740.999937057495,Tue Jan 28 2025 13:16:35 GMT-0600 (Central Standard Time),393416.5,A,ca,I,a,169,1,1665.8999999910593,391750.60000000894,8015,WL,C,8.0
3,23.493000030517578,learn,36506.99996948242,Tue Jan 28 2025 13:16:35 GMT-0600 (Central Standard Time),393649.8000000119,A,cat,I,t,218,1,1899.2000000029802,391750.60000000894,8015,WL,C,8.0
3,23.62600016593933,learn,36373.99983406067,Tue Jan 28 2025 13:16:35 GMT-0600 (Central Standard Time),393782.90000000596,A,catt,I,t,121,1,2032.2999999970198,391750.60000000894,8015,WL,C,8.0
3,23.79200005531311,learn,36207.99994468689,Tue Jan 28 2025 13:16:35 GMT-0600 (Central Standard Time),393949.5,A,cattl,I,l,148,1,2198.8999999910593,391750.60000000894,8015,WL,C,8.0
3,23.926000118255615,learn,36073.999881744385,Tue Jan 28 2025 13:16:35 GMT-0600 (Central Standard Time),394082.700000003,A,cattle,I,e,125,1,2332.0999999940395,391750.60000000894,8015,WL,C,8.0
3,24.426000118255615,learn,35573.999881744385,Tue Jan 28 2025 13:16:35 GMT-0600 (Central Standard Time),394582.700000003,A,cattleenter,I,enter,480,1,2832.0999999940395,391750.60000000894,8015,WL,C,8.0
3,24.79200005531311,learn,35207.99994468689,Tue Jan 28 2025 13:16:35 GMT-0600 (Central Standard Time),394949.3000000119,A,c,I,c,348,1,366.1000000089407,394583.200000003,8015,WL,C,9.0
3,24.95900011062622,learn,35040.99988937378,Tue Jan 28 2025 13:16:35 GMT-0600 (Central Standard Time),395115.8000000119,A,co,I,o,157,1,532.6000000089407,394583.200000003,8015,WL,C,9.0
3,25.174999952316284,learn,34825.000047683716,Tue Jan 28 2025 13:16:35 GMT-0600 (Central Standard Time),395332.10000000894,A,cor,I,r,199,1,748.9000000059605,394583.200000003,8015,WL,C,9.0
3,25.424999952316284,learn,34575.000047683716,Tue Jan 28 2025 13:16:35 GMT-0600 (Central Standard Time),395582.40000000596,A,corn,I,n,231,1,999.2000000029802,394583.200000003,8015,WL,C,9.0
3,27.241000175476074,learn,32758.999824523926,Tue Jan 28 2025 13:16:35 GMT-0600 (Central Standard Time),397398.60000000894,A,cornh,I,h,1797,1,2815.4000000059605,394583.200000003,8015,WL,C,9.0
3,27.45800018310547,learn,32541.99981689453,Tue Jan 28 2025 13:16:35 GMT-0600 (Central Standard Time),397615.10000000894,A,cornho,I,o,204,1,3031.9000000059605,394583.200000003,8015,WL,C,9.0
3,27.70800018310547,learn,32291.99981689453,Tue Jan 28 2025 13:16:35 GMT-0600 (Central Standard Time),397865.0,A,cornhom,I,m,237,1,3281.7999999970198,394583.200000003,8015,WL,C,9.0
3,27.841000080108643,learn,32158.999919891357,Tue Jan 28 2025 13:16:35 GMT-0600 (Central Standard Time),397998.5,A,cornhome,I,e,114,1,3415.2999999970198,394583.200000003,8015,WL,C,9.0
3,28.44099998474121,learn,31559.00001525879,Tue Jan 28 2025 13:16:35 GMT-0600 (Central Standard Time),398598.0,A,cornhom,I,backspace,580,1,4014.7999999970198,394583.200000003,8015,WL,C,9.0
3,28.591000080108643,learn,31408.999919891357,Tue Jan 28 2025 13:16:35 GMT-0600 (Central Standard Time),398748.0,A,cornho,I,backspace,133,1,4164.79999999702,394583.200000003,8015,WL,C,9.0
3,28.758000135421753,learn,31241.999864578247,Tue Jan 28 2025 13:16:35 GMT-0600 (Central Standard Time),398914.90000000596,A,cornh,I,backspace,159,1,4331.70000000298,394583.200000003,8015,WL,C,9.0
3,28.94099998474121,learn,31059.00001525879,Tue Jan 28 2025 13:16:35 GMT-0600 (Central Standard Time),399097.90000000596,A,corn,I,backspace,168,1,4514.70000000298,394583.200000003,8015,WL,C,9.0
3,29.407999992370605,learn,30592.000007629395,Tue Jan 28 2025 13:16:35 GMT-0600 (Central Standard Time),399564.700000003,A,cornenter,I,enter,456,1,4981.5,394583.200000003,8015,WL,C,9.0
3,29.84000015258789,learn,30159.99984741211,Tue Jan 28 2025 13:16:35 GMT-0600 (Central Standard Time),399997.60000000894,A,h,I,h,423,1,432.6000000089407,399565.0,8015,WL,C,10.0
3,30.057000160217285,learn,29942.999839782715,Tue Jan 28 2025 13:16:35 GMT-0600 (Central Standard Time),400214.200000003,A,ho,I,o,197,1,649.2000000029802,399565.0,8015,WL,C,10.0
3,30.256999969482422,learn,29743.000030517578,Tue Jan 28 2025 13:16:35 GMT-0600 (Central Standard Time),400414.200000003,A,hom,I,m,189,1,849.2000000029802,399565.0,8015,WL,C,10.0
3,30.407000064849854,learn,29592.999935150146,Tue Jan 28 2025 13:16:35 GMT-0600 (Central Standard Time),400564.200000003,A,home,I,e,132,1,999.2000000029802,399565.0,8015,WL,C,10.0
3,31.69000005722046,learn,28309.99994277954,Tue Jan 28 2025 13:16:35 GMT-0600 (Central Standard Time),401847.0,A,homeb,I,b,1262,1,2282.0,399565.0,8015,WL,C,10.0
3,33.23900008201599,learn,26760.99991798401,Tue Jan 28 2025 13:16:35 GMT-0600 (Central Standard Time),403396.5,A,home,I,backspace,1539,1,3831.5,399565.0,8015,WL,C,10.0
3,34.456000089645386,learn,25543.999910354614,Tue Jan 28 2025 13:16:35 GMT-0600 (Central Standard Time),404612.90000000596,A,homeenter,I,enter,1207,1,5047.9000000059605,399565.0,8015,WL,C,10.0
3,35.90499997138977,learn,24095.00002861023,Tue Jan 28 2025 13:16:35 GMT-0600 (Central Standard Time),406062.40000000596,A,c,I,c,1438,1,1449.0999999940395,404613.3000000119,8015,WL,C,11.0
3,36.07200002670288,learn,23927.99997329712,Tue Jan 28 2025 13:16:35 GMT-0600 (Central Standard Time),406228.90000000596,A,ca,I,a,156,1,1615.5999999940395,404613.3000000119,8015,WL,C,11.0
3,36.33800005912781,learn,23661.999940872192,Tue Jan 28 2025 13:16:35 GMT-0600 (Central Standard Time),406495.60000000894,A,cat,I,t,246,1,1882.2999999970198,404613.3000000119,8015,WL,C,11.0
3,36.5220000743866,learn,23477.999925613403,Tue Jan 28 2025 13:16:35 GMT-0600 (Central Standard Time),406678.90000000596,A,catt,I,t,172,1,2065.5999999940395,404613.3000000119,8015,WL,C,11.0
3,36.687999963760376,learn,23312.000036239624,Tue Jan 28 2025 13:16:35 GMT-0600 (Central Standard Time),406845.3000000119,A,cattl,I,l,148,1,2232.0,404613.3000000119,8015,WL,C,11.0
3,36.855000019073486,learn,23144.999980926514,Tue Jan 28 2025 13:16:35 GMT-0600 (Central Standard Time),407012.200000003,A,cattle,I,e,157,1,2398.8999999910593,404613.3000000119,8015,WL,C,11.0
3,37.88800001144409,learn,22111.99998855591,Tue Jan 28 2025 13:16:35 GMT-0600 (Central Standard Time),408045.200000003,A,cattleenter,I,enter,1023,1,3431.8999999910593,404613.3000000119,8015,WL,C,11.0
3,55.932000160217285,learn,4067.999839782715,Tue Jan 28 2025 13:16:35 GMT-0600 (Central Standard Time),426089.200000003,A,s,I,s,18029,1,18043.79999999702,408045.40000000596,8015,WL,C,12.0
3,56.06500005722046,learn,3934.999942779541,Tue Jan 28 2025 13:16:35 GMT-0600 (Central Standard Time),426222.700000003,A,sh,I,h,121,1,18177.29999999702,408045.40000000596,8015,WL,C,12.0
3,56.29900002479553,learn,3700.999975204468,Tue Jan 28 2025 13:16:35 GMT-0600 (Central Standard Time),426456.10000000894,A,sho,I,o,220,1,18410.70000000298,408045.40000000596,8015,WL,C,12.0
3,56.54900002479553,learn,3450.999975204468,Tue Jan 28 2025 13:16:35 GMT-0600 (Central Standard Time),426706.0,A,shor,I,r,227,1,18660.59999999404,408045.40000000596,8015,WL,C,12.0
3,56.64900016784668,learn,3350.9998321533203,Tue Jan 28 2025 13:16:35 GMT-0600 (Central Standard Time),426806.0,A,shore,I,e,81,1,18760.59999999404,408045.40000000596,8015,WL,C,12.0
3,57.14900016784668,learn,2850.9998321533203,Tue Jan 28 2025 13:16:35 GMT-0600 (Central Standard Time),427305.90000000596,A,shoreenter,I,enter,485,1,19260.5,408045.40000000596,8015,WL,C,12.0
3,60.01400017738342,learn,-14.000177383422852,Tue Jan 28 2025 13:16:35 GMT-0600 (Central Standard Time),430171.700000003,A,None,I,None,2859,1,2865.5,427306.200000003,8015,WL,C,13.0
4,1.0,learn,59000.0,Tue Jan 28 2025 13:16:35 GMT-0600 (Central Standard Time),501066.3000000119,A,t,I,t,977,1,999.7000000029802,500066.60000000894,8015,WL,C,1.0
4,1.1659998893737793,learn,58834.00011062622,Tue Jan 28 2025 13:16:35 GMT-0600 (Central Standard Time),501232.60000000894,A,to,I,o,153,1,1166.0,500066.60000000894,8015,WL,C,1.0
4,1.498999834060669,learn,58501.00016593933,Tue Jan 28 2025 13:16:35 GMT-0600 (Central Standard Time),501565.8000000119,A,tow,I,w,314,1,1499.2000000029802,500066.60000000894,8015,WL,C,1.0
4,1.6989998817443848,learn,58301.000118255615,Tue Jan 28 2025 13:16:35 GMT-0600 (Central Standard Time),501765.90000000596,A,towe,I,e,189,1,1699.2999999970198,500066.60000000894,8015,WL,C,1.0
4,1.9159998893737793,learn,58084.00011062622,Tue Jan 28 2025 13:16:35 GMT-0600 (Central Standard Time),501982.5,A,tower,I,r,205,1,1915.8999999910593,500066.60000000894,8015,WL,C,1.0
4,2.3989999294281006,learn,57601.0000705719,Tue Jan 28 2025 13:16:35 GMT-0600 (Central Standard Time),502465.60000000894,A,towerenter,I,enter,468,1,2399.0,500066.60000000894,8015,WL,C,1.0
4,3.56499981880188,learn,56435.00018119812,Tue Jan 28 2025 13:16:35 GMT-0600 (Central Standard Time),503632.0,A,q,I,q,1145,1,1166.0,502466.0,8015,WL,C,2.0
4,3.7649998664855957,learn,56235.000133514404,Tue Jan 28 2025 13:16:35 GMT-0600 (Central Standard Time),503831.700000003,A,qu,I,u,185,1,1365.7000000029802,502466.0,8015,WL,C,2.0
4,3.9149999618530273,learn,56085.00003814697,Tue Jan 28 2025 13:16:35 GMT-0600 (Central Standard Time),503981.700000003,A,que,I,e,139,1,1515.7000000029802,502466.0,8015,WL,C,2.0
4,4.197999954223633,learn,55802.00004577637,Tue Jan 28 2025 13:16:35 GMT-0600 (Central Standard Time),504265.0,A,qued,I,d,261,1,1799.0,502466.0,8015,WL,C,2.0
4,4.365000009536743,learn,55634.99999046326,Tue Jan 28 2025 13:16:35 GMT-0600 (Central Standard Time),504431.60000000894,A,quedd,I,d,154,1,1965.6000000089407,502466.0,8015,WL,C,2.0
4,4.7829999923706055,learn,55217.000007629395,Tue Jan 28 2025 13:16:35 GMT-0600 (Central Standard Time),504849.200000003,A,qued,I,backspace,404,1,2383.2000000029802,502466.0,8015,WL,C,2.0
4,4.9649999141693115,learn,55035.00008583069,Tue Jan 28 2025 13:16:35 GMT-0600 (Central Standard Time),505031.60000000894,A,que,I,backspace,169,1,2565.6000000089407,502466.0,8015,WL,C,2.0
4,5.365000009536743,learn,54634.99999046326,Tue Jan 28 2025 13:16:35 GMT-0600 (Central Standard Time),505431.200000003,A,quee,I,e,388,1,2965.2000000029802,502466.0,8015,WL,C,2.0
4,5.615000009536743,learn,54384.99999046326,Tue Jan 28 2025 13:16:35 GMT-0600 (Central Standard Time),505681.3000000119,A,queen,I,n,227,1,3215.300000011921,502466.0,8015,WL,C,2.0
4,6.148000001907349,learn,53851.99999809265,Tue Jan 28 2025 13:16:35 GMT-0600 (Central Standard Time),506214.40000000596,A,queenenter,I,enter,523,1,3748.4000000059605,502466.0,8015,WL,C,2.0
4,7.813999891281128,learn,52186.00010871887,Tue Jan 28 2025 13:16:35 GMT-0600 (Central Standard Time),507880.700000003,A,s,I,s,1645,1,1665.8999999910593,506214.8000000119,8015,WL,C,3.0
4,7.947000026702881,learn,52052.99997329712,Tue Jan 28 2025 13:16:35 GMT-0600 (Central Standard Time),508014.0,A,su,I,u,122,1,1799.199999988079,506214.8000000119,8015,WL,C,3.0
4,8.146999835968018,learn,51853.00016403198,Tue Jan 28 2025 13:16:35 GMT-0600 (Central Standard Time),508213.60000000894,A,sug,I,g,181,1,1998.7999999970198,506214.8000000119,8015,WL,C,3.0
4,8.363999843597412,learn,51636.00015640259,Tue Jan 28 2025 13:16:35 GMT-0600 (Central Standard Time),508430.40000000596,A,suga,I,a,197,1,2215.5999999940395,506214.8000000119,8015,WL,C,3.0
4,8.563999891281128,learn,51436.00010871887,Tue Jan 28 2025 13:16:35 GMT-0600 (Central Standard Time),508630.40000000596,A,sugar,I,r,181,1,2415.5999999940395,506214.8000000119,8015,WL,C,3.0
4,9.429999828338623,learn,50570.00017166138,Tue Jan 28 2025 13:16:35 GMT-0600 (Central Standard Time),509496.60000000894,A,sugarenter,I,enter,844,1,3281.7999999970198,506214.8000000119,8015,WL,C,3.0
4,10.547999858856201,learn,49452.0001411438,Tue Jan 28 2025 13:16:35 GMT-0600 (Central Standard Time),510614.200000003,A,w,I,w,1107,1,1117.2999999970198,509496.90000000596,8015,WL,C,4.0
4,10.796000003814697,learn,49203.9999961853,Tue Jan 28 2025 13:16:35 GMT-0600 (Central Standard Time),510862.8000000119,A,wh,I,h,237,1,1365.9000000059605,509496.90000000596,8015,WL,C,4.0
4,10.94599986076355,learn,49054.00013923645,Tue Jan 28 2025 13:16:35 GMT-0600 (Central Standard Time),511012.8000000119,A,whe,I,e,132,1,1515.9000000059605,509496.90000000596,8015,WL,C,4.0
4,11.162999868392944,learn,48837.000131607056,Tue Jan 28 2025 13:16:35 GMT-0600 (Central Standard Time),511229.60000000894,A,whea,I,a,207,1,1732.7000000029802,509496.90000000596,8015,WL,C,4.0
4,11.412999868392944,learn,48587.000131607056,Tue Jan 28 2025 13:16:35 GMT-0600 (Central Standard Time),511479.40000000596,A,wheat,I,t,229,1,1982.5,509496.90000000596,8015,WL,C,4.0
4,11.995999813079834,learn,48004.000186920166,Tue Jan 28 2025 13:16:35 GMT-0600 (Central Standard Time),512062.700000003,A,wheatenter,I,enter,571,1,2565.7999999970198,509496.90000000596,8015,WL,C,4.0
4,12.745999813079834,learn,47254.000186920166,Tue Jan 28 2025 13:16:35 GMT-0600 (Central Standard Time),512812.40000000596,A,d,I,d,732,1,749.5,512062.90000000596,8015,WL,C,5.0
4,12.878999948501587,learn,47121.00005149841,Tue Jan 28 2025 13:16:35 GMT-0600 (Central Standard Time),512945.60000000894,A,do,I,o,110,1,882.7000000029802,512062.90000000596,8015,WL,C,5.0
4,13.046000003814697,learn,46953.9999961853,Tue Jan 28 2025 13:16:35 GMT-0600 (Central Standard Time),513112.3000000119,A,doc,I,c,146,1,1049.4000000059605,512062.90000000596,8015,WL,C,5.0
4,13.296000003814697,learn,46703.9999961853,Tue Jan 28 2025 13:16:35 GMT-0600 (Central Standard Time),513362.200000003,A,doct,I,t,226,1,1299.2999999970198,512062.90000000596,8015,WL,C,5.0
4,13.461999893188477,learn,46538.00010681152,Tue Jan 28 2025 13:16:35 GMT-0600 (Central Standard Time),513528.8000000119,A,docto,I,o,145,1,1465.9000000059605,512062.90000000596,8015,WL,C,5.0
4,13.561999797821045,learn,46438.000202178955,Tue Jan 28 2025 13:16:35 GMT-0600 (Central Standard Time),513628.700000003,A,doctor,I,r,82,1,1565.7999999970198,512062.90000000596,8015,WL,C,5.0
4,14.194999933242798,learn,45805.0000667572,Tue Jan 28 2025 13:16:35 GMT-0600 (Central Standard Time),514261.60000000894,A,doctorh,I,h,622,1,2198.7000000029802,512062.90000000596,8015,WL,C,5.0
4,14.378000020980835,learn,45621.999979019165,Tue Jan 28 2025 13:16:35 GMT-0600 (Central Standard Time),514444.8000000119,A,doctorho,I,o,174,1,2381.9000000059605,512062.90000000596,8015,WL,C,5.0
4,14.628999948501587,learn,45371.00005149841,Tue Jan 28 2025 13:16:35 GMT-0600 (Central Standard Time),514695.10000000894,A,doctorhom,I,m,229,1,2632.2000000029802,512062.90000000596,8015,WL,C,5.0
4,15.16100001335144,learn,44838.99998664856,Tue Jan 28 2025 13:16:35 GMT-0600 (Central Standard Time),515228.0,A,doctorho,I,backspace,516,1,3165.0999999940395,512062.90000000596,8015,WL,C,5.0
4,15.311999797821045,learn,44688.000202178955,Tue Jan 28 2025 13:16:35 GMT-0600 (Central Standard Time),515378.3000000119,A,doctorh,I,backspace,137,1,3315.4000000059605,512062.90000000596,8015,WL,C,5.0
4,15.477999925613403,learn,44522.0000743866,Tue Jan 28 2025 13:16:35 GMT-0600 (Central Standard Time),515544.60000000894,A,doctor,I,backspace,144,1,3481.7000000029802,512062.90000000596,8015,WL,C,5.0
4,15.960999965667725,learn,44039.000034332275,Tue Jan 28 2025 13:16:35 GMT-0600 (Central Standard Time),516027.8000000119,A,doctorenter,I,enter,475,1,3964.9000000059605,512062.90000000596,8015,WL,C,5.0
4,16.41100001335144,learn,43588.99998664856,Tue Jan 28 2025 13:16:35 GMT-0600 (Central Standard Time),516478.0,A,h,I,h,431,1,449.8999999910593,516028.10000000894,8015,WL,C,6.0
4,16.610999822616577,learn,43389.00017738342,Tue Jan 28 2025 13:16:35 GMT-0600 (Central Standard Time),516677.8000000119,A,ho,I,o,189,1,649.7000000029802,516028.10000000894,8015,WL,C,6.0
4,16.961999893188477,learn,43038.00010681152,Tue Jan 28 2025 13:16:35 GMT-0600 (Central Standard Time),517028.700000003,A,hoe,I,e,341,1,1000.5999999940395,516028.10000000894,8015,WL,C,6.0
4,17.42799997329712,learn,42572.00002670288,Tue Jan 28 2025 13:16:35 GMT-0600 (Central Standard Time),517494.3000000119,A,ho,I,backspace,454,1,1466.2000000029802,516028.10000000894,8015,WL,C,6.0
4,17.727999925613403,learn,42272.0000743866,Tue Jan 28 2025 13:16:35 GMT-0600 (Central Standard Time),517794.10000000894,A,hom,I,m,284,1,1766.0,516028.10000000894,8015,WL,C,6.0
4,17.893999814987183,learn,42106.00018501282,Tue Jan 28 2025 13:16:35 GMT-0600 (Central Standard Time),517960.8000000119,A,home,I,e,152,1,1932.7000000029802,516028.10000000894,8015,WL,C,6.0
4,18.276999950408936,learn,41723.000049591064,Tue Jan 28 2025 13:16:35 GMT-0600 (Central Standard Time),518343.8000000119,A,homeenter,I,enter,362,1,2315.7000000029802,516028.10000000894,8015,WL,C,6.0
4,18.793999910354614,learn,41206.000089645386,Tue Jan 28 2025 13:16:35 GMT-0600 (Central Standard Time),518860.5,A,b,I,b,506,1,516.2999999970198,518344.200000003,8015,WL,C,7.0
4,19.176999807357788,learn,40823.00019264221,Tue Jan 28 2025 13:16:35 GMT-0600 (Central Standard Time),519243.60000000894,A,bo,I,o,374,1,899.4000000059605,518344.200000003,8015,WL,C,7.0
4,19.68999981880188,learn,40310.00018119812,Tue Jan 28 2025 13:16:35 GMT-0600 (Central Standard Time),519756.700000003,A,boy,I,y,506,1,1412.5,518344.200000003,8015,WL,C,7.0
4,20.05999994277954,learn,39940.00005722046,Tue Jan 28 2025 13:16:35 GMT-0600 (Central Standard Time),520126.60000000894,A,boyenter,I,enter,357,1,1782.4000000059605,518344.200000003,8015,WL,C,7.0
4,21.259999990463257,learn,38740.00000953674,Tue Jan 28 2025 13:16:35 GMT-0600 (Central Standard Time),521326.40000000596,A,b,I,b,1189,1,1199.5,520126.90000000596,8015,WL,C,8.0
4,21.72599983215332,learn,38274.00016784668,Tue Jan 28 2025 13:16:35 GMT-0600 (Central Standard Time),521792.60000000894,A,bo,I,o,453,1,1665.7000000029802,520126.90000000596,8015,WL,C,8.0
4,21.959999799728394,learn,38040.00020027161,Tue Jan 28 2025 13:16:35 GMT-0600 (Central Standard Time),522026.200000003,A,bod,I,d,218,1,1899.2999999970198,520126.90000000596,8015,WL,C,8.0
4,22.14299988746643,learn,37857.00011253357,Tue Jan 28 2025 13:16:35 GMT-0600 (Central Standard Time),522209.5,A,body,I,y,169,1,2082.5999999940395,520126.90000000596,8015,WL,C,8.0
4,23.05900001525879,learn,36940.99998474121,Tue Jan 28 2025 13:16:35 GMT-0600 (Central Standard Time),523125.8000000119,A,bodyc,I,c,906,1,2998.9000000059605,520126.90000000596,8015,WL,C,8.0
4,24.30900001525879,learn,35690.99998474121,Tue Jan 28 2025 13:16:35 GMT-0600 (Central Standard Time),524375.5,A,bodyca,I,a,1237,1,4248.5999999940395,520126.90000000596,8015,WL,C,8.0
4,24.592000007629395,learn,35407.999992370605,Tue Jan 28 2025 13:16:35 GMT-0600 (Central Standard Time),524658.6000000089,A,bodycat,I,t,260,1,4531.70000000298,520126.90000000596,8015,WL,C,8.0
4,24.758999824523926,learn,35241.000175476074,Tue Jan 28 2025 13:16:35 GMT-0600 (Central Standard Time),524825.400000006,A,bodycatt,I,t,152,1,4698.5,520126.90000000596,8015,WL,C,8.0
4,24.924999952316284,learn,35075.000047683716,Tue Jan 28 2025 13:16:35 GMT-0600 (Central Standard Time),524991.8000000119,A,bodycattl,I,l,145,1,4864.9000000059605,520126.90000000596,8015,WL,C,8.0
4,25.04199981689453,learn,34958.00018310547,Tue Jan 28 2025 13:16:35 GMT-0600 (Central Standard Time),525108.6000000089,A,bodycattle,I,e,107,1,4981.70000000298,520126.90000000596,8015,WL,C,8.0
4,25.39199995994568,learn,34608.00004005432,Tue Jan 28 2025 13:16:35 GMT-0600 (Central Standard Time),525458.5,A,bodycattleenter,I,enter,335,1,5331.5999999940395,520126.90000000596,8015,WL,C,8.0
4,25.857999801635742,learn,34142.00019836426,Tue Jan 28 2025 13:16:35 GMT-0600 (Central Standard Time),525924.900000006,A,d,I,d,449,1,466.09999999403954,525458.8000000119,8015,WL,C,9.0
4,26.007999897003174,learn,33992.000102996826,Tue Jan 28 2025 13:16:35 GMT-0600 (Central Standard Time),526074.900000006,A,do,I,o,127,1,616.0999999940395,525458.8000000119,8015,WL,C,9.0
4,26.107999801635742,learn,33892.00019836426,Tue Jan 28 2025 13:16:35 GMT-0600 (Central Standard Time),526174.900000006,A,doc,I,c,80,1,716.0999999940395,525458.8000000119,8015,WL,C,9.0
4,26.324999809265137,learn,33675.00019073486,Tue Jan 28 2025 13:16:35 GMT-0600 (Central Standard Time),526391.5,A,doct,I,t,196,1,932.6999999880791,525458.8000000119,8015,WL,C,9.0
4,26.47499990463257,learn,33525.00009536743,Tue Jan 28 2025 13:16:35 GMT-0600 (Central Standard Time),526541.400000006,A,docto,I,o,132,1,1082.5999999940395,525458.8000000119,8015,WL,C,9.0
4,26.592999935150146,learn,33407.00006484985,Tue Jan 28 2025 13:16:35 GMT-0600 (Central Standard Time),526659.1000000089,A,doctor,I,r,93,1,1200.2999999970198,525458.8000000119,8015,WL,C,9.0
4,27.074999809265137,learn,32925.00019073486,Tue Jan 28 2025 13:16:35 GMT-0600 (Central Standard Time),527141.1000000089,A,doctorenter,I,enter,464,1,1682.2999999970198,525458.8000000119,8015,WL,C,9.0
4,31.306999921798706,learn,28693.000078201294,Tue Jan 28 2025 13:16:35 GMT-0600 (Central Standard Time),531373.200000003,A,s,I,s,4215,1,4231.79999999702,527141.400000006,8015,WL,C,10.0
4,31.43999981880188,learn,28560.00018119812,Tue Jan 28 2025 13:16:35 GMT-0600 (Central Standard Time),531506.5,A,sh,I,h,118,1,4365.0999999940395,527141.400000006,8015,WL,C,10.0
4,31.639999866485596,learn,28360.000133514404,Tue Jan 28 2025 13:16:35 GMT-0600 (Central Standard Time),531706.5,A,sho,I,o,186,1,4565.0999999940395,527141.400000006,8015,WL,C,10.0
4,31.840999841690063,learn,28159.000158309937,Tue Jan 28 2025 13:16:35 GMT-0600 (Central Standard Time),531907.400000006,A,shor,I,r,184,1,4766.0,527141.400000006,8015,WL,C,10.0
4,31.955999851226807,learn,28044.000148773193,Tue Jan 28 2025 13:16:35 GMT-0600 (Central Standard Time),532022.900000006,A,shore,I,e,96,1,4881.5,527141.400000006,8015,WL,C,10.0
4,32.638999938964844,learn,27361.000061035156,Tue Jan 28 2025 13:16:35 GMT-0600 (Central Standard Time),532706.0,A,shoreenter,I,enter,659,1,5564.5999999940395,527141.400000006,8015,WL,C,10.0
4,34.038999795913696,learn,25961.000204086304,Tue Jan 28 2025 13:16:35 GMT-0600 (Central Standard Time),534105.700000003,A,c,I,c,1386,1,1399.3999999910593,532706.3000000119,8015,WL,C,11.0
4,34.20599985122681,learn,25794.000148773193,Tue Jan 28 2025 13:16:35 GMT-0600 (Central Standard Time),534272.400000006,A,co,I,o,145,1,1566.0999999940395,532706.3000000119,8015,WL,C,11.0
4,34.371999979019165,learn,25628.000020980835,Tue Jan 28 2025 13:16:35 GMT-0600 (Central Standard Time),534439.0,A,cor,I,r,155,1,1732.699999988079,532706.3000000119,8015,WL,C,11.0
4,34.555999994277954,learn,25444.000005722046,Tue Jan 28 2025 13:16:35 GMT-0600 (Central Standard Time),534622.3000000119,A,corn,I,n,173,1,1916.0,532706.3000000119,8015,WL,C,11.0
4,34.97199988365173,learn,25028.000116348267,Tue Jan 28 2025 13:16:35 GMT-0600 (Central Standard Time),535038.700000003,A,cornenter,I,enter,406,1,2332.3999999910593,532706.3000000119,8015,WL,C,11.0
4,40.103999853134155,learn,19896.000146865845,Tue Jan 28 2025 13:16:35 GMT-0600 (Central Standard Time),540170.5,A,f,I,f,5109,1,5131.399999991059,535039.1000000089,8015,WL,C,12.0
4,40.3199999332428,learn,19680.000066757202,Tue Jan 28 2025 13:16:35 GMT-0600 (Central Standard Time),540387.1000000089,A,fl,I,l,201,1,5348.0,535039.1000000089,8015,WL,C,12.0
4,40.48699998855591,learn,19513.00001144409,Tue Jan 28 2025 13:16:35 GMT-0600 (Central Standard Time),540553.6000000089,A,fla,I,a,143,1,5514.5,535039.1000000089,8015,WL,C,12.0
4,40.72000002861023,learn,19279.99997138977,Tue Jan 28 2025 13:16:35 GMT-0600 (Central Standard Time),540786.8000000119,A,flag,I,g,218,1,5747.70000000298,535039.1000000089,8015,WL,C,12.0
4,41.019999980926514,learn,18980.000019073486,Tue Jan 28 2025 13:16:35 GMT-0600 (Central Standard Time),541086.8000000119,A,flagenter,I,enter,289,1,6047.70000000298,535039.1000000089,8015,WL,C,12.0
4,50.11699986457825,learn,9883.000135421753,Tue Jan 28 2025 13:16:35 GMT-0600 (Central Standard Time),550183.900000006,A,l,I,l,9084,1,9096.70000000298,541087.200000003,8015,WL,C,13.0
4,50.31699991226196,learn,9683.000087738037,Tue Jan 28 2025 13:16:35 GMT-0600 (Central Standard Time),550383.8000000119,A,le,I,e,186,1,9296.60000000894,541087.200000003,8015,WL,C,13.0
4,50.53399991989136,learn,9466.000080108643,Tue Jan 28 2025 13:16:35 GMT-0600 (Central Standard Time),550600.700000003,A,let,I,t,204,1,9513.5,541087.200000003,8015,WL,C,13.0
4,50.68400001525879,learn,9315.999984741211,Tue Jan 28 2025 13:16:35 GMT-0600 (Central Standard Time),550750.6000000089,A,lett,I,t,130,1,9663.40000000596,541087.200000003,8015,WL,C,13.0
4,50.883999824523926,learn,9116.000175476074,Tue Jan 28 2025 13:16:35 GMT-0600 (Central Standard Time),550950.5,A,lette,I,e,188,1,9863.29999999702,541087.200000003,8015,WL,C,13.0
4,50.967000007629395,learn,9032.999992370605,Tue Jan 28 2025 13:16:35 GMT-0600 (Central Standard Time),551033.700000003,A,letter,I,r,69,1,9946.5,541087.200000003,8015,WL,C,13.0
4,51.549999952316284,learn,8450.000047683716,Tue Jan 28 2025 13:16:35 GMT-0600 (Central Standard Time),551616.8000000119,A,letterenter,I,enter,569,1,10529.60000000894,541087.200000003,8015,WL,C,13.0
4,60.013999938964844,learn,-13.99993896484375,Tue Jan 28 2025 13:16:35 GMT-0600 (Central Standard Time),560080.8000000119,A,None,I,None,8457,1,8463.60000000894,551617.200000003,8015,WL,C,14.0
5,1.5,learn,60000.0,Tue Jan 28 2025 13:16:35 GMT-0600 (Central Standard Time),631442.200000003,A,t,I,t,1476,1,1499.5999999940395,629942.6000000089,8015,WL,C,1.0
5,1.6999998092651367,learn,60000.0,Tue Jan 28 2025 13:16:35 GMT-0600 (Central Standard Time),631642.0,A,to,I,o,176,1,1699.3999999910593,629942.6000000089,8015,WL,C,1.0
5,1.9509999752044678,learn,60000.0,Tue Jan 28 2025 13:16:35 GMT-0600 (Central Standard Time),631892.700000003,A,tow,I,w,242,1,1950.0999999940395,629942.6000000089,8015,WL,C,1.0
5,2.2159998416900635,learn,60000.0,Tue Jan 28 2025 13:16:35 GMT-0600 (Central Standard Time),632158.3000000119,A,towe,I,e,255,1,2215.7000000029802,629942.6000000089,8015,WL,C,1.0
5,2.4489998817443848,learn,60000.0,Tue Jan 28 2025 13:16:35 GMT-0600 (Central Standard Time),632391.5,A,tower,I,r,213,1,2448.8999999910593,629942.6000000089,8015,WL,C,1.0
5,2.932999849319458,learn,60000.0,Tue Jan 28 2025 13:16:35 GMT-0600 (Central Standard Time),632874.900000006,A,towerenter,I,enter,476,1,2932.2999999970198,629942.6000000089,8015,WL,C,1.0
5,3.8320000171661377,learn,60000.0,Tue Jan 28 2025 13:16:35 GMT-0600 (Central Standard Time),633774.6000000089,A,w,I,w,889,1,899.5,632875.1000000089,8015,WL,C,2.0
5,3.998999834060669,learn,60000.0,Tue Jan 28 2025 13:16:35 GMT-0600 (Central Standard Time),633941.0,A,wh,I,h,148,1,1065.8999999910593,632875.1000000089,8015,WL,C,2.0
5,4.164999961853027,learn,60000.0,Tue Jan 28 2025 13:16:35 GMT-0600 (Central Standard Time),634107.400000006,A,whe,I,e,158,1,1232.2999999970198,632875.1000000089,8015,WL,C,2.0
5,4.348999977111816,learn,60000.0,Tue Jan 28 2025 13:16:35 GMT-0600 (Central Standard Time),634291.1000000089,A,whea,I,a,161,1,1416.0,632875.1000000089,8015,WL,C,2.0
5,4.7149999141693115,learn,60000.0,Tue Jan 28 2025 13:16:35 GMT-0600 (Central Standard Time),634657.700000003,A,wheat,I,t,352,1,1782.5999999940395,632875.1000000089,8015,WL,C,2.0
5,5.299000024795532,learn,60000.0,Tue Jan 28 2025 13:16:35 GMT-0600 (Central Standard Time),635240.700000003,A,wheatenter,I,enter,570,1,2365.5999999940395,632875.1000000089,8015,WL,C,2.0
5,6.148999929428101,learn,60000.0,Tue Jan 28 2025 13:16:35 GMT-0600 (Central Standard Time),636091.0,A,s,I,s,844,1,850.0,635241.0,8015,WL,C,3.0
5,6.330999851226807,learn,60000.0,Tue Jan 28 2025 13:16:35 GMT-0600 (Central Standard Time),636273.5,A,su,I,u,167,1,1032.5,635241.0,8015,WL,C,3.0
5,6.597999811172485,learn,60000.0,Tue Jan 28 2025 13:16:35 GMT-0600 (Central Standard Time),636540.3000000119,A,sug,I,g,257,1,1299.300000011921,635241.0,8015,WL,C,3.0
5,6.81499981880188,learn,60000.0,Tue Jan 28 2025 13:16:35 GMT-0600 (Central Standard Time),636756.8000000119,A,suga,I,a,207,1,1515.800000011921,635241.0,8015,WL,C,3.0
5,6.980999946594238,learn,60000.0,Tue Jan 28 2025 13:16:35 GMT-0600 (Central Standard Time),636923.3000000119,A,sugar,I,r,158,1,1682.300000011921,635241.0,8015,WL,C,3.0
5,7.60699987411499,learn,60000.0,Tue Jan 28 2025 13:16:35 GMT-0600 (Central Standard Time),637549.200000003,A,sugarenter,I,enter,618,1,2308.2000000029802,635241.0,8015,WL,C,3.0
5,8.513999938964844,learn,60000.0,Tue Jan 28 2025 13:16:35 GMT-0600 (Central Standard Time),638456.400000006,A,d,I,d,884,1,906.7999999970198,637549.6000000089,8015,WL,C,4.0
5,8.648000001907349,learn,60000.0,Tue Jan 28 2025 13:16:35 GMT-0600 (Central Standard Time),638589.8000000119,A,do,I,o,123,1,1040.2000000029802,637549.6000000089,8015,WL,C,4.0
5,9.04699993133545,learn,60000.0,Tue Jan 28 2025 13:16:35 GMT-0600 (Central Standard Time),638989.400000006,A,dot,I,t,389,1,1439.7999999970198,637549.6000000089,8015,WL,C,4.0
5,9.79699993133545,learn,60000.0,Tue Jan 28 2025 13:16:35 GMT-0600 (Central Standard Time),639739.400000006,A,do,I,backspace,726,1,2189.7999999970198,637549.6000000089,8015,WL,C,4.0
5,10.02999997138977,learn,60000.0,Tue Jan 28 2025 13:16:35 GMT-0600 (Central Standard Time),639972.700000003,A,doc,I,c,224,1,2423.0999999940395,637549.6000000089,8015,WL,C,4.0
5,10.346999883651733,learn,60000.0,Tue Jan 28 2025 13:16:35 GMT-0600 (Central Standard Time),640289.3000000119,A,doct,I,t,303,1,2739.7000000029802,637549.6000000089,8015,WL,C,4.0
5,10.480000019073486,learn,60000.0,Tue Jan 28 2025 13:16:35 GMT-0600 (Central Standard Time),640422.5,A,docto,I,o,113,1,2872.8999999910593,637549.6000000089,8015,WL,C,4.0
5,10.662999868392944,learn,60000.0,Tue Jan 28 2025 13:16:35 GMT-0600 (Central Standard Time),640605.6000000089,A,doctor,I,r,164,1,3056.0,637549.6000000089,8015,WL,C,4.0
5,11.162999868392944,learn,60000.0,Tue Jan 28 2025 13:16:35 GMT-0600 (Central Standard Time),641105.5,A,doctorenter,I,enter,477,1,3555.8999999910593,637549.6000000089,8015,WL,C,4.0
5,11.962999820709229,learn,60000.0,Tue Jan 28 2025 13:16:35 GMT-0600 (Central Standard Time),641905.3000000119,A,h,I,h,785,1,799.4000000059605,641105.900000006,8015,WL,C,5.0
5,12.163999795913696,learn,60000.0,Tue Jan 28 2025 13:16:35 GMT-0600 (Central Standard Time),642106.400000006,A,ho,I,o,193,1,1000.5,641105.900000006,8015,WL,C,5.0
5,12.395999908447266,learn,60000.0,Tue Jan 28 2025 13:16:35 GMT-0600 (Central Standard Time),642338.400000006,A,hom,I,m,219,1,1232.5,641105.900000006,8015,WL,C,5.0
5,12.595999956130981,learn,60000.0,Tue Jan 28 2025 13:16:35 GMT-0600 (Central Standard Time),642538.5,A,home,I,e,176,1,1432.5999999940395,641105.900000006,8015,WL,C,5.0
5,13.062999963760376,learn,60000.0,Tue Jan 28 2025 13:16:35 GMT-0600 (Central Standard Time),643004.900000006,A,homeenter,I,enter,449,1,1899.0,641105.900000006,8015,WL,C,5.0
5,13.745999813079834,learn,60000.0,Tue Jan 28 2025 13:16:35 GMT-0600 (Central Standard Time),643688.0,A,b,I,b,663,1,682.6999999880791,643005.3000000119,8015,WL,C,6.0
5,13.995999813079834,learn,60000.0,Tue Jan 28 2025 13:16:35 GMT-0600 (Central Standard Time),643938.1000000089,A,bo,I,o,228,1,932.7999999970198,643005.3000000119,8015,WL,C,6.0
5,14.27899980545044,learn,60000.0,Tue Jan 28 2025 13:16:35 GMT-0600 (Central Standard Time),644221.200000003,A,boy,I,y,265,1,1215.8999999910593,643005.3000000119,8015,WL,C,6.0
5,14.978999853134155,learn,60000.0,Tue Jan 28 2025 13:16:35 GMT-0600 (Central Standard Time),644920.900000006,A,boyenter,I,enter,677,1,1915.5999999940395,643005.3000000119,8015,WL,C,6.0
5,16.794999837875366,learn,60000.0,Tue Jan 28 2025 13:16:35 GMT-0600 (Central Standard Time),646737.0,A,c,I,c,1795,1,1815.699999988079,644921.3000000119,8015,WL,C,7.0
5,16.994999885559082,learn,60000.0,Tue Jan 28 2025 13:16:35 GMT-0600 (Central Standard Time),646936.900000006,A,ca,I,a,178,1,2015.5999999940395,644921.3000000119,8015,WL,C,7.0
5,17.060999870300293,learn,60000.0,Tue Jan 28 2025 13:16:35 GMT-0600 (Central Standard Time),647003.3000000119,A,cam,I,m,58,1,2082.0,644921.3000000119,8015,WL,C,7.0
5,17.277999877929688,learn,60000.0,Tue Jan 28 2025 13:16:35 GMT-0600 (Central Standard Time),647220.3000000119,A,camp,I,p,208,1,2299.0,644921.3000000119,8015,WL,C,7.0
5,17.777999877929688,learn,60000.0,Tue Jan 28 2025 13:16:35 GMT-0600 (Central Standard Time),647720.1000000089,A,campenter,I,enter,478,1,2798.7999999970198,644921.3000000119,8015,WL,C,7.0
5,18.277999877929688,learn,60000.0,Tue Jan 28 2025 13:16:35 GMT-0600 (Central Standard Time),648219.900000006,A,f,I,f,484,1,499.40000000596046,647720.5,8015,WL,C,8.0
5,18.444999933242798,learn,60000.0,Tue Jan 28 2025 13:16:35 GMT-0600 (Central Standard Time),648386.700000003,A,fl,I,l,142,1,666.2000000029802,647720.5,8015,WL,C,8.0
5,18.628000020980835,learn,60000.0,Tue Jan 28 2025 13:16:35 GMT-0600 (Central Standard Time),648569.8000000119,A,fla,I,a,160,1,849.3000000119209,647720.5,8015,WL,C,8.0
5,19.07799983024597,learn,60000.0,Tue Jan 28 2025 13:16:35 GMT-0600 (Central Standard Time),649019.700000003,A,flag,I,g,434,1,1299.2000000029802,647720.5,8015,WL,C,8.0
5,20.609999895095825,learn,60000.0,Tue Jan 28 2025 13:16:35 GMT-0600 (Central Standard Time),650552.6000000089,A,flagenter,I,enter,1512,1,2832.1000000089407,647720.5,8015,WL,C,8.0
5,22.459999799728394,learn,60000.0,Tue Jan 28 2025 13:16:35 GMT-0600 (Central Standard Time),652402.0,A,n,I,n,1836,1,1849.0,650553.0,8015,WL,C,9.0
5,22.625999927520752,learn,60000.0,Tue Jan 28 2025 13:16:35 GMT-0600 (Central Standard Time),652568.6000000089,A,na,I,a,154,1,2015.6000000089407,650553.0,8015,WL,C,9.0
5,22.743000030517578,learn,60000.0,Tue Jan 28 2025 13:16:35 GMT-0600 (Central Standard Time),652685.3000000119,A,nai,I,i,107,1,2132.300000011921,650553.0,8015,WL,C,9.0
5,23.026000022888184,learn,60000.0,Tue Jan 28 2025 13:16:35 GMT-0600 (Central Standard Time),652968.5,A,nail,I,l,270,1,2415.5,650553.0,8015,WL,C,9.0
5,23.608999967575073,learn,60000.0,Tue Jan 28 2025 13:16:35 GMT-0600 (Central Standard Time),653551.700000003,A,nailenter,I,enter,571,1,2998.7000000029802,650553.0,8015,WL,C,9.0
5,25.70899987220764,learn,60000.0,Tue Jan 28 2025 13:16:35 GMT-0600 (Central Standard Time),655650.8000000119,A,s,I,s,2084,1,2098.800000011921,653552.0,8015,WL,C,10.0
5,25.89199995994568,learn,60000.0,Tue Jan 28 2025 13:16:35 GMT-0600 (Central Standard Time),655834.3000000119,A,sh,I,h,160,1,2282.300000011921,653552.0,8015,WL,C,10.0
5,26.092000007629395,learn,60000.0,Tue Jan 28 2025 13:16:35 GMT-0600 (Central Standard Time),656034.3000000119,A,sho,I,o,176,1,2482.300000011921,653552.0,8015,WL,C,10.0
5,26.274999856948853,learn,60000.0,Tue Jan 28 2025 13:16:35 GMT-0600 (Central Standard Time),656217.5,A,shor,I,r,169,1,2665.5,653552.0,8015,WL,C,10.0
5,26.358999967575073,learn,60000.0,Tue Jan 28 2025 13:16:35 GMT-0600 (Central Standard Time),656300.8000000119,A,shore,I,e,73,1,2748.800000011921,653552.0,8015,WL,C,10.0
5,26.906999826431274,learn,60000.0,Tue Jan 28 2025 13:16:35 GMT-0600 (Central Standard Time),656850.700000003,A,shoreenter,I,enter,542,1,3298.7000000029802,653552.0,8015,WL,C,10.0
5,29.789999961853027,learn,60000.0,Tue Jan 28 2025 13:16:35 GMT-0600 (Central Standard Time),659733.0,A,l,I,l,2865,1,2882.0,656851.0,8015,WL,C,11.0
5,29.93999981880188,learn,60000.0,Tue Jan 28 2025 13:16:35 GMT-0600 (Central Standard Time),659883.200000003,A,le,I,e,127,1,3032.2000000029802,656851.0,8015,WL,C,11.0
5,30.138999938964844,learn,60000.0,Tue Jan 28 2025 13:16:35 GMT-0600 (Central Standard Time),660082.900000006,A,let,I,t,183,1,3231.9000000059605,656851.0,8015,WL,C,11.0
5,30.288999795913696,learn,60000.0,Tue Jan 28 2025 13:16:35 GMT-0600 (Central Standard Time),660232.900000006,A,lett,I,t,137,1,3381.9000000059605,656851.0,8015,WL,C,11.0
5,30.472999811172485,learn,60000.0,Tue Jan 28 2025 13:16:35 GMT-0600 (Central Standard Time),660416.400000006,A,lette,I,e,170,1,3565.4000000059605,656851.0,8015,WL,C,11.0
5,30.555999994277954,learn,60000.0,Tue Jan 28 2025 13:16:35 GMT-0600 (Central Standard Time),660499.3000000119,A,letter,I,r,75,1,3648.300000011921,656851.0,8015,WL,C,11.0
5,30.82200002670288,learn,60000.0,Tue Jan 28 2025 13:16:35 GMT-0600 (Central Standard Time),660765.8000000119,A,letterenter,I,enter,257,1,3914.800000011921,656851.0,8015,WL,C,11.0
5,33.90499997138977,learn,60000.0,Tue Jan 28 2025 13:16:35 GMT-0600 (Central Standard Time),663848.6000000089,A,c,I,c,3062,1,3082.6000000089407,660766.0,8015,WL,C,12.0
5,34.037999868392944,learn,60000.0,Tue Jan 28 2025 13:16:35 GMT-0600 (Central Standard Time),663981.700000003,A,co,I,o,123,1,3215.7000000029802,660766.0,8015,WL,C,12.0
5,34.270999908447266,learn,60000.0,Tue Jan 28 2025 13:16:35 GMT-0600 (Central Standard Time),664214.900000006,A,cor,I,r,215,1,3448.9000000059605,660766.0,8015,WL,C,12.0
5,34.47099995613098,learn,60000.0,Tue Jan 28 2025 13:16:35 GMT-0600 (Central Standard Time),664414.8000000119,A,corn,I,n,180,1,3648.800000011921,660766.0,8015,WL,C,12.0
5,34.82099986076355,learn,60000.0,Tue Jan 28 2025 13:16:35 GMT-0600 (Central Standard Time),664764.8000000119,A,cornenter,I,enter,333,1,3998.800000011921,660766.0,8015,WL,C,12.0
5,39.003000020980835,learn,60000.0,Tue Jan 28 2025 13:16:35 GMT-0600 (Central Standard Time),668946.8000000119,A,n,I,n,4165,1,4181.600000008941,664765.200000003,8015,WL,C,13.0
5,39.15299987792969,learn,60000.0,Tue Jan 28 2025 13:16:35 GMT-0600 (Central Standard Time),669096.700000003,A,na,I,a,136,1,4331.5,664765.200000003,8015,WL,C,13.0
5,39.419999837875366,learn,60000.0,Tue Jan 28 2025 13:16:35 GMT-0600 (Central Standard Time),669363.3000000119,A,nai,I,i,260,1,4598.100000008941,664765.200000003,8015,WL,C,13.0
5,39.73599982261658,learn,60000.0,Tue Jan 28 2025 13:16:35 GMT-0600 (Central Standard Time),669679.8000000119,A,nail,I,l,296,1,4914.600000008941,664765.200000003,8015,WL,C,13.0
5,40.169999837875366,learn,60000.0,Tue Jan 28 2025 13:16:35 GMT-0600 (Central Standard Time),670113.0,A,nailenter,I,enter,420,1,5347.79999999702,664765.200000003,8015,WL,C,13.0
5,49.36699986457825,learn,60000.0,Tue Jan 28 2025 13:16:35 GMT-0600 (Central Standard Time),679310.200000003,A,b,I,b,9187,1,9196.89999999106,670113.3000000119,8015,WL,C,14.0
5,49.75,learn,60000.0,Tue Jan 28 2025 13:16:35 GMT-0600 (Central Standard Time),679693.400000006,A,bo,I,o,365,1,9580.09999999404,670113.3000000119,8015,WL,C,14.0
5,50.0,learn,60000.0,Tue Jan 28 2025 13:16:35 GMT-0600 (Central Standard Time),679943.3000000119,A,bod,I,d,230,1,9830.0,670113.3000000119,8015,WL,C,14.0
5,50.14999985694885,learn,60000.0,Tue Jan 28 2025 13:16:35 GMT-0600 (Central Standard Time),680093.5,A,body,I,y,140,1,9980.199999988079,670113.3000000119,8015,WL,C,14.0
5,50.56599998474121,learn,60000.0,Tue Jan 28 2025 13:16:35 GMT-0600 (Central Standard Time),680509.6000000089,A,bodyenter,I,enter,399,1,10396.29999999702,670113.3000000119,8015,WL,C,14.0
5,64.21199989318848,learn,60000.0,Tue Jan 28 2025 13:16:35 GMT-0600 (Central Standard Time),694155.8000000119,A,q,I,q,13629,1,13645.800000011921,680510.0,8015,WL,C,15.0
6,1.4670000076293945,distr,58532.999992370605,Tue Jan 28 2025 13:16:35 GMT-0600 (Central Standard Time),761451.3000000119,B,s,I,s,1451,1,1466.0,759985.3000000119,8015,WL,C,1.0
6,1.7829999923706055,distr,58217.000007629395,Tue Jan 28 2025 13:16:35 GMT-0600 (Central Standard Time),761767.8000000119,B,sk,I,k,296,1,1782.5,759985.3000000119,8015,WL,C,1.0
6,2.0160000324249268,distr,57983.99996757507,Tue Jan 28 2025 13:16:35 GMT-0600 (Central Standard Time),762001.0,B,sky,I,y,220,1,2015.699999988079,759985.3000000119,8015,WL,C,1.0
6,2.3989999294281006,distr,57601.0000705719,Tue Jan 28 2025 13:16:35 GMT-0600 (Central Standard Time),762384.200000003,B,skyenter,I,enter,362,1,2398.8999999910593,759985.3000000119,8015,WL,C,1.0
6,2.681999921798706,distr,57318.000078201294,Tue Jan 28 2025 13:16:35 GMT-0600 (Central Standard Time),762667.200000003,B,d,I,d,274,1,282.70000000298023,762384.5,8015,WL,C,2.0
6,2.7990000247955322,distr,57200.99997520447,Tue Jan 28 2025 13:16:35 GMT-0600 (Central Standard Time),762784.0,B,do,I,o,105,1,399.5,762384.5,8015,WL,C,2.0
6,3.0490000247955322,distr,56950.99997520447,Tue Jan 28 2025 13:16:35 GMT-0600 (Central Standard Time),763033.900000006,B,dol,I,l,227,1,649.4000000059605,762384.5,8015,WL,C,2.0
6,3.182999849319458,distr,56817.00015068054,Tue Jan 28 2025 13:16:35 GMT-0600 (Central Standard Time),763167.400000006,B,doll,I,l,113,1,782.9000000059605,762384.5,8015,WL,C,2.0
6,3.2990000247955322,distr,56700.99997520447,Tue Jan 28 2025 13:16:35 GMT-0600 (Central Standard Time),763283.8000000119,B,dolla,I,a,100,1,899.3000000119209,762384.5,8015,WL,C,2.0
6,3.7990000247955322,distr,56200.99997520447,Tue Jan 28 2025 13:16:35 GMT-0600 (Central Standard Time),763783.900000006,B,dollat,I,t,487,1,1399.4000000059605,762384.5,8015,WL,C,2.0
6,4.2820000648498535,distr,55717.99993515015,Tue Jan 28 2025 13:16:35 GMT-0600 (Central Standard Time),764267.3000000119,B,dolla,I,backspace,476,1,1882.800000011921,762384.5,8015,WL,C,2.0
6,4.4649999141693115,distr,55535.00008583069,Tue Jan 28 2025 13:16:35 GMT-0600 (Central Standard Time),764449.900000006,B,dollar,I,r,167,1,2065.4000000059605,762384.5,8015,WL,C,2.0
6,4.665999889373779,distr,55334.00011062622,Tue Jan 28 2025 13:16:35 GMT-0600 (Central Standard Time),764650.400000006,B,dollarenter,I,enter,186,1,2265.9000000059605,762384.5,8015,WL,C,2.0
6,53.448999881744385,distr,6551.000118255615,Tue Jan 28 2025 13:16:35 GMT-0600 (Central Standard Time),813434.900000006,B,enter,I,enter,48769,1,48784.20000000298,764650.700000003,8015,WL,C,3.0
6,55.73199987411499,distr,4268.00012588501,Tue Jan 28 2025 13:16:35 GMT-0600 (Central Standard Time),815717.6000000089,B,enter,I,enter,2264,1,2282.2999999970198,813435.3000000119,8015,WL,C,4.0
6,55.98099994659424,distr,4019.0000534057617,Tue Jan 28 2025 13:16:35 GMT-0600 (Central Standard Time),815967.400000006,B,enter,I,enter,238,1,249.40000000596046,815718.0,8015,WL,C,5.0
6,56.180999994277954,distr,3819.000005722046,Tue Jan 28 2025 13:16:35 GMT-0600 (Central Standard Time),816167.5,B,enter,I,enter,188,1,199.79999999701977,815967.700000003,8015,WL,C,6.0
6,56.38100004196167,distr,3618.99995803833,Tue Jan 28 2025 13:16:35 GMT-0600 (Central Standard Time),816367.400000006,B,enter,I,enter,188,1,199.59999999403954,816167.8000000119,8015,WL,C,7.0
6,56.56500005722046,distr,3434.999942779541,Tue Jan 28 2025 13:16:35 GMT-0600 (Central Standard Time),816550.6000000089,B,enter,I,enter,164,1,182.79999999701977,816367.8000000119,8015,WL,C,8.0
6,56.73099994659424,distr,3269.0000534057617,Tue Jan 28 2025 13:16:35 GMT-0600 (Central Standard Time),816717.200000003,B,enter,I,enter,158,1,166.29999999701977,816550.900000006,8015,WL,C,9.0
6,56.89800000190735,distr,3101.9999980926514,Tue Jan 28 2025 13:16:35 GMT-0600 (Central Standard Time),816883.8000000119,B,enter,I,enter,151,1,166.1000000089407,816717.700000003,8015,WL,C,10.0
6,57.08099985122681,distr,2919.0001487731934,Tue Jan 28 2025 13:16:35 GMT-0600 (Central Standard Time),817067.0,B,enter,I,enter,160,1,182.79999999701977,816884.200000003,8015,WL,C,11.0
6,57.24799990653992,distr,2752.000093460083,Tue Jan 28 2025 13:16:35 GMT-0600 (Central Standard Time),817233.700000003,B,enter,I,enter,145,1,166.3999999910593,817067.3000000119,8015,WL,C,12.0
6,57.414000034332275,distr,2585.9999656677246,Tue Jan 28 2025 13:16:35 GMT-0600 (Central Standard Time),817400.400000006,B,enter,I,enter,154,1,166.40000000596046,817234.0,8015,WL,C,13.0
6,57.58099985122681,distr,2419.0001487731934,Tue Jan 28 2025 13:16:35 GMT-0600 (Central Standard Time),817567.1000000089,B,enter,I,enter,156,1,166.29999999701977,817400.8000000119,8015,WL,C,14.0
6,57.78099989891052,distr,2219.0001010894775,Tue Jan 28 2025 13:16:35 GMT-0600 (Central Standard Time),817767.0,B,enter,I,enter,188,1,199.59999999403954,817567.400000006,8015,WL,C,15.0
7,1.0160000324249268,immed,58983.99996757507,Tue Jan 28 2025 13:16:35 GMT-0600 (Central Standard Time),837694.200000003,A,t,I,t,999,1,1016.0999999940395,836678.1000000089,8015,WL,C,1.0
7,1.1989998817443848,immed,58801.000118255615,Tue Jan 28 2025 13:16:35 GMT-0600 (Central Standard Time),837877.200000003,A,to,I,o,172,1,1199.0999999940395,836678.1000000089,8015,WL,C,1.0
7,1.431999921798706,immed,58568.000078201294,Tue Jan 28 2025 13:16:35 GMT-0600 (Central Standard Time),838110.6000000089,A,tow,I,w,214,1,1432.5,836678.1000000089,8015,WL,C,1.0
7,1.7820000648498535,immed,58217.99993515015,Tue Jan 28 2025 13:16:35 GMT-0600 (Central Standard Time),838460.5,A,towe,I,e,341,1,1782.3999999910593,836678.1000000089,8015,WL,C,1.0
7,1.997999906539917,immed,58002.00009346008,Tue Jan 28 2025 13:16:35 GMT-0600 (Central Standard Time),838676.700000003,A,tower,I,r,207,1,1998.5999999940395,836678.1000000089,8015,WL,C,1.0
7,2.4819998741149902,immed,57518.00012588501,Tue Jan 28 2025 13:16:35 GMT-0600 (Central Standard Time),839160.200000003,A,towerenter,I,enter,472,1,2482.0999999940395,836678.1000000089,8015,WL,C,1.0
7,3.6480000019073486,immed,56351.99999809265,Tue Jan 28 2025 13:16:35 GMT-0600 (Central Standard Time),840326.6000000089,A,q,I,q,1156,1,1166.1000000089407,839160.5,8015,WL,C,2.0
7,3.88100004196167,immed,56118.99995803833,Tue Jan 28 2025 13:16:35 GMT-0600 (Central Standard Time),840559.8000000119,A,qu,I,u,222,1,1399.300000011921,839160.5,8015,WL,C,2.0
7,4.047999858856201,immed,55952.0001411438,Tue Jan 28 2025 13:16:35 GMT-0600 (Central Standard Time),840726.400000006,A,que,I,e,156,1,1565.9000000059605,839160.5,8015,WL,C,2.0
7,4.448999881744385,immed,55551.000118255615,Tue Jan 28 2025 13:16:35 GMT-0600 (Central Standard Time),841127.400000006,A,quee,I,e,381,1,1966.9000000059605,839160.5,8015,WL,C,2.0
7,4.664999961853027,immed,55335.00003814697,Tue Jan 28 2025 13:16:35 GMT-0600 (Central Standard Time),841342.8000000119,A,queen,I,n,205,1,2182.300000011921,839160.5,8015,WL,C,2.0
7,4.997999906539917,immed,55002.00009346008,Tue Jan 28 2025 13:16:35 GMT-0600 (Central Standard Time),841676.0,A,queenenter,I,enter,318,1,2515.5,839160.5,8015,WL,C,2.0
7,6.5980000495910645,immed,53401.999950408936,Tue Jan 28 2025 13:16:35 GMT-0600 (Central Standard Time),843276.700000003,A,s,I,s,1591,1,1600.3999999910593,841676.3000000119,8015,WL,C,3.0
7,6.796999931335449,immed,53203.00006866455,Tue Jan 28 2025 13:16:35 GMT-0600 (Central Standard Time),843475.6000000089,A,su,I,u,182,1,1799.2999999970198,841676.3000000119,8015,WL,C,3.0
7,7.046999931335449,immed,52953.00006866455,Tue Jan 28 2025 13:16:35 GMT-0600 (Central Standard Time),843725.400000006,A,sug,I,g,240,1,2049.0999999940395,841676.3000000119,8015,WL,C,3.0
7,7.263999938964844,immed,52736.000061035156,Tue Jan 28 2025 13:16:35 GMT-0600 (Central Standard Time),843941.900000006,A,suga,I,a,206,1,2265.5999999940395,841676.3000000119,8015,WL,C,3.0
7,7.480000019073486,immed,52519.999980926514,Tue Jan 28 2025 13:16:35 GMT-0600 (Central Standard Time),844158.6000000089,A,sugar,I,r,197,1,2482.2999999970198,841676.3000000119,8015,WL,C,3.0
7,8.013999938964844,immed,51986.000061035156,Tue Jan 28 2025 13:16:35 GMT-0600 (Central Standard Time),844691.900000006,A,sugarenter,I,enter,516,1,3015.5999999940395,841676.3000000119,8015,WL,C,3.0
7,8.662999868392944,immed,51337.000131607056,Tue Jan 28 2025 13:16:35 GMT-0600 (Central Standard Time),845341.6000000089,A,d,I,d,640,1,649.4000000059605,844692.200000003,8015,WL,C,4.0
7,8.848000049591064,immed,51151.999950408936,Tue Jan 28 2025 13:16:35 GMT-0600 (Central Standard Time),845526.0,A,do,I,o,166,1,833.7999999970198,844692.200000003,8015,WL,C,4.0
7,8.963000059127808,immed,51036.99994087219,Tue Jan 28 2025 13:16:35 GMT-0600 (Central Standard Time),845641.5,A,doc,I,c,101,1,949.2999999970198,844692.200000003,8015,WL,C,4.0
7,9.230000019073486,immed,50769.999980926514,Tue Jan 28 2025 13:16:35 GMT-0600 (Central Standard Time),845908.0,A,doct,I,t,250,1,1215.7999999970198,844692.200000003,8015,WL,C,4.0
7,9.44599986076355,immed,50554.00013923645,Tue Jan 28 2025 13:16:35 GMT-0600 (Central Standard Time),846124.8000000119,A,docto,I,o,208,1,1432.6000000089407,844692.200000003,8015,WL,C,4.0
7,10.013000011444092,immed,49986.99998855591,Tue Jan 28 2025 13:16:35 GMT-0600 (Central Standard Time),846690.900000006,A,doctor,I,r,558,1,1998.7000000029802,844692.200000003,8015,WL,C,4.0
7,10.680000066757202,immed,49319.9999332428,Tue Jan 28 2025 13:16:35 GMT-0600 (Central Standard Time),847357.8000000119,A,doctorenter,I,enter,658,1,2665.6000000089407,844692.200000003,8015,WL,C,4.0
7,11.611999988555908,immed,48388.00001144409,Tue Jan 28 2025 13:16:35 GMT-0600 (Central Standard Time),848290.8000000119,A,h,I,h,909,1,932.7000000029802,847358.1000000089,8015,WL,C,5.0
7,11.812000036239624,immed,48187.999963760376,Tue Jan 28 2025 13:16:35 GMT-0600 (Central Standard Time),848490.700000003,A,ho,I,o,185,1,1132.5999999940395,847358.1000000089,8015,WL,C,5.0
7,12.04699993133545,immed,47953.00006866455,Tue Jan 28 2025 13:16:35 GMT-0600 (Central Standard Time),848724.8000000119,A,hom,I,m,225,1,1366.7000000029802,847358.1000000089,8015,WL,C,5.0
7,12.228999853134155,immed,47771.000146865845,Tue Jan 28 2025 13:16:35 GMT-0600 (Central Standard Time),848906.900000006,A,home,I,e,167,1,1548.7999999970198,847358.1000000089,8015,WL,C,5.0
7,12.753999948501587,immed,47246.00005149841,Tue Jan 28 2025 13:16:35 GMT-0600 (Central Standard Time),849432.1000000089,A,homeenter,I,enter,518,1,2074.0,847358.1000000089,8015,WL,C,5.0
7,13.07800006866455,immed,46921.99993133545,Tue Jan 28 2025 13:16:35 GMT-0600 (Central Standard Time),849756.700000003,A,b,I,b,305,1,324.29999999701977,849432.400000006,8015,WL,C,6.0
7,13.312000036239624,immed,46687.999963760376,Tue Jan 28 2025 13:16:35 GMT-0600 (Central Standard Time),849990.1000000089,A,bo,I,o,223,1,557.7000000029802,849432.400000006,8015,WL,C,6.0
7,13.562000036239624,immed,46437.999963760376,Tue Jan 28 2025 13:16:35 GMT-0600 (Central Standard Time),850240.0,A,boy,I,y,229,1,807.5999999940395,849432.400000006,8015,WL,C,6.0
7,14.045000076293945,immed,45954.999923706055,Tue Jan 28 2025 13:16:35 GMT-0600 (Central Standard Time),850723.1000000089,A,boyenter,I,enter,460,1,1290.7000000029802,849432.400000006,8015,WL,C,6.0
7,14.460999965667725,immed,45539.000034332275,Tue Jan 28 2025 13:16:35 GMT-0600 (Central Standard Time),851139.700000003,A,c,I,c,400,1,416.20000000298023,850723.5,8015,WL,C,7.0
7,14.611000061035156,immed,45388.999938964844,Tue Jan 28 2025 13:16:35 GMT-0600 (Central Standard Time),851289.6000000089,A,ca,I,a,135,1,566.1000000089407,850723.5,8015,WL,C,7.0
7,14.777999877929688,immed,45222.00012207031,Tue Jan 28 2025 13:16:35 GMT-0600 (Central Standard Time),851456.400000006,A,cam,I,m,146,1,732.9000000059605,850723.5,8015,WL,C,7.0
7,15.027999877929688,immed,44972.00012207031,Tue Jan 28 2025 13:16:35 GMT-0600 (Central Standard Time),851706.200000003,A,camp,I,p,226,1,982.7000000029802,850723.5,8015,WL,C,7.0
7,16.144999980926514,immed,43855.000019073486,Tue Jan 28 2025 13:16:35 GMT-0600 (Central Standard Time),852822.8000000119,A,campenter,I,enter,1097,1,2099.300000011921,850723.5,8015,WL,C,7.0
7,17.07699990272522,immed,42923.00009727478,Tue Jan 28 2025 13:16:35 GMT-0600 (Central Standard Time),853755.3000000119,A,f,I,f,925,1,932.1000000089407,852823.200000003,8015,WL,C,8.0
7,17.26099991798401,immed,42739.00008201599,Tue Jan 28 2025 13:16:35 GMT-0600 (Central Standard Time),853938.8000000119,A,fl,I,l,160,1,1115.6000000089407,852823.200000003,8015,WL,C,8.0
7,17.427000045776367,immed,42572.99995422363,Tue Jan 28 2025 13:16:35 GMT-0600 (Central Standard Time),854105.5,A,fla,I,a,145,1,1282.2999999970198,852823.200000003,8015,WL,C,8.0
7,17.74399995803833,immed,42256.00004196167,Tue Jan 28 2025 13:16:35 GMT-0600 (Central Standard Time),854422.1000000089,A,flag,I,g,298,1,1598.9000000059605,852823.200000003,8015,WL,C,8.0
7,18.444000005722046,immed,41555.999994277954,Tue Jan 28 2025 13:16:35 GMT-0600 (Central Standard Time),855121.8000000119,A,flagenter,I,enter,676,1,2298.6000000089407,852823.200000003,8015,WL,C,8.0
7,22.04200005531311,immed,37957.99994468689,Tue Jan 28 2025 13:16:35 GMT-0600 (Central Standard Time),858720.400000006,A,s,I,s,3585,1,3598.0999999940395,855122.3000000119,8015,WL,C,9.0
7,22.2260000705719,immed,37773.9999294281,Tue Jan 28 2025 13:16:35 GMT-0600 (Central Standard Time),858903.900000006,A,sh,I,h,171,1,3781.5999999940395,855122.3000000119,8015,WL,C,9.0
7,22.424999952316284,immed,37575.000047683716,Tue Jan 28 2025 13:16:35 GMT-0600 (Central Standard Time),859103.8000000119,A,sho,I,o,179,1,3981.5,855122.3000000119,8015,WL,C,9.0
7,22.674999952316284,immed,37325.000047683716,Tue Jan 28 2025 13:16:35 GMT-0600 (Central Standard Time),859353.700000003,A,shor,I,r,227,1,4231.399999991059,855122.3000000119,8015,WL,C,9.0
7,22.759000062942505,immed,37240.999937057495,Tue Jan 28 2025 13:16:35 GMT-0600 (Central Standard Time),859437.0,A,shore,I,e,66,1,4314.699999988079,855122.3000000119,8015,WL,C,9.0
7,22.991999864578247,immed,37008.00013542175,Tue Jan 28 2025 13:16:35 GMT-0600 (Central Standard Time),859670.400000006,A,shoreenter,I,enter,215,1,4548.0999999940395,855122.3000000119,8015,WL,C,9.0
7,23.575000047683716,immed,36424.999952316284,Tue Jan 28 2025 13:16:35 GMT-0600 (Central Standard Time),860253.6000000089,A,l,I,l,566,1,582.7999999970198,859670.8000000119,8015,WL,C,10.0
7,23.774999856948853,immed,36225.00014305115,Tue Jan 28 2025 13:16:35 GMT-0600 (Central Standard Time),860453.400000006,A,le,I,e,182,1,782.5999999940395,859670.8000000119,8015,WL,C,10.0
7,23.991999864578247,immed,36008.00013542175,Tue Jan 28 2025 13:16:35 GMT-0600 (Central Standard Time),860670.0,A,let,I,t,198,1,999.1999999880791,859670.8000000119,8015,WL,C,10.0
7,24.175999879837036,immed,35824.000120162964,Tue Jan 28 2025 13:16:35 GMT-0600 (Central Standard Time),860854.5,A,lett,I,t,174,1,1183.699999988079,859670.8000000119,8015,WL,C,10.0
7,24.375,immed,35625.0,Tue Jan 28 2025 13:16:35 GMT-0600 (Central Standard Time),861053.3000000119,A,lette,I,e,182,1,1382.5,859670.8000000119,8015,WL,C,10.0
7,24.47499990463257,immed,35525.00009536743,Tue Jan 28 2025 13:16:35 GMT-0600 (Central Standard Time),861153.200000003,A,letter,I,r,78,1,1482.3999999910593,859670.8000000119,8015,WL,C,10.0
7,24.85800004005432,immed,35141.99995994568,Tue Jan 28 2025 13:16:35 GMT-0600 (Central Standard Time),861536.6000000089,A,letterenter,I,enter,370,1,1865.7999999970198,859670.8000000119,8015,WL,C,10.0
7,25.22499990463257,immed,34775.00009536743,Tue Jan 28 2025 13:16:35 GMT-0600 (Central Standard Time),861903.1000000089,A,n,I,n,355,1,366.20000000298023,861536.900000006,8015,WL,C,11.0
7,25.424999952316284,immed,34575.000047683716,Tue Jan 28 2025 13:16:35 GMT-0600 (Central Standard Time),862102.900000006,A,na,I,a,180,1,566.0,861536.900000006,8015,WL,C,11.0
7,25.507999897003174,immed,34492.000102996826,Tue Jan 28 2025 13:16:35 GMT-0600 (Central Standard Time),862186.200000003,A,nai,I,i,69,1,649.2999999970198,861536.900000006,8015,WL,C,11.0
7,25.757999897003174,immed,34242.000102996826,Tue Jan 28 2025 13:16:35 GMT-0600 (Central Standard Time),862436.0,A,nail,I,l,241,1,899.0999999940395,861536.900000006,8015,WL,C,11.0
7,26.20799994468689,immed,33792.00005531311,Tue Jan 28 2025 13:16:35 GMT-0600 (Central Standard Time),862886.200000003,A,nailenter,I,enter,431,1,1349.2999999970198,861536.900000006,8015,WL,C,11.0
7,28.957000017166138,immed,31042.999982833862,Tue Jan 28 2025 13:16:35 GMT-0600 (Central Standard Time),865635.200000003,A,c,I,c,2741,1,2748.5,862886.700000003,8015,WL,C,12.0
7,29.207000017166138,immed,30792.999982833862,Tue Jan 28 2025 13:16:35 GMT-0600 (Central Standard Time),865885.3000000119,A,ca,I,a,241,1,2998.6000000089407,862886.700000003,8015,WL,C,12.0
7,29.407000064849854,immed,30592.999935150146,Tue Jan 28 2025 13:16:35 GMT-0600 (Central Standard Time),866085.3000000119,A,cam,I,m,190,1,3198.6000000089407,862886.700000003,8015,WL,C,12.0
7,29.639999866485596,immed,30360.000133514404,Tue Jan 28 2025 13:16:35 GMT-0600 (Central Standard Time),866318.200000003,A,camp,I,p,222,1,3431.5,862886.700000003,8015,WL,C,12.0
7,30.19000005722046,immed,29809.99994277954,Tue Jan 28 2025 13:16:35 GMT-0600 (Central Standard Time),866868.200000003,A,campenter,I,enter,541,1,3981.5,862886.700000003,8015,WL,C,12.0
7,45.96799993515015,immed,14032.000064849854,Tue Jan 28 2025 13:16:35 GMT-0600 (Central Standard Time),882646.8000000119,A,w,I,w,15760,1,15778.300000011921,866868.5,8015,WL,C,13.0
7,46.16799998283386,immed,13832.000017166138,Tue Jan 28 2025 13:16:35 GMT-0600 (Central Standard Time),882846.400000006,A,wh,I,h,180,1,15977.90000000596,866868.5,8015,WL,C,13.0
7,46.568000078201294,immed,13431.999921798706,Tue Jan 28 2025 13:16:35 GMT-0600 (Central Standard Time),883246.5,A,whe,I,e,389,1,16378.0,866868.5,8015,WL,C,13.0
7,46.75099992752075,immed,13249.000072479248,Tue Jan 28 2025 13:16:35 GMT-0600 (Central Standard Time),883429.8000000119,A,whea,I,a,173,1,16561.30000001192,866868.5,8015,WL,C,13.0
7,46.98399996757507,immed,13016.000032424927,Tue Jan 28 2025 13:16:35 GMT-0600 (Central Standard Time),883662.700000003,A,wheat,I,t,222,1,16794.20000000298,866868.5,8015,WL,C,13.0
7,47.51799988746643,immed,12482.00011253357,Tue Jan 28 2025 13:16:35 GMT-0600 (Central Standard Time),884196.0,A,wheatenter,I,enter,517,1,17327.5,866868.5,8015,WL,C,13.0
7,52.532999992370605,immed,7467.0000076293945,Tue Jan 28 2025 13:16:35 GMT-0600 (Central Standard Time),889211.200000003,A,c,I,c,5008,1,5014.899999991059,884196.3000000119,8015,WL,C,14.0
7,52.74900007247925,immed,7250.999927520752,Tue Jan 28 2025 13:16:35 GMT-0600 (Central Standard Time),889427.6000000089,A,co,I,o,201,1,5231.29999999702,884196.3000000119,8015,WL,C,14.0
7,52.93299984931946,immed,7067.000150680542,Tue Jan 28 2025 13:16:35 GMT-0600 (Central Standard Time),889611.0,A,cor,I,r,168,1,5414.699999988079,884196.3000000119,8015,WL,C,14.0
7,53.098999977111816,immed,6901.000022888184,Tue Jan 28 2025 13:16:35 GMT-0600 (Central Standard Time),889777.700000003,A,corn,I,n,145,1,5581.399999991059,884196.3000000119,8015,WL,C,14.0
7,53.448999881744385,immed,6551.000118255615,Tue Jan 28 2025 13:16:35 GMT-0600 (Central Standard Time),890127.6000000089,A,cornenter,I,enter,338,1,5931.29999999702,884196.3000000119,8015,WL,C,14.0
7,60.01300001144409,immed,-13.000011444091797,Tue Jan 28 2025 13:16:35 GMT-0600 (Central Standard Time),896692.3000000119,A,None,I,None,6557,1,6564.4000000059605,890127.900000006,8015,WL,C,15.0
