acc_sum,block,block_c,condition,correct,correct_response,datetime,endtime,flanker,jitter,project,response,response_test_buffer_response,response_test_target_response,response_time,response_time_test_buffer_response,response_time_test_target_response,row_sel,session_number,start_end,starttime,subject_id,target,task,task_vers,time_test_buffer,time_test_buffer_response,time_test_constants,time_test_flanker,time_test_jitter,time_test_logger,time_test_target,time_test_target_response,time_test_variables,trial
0,prac,1,inc,0,z,Thu Apr 03 2025 15:40:00 GMT-0500 (Central Daylight Time),73324.09999999404,napkin,1100,O,m,,,889,,,12,1,3296.0999999940395,70028.0,7110,friend,AF,C,,,,,,,,,,1
1,prac,1,inc,1,m,Thu Apr 03 2025 15:40:00 GMT-0500 (Central Daylight Time),76321.5,brutal,1100,O,m,,,583,,,8,1,2990.5,73331.0,7110,window,AF,C,,,,,,,,,,2
2,prac,1,inc,1,z,Thu Apr 03 2025 15:40:00 GMT-0500 (Central Daylight Time),79253.0,window,1100,O,z,,,518,,,16,1,2924.0,76329.0,7110,temper,AF,C,,,,,,,,,,3
3,prac,1,inc,1,m,Thu Apr 03 2025 15:40:00 GMT-0500 (Central Daylight Time),82036.59999999404,elated,900,O,m,,,571,,,6,1,2779.1999999955297,79257.39999999851,7110,napkin,AF,C,,,,,,,,,,4
4,prac,1,inc,1,m,Thu Apr 03 2025 15:40:00 GMT-0500 (Central Daylight Time),85151.5,hate,1100,O,m,,,710,,,4,1,3109.10000000149,82042.39999999851,7110,film,AF,C,,,,,,,,,,5
5,prac,1,con,1,m,Thu Apr 03 2025 15:40:00 GMT-0500 (Central Daylight Time),88001.19999999553,remote,1000,O,m,,,533,,,7,1,2843.5,85157.69999999553,7110,remote,AF,C,,,,,,,,,,6
6,prac,1,inc,1,z,Thu Apr 03 2025 15:40:00 GMT-0500 (Central Daylight Time),90716.79999999702,film,900,O,z,,,501,,,14,1,2709.89999999851,88006.89999999851,7110,hate,AF,C,,,,,,,,,,7
7,prac,1,con,1,z,Thu Apr 03 2025 15:40:00 GMT-0500 (Central Daylight Time),93365.69999999553,brutal,800,O,z,,,560,,,13,1,2641.2999999970198,90724.39999999851,7110,brutal,AF,C,,,,,,,,,,8
8,prac,1,inc,1,z,Thu Apr 03 2025 15:40:00 GMT-0500 (Central Daylight Time),96182.59999999404,rock,900,O,z,,,611,,,10,1,2811.89999999851,93370.69999999553,7110,kind,AF,C,,,,,,,,,,9
8,prac,1,con,0,z,Thu Apr 03 2025 15:40:00 GMT-0500 (Central Daylight Time),98864.59999999404,elated,800,O,m,,,567,,,9,1,2676.89999999851,96187.69999999553,7110,elated,AF,C,,,,,,,,,,10
9,prac,1,con,1,z,Thu Apr 03 2025 15:40:00 GMT-0500 (Central Daylight Time),101646.5,love,1000,O,z,,,477,,,11,1,2774.9000000059605,98871.59999999404,7110,love,AF,C,,,,,,,,,,11
10,prac,1,con,1,m,Thu Apr 03 2025 15:40:00 GMT-0500 (Central Daylight Time),104728.79999999702,bell,1000,O,m,,,781,,,3,1,3076.10000000149,101652.69999999553,7110,bell,AF,C,,,,,,,,,,12
11,prac,1,con,1,m,Thu Apr 03 2025 15:40:00 GMT-0500 (Central Daylight Time),107292.59999999404,step,800,O,m,,,451,,,1,1,2555.7999999970198,104736.79999999702,7110,step,AF,C,,,,,,,,,,13
12,prac,1,con,1,z,Thu Apr 03 2025 15:40:00 GMT-0500 (Central Daylight Time),109977.09999999404,rage,1000,O,z,,,384,,,15,1,2680.6999999955297,107296.39999999851,7110,rage,AF,C,,,,,,,,,,14
13,prac,1,inc,1,m,Thu Apr 03 2025 15:40:00 GMT-0500 (Central Daylight Time),112827.5,kind,900,O,m,,,651,,,2,1,2844.4000000059605,109983.09999999404,7110,rock,AF,C,,,,,,,,,,15
14,prac,1,con,1,m,Thu Apr 03 2025 15:40:00 GMT-0500 (Central Daylight Time),115574.79999999702,jacket,800,O,m,,,634,,,5,1,2741.5,112833.29999999702,7110,jacket,AF,C,,,,,,,,,,16
1,test,1,con,1,z,Thu Apr 03 2025 15:40:00 GMT-0500 (Central Daylight Time),127838.0,friend,900,O,z,z,None,420,220.0,200.0,26,1,1859.1000000014901,125978.89999999851,7110,friend,AF,C,125002,125002,123375,124286,123375,125234,124801,124801,125234,1
2,test,1,con,1,z,Thu Apr 03 2025 15:40:00 GMT-0500 (Central Daylight Time),129555.5,hate,800,O,z,z,None,398,183.0,215.0,41,1,1712.4000000059605,127843.09999999404,7110,hate,AF,C,126768,126768,125239,126051,125240,126952,126552,126552,126951,2
2,test,1,inc,0,z,Thu Apr 03 2025 15:40:00 GMT-0500 (Central Daylight Time),131569.59999999404,napkin,900,O,m,m,None,575,374.0,201.0,38,1,2008.1999999955297,129561.39999999851,7110,brutal,AF,C,128584,128584,126957,127868,126958,128966,128382,128382,128966,3
3,test,1,inc,1,m,Thu Apr 03 2025 15:40:00 GMT-0500 (Central Daylight Time),133702.59999999404,love,1000,O,m,m,None,586,386.0,200.0,79,1,2127.1999999955297,131575.3999999985,7110,rock,AF,C,130700,130700,128971,129984,128972,131099,130500,130500,131099,4
3,test,1,con,0,m,Thu Apr 03 2025 15:40:00 GMT-0500 (Central Daylight Time),135718.79999999702,rock,1100,O,z,z,None,369,169.0,200.0,76,1,2011.0,133707.79999999702,7110,rock,AF,C,132933,132933,131104,132215,131104,133115,132731,132732,133115,5
4,test,1,con,1,m,Thu Apr 03 2025 15:40:00 GMT-0500 (Central Daylight Time),137752.3999999985,remote,900,O,m,m,None,585,386.0,199.0,114,1,2027.1000000014901,135725.29999999702,7110,remote,AF,C,134748,134748,133121,134032,133122,135149,134548,134548,135148,6
5,test,1,inc,1,z,Thu Apr 03 2025 15:40:00 GMT-0500 (Central Daylight Time),139550.29999999702,jacket,800,O,z,z,None,467,253.0,214.0,61,1,1793.3999999985099,137756.8999999985,7110,temper,AF,C,136681,136681,135153,135964,135153,136946,136466,136466,136946,7
6,test,1,con,1,z,Thu Apr 03 2025 15:40:00 GMT-0500 (Central Daylight Time),141666.3999999985,love,1100,O,z,z,None,490,276.0,214.0,20,1,2110.10000000149,139556.29999999702,7110,love,AF,C,138779,138779,136952,138063,136953,139063,138564,138564,139062,8
7,test,1,inc,1,m,Thu Apr 03 2025 15:40:00 GMT-0500 (Central Daylight Time),143667.79999999702,kind,900,O,m,m,None,580,366.0,214.0,70,1,1996.1000000014901,141671.69999999553,7110,step,AF,C,140697,140697,139068,139980,139068,141064,140482,140482,141064,9
7,test,1,con,0,m,Thu Apr 03 2025 15:40:00 GMT-0500 (Central Daylight Time),145782.59999999404,window,1100,O,z,z,None,479,280.0,199.0,124,1,2109.39999999851,143673.19999999553,7110,window,AF,C,142895,142895,141069,142180,141070,143179,142696,142696,143179,10
8,test,1,inc,1,m,Thu Apr 03 2025 15:40:00 GMT-0500 (Central Daylight Time),147816.79999999702,brutal,900,O,m,m,None,585,386.0,199.0,102,1,2029.6000000014901,145787.19999999553,7110,jacket,AF,C,144812,144812,143183,144095,143184,145213,144612,144612,145213,11
9,test,1,inc,1,z,Thu Apr 03 2025 15:40:00 GMT-0500 (Central Daylight Time),149831.29999999702,jacket,800,O,z,z,None,670,469.0,201.0,29,1,2008.7000000029802,147822.59999999404,7110,friend,AF,C,146746,146746,145219,146029,145219,147227,146545,146545,147227,12
10,test,1,inc,1,m,Thu Apr 03 2025 15:40:00 GMT-0500 (Central Daylight Time),151914.29999999702,brutal,900,O,m,m,None,641,442.0,199.0,110,1,2076.7999999970198,149837.5,7110,napkin,AF,C,148860,148860,147234,148145,147234,149310,148661,148661,149310,13
10,test,1,inc,0,m,Thu Apr 03 2025 15:40:00 GMT-0500 (Central Daylight Time),153895.69999999553,brutal,900,O,z,z,None,533,318.0,215.0,126,1,1976.6999999955297,151919.0,7110,window,AF,C,150960,150960,149315,150226,149315,151292,150744,150744,151292,14
11,test,1,inc,1,m,Thu Apr 03 2025 15:40:00 GMT-0500 (Central Daylight Time),155995.8999999985,temper,1000,O,m,m,None,557,358.0,199.0,111,1,2093.5,153902.3999999985,7110,napkin,AF,C,153025,153025,151298,152310,151299,153392,152825,152826,153392,15
12,test,1,inc,1,m,Thu Apr 03 2025 15:40:00 GMT-0500 (Central Daylight Time),158077.0,kind,900,O,m,m,None,644,429.0,215.0,78,1,2075.7000000029802,156001.29999999702,7110,rock,AF,C,155040,155041,153397,154309,153398,155473,154825,154825,155473,16
13,test,1,inc,1,z,Thu Apr 03 2025 15:40:00 GMT-0500 (Central Daylight Time),160126.79999999702,bell,1000,O,z,z,None,502,301.0,201.0,15,1,2042.7000000029802,158084.09999999404,7110,kind,AF,C,157209,157209,155480,156492,155481,157523,157007,157007,157523,17
14,test,1,con,1,m,Thu Apr 03 2025 15:40:00 GMT-0500 (Central Daylight Time),162277.29999999702,bell,1000,O,m,m,None,603,404.0,199.0,83,1,2140.5,160136.79999999702,7110,bell,AF,C,159258,159258,157533,158542,157533,159673,159058,159058,159673,18
15,test,1,inc,1,m,Thu Apr 03 2025 15:40:00 GMT-0500 (Central Daylight Time),164178.79999999702,elated,800,O,m,m,None,551,333.0,218.0,101,1,1896.2000000029802,162282.59999999404,7110,jacket,AF,C,161225,161225,159679,160491,159679,161575,161007,161007,161575,19
16,test,1,inc,1,m,Thu Apr 03 2025 15:40:00 GMT-0500 (Central Daylight Time),166409.19999999553,friend,1100,O,m,m,None,582,365.0,217.0,104,1,2224.5,164184.69999999553,7110,jacket,AF,C,163424,163424,161581,162690,161581,163805,163207,163207,163805,20
17,test,1,con,1,z,Thu Apr 03 2025 15:40:00 GMT-0500 (Central Daylight Time),168277.19999999553,rage,800,O,z,z,None,534,335.0,199.0,49,1,1863.5,166413.69999999553,7110,rage,AF,C,165338,165338,163810,164622,163810,165673,165139,165139,165673,21
18,test,1,inc,1,m,Thu Apr 03 2025 15:40:00 GMT-0500 (Central Daylight Time),170540.59999999404,hate,1100,O,m,m,None,645,431.0,214.0,88,1,2257.7999999970198,168282.79999999702,7110,bell,AF,C,167505,167505,165679,166787,165679,167937,167291,167291,167937,22
19,test,1,inc,1,z,Thu Apr 03 2025 15:40:00 GMT-0500 (Central Daylight Time),172657.29999999702,window,1100,O,z,z,None,490,275.0,215.0,40,1,2111.5,170545.79999999702,7110,brutal,AF,C,169772,169772,167942,169054,167942,170054,169556,169556,170053,23
20,test,1,con,1,m,Thu Apr 03 2025 15:40:00 GMT-0500 (Central Daylight Time),174708.09999999404,bell,900,O,m,m,None,617,416.0,201.0,82,1,2045.0,172663.09999999404,7110,bell,AF,C,171688,171688,170059,170972,170060,172104,171486,171486,172104,24
21,test,1,con,1,m,Thu Apr 03 2025 15:40:00 GMT-0500 (Central Daylight Time),176522.8999999985,step,800,O,m,m,None,475,276.0,199.0,65,1,1809.5,174713.3999999985,7110,step,AF,C,173635,173635,172109,172918,172110,173919,173436,173436,173919,25
22,test,1,con,1,z,Thu Apr 03 2025 15:40:00 GMT-0500 (Central Daylight Time),178505.29999999702,elated,900,O,z,z,None,532,317.0,215.0,2,1,1977.6000000014901,176527.69999999553,7110,elated,AF,C,175569,175569,173924,174836,173924,175901,175354,175354,175901,26
23,test,1,con,1,m,Thu Apr 03 2025 15:40:00 GMT-0500 (Central Daylight Time),180521.59999999404,remote,1000,O,m,m,None,469,269.0,200.0,115,1,2012.5,178509.09999999404,7110,remote,AF,C,177635,177635,175905,176919,175905,177918,177435,177435,177918,27
24,test,1,con,1,m,Thu Apr 03 2025 15:40:00 GMT-0500 (Central Daylight Time),182737.59999999404,film,1100,O,m,m,None,567,368.0,199.0,92,1,2209.5,180528.09999999404,7110,film,AF,C,179751,179751,177924,179033,177925,180134,179551,179551,180134,28
25,test,1,con,1,z,Thu Apr 03 2025 15:40:00 GMT-0500 (Central Daylight Time),184437.19999999553,love,800,O,z,z,None,351,151.0,200.0,17,1,1695.5,182741.69999999553,7110,love,AF,C,181667,181667,180138,180951,180138,181833,181466,181466,181833,29
26,test,1,con,1,m,Thu Apr 03 2025 15:40:00 GMT-0500 (Central Daylight Time),186586.69999999553,remote,1100,O,m,m,None,515,315.0,200.0,116,1,2144.2999999970198,184442.3999999985,7110,remote,AF,C,183667,183667,181838,182949,181839,183983,183466,183466,183983,30
27,test,1,inc,1,z,Thu Apr 03 2025 15:40:00 GMT-0500 (Central Daylight Time),188385.09999999404,jacket,800,O,z,z,None,448,249.0,199.0,5,1,1792.1999999955297,186592.8999999985,7110,elated,AF,C,185517,185517,183989,184799,183989,185781,185317,185317,185781,31
28,test,1,con,1,z,Thu Apr 03 2025 15:40:00 GMT-0500 (Central Daylight Time),190669.3999999985,elated,1100,O,z,z,None,649,450.0,199.0,4,1,2280.60000000149,188388.79999999702,7110,elated,AF,C,187615,187615,185785,186899,185785,188066,187415,187415,188065,32
29,test,1,con,1,m,Thu Apr 03 2025 15:40:00 GMT-0500 (Central Daylight Time),192700.69999999553,jacket,1000,O,m,m,None,496,281.0,215.0,99,1,2025.5,190675.19999999553,7110,jacket,AF,C,189814,189814,188071,189081,188072,190097,189599,189599,190097,33
30,test,1,inc,1,m,Thu Apr 03 2025 15:40:00 GMT-0500 (Central Daylight Time),195032.8999999985,friend,1100,O,m,m,None,683,484.0,199.0,120,1,2327.3000000044703,192705.59999999404,7110,remote,AF,C,191930,191930,190102,191216,190102,192429,191731,191731,192429,34
31,test,1,inc,1,m,Thu Apr 03 2025 15:40:00 GMT-0500 (Central Daylight Time),197032.5,kind,900,O,m,m,None,550,351.0,199.0,86,1,1993.5,195039.0,7110,bell,AF,C,194063,194063,192435,193346,192435,194429,193863,193863,194429,35
32,test,1,inc,1,z,Thu Apr 03 2025 15:40:00 GMT-0500 (Central Daylight Time),198798.59999999404,step,800,O,z,z,None,425,211.0,214.0,53,1,1760.1999999955297,197038.3999999985,7110,rage,AF,C,195979,195979,194434,195248,194435,196195,195764,195764,196195,36
33,test,1,inc,1,m,Thu Apr 03 2025 15:40:00 GMT-0500 (Central Daylight Time),201100.3999999985,hate,1100,O,m,m,None,653,453.0,200.0,96,1,2295.8000000044703,198804.59999999404,7110,film,AF,C,198027,198027,196201,197312,196201,198497,197827,197827,198496,37
34,test,1,con,1,m,Thu Apr 03 2025 15:40:00 GMT-0500 (Central Daylight Time),203212.59999999404,rock,800,O,m,m,None,768,553.0,215.0,73,1,2107.5999999940395,201105.0,7110,rock,AF,C,200045,200045,198501,199312,198501,200609,199828,199829,200609,38
35,test,1,inc,1,m,Thu Apr 03 2025 15:40:00 GMT-0500 (Central Daylight Time),205197.29999999702,elated,800,O,m,m,None,640,440.0,200.0,125,1,1979.7000000029802,203217.59999999404,7110,window,AF,C,202143,202143,200614,201428,200614,202593,201943,201943,202593,39
36,test,1,con,1,z,Thu Apr 03 2025 15:40:00 GMT-0500 (Central Daylight Time),207478.5,rage,900,O,z,z,None,844,645.0,199.0,50,1,2276.3000000044703,205202.19999999553,7110,rage,AF,C,204225,204225,202598,203510,202599,204875,204026,204026,204875,40
37,test,1,inc,1,m,Thu Apr 03 2025 15:40:00 GMT-0500 (Central Daylight Time),209563.3999999985,temper,1000,O,m,m,None,550,351.0,199.0,103,1,2079.3000000044703,207484.09999999404,7110,jacket,AF,C,206608,206608,204880,205892,204881,206959,206409,206409,206959,41
38,test,1,inc,1,m,Thu Apr 03 2025 15:40:00 GMT-0500 (Central Daylight Time),211612.69999999553,love,1000,O,m,m,None,517,317.0,200.0,71,1,2043.7999999970198,209568.8999999985,7110,step,AF,C,208691,208691,206965,207975,206965,209009,208491,208491,209009,42
39,test,1,con,1,m,Thu Apr 03 2025 15:40:00 GMT-0500 (Central Daylight Time),213527.09999999404,window,900,O,m,m,None,492,293.0,199.0,122,1,1909.2999999970198,211617.79999999702,7110,window,AF,C,210625,210625,209014,209923,209014,210923,210425,210425,210923,43
40,test,1,inc,1,m,Thu Apr 03 2025 15:40:00 GMT-0500 (Central Daylight Time),215576.79999999702,elated,800,O,m,m,None,702,502.0,200.0,109,1,2044.0,213532.79999999702,7110,napkin,AF,C,212456,212456,210929,211741,210929,212973,212256,212256,212973,44
41,test,1,con,1,z,Thu Apr 03 2025 15:40:00 GMT-0500 (Central Daylight Time),217809.79999999702,kind,1000,O,z,z,None,699,500.0,199.0,11,1,2227.2999999970198,215582.5,7110,kind,AF,C,214706,214706,212979,213990,212979,215206,214506,214506,215206,45
42,test,1,con,1,m,Thu Apr 03 2025 15:40:00 GMT-0500 (Central Daylight Time),219809.29999999702,rock,1000,O,m,m,None,468,252.0,216.0,75,1,1994.3999999985099,217814.8999999985,7110,rock,AF,C,216938,216938,215211,216221,215212,217205,216722,216722,217205,46
43,test,1,con,1,z,Thu Apr 03 2025 15:40:00 GMT-0500 (Central Daylight Time),222023.8999999985,friend,1100,O,z,z,None,577,375.0,202.0,28,1,2209.8000000044703,219814.09999999404,7110,friend,AF,C,219039,219039,217210,218322,217210,219420,218837,218837,219420,47
44,test,1,con,1,m,Thu Apr 03 2025 15:40:00 GMT-0500 (Central Daylight Time),224041.0,film,1000,O,m,m,None,466,250.0,216.0,91,1,2014.0,222027.0,7110,film,AF,C,221172,221172,219423,220439,219423,221437,220955,220955,221437,48
45,test,1,inc,1,m,Thu Apr 03 2025 15:40:00 GMT-0500 (Central Daylight Time),225907.29999999702,rage,800,O,m,m,None,522,322.0,200.0,77,1,1860.7000000029802,224046.59999999404,7110,rock,AF,C,222971,222971,221443,222254,221443,223303,222771,222771,223303,49
46,test,1,inc,1,z,Thu Apr 03 2025 15:40:00 GMT-0500 (Central Daylight Time),228021.8999999985,remote,1000,O,z,z,None,584,369.0,215.0,39,1,2111.7000000029802,225910.19999999553,7110,brutal,AF,C,225037,225037,223306,224319,223306,225418,224821,224821,225418,50
47,test,1,inc,1,z,Thu Apr 03 2025 15:40:00 GMT-0500 (Central Daylight Time),230069.69999999553,bell,1000,O,z,z,None,509,308.0,201.0,47,1,2043.0,228026.69999999553,7110,hate,AF,C,227153,227153,225423,226436,225423,227466,226952,226952,227466,51
48,test,1,inc,1,z,Thu Apr 03 2025 15:40:00 GMT-0500 (Central Daylight Time),232421.79999999702,remote,1000,O,z,z,None,813,614.0,199.0,31,1,2349.0,230072.79999999702,7110,friend,AF,C,229201,229201,227469,228487,227469,229818,229002,229002,229818,52
49,test,1,con,1,z,Thu Apr 03 2025 15:40:00 GMT-0500 (Central Daylight Time),234404.3999999985,friend,800,O,z,z,None,650,450.0,200.0,25,1,1977.6000000014901,232426.79999999702,7110,friend,AF,C,231350,231350,229823,230634,229823,231800,231150,231150,231800,53
49,test,1,con,0,m,Thu Apr 03 2025 15:40:00 GMT-0500 (Central Daylight Time),236453.3999999985,step,1000,O,z,z,None,519,320.0,199.0,67,1,2043.3999999985099,234410.0,7110,step,AF,C,233518,233518,231806,232817,231806,233849,233319,233319,233849,54
50,test,1,inc,1,z,Thu Apr 03 2025 15:40:00 GMT-0500 (Central Daylight Time),238269.5,step,800,O,z,z,None,476,263.0,213.0,21,1,1812.0,236457.5,7110,love,AF,C,235400,235400,233854,234667,233854,235666,235185,235186,235666,55
50,test,1,con,0,z,Thu Apr 03 2025 15:40:00 GMT-0500 (Central Daylight Time),240135.09999999404,kind,900,O,m,m,None,444,244.0,200.0,10,1,1860.0,238275.09999999404,7110,kind,AF,C,237283,237283,235671,236582,235671,237531,237083,237083,237531,56
51,test,1,inc,1,z,Thu Apr 03 2025 15:40:00 GMT-0500 (Central Daylight Time),242318.09999999404,bell,1000,O,z,z,None,633,433.0,200.0,55,1,2178.6999999955297,240139.3999999985,7110,rage,AF,C,239265,239265,237535,238548,237536,239714,239065,239065,239714,57
52,test,1,inc,1,z,Thu Apr 03 2025 15:40:00 GMT-0500 (Central Daylight Time),244133.3999999985,jacket,800,O,z,z,None,494,295.0,199.0,37,1,1808.2000000029802,242325.19999999553,7110,brutal,AF,C,241231,241231,239721,240531,239722,241529,241032,241032,241529,58
53,test,1,con,1,z,Thu Apr 03 2025 15:40:00 GMT-0500 (Central Daylight Time),246401.3999999985,temper,1100,O,z,z,None,616,416.0,200.0,60,1,2262.2000000029802,244139.19999999553,7110,temper,AF,C,243364,243365,241535,242648,241536,243797,243164,243164,243797,59
54,test,1,inc,1,m,Thu Apr 03 2025 15:40:00 GMT-0500 (Central Daylight Time),248602.09999999404,friend,1100,O,m,m,None,569,369.0,200.0,128,1,2196.6999999955297,246405.3999999985,7110,window,AF,C,245613,245613,243801,244912,243802,245998,245413,245413,245998,60
55,test,1,inc,1,m,Thu Apr 03 2025 15:40:00 GMT-0500 (Central Daylight Time),250483.8999999985,rage,800,O,m,m,None,549,350.0,199.0,93,1,1876.7000000029802,248607.19999999553,7110,film,AF,C,247529,247529,246003,246813,246003,247880,247329,247329,247880,61
56,test,1,inc,1,z,Thu Apr 03 2025 15:40:00 GMT-0500 (Central Daylight Time),252364.8999999985,step,800,O,z,z,None,545,346.0,199.0,45,1,1875.6000000014901,250489.29999999702,7110,hate,AF,C,249412,249412,247885,248696,247886,249761,249212,249212,249761,62
57,test,1,con,1,m,Thu Apr 03 2025 15:40:00 GMT-0500 (Central Daylight Time),254231.3999999985,window,800,O,m,m,None,534,335.0,199.0,121,1,1860.2000000029802,252371.19999999553,7110,window,AF,C,251279,251279,249767,250577,249768,251627,251079,251079,251627,63
58,test,1,con,1,m,Thu Apr 03 2025 15:40:00 GMT-0500 (Central Daylight Time),256313.19999999553,napkin,1000,O,m,m,None,533,334.0,199.0,107,1,2076.7999999970198,254236.3999999985,7110,napkin,AF,C,253360,253360,251632,252644,251633,253709,253160,253160,253709,64
59,test,1,inc,1,z,Thu Apr 03 2025 15:40:00 GMT-0500 (Central Daylight Time),258580.0,window,1100,O,z,z,None,623,423.0,200.0,32,1,2261.60000000149,256318.3999999985,7110,friend,AF,C,255544,255544,253714,254826,253715,255976,255343,255343,255976,65
59,test,1,con,0,z,Thu Apr 03 2025 15:40:00 GMT-0500 (Central Daylight Time),260793.09999999404,kind,1100,O,m,m,None,574,375.0,199.0,12,1,2207.5,258585.59999999404,7110,kind,AF,C,257806,257806,255982,257093,255982,258189,257607,257607,258189,66
60,test,1,inc,1,m,Thu Apr 03 2025 15:40:00 GMT-0500 (Central Daylight Time),262979.5,temper,1000,O,m,m,None,640,425.0,215.0,127,1,2183.10000000149,260796.3999999985,7110,window,AF,C,259941,259941,258192,259209,258193,260376,259726,259726,260375,67
61,test,1,inc,1,z,Thu Apr 03 2025 15:40:00 GMT-0500 (Central Daylight Time),264944.3999999985,step,800,O,z,z,None,617,416.0,201.0,13,1,1960.2000000029802,262984.19999999553,7110,kind,AF,C,261910,261910,260380,261191,260381,262341,261708,261708,262340,68
62,test,1,inc,1,z,Thu Apr 03 2025 15:40:00 GMT-0500 (Central Daylight Time),266993.59999999404,napkin,900,O,z,z,None,615,401.0,214.0,6,1,2044.2999999970198,264949.299999997,7110,elated,AF,C,263973,263973,262345,263256,262346,264390,263758,263758,264390,69
63,test,1,con,1,z,Thu Apr 03 2025 15:40:00 GMT-0500 (Central Daylight Time),269061.19999999553,love,1000,O,z,z,None,533,318.0,215.0,19,1,2062.2999999970198,266998.8999999985,7110,love,AF,C,266139,266139,264395,265409,264395,266457,265924,265924,266457,70
64,test,1,con,1,z,Thu Apr 03 2025 15:40:00 GMT-0500 (Central Daylight Time),271192.0,rage,1100,O,z,z,None,494,294.0,200.0,52,1,2124.60000000149,269067.3999999985,7110,rage,AF,C,268289,268289,266463,267573,266464,268588,268089,268089,268588,71
65,test,1,con,1,m,Thu Apr 03 2025 15:40:00 GMT-0500 (Central Daylight Time),273557.5,step,1100,O,m,m,None,715,516.0,199.0,68,1,2359.9000000059605,271197.59999999404,7110,step,AF,C,270422,270422,268594,269705,268594,270954,270222,270223,270954,72
66,test,1,inc,1,z,Thu Apr 03 2025 15:40:00 GMT-0500 (Central Daylight Time),275676.19999999553,film,1100,O,z,z,None,466,251.0,215.0,56,1,2114.0,273562.19999999553,7110,rage,AF,C,272805,272805,270958,272072,270959,273072,272588,272589,273072,73
67,test,1,con,1,z,Thu Apr 03 2025 15:40:00 GMT-0500 (Central Daylight Time),277557.799999997,temper,800,O,z,z,None,562,349.0,213.0,57,1,1875.2999999970198,275682.5,7110,temper,AF,C,274605,274605,273079,273887,273079,274954,274392,274392,274954,74
68,test,1,con,1,z,Thu Apr 03 2025 15:40:00 GMT-0500 (Central Daylight Time),279407.5,brutal,900,O,z,z,None,403,202.0,201.0,34,1,1842.8000000044703,277564.69999999553,7110,brutal,AF,C,276588,276588,274961,275870,274961,276804,276387,276387,276804,75
69,test,1,con,1,z,Thu Apr 03 2025 15:40:00 GMT-0500 (Central Daylight Time),281256.59999999404,love,900,O,z,z,None,410,194.0,216.0,18,1,1838.0999999940395,279418.5,7110,love,AF,C,278453,278454,276815,277721,276815,278653,278237,278237,278652,76
70,test,1,con,1,z,Thu Apr 03 2025 15:40:00 GMT-0500 (Central Daylight Time),283306.69999999553,temper,1000,O,z,z,None,516,317.0,199.0,59,1,2043.1000000014901,281263.59999999404,7110,temper,AF,C,280385,280385,278660,279670,278660,280703,280186,280186,280703,77
71,test,1,inc,1,m,Thu Apr 03 2025 15:40:00 GMT-0500 (Central Daylight Time),285107.0,rage,800,O,m,m,None,450,250.0,200.0,85,1,1794.3000000044703,283312.69999999553,7110,bell,AF,C,282236,282236,280709,281518,280709,282503,282035,282035,282503,78
72,test,1,inc,1,m,Thu Apr 03 2025 15:40:00 GMT-0500 (Central Daylight Time),287304.799999997,friend,1100,O,m,m,None,550,350.0,200.0,112,1,2190.5,285114.299999997,7110,napkin,AF,C,284336,284336,282510,283617,282511,284701,284135,284135,284701,79
73,test,1,con,1,m,Thu Apr 03 2025 15:40:00 GMT-0500 (Central Daylight Time),289270.19999999553,jacket,800,O,m,m,None,619,420.0,199.0,97,1,1958.8999999985099,287311.299999997,7110,jacket,AF,C,286234,286234,284707,285517,284708,286666,286034,286034,286666,80
74,test,1,inc,1,z,Thu Apr 03 2025 15:40:00 GMT-0500 (Central Daylight Time),291385.59999999404,remote,1000,O,z,z,None,566,366.0,200.0,63,1,2110.39999999851,289275.19999999553,7110,temper,AF,C,288401,288401,286671,287684,286671,288782,288200,288200,288782,81
74,test,1,inc,0,m,Thu Apr 03 2025 15:40:00 GMT-0500 (Central Daylight Time),293418.799999997,brutal,900,O,z,z,None,588,389.0,199.0,118,1,2026.3999999985099,291392.3999999985,7110,remote,AF,C,290416,290416,288788,289700,288789,290815,290216,290216,290815,82
75,test,1,con,1,z,Thu Apr 03 2025 15:40:00 GMT-0500 (Central Daylight Time),295316.8999999985,kind,800,O,z,z,None,551,352.0,199.0,9,1,1892.1000000014901,293424.799999997,7110,kind,AF,C,292349,292350,290821,291633,290821,292713,292150,292150,292713,83
76,test,1,inc,1,z,Thu Apr 03 2025 15:40:00 GMT-0500 (Central Daylight Time),297501.299999997,window,1100,O,z,z,None,538,321.0,217.0,8,1,2177.89999999851,295323.3999999985,7110,elated,AF,C,294565,294565,292719,293832,292720,294897,294348,294348,294897,84
77,test,1,con,1,z,Thu Apr 03 2025 15:40:00 GMT-0500 (Central Daylight Time),299517.5,rage,1000,O,z,z,None,496,297.0,199.0,51,1,2005.9000000059605,297511.59999999404,7110,rage,AF,C,296614,296614,294908,295913,294908,296914,296414,296414,296914,85
78,test,1,inc,1,m,Thu Apr 03 2025 15:40:00 GMT-0500 (Central Daylight Time),301598.19999999553,elated,800,O,m,m,None,737,534.0,203.0,117,1,2074.89999999851,299523.299999997,7110,remote,AF,C,298448,298448,296919,297729,296920,298994,298245,298245,298994,86
79,test,1,inc,1,m,Thu Apr 03 2025 15:40:00 GMT-0500 (Central Daylight Time),303866.0,hate,1100,O,m,m,None,633,433.0,200.0,80,1,2262.0,301604.0,7110,rock,AF,C,300813,300813,299000,300112,299000,301262,300613,300613,301262,87
80,test,1,inc,1,z,Thu Apr 03 2025 15:40:00 GMT-0500 (Central Daylight Time),305931.69999999553,rock,900,O,z,z,None,624,424.0,200.0,22,1,2054.89999999851,303876.799999997,7110,love,AF,C,302894,302894,301273,302179,301273,303328,302694,302694,303328,88
81,test,1,con,1,m,Thu Apr 03 2025 15:40:00 GMT-0500 (Central Daylight Time),308032.799999997,jacket,1100,O,m,m,None,477,277.0,200.0,100,1,2091.2999999970198,305941.5,7110,jacket,AF,C,305145,305145,303338,304444,303338,305429,304945,304945,305429,89
81,test,1,con,0,z,Thu Apr 03 2025 15:40:00 GMT-0500 (Central Daylight Time),309965.0,temper,900,O,m,m,None,501,300.0,201.0,58,1,1924.2000000029802,308040.799999997,7110,temper,AF,C,307061,307061,305437,306345,305437,307361,306860,306860,307361,90
81,test,1,con,0,z,Thu Apr 03 2025 15:40:00 GMT-0500 (Central Daylight Time),312062.0,friend,1000,O,m,m,None,552,353.0,199.0,27,1,2089.7000000029802,309972.299999997,7110,friend,AF,C,309093,309093,307368,308377,307369,309458,308893,308893,309458,91
82,test,1,con,1,z,Thu Apr 03 2025 15:40:00 GMT-0500 (Central Daylight Time),314162.09999999404,hate,1100,O,z,z,None,458,258.0,200.0,44,1,2095.0999999940395,312067.0,7110,hate,AF,C,311292,311292,309463,310576,309463,311558,311092,311092,311558,92
83,test,1,inc,1,z,Thu Apr 03 2025 15:40:00 GMT-0500 (Central Daylight Time),316345.09999999404,bell,1000,O,z,z,None,642,428.0,214.0,23,1,2177.89999999851,314167.19999999553,7110,love,AF,C,313307,313307,311563,312575,311564,313741,313093,313093,313741,93
84,test,1,con,1,z,Thu Apr 03 2025 15:40:00 GMT-0500 (Central Daylight Time),318194.3999999985,brutal,800,O,z,z,None,509,309.0,200.0,33,1,1844.5,316349.8999999985,7110,brutal,AF,C,315274,315274,313746,314559,313746,315590,315074,315074,315590,94
85,test,1,inc,1,m,Thu Apr 03 2025 15:40:00 GMT-0500 (Central Daylight Time),320427.09999999404,hate,1100,O,m,m,None,597,381.0,216.0,72,1,2227.89999999851,318199.19999999553,7110,step,AF,C,317441,317441,315595,316709,315596,317823,317224,317224,317823,95
86,test,1,con,1,m,Thu Apr 03 2025 15:40:00 GMT-0500 (Central Daylight Time),322676.3999999985,napkin,800,O,m,m,None,915,716.0,199.0,105,1,2244.10000000149,320432.299999997,7110,napkin,AF,C,319356,319356,317828,318639,317829,320072,319156,319157,320072,96
87,test,1,con,1,m,Thu Apr 03 2025 15:40:00 GMT-0500 (Central Daylight Time),324658.09999999404,jacket,900,O,m,m,None,539,324.0,215.0,98,1,1976.0999999940395,322682.0,7110,jacket,AF,C,321722,321722,320078,320991,320078,322054,321506,321506,322054,97
88,test,1,con,1,z,Thu Apr 03 2025 15:40:00 GMT-0500 (Central Daylight Time),326725.09999999404,elated,800,O,z,z,None,731,531.0,200.0,1,1,2062.39999999851,324662.69999999553,7110,elated,AF,C,323588,323588,322059,322872,322059,324121,323388,323388,324121,98
89,test,1,con,1,z,Thu Apr 03 2025 15:40:00 GMT-0500 (Central Daylight Time),328807.09999999404,brutal,1100,O,z,z,None,435,235.0,200.0,36,1,2075.6999999955297,326731.3999999985,7110,brutal,AF,C,325955,325955,324127,325238,324128,326203,325754,325754,326203,99
89,test,1,con,0,m,Thu Apr 03 2025 15:40:00 GMT-0500 (Central Daylight Time),330673.0,step,900,O,z,z,None,426,227.0,199.0,66,1,1860.2000000029802,328812.799999997,7110,step,AF,C,327836,327836,326209,327121,326210,328069,327637,327637,328069,100
90,test,1,con,1,m,Thu Apr 03 2025 15:40:00 GMT-0500 (Central Daylight Time),332606.799999997,napkin,900,O,m,m,None,511,312.0,199.0,106,1,1929.6000000014901,330677.19999999553,7110,napkin,AF,C,329686,329686,328073,328984,328074,330003,329487,329487,330003,101
91,test,1,con,1,m,Thu Apr 03 2025 15:40:00 GMT-0500 (Central Daylight Time),334575.19999999553,rock,900,O,m,m,None,534,334.0,200.0,74,1,1964.1000000014901,332611.09999999404,7110,rock,AF,C,331637,331637,330007,330919,330008,331971,331436,331436,331971,102
92,test,1,inc,1,m,Thu Apr 03 2025 15:40:00 GMT-0500 (Central Daylight Time),336655.19999999553,temper,1000,O,m,m,None,542,343.0,199.0,119,1,2075.5,334579.69999999553,7110,remote,AF,C,333703,333703,331976,332985,331976,334051,333502,333503,334051,103
93,test,1,inc,1,z,Thu Apr 03 2025 15:40:00 GMT-0500 (Central Daylight Time),338856.3999999985,film,1100,O,z,z,None,553,353.0,200.0,24,1,2197.3000000044703,336659.09999999404,7110,love,AF,C,335885,335885,334055,335170,334055,336252,335684,335684,336252,104
94,test,1,con,1,m,Thu Apr 03 2025 15:40:00 GMT-0500 (Central Daylight Time),340770.5,film,800,O,m,m,None,574,374.0,200.0,89,1,1910.0,338860.5,7110,film,AF,C,337785,337785,336257,337067,336257,338167,337584,337584,338167,105
95,test,1,inc,1,m,Thu Apr 03 2025 15:40:00 GMT-0500 (Central Daylight Time),342952.299999997,love,1000,O,m,m,None,642,442.0,200.0,87,1,2177.2000000029802,340775.09999999404,7110,bell,AF,C,339900,339900,338171,339184,338172,340348,339700,339700,340348,106
96,test,1,inc,1,z,Thu Apr 03 2025 15:40:00 GMT-0500 (Central Daylight Time),344920.299999997,napkin,900,O,z,z,None,519,319.0,200.0,62,1,1964.5,342955.799999997,7110,temper,AF,C,341983,341983,340352,341266,340352,342316,341783,341783,342316,107
97,test,1,inc,1,m,Thu Apr 03 2025 15:40:00 GMT-0500 (Central Daylight Time),346784.8999999985,rage,800,O,m,m,None,538,325.0,213.0,69,1,1859.8000000044703,344925.09999999404,7110,step,AF,C,343849,343849,342321,343133,342321,344181,343636,343636,344181,108
98,test,1,inc,1,m,Thu Apr 03 2025 15:40:00 GMT-0500 (Central Daylight Time),349068.19999999553,kind,900,O,m,m,None,837,622.0,215.0,94,1,2277.6999999955297,346790.5,7110,film,AF,C,345832,345832,344187,345097,344187,346464,345616,345616,346464,109
99,test,1,con,1,z,Thu Apr 03 2025 15:40:00 GMT-0500 (Central Daylight Time),351250.8999999985,elated,1000,O,z,z,None,658,459.0,199.0,3,1,2177.8000000044703,349073.09999999404,7110,elated,AF,C,348180,348180,346469,347480,346469,348647,347981,347981,348647,110
100,test,1,con,1,z,Thu Apr 03 2025 15:40:00 GMT-0500 (Central Daylight Time),353199.799999997,hate,900,O,z,z,None,501,301.0,200.0,42,1,1943.2999999970198,351256.5,7110,hate,AF,C,350281,350281,348653,349564,348653,350596,350080,350080,350596,111
101,test,1,con,1,m,Thu Apr 03 2025 15:40:00 GMT-0500 (Central Daylight Time),354932.0,remote,800,O,m,m,None,388,189.0,199.0,113,1,1727.0,353205.0,7110,remote,AF,C,352129,352129,350601,351413,350601,352328,351929,351929,352328,112
102,test,1,con,1,z,Thu Apr 03 2025 15:40:00 GMT-0500 (Central Daylight Time),357083.19999999553,hate,1000,O,z,z,None,617,416.0,201.0,43,1,2147.39999999851,354935.799999997,7110,hate,AF,C,354063,354063,352332,353346,352332,354479,353861,353861,354479,113
103,test,1,con,1,m,Thu Apr 03 2025 15:40:00 GMT-0500 (Central Daylight Time),358997.799999997,window,1000,O,m,m,None,381,180.0,201.0,123,1,1909.5,357088.299999997,7110,window,AF,C,356211,356211,354484,355495,354485,356394,356010,356010,356394,114
104,test,1,inc,1,z,Thu Apr 03 2025 15:40:00 GMT-0500 (Central Daylight Time),360946.299999997,napkin,900,O,z,z,None,506,307.0,199.0,30,1,1943.7999999970198,359002.5,7110,friend,AF,C,358027,358027,356399,357311,356399,358342,357828,357828,358342,115
105,test,1,inc,1,z,Thu Apr 03 2025 15:40:00 GMT-0500 (Central Daylight Time),362979.799999997,rock,900,O,z,z,None,613,397.0,216.0,14,1,2029.2000000029802,360950.59999999404,7110,kind,AF,C,359978,359978,358347,359259,358347,360376,359761,359761,360376,116
106,test,1,inc,1,z,Thu Apr 03 2025 15:40:00 GMT-0500 (Central Daylight Time),365162.59999999404,film,1100,O,z,z,None,532,318.0,214.0,48,1,2177.5,362985.09999999404,7110,hate,AF,C,362225,362225,360381,361493,360381,362559,362010,362010,362559,117
107,test,1,con,1,m,Thu Apr 03 2025 15:40:00 GMT-0500 (Central Daylight Time),367479.0,bell,1100,O,m,m,None,670,469.0,201.0,84,1,2312.5,365166.5,7110,bell,AF,C,364393,364393,362563,363676,362563,364875,364192,364192,364875,118
108,test,1,inc,1,z,Thu Apr 03 2025 15:40:00 GMT-0500 (Central Daylight Time),369629.09999999404,window,1100,O,z,z,None,518,317.0,201.0,64,1,2145.1999999955297,367483.8999999985,7110,temper,AF,C,366708,366708,364880,365992,364880,367025,366507,366507,367025,119
109,test,1,con,1,z,Thu Apr 03 2025 15:40:00 GMT-0500 (Central Daylight Time),371694.0,brutal,1000,O,z,z,None,534,320.0,214.0,35,1,2059.7000000029802,369634.299999997,7110,brutal,AF,C,368758,368758,367030,368040,367031,369090,368543,368543,369090,120
110,test,1,inc,1,m,Thu Apr 03 2025 15:40:00 GMT-0500 (Central Daylight Time),373775.799999997,love,1000,O,m,m,None,558,344.0,214.0,95,1,2076.7000000029802,371699.09999999404,7110,film,AF,C,370823,370823,369095,370106,369096,371172,370609,370609,371172,121
111,test,1,con,1,m,Thu Apr 03 2025 15:40:00 GMT-0500 (Central Daylight Time),375960.19999999553,napkin,1100,O,m,m,None,557,346.0,211.0,108,1,2180.10000000149,373780.09999999404,7110,napkin,AF,C,373005,373005,371176,372290,371176,373356,372793,372793,373356,122
112,test,1,con,1,m,Thu Apr 03 2025 15:40:00 GMT-0500 (Central Daylight Time),377708.69999999553,bell,800,O,m,m,None,421,206.0,215.0,81,1,1743.1999999955297,375965.5,7110,bell,AF,C,374888,374888,373362,374171,373362,375105,374673,374673,375105,123
113,test,1,con,1,m,Thu Apr 03 2025 15:40:00 GMT-0500 (Central Daylight Time),379574.299999997,film,900,O,m,m,None,419,220.0,199.0,90,1,1860.8999999985099,377713.3999999985,7110,film,AF,C,376738,376738,375109,376022,375110,376970,376539,376539,376970,124
114,test,1,inc,1,z,Thu Apr 03 2025 15:40:00 GMT-0500 (Central Daylight Time),381440.8999999985,rock,900,O,z,z,None,427,225.0,202.0,46,1,1860.8999999985099,379580.0,7110,hate,AF,C,378605,378605,376976,377887,376976,378837,378403,378403,378837,125
115,test,1,inc,1,z,Thu Apr 03 2025 15:40:00 GMT-0500 (Central Daylight Time),383772.299999997,film,1100,O,z,z,None,697,482.0,215.0,16,1,2327.2999999970198,381445.0,7110,kind,AF,C,380671,380671,378841,379953,378841,381168,380455,380455,381168,126
116,test,1,inc,1,z,Thu Apr 03 2025 15:40:00 GMT-0500 (Central Daylight Time),385692.0,rock,900,O,z,z,None,468,269.0,199.0,54,1,1912.8000000044703,383779.19999999553,7110,rage,AF,C,382802,382802,381175,382087,381176,383088,382603,382603,383088,127
117,test,1,inc,1,z,Thu Apr 03 2025 15:40:00 GMT-0500 (Central Daylight Time),387905.59999999404,remote,1000,O,z,z,None,677,476.0,201.0,7,1,2207.89999999851,385697.69999999553,7110,elated,AF,C,384819,384819,383094,384103,383094,385302,384618,384618,385302,128
