block_c,block_dur,condition,countdown,datetime,endtime,list,multichar_response,project,response,response_time,session_number,start_end,starttime,subject_id,task,task_vers,trial
,,,,Mon Mar 03 2025 15:34:15 GMT-0600 (Central Standard Time),,,,O,space,2043,1,,,7053,WL,A,
prac,,0,,Mon Mar 03 2025 15:34:15 GMT-0600 (Central Standard Time),,NA,b,O,b,1700,1,,,7053,WL,A,1.0
prac,,0,,Mon Mar 03 2025 15:34:15 GMT-0600 (Central Standard Time),,NA,bo,O,o,187,1,,,7053,WL,A,1.0
prac,,0,,Mon Mar 03 2025 15:34:15 GMT-0600 (Central Standard Time),,NA,boo,O,o,131,1,,,7053,WL,A,1.0
prac,,0,,Mon Mar 03 2025 15:34:15 GMT-0600 (Central Standard Time),,NA,boos,O,s,94,1,,,7053,WL,A,1.0
prac,,0,,Mon Mar 03 2025 15:34:15 GMT-0600 (Central Standard Time),,NA,boost,O,t,138,1,,,7053,WL,A,1.0
prac,,0,,Mon Mar 03 2025 15:34:15 GMT-0600 (Central Standard Time),,NA,boostenter,O,enter,556,1,,,7053,WL,A,1.0
1,0.8659999370574951,learn,59134.000062942505,Mon Mar 03 2025 15:34:15 GMT-0600 (Central Standard Time),168056.7000000002,A,b,O,b,846,1,865.9000000003725,167190.7999999998,7053,WL,A,1.0
1,1.2660000324249268,learn,58733.99996757507,Mon Mar 03 2025 15:34:15 GMT-0600 (Central Standard Time),168456.5,A,bo,O,o,379,1,1265.7000000001863,167190.7999999998,7053,WL,A,1.0
1,1.4490001201629639,learn,58550.999879837036,Mon Mar 03 2025 15:34:15 GMT-0600 (Central Standard Time),168639.7999999998,A,boo,O,o,164,1,1449.0,167190.7999999998,7053,WL,A,1.0
1,1.5320000648498535,learn,58467.99993515015,Mon Mar 03 2025 15:34:15 GMT-0600 (Central Standard Time),168723.09999999963,A,book,O,k,76,1,1532.2999999998137,167190.7999999998,7053,WL,A,1.0
1,2.8320000171661377,learn,57167.99998283386,Mon Mar 03 2025 15:34:15 GMT-0600 (Central Standard Time),170022.7999999998,A,bookm,O,m,1290,1,2832.0,167190.7999999998,7053,WL,A,1.0
1,2.9820001125335693,learn,57017.99988746643,Mon Mar 03 2025 15:34:15 GMT-0600 (Central Standard Time),170172.59999999963,A,bookme,O,e,134,1,2981.7999999998137,167190.7999999998,7053,WL,A,1.0
1,4.031000137329102,learn,55968.9998626709,Mon Mar 03 2025 15:34:15 GMT-0600 (Central Standard Time),171222.2999999998,A,bookm,O,backspace,1040,1,4031.5,167190.7999999998,7053,WL,A,1.0
1,4.215000152587891,learn,55784.99984741211,Mon Mar 03 2025 15:34:15 GMT-0600 (Central Standard Time),171405.5,A,book,O,backspace,174,1,4214.700000000186,167190.7999999998,7053,WL,A,1.0
1,4.748000144958496,learn,55251.999855041504,Mon Mar 03 2025 15:34:15 GMT-0600 (Central Standard Time),171939.0,A,bookm,O,m,528,1,4748.200000000186,167190.7999999998,7053,WL,A,1.0
1,4.865000009536743,learn,55134.99999046326,Mon Mar 03 2025 15:34:15 GMT-0600 (Central Standard Time),172055.5,A,bookme,O,e,105,1,4864.700000000186,167190.7999999998,7053,WL,A,1.0
1,5.364000082015991,learn,54635.99991798401,Mon Mar 03 2025 15:34:15 GMT-0600 (Central Standard Time),172555.5,A,bookm,O,backspace,484,1,5364.700000000186,167190.7999999998,7053,WL,A,1.0
1,5.531000137329102,learn,54468.9998626709,Mon Mar 03 2025 15:34:15 GMT-0600 (Central Standard Time),172721.90000000037,A,book,O,backspace,153,1,5531.100000000559,167190.7999999998,7053,WL,A,1.0
1,5.88100004196167,learn,54118.99995803833,Mon Mar 03 2025 15:34:15 GMT-0600 (Central Standard Time),173071.7999999998,A,bookenter,O,enter,331,1,5881.0,167190.7999999998,7053,WL,A,1.0
1,6.46399998664856,learn,53536.00001335144,Mon Mar 03 2025 15:34:15 GMT-0600 (Central Standard Time),173655.0,A,m,O,m,573,1,582.7999999998137,173072.2000000002,7053,WL,A,2.0
1,6.564000129699707,learn,53435.99987030029,Mon Mar 03 2025 15:34:15 GMT-0600 (Central Standard Time),173754.7000000002,A,me,O,e,94,1,682.5,173072.2000000002,7053,WL,A,2.0
1,6.730999946594238,learn,53269.00005340576,Mon Mar 03 2025 15:34:15 GMT-0600 (Central Standard Time),173921.5,A,mea,O,a,146,1,849.2999999998137,173072.2000000002,7053,WL,A,2.0
1,6.8470001220703125,learn,53152.99987792969,Mon Mar 03 2025 15:34:15 GMT-0600 (Central Standard Time),174038.2000000002,A,mead,O,d,107,1,966.0,173072.2000000002,7053,WL,A,2.0
1,7.130000114440918,learn,52869.99988555908,Mon Mar 03 2025 15:34:15 GMT-0600 (Central Standard Time),174321.2999999998,A,meado,O,o,262,1,1249.0999999996275,173072.2000000002,7053,WL,A,2.0
1,7.297000169754028,learn,52702.99983024597,Mon Mar 03 2025 15:34:15 GMT-0600 (Central Standard Time),174488.09999999963,A,meadow,O,w,147,1,1415.8999999994412,173072.2000000002,7053,WL,A,2.0
1,7.480000019073486,learn,52519.999980926514,Mon Mar 03 2025 15:34:15 GMT-0600 (Central Standard Time),174671.2999999998,A,meadowenter,O,enter,165,1,1599.0999999996275,173072.2000000002,7053,WL,A,2.0
1,7.697000026702881,learn,52302.99997329712,Mon Mar 03 2025 15:34:15 GMT-0600 (Central Standard Time),174888.0,A,t,O,t,206,1,216.20000000018626,174671.7999999998,7053,WL,A,3.0
1,7.763999938964844,learn,52236.000061035156,Mon Mar 03 2025 15:34:15 GMT-0600 (Central Standard Time),174954.5,A,tr,O,r,53,1,282.70000000018626,174671.7999999998,7053,WL,A,3.0
1,7.947000026702881,learn,52052.99997329712,Mon Mar 03 2025 15:34:15 GMT-0600 (Central Standard Time),175137.7999999998,A,tra,O,a,170,1,466.0,174671.7999999998,7053,WL,A,3.0
1,8.064000129699707,learn,51935.99987030029,Mon Mar 03 2025 15:34:15 GMT-0600 (Central Standard Time),175254.5,A,trai,O,i,100,1,582.7000000001863,174671.7999999998,7053,WL,A,3.0
1,8.11300015449524,learn,51886.99984550476,Mon Mar 03 2025 15:34:15 GMT-0600 (Central Standard Time),175304.40000000037,A,train,O,n,38,1,632.6000000005588,174671.7999999998,7053,WL,A,3.0
1,8.380000114440918,learn,51619.99988555908,Mon Mar 03 2025 15:34:15 GMT-0600 (Central Standard Time),175571.0,A,trainenter,O,enter,252,1,899.2000000001863,174671.7999999998,7053,WL,A,3.0
1,8.647000074386597,learn,51352.9999256134,Mon Mar 03 2025 15:34:15 GMT-0600 (Central Standard Time),175837.5,A,r,O,r,259,1,266.0,175571.5,7053,WL,A,4.0
1,8.796000003814697,learn,51203.9999961853,Mon Mar 03 2025 15:34:15 GMT-0600 (Central Standard Time),175987.2999999998,A,ra,O,a,144,1,415.79999999981374,175571.5,7053,WL,A,4.0
1,8.946000099182129,learn,51053.99990081787,Mon Mar 03 2025 15:34:15 GMT-0600 (Central Standard Time),176137.40000000037,A,rat,O,t,130,1,565.9000000003725,175571.5,7053,WL,A,4.0
1,9.080000162124634,learn,50919.999837875366,Mon Mar 03 2025 15:34:15 GMT-0600 (Central Standard Time),176270.7999999998,A,ratt,O,t,116,1,699.2999999998137,175571.5,7053,WL,A,4.0
1,9.180000066757202,learn,50819.9999332428,Mon Mar 03 2025 15:34:15 GMT-0600 (Central Standard Time),176370.7000000002,A,rattl,O,l,79,1,799.2000000001863,175571.5,7053,WL,A,4.0
1,9.297000169754028,learn,50702.99983024597,Mon Mar 03 2025 15:34:15 GMT-0600 (Central Standard Time),176487.59999999963,A,rattle,O,e,98,1,916.0999999996275,175571.5,7053,WL,A,4.0
1,9.496000051498413,learn,50503.99994850159,Mon Mar 03 2025 15:34:15 GMT-0600 (Central Standard Time),176687.40000000037,A,rattleenter,O,enter,181,1,1115.9000000003725,175571.5,7053,WL,A,4.0
1,9.796000003814697,learn,50203.9999961853,Mon Mar 03 2025 15:34:15 GMT-0600 (Central Standard Time),176986.90000000037,A,k,O,k,294,1,299.1000000005588,176687.7999999998,7053,WL,A,5.0
1,9.896000146865845,learn,50103.999853134155,Mon Mar 03 2025 15:34:15 GMT-0600 (Central Standard Time),177087.2999999998,A,ke,O,e,81,1,399.5,176687.7999999998,7053,WL,A,5.0
1,10.062999963760376,learn,49937.000036239624,Mon Mar 03 2025 15:34:15 GMT-0600 (Central Standard Time),177253.7999999998,A,key,O,y,150,1,566.0,176687.7999999998,7053,WL,A,5.0
1,10.196000099182129,learn,49803.99990081787,Mon Mar 03 2025 15:34:15 GMT-0600 (Central Standard Time),177387.2999999998,A,keyenter,O,enter,119,1,699.5,176687.7999999998,7053,WL,A,5.0
1,11.213000059127808,learn,48786.99994087219,Mon Mar 03 2025 15:34:15 GMT-0600 (Central Standard Time),178403.59999999963,A,g,O,g,1003,1,1015.8999999994412,177387.7000000002,7053,WL,A,6.0
1,11.345999956130981,learn,48654.00004386902,Mon Mar 03 2025 15:34:15 GMT-0600 (Central Standard Time),178536.7000000002,A,go,O,o,113,1,1149.0,177387.7000000002,7053,WL,A,6.0
1,11.595999956130981,learn,48404.00004386902,Mon Mar 03 2025 15:34:15 GMT-0600 (Central Standard Time),178786.7000000002,A,gol,O,l,244,1,1399.0,177387.7000000002,7053,WL,A,6.0
1,11.796000003814697,learn,48203.9999961853,Mon Mar 03 2025 15:34:15 GMT-0600 (Central Standard Time),178986.90000000037,A,gold,O,d,179,1,1599.2000000001863,177387.7000000002,7053,WL,A,6.0
1,12.196000099182129,learn,47803.99990081787,Mon Mar 03 2025 15:34:15 GMT-0600 (Central Standard Time),179386.59999999963,A,goldenter,O,enter,393,1,1998.8999999994412,177387.7000000002,7053,WL,A,6.0
1,12.628999948501587,learn,47371.00005149841,Mon Mar 03 2025 15:34:15 GMT-0600 (Central Standard Time),179819.7000000002,A,t,O,t,427,1,432.79999999981374,179386.90000000037,7053,WL,A,7.0
1,12.646000146865845,learn,47353.999853134155,Mon Mar 03 2025 15:34:15 GMT-0600 (Central Standard Time),179836.5,A,tr,O,r,10,1,449.59999999962747,179386.90000000037,7053,WL,A,7.0
1,13.361000061035156,learn,46638.999938964844,Mon Mar 03 2025 15:34:15 GMT-0600 (Central Standard Time),180552.7000000002,A,tra,O,a,697,1,1165.7999999998137,179386.90000000037,7053,WL,A,7.0
1,13.594000101089478,learn,46405.99989891052,Mon Mar 03 2025 15:34:15 GMT-0600 (Central Standard Time),180786.2000000002,A,trai,O,i,220,1,1399.2999999998137,179386.90000000037,7053,WL,A,7.0
1,13.694000005722046,learn,46305.999994277954,Mon Mar 03 2025 15:34:15 GMT-0600 (Central Standard Time),180886.09999999963,A,train,O,n,91,1,1499.199999999255,179386.90000000037,7053,WL,A,7.0
1,15.695000171661377,learn,44304.99982833862,Mon Mar 03 2025 15:34:15 GMT-0600 (Central Standard Time),182887.2000000002,A,trainenter,O,enter,1983,1,3500.2999999998137,179386.90000000037,7053,WL,A,7.0
1,16.41000008583069,learn,43589.99991416931,Mon Mar 03 2025 15:34:15 GMT-0600 (Central Standard Time),183601.7999999998,A,c,O,c,693,1,714.2000000001863,182887.59999999963,7053,WL,A,8.0
1,16.526000022888184,learn,43473.99997711182,Mon Mar 03 2025 15:34:15 GMT-0600 (Central Standard Time),183718.5,A,ch,O,h,100,1,830.9000000003725,182887.59999999963,7053,WL,A,8.0
1,16.64300012588501,learn,43356.99987411499,Mon Mar 03 2025 15:34:15 GMT-0600 (Central Standard Time),183834.7999999998,A,chi,O,i,111,1,947.2000000001863,182887.59999999963,7053,WL,A,8.0
1,16.825999975204468,learn,43174.00002479553,Mon Mar 03 2025 15:34:15 GMT-0600 (Central Standard Time),184018.40000000037,A,chim,O,m,171,1,1130.800000000745,182887.59999999963,7053,WL,A,8.0
1,17.026000022888184,learn,42973.99997711182,Mon Mar 03 2025 15:34:15 GMT-0600 (Central Standard Time),184218.40000000037,A,chimn,O,n,187,1,1330.800000000745,182887.59999999963,7053,WL,A,8.0
1,17.093000173568726,learn,42906.999826431274,Mon Mar 03 2025 15:34:15 GMT-0600 (Central Standard Time),184284.90000000037,A,chimne,O,e,51,1,1397.300000000745,182887.59999999963,7053,WL,A,8.0
1,17.409000158309937,learn,42590.99984169006,Mon Mar 03 2025 15:34:15 GMT-0600 (Central Standard Time),184601.40000000037,A,chimney,O,y,304,1,1713.800000000745,182887.59999999963,7053,WL,A,8.0
1,18.276000022888184,learn,41723.99997711182,Mon Mar 03 2025 15:34:15 GMT-0600 (Central Standard Time),185467.90000000037,A,chimneyenter,O,enter,852,1,2580.300000000745,182887.59999999963,7053,WL,A,8.0
1,19.89199995994568,learn,40108.00004005432,Mon Mar 03 2025 15:34:15 GMT-0600 (Central Standard Time),187084.09999999963,A,s,O,s,1609,1,1615.7999999998137,185468.2999999998,7053,WL,A,9.0
1,20.05900001525879,learn,39940.99998474121,Mon Mar 03 2025 15:34:15 GMT-0600 (Central Standard Time),187250.7000000002,A,sa,O,a,146,1,1782.4000000003725,185468.2999999998,7053,WL,A,9.0
1,20.14199995994568,learn,39858.00004005432,Mon Mar 03 2025 15:34:15 GMT-0600 (Central Standard Time),187334.0,A,sal,O,l,76,1,1865.7000000001863,185468.2999999998,7053,WL,A,9.0
1,20.29200005531311,learn,39707.99994468689,Mon Mar 03 2025 15:34:15 GMT-0600 (Central Standard Time),187483.90000000037,A,salt,O,t,135,1,2015.6000000005588,185468.2999999998,7053,WL,A,9.0
1,20.4760000705719,learn,39523.9999294281,Mon Mar 03 2025 15:34:15 GMT-0600 (Central Standard Time),187668.2999999998,A,saltenter,O,enter,177,1,2200.0,185468.2999999998,7053,WL,A,9.0
1,60.01200008392334,learn,-12.000083923339844,Mon Mar 03 2025 15:34:15 GMT-0600 (Central Standard Time),227204.5,A,None,O,None,39531,1,39535.700000000186,187668.7999999998,7053,WL,A,10.0
2,1.0989999771118164,learn,58901.00002288818,Mon Mar 03 2025 15:34:15 GMT-0600 (Central Standard Time),294017.4000000004,A,b,O,b,1089,1,1099.7000000001863,292917.7000000002,7053,WL,A,1.0
2,1.5829999446868896,learn,58417.00005531311,Mon Mar 03 2025 15:34:15 GMT-0600 (Central Standard Time),294500.5999999996,A,bo,O,o,475,1,1582.8999999994412,292917.7000000002,7053,WL,A,1.0
2,1.748999834060669,learn,58251.00016593933,Mon Mar 03 2025 15:34:15 GMT-0600 (Central Standard Time),294667.0,A,boo,O,o,160,1,1749.2999999998137,292917.7000000002,7053,WL,A,1.0
2,1.8320000171661377,learn,58167.99998283386,Mon Mar 03 2025 15:34:15 GMT-0600 (Central Standard Time),294750.2000000002,A,book,O,k,66,1,1832.5,292917.7000000002,7053,WL,A,1.0
2,2.131999969482422,learn,57868.00003051758,Mon Mar 03 2025 15:34:15 GMT-0600 (Central Standard Time),295050.0999999996,A,bookenter,O,enter,287,1,2132.399999999441,292917.7000000002,7053,WL,A,1.0
2,2.4819998741149902,learn,57518.00012588501,Mon Mar 03 2025 15:34:15 GMT-0600 (Central Standard Time),295400.5,A,m,O,m,331,1,350.0,295050.5,7053,WL,A,2.0
2,2.5989999771118164,learn,57401.00002288818,Mon Mar 03 2025 15:34:15 GMT-0600 (Central Standard Time),295516.9000000004,A,me,O,e,101,1,466.40000000037253,295050.5,7053,WL,A,2.0
2,2.815999984741211,learn,57184.00001525879,Mon Mar 03 2025 15:34:15 GMT-0600 (Central Standard Time),295733.5,A,mea,O,a,201,1,683.0,295050.5,7053,WL,A,2.0
2,3.0319998264312744,learn,56968.000173568726,Mon Mar 03 2025 15:34:15 GMT-0600 (Central Standard Time),295950.4000000004,A,mead,O,d,199,1,899.9000000003725,295050.5,7053,WL,A,2.0
2,3.3489999771118164,learn,56651.00002288818,Mon Mar 03 2025 15:34:15 GMT-0600 (Central Standard Time),296266.5999999996,A,meado,O,o,311,1,1216.0999999996275,295050.5,7053,WL,A,2.0
2,3.5319998264312744,learn,56468.000173568726,Mon Mar 03 2025 15:34:15 GMT-0600 (Central Standard Time),296450.0,A,meadow,O,w,170,1,1399.5,295050.5,7053,WL,A,2.0
2,3.7649998664855957,learn,56235.000133514404,Mon Mar 03 2025 15:34:15 GMT-0600 (Central Standard Time),296683.2999999998,A,meadowenter,O,enter,220,1,1632.7999999998137,295050.5,7053,WL,A,2.0
2,3.931999921798706,learn,56068.000078201294,Mon Mar 03 2025 15:34:15 GMT-0600 (Central Standard Time),296849.7000000002,A,a,O,a,146,1,165.79999999981374,296683.9000000004,7053,WL,A,3.0
2,4.047999858856201,learn,55952.0001411438,Mon Mar 03 2025 15:34:15 GMT-0600 (Central Standard Time),296966.4000000004,A,ap,O,p,107,1,282.5,296683.9000000004,7053,WL,A,3.0
2,4.631999969482422,learn,55368.00003051758,Mon Mar 03 2025 15:34:15 GMT-0600 (Central Standard Time),297549.7999999998,A,app,O,p,568,1,865.8999999994412,296683.9000000004,7053,WL,A,3.0
2,5.330999851226807,learn,54669.00014877319,Mon Mar 03 2025 15:34:15 GMT-0600 (Central Standard Time),298249.5,A,appl,O,l,687,1,1565.5999999996275,296683.9000000004,7053,WL,A,3.0
2,5.430999994277954,learn,54569.000005722046,Mon Mar 03 2025 15:34:15 GMT-0600 (Central Standard Time),298349.5,A,apple,O,e,92,1,1665.5999999996275,296683.9000000004,7053,WL,A,3.0
2,5.547999858856201,learn,54452.0001411438,Mon Mar 03 2025 15:34:15 GMT-0600 (Central Standard Time),298466.0,A,appleenter,O,enter,104,1,1782.0999999996275,296683.9000000004,7053,WL,A,3.0
2,5.747999906539917,learn,54252.00009346008,Mon Mar 03 2025 15:34:15 GMT-0600 (Central Standard Time),298665.9000000004,A,r,O,r,187,1,199.6000000005588,298466.2999999998,7053,WL,A,4.0
2,6.013999938964844,learn,53986.000061035156,Mon Mar 03 2025 15:34:15 GMT-0600 (Central Standard Time),298932.4000000004,A,ra,O,a,251,1,466.1000000005588,298466.2999999998,7053,WL,A,4.0
2,6.414999961853027,learn,53585.00003814697,Mon Mar 03 2025 15:34:15 GMT-0600 (Central Standard Time),299332.7000000002,A,r,O,backspace,384,1,866.4000000003725,298466.2999999998,7053,WL,A,4.0
2,6.697999954223633,learn,53302.00004577637,Mon Mar 03 2025 15:34:15 GMT-0600 (Central Standard Time),299615.9000000004,A,,O,backspace,265,1,1149.6000000005588,298466.2999999998,7053,WL,A,4.0
2,6.914999961853027,learn,53085.00003814697,Mon Mar 03 2025 15:34:15 GMT-0600 (Central Standard Time),299832.5,A,t,O,t,205,1,1366.2000000001863,298466.2999999998,7053,WL,A,4.0
2,6.947999954223633,learn,53052.00004577637,Mon Mar 03 2025 15:34:15 GMT-0600 (Central Standard Time),299865.9000000004,A,tr,O,r,21,1,1399.6000000005588,298466.2999999998,7053,WL,A,4.0
2,7.146999835968018,learn,52853.00016403198,Mon Mar 03 2025 15:34:15 GMT-0600 (Central Standard Time),300065.4000000004,A,tra,O,a,179,1,1599.1000000005588,298466.2999999998,7053,WL,A,4.0
2,7.430999994277954,learn,52569.000005722046,Mon Mar 03 2025 15:34:15 GMT-0600 (Central Standard Time),300349.5,A,trai,O,i,278,1,1883.2000000001863,298466.2999999998,7053,WL,A,4.0
2,7.929999828338623,learn,52070.00017166138,Mon Mar 03 2025 15:34:15 GMT-0600 (Central Standard Time),300848.5,A,train,O,n,487,1,2382.2000000001863,298466.2999999998,7053,WL,A,4.0
2,8.162999868392944,learn,51837.000131607056,Mon Mar 03 2025 15:34:15 GMT-0600 (Central Standard Time),301081.9000000004,A,trainenter,O,enter,220,1,2615.600000000559,298466.2999999998,7053,WL,A,4.0
2,8.329999923706055,learn,51670.000076293945,Mon Mar 03 2025 15:34:15 GMT-0600 (Central Standard Time),301248.5,A,g,O,g,155,1,166.0,301082.5,7053,WL,A,5.0
2,8.480000019073486,learn,51519.999980926514,Mon Mar 03 2025 15:34:15 GMT-0600 (Central Standard Time),301398.5,A,go,O,o,133,1,316.0,301082.5,7053,WL,A,5.0
2,8.679999828338623,learn,51320.00017166138,Mon Mar 03 2025 15:34:15 GMT-0600 (Central Standard Time),301598.7000000002,A,gol,O,l,182,1,516.2000000001863,301082.5,7053,WL,A,5.0
2,8.763000011444092,learn,51236.99998855591,Mon Mar 03 2025 15:34:15 GMT-0600 (Central Standard Time),301681.5999999996,A,gold,O,d,70,1,599.0999999996275,301082.5,7053,WL,A,5.0
2,8.995999813079834,learn,51004.000186920166,Mon Mar 03 2025 15:34:15 GMT-0600 (Central Standard Time),301914.5,A,goldenter,O,enter,227,1,832.0,301082.5,7053,WL,A,5.0
2,9.230000019073486,learn,50769.999980926514,Mon Mar 03 2025 15:34:15 GMT-0600 (Central Standard Time),302148.4000000004,A,l,O,l,219,1,233.70000000018626,301914.7000000002,7053,WL,A,6.0
2,9.44599986076355,learn,50554.00013923645,Mon Mar 03 2025 15:34:15 GMT-0600 (Central Standard Time),302364.7999999998,A,lo,O,o,200,1,450.09999999962747,301914.7000000002,7053,WL,A,6.0
2,9.579999923706055,learn,50420.000076293945,Mon Mar 03 2025 15:34:15 GMT-0600 (Central Standard Time),302498.0999999996,A,log,O,g,112,1,583.3999999994412,301914.7000000002,7053,WL,A,6.0
2,9.828999996185303,learn,50171.0000038147,Mon Mar 03 2025 15:34:15 GMT-0600 (Central Standard Time),302747.9000000004,A,logenter,O,enter,235,1,833.2000000001863,301914.7000000002,7053,WL,A,6.0
2,10.046000003814697,learn,49953.9999961853,Mon Mar 03 2025 15:34:15 GMT-0600 (Central Standard Time),302964.5999999996,A,c,O,c,209,1,216.29999999981374,302748.2999999998,7053,WL,A,7.0
2,10.27899980545044,learn,49721.00019454956,Mon Mar 03 2025 15:34:15 GMT-0600 (Central Standard Time),303197.7000000002,A,ch,O,h,225,1,449.40000000037253,302748.2999999998,7053,WL,A,7.0
2,10.428999900817871,learn,49571.00009918213,Mon Mar 03 2025 15:34:15 GMT-0600 (Central Standard Time),303347.7999999998,A,chi,O,i,135,1,599.5,302748.2999999998,7053,WL,A,7.0
2,10.661999940872192,learn,49338.00005912781,Mon Mar 03 2025 15:34:15 GMT-0600 (Central Standard Time),303581.0,A,chim,O,m,217,1,832.7000000001863,302748.2999999998,7053,WL,A,7.0
2,10.845999956130981,learn,49154.00004386902,Mon Mar 03 2025 15:34:15 GMT-0600 (Central Standard Time),303764.4000000004,A,chimn,O,n,168,1,1016.1000000005588,302748.2999999998,7053,WL,A,7.0
2,11.694999933242798,learn,48305.0000667572,Mon Mar 03 2025 15:34:15 GMT-0600 (Central Standard Time),304613.9000000004,A,chimne,O,e,833,1,1865.6000000005588,302748.2999999998,7053,WL,A,7.0
2,11.928999900817871,learn,48071.00009918213,Mon Mar 03 2025 15:34:15 GMT-0600 (Central Standard Time),304847.2000000002,A,chimney,O,y,215,1,2098.9000000003725,302748.2999999998,7053,WL,A,7.0
2,12.211999893188477,learn,47788.00010681152,Mon Mar 03 2025 15:34:15 GMT-0600 (Central Standard Time),305130.7000000002,A,chimneyenter,O,enter,270,1,2382.4000000003725,302748.2999999998,7053,WL,A,7.0
2,14.510999917984009,learn,45489.00008201599,Mon Mar 03 2025 15:34:15 GMT-0600 (Central Standard Time),307429.7999999998,A,k,O,k,2283,1,2298.7999999998137,305131.0,7053,WL,A,8.0
2,14.628000020980835,learn,45371.999979019165,Mon Mar 03 2025 15:34:15 GMT-0600 (Central Standard Time),307546.4000000004,A,ke,O,e,95,1,2415.4000000003725,305131.0,7053,WL,A,8.0
2,14.777999877929688,learn,45222.00012207031,Mon Mar 03 2025 15:34:15 GMT-0600 (Central Standard Time),307696.7000000002,A,key,O,y,131,1,2565.7000000001863,305131.0,7053,WL,A,8.0
2,14.944999933242798,learn,45055.0000667572,Mon Mar 03 2025 15:34:15 GMT-0600 (Central Standard Time),307863.0,A,keyenter,O,enter,157,1,2732.0,305131.0,7053,WL,A,8.0
2,16.49399995803833,learn,43506.00004196167,Mon Mar 03 2025 15:34:15 GMT-0600 (Central Standard Time),309412.7000000002,A,t,O,t,1534,1,1549.2999999998137,307863.4000000004,7053,WL,A,9.0
2,16.57699990272522,learn,43423.00009727478,Mon Mar 03 2025 15:34:15 GMT-0600 (Central Standard Time),309495.7999999998,A,tr,O,r,65,1,1632.3999999994412,307863.4000000004,7053,WL,A,9.0
2,16.72699999809265,learn,43273.00000190735,Mon Mar 03 2025 15:34:15 GMT-0600 (Central Standard Time),309645.7999999998,A,tra,O,a,141,1,1782.3999999994412,307863.4000000004,7053,WL,A,9.0
2,16.811999797821045,learn,43188.000202178955,Mon Mar 03 2025 15:34:15 GMT-0600 (Central Standard Time),309730.0999999996,A,trai,O,i,72,1,1866.699999999255,307863.4000000004,7053,WL,A,9.0
2,16.878000020980835,learn,43121.999979019165,Mon Mar 03 2025 15:34:15 GMT-0600 (Central Standard Time),309796.7999999998,A,train,O,n,59,1,1933.3999999994412,307863.4000000004,7053,WL,A,9.0
2,17.143999814987183,learn,42856.00018501282,Mon Mar 03 2025 15:34:15 GMT-0600 (Central Standard Time),310062.4000000004,A,trainenter,O,enter,257,1,2199.0,307863.4000000004,7053,WL,A,9.0
2,17.426999807357788,learn,42573.00019264221,Mon Mar 03 2025 15:34:15 GMT-0600 (Central Standard Time),310345.5999999996,A,b,O,b,272,1,282.79999999981374,310062.7999999998,7053,WL,A,10.0
2,17.65999984741211,learn,42340.00015258789,Mon Mar 03 2025 15:34:15 GMT-0600 (Central Standard Time),310579.0,A,bo,O,o,213,1,516.2000000001863,310062.7999999998,7053,WL,A,10.0
2,17.80999994277954,learn,42190.00005722046,Mon Mar 03 2025 15:34:15 GMT-0600 (Central Standard Time),310728.7000000002,A,boo,O,o,130,1,665.9000000003725,310062.7999999998,7053,WL,A,10.0
2,17.859999895095825,learn,42140.000104904175,Mon Mar 03 2025 15:34:15 GMT-0600 (Central Standard Time),310778.5999999996,A,book,O,k,37,1,715.7999999998137,310062.7999999998,7053,WL,A,10.0
2,18.194000005722046,learn,41805.999994277954,Mon Mar 03 2025 15:34:15 GMT-0600 (Central Standard Time),311112.0,A,bookenter,O,enter,315,1,1049.2000000001863,310062.7999999998,7053,WL,A,10.0
2,18.65999984741211,learn,41340.00015258789,Mon Mar 03 2025 15:34:15 GMT-0600 (Central Standard Time),311578.7000000002,A,r,O,r,461,1,466.40000000037253,311112.2999999998,7053,WL,A,11.0
2,18.80999994277954,learn,41190.00005722046,Mon Mar 03 2025 15:34:15 GMT-0600 (Central Standard Time),311728.5,A,ra,O,a,139,1,616.2000000001863,311112.2999999998,7053,WL,A,11.0
2,19.009999990463257,learn,40990.00000953674,Mon Mar 03 2025 15:34:15 GMT-0600 (Central Standard Time),311928.2999999998,A,rat,O,t,189,1,816.0,311112.2999999998,7053,WL,A,11.0
2,19.14299988746643,learn,40857.00011253357,Mon Mar 03 2025 15:34:15 GMT-0600 (Central Standard Time),312061.9000000004,A,ratt,O,t,126,1,949.6000000005588,311112.2999999998,7053,WL,A,11.0
2,19.209999799728394,learn,40790.00020027161,Mon Mar 03 2025 15:34:15 GMT-0600 (Central Standard Time),312128.5,A,rattl,O,l,57,1,1016.2000000001863,311112.2999999998,7053,WL,A,11.0
2,19.30999994277954,learn,40690.00005722046,Mon Mar 03 2025 15:34:15 GMT-0600 (Central Standard Time),312228.2999999998,A,rattle,O,e,94,1,1116.0,311112.2999999998,7053,WL,A,11.0
2,19.459999799728394,learn,40540.00020027161,Mon Mar 03 2025 15:34:15 GMT-0600 (Central Standard Time),312378.4000000004,A,rattleenter,O,enter,136,1,1266.1000000005588,311112.2999999998,7053,WL,A,11.0
2,20.942999839782715,learn,39057.000160217285,Mon Mar 03 2025 15:34:15 GMT-0600 (Central Standard Time),313861.2999999998,A,g,O,g,1468,1,1482.7000000001863,312378.5999999996,7053,WL,A,12.0
2,21.042999982833862,learn,38957.00001716614,Mon Mar 03 2025 15:34:15 GMT-0600 (Central Standard Time),313961.0,A,go,O,o,88,1,1582.4000000003725,312378.5999999996,7053,WL,A,12.0
2,21.258999824523926,learn,38741.000175476074,Mon Mar 03 2025 15:34:15 GMT-0600 (Central Standard Time),314177.9000000004,A,gol,O,l,196,1,1799.300000000745,312378.5999999996,7053,WL,A,12.0
2,21.325999975204468,learn,38674.00002479553,Mon Mar 03 2025 15:34:15 GMT-0600 (Central Standard Time),314244.0,A,gold,O,d,60,1,1865.4000000003725,312378.5999999996,7053,WL,A,12.0
2,21.491999864578247,learn,38508.00013542175,Mon Mar 03 2025 15:34:15 GMT-0600 (Central Standard Time),314410.9000000004,A,goldenter,O,enter,146,1,2032.300000000745,312378.5999999996,7053,WL,A,12.0
2,26.840999841690063,learn,33159.00015830994,Mon Mar 03 2025 15:34:15 GMT-0600 (Central Standard Time),319759.2999999998,A,m,O,m,5332,1,5348.0,314411.2999999998,7053,WL,A,13.0
2,26.924000024795532,learn,33075.99997520447,Mon Mar 03 2025 15:34:15 GMT-0600 (Central Standard Time),319842.9000000004,A,me,O,e,62,1,5431.600000000559,314411.2999999998,7053,WL,A,13.0
2,27.090999841690063,learn,32909.00015830994,Mon Mar 03 2025 15:34:15 GMT-0600 (Central Standard Time),320009.4000000004,A,mea,O,a,147,1,5598.100000000559,314411.2999999998,7053,WL,A,13.0
2,27.306999921798706,learn,32693.000078201294,Mon Mar 03 2025 15:34:15 GMT-0600 (Central Standard Time),320225.7999999998,A,mead,O,d,196,1,5814.5,314411.2999999998,7053,WL,A,13.0
2,27.406999826431274,learn,32593.000173568726,Mon Mar 03 2025 15:34:15 GMT-0600 (Central Standard Time),320325.7000000002,A,meado,O,o,84,1,5914.4000000003725,314411.2999999998,7053,WL,A,13.0
2,27.5239999294281,learn,32476.0000705719,Mon Mar 03 2025 15:34:15 GMT-0600 (Central Standard Time),320442.2000000002,A,meadow,O,w,104,1,6030.9000000003725,314411.2999999998,7053,WL,A,13.0
2,27.840999841690063,learn,32159.000158309937,Mon Mar 03 2025 15:34:15 GMT-0600 (Central Standard Time),320759.0,A,meadowenter,O,enter,307,1,6347.700000000186,314411.2999999998,7053,WL,A,13.0
2,32.788999795913696,learn,27211.000204086304,Mon Mar 03 2025 15:34:15 GMT-0600 (Central Standard Time),325707.2000000002,A,r,O,r,4942,1,4947.9000000003725,320759.2999999998,7053,WL,A,14.0
2,32.92199993133545,learn,27078.00006866455,Mon Mar 03 2025 15:34:15 GMT-0600 (Central Standard Time),325840.7000000002,A,ru,O,u,122,1,5081.4000000003725,320759.2999999998,7053,WL,A,14.0
2,33.08899998664856,learn,26911.00001335144,Mon Mar 03 2025 15:34:15 GMT-0600 (Central Standard Time),326007.5,A,rug,O,g,157,1,5248.200000000186,320759.2999999998,7053,WL,A,14.0
2,33.25499987602234,learn,26745.00012397766,Mon Mar 03 2025 15:34:15 GMT-0600 (Central Standard Time),326173.7999999998,A,rugenter,O,enter,158,1,5414.5,320759.2999999998,7053,WL,A,14.0
2,44.069000005722046,learn,15930.999994277954,Mon Mar 03 2025 15:34:15 GMT-0600 (Central Standard Time),336987.0999999996,A,f,O,f,10808,1,10813.0,326174.0999999996,7053,WL,A,15.0
2,44.234999895095825,learn,15765.000104904175,Mon Mar 03 2025 15:34:15 GMT-0600 (Central Standard Time),337153.9000000004,A,fi,O,i,146,1,10979.800000000745,326174.0999999996,7053,WL,A,15.0
2,44.319000005722046,learn,15680.999994277954,Mon Mar 03 2025 15:34:15 GMT-0600 (Central Standard Time),337237.2000000002,A,fin,O,n,77,1,11063.100000000559,326174.0999999996,7053,WL,A,15.0
2,44.418999910354614,learn,15581.000089645386,Mon Mar 03 2025 15:34:15 GMT-0600 (Central Standard Time),337337.2000000002,A,fing,O,g,88,1,11163.100000000559,326174.0999999996,7053,WL,A,15.0
2,44.569000005722046,learn,15430.999994277954,Mon Mar 03 2025 15:34:15 GMT-0600 (Central Standard Time),337487.0,A,finge,O,e,140,1,11312.900000000373,326174.0999999996,7053,WL,A,15.0
2,44.63499999046326,learn,15365.000009536743,Mon Mar 03 2025 15:34:15 GMT-0600 (Central Standard Time),337553.7999999998,A,finger,O,r,47,1,11379.700000000186,326174.0999999996,7053,WL,A,15.0
2,44.734999895095825,learn,15265.000104904175,Mon Mar 03 2025 15:34:15 GMT-0600 (Central Standard Time),337653.7999999998,A,fingerenter,O,enter,92,1,11479.700000000186,326174.0999999996,7053,WL,A,15.0
3,0.9830000400543213,learn,59016.99995994568,Mon Mar 03 2025 15:34:15 GMT-0600 (Central Standard Time),404766.0,A,g,O,g,966,1,982.5,403783.5,7053,WL,A,1.0
3,1.1000001430511475,learn,58899.99985694885,Mon Mar 03 2025 15:34:15 GMT-0600 (Central Standard Time),404882.5999999996,A,go,O,o,95,1,1099.0999999996275,403783.5,7053,WL,A,1.0
3,1.2669999599456787,learn,58733.00004005432,Mon Mar 03 2025 15:34:15 GMT-0600 (Central Standard Time),405049.7999999998,A,gol,O,l,147,1,1266.2999999998137,403783.5,7053,WL,A,1.0
3,1.3330001831054688,learn,58666.99981689453,Mon Mar 03 2025 15:34:15 GMT-0600 (Central Standard Time),405115.9000000004,A,gold,O,d,60,1,1332.4000000003725,403783.5,7053,WL,A,1.0
3,1.5,learn,58500.0,Mon Mar 03 2025 15:34:15 GMT-0600 (Central Standard Time),405282.5999999996,A,goldenter,O,enter,154,1,1499.0999999996275,403783.5,7053,WL,A,1.0
3,1.934000015258789,learn,58065.99998474121,Mon Mar 03 2025 15:34:15 GMT-0600 (Central Standard Time),405716.7999999998,A,r,O,r,418,1,433.8999999994412,405282.9000000004,7053,WL,A,2.0
3,2.1000001430511475,learn,57899.99985694885,Mon Mar 03 2025 15:34:15 GMT-0600 (Central Standard Time),405882.5,A,ra,O,a,144,1,599.5999999996275,405282.9000000004,7053,WL,A,2.0
3,2.2339999675750732,learn,57766.00003242493,Mon Mar 03 2025 15:34:15 GMT-0600 (Central Standard Time),406016.7999999998,A,rat,O,t,114,1,733.8999999994412,405282.9000000004,7053,WL,A,2.0
3,2.366000175476074,learn,57633.999824523926,Mon Mar 03 2025 15:34:15 GMT-0600 (Central Standard Time),406149.0999999996,A,ratt,O,t,116,1,866.1999999992549,405282.9000000004,7053,WL,A,2.0
3,2.4830000400543213,learn,57516.99995994568,Mon Mar 03 2025 15:34:15 GMT-0600 (Central Standard Time),406265.7999999998,A,rattl,O,l,96,1,982.8999999994412,405282.9000000004,7053,WL,A,2.0
3,2.616000175476074,learn,57383.999824523926,Mon Mar 03 2025 15:34:15 GMT-0600 (Central Standard Time),406398.7000000002,A,rattle,O,e,124,1,1115.7999999998137,405282.9000000004,7053,WL,A,2.0
3,2.749000072479248,learn,57250.99992752075,Mon Mar 03 2025 15:34:15 GMT-0600 (Central Standard Time),406532.2000000002,A,rattleenter,O,enter,127,1,1249.2999999998137,405282.9000000004,7053,WL,A,2.0
3,2.949000120162964,learn,57050.999879837036,Mon Mar 03 2025 15:34:15 GMT-0600 (Central Standard Time),406732.0999999996,A,r,O,r,194,1,199.5,406532.5999999996,7053,WL,A,3.0
3,3.7160000801086426,learn,56283.99991989136,Mon Mar 03 2025 15:34:15 GMT-0600 (Central Standard Time),407498.5,A,ru,O,u,753,1,965.9000000003725,406532.5999999996,7053,WL,A,3.0
3,3.8489999771118164,learn,56151.00002288818,Mon Mar 03 2025 15:34:15 GMT-0600 (Central Standard Time),407631.5999999996,A,rug,O,g,124,1,1099.0,406532.5999999996,7053,WL,A,3.0
3,3.999000072479248,learn,56000.99992752075,Mon Mar 03 2025 15:34:15 GMT-0600 (Central Standard Time),407781.7000000002,A,rugenter,O,enter,134,1,1249.1000000005588,406532.5999999996,7053,WL,A,3.0
3,4.232000112533569,learn,55767.99988746643,Mon Mar 03 2025 15:34:15 GMT-0600 (Central Standard Time),408015.0999999996,A,b,O,b,216,1,233.0,407782.0999999996,7053,WL,A,4.0
3,4.499000072479248,learn,55500.99992752075,Mon Mar 03 2025 15:34:15 GMT-0600 (Central Standard Time),408281.7000000002,A,bo,O,o,246,1,499.6000000005588,407782.0999999996,7053,WL,A,4.0
3,4.615000009536743,learn,55384.99999046326,Mon Mar 03 2025 15:34:15 GMT-0600 (Central Standard Time),408398.2000000002,A,bot,O,t,100,1,616.1000000005588,407782.0999999996,7053,WL,A,4.0
3,4.765000104904175,learn,55234.999895095825,Mon Mar 03 2025 15:34:15 GMT-0600 (Central Standard Time),408548.2000000002,A,bott,O,t,136,1,766.1000000005588,407782.0999999996,7053,WL,A,4.0
3,5.015000104904175,learn,54984.999895095825,Mon Mar 03 2025 15:34:15 GMT-0600 (Central Standard Time),408798.0999999996,A,bot,O,backspace,242,1,1016.0,407782.0999999996,7053,WL,A,4.0
3,5.197999954223633,learn,54802.00004577637,Mon Mar 03 2025 15:34:15 GMT-0600 (Central Standard Time),408981.2999999998,A,bo,O,backspace,168,1,1199.2000000001863,407782.0999999996,7053,WL,A,4.0
3,5.348999977111816,learn,54651.00002288818,Mon Mar 03 2025 15:34:15 GMT-0600 (Central Standard Time),409132.5,A,b,O,backspace,145,1,1350.4000000003725,407782.0999999996,7053,WL,A,4.0
3,5.54800009727478,learn,54451.99990272522,Mon Mar 03 2025 15:34:15 GMT-0600 (Central Standard Time),409331.2000000002,A,bu,O,u,194,1,1549.1000000005588,407782.0999999996,7053,WL,A,4.0
3,5.715000152587891,learn,54284.99984741211,Mon Mar 03 2025 15:34:15 GMT-0600 (Central Standard Time),409498.0,A,but,O,t,146,1,1715.9000000003725,407782.0999999996,7053,WL,A,4.0
3,5.8480000495910645,learn,54151.999950408936,Mon Mar 03 2025 15:34:15 GMT-0600 (Central Standard Time),409631.2999999998,A,butt,O,t,116,1,1849.2000000001863,407782.0999999996,7053,WL,A,4.0
3,5.932000160217285,learn,54067.999839782715,Mon Mar 03 2025 15:34:15 GMT-0600 (Central Standard Time),409714.7000000002,A,butto,O,o,71,1,1932.6000000005588,407782.0999999996,7053,WL,A,4.0
3,6.0980000495910645,learn,53901.999950408936,Mon Mar 03 2025 15:34:15 GMT-0600 (Central Standard Time),409881.2999999998,A,button,O,n,148,1,2099.2000000001863,407782.0999999996,7053,WL,A,4.0
3,6.29800009727478,learn,53701.99990272522,Mon Mar 03 2025 15:34:15 GMT-0600 (Central Standard Time),410081.0,A,buttonenter,O,enter,189,1,2298.9000000003725,407782.0999999996,7053,WL,A,4.0
3,6.930999994277954,learn,53069.000005722046,Mon Mar 03 2025 15:34:15 GMT-0600 (Central Standard Time),410714.2000000002,A,g,O,g,621,1,632.9000000003725,410081.2999999998,7053,WL,A,5.0
3,7.015000104904175,learn,52984.999895095825,Mon Mar 03 2025 15:34:15 GMT-0600 (Central Standard Time),410797.5999999996,A,go,O,o,76,1,716.2999999998137,410081.2999999998,7053,WL,A,5.0
3,7.180999994277954,learn,52819.000005722046,Mon Mar 03 2025 15:34:15 GMT-0600 (Central Standard Time),410964.0,A,gol,O,l,152,1,882.7000000001863,410081.2999999998,7053,WL,A,5.0
3,7.248000144958496,learn,52751.999855041504,Mon Mar 03 2025 15:34:15 GMT-0600 (Central Standard Time),411030.7000000002,A,gold,O,d,49,1,949.4000000003725,410081.2999999998,7053,WL,A,5.0
3,7.447999954223633,learn,52552.00004577637,Mon Mar 03 2025 15:34:15 GMT-0600 (Central Standard Time),411230.5999999996,A,goldenter,O,enter,183,1,1149.2999999998137,410081.2999999998,7053,WL,A,5.0
3,7.648000001907349,learn,52351.99999809265,Mon Mar 03 2025 15:34:15 GMT-0600 (Central Standard Time),411430.7000000002,A,f,O,f,183,1,199.70000000018626,411231.0,7053,WL,A,6.0
3,7.748000144958496,learn,52251.999855041504,Mon Mar 03 2025 15:34:15 GMT-0600 (Central Standard Time),411530.7999999998,A,fl,O,l,79,1,299.79999999981374,411231.0,7053,WL,A,6.0
3,7.914000034332275,learn,52085.999965667725,Mon Mar 03 2025 15:34:15 GMT-0600 (Central Standard Time),411697.2000000002,A,flo,O,o,156,1,466.20000000018626,411231.0,7053,WL,A,6.0
3,7.981000185012817,learn,52018.99981498718,Mon Mar 03 2025 15:34:15 GMT-0600 (Central Standard Time),411763.5999999996,A,flow,O,w,53,1,532.5999999996275,411231.0,7053,WL,A,6.0
3,8.04800009727478,learn,51951.99990272522,Mon Mar 03 2025 15:34:15 GMT-0600 (Central Standard Time),411830.7000000002,A,flowe,O,e,59,1,599.7000000001863,411231.0,7053,WL,A,6.0
3,8.21500015258789,learn,51784.99984741211,Mon Mar 03 2025 15:34:15 GMT-0600 (Central Standard Time),411998.2999999998,A,flower,O,r,159,1,767.2999999998137,411231.0,7053,WL,A,6.0
3,8.297000169754028,learn,51702.99983024597,Mon Mar 03 2025 15:34:15 GMT-0600 (Central Standard Time),412080.2999999998,A,flowerenter,O,enter,64,1,849.2999999998137,411231.0,7053,WL,A,6.0
3,8.514000177383423,learn,51485.99982261658,Mon Mar 03 2025 15:34:15 GMT-0600 (Central Standard Time),412297.0,A,b,O,b,198,1,216.40000000037253,412080.5999999996,7053,WL,A,7.0
3,8.69700002670288,learn,51302.99997329712,Mon Mar 03 2025 15:34:15 GMT-0600 (Central Standard Time),412480.2999999998,A,bo,O,o,173,1,399.70000000018626,412080.5999999996,7053,WL,A,7.0
3,8.864000082015991,learn,51135.99991798401,Mon Mar 03 2025 15:34:15 GMT-0600 (Central Standard Time),412646.7999999998,A,boo,O,o,149,1,566.2000000001863,412080.5999999996,7053,WL,A,7.0
3,8.94700002670288,learn,51052.99997329712,Mon Mar 03 2025 15:34:15 GMT-0600 (Central Standard Time),412730.4000000004,A,book,O,k,63,1,649.8000000007451,412080.5999999996,7053,WL,A,7.0
3,9.21399998664856,learn,50786.00001335144,Mon Mar 03 2025 15:34:15 GMT-0600 (Central Standard Time),412996.7000000002,A,bookenter,O,enter,260,1,916.1000000005588,412080.5999999996,7053,WL,A,7.0
3,9.430000066757202,learn,50569.9999332428,Mon Mar 03 2025 15:34:15 GMT-0600 (Central Standard Time),413213.2999999998,A,k,O,k,201,1,216.29999999981374,412997.0,7053,WL,A,8.0
3,9.597000122070312,learn,50402.99987792969,Mon Mar 03 2025 15:34:15 GMT-0600 (Central Standard Time),413379.9000000004,A,ke,O,e,153,1,382.90000000037253,412997.0,7053,WL,A,8.0
3,9.764000177383423,learn,50235.99982261658,Mon Mar 03 2025 15:34:15 GMT-0600 (Central Standard Time),413546.7000000002,A,key,O,y,155,1,549.7000000001863,412997.0,7053,WL,A,8.0
3,9.981000185012817,learn,50018.99981498718,Mon Mar 03 2025 15:34:15 GMT-0600 (Central Standard Time),413764.0,A,keyenter,O,enter,212,1,767.0,412997.0,7053,WL,A,8.0
3,10.19700002670288,learn,49802.99997329712,Mon Mar 03 2025 15:34:15 GMT-0600 (Central Standard Time),413979.5999999996,A,t,O,t,210,1,215.19999999925494,413764.4000000004,7053,WL,A,9.0
3,10.246999979019165,learn,49753.000020980835,Mon Mar 03 2025 15:34:15 GMT-0600 (Central Standard Time),414029.7000000002,A,tr,O,r,42,1,265.29999999981374,413764.4000000004,7053,WL,A,9.0
3,10.44700002670288,learn,49552.99997329712,Mon Mar 03 2025 15:34:15 GMT-0600 (Central Standard Time),414229.7000000002,A,tra,O,a,192,1,465.29999999981374,413764.4000000004,7053,WL,A,9.0
3,10.580000162124634,learn,49419.999837875366,Mon Mar 03 2025 15:34:15 GMT-0600 (Central Standard Time),414363.0999999996,A,trai,O,i,120,1,598.6999999992549,413764.4000000004,7053,WL,A,9.0
3,10.69700002670288,learn,49302.99997329712,Mon Mar 03 2025 15:34:15 GMT-0600 (Central Standard Time),414479.5999999996,A,train,O,n,98,1,715.1999999992549,413764.4000000004,7053,WL,A,9.0
3,10.963000059127808,learn,49036.99994087219,Mon Mar 03 2025 15:34:15 GMT-0600 (Central Standard Time),414746.2999999998,A,trainenter,O,enter,255,1,981.8999999994412,413764.4000000004,7053,WL,A,9.0
3,11.163000106811523,learn,48836.99989318848,Mon Mar 03 2025 15:34:15 GMT-0600 (Central Standard Time),414946.2999999998,A,r,O,r,187,1,199.70000000018626,414746.5999999996,7053,WL,A,10.0
3,11.297000169754028,learn,48702.99983024597,Mon Mar 03 2025 15:34:15 GMT-0600 (Central Standard Time),415079.7999999998,A,ra,O,a,116,1,333.20000000018626,414746.5999999996,7053,WL,A,10.0
3,11.430000066757202,learn,48569.9999332428,Mon Mar 03 2025 15:34:15 GMT-0600 (Central Standard Time),415213.0,A,rat,O,t,126,1,466.40000000037253,414746.5999999996,7053,WL,A,10.0
3,11.580000162124634,learn,48419.999837875366,Mon Mar 03 2025 15:34:15 GMT-0600 (Central Standard Time),415362.7000000002,A,ratt,O,t,137,1,616.1000000005588,414746.5999999996,7053,WL,A,10.0
3,11.696000099182129,learn,48303.99990081787,Mon Mar 03 2025 15:34:15 GMT-0600 (Central Standard Time),415479.4000000004,A,rattl,O,l,100,1,732.8000000007451,414746.5999999996,7053,WL,A,10.0
3,11.812999963760376,learn,48187.000036239624,Mon Mar 03 2025 15:34:15 GMT-0600 (Central Standard Time),415595.5999999996,A,rattle,O,e,102,1,849.0,414746.5999999996,7053,WL,A,10.0
3,11.979000091552734,learn,48020.999908447266,Mon Mar 03 2025 15:34:15 GMT-0600 (Central Standard Time),415762.5,A,rattleenter,O,enter,146,1,1015.9000000003725,414746.5999999996,7053,WL,A,10.0
3,12.229000091552734,learn,47770.999908447266,Mon Mar 03 2025 15:34:15 GMT-0600 (Central Standard Time),416012.0999999996,A,g,O,g,234,1,249.29999999981374,415762.7999999998,7053,WL,A,11.0
3,12.279000043869019,learn,47720.99995613098,Mon Mar 03 2025 15:34:15 GMT-0600 (Central Standard Time),416062.0,A,go,O,o,41,1,299.20000000018626,415762.7999999998,7053,WL,A,11.0
3,12.496000051498413,learn,47503.99994850159,Mon Mar 03 2025 15:34:15 GMT-0600 (Central Standard Time),416279.2999999998,A,gol,O,l,199,1,516.5,415762.7999999998,7053,WL,A,11.0
3,12.580000162124634,learn,47419.999837875366,Mon Mar 03 2025 15:34:15 GMT-0600 (Central Standard Time),416362.5,A,gold,O,d,63,1,599.7000000001863,415762.7999999998,7053,WL,A,11.0
3,12.729000091552734,learn,47270.999908447266,Mon Mar 03 2025 15:34:15 GMT-0600 (Central Standard Time),416512.2000000002,A,goldenter,O,enter,131,1,749.4000000003725,415762.7999999998,7053,WL,A,11.0
3,15.144999980926514,learn,44855.000019073486,Mon Mar 03 2025 15:34:15 GMT-0600 (Central Standard Time),418928.4000000004,A,c,O,c,2405,1,2415.9000000003725,416512.5,7053,WL,A,12.0
3,15.229000091552734,learn,44770.999908447266,Mon Mar 03 2025 15:34:15 GMT-0600 (Central Standard Time),419011.5,A,ch,O,h,78,1,2499.0,416512.5,7053,WL,A,12.0
3,15.34500002861023,learn,44654.99997138977,Mon Mar 03 2025 15:34:15 GMT-0600 (Central Standard Time),419128.2999999998,A,chi,O,i,99,1,2615.7999999998137,416512.5,7053,WL,A,12.0
3,15.479000091552734,learn,44520.999908447266,Mon Mar 03 2025 15:34:15 GMT-0600 (Central Standard Time),419261.7999999998,A,chim,O,m,126,1,2749.2999999998137,416512.5,7053,WL,A,12.0
3,15.662000179290771,learn,44337.99982070923,Mon Mar 03 2025 15:34:15 GMT-0600 (Central Standard Time),419444.5999999996,A,chimn,O,n,169,1,2932.0999999996275,416512.5,7053,WL,A,12.0
3,15.712000131607056,learn,44287.999868392944,Mon Mar 03 2025 15:34:15 GMT-0600 (Central Standard Time),419494.7999999998,A,chimne,O,e,40,1,2982.2999999998137,416512.5,7053,WL,A,12.0
3,15.861999988555908,learn,44138.00001144409,Mon Mar 03 2025 15:34:15 GMT-0600 (Central Standard Time),419644.7000000002,A,chimney,O,y,143,1,3132.2000000001863,416512.5,7053,WL,A,12.0
3,16.028000116348267,learn,43971.99988365173,Mon Mar 03 2025 15:34:15 GMT-0600 (Central Standard Time),419811.4000000004,A,chimneyenter,O,enter,153,1,3298.9000000003725,416512.5,7053,WL,A,12.0
3,24.342000007629395,learn,35657.999992370605,Mon Mar 03 2025 15:34:15 GMT-0600 (Central Standard Time),428125.2999999998,A,l,O,l,8299,1,8313.599999999627,419811.7000000002,7053,WL,A,13.0
3,24.508000135421753,learn,35491.99986457825,Mon Mar 03 2025 15:34:15 GMT-0600 (Central Standard Time),428291.7999999998,A,lo,O,o,160,1,8480.099999999627,419811.7000000002,7053,WL,A,13.0
3,24.608999967575073,learn,35391.00003242493,Mon Mar 03 2025 15:34:15 GMT-0600 (Central Standard Time),428392.0999999996,A,log,O,g,81,1,8580.399999999441,419811.7000000002,7053,WL,A,13.0
3,24.79200005531311,learn,35207.99994468689,Mon Mar 03 2025 15:34:15 GMT-0600 (Central Standard Time),428575.2999999998,A,logenter,O,enter,166,1,8763.599999999627,419811.7000000002,7053,WL,A,13.0
3,25.407999992370605,learn,34592.000007629395,Mon Mar 03 2025 15:34:15 GMT-0600 (Central Standard Time),429191.5999999996,A,k,O,k,607,1,615.8999999994412,428575.7000000002,7053,WL,A,14.0
3,25.492000102996826,learn,34507.999897003174,Mon Mar 03 2025 15:34:15 GMT-0600 (Central Standard Time),429275.2999999998,A,ke,O,e,71,1,699.5999999996275,428575.7000000002,7053,WL,A,14.0
3,25.657999992370605,learn,34342.000007629395,Mon Mar 03 2025 15:34:15 GMT-0600 (Central Standard Time),429441.5,A,key,O,y,154,1,865.7999999998137,428575.7000000002,7053,WL,A,14.0
3,25.808000087738037,learn,34191.99991226196,Mon Mar 03 2025 15:34:15 GMT-0600 (Central Standard Time),429591.7000000002,A,keyenter,O,enter,140,1,1016.0,428575.7000000002,7053,WL,A,14.0
3,30.322999954223633,learn,29677.000045776367,Mon Mar 03 2025 15:34:15 GMT-0600 (Central Standard Time),434106.9000000004,A,b,O,b,4495,1,4514.9000000003725,429592.0,7053,WL,A,15.0
3,30.44000005722046,learn,29559.99994277954,Mon Mar 03 2025 15:34:15 GMT-0600 (Central Standard Time),434223.7000000002,A,bu,O,u,107,1,4631.700000000186,429592.0,7053,WL,A,15.0
3,30.59000015258789,learn,29409.99984741211,Mon Mar 03 2025 15:34:15 GMT-0600 (Central Standard Time),434373.4000000004,A,but,O,t,134,1,4781.4000000003725,429592.0,7053,WL,A,15.0
3,30.723000049591064,learn,29276.999950408936,Mon Mar 03 2025 15:34:15 GMT-0600 (Central Standard Time),434506.9000000004,A,butt,O,t,121,1,4914.9000000003725,429592.0,7053,WL,A,15.0
3,30.756999969482422,learn,29243.000030517578,Mon Mar 03 2025 15:34:15 GMT-0600 (Central Standard Time),434540.0,A,butto,O,o,26,1,4948.0,429592.0,7053,WL,A,15.0
3,30.956000089645386,learn,29043.999910354614,Mon Mar 03 2025 15:34:15 GMT-0600 (Central Standard Time),434739.9000000004,A,button,O,n,195,1,5147.9000000003725,429592.0,7053,WL,A,15.0
3,31.141000032424927,learn,28858.999967575073,Mon Mar 03 2025 15:34:15 GMT-0600 (Central Standard Time),434924.5,A,buttonenter,O,enter,177,1,5332.5,429592.0,7053,WL,A,15.0
4,0.8159999847412109,learn,59184.00001525879,Mon Mar 03 2025 15:34:15 GMT-0600 (Central Standard Time),499902.9000000004,A,b,O,b,801,1,816.2000000001863,499086.7000000002,7053,WL,A,1.0
4,0.9500000476837158,learn,59049.999952316284,Mon Mar 03 2025 15:34:15 GMT-0600 (Central Standard Time),500036.5999999996,A,bo,O,o,118,1,949.8999999994412,499086.7000000002,7053,WL,A,1.0
4,1.1160001754760742,learn,58883.999824523926,Mon Mar 03 2025 15:34:15 GMT-0600 (Central Standard Time),500202.9000000004,A,boo,O,o,154,1,1116.2000000001863,499086.7000000002,7053,WL,A,1.0
4,1.1990001201629639,learn,58800.999879837036,Mon Mar 03 2025 15:34:15 GMT-0600 (Central Standard Time),500286.2000000002,A,book,O,k,67,1,1199.5,499086.7000000002,7053,WL,A,1.0
4,1.433000087738037,learn,58566.99991226196,Mon Mar 03 2025 15:34:15 GMT-0600 (Central Standard Time),500519.5,A,bookenter,O,enter,216,1,1432.7999999998137,499086.7000000002,7053,WL,A,1.0
4,1.749000072479248,learn,58250.99992752075,Mon Mar 03 2025 15:34:15 GMT-0600 (Central Standard Time),500836.0999999996,A,t,O,t,303,1,316.19999999925494,500519.9000000004,7053,WL,A,2.0
4,1.8320000171661377,learn,58167.99998283386,Mon Mar 03 2025 15:34:15 GMT-0600 (Central Standard Time),500919.2999999998,A,tr,O,r,74,1,399.3999999994412,500519.9000000004,7053,WL,A,2.0
4,2.0160000324249268,learn,57983.99996757507,Mon Mar 03 2025 15:34:15 GMT-0600 (Central Standard Time),501102.7999999998,A,tra,O,a,166,1,582.8999999994412,500519.9000000004,7053,WL,A,2.0
4,2.116000175476074,learn,57883.999824523926,Mon Mar 03 2025 15:34:15 GMT-0600 (Central Standard Time),501202.9000000004,A,trai,O,i,80,1,683.0,500519.9000000004,7053,WL,A,2.0
4,2.199000120162964,learn,57800.999879837036,Mon Mar 03 2025 15:34:15 GMT-0600 (Central Standard Time),501286.0,A,train,O,n,66,1,766.0999999996275,500519.9000000004,7053,WL,A,2.0
4,2.4660000801086426,learn,57533.99991989136,Mon Mar 03 2025 15:34:15 GMT-0600 (Central Standard Time),501552.5999999996,A,trainenter,O,enter,248,1,1032.699999999255,500519.9000000004,7053,WL,A,2.0
4,2.6490001678466797,learn,57350.99983215332,Mon Mar 03 2025 15:34:15 GMT-0600 (Central Standard Time),501735.7000000002,A,a,O,a,174,1,182.70000000018626,501553.0,7053,WL,A,3.0
4,2.765000104904175,learn,57234.999895095825,Mon Mar 03 2025 15:34:15 GMT-0600 (Central Standard Time),501852.4000000004,A,ap,O,p,102,1,299.40000000037253,501553.0,7053,WL,A,3.0
4,2.932000160217285,learn,57067.999839782715,Mon Mar 03 2025 15:34:15 GMT-0600 (Central Standard Time),502019.2000000002,A,app,O,p,154,1,466.20000000018626,501553.0,7053,WL,A,3.0
4,3.0989999771118164,learn,56901.00002288818,Mon Mar 03 2025 15:34:15 GMT-0600 (Central Standard Time),502185.7000000002,A,appl,O,l,155,1,632.7000000001863,501553.0,7053,WL,A,3.0
4,3.2150001525878906,learn,56784.99984741211,Mon Mar 03 2025 15:34:15 GMT-0600 (Central Standard Time),502302.4000000004,A,apple,O,e,108,1,749.4000000003725,501553.0,7053,WL,A,3.0
4,3.365000009536743,learn,56634.99999046326,Mon Mar 03 2025 15:34:15 GMT-0600 (Central Standard Time),502452.2000000002,A,appleenter,O,enter,144,1,899.2000000001863,501553.0,7053,WL,A,3.0
4,3.5480000972747803,learn,56451.99990272522,Mon Mar 03 2025 15:34:15 GMT-0600 (Central Standard Time),502635.4000000004,A,r,O,r,169,1,182.6000000005588,502452.7999999998,7053,WL,A,4.0
4,3.7150001525878906,learn,56284.99984741211,Mon Mar 03 2025 15:34:15 GMT-0600 (Central Standard Time),502802.0,A,ru,O,u,155,1,349.20000000018626,502452.7999999998,7053,WL,A,4.0
4,4.065000057220459,learn,55934.99994277954,Mon Mar 03 2025 15:34:15 GMT-0600 (Central Standard Time),503152.0,A,rug,O,g,341,1,699.2000000001863,502452.7999999998,7053,WL,A,4.0
4,4.265000104904175,learn,55734.999895095825,Mon Mar 03 2025 15:34:15 GMT-0600 (Central Standard Time),503351.9000000004,A,rugenter,O,enter,190,1,899.1000000005588,502452.7999999998,7053,WL,A,4.0
4,4.515000104904175,learn,55484.999895095825,Mon Mar 03 2025 15:34:15 GMT-0600 (Central Standard Time),503601.7999999998,A,k,O,k,229,1,249.59999999962747,503352.2000000002,7053,WL,A,5.0
4,4.615000009536743,learn,55384.99999046326,Mon Mar 03 2025 15:34:15 GMT-0600 (Central Standard Time),503701.7999999998,A,ke,O,e,84,1,349.59999999962747,503352.2000000002,7053,WL,A,5.0
4,4.765000104904175,learn,55234.999895095825,Mon Mar 03 2025 15:34:15 GMT-0600 (Central Standard Time),503851.5,A,key,O,y,143,1,499.29999999981374,503352.2000000002,7053,WL,A,5.0
4,4.96399998664856,learn,55036.00001335144,Mon Mar 03 2025 15:34:15 GMT-0600 (Central Standard Time),504051.4000000004,A,keyenter,O,enter,194,1,699.2000000001863,503352.2000000002,7053,WL,A,5.0
4,5.198000192642212,learn,54801.99980735779,Mon Mar 03 2025 15:34:15 GMT-0600 (Central Standard Time),504285.0999999996,A,l,O,l,226,1,233.3999999994412,504051.7000000002,7053,WL,A,6.0
4,5.448000192642212,learn,54551.99980735779,Mon Mar 03 2025 15:34:15 GMT-0600 (Central Standard Time),504534.7000000002,A,lo,O,o,240,1,483.0,504051.7000000002,7053,WL,A,6.0
4,5.615000009536743,learn,54384.99999046326,Mon Mar 03 2025 15:34:15 GMT-0600 (Central Standard Time),504701.5999999996,A,lot,O,t,150,1,649.8999999994412,504051.7000000002,7053,WL,A,6.0
4,6.04800009727478,learn,53951.99990272522,Mon Mar 03 2025 15:34:15 GMT-0600 (Central Standard Time),505134.9000000004,A,lo,O,backspace,416,1,1083.2000000001863,504051.7000000002,7053,WL,A,6.0
4,6.164000034332275,learn,53835.999965667725,Mon Mar 03 2025 15:34:15 GMT-0600 (Central Standard Time),505251.2000000002,A,log,O,g,110,1,1199.5,504051.7000000002,7053,WL,A,6.0
4,6.38100004196167,learn,53618.99995803833,Mon Mar 03 2025 15:34:15 GMT-0600 (Central Standard Time),505467.9000000004,A,logenter,O,enter,202,1,1416.2000000001863,504051.7000000002,7053,WL,A,6.0
4,6.698000192642212,learn,53301.99980735779,Mon Mar 03 2025 15:34:15 GMT-0600 (Central Standard Time),505784.5999999996,A,b,O,b,299,1,316.3999999994412,505468.2000000002,7053,WL,A,7.0
4,7.047000169754028,learn,52952.99983024597,Mon Mar 03 2025 15:34:15 GMT-0600 (Central Standard Time),506134.4000000004,A,bu,O,u,342,1,666.2000000001863,505468.2000000002,7053,WL,A,7.0
4,7.5970001220703125,learn,52402.99987792969,Mon Mar 03 2025 15:34:15 GMT-0600 (Central Standard Time),506684.2999999998,A,but,O,t,543,1,1216.0999999996275,505468.2000000002,7053,WL,A,7.0
4,7.764000177383423,learn,52235.99982261658,Mon Mar 03 2025 15:34:15 GMT-0600 (Central Standard Time),506851.0,A,butt,O,t,146,1,1382.7999999998137,505468.2000000002,7053,WL,A,7.0
4,7.831000089645386,learn,52168.999910354614,Mon Mar 03 2025 15:34:15 GMT-0600 (Central Standard Time),506917.5999999996,A,butto,O,o,58,1,1449.3999999994412,505468.2000000002,7053,WL,A,7.0
4,7.996999979019165,learn,52003.000020980835,Mon Mar 03 2025 15:34:15 GMT-0600 (Central Standard Time),507084.0999999996,A,button,O,n,152,1,1615.8999999994412,505468.2000000002,7053,WL,A,7.0
4,8.180000066757202,learn,51819.9999332428,Mon Mar 03 2025 15:34:15 GMT-0600 (Central Standard Time),507267.2000000002,A,buttonenter,O,enter,170,1,1799.0,505468.2000000002,7053,WL,A,7.0
4,8.380000114440918,learn,51619.99988555908,Mon Mar 03 2025 15:34:15 GMT-0600 (Central Standard Time),507467.2999999998,A,c,O,c,195,1,199.70000000018626,507267.5999999996,7053,WL,A,8.0
4,8.513000011444092,learn,51486.99998855591,Mon Mar 03 2025 15:34:15 GMT-0600 (Central Standard Time),507600.4000000004,A,ch,O,h,115,1,332.80000000074506,507267.5999999996,7053,WL,A,8.0
4,8.597000122070312,learn,51402.99987792969,Mon Mar 03 2025 15:34:15 GMT-0600 (Central Standard Time),507683.7000000002,A,chi,O,i,78,1,416.1000000005588,507267.5999999996,7053,WL,A,8.0
4,8.830000162124634,learn,51169.999837875366,Mon Mar 03 2025 15:34:15 GMT-0600 (Central Standard Time),507917.0999999996,A,chim,O,m,227,1,649.5,507267.5999999996,7053,WL,A,8.0
4,9.014000177383423,learn,50985.99982261658,Mon Mar 03 2025 15:34:15 GMT-0600 (Central Standard Time),508100.5,A,chimn,O,n,177,1,832.9000000003725,507267.5999999996,7053,WL,A,8.0
4,9.130000114440918,learn,50869.99988555908,Mon Mar 03 2025 15:34:15 GMT-0600 (Central Standard Time),508216.9000000004,A,chimne,O,e,98,1,949.3000000007451,507267.5999999996,7053,WL,A,8.0
4,9.330000162124634,learn,50669.999837875366,Mon Mar 03 2025 15:34:15 GMT-0600 (Central Standard Time),508417.0,A,chimney,O,y,181,1,1149.4000000003725,507267.5999999996,7053,WL,A,8.0
4,9.413000106811523,learn,50586.99989318848,Mon Mar 03 2025 15:34:15 GMT-0600 (Central Standard Time),508500.4000000004,A,chimneyenter,O,enter,77,1,1232.800000000745,507267.5999999996,7053,WL,A,8.0
4,9.763000011444092,learn,50236.99998855591,Mon Mar 03 2025 15:34:15 GMT-0600 (Central Standard Time),508850.2000000002,A,g,O,g,337,1,349.5,508500.7000000002,7053,WL,A,9.0
4,10.163000106811523,learn,49836.99989318848,Mon Mar 03 2025 15:34:15 GMT-0600 (Central Standard Time),509250.0,A,go,O,o,388,1,749.2999999998137,508500.7000000002,7053,WL,A,9.0
4,10.380000114440918,learn,49619.99988555908,Mon Mar 03 2025 15:34:15 GMT-0600 (Central Standard Time),509466.7000000002,A,gol,O,l,204,1,966.0,508500.7000000002,7053,WL,A,9.0
4,10.913000106811523,learn,49086.99989318848,Mon Mar 03 2025 15:34:15 GMT-0600 (Central Standard Time),509999.7999999998,A,gold,O,d,516,1,1499.0999999996275,508500.7000000002,7053,WL,A,9.0
4,11.59600019454956,learn,48403.99980545044,Mon Mar 03 2025 15:34:15 GMT-0600 (Central Standard Time),510682.7999999998,A,goldenter,O,enter,670,1,2182.0999999996275,508500.7000000002,7053,WL,A,9.0
4,13.141000032424927,learn,46858.99996757507,Mon Mar 03 2025 15:34:15 GMT-0600 (Central Standard Time),512228.2000000002,A,r,O,r,1541,1,1545.1000000005588,510683.0999999996,7053,WL,A,10.0
4,13.380000114440918,learn,46619.99988555908,Mon Mar 03 2025 15:34:15 GMT-0600 (Central Standard Time),512466.9000000004,A,ru,O,u,217,1,1783.800000000745,510683.0999999996,7053,WL,A,10.0
4,13.578999996185303,learn,46421.0000038147,Mon Mar 03 2025 15:34:15 GMT-0600 (Central Standard Time),512665.7000000002,A,rug,O,g,179,1,1982.6000000005588,510683.0999999996,7053,WL,A,10.0
4,15.511000156402588,learn,44488.99984359741,Mon Mar 03 2025 15:34:15 GMT-0600 (Central Standard Time),514598.4000000004,A,rugenter,O,enter,1917,1,3915.300000000745,510683.0999999996,7053,WL,A,10.0
4,17.111000061035156,learn,42888.999938964844,Mon Mar 03 2025 15:34:15 GMT-0600 (Central Standard Time),516197.7999999998,A,m,O,m,1592,1,1599.0999999996275,514598.7000000002,7053,WL,A,11.0
4,17.194000005722046,learn,42805.999994277954,Mon Mar 03 2025 15:34:15 GMT-0600 (Central Standard Time),516281.4000000004,A,me,O,e,73,1,1682.7000000001863,514598.7000000002,7053,WL,A,11.0
4,17.378000020980835,learn,42621.999979019165,Mon Mar 03 2025 15:34:15 GMT-0600 (Central Standard Time),516464.5999999996,A,mea,O,a,173,1,1865.8999999994412,514598.7000000002,7053,WL,A,11.0
4,17.49400019645691,learn,42505.99980354309,Mon Mar 03 2025 15:34:15 GMT-0600 (Central Standard Time),516581.0999999996,A,mead,O,d,101,1,1982.3999999994412,514598.7000000002,7053,WL,A,11.0
4,17.66200017929077,learn,42337.99982070923,Mon Mar 03 2025 15:34:15 GMT-0600 (Central Standard Time),516749.0,A,meado,O,o,161,1,2150.2999999998137,514598.7000000002,7053,WL,A,11.0
4,17.777000188827515,learn,42222.999811172485,Mon Mar 03 2025 15:34:15 GMT-0600 (Central Standard Time),516864.2999999998,A,meadow,O,w,98,1,2265.5999999996275,514598.7000000002,7053,WL,A,11.0
4,18.06000018119812,learn,41939.99981880188,Mon Mar 03 2025 15:34:15 GMT-0600 (Central Standard Time),517147.2999999998,A,meadowenter,O,enter,278,1,2548.5999999996275,514598.7000000002,7053,WL,A,11.0
4,20.31000018119812,learn,39689.99981880188,Mon Mar 03 2025 15:34:15 GMT-0600 (Central Standard Time),519396.7999999998,A,a,O,a,2243,1,2249.2000000001863,517147.5999999996,7053,WL,A,12.0
4,20.427000045776367,learn,39572.99995422363,Mon Mar 03 2025 15:34:15 GMT-0600 (Central Standard Time),519513.7999999998,A,ap,O,p,105,1,2366.2000000001863,517147.5999999996,7053,WL,A,12.0
4,20.593000173568726,learn,39406.999826431274,Mon Mar 03 2025 15:34:15 GMT-0600 (Central Standard Time),519680.0,A,app,O,p,149,1,2532.4000000003725,517147.5999999996,7053,WL,A,12.0
4,20.759999990463257,learn,39240.00000953674,Mon Mar 03 2025 15:34:15 GMT-0600 (Central Standard Time),519846.7000000002,A,appl,O,l,157,1,2699.100000000559,517147.5999999996,7053,WL,A,12.0
4,20.860000133514404,learn,39139.999866485596,Mon Mar 03 2025 15:34:15 GMT-0600 (Central Standard Time),519946.7999999998,A,apple,O,e,95,1,2799.2000000001863,517147.5999999996,7053,WL,A,12.0
4,21.026000022888184,learn,38973.99997711182,Mon Mar 03 2025 15:34:15 GMT-0600 (Central Standard Time),520113.5,A,appleenter,O,enter,155,1,2965.9000000003725,517147.5999999996,7053,WL,A,12.0
4,22.70900011062622,learn,37290.99988937378,Mon Mar 03 2025 15:34:15 GMT-0600 (Central Standard Time),521796.0999999996,A,s,O,s,1677,1,1682.3999999994412,520113.7000000002,7053,WL,A,13.0
4,22.860000133514404,learn,37139.999866485596,Mon Mar 03 2025 15:34:15 GMT-0600 (Central Standard Time),521947.2999999998,A,sa,O,a,138,1,1833.5999999996275,520113.7000000002,7053,WL,A,13.0
4,22.992000102996826,learn,37007.999897003174,Mon Mar 03 2025 15:34:15 GMT-0600 (Central Standard Time),522079.0999999996,A,sal,O,l,114,1,1965.3999999994412,520113.7000000002,7053,WL,A,13.0
4,23.12600016593933,learn,36873.99983406067,Mon Mar 03 2025 15:34:15 GMT-0600 (Central Standard Time),522212.7999999998,A,salt,O,t,119,1,2099.0999999996275,520113.7000000002,7053,WL,A,13.0
4,23.30900001525879,learn,36690.99998474121,Mon Mar 03 2025 15:34:15 GMT-0600 (Central Standard Time),522396.0,A,saltenter,O,enter,170,1,2282.2999999998137,520113.7000000002,7053,WL,A,13.0
4,23.676000118255615,learn,36323.999881744385,Mon Mar 03 2025 15:34:15 GMT-0600 (Central Standard Time),522762.9000000004,A,f,O,f,362,1,366.6000000005588,522396.2999999998,7053,WL,A,14.0
4,23.87600016593933,learn,36123.99983406067,Mon Mar 03 2025 15:34:15 GMT-0600 (Central Standard Time),522962.7999999998,A,fi,O,i,195,1,566.5,522396.2999999998,7053,WL,A,14.0
4,23.960000038146973,learn,36039.99996185303,Mon Mar 03 2025 15:34:15 GMT-0600 (Central Standard Time),523046.9000000004,A,fin,O,n,76,1,650.6000000005588,522396.2999999998,7053,WL,A,14.0
4,24.04200005531311,learn,35957.99994468689,Mon Mar 03 2025 15:34:15 GMT-0600 (Central Standard Time),523129.2000000002,A,fing,O,g,71,1,732.9000000003725,522396.2999999998,7053,WL,A,14.0
4,24.20900011062622,learn,35790.99988937378,Mon Mar 03 2025 15:34:15 GMT-0600 (Central Standard Time),523295.7999999998,A,finge,O,e,157,1,899.5,522396.2999999998,7053,WL,A,14.0
4,24.30900001525879,learn,35690.99998474121,Mon Mar 03 2025 15:34:15 GMT-0600 (Central Standard Time),523395.5999999996,A,finger,O,r,86,1,999.2999999998137,522396.2999999998,7053,WL,A,14.0
4,24.54200005531311,learn,35457.99994468689,Mon Mar 03 2025 15:34:15 GMT-0600 (Central Standard Time),523628.9000000004,A,fingerenter,O,enter,227,1,1232.6000000005588,522396.2999999998,7053,WL,A,14.0
4,29.35700011253357,learn,30642.99988746643,Mon Mar 03 2025 15:34:15 GMT-0600 (Central Standard Time),528444.0,A,f,O,f,4801,1,4814.700000000186,523629.2999999998,7053,WL,A,15.0
4,29.491000175476074,learn,30508.999824523926,Mon Mar 03 2025 15:34:15 GMT-0600 (Central Standard Time),528577.5,A,fl,O,l,114,1,4948.200000000186,523629.2999999998,7053,WL,A,15.0
4,29.640000104904175,learn,30359.999895095825,Mon Mar 03 2025 15:34:15 GMT-0600 (Central Standard Time),528727.2999999998,A,flo,O,o,140,1,5098.0,523629.2999999998,7053,WL,A,15.0
4,29.723999977111816,learn,30276.000022888184,Mon Mar 03 2025 15:34:15 GMT-0600 (Central Standard Time),528810.7000000002,A,flow,O,w,63,1,5181.4000000003725,523629.2999999998,7053,WL,A,15.0
4,29.790000200271606,learn,30209.999799728394,Mon Mar 03 2025 15:34:15 GMT-0600 (Central Standard Time),528877.0999999996,A,flowe,O,e,60,1,5247.799999999814,523629.2999999998,7053,WL,A,15.0
4,29.957000017166138,learn,30042.999982833862,Mon Mar 03 2025 15:34:15 GMT-0600 (Central Standard Time),529043.5999999996,A,flower,O,r,161,1,5414.299999999814,523629.2999999998,7053,WL,A,15.0
4,30.057000160217285,learn,29942.999839782715,Mon Mar 03 2025 15:34:15 GMT-0600 (Central Standard Time),529143.5999999996,A,flowerenter,O,enter,91,1,5514.299999999814,523629.2999999998,7053,WL,A,15.0
5,0.4500000476837158,learn,60000.0,Mon Mar 03 2025 15:34:15 GMT-0600 (Central Standard Time),594190.4000000004,A,b,O,b,443,1,449.80000000074506,593740.5999999996,7053,WL,A,1.0
5,0.5829999446868896,learn,60000.0,Mon Mar 03 2025 15:34:15 GMT-0600 (Central Standard Time),594323.7000000002,A,bo,O,o,111,1,583.1000000005588,593740.5999999996,7053,WL,A,1.0
5,0.75,learn,60000.0,Mon Mar 03 2025 15:34:15 GMT-0600 (Central Standard Time),594490.0999999996,A,boo,O,o,154,1,749.5,593740.5999999996,7053,WL,A,1.0
5,0.8159999847412109,learn,60000.0,Mon Mar 03 2025 15:34:15 GMT-0600 (Central Standard Time),594556.7000000002,A,book,O,k,51,1,816.1000000005588,593740.5999999996,7053,WL,A,1.0
5,1.0160000324249268,learn,60000.0,Mon Mar 03 2025 15:34:15 GMT-0600 (Central Standard Time),594756.5999999996,A,bookenter,O,enter,193,1,1016.0,593740.5999999996,7053,WL,A,1.0
5,1.2009999752044678,learn,60000.0,Mon Mar 03 2025 15:34:15 GMT-0600 (Central Standard Time),594941.0,A,t,O,t,178,1,184.09999999962747,594756.9000000004,7053,WL,A,2.0
5,1.2669999599456787,learn,60000.0,Mon Mar 03 2025 15:34:15 GMT-0600 (Central Standard Time),595006.7999999998,A,tr,O,r,57,1,249.8999999994412,594756.9000000004,7053,WL,A,2.0
5,1.4660000801086426,learn,60000.0,Mon Mar 03 2025 15:34:15 GMT-0600 (Central Standard Time),595206.2999999998,A,tra,O,a,184,1,449.3999999994412,594756.9000000004,7053,WL,A,2.0
5,1.565999984741211,learn,60000.0,Mon Mar 03 2025 15:34:15 GMT-0600 (Central Standard Time),595306.5999999996,A,trai,O,i,88,1,549.6999999992549,594756.9000000004,7053,WL,A,2.0
5,1.683000087738037,learn,60000.0,Mon Mar 03 2025 15:34:15 GMT-0600 (Central Standard Time),595423.2000000002,A,train,O,n,100,1,666.2999999998137,594756.9000000004,7053,WL,A,2.0
5,1.9660000801086426,learn,60000.0,Mon Mar 03 2025 15:34:15 GMT-0600 (Central Standard Time),595706.2999999998,A,trainenter,O,enter,262,1,949.3999999994412,594756.9000000004,7053,WL,A,2.0
5,2.183000087738037,learn,60000.0,Mon Mar 03 2025 15:34:15 GMT-0600 (Central Standard Time),595922.9000000004,A,r,O,r,204,1,216.30000000074506,595706.5999999996,7053,WL,A,3.0
5,2.3489999771118164,learn,60000.0,Mon Mar 03 2025 15:34:15 GMT-0600 (Central Standard Time),596089.7999999998,A,ra,O,a,155,1,383.20000000018626,595706.5999999996,7053,WL,A,3.0
5,2.5179998874664307,learn,60000.0,Mon Mar 03 2025 15:34:15 GMT-0600 (Central Standard Time),596258.2000000002,A,rat,O,t,149,1,551.6000000005588,595706.5999999996,7053,WL,A,3.0
5,2.6659998893737793,learn,60000.0,Mon Mar 03 2025 15:34:15 GMT-0600 (Central Standard Time),596406.0999999996,A,ratt,O,t,132,1,699.5,595706.5999999996,7053,WL,A,3.0
5,2.7660000324249268,learn,60000.0,Mon Mar 03 2025 15:34:15 GMT-0600 (Central Standard Time),596506.4000000004,A,rattl,O,l,79,1,799.8000000007451,595706.5999999996,7053,WL,A,3.0
5,2.881999969482422,learn,60000.0,Mon Mar 03 2025 15:34:15 GMT-0600 (Central Standard Time),596622.7999999998,A,rattle,O,e,99,1,916.2000000001863,595706.5999999996,7053,WL,A,3.0
5,3.065999984741211,learn,60000.0,Mon Mar 03 2025 15:34:15 GMT-0600 (Central Standard Time),596806.0,A,rattleenter,O,enter,168,1,1099.4000000003725,595706.5999999996,7053,WL,A,3.0
5,3.2820000648498535,learn,60000.0,Mon Mar 03 2025 15:34:15 GMT-0600 (Central Standard Time),597022.7000000002,A,m,O,m,208,1,216.40000000037253,596806.2999999998,7053,WL,A,4.0
5,3.3489999771118164,learn,60000.0,Mon Mar 03 2025 15:34:15 GMT-0600 (Central Standard Time),597089.2999999998,A,me,O,e,56,1,283.0,596806.2999999998,7053,WL,A,4.0
5,3.565999984741211,learn,60000.0,Mon Mar 03 2025 15:34:15 GMT-0600 (Central Standard Time),597305.9000000004,A,mea,O,a,205,1,499.6000000005588,596806.2999999998,7053,WL,A,4.0
5,3.749000072479248,learn,60000.0,Mon Mar 03 2025 15:34:15 GMT-0600 (Central Standard Time),597489.2000000002,A,mead,O,d,173,1,682.9000000003725,596806.2999999998,7053,WL,A,4.0
5,3.9649999141693115,learn,60000.0,Mon Mar 03 2025 15:34:15 GMT-0600 (Central Standard Time),597705.9000000004,A,meado,O,o,197,1,899.6000000005588,596806.2999999998,7053,WL,A,4.0
5,4.115000009536743,learn,60000.0,Mon Mar 03 2025 15:34:15 GMT-0600 (Central Standard Time),597855.7000000002,A,meadow,O,w,132,1,1049.4000000003725,596806.2999999998,7053,WL,A,4.0
5,4.5320000648498535,learn,60000.0,Mon Mar 03 2025 15:34:15 GMT-0600 (Central Standard Time),598272.2000000002,A,meadowenter,O,enter,407,1,1465.9000000003725,596806.2999999998,7053,WL,A,4.0
5,4.950000047683716,learn,60000.0,Mon Mar 03 2025 15:34:15 GMT-0600 (Central Standard Time),598689.9000000004,A,a,O,a,406,1,417.30000000074506,598272.5999999996,7053,WL,A,5.0
5,5.0980000495910645,learn,60000.0,Mon Mar 03 2025 15:34:15 GMT-0600 (Central Standard Time),598838.7000000002,A,ap,O,p,131,1,566.1000000005588,598272.5999999996,7053,WL,A,5.0
5,5.264999866485596,learn,60000.0,Mon Mar 03 2025 15:34:15 GMT-0600 (Central Standard Time),599005.4000000004,A,app,O,p,152,1,732.8000000007451,598272.5999999996,7053,WL,A,5.0
5,5.480999946594238,learn,60000.0,Mon Mar 03 2025 15:34:15 GMT-0600 (Central Standard Time),599221.9000000004,A,appl,O,l,209,1,949.3000000007451,598272.5999999996,7053,WL,A,5.0
5,5.5980000495910645,learn,60000.0,Mon Mar 03 2025 15:34:15 GMT-0600 (Central Standard Time),599338.7000000002,A,apple,O,e,96,1,1066.1000000005588,598272.5999999996,7053,WL,A,5.0
5,5.764999866485596,learn,60000.0,Mon Mar 03 2025 15:34:15 GMT-0600 (Central Standard Time),599505.2000000002,A,appleenter,O,enter,156,1,1232.6000000005588,598272.5999999996,7053,WL,A,5.0
5,6.115000009536743,learn,60000.0,Mon Mar 03 2025 15:34:15 GMT-0600 (Central Standard Time),599855.0999999996,A,f,O,f,341,1,349.59999999962747,599505.5,7053,WL,A,6.0
5,6.2149999141693115,learn,60000.0,Mon Mar 03 2025 15:34:15 GMT-0600 (Central Standard Time),599955.0999999996,A,fi,O,i,95,1,449.59999999962747,599505.5,7053,WL,A,6.0
5,6.331000089645386,learn,60000.0,Mon Mar 03 2025 15:34:15 GMT-0600 (Central Standard Time),600071.7999999998,A,fin,O,n,100,1,566.2999999998137,599505.5,7053,WL,A,6.0
5,6.447999954223633,learn,60000.0,Mon Mar 03 2025 15:34:15 GMT-0600 (Central Standard Time),600188.2999999998,A,fing,O,g,103,1,682.7999999998137,599505.5,7053,WL,A,6.0
5,6.615000009536743,learn,60000.0,Mon Mar 03 2025 15:34:15 GMT-0600 (Central Standard Time),600355.9000000004,A,finge,O,e,153,1,850.4000000003725,599505.5,7053,WL,A,6.0
5,6.697999954223633,learn,60000.0,Mon Mar 03 2025 15:34:15 GMT-0600 (Central Standard Time),600438.2000000002,A,finger,O,r,66,1,932.7000000001863,599505.5,7053,WL,A,6.0
5,6.8480000495910645,learn,60000.0,Mon Mar 03 2025 15:34:15 GMT-0600 (Central Standard Time),600588.2000000002,A,fingerenter,O,enter,136,1,1082.7000000001863,599505.5,7053,WL,A,6.0
5,7.114000082015991,learn,60000.0,Mon Mar 03 2025 15:34:15 GMT-0600 (Central Standard Time),600854.7999999998,A,s,O,s,250,1,266.29999999981374,600588.5,7053,WL,A,7.0
5,7.263999938964844,learn,60000.0,Mon Mar 03 2025 15:34:15 GMT-0600 (Central Standard Time),601004.7999999998,A,sa,O,a,143,1,416.29999999981374,600588.5,7053,WL,A,7.0
5,7.38100004196167,learn,60000.0,Mon Mar 03 2025 15:34:15 GMT-0600 (Central Standard Time),601121.5,A,sal,O,l,105,1,533.0,600588.5,7053,WL,A,7.0
5,7.563999891281128,learn,60000.0,Mon Mar 03 2025 15:34:15 GMT-0600 (Central Standard Time),601304.2999999998,A,salt,O,t,164,1,715.7999999998137,600588.5,7053,WL,A,7.0
5,7.796999931335449,learn,60000.0,Mon Mar 03 2025 15:34:15 GMT-0600 (Central Standard Time),601537.5999999996,A,saltenter,O,enter,213,1,949.0999999996275,600588.5,7053,WL,A,7.0
5,8.02999997138977,learn,60000.0,Mon Mar 03 2025 15:34:15 GMT-0600 (Central Standard Time),601770.7999999998,A,c,O,c,220,1,232.8999999994412,601537.9000000004,7053,WL,A,8.0
5,8.164000034332275,learn,60000.0,Mon Mar 03 2025 15:34:15 GMT-0600 (Central Standard Time),601904.2999999998,A,ch,O,h,123,1,366.3999999994412,601537.9000000004,7053,WL,A,8.0
5,8.27999997138977,learn,60000.0,Mon Mar 03 2025 15:34:15 GMT-0600 (Central Standard Time),602020.7000000002,A,chi,O,i,109,1,482.79999999981374,601537.9000000004,7053,WL,A,8.0
5,8.513999938964844,learn,60000.0,Mon Mar 03 2025 15:34:15 GMT-0600 (Central Standard Time),602254.2000000002,A,chim,O,m,218,1,716.2999999998137,601537.9000000004,7053,WL,A,8.0
5,8.763999938964844,learn,60000.0,Mon Mar 03 2025 15:34:15 GMT-0600 (Central Standard Time),602504.4000000004,A,chimn,O,n,240,1,966.5,601537.9000000004,7053,WL,A,8.0
5,8.864000082015991,learn,60000.0,Mon Mar 03 2025 15:34:15 GMT-0600 (Central Standard Time),602604.2999999998,A,chimne,O,e,94,1,1066.3999999994412,601537.9000000004,7053,WL,A,8.0
5,9.079999923706055,learn,60000.0,Mon Mar 03 2025 15:34:15 GMT-0600 (Central Standard Time),602820.7000000002,A,chimney,O,y,209,1,1282.7999999998137,601537.9000000004,7053,WL,A,8.0
5,9.263999938964844,learn,60000.0,Mon Mar 03 2025 15:34:15 GMT-0600 (Central Standard Time),603005.0999999996,A,chimneyenter,O,enter,170,1,1467.199999999255,601537.9000000004,7053,WL,A,8.0
5,9.69700002670288,learn,60000.0,Mon Mar 03 2025 15:34:15 GMT-0600 (Central Standard Time),603437.4000000004,A,g,O,g,425,1,432.0,603005.4000000004,7053,WL,A,9.0
5,9.980000019073486,learn,60000.0,Mon Mar 03 2025 15:34:15 GMT-0600 (Central Standard Time),603720.5999999996,A,go,O,o,273,1,715.1999999992549,603005.4000000004,7053,WL,A,9.0
5,10.213000059127808,learn,60000.0,Mon Mar 03 2025 15:34:15 GMT-0600 (Central Standard Time),603953.7999999998,A,gol,O,l,213,1,948.3999999994412,603005.4000000004,7053,WL,A,9.0
5,10.480000019073486,learn,60000.0,Mon Mar 03 2025 15:34:15 GMT-0600 (Central Standard Time),604220.5,A,gold,O,d,261,1,1215.0999999996275,603005.4000000004,7053,WL,A,9.0
5,10.69599986076355,learn,60000.0,Mon Mar 03 2025 15:34:15 GMT-0600 (Central Standard Time),604436.9000000004,A,goldenter,O,enter,210,1,1431.5,603005.4000000004,7053,WL,A,9.0
5,10.94599986076355,learn,60000.0,Mon Mar 03 2025 15:34:15 GMT-0600 (Central Standard Time),604686.9000000004,A,k,O,k,234,1,249.70000000018626,604437.2000000002,7053,WL,A,10.0
5,11.095999956130981,learn,60000.0,Mon Mar 03 2025 15:34:15 GMT-0600 (Central Standard Time),604837.0,A,ke,O,e,143,1,399.79999999981374,604437.2000000002,7053,WL,A,10.0
5,11.329999923706055,learn,60000.0,Mon Mar 03 2025 15:34:15 GMT-0600 (Central Standard Time),605070.2999999998,A,key,O,y,226,1,633.0999999996275,604437.2000000002,7053,WL,A,10.0
5,11.546000003814697,learn,60000.0,Mon Mar 03 2025 15:34:15 GMT-0600 (Central Standard Time),605286.7999999998,A,keyenter,O,enter,208,1,849.5999999996275,604437.2000000002,7053,WL,A,10.0
5,11.812999963760376,learn,60000.0,Mon Mar 03 2025 15:34:15 GMT-0600 (Central Standard Time),605553.5,A,l,O,l,255,1,266.40000000037253,605287.0999999996,7053,WL,A,11.0
5,12.029000043869019,learn,60000.0,Mon Mar 03 2025 15:34:15 GMT-0600 (Central Standard Time),605770.0,A,lo,O,o,196,1,482.90000000037253,605287.0999999996,7053,WL,A,11.0
5,12.263000011444092,learn,60000.0,Mon Mar 03 2025 15:34:15 GMT-0600 (Central Standard Time),606003.4000000004,A,log,O,g,212,1,716.3000000007451,605287.0999999996,7053,WL,A,11.0
5,14.144999980926514,learn,60000.0,Mon Mar 03 2025 15:34:15 GMT-0600 (Central Standard Time),607885.9000000004,A,logenter,O,enter,1867,1,2598.800000000745,605287.0999999996,7053,WL,A,11.0
5,14.82800006866455,learn,60000.0,Mon Mar 03 2025 15:34:15 GMT-0600 (Central Standard Time),608569.0,A,g,O,g,673,1,682.7999999998137,607886.2000000002,7053,WL,A,12.0
5,14.977999925613403,learn,60000.0,Mon Mar 03 2025 15:34:15 GMT-0600 (Central Standard Time),608718.9000000004,A,go,O,o,133,1,832.7000000001863,607886.2000000002,7053,WL,A,12.0
5,15.211999893188477,learn,60000.0,Mon Mar 03 2025 15:34:15 GMT-0600 (Central Standard Time),608952.2999999998,A,gol,O,l,223,1,1066.0999999996275,607886.2000000002,7053,WL,A,12.0
5,15.411999940872192,learn,60000.0,Mon Mar 03 2025 15:34:15 GMT-0600 (Central Standard Time),609152.2000000002,A,gold,O,d,190,1,1266.0,607886.2000000002,7053,WL,A,12.0
5,16.477999925613403,learn,60000.0,Mon Mar 03 2025 15:34:15 GMT-0600 (Central Standard Time),610218.5,A,goldenter,O,enter,1045,1,2332.2999999998137,607886.2000000002,7053,WL,A,12.0
5,18.927000045776367,learn,60000.0,Mon Mar 03 2025 15:34:15 GMT-0600 (Central Standard Time),612667.5,A,t,O,t,2444,1,2448.7999999998137,610218.7000000002,7053,WL,A,13.0
5,18.960000038146973,learn,60000.0,Mon Mar 03 2025 15:34:15 GMT-0600 (Central Standard Time),612701.0,A,tr,O,r,19,1,2482.2999999998137,610218.7000000002,7053,WL,A,13.0
5,19.177000045776367,learn,60000.0,Mon Mar 03 2025 15:34:15 GMT-0600 (Central Standard Time),612917.7999999998,A,tra,O,a,210,1,2699.0999999996275,610218.7000000002,7053,WL,A,13.0
5,19.293999910354614,learn,60000.0,Mon Mar 03 2025 15:34:15 GMT-0600 (Central Standard Time),613034.2999999998,A,trai,O,i,97,1,2815.5999999996275,610218.7000000002,7053,WL,A,13.0
5,19.41000008583069,learn,60000.0,Mon Mar 03 2025 15:34:15 GMT-0600 (Central Standard Time),613150.9000000004,A,train,O,n,100,1,2932.2000000001863,610218.7000000002,7053,WL,A,13.0
5,19.72699999809265,learn,60000.0,Mon Mar 03 2025 15:34:15 GMT-0600 (Central Standard Time),613467.5,A,trainenter,O,enter,311,1,3248.7999999998137,610218.7000000002,7053,WL,A,13.0
5,21.859999895095825,learn,60000.0,Mon Mar 03 2025 15:34:15 GMT-0600 (Central Standard Time),615600.0999999996,A,f,O,f,2115,1,2132.399999999441,613467.7000000002,7053,WL,A,14.0
5,21.943000078201294,learn,60000.0,Mon Mar 03 2025 15:34:15 GMT-0600 (Central Standard Time),615683.4000000004,A,fi,O,i,78,1,2215.7000000001863,613467.7000000002,7053,WL,A,14.0
5,22.026000022888184,learn,60000.0,Mon Mar 03 2025 15:34:15 GMT-0600 (Central Standard Time),615767.0,A,fin,O,n,75,1,2299.2999999998137,613467.7000000002,7053,WL,A,14.0
5,22.14299988746643,learn,60000.0,Mon Mar 03 2025 15:34:15 GMT-0600 (Central Standard Time),615883.2999999998,A,fing,O,g,96,1,2415.5999999996275,613467.7000000002,7053,WL,A,14.0
5,22.30900001525879,learn,60000.0,Mon Mar 03 2025 15:34:15 GMT-0600 (Central Standard Time),616050.0,A,finge,O,e,154,1,2582.2999999998137,613467.7000000002,7053,WL,A,14.0
5,22.408999919891357,learn,60000.0,Mon Mar 03 2025 15:34:15 GMT-0600 (Central Standard Time),616149.9000000004,A,finger,O,r,84,1,2682.2000000001863,613467.7000000002,7053,WL,A,14.0
5,22.625999927520752,learn,60000.0,Mon Mar 03 2025 15:34:15 GMT-0600 (Central Standard Time),616366.7999999998,A,fingerenter,O,enter,208,1,2899.0999999996275,613467.7000000002,7053,WL,A,14.0
5,26.47499990463257,learn,60000.0,Mon Mar 03 2025 15:34:15 GMT-0600 (Central Standard Time),620215.5,A,b,O,b,3832,1,3848.4000000003725,616367.0999999996,7053,WL,A,15.0
5,26.592000007629395,learn,60000.0,Mon Mar 03 2025 15:34:15 GMT-0600 (Central Standard Time),620332.2000000002,A,bu,O,u,103,1,3965.100000000559,616367.0999999996,7053,WL,A,15.0
5,26.72499990463257,learn,60000.0,Mon Mar 03 2025 15:34:15 GMT-0600 (Central Standard Time),620465.5,A,but,O,t,114,1,4098.4000000003725,616367.0999999996,7053,WL,A,15.0
5,26.85800004005432,learn,60000.0,Mon Mar 03 2025 15:34:15 GMT-0600 (Central Standard Time),620598.7000000002,A,butt,O,t,125,1,4231.600000000559,616367.0999999996,7053,WL,A,15.0
5,26.95799994468689,learn,60000.0,Mon Mar 03 2025 15:34:15 GMT-0600 (Central Standard Time),620698.7000000002,A,butto,O,o,88,1,4331.600000000559,616367.0999999996,7053,WL,A,15.0
5,27.092000007629395,learn,60000.0,Mon Mar 03 2025 15:34:15 GMT-0600 (Central Standard Time),620832.0999999996,A,button,O,n,124,1,4465.0,616367.0999999996,7053,WL,A,15.0
5,27.27500009536743,learn,60000.0,Mon Mar 03 2025 15:34:15 GMT-0600 (Central Standard Time),621015.0999999996,A,buttonenter,O,enter,166,1,4648.0,616367.0999999996,7053,WL,A,15.0
6,0.5169999599456787,distr,59483.00004005432,Mon Mar 03 2025 15:34:15 GMT-0600 (Central Standard Time),686644.7999999998,B,p,O,p,503,1,516.3999999994412,686128.4000000004,7053,WL,A,1.0
6,0.6999998092651367,distr,59300.00019073486,Mon Mar 03 2025 15:34:15 GMT-0600 (Central Standard Time),686827.5999999996,B,po,O,o,177,1,699.1999999992549,686128.4000000004,7053,WL,A,1.0
6,1.0499999523162842,distr,58950.000047683716,Mon Mar 03 2025 15:34:15 GMT-0600 (Central Standard Time),687177.7999999998,B,poo,O,o,330,1,1049.3999999994412,686128.4000000004,7053,WL,A,1.0
6,2.5989999771118164,distr,57401.00002288818,Mon Mar 03 2025 15:34:15 GMT-0600 (Central Standard Time),688727.2999999998,B,pool,O,l,1532,1,2598.899999999441,686128.4000000004,7053,WL,A,1.0
6,2.798999786376953,distr,57201.00021362305,Mon Mar 03 2025 15:34:15 GMT-0600 (Central Standard Time),688927.2999999998,B,poolenter,O,enter,191,1,2798.899999999441,686128.4000000004,7053,WL,A,1.0
6,3.1489999294281006,distr,56851.0000705719,Mon Mar 03 2025 15:34:15 GMT-0600 (Central Standard Time),689277.0999999996,B,b,O,b,335,1,349.59999999962747,688927.5,7053,WL,A,2.0
6,3.2829999923706055,distr,56717.000007629395,Mon Mar 03 2025 15:34:15 GMT-0600 (Central Standard Time),689410.5,B,be,O,e,112,1,483.0,688927.5,7053,WL,A,2.0
6,3.431999921798706,distr,56568.000078201294,Mon Mar 03 2025 15:34:15 GMT-0600 (Central Standard Time),689560.2999999998,B,bea,O,a,140,1,632.7999999998137,688927.5,7053,WL,A,2.0
6,3.548999786376953,distr,56451.00021362305,Mon Mar 03 2025 15:34:15 GMT-0600 (Central Standard Time),689677.0,B,beac,O,c,102,1,749.5,688927.5,7053,WL,A,2.0
6,3.682999849319458,distr,56317.00015068054,Mon Mar 03 2025 15:34:15 GMT-0600 (Central Standard Time),689810.5999999996,B,beach,O,h,112,1,883.0999999996275,688927.5,7053,WL,A,2.0
6,3.9489998817443848,distr,56051.000118255615,Mon Mar 03 2025 15:34:15 GMT-0600 (Central Standard Time),690076.7999999998,B,beachenter,O,enter,252,1,1149.2999999998137,688927.5,7053,WL,A,2.0
6,4.098999977111816,distr,55901.00002288818,Mon Mar 03 2025 15:34:15 GMT-0600 (Central Standard Time),690226.7999999998,B,c,O,c,138,1,149.70000000018626,690077.0999999996,7053,WL,A,3.0
6,4.248999834060669,distr,55751.00016593933,Mon Mar 03 2025 15:34:15 GMT-0600 (Central Standard Time),690377.0,B,ch,O,h,140,1,299.90000000037253,690077.0999999996,7053,WL,A,3.0
6,4.365999937057495,distr,55634.000062942505,Mon Mar 03 2025 15:34:15 GMT-0600 (Central Standard Time),690493.5,B,cha,O,a,102,1,416.40000000037253,690077.0999999996,7053,WL,A,3.0
6,4.498999834060669,distr,55501.00016593933,Mon Mar 03 2025 15:34:15 GMT-0600 (Central Standard Time),690626.9000000004,B,chai,O,i,120,1,549.8000000007451,690077.0999999996,7053,WL,A,3.0
6,4.698999881744385,distr,55301.000118255615,Mon Mar 03 2025 15:34:15 GMT-0600 (Central Standard Time),690826.7000000002,B,chair,O,r,180,1,749.6000000005588,690077.0999999996,7053,WL,A,3.0
6,5.115000009536743,distr,54884.99999046326,Mon Mar 03 2025 15:34:15 GMT-0600 (Central Standard Time),691243.0999999996,B,chairenter,O,enter,411,1,1166.0,690077.0999999996,7053,WL,A,3.0
6,5.414999961853027,distr,54585.00003814697,Mon Mar 03 2025 15:34:15 GMT-0600 (Central Standard Time),691543.0999999996,B,p,O,p,284,1,299.79999999981374,691243.2999999998,7053,WL,A,4.0
6,5.7149999141693115,distr,54285.00008583069,Mon Mar 03 2025 15:34:15 GMT-0600 (Central Standard Time),691842.9000000004,B,pe,O,e,287,1,599.6000000005588,691243.2999999998,7053,WL,A,4.0
6,5.881999969482422,distr,54118.00003051758,Mon Mar 03 2025 15:34:15 GMT-0600 (Central Standard Time),692009.7000000002,B,pea,O,a,155,1,766.4000000003725,691243.2999999998,7053,WL,A,4.0
6,5.997999906539917,distr,54002.00009346008,Mon Mar 03 2025 15:34:15 GMT-0600 (Central Standard Time),692126.2999999998,B,peac,O,c,109,1,883.0,691243.2999999998,7053,WL,A,4.0
6,6.148000001907349,distr,53851.99999809265,Mon Mar 03 2025 15:34:15 GMT-0600 (Central Standard Time),692276.2999999998,B,peach,O,h,144,1,1033.0,691243.2999999998,7053,WL,A,4.0
6,6.4649999141693115,distr,53535.00008583069,Mon Mar 03 2025 15:34:15 GMT-0600 (Central Standard Time),692592.9000000004,B,peachenter,O,enter,298,1,1349.6000000005588,691243.2999999998,7053,WL,A,4.0
6,6.747999906539917,distr,53252.00009346008,Mon Mar 03 2025 15:34:15 GMT-0600 (Central Standard Time),692875.9000000004,B,c,O,c,278,1,282.70000000018626,692593.2000000002,7053,WL,A,5.0
6,6.880999803543091,distr,53119.00019645691,Mon Mar 03 2025 15:34:15 GMT-0600 (Central Standard Time),693009.2000000002,B,co,O,o,114,1,416.0,692593.2000000002,7053,WL,A,5.0
6,6.980999946594238,distr,53019.00005340576,Mon Mar 03 2025 15:34:15 GMT-0600 (Central Standard Time),693109.2999999998,B,cou,O,u,93,1,516.0999999996275,692593.2000000002,7053,WL,A,5.0
6,7.180999994277954,distr,52819.000005722046,Mon Mar 03 2025 15:34:15 GMT-0600 (Central Standard Time),693309.2000000002,B,coun,O,n,185,1,716.0,692593.2000000002,7053,WL,A,5.0
6,7.297999858856201,distr,52702.0001411438,Mon Mar 03 2025 15:34:15 GMT-0600 (Central Standard Time),693425.7000000002,B,count,O,t,105,1,832.5,692593.2000000002,7053,WL,A,5.0
6,7.514999866485596,distr,52485.000133514404,Mon Mar 03 2025 15:34:15 GMT-0600 (Central Standard Time),693642.5,B,county,O,y,204,1,1049.2999999998137,692593.2000000002,7053,WL,A,5.0
6,7.747999906539917,distr,52252.00009346008,Mon Mar 03 2025 15:34:15 GMT-0600 (Central Standard Time),693875.5999999996,B,countyenter,O,enter,228,1,1282.3999999994412,692593.2000000002,7053,WL,A,5.0
6,8.115000009536743,distr,51884.99999046326,Mon Mar 03 2025 15:34:15 GMT-0600 (Central Standard Time),694242.4000000004,B,p,O,p,347,1,366.6000000005588,693875.7999999998,7053,WL,A,6.0
6,8.21399998664856,distr,51786.00001335144,Mon Mar 03 2025 15:34:15 GMT-0600 (Central Standard Time),694342.2000000002,B,po,O,o,84,1,466.40000000037253,693875.7999999998,7053,WL,A,6.0
6,8.447999954223633,distr,51552.00004577637,Mon Mar 03 2025 15:34:15 GMT-0600 (Central Standard Time),694575.5999999996,B,poo,O,o,216,1,699.7999999998137,693875.7999999998,7053,WL,A,6.0
6,8.747999906539917,distr,51252.00009346008,Mon Mar 03 2025 15:34:15 GMT-0600 (Central Standard Time),694875.5,B,pool,O,l,279,1,999.7000000001863,693875.7999999998,7053,WL,A,6.0
6,9.347999811172485,distr,50652.000188827515,Mon Mar 03 2025 15:34:15 GMT-0600 (Central Standard Time),695475.5,B,poolenter,O,enter,579,1,1599.7000000001863,693875.7999999998,7053,WL,A,6.0
6,12.196999788284302,distr,47803.0002117157,Mon Mar 03 2025 15:34:15 GMT-0600 (Central Standard Time),698324.4000000004,B,j,O,j,2835,1,2848.600000000559,695475.7999999998,7053,WL,A,7.0
6,12.329999923706055,distr,47670.000076293945,Mon Mar 03 2025 15:34:15 GMT-0600 (Central Standard Time),698457.7000000002,B,ju,O,u,114,1,2981.9000000003725,695475.7999999998,7053,WL,A,7.0
6,12.446999788284302,distr,47553.0002117157,Mon Mar 03 2025 15:34:15 GMT-0600 (Central Standard Time),698574.4000000004,B,jud,O,d,101,1,3098.600000000559,695475.7999999998,7053,WL,A,7.0
6,12.646999835968018,distr,47353.00016403198,Mon Mar 03 2025 15:34:15 GMT-0600 (Central Standard Time),698775.2000000002,B,judg,O,g,184,1,3299.4000000003725,695475.7999999998,7053,WL,A,7.0
6,12.812999963760376,distr,47187.000036239624,Mon Mar 03 2025 15:34:15 GMT-0600 (Central Standard Time),698940.9000000004,B,judge,O,e,151,1,3465.100000000559,695475.7999999998,7053,WL,A,7.0
6,13.145999908447266,distr,46854.000091552734,Mon Mar 03 2025 15:34:15 GMT-0600 (Central Standard Time),699274.0999999996,B,judgeenter,O,enter,321,1,3798.2999999998137,695475.7999999998,7053,WL,A,7.0
6,25.675999879837036,distr,34324.000120162964,Mon Mar 03 2025 15:34:15 GMT-0600 (Central Standard Time),711803.9000000004,B,r,O,r,12509,1,12529.5,699274.4000000004,7053,WL,A,8.0
6,25.908999919891357,distr,34091.00008010864,Mon Mar 03 2025 15:34:15 GMT-0600 (Central Standard Time),712036.7000000002,B,ra,O,a,218,1,12762.299999999814,699274.4000000004,7053,WL,A,8.0
6,26.025999784469604,distr,33974.000215530396,Mon Mar 03 2025 15:34:15 GMT-0600 (Central Standard Time),712153.4000000004,B,rai,O,i,106,1,12879.0,699274.4000000004,7053,WL,A,8.0
6,26.158999919891357,distr,33841.00008010864,Mon Mar 03 2025 15:34:15 GMT-0600 (Central Standard Time),712286.7999999998,B,rain,O,n,117,1,13012.399999999441,699274.4000000004,7053,WL,A,8.0
6,26.758999824523926,distr,33241.000175476074,Mon Mar 03 2025 15:34:15 GMT-0600 (Central Standard Time),712886.5999999996,B,rainenter,O,enter,584,1,13612.199999999255,699274.4000000004,7053,WL,A,8.0
6,28.157999992370605,distr,31842.000007629395,Mon Mar 03 2025 15:34:15 GMT-0600 (Central Standard Time),714285.9000000004,B,b,O,b,1392,1,1399.0,712886.9000000004,7053,WL,A,9.0
6,28.375,distr,31625.0,Mon Mar 03 2025 15:34:15 GMT-0600 (Central Standard Time),714502.7999999998,B,bo,O,o,208,1,1615.8999999994412,712886.9000000004,7053,WL,A,9.0
6,28.557999849319458,distr,31442.000150680542,Mon Mar 03 2025 15:34:15 GMT-0600 (Central Standard Time),714685.9000000004,B,bow,O,w,167,1,1799.0,712886.9000000004,7053,WL,A,9.0
6,28.824999809265137,distr,31175.000190734863,Mon Mar 03 2025 15:34:15 GMT-0600 (Central Standard Time),714952.7000000002,B,bowl,O,l,248,1,2065.7999999998137,712886.9000000004,7053,WL,A,9.0
6,29.157999992370605,distr,30842.000007629395,Mon Mar 03 2025 15:34:15 GMT-0600 (Central Standard Time),715285.7999999998,B,bowlenter,O,enter,318,1,2398.899999999441,712886.9000000004,7053,WL,A,9.0
6,49.650999784469604,distr,10349.000215530396,Mon Mar 03 2025 15:34:15 GMT-0600 (Central Standard Time),735779.2999999998,B,r,O,r,20488,1,20493.200000000186,715286.0999999996,7053,WL,A,10.0
6,49.867999792099,distr,10132.000207901001,Mon Mar 03 2025 15:34:15 GMT-0600 (Central Standard Time),735996.0,B,ra,O,a,203,1,20709.900000000373,715286.0999999996,7053,WL,A,10.0
6,49.93499994277954,distr,10065.000057220459,Mon Mar 03 2025 15:34:15 GMT-0600 (Central Standard Time),736062.7000000002,B,rai,O,i,58,1,20776.60000000056,715286.0999999996,7053,WL,A,10.0
6,50.08399987220764,distr,9916.000127792358,Mon Mar 03 2025 15:34:15 GMT-0600 (Central Standard Time),736212.5,B,rain,O,n,143,1,20926.400000000373,715286.0999999996,7053,WL,A,10.0
6,50.633999824523926,distr,9366.000175476074,Mon Mar 03 2025 15:34:15 GMT-0600 (Central Standard Time),736762.4000000004,B,rainenter,O,enter,538,1,21476.300000000745,715286.0999999996,7053,WL,A,10.0
6,60.014999866485596,distr,-14.999866485595703,Mon Mar 03 2025 15:34:15 GMT-0600 (Central Standard Time),746142.7000000002,B,None,O,None,9376,1,9379.900000000373,736762.7999999998,7053,WL,A,11.0
7,0.36699986457824707,immed,59633.00013542175,Mon Mar 03 2025 15:34:15 GMT-0600 (Central Standard Time),749042.0999999996,A,f,O,f,356,1,366.69999999925494,748675.4000000004,7053,WL,A,1.0
7,0.5,immed,59500.0,Mon Mar 03 2025 15:34:15 GMT-0600 (Central Standard Time),749175.0999999996,A,fi,O,i,116,1,499.69999999925494,748675.4000000004,7053,WL,A,1.0
7,0.5999999046325684,immed,59400.00009536743,Mon Mar 03 2025 15:34:15 GMT-0600 (Central Standard Time),749275.2999999998,A,fin,O,n,79,1,599.8999999994412,748675.4000000004,7053,WL,A,1.0
7,0.7000000476837158,immed,59299.999952316284,Mon Mar 03 2025 15:34:15 GMT-0600 (Central Standard Time),749375.0,A,fing,O,g,91,1,699.5999999996275,748675.4000000004,7053,WL,A,1.0
7,0.8669998645782471,immed,59133.00013542175,Mon Mar 03 2025 15:34:15 GMT-0600 (Central Standard Time),749541.9000000004,A,finge,O,e,151,1,866.5,748675.4000000004,7053,WL,A,1.0
7,0.932999849319458,immed,59067.00015068054,Mon Mar 03 2025 15:34:15 GMT-0600 (Central Standard Time),749608.5,A,finger,O,r,56,1,933.0999999996275,748675.4000000004,7053,WL,A,1.0
7,1.1670000553131104,immed,58832.99994468689,Mon Mar 03 2025 15:34:15 GMT-0600 (Central Standard Time),749841.7000000002,A,fingerenter,O,enter,214,1,1166.2999999998137,748675.4000000004,7053,WL,A,1.0
7,1.3329999446868896,immed,58667.00005531311,Mon Mar 03 2025 15:34:15 GMT-0600 (Central Standard Time),750008.0,A,a,O,a,157,1,166.0,749842.0,7053,WL,A,2.0
7,2.615999937057495,immed,57384.000062942505,Mon Mar 03 2025 15:34:15 GMT-0600 (Central Standard Time),751291.0,A,ap,O,p,1278,1,1449.0,749842.0,7053,WL,A,2.0
7,2.7660000324249268,immed,57233.99996757507,Mon Mar 03 2025 15:34:15 GMT-0600 (Central Standard Time),751441.0999999996,A,app,O,p,131,1,1599.0999999996275,749842.0,7053,WL,A,2.0
7,2.932999849319458,immed,57067.00015068054,Mon Mar 03 2025 15:34:15 GMT-0600 (Central Standard Time),751607.7999999998,A,appl,O,l,149,1,1765.7999999998137,749842.0,7053,WL,A,2.0
7,3.0329999923706055,immed,56967.000007629395,Mon Mar 03 2025 15:34:15 GMT-0600 (Central Standard Time),751707.7000000002,A,apple,O,e,87,1,1865.7000000001863,749842.0,7053,WL,A,2.0
7,3.1989998817443848,immed,56801.000118255615,Mon Mar 03 2025 15:34:15 GMT-0600 (Central Standard Time),751874.2999999998,A,appleenter,O,enter,155,1,2032.2999999998137,749842.0,7053,WL,A,2.0
7,3.432999849319458,immed,56567.00015068054,Mon Mar 03 2025 15:34:15 GMT-0600 (Central Standard Time),752107.5999999996,A,g,O,g,228,1,233.0,751874.5999999996,7053,WL,A,3.0
7,3.5490000247955322,immed,56450.99997520447,Mon Mar 03 2025 15:34:15 GMT-0600 (Central Standard Time),752224.4000000004,A,go,O,o,107,1,349.80000000074506,751874.5999999996,7053,WL,A,3.0
7,3.7660000324249268,immed,56233.99996757507,Mon Mar 03 2025 15:34:15 GMT-0600 (Central Standard Time),752440.7999999998,A,gol,O,l,198,1,566.2000000001863,751874.5999999996,7053,WL,A,3.0
7,3.9819998741149902,immed,56018.00012588501,Mon Mar 03 2025 15:34:15 GMT-0600 (Central Standard Time),752657.4000000004,A,gold,O,d,198,1,782.8000000007451,751874.5999999996,7053,WL,A,3.0
7,4.648999929428101,immed,55351.0000705719,Mon Mar 03 2025 15:34:15 GMT-0600 (Central Standard Time),753323.5999999996,A,goldenter,O,enter,661,1,1449.0,751874.5999999996,7053,WL,A,3.0
7,5.681999921798706,immed,54318.000078201294,Mon Mar 03 2025 15:34:15 GMT-0600 (Central Standard Time),754357.0,A,r,O,r,1019,1,1033.2000000001863,753323.7999999998,7053,WL,A,4.0
7,5.832000017166138,immed,54167.99998283386,Mon Mar 03 2025 15:34:15 GMT-0600 (Central Standard Time),754506.5999999996,A,ra,O,a,137,1,1182.7999999998137,753323.7999999998,7053,WL,A,4.0
7,6.047999858856201,immed,53952.0001411438,Mon Mar 03 2025 15:34:15 GMT-0600 (Central Standard Time),754723.2999999998,A,rat,O,t,196,1,1399.5,753323.7999999998,7053,WL,A,4.0
7,6.131999969482422,immed,53868.00003051758,Mon Mar 03 2025 15:34:15 GMT-0600 (Central Standard Time),754806.9000000004,A,ratt,O,t,74,1,1483.1000000005588,753323.7999999998,7053,WL,A,4.0
7,6.3480000495910645,immed,53651.999950408936,Mon Mar 03 2025 15:34:15 GMT-0600 (Central Standard Time),755023.2000000002,A,rattl,O,l,208,1,1699.4000000003725,753323.7999999998,7053,WL,A,4.0
7,6.514999866485596,immed,53485.000133514404,Mon Mar 03 2025 15:34:15 GMT-0600 (Central Standard Time),755189.7999999998,A,rattle,O,e,151,1,1866.0,753323.7999999998,7053,WL,A,4.0
7,6.680999994277954,immed,53319.000005722046,Mon Mar 03 2025 15:34:15 GMT-0600 (Central Standard Time),755356.4000000004,A,rattleenter,O,enter,160,1,2032.6000000005588,753323.7999999998,7053,WL,A,4.0
7,7.014999866485596,immed,52985.000133514404,Mon Mar 03 2025 15:34:15 GMT-0600 (Central Standard Time),755689.9000000004,A,b,O,b,322,1,333.30000000074506,755356.5999999996,7053,WL,A,5.0
7,7.180999994277954,immed,52819.000005722046,Mon Mar 03 2025 15:34:15 GMT-0600 (Central Standard Time),755856.2999999998,A,bu,O,u,148,1,499.70000000018626,755356.5999999996,7053,WL,A,5.0
7,7.3480000495910645,immed,52651.999950408936,Mon Mar 03 2025 15:34:15 GMT-0600 (Central Standard Time),756023.0,A,but,O,t,150,1,666.4000000003725,755356.5999999996,7053,WL,A,5.0
7,7.497999906539917,immed,52502.00009346008,Mon Mar 03 2025 15:34:15 GMT-0600 (Central Standard Time),756172.7999999998,A,butt,O,t,135,1,816.2000000001863,755356.5999999996,7053,WL,A,5.0
7,7.614000082015991,immed,52385.99991798401,Mon Mar 03 2025 15:34:15 GMT-0600 (Central Standard Time),756289.5,A,butto,O,o,97,1,932.9000000003725,755356.5999999996,7053,WL,A,5.0
7,7.88100004196167,immed,52118.99995803833,Mon Mar 03 2025 15:34:15 GMT-0600 (Central Standard Time),756556.2000000002,A,button,O,n,253,1,1199.6000000005588,755356.5999999996,7053,WL,A,5.0
7,8.148000001907349,immed,51851.99999809265,Mon Mar 03 2025 15:34:15 GMT-0600 (Central Standard Time),756822.9000000004,A,buttonenter,O,enter,258,1,1466.300000000745,755356.5999999996,7053,WL,A,5.0
7,8.480999946594238,immed,51519.00005340576,Mon Mar 03 2025 15:34:15 GMT-0600 (Central Standard Time),757155.7999999998,A,m,O,m,327,1,332.5,756823.2999999998,7053,WL,A,6.0
7,8.580999851226807,immed,51419.00014877319,Mon Mar 03 2025 15:34:15 GMT-0600 (Central Standard Time),757255.7999999998,A,me,O,e,83,1,432.5,756823.2999999998,7053,WL,A,6.0
7,8.747999906539917,immed,51252.00009346008,Mon Mar 03 2025 15:34:15 GMT-0600 (Central Standard Time),757422.5999999996,A,mea,O,a,150,1,599.2999999998137,756823.2999999998,7053,WL,A,6.0
7,9.29699993133545,immed,50703.00006866455,Mon Mar 03 2025 15:34:15 GMT-0600 (Central Standard Time),757972.2999999998,A,mead,O,d,544,1,1149.0,756823.2999999998,7053,WL,A,6.0
7,9.496999979019165,immed,50503.000020980835,Mon Mar 03 2025 15:34:15 GMT-0600 (Central Standard Time),758172.2999999998,A,meado,O,o,186,1,1349.0,756823.2999999998,7053,WL,A,6.0
7,9.71399998664856,immed,50286.00001335144,Mon Mar 03 2025 15:34:15 GMT-0600 (Central Standard Time),758389.0999999996,A,meadow,O,w,202,1,1565.7999999998137,756823.2999999998,7053,WL,A,6.0
7,9.980999946594238,immed,50019.00005340576,Mon Mar 03 2025 15:34:15 GMT-0600 (Central Standard Time),758655.5999999996,A,meadowenter,O,enter,249,1,1832.2999999998137,756823.2999999998,7053,WL,A,6.0
7,10.29699993133545,immed,49703.00006866455,Mon Mar 03 2025 15:34:15 GMT-0600 (Central Standard Time),758971.7999999998,A,b,O,b,311,1,316.0,758655.7999999998,7053,WL,A,7.0
7,10.547999858856201,immed,49452.0001411438,Mon Mar 03 2025 15:34:15 GMT-0600 (Central Standard Time),759223.0999999996,A,bo,O,o,235,1,567.2999999998137,758655.7999999998,7053,WL,A,7.0
7,10.763000011444092,immed,49236.99998855591,Mon Mar 03 2025 15:34:15 GMT-0600 (Central Standard Time),759438.5999999996,A,boo,O,o,207,1,782.7999999998137,758655.7999999998,7053,WL,A,7.0
7,11.063999891281128,immed,48936.00010871887,Mon Mar 03 2025 15:34:15 GMT-0600 (Central Standard Time),759738.7999999998,A,book,O,k,288,1,1083.0,758655.7999999998,7053,WL,A,7.0
7,12.27999997138977,immed,47720.00002861023,Mon Mar 03 2025 15:34:15 GMT-0600 (Central Standard Time),760955.0,A,bookenter,O,enter,1196,1,2299.2000000001863,758655.7999999998,7053,WL,A,7.0
7,12.595999956130981,immed,47404.00004386902,Mon Mar 03 2025 15:34:15 GMT-0600 (Central Standard Time),761271.2999999998,A,s,O,s,307,1,316.0,760955.2999999998,7053,WL,A,8.0
7,12.746000051498413,immed,47253.99994850159,Mon Mar 03 2025 15:34:15 GMT-0600 (Central Standard Time),761421.2000000002,A,sa,O,a,135,1,465.90000000037253,760955.2999999998,7053,WL,A,8.0
7,12.86299991607666,immed,47137.00008392334,Mon Mar 03 2025 15:34:15 GMT-0600 (Central Standard Time),761537.7999999998,A,sal,O,l,97,1,582.5,760955.2999999998,7053,WL,A,8.0
7,13.062999963760376,immed,46937.000036239624,Mon Mar 03 2025 15:34:15 GMT-0600 (Central Standard Time),761737.9000000004,A,salt,O,t,189,1,782.6000000005588,760955.2999999998,7053,WL,A,8.0
7,13.546000003814697,immed,46453.9999961853,Mon Mar 03 2025 15:34:15 GMT-0600 (Central Standard Time),762221.0,A,saltenter,O,enter,476,1,1265.7000000001863,760955.2999999998,7053,WL,A,8.0
7,14.661999940872192,immed,45338.00005912781,Mon Mar 03 2025 15:34:15 GMT-0600 (Central Standard Time),763337.2999999998,A,c,O,c,1098,1,1116.0,762221.2999999998,7053,WL,A,9.0
7,14.779000043869019,immed,45220.99995613098,Mon Mar 03 2025 15:34:15 GMT-0600 (Central Standard Time),763454.2000000002,A,ch,O,h,101,1,1232.9000000003725,762221.2999999998,7053,WL,A,9.0
7,14.911999940872192,immed,45088.00005912781,Mon Mar 03 2025 15:34:15 GMT-0600 (Central Standard Time),763587.4000000004,A,chi,O,i,128,1,1366.1000000005588,762221.2999999998,7053,WL,A,9.0
7,15.062000036239624,immed,44937.999963760376,Mon Mar 03 2025 15:34:15 GMT-0600 (Central Standard Time),763737.2000000002,A,chim,O,m,139,1,1515.9000000003725,762221.2999999998,7053,WL,A,9.0
7,15.26199984550476,immed,44738.00015449524,Mon Mar 03 2025 15:34:15 GMT-0600 (Central Standard Time),763937.2000000002,A,chimn,O,n,181,1,1715.9000000003725,762221.2999999998,7053,WL,A,9.0
7,15.328999996185303,immed,44671.0000038147,Mon Mar 03 2025 15:34:15 GMT-0600 (Central Standard Time),764003.5999999996,A,chimne,O,e,61,1,1782.2999999998137,762221.2999999998,7053,WL,A,9.0
7,15.51199984550476,immed,44488.00015449524,Mon Mar 03 2025 15:34:15 GMT-0600 (Central Standard Time),764187.2999999998,A,chimney,O,y,163,1,1966.0,762221.2999999998,7053,WL,A,9.0
7,16.34500002861023,immed,43654.99997138977,Mon Mar 03 2025 15:34:15 GMT-0600 (Central Standard Time),765020.2000000002,A,chimneyenter,O,enter,819,1,2798.9000000003725,762221.2999999998,7053,WL,A,9.0
7,16.59500002861023,immed,43404.99997138977,Mon Mar 03 2025 15:34:15 GMT-0600 (Central Standard Time),765270.2000000002,A,l,O,l,242,1,249.70000000018626,765020.5,7053,WL,A,10.0
7,16.812000036239624,immed,43187.999963760376,Mon Mar 03 2025 15:34:15 GMT-0600 (Central Standard Time),765486.7999999998,A,lo,O,o,200,1,466.29999999981374,765020.5,7053,WL,A,10.0
7,16.944999933242798,immed,43055.0000667572,Mon Mar 03 2025 15:34:15 GMT-0600 (Central Standard Time),765619.9000000004,A,log,O,g,127,1,599.4000000003725,765020.5,7053,WL,A,10.0
7,17.17799997329712,immed,42822.00002670288,Mon Mar 03 2025 15:34:15 GMT-0600 (Central Standard Time),765853.2000000002,A,logenter,O,enter,227,1,832.7000000001863,765020.5,7053,WL,A,10.0
7,17.444999933242798,immed,42555.0000667572,Mon Mar 03 2025 15:34:15 GMT-0600 (Central Standard Time),766119.9000000004,A,k,O,k,257,1,266.40000000037253,765853.5,7053,WL,A,11.0
7,17.57800006866455,immed,42421.99993133545,Mon Mar 03 2025 15:34:15 GMT-0600 (Central Standard Time),766253.2999999998,A,ke,O,e,126,1,399.79999999981374,765853.5,7053,WL,A,11.0
7,17.777999877929688,immed,42222.00012207031,Mon Mar 03 2025 15:34:15 GMT-0600 (Central Standard Time),766453.0,A,key,O,y,185,1,599.5,765853.5,7053,WL,A,11.0
7,18.543999910354614,immed,41456.000089645386,Mon Mar 03 2025 15:34:15 GMT-0600 (Central Standard Time),767219.5,A,keyenter,O,enter,754,1,1366.0,765853.5,7053,WL,A,11.0
7,20.90999984741211,immed,39090.00015258789,Mon Mar 03 2025 15:34:15 GMT-0600 (Central Standard Time),769585.4000000004,A,t,O,t,2355,1,2365.5,767219.9000000004,7053,WL,A,12.0
7,20.97699999809265,immed,39023.00000190735,Mon Mar 03 2025 15:34:15 GMT-0600 (Central Standard Time),769651.9000000004,A,tr,O,r,60,1,2432.0,767219.9000000004,7053,WL,A,12.0
7,21.210000038146973,immed,38789.99996185303,Mon Mar 03 2025 15:34:15 GMT-0600 (Central Standard Time),769885.4000000004,A,tra,O,a,219,1,2665.5,767219.9000000004,7053,WL,A,12.0
