block_c,block_dur,condition,countdown,datetime,endtime,list,multichar_response,project,response,response_time,session_number,start_end,starttime,subject_id,task,task_vers,trial
,,,,Wed Apr 16 2025 18:23:02 GMT-0500 (Central Daylight Time),,,,O,space,687,1,,,7131,WL,B,
prac,,0,,Wed Apr 16 2025 18:23:02 GMT-0500 (Central Daylight Time),,NA,b,O,b,4070,1,,,7131,WL,B,1.0
prac,,0,,Wed Apr 16 2025 18:23:02 GMT-0500 (Central Daylight Time),,NA,bo,O,o,191,1,,,7131,WL,B,1.0
prac,,0,,Wed Apr 16 2025 18:23:02 GMT-0500 (Central Daylight Time),,NA,boo,O,o,88,1,,,7131,WL,B,1.0
prac,,0,,Wed Apr 16 2025 18:23:02 GMT-0500 (Central Daylight Time),,NA,boos,O,s,152,1,,,7131,WL,B,1.0
prac,,0,,Wed Apr 16 2025 18:23:02 GMT-0500 (Central Daylight Time),,NA,boost,O,t,176,1,,,7131,WL,B,1.0
prac,,0,,Wed Apr 16 2025 18:23:02 GMT-0500 (Central Daylight Time),,NA,boostenter,O,enter,469,1,,,7131,WL,B,1.0
1,1.1500000953674316,learn,58849.99990463257,Wed Apr 16 2025 18:23:02 GMT-0500 (Central Daylight Time),118796.80000001192,A,c,O,c,1110,1,1148.7000000476837,117648.09999996424,7131,WL,B,1.0
1,1.2670001983642578,learn,58732.99980163574,Wed Apr 16 2025 18:23:02 GMT-0500 (Central Daylight Time),118913.5,A,cl,O,l,85,1,1265.4000000357628,117648.09999996424,7131,WL,B,1.0
1,1.4490001201629639,learn,58550.999879837036,Wed Apr 16 2025 18:23:02 GMT-0500 (Central Daylight Time),119095.69999998808,A,clo,O,o,150,1,1447.6000000238419,117648.09999996424,7131,WL,B,1.0
1,1.75,learn,58250.0,Wed Apr 16 2025 18:23:02 GMT-0500 (Central Daylight Time),119396.5,A,cloc,O,c,263,1,1748.4000000357628,117648.09999996424,7131,WL,B,1.0
1,1.8650000095367432,learn,58134.99999046326,Wed Apr 16 2025 18:23:02 GMT-0500 (Central Daylight Time),119511.89999997616,A,clock,O,k,86,1,1863.800000011921,117648.09999996424,7131,WL,B,1.0
1,2.3490002155303955,learn,57650.999784469604,Wed Apr 16 2025 18:23:02 GMT-0500 (Central Daylight Time),119995.09999996424,A,clockenter,O,enter,476,1,2347.0,117648.09999996424,7131,WL,B,1.0
1,3.818000078201294,learn,56181.999921798706,Wed Apr 16 2025 18:23:02 GMT-0500 (Central Daylight Time),121462.09999996424,A,p,O,p,1457,1,1466.3999999761581,119995.69999998808,7131,WL,B,2.0
1,4.068000078201294,learn,55931.999921798706,Wed Apr 16 2025 18:23:02 GMT-0500 (Central Daylight Time),121712.09999996424,A,pu,O,u,211,1,1716.3999999761581,119995.69999998808,7131,WL,B,2.0
1,4.251000165939331,learn,55748.99983406067,Wed Apr 16 2025 18:23:02 GMT-0500 (Central Daylight Time),121895.39999997616,A,pup,O,p,150,1,1899.699999988079,119995.69999998808,7131,WL,B,2.0
1,4.384000062942505,learn,55615.999937057495,Wed Apr 16 2025 18:23:02 GMT-0500 (Central Daylight Time),122028.80000001192,A,pupi,O,i,92,1,2033.1000000238419,119995.69999998808,7131,WL,B,2.0
1,5.201000213623047,learn,54798.99978637695,Wed Apr 16 2025 18:23:02 GMT-0500 (Central Daylight Time),122845.09999996424,A,pupil,O,l,770,1,2849.399999976158,119995.69999998808,7131,WL,B,2.0
1,5.400000095367432,learn,54599.99990463257,Wed Apr 16 2025 18:23:02 GMT-0500 (Central Daylight Time),123044.0,A,pupilenter,O,enter,164,1,3048.300000011921,119995.69999998808,7131,WL,B,2.0
1,5.751000165939331,learn,54248.99983406067,Wed Apr 16 2025 18:23:02 GMT-0500 (Central Daylight Time),123395.0,A,s,O,s,328,1,350.60000002384186,123044.39999997616,7131,WL,B,3.0
1,6.25,learn,53750.0,Wed Apr 16 2025 18:23:02 GMT-0500 (Central Daylight Time),123894.69999998808,A,st,O,t,468,1,850.3000000119209,123044.39999997616,7131,WL,B,3.0
1,6.5340001583099365,learn,53465.99984169006,Wed Apr 16 2025 18:23:02 GMT-0500 (Central Daylight Time),124178.09999996424,A,str,O,r,242,1,1133.699999988079,123044.39999997616,7131,WL,B,3.0
1,6.75,learn,53250.0,Wed Apr 16 2025 18:23:02 GMT-0500 (Central Daylight Time),124394.59999996424,A,stre,O,e,173,1,1350.199999988079,123044.39999997616,7131,WL,B,3.0
1,6.900000095367432,learn,53099.99990463257,Wed Apr 16 2025 18:23:02 GMT-0500 (Central Daylight Time),124544.5,A,stree,O,e,116,1,1500.1000000238419,123044.39999997616,7131,WL,B,3.0
1,7.150000095367432,learn,52849.99990463257,Wed Apr 16 2025 18:23:02 GMT-0500 (Central Daylight Time),124794.5,A,street,O,t,207,1,1750.1000000238419,123044.39999997616,7131,WL,B,3.0
1,7.266000032424927,learn,52733.99996757507,Wed Apr 16 2025 18:23:02 GMT-0500 (Central Daylight Time),124910.09999996424,A,streetenter,O,enter,81,1,1865.699999988079,123044.39999997616,7131,WL,B,3.0
1,7.483000040054321,learn,52516.99995994568,Wed Apr 16 2025 18:23:02 GMT-0500 (Central Daylight Time),125127.80000001192,A,g,O,g,208,1,217.4000000357628,124910.39999997616,7131,WL,B,4.0
1,7.583000183105469,learn,52416.99981689453,Wed Apr 16 2025 18:23:02 GMT-0500 (Central Daylight Time),125227.59999996424,A,gr,O,r,70,1,317.19999998807907,124910.39999997616,7131,WL,B,4.0
1,8.166000127792358,learn,51833.99987220764,Wed Apr 16 2025 18:23:02 GMT-0500 (Central Daylight Time),125810.80000001192,A,gra,O,a,540,1,900.4000000357628,124910.39999997616,7131,WL,B,4.0
1,8.416000127792358,learn,51583.99987220764,Wed Apr 16 2025 18:23:02 GMT-0500 (Central Daylight Time),126060.5,A,gras,O,s,205,1,1150.1000000238419,124910.39999997616,7131,WL,B,4.0
1,8.56600022315979,learn,51433.99977684021,Wed Apr 16 2025 18:23:02 GMT-0500 (Central Daylight Time),126210.30000001192,A,grass,O,s,106,1,1299.9000000357628,124910.39999997616,7131,WL,B,4.0
1,8.73200011253357,learn,51267.99988746643,Wed Apr 16 2025 18:23:02 GMT-0500 (Central Daylight Time),126376.19999998808,A,grassenter,O,enter,142,1,1465.800000011921,124910.39999997616,7131,WL,B,4.0
1,8.949000120162964,learn,51050.999879837036,Wed Apr 16 2025 18:23:02 GMT-0500 (Central Daylight Time),126593.80000001192,A,a,O,a,197,1,217.30000001192093,126376.5,7131,WL,B,5.0
1,9.183000087738037,learn,50816.99991226196,Wed Apr 16 2025 18:23:02 GMT-0500 (Central Daylight Time),126827.19999998808,A,ar,O,r,200,1,450.69999998807907,126376.5,7131,WL,B,5.0
1,9.366000175476074,learn,50633.999824523926,Wed Apr 16 2025 18:23:02 GMT-0500 (Central Daylight Time),127010.5,A,arm,O,m,141,1,634.0,126376.5,7131,WL,B,5.0
1,9.633000135421753,learn,50366.99986457825,Wed Apr 16 2025 18:23:02 GMT-0500 (Central Daylight Time),127277.0,A,armenter,O,enter,238,1,900.5,126376.5,7131,WL,B,5.0
1,10.182000160217285,learn,49817.999839782715,Wed Apr 16 2025 18:23:02 GMT-0500 (Central Daylight Time),127826.89999997616,A,w,O,w,528,1,549.5999999642372,127277.30000001192,7131,WL,B,6.0
1,10.599000215530396,learn,49400.999784469604,Wed Apr 16 2025 18:23:02 GMT-0500 (Central Daylight Time),128243.30000001192,A,wi,O,i,386,1,966.0,127277.30000001192,7131,WL,B,6.0
1,10.932000160217285,learn,49067.999839782715,Wed Apr 16 2025 18:23:02 GMT-0500 (Central Daylight Time),128576.59999996424,A,wif,O,f,303,1,1299.2999999523163,127277.30000001192,7131,WL,B,6.0
1,11.082000017166138,learn,48917.99998283386,Wed Apr 16 2025 18:23:02 GMT-0500 (Central Daylight Time),128726.09999996424,A,wife,O,e,118,1,1448.7999999523163,127277.30000001192,7131,WL,B,6.0
1,11.248000144958496,learn,48751.999855041504,Wed Apr 16 2025 18:23:02 GMT-0500 (Central Daylight Time),128892.09999996424,A,wifeenter,O,enter,132,1,1614.7999999523163,127277.30000001192,7131,WL,B,6.0
1,11.565000057220459,learn,48434.99994277954,Wed Apr 16 2025 18:23:02 GMT-0500 (Central Daylight Time),129209.59999996424,A,w,O,w,303,1,317.2999999523163,128892.30000001192,7131,WL,B,7.0
1,11.815000057220459,learn,48184.99994277954,Wed Apr 16 2025 18:23:02 GMT-0500 (Central Daylight Time),129459.5,A,wi,O,i,213,1,567.1999999880791,128892.30000001192,7131,WL,B,7.0
1,11.96500015258789,learn,48034.99984741211,Wed Apr 16 2025 18:23:02 GMT-0500 (Central Daylight Time),129609.39999997616,A,win,O,n,109,1,717.0999999642372,128892.30000001192,7131,WL,B,7.0
1,12.248000144958496,learn,47751.999855041504,Wed Apr 16 2025 18:23:02 GMT-0500 (Central Daylight Time),129892.80000001192,A,wind,O,d,247,1,1000.5,128892.30000001192,7131,WL,B,7.0
1,12.382000207901001,learn,47617.999792099,Wed Apr 16 2025 18:23:02 GMT-0500 (Central Daylight Time),130026.19999998808,A,windo,O,o,94,1,1133.8999999761581,128892.30000001192,7131,WL,B,7.0
1,12.514000177383423,learn,47485.99982261658,Wed Apr 16 2025 18:23:02 GMT-0500 (Central Daylight Time),130158.09999996424,A,window,O,w,102,1,1265.7999999523163,128892.30000001192,7131,WL,B,7.0
1,13.430000066757202,learn,46569.9999332428,Wed Apr 16 2025 18:23:02 GMT-0500 (Central Daylight Time),131074.59999996424,A,windowenter,O,enter,900,1,2182.2999999523163,128892.30000001192,7131,WL,B,7.0
1,14.031000137329102,learn,45968.9998626709,Wed Apr 16 2025 18:23:02 GMT-0500 (Central Daylight Time),131675.5,A,s,O,s,586,1,600.5,131075.0,7131,WL,B,8.0
1,14.314000129699707,learn,45685.99987030029,Wed Apr 16 2025 18:23:02 GMT-0500 (Central Daylight Time),131958.80000001192,A,st,O,t,246,1,883.8000000119209,131075.0,7131,WL,B,8.0
1,14.44700002670288,learn,45552.99997329712,Wed Apr 16 2025 18:23:02 GMT-0500 (Central Daylight Time),132091.39999997616,A,str,O,r,99,1,1016.3999999761581,131075.0,7131,WL,B,8.0
1,14.69700002670288,learn,45302.99997329712,Wed Apr 16 2025 18:23:02 GMT-0500 (Central Daylight Time),132341.39999997616,A,stre,O,e,234,1,1266.3999999761581,131075.0,7131,WL,B,8.0
1,14.86300015449524,learn,45136.99984550476,Wed Apr 16 2025 18:23:02 GMT-0500 (Central Daylight Time),132507.80000001192,A,stree,O,e,133,1,1432.800000011921,131075.0,7131,WL,B,8.0
1,15.064000129699707,learn,44935.99987030029,Wed Apr 16 2025 18:23:02 GMT-0500 (Central Daylight Time),132708.59999996424,A,street,O,t,170,1,1633.5999999642372,131075.0,7131,WL,B,8.0
1,15.963000059127808,learn,44036.99994087219,Wed Apr 16 2025 18:23:02 GMT-0500 (Central Daylight Time),133607.19999998808,A,streetenter,O,enter,868,1,2532.199999988079,131075.0,7131,WL,B,8.0
1,20.812000036239624,learn,39187.999963760376,Wed Apr 16 2025 18:23:02 GMT-0500 (Central Daylight Time),138456.89999997616,A,s,O,s,4839,1,4849.399999976158,133607.5,7131,WL,B,9.0
1,21.01200008392334,learn,38987.99991607666,Wed Apr 16 2025 18:23:02 GMT-0500 (Central Daylight Time),138656.0,A,st,O,t,165,1,5048.5,133607.5,7131,WL,B,9.0
1,21.229000091552734,learn,38770.999908447266,Wed Apr 16 2025 18:23:02 GMT-0500 (Central Daylight Time),138873.59999996424,A,sta,O,a,188,1,5266.099999964237,133607.5,7131,WL,B,9.0
1,21.49500012397766,learn,38504.99987602234,Wed Apr 16 2025 18:23:02 GMT-0500 (Central Daylight Time),139139.69999998808,A,star,O,r,230,1,5532.199999988079,133607.5,7131,WL,B,9.0
1,21.74400019645691,learn,38255.99980354309,Wed Apr 16 2025 18:23:02 GMT-0500 (Central Daylight Time),139388.59999996424,A,starenter,O,enter,216,1,5781.099999964237,133607.5,7131,WL,B,9.0
1,40.123000144958496,learn,19876.999855041504,Wed Apr 16 2025 18:23:02 GMT-0500 (Central Daylight Time),157766.89999997616,A,c,O,c,18361,1,18378.0,139388.89999997616,7131,WL,B,10.0
1,40.27300000190735,learn,19726.99999809265,Wed Apr 16 2025 18:23:02 GMT-0500 (Central Daylight Time),157917.69999998808,A,cl,O,l,126,1,18528.80000001192,139388.89999997616,7131,WL,B,10.0
1,40.473000049591064,learn,19526.999950408936,Wed Apr 16 2025 18:23:02 GMT-0500 (Central Daylight Time),158117.30000001192,A,clo,O,o,177,1,18728.400000035763,139388.89999997616,7131,WL,B,10.0
1,40.855000019073486,learn,19144.999980926514,Wed Apr 16 2025 18:23:02 GMT-0500 (Central Daylight Time),158499.80000001192,A,cloc,O,c,347,1,19110.900000035763,139388.89999997616,7131,WL,B,10.0
1,41.00600004196167,learn,18993.99995803833,Wed Apr 16 2025 18:23:02 GMT-0500 (Central Daylight Time),158650.0,A,clock,O,k,109,1,19261.100000023842,139388.89999997616,7131,WL,B,10.0
1,41.45400023460388,learn,18545.999765396118,Wed Apr 16 2025 18:23:02 GMT-0500 (Central Daylight Time),159098.69999998808,A,clockenter,O,enter,407,1,19709.80000001192,139388.89999997616,7131,WL,B,10.0
1,54.468000173568726,learn,5531.999826431274,Wed Apr 16 2025 18:23:02 GMT-0500 (Central Daylight Time),172112.39999997616,A,d,O,d,13004,1,13013.5,159098.89999997616,7131,WL,B,11.0
1,54.634000062942505,learn,5365.999937057495,Wed Apr 16 2025 18:23:02 GMT-0500 (Central Daylight Time),172278.39999997616,A,do,O,o,135,1,13179.5,159098.89999997616,7131,WL,B,11.0
1,54.76800012588501,learn,5231.99987411499,Wed Apr 16 2025 18:23:02 GMT-0500 (Central Daylight Time),172412.19999998808,A,doo,O,o,100,1,13313.300000011921,159098.89999997616,7131,WL,B,11.0
1,55.651000022888184,learn,4348.999977111816,Wed Apr 16 2025 18:23:02 GMT-0500 (Central Daylight Time),173295.0,A,door,O,r,852,1,14196.100000023842,159098.89999997616,7131,WL,B,11.0
1,55.93300008773804,learn,4066.999912261963,Wed Apr 16 2025 18:23:02 GMT-0500 (Central Daylight Time),173577.39999997616,A,doorenter,O,enter,241,1,14478.5,159098.89999997616,7131,WL,B,11.0
1,60.01600003242493,learn,-16.000032424926758,Wed Apr 16 2025 18:23:02 GMT-0500 (Central Daylight Time),177660.5,A,None,O,None,4075,1,4082.800000011921,173577.69999998808,7131,WL,B,12.0
2,0.9660000801086426,learn,59033.99991989136,Wed Apr 16 2025 18:23:02 GMT-0500 (Central Daylight Time),248169.5,A,a,O,a,926,1,964.6000000238419,247204.89999997616,7131,WL,B,1.0
2,1.2650001049041748,learn,58734.999895095825,Wed Apr 16 2025 18:23:02 GMT-0500 (Central Daylight Time),248469.30000001192,A,ar,O,r,290,1,1264.4000000357628,247204.89999997616,7131,WL,B,1.0
2,1.5490000247955322,learn,58450.99997520447,Wed Apr 16 2025 18:23:02 GMT-0500 (Central Daylight Time),248752.59999996424,A,arn,O,n,263,1,1547.699999988079,247204.89999997616,7131,WL,B,1.0
2,2.015000104904175,learn,57984.999895095825,Wed Apr 16 2025 18:23:02 GMT-0500 (Central Daylight Time),249219.19999998808,A,ar,O,backspace,443,1,2014.300000011921,247204.89999997616,7131,WL,B,1.0
2,2.2820000648498535,learn,57717.99993515015,Wed Apr 16 2025 18:23:02 GMT-0500 (Central Daylight Time),249485.80000001192,A,arm,O,m,248,1,2280.900000035763,247204.89999997616,7131,WL,B,1.0
2,2.9149999618530273,learn,57085.00003814697,Wed Apr 16 2025 18:23:02 GMT-0500 (Central Daylight Time),250119.09999996424,A,armenter,O,enter,614,1,2914.199999988079,247204.89999997616,7131,WL,B,1.0
2,3.615000009536743,learn,56384.99999046326,Wed Apr 16 2025 18:23:02 GMT-0500 (Central Daylight Time),250819.39999997616,A,p,O,p,692,1,699.8999999761581,250119.5,7131,WL,B,2.0
2,3.9149999618530273,learn,56085.00003814697,Wed Apr 16 2025 18:23:02 GMT-0500 (Central Daylight Time),251118.5,A,pu,O,u,279,1,999.0,250119.5,7131,WL,B,2.0
2,4.13100004196167,learn,55868.99995803833,Wed Apr 16 2025 18:23:02 GMT-0500 (Central Daylight Time),251335.09999996424,A,pup,O,p,205,1,1215.5999999642372,250119.5,7131,WL,B,2.0
2,4.331000089645386,learn,55668.999910354614,Wed Apr 16 2025 18:23:02 GMT-0500 (Central Daylight Time),251535.19999998808,A,pupi,O,i,188,1,1415.699999988079,250119.5,7131,WL,B,2.0
2,4.614000082015991,learn,55385.99991798401,Wed Apr 16 2025 18:23:02 GMT-0500 (Central Daylight Time),251818.39999997616,A,pupil,O,l,260,1,1698.8999999761581,250119.5,7131,WL,B,2.0
2,4.947999954223633,learn,55052.00004577637,Wed Apr 16 2025 18:23:02 GMT-0500 (Central Daylight Time),252151.69999998808,A,pupilenter,O,enter,322,1,2032.199999988079,250119.5,7131,WL,B,2.0
2,7.398000001907349,learn,52601.99999809265,Wed Apr 16 2025 18:23:02 GMT-0500 (Central Daylight Time),254601.89999997616,A,w,O,w,2429,1,2449.899999976158,252152.0,7131,WL,B,3.0
2,7.563999891281128,learn,52436.00010871887,Wed Apr 16 2025 18:23:02 GMT-0500 (Central Daylight Time),254768.0,A,wi,O,i,126,1,2616.0,252152.0,7131,WL,B,3.0
2,7.596999883651733,learn,52403.00011634827,Wed Apr 16 2025 18:23:02 GMT-0500 (Central Daylight Time),254800.80000001192,A,win,O,n,11,1,2648.800000011921,252152.0,7131,WL,B,3.0
2,7.864000082015991,learn,52135.99991798401,Wed Apr 16 2025 18:23:02 GMT-0500 (Central Daylight Time),255068.0,A,wind,O,d,233,1,2916.0,252152.0,7131,WL,B,3.0
2,7.947000026702881,learn,52052.99997329712,Wed Apr 16 2025 18:23:02 GMT-0500 (Central Daylight Time),255150.89999997616,A,windo,O,o,55,1,2998.899999976158,252152.0,7131,WL,B,3.0
2,8.364000082015991,learn,51635.99991798401,Wed Apr 16 2025 18:23:02 GMT-0500 (Central Daylight Time),255568.19999998808,A,windoe,O,e,400,1,3416.199999988079,252152.0,7131,WL,B,3.0
2,8.813999891281128,learn,51186.00010871887,Wed Apr 16 2025 18:23:02 GMT-0500 (Central Daylight Time),256017.80000001192,A,windo,O,backspace,418,1,3865.800000011921,252152.0,7131,WL,B,3.0
2,9.013999938964844,learn,50986.000061035156,Wed Apr 16 2025 18:23:02 GMT-0500 (Central Daylight Time),256218.09999996424,A,window,O,w,165,1,4066.099999964237,252152.0,7131,WL,B,3.0
2,9.163000106811523,learn,50836.99989318848,Wed Apr 16 2025 18:23:02 GMT-0500 (Central Daylight Time),256366.89999997616,A,windowenter,O,enter,116,1,4214.899999976158,252152.0,7131,WL,B,3.0
2,10.079999923706055,learn,49920.000076293945,Wed Apr 16 2025 18:23:02 GMT-0500 (Central Daylight Time),257284.59999996424,A,c,O,c,895,1,917.5,256367.09999996424,7131,WL,B,4.0
2,10.21399998664856,learn,49786.00001335144,Wed Apr 16 2025 18:23:02 GMT-0500 (Central Daylight Time),257417.59999996424,A,ci,O,i,101,1,1050.5,256367.09999996424,7131,WL,B,4.0
2,10.44700002670288,learn,49552.99997329712,Wed Apr 16 2025 18:23:02 GMT-0500 (Central Daylight Time),257650.89999997616,A,cit,O,t,200,1,1283.800000011921,256367.09999996424,7131,WL,B,4.0
2,10.513000011444092,learn,49486.99998855591,Wed Apr 16 2025 18:23:02 GMT-0500 (Central Daylight Time),257717.39999997616,A,city,O,y,42,1,1350.300000011921,256367.09999996424,7131,WL,B,4.0
2,10.845999956130981,learn,49154.00004386902,Wed Apr 16 2025 18:23:02 GMT-0500 (Central Daylight Time),258049.80000001192,A,cityenter,O,enter,303,1,1682.7000000476837,256367.09999996424,7131,WL,B,4.0
2,11.246000051498413,learn,48753.99994850159,Wed Apr 16 2025 18:23:02 GMT-0500 (Central Daylight Time),258450.39999997616,A,f,O,f,388,1,400.30000001192093,258050.09999996424,7131,WL,B,5.0
2,11.36299991607666,learn,48637.00008392334,Wed Apr 16 2025 18:23:02 GMT-0500 (Central Daylight Time),258566.59999996424,A,fi,O,i,86,1,516.5,258050.09999996424,7131,WL,B,5.0
2,11.463000059127808,learn,48536.99994087219,Wed Apr 16 2025 18:23:02 GMT-0500 (Central Daylight Time),258666.89999997616,A,fir,O,r,69,1,616.8000000119209,258050.09999996424,7131,WL,B,5.0
2,11.578999996185303,learn,48421.0000038147,Wed Apr 16 2025 18:23:02 GMT-0500 (Central Daylight Time),258783.19999998808,A,fire,O,e,88,1,733.1000000238419,258050.09999996424,7131,WL,B,5.0
2,12.279000043869019,learn,47720.99995613098,Wed Apr 16 2025 18:23:02 GMT-0500 (Central Daylight Time),259482.59999996424,A,fireenter,O,enter,664,1,1432.5,258050.09999996424,7131,WL,B,5.0
2,15.661999940872192,learn,44338.00005912781,Wed Apr 16 2025 18:23:02 GMT-0500 (Central Daylight Time),262865.6999999881,A,g,O,g,3371,1,3382.800000011921,259482.89999997616,7131,WL,B,6.0
2,15.777999877929688,learn,44222.00012207031,Wed Apr 16 2025 18:23:02 GMT-0500 (Central Daylight Time),262982.1999999881,A,gr,O,r,88,1,3499.300000011921,259482.89999997616,7131,WL,B,6.0
2,16.062000036239624,learn,43937.999963760376,Wed Apr 16 2025 18:23:02 GMT-0500 (Central Daylight Time),263265.59999996424,A,gra,O,a,251,1,3782.699999988079,259482.89999997616,7131,WL,B,6.0
2,16.34500002861023,learn,43654.99997138977,Wed Apr 16 2025 18:23:02 GMT-0500 (Central Daylight Time),263549.09999996424,A,gras,O,s,244,1,4066.199999988079,259482.89999997616,7131,WL,B,6.0
2,16.494999885559082,learn,43505.00011444092,Wed Apr 16 2025 18:23:02 GMT-0500 (Central Daylight Time),263698.6999999881,A,grass,O,s,106,1,4215.800000011921,259482.89999997616,7131,WL,B,6.0
2,16.64400005340576,learn,43355.99994659424,Wed Apr 16 2025 18:23:02 GMT-0500 (Central Daylight Time),263847.8000000119,A,grassenter,O,enter,116,1,4364.900000035763,259482.89999997616,7131,WL,B,6.0
2,16.92799997329712,learn,43072.00002670288,Wed Apr 16 2025 18:23:02 GMT-0500 (Central Daylight Time),264132.09999996424,A,c,O,c,270,1,284.0,263848.09999996424,7131,WL,B,7.0
2,17.161999940872192,learn,42838.00005912781,Wed Apr 16 2025 18:23:02 GMT-0500 (Central Daylight Time),264365.8000000119,A,ci,O,i,201,1,517.7000000476837,263848.09999996424,7131,WL,B,7.0
2,17.361000061035156,learn,42638.999938964844,Wed Apr 16 2025 18:23:02 GMT-0500 (Central Daylight Time),264565.5,A,cit,O,t,165,1,717.4000000357628,263848.09999996424,7131,WL,B,7.0
2,17.444000005722046,learn,42555.999994277954,Wed Apr 16 2025 18:23:02 GMT-0500 (Central Daylight Time),264647.5,A,city,O,y,50,1,799.4000000357628,263848.09999996424,7131,WL,B,7.0
2,17.776999950408936,learn,42223.000049591064,Wed Apr 16 2025 18:23:02 GMT-0500 (Central Daylight Time),264980.6999999881,A,cityenter,O,enter,312,1,1132.6000000238419,263848.09999996424,7131,WL,B,7.0
2,18.39400005340576,learn,41605.99994659424,Wed Apr 16 2025 18:23:02 GMT-0500 (Central Daylight Time),265598.0,A,v,O,v,601,1,617.0,264981.0,7131,WL,B,8.0
2,18.82800006866455,learn,41171.99993133545,Wed Apr 16 2025 18:23:02 GMT-0500 (Central Daylight Time),266031.5,A,,O,backspace,406,1,1050.5,264981.0,7131,WL,B,8.0
2,19.009999990463257,learn,40990.00000953674,Wed Apr 16 2025 18:23:02 GMT-0500 (Central Daylight Time),266214.5,A,c,O,c,157,1,1233.5,264981.0,7131,WL,B,8.0
2,19.22699999809265,learn,40773.00000190735,Wed Apr 16 2025 18:23:02 GMT-0500 (Central Daylight Time),266431.5,A,ca,O,a,178,1,1450.5,264981.0,7131,WL,B,8.0
2,19.9760000705719,learn,40023.9999294281,Wed Apr 16 2025 18:23:02 GMT-0500 (Central Daylight Time),267180.0,A,cab,O,b,713,1,2199.0,264981.0,7131,WL,B,8.0
2,20.210000038146973,learn,39789.99996185303,Wed Apr 16 2025 18:23:02 GMT-0500 (Central Daylight Time),267414.3000000119,A,cabi,O,i,217,1,2433.300000011921,264981.0,7131,WL,B,8.0
2,20.359999895095825,learn,39640.000104904175,Wed Apr 16 2025 18:23:02 GMT-0500 (Central Daylight Time),267564.3000000119,A,cabin,O,n,115,1,2583.300000011921,264981.0,7131,WL,B,8.0
2,20.759000062942505,learn,39240.999937057495,Wed Apr 16 2025 18:23:02 GMT-0500 (Central Daylight Time),267963.0,A,cabinenter,O,enter,372,1,2982.0,264981.0,7131,WL,B,8.0
2,23.30900001525879,learn,36690.99998474121,Wed Apr 16 2025 18:23:02 GMT-0500 (Central Daylight Time),270513.3000000119,A,d,O,d,2531,1,2550.0,267963.3000000119,7131,WL,B,9.0
2,23.4760000705719,learn,36523.9999294281,Wed Apr 16 2025 18:23:02 GMT-0500 (Central Daylight Time),270679.6999999881,A,do,O,o,136,1,2716.399999976158,267963.3000000119,7131,WL,B,9.0
2,23.625,learn,36375.0,Wed Apr 16 2025 18:23:02 GMT-0500 (Central Daylight Time),270829.39999997616,A,doo,O,o,114,1,2866.099999964237,267963.3000000119,7131,WL,B,9.0
2,23.759000062942505,learn,36240.999937057495,Wed Apr 16 2025 18:23:02 GMT-0500 (Central Daylight Time),270962.6999999881,A,door,O,r,102,1,2999.399999976158,267963.3000000119,7131,WL,B,9.0
2,25.058000087738037,learn,34941.99991226196,Wed Apr 16 2025 18:23:02 GMT-0500 (Central Daylight Time),272261.6999999881,A,doorenter,O,enter,1271,1,4298.399999976158,267963.3000000119,7131,WL,B,9.0
2,25.342000007629395,learn,34657.999992370605,Wed Apr 16 2025 18:23:02 GMT-0500 (Central Daylight Time),272545.8000000119,A,s,O,s,272,1,283.9000000357628,272261.89999997616,7131,WL,B,10.0
2,25.657999992370605,learn,34342.000007629395,Wed Apr 16 2025 18:23:02 GMT-0500 (Central Daylight Time),272862.1999999881,A,st,O,t,288,1,600.3000000119209,272261.89999997616,7131,WL,B,10.0
2,25.89199995994568,learn,34108.00004005432,Wed Apr 16 2025 18:23:02 GMT-0500 (Central Daylight Time),273095.89999997616,A,str,O,r,208,1,834.0,272261.89999997616,7131,WL,B,10.0
2,26.157999992370605,learn,33842.000007629395,Wed Apr 16 2025 18:23:02 GMT-0500 (Central Daylight Time),273362.39999997616,A,stre,O,e,233,1,1100.5,272261.89999997616,7131,WL,B,10.0
2,26.308000087738037,learn,33691.99991226196,Wed Apr 16 2025 18:23:02 GMT-0500 (Central Daylight Time),273512.09999996424,A,stree,O,e,112,1,1250.199999988079,272261.89999997616,7131,WL,B,10.0
2,26.507999897003174,learn,33492.000102996826,Wed Apr 16 2025 18:23:02 GMT-0500 (Central Daylight Time),273712.1999999881,A,street,O,t,174,1,1450.300000011921,272261.89999997616,7131,WL,B,10.0
2,27.624000072479248,learn,32375.999927520752,Wed Apr 16 2025 18:23:02 GMT-0500 (Central Daylight Time),274827.5,A,streetenter,O,enter,1088,1,2565.600000023842,272261.89999997616,7131,WL,B,10.0
2,31.473999977111816,learn,28526.000022888184,Wed Apr 16 2025 18:23:02 GMT-0500 (Central Daylight Time),278677.59999996424,A,p,O,p,3827,1,3849.7999999523163,274827.8000000119,7131,WL,B,11.0
2,31.740000009536743,learn,28259.999990463257,Wed Apr 16 2025 18:23:02 GMT-0500 (Central Daylight Time),278943.6999999881,A,pu,O,u,239,1,4115.899999976158,274827.8000000119,7131,WL,B,11.0
2,32.02300000190735,learn,27976.99999809265,Wed Apr 16 2025 18:23:02 GMT-0500 (Central Daylight Time),279227.1999999881,A,pup,O,p,242,1,4399.399999976158,274827.8000000119,7131,WL,B,11.0
2,32.15599989891052,learn,27844.000101089478,Wed Apr 16 2025 18:23:02 GMT-0500 (Central Daylight Time),279360.3000000119,A,pupi,O,i,95,1,4532.5,274827.8000000119,7131,WL,B,11.0
2,32.40599989891052,learn,27594.000101089478,Wed Apr 16 2025 18:23:02 GMT-0500 (Central Daylight Time),279610.39999997616,A,pupil,O,l,210,1,4782.599999964237,274827.8000000119,7131,WL,B,11.0
2,32.72199988365173,learn,27278.000116348267,Wed Apr 16 2025 18:23:02 GMT-0500 (Central Daylight Time),279925.89999997616,A,pupilenter,O,enter,282,1,5098.099999964237,274827.8000000119,7131,WL,B,11.0
2,36.73799991607666,learn,23262.00008392334,Wed Apr 16 2025 18:23:02 GMT-0500 (Central Daylight Time),283942.09999996424,A,c,O,c,4009,1,4016.0,279926.09999996424,7131,WL,B,12.0
2,36.871999979019165,learn,23128.000020980835,Wed Apr 16 2025 18:23:02 GMT-0500 (Central Daylight Time),284075.59999996424,A,cl,O,l,107,1,4149.5,279926.09999996424,7131,WL,B,12.0
2,37.0550000667572,learn,22944.999933242798,Wed Apr 16 2025 18:23:02 GMT-0500 (Central Daylight Time),284258.8000000119,A,clo,O,o,151,1,4332.700000047684,279926.09999996424,7131,WL,B,12.0
2,37.47099995613098,learn,22529.00004386902,Wed Apr 16 2025 18:23:02 GMT-0500 (Central Daylight Time),284675.3000000119,A,cloc,O,c,386,1,4749.200000047684,279926.09999996424,7131,WL,B,12.0
2,37.605000019073486,learn,22394.999980926514,Wed Apr 16 2025 18:23:02 GMT-0500 (Central Daylight Time),284808.59999996424,A,clock,O,k,103,1,4882.5,279926.09999996424,7131,WL,B,12.0
2,38.47000002861023,learn,21529.99997138977,Wed Apr 16 2025 18:23:02 GMT-0500 (Central Daylight Time),285674.0,A,clockenter,O,enter,823,1,5747.900000035763,279926.09999996424,7131,WL,B,12.0
2,38.88700008392334,learn,21112.99991607666,Wed Apr 16 2025 18:23:02 GMT-0500 (Central Daylight Time),286091.5,A,f,O,f,403,1,417.19999998807907,285674.3000000119,7131,WL,B,13.0
2,39.13800001144409,learn,20861.99998855591,Wed Apr 16 2025 18:23:02 GMT-0500 (Central Daylight Time),286341.8000000119,A,fi,O,i,226,1,667.5,285674.3000000119,7131,WL,B,13.0
2,39.32100009918213,learn,20678.99990081787,Wed Apr 16 2025 18:23:02 GMT-0500 (Central Daylight Time),286524.6999999881,A,fir,O,r,148,1,850.3999999761581,285674.3000000119,7131,WL,B,13.0
2,39.520999908447266,learn,20479.000091552734,Wed Apr 16 2025 18:23:02 GMT-0500 (Central Daylight Time),286724.6999999881,A,fire,O,e,166,1,1050.3999999761581,285674.3000000119,7131,WL,B,13.0
2,41.13599991798401,learn,18864.00008201599,Wed Apr 16 2025 18:23:02 GMT-0500 (Central Daylight Time),288339.6999999881,A,fireenter,O,enter,1585,1,2665.399999976158,285674.3000000119,7131,WL,B,13.0
2,41.5699999332428,learn,18430.000066757202,Wed Apr 16 2025 18:23:02 GMT-0500 (Central Daylight Time),288774.09999996424,A,s,O,s,419,1,434.19999998807907,288339.89999997616,7131,WL,B,14.0
2,41.97000002861023,learn,18029.99997138977,Wed Apr 16 2025 18:23:02 GMT-0500 (Central Daylight Time),289173.8000000119,A,sk,O,k,372,1,833.9000000357628,288339.89999997616,7131,WL,B,14.0
2,42.20300006866455,learn,17796.99993133545,Wed Apr 16 2025 18:23:02 GMT-0500 (Central Daylight Time),289407.0,A,ski,O,i,205,1,1067.1000000238419,288339.89999997616,7131,WL,B,14.0
2,42.486000061035156,learn,17513.999938964844,Wed Apr 16 2025 18:23:02 GMT-0500 (Central Daylight Time),289690.3000000119,A,skin,O,n,244,1,1350.4000000357628,288339.89999997616,7131,WL,B,14.0
2,42.80200004577637,learn,17197.999954223633,Wed Apr 16 2025 18:23:02 GMT-0500 (Central Daylight Time),290005.89999997616,A,skinenter,O,enter,282,1,1666.0,288339.89999997616,7131,WL,B,14.0
2,58.08399987220764,learn,1916.0001277923584,Wed Apr 16 2025 18:23:02 GMT-0500 (Central Daylight Time),305285.5,A,l,O,l,15257,1,15279.300000011921,290006.1999999881,7131,WL,B,15.0
2,58.65000009536743,learn,1349.9999046325684,Wed Apr 16 2025 18:23:02 GMT-0500 (Central Daylight Time),305851.59999996424,A,la,O,a,524,1,15845.399999976158,290006.1999999881,7131,WL,B,15.0
2,58.799999952316284,learn,1200.0000476837158,Wed Apr 16 2025 18:23:02 GMT-0500 (Central Daylight Time),306001.6999999881,A,lak,O,k,112,1,15995.5,290006.1999999881,7131,WL,B,15.0
2,59.0,learn,1000.0,Wed Apr 16 2025 18:23:02 GMT-0500 (Central Daylight Time),306201.59999996424,A,lake,O,e,160,1,16195.399999976158,290006.1999999881,7131,WL,B,15.0
2,59.24900007247925,learn,750.999927520752,Wed Apr 16 2025 18:23:02 GMT-0500 (Central Daylight Time),306450.5,A,lakeenter,O,enter,206,1,16444.30000001192,290006.1999999881,7131,WL,B,15.0
3,0.7839999198913574,learn,59216.00008010864,Wed Apr 16 2025 18:23:02 GMT-0500 (Central Daylight Time),373679.6999999881,A,c,O,c,756,1,783.1000000238419,372896.59999996424,7131,WL,B,1.0
3,0.9169998168945312,learn,59083.00018310547,Wed Apr 16 2025 18:23:02 GMT-0500 (Central Daylight Time),373812.39999997616,A,cl,O,l,89,1,915.8000000119209,372896.59999996424,7131,WL,B,1.0
3,1.0999999046325684,learn,58900.00009536743,Wed Apr 16 2025 18:23:02 GMT-0500 (Central Daylight Time),373995.8000000119,A,clo,O,o,148,1,1099.2000000476837,372896.59999996424,7131,WL,B,1.0
3,1.316999912261963,learn,58683.00008773804,Wed Apr 16 2025 18:23:02 GMT-0500 (Central Daylight Time),374212.5,A,cloc,O,c,174,1,1315.9000000357628,372896.59999996424,7131,WL,B,1.0
3,1.4499998092651367,learn,58550.00019073486,Wed Apr 16 2025 18:23:02 GMT-0500 (Central Daylight Time),374346.0,A,clock,O,k,92,1,1449.4000000357628,372896.59999996424,7131,WL,B,1.0
3,2.248999834060669,learn,57751.00016593933,Wed Apr 16 2025 18:23:02 GMT-0500 (Central Daylight Time),375144.6999999881,A,clockenter,O,enter,768,1,2248.100000023842,372896.59999996424,7131,WL,B,1.0
3,2.615999937057495,learn,57384.000062942505,Wed Apr 16 2025 18:23:02 GMT-0500 (Central Daylight Time),375512.0,A,p,O,p,349,1,367.10000002384186,375144.89999997616,7131,WL,B,2.0
3,2.8499999046325684,learn,57150.00009536743,Wed Apr 16 2025 18:23:02 GMT-0500 (Central Daylight Time),375745.39999997616,A,pi,O,i,194,1,600.5,375144.89999997616,7131,WL,B,2.0
3,2.9499998092651367,learn,57050.00019073486,Wed Apr 16 2025 18:23:02 GMT-0500 (Central Daylight Time),375845.59999996424,A,pip,O,p,72,1,700.6999999880791,375144.89999997616,7131,WL,B,2.0
3,3.25,learn,56750.0,Wed Apr 16 2025 18:23:02 GMT-0500 (Central Daylight Time),376145.5,A,pipe,O,e,260,1,1000.6000000238419,375144.89999997616,7131,WL,B,2.0
3,3.547999858856201,learn,56452.0001411438,Wed Apr 16 2025 18:23:02 GMT-0500 (Central Daylight Time),376444.09999996424,A,pipeenter,O,enter,272,1,1299.199999988079,375144.89999997616,7131,WL,B,2.0
3,4.098999977111816,learn,55901.00002288818,Wed Apr 16 2025 18:23:02 GMT-0500 (Central Daylight Time),376995.09999996424,A,f,O,f,529,1,550.6999999880791,376444.39999997616,7131,WL,B,3.0
3,4.248999834060669,learn,55751.00016593933,Wed Apr 16 2025 18:23:02 GMT-0500 (Central Daylight Time),377145.0,A,fi,O,i,111,1,700.6000000238419,376444.39999997616,7131,WL,B,3.0
3,4.381999969482422,learn,55618.00003051758,Wed Apr 16 2025 18:23:02 GMT-0500 (Central Daylight Time),377277.6999999881,A,fir,O,r,107,1,833.3000000119209,376444.39999997616,7131,WL,B,3.0
3,4.531999826431274,learn,55468.000173568726,Wed Apr 16 2025 18:23:02 GMT-0500 (Central Daylight Time),377427.5,A,fire,O,e,117,1,983.1000000238419,376444.39999997616,7131,WL,B,3.0
3,4.680999994277954,learn,55319.000005722046,Wed Apr 16 2025 18:23:02 GMT-0500 (Central Daylight Time),377577.0,A,fireenter,O,enter,120,1,1132.6000000238419,376444.39999997616,7131,WL,B,3.0
3,5.23199987411499,learn,54768.00012588501,Wed Apr 16 2025 18:23:02 GMT-0500 (Central Daylight Time),378127.8000000119,A,s,O,s,533,1,550.6000000238419,377577.1999999881,7131,WL,B,4.0
3,5.364999771118164,learn,54635.000228881836,Wed Apr 16 2025 18:23:02 GMT-0500 (Central Daylight Time),378261.0,A,sk,O,k,100,1,683.8000000119209,377577.1999999881,7131,WL,B,4.0
3,5.56499981880188,learn,54435.00018119812,Wed Apr 16 2025 18:23:02 GMT-0500 (Central Daylight Time),378460.89999997616,A,ski,O,i,179,1,883.6999999880791,377577.1999999881,7131,WL,B,4.0
3,5.698999881744385,learn,54301.000118255615,Wed Apr 16 2025 18:23:02 GMT-0500 (Central Daylight Time),378594.5,A,skin,O,n,107,1,1017.3000000119209,377577.1999999881,7131,WL,B,4.0
3,5.997999906539917,learn,54002.00009346008,Wed Apr 16 2025 18:23:02 GMT-0500 (Central Daylight Time),378893.39999997616,A,skinenter,O,enter,261,1,1316.199999988079,377577.1999999881,7131,WL,B,4.0
3,6.364999771118164,learn,53635.000228881836,Wed Apr 16 2025 18:23:02 GMT-0500 (Central Daylight Time),379260.89999997616,A,d,O,d,345,1,367.19999998807907,378893.6999999881,7131,WL,B,5.0
3,6.531999826431274,learn,53468.000173568726,Wed Apr 16 2025 18:23:02 GMT-0500 (Central Daylight Time),379427.39999997616,A,do,O,o,125,1,533.6999999880791,378893.6999999881,7131,WL,B,5.0
3,6.648000001907349,learn,53351.99999809265,Wed Apr 16 2025 18:23:02 GMT-0500 (Central Daylight Time),379543.5,A,doo,O,o,89,1,649.8000000119209,378893.6999999881,7131,WL,B,5.0
3,6.781999826431274,learn,53218.000173568726,Wed Apr 16 2025 18:23:02 GMT-0500 (Central Daylight Time),379677.5,A,door,O,r,112,1,783.8000000119209,378893.6999999881,7131,WL,B,5.0
3,7.013999938964844,learn,52986.000061035156,Wed Apr 16 2025 18:23:02 GMT-0500 (Central Daylight Time),379909.8000000119,A,doorenter,O,enter,195,1,1016.1000000238419,378893.6999999881,7131,WL,B,5.0
3,7.197999954223633,learn,52802.00004577637,Wed Apr 16 2025 18:23:02 GMT-0500 (Central Daylight Time),380093.8000000119,A,a,O,a,176,1,183.80000001192093,379910.0,7131,WL,B,6.0
3,7.447999954223633,learn,52552.00004577637,Wed Apr 16 2025 18:23:02 GMT-0500 (Central Daylight Time),380343.89999997616,A,ar,O,r,220,1,433.89999997615814,379910.0,7131,WL,B,6.0
3,7.73199987411499,learn,52268.00012588501,Wed Apr 16 2025 18:23:02 GMT-0500 (Central Daylight Time),380627.3000000119,A,arm,O,m,242,1,717.3000000119209,379910.0,7131,WL,B,6.0
3,7.979999780654907,learn,52020.00021934509,Wed Apr 16 2025 18:23:02 GMT-0500 (Central Daylight Time),380876.0,A,armenter,O,enter,214,1,966.0,379910.0,7131,WL,B,6.0
3,8.197999954223633,learn,51802.00004577637,Wed Apr 16 2025 18:23:02 GMT-0500 (Central Daylight Time),381093.59999996424,A,a,O,a,211,1,217.39999997615814,380876.1999999881,7131,WL,B,7.0
3,8.730999946594238,learn,51269.00005340576,Wed Apr 16 2025 18:23:02 GMT-0500 (Central Daylight Time),381626.6999999881,A,as,O,s,493,1,750.5,380876.1999999881,7131,WL,B,7.0
3,9.180999994277954,learn,50819.000005722046,Wed Apr 16 2025 18:23:02 GMT-0500 (Central Daylight Time),382076.8000000119,A,a,O,backspace,416,1,1200.6000000238419,380876.1999999881,7131,WL,B,7.0
3,9.413999795913696,learn,50586.000204086304,Wed Apr 16 2025 18:23:02 GMT-0500 (Central Daylight Time),382310.0,A,,O,backspace,197,1,1433.800000011921,380876.1999999881,7131,WL,B,7.0
3,9.896999835968018,learn,50103.00016403198,Wed Apr 16 2025 18:23:02 GMT-0500 (Central Daylight Time),382793.0,A,s,O,s,454,1,1916.800000011921,380876.1999999881,7131,WL,B,7.0
3,10.163999795913696,learn,49836.000204086304,Wed Apr 16 2025 18:23:02 GMT-0500 (Central Daylight Time),383059.8000000119,A,st,O,t,235,1,2183.600000023842,380876.1999999881,7131,WL,B,7.0
3,10.330999851226807,learn,49669.00014877319,Wed Apr 16 2025 18:23:02 GMT-0500 (Central Daylight Time),383226.3000000119,A,sta,O,a,126,1,2350.100000023842,380876.1999999881,7131,WL,B,7.0
3,10.580999851226807,learn,49419.00014877319,Wed Apr 16 2025 18:23:02 GMT-0500 (Central Daylight Time),383476.3000000119,A,star,O,r,208,1,2600.100000023842,380876.1999999881,7131,WL,B,7.0
3,11.86299991607666,learn,48137.00008392334,Wed Apr 16 2025 18:23:02 GMT-0500 (Central Daylight Time),384758.09999996424,A,starenter,O,enter,1244,1,3881.899999976158,380876.1999999881,7131,WL,B,7.0
3,12.212999820709229,learn,47787.00017929077,Wed Apr 16 2025 18:23:02 GMT-0500 (Central Daylight Time),385109.0,A,w,O,w,335,1,350.60000002384186,384758.39999997616,7131,WL,B,8.0
3,12.496999979019165,learn,47503.000020980835,Wed Apr 16 2025 18:23:02 GMT-0500 (Central Daylight Time),385392.39999997616,A,wi,O,i,245,1,634.0,384758.39999997616,7131,WL,B,8.0
3,12.86299991607666,learn,47137.00008392334,Wed Apr 16 2025 18:23:02 GMT-0500 (Central Daylight Time),385758.8000000119,A,wif,O,f,332,1,1000.4000000357628,384758.39999997616,7131,WL,B,8.0
3,12.978999853134155,learn,47021.000146865845,Wed Apr 16 2025 18:23:02 GMT-0500 (Central Daylight Time),385874.6999999881,A,wife,O,e,82,1,1116.300000011921,384758.39999997616,7131,WL,B,8.0
3,13.361999988555908,learn,46638.00001144409,Wed Apr 16 2025 18:23:02 GMT-0500 (Central Daylight Time),386257.59999996424,A,wifeenter,O,enter,365,1,1499.199999988079,384758.39999997616,7131,WL,B,8.0
3,13.878999948501587,learn,46121.00005149841,Wed Apr 16 2025 18:23:02 GMT-0500 (Central Daylight Time),386774.8000000119,A,d,O,d,509,1,516.9000000357628,386257.89999997616,7131,WL,B,9.0
3,14.229999780654907,learn,45770.00021934509,Wed Apr 16 2025 18:23:02 GMT-0500 (Central Daylight Time),387125.6999999881,A,,O,backspace,330,1,867.8000000119209,386257.89999997616,7131,WL,B,9.0
3,14.44599986076355,learn,45554.00013923645,Wed Apr 16 2025 18:23:02 GMT-0500 (Central Daylight Time),387341.89999997616,A,s,O,s,191,1,1084.0,386257.89999997616,7131,WL,B,9.0
3,14.69599986076355,learn,45304.00013923645,Wed Apr 16 2025 18:23:02 GMT-0500 (Central Daylight Time),387591.3000000119,A,st,O,t,224,1,1333.4000000357628,386257.89999997616,7131,WL,B,9.0
3,14.794999837875366,learn,45205.000162124634,Wed Apr 16 2025 18:23:02 GMT-0500 (Central Daylight Time),387690.89999997616,A,str,O,r,67,1,1433.0,386257.89999997616,7131,WL,B,9.0
3,15.010999917984009,learn,44989.00008201599,Wed Apr 16 2025 18:23:02 GMT-0500 (Central Daylight Time),387907.0,A,stre,O,e,180,1,1649.1000000238419,386257.89999997616,7131,WL,B,9.0
3,15.178999900817871,learn,44821.00009918213,Wed Apr 16 2025 18:23:02 GMT-0500 (Central Daylight Time),388074.3000000119,A,stree,O,e,153,1,1816.4000000357628,386257.89999997616,7131,WL,B,9.0
3,15.395999908447266,learn,44604.000091552734,Wed Apr 16 2025 18:23:02 GMT-0500 (Central Daylight Time),388291.5,A,street,O,t,183,1,2033.6000000238419,386257.89999997616,7131,WL,B,9.0
3,15.560999870300293,learn,44439.00012969971,Wed Apr 16 2025 18:23:02 GMT-0500 (Central Daylight Time),388457.0,A,streetenter,O,enter,124,1,2199.100000023842,386257.89999997616,7131,WL,B,9.0
3,16.244999885559082,learn,43755.00011444092,Wed Apr 16 2025 18:23:02 GMT-0500 (Central Daylight Time),389141.0,A,g,O,g,662,1,683.8000000119209,388457.1999999881,7131,WL,B,10.0
3,16.32799983024597,learn,43672.00016975403,Wed Apr 16 2025 18:23:02 GMT-0500 (Central Daylight Time),389224.09999996424,A,gr,O,r,48,1,766.8999999761581,388457.1999999881,7131,WL,B,10.0
3,16.544999837875366,learn,43455.000162124634,Wed Apr 16 2025 18:23:02 GMT-0500 (Central Daylight Time),389440.5,A,gre,O,e,184,1,983.3000000119209,388457.1999999881,7131,WL,B,10.0
3,17.244999885559082,learn,42755.00011444092,Wed Apr 16 2025 18:23:02 GMT-0500 (Central Daylight Time),390141.0,A,gr,O,backspace,664,1,1683.800000011921,388457.1999999881,7131,WL,B,10.0
3,17.42799997329712,learn,42572.00002670288,Wed Apr 16 2025 18:23:02 GMT-0500 (Central Daylight Time),390324.1999999881,A,gra,O,a,149,1,1867.0,388457.1999999881,7131,WL,B,10.0
3,17.977999925613403,learn,42022.0000743866,Wed Apr 16 2025 18:23:02 GMT-0500 (Central Daylight Time),390874.0,A,gras,O,s,510,1,2416.800000011921,388457.1999999881,7131,WL,B,10.0
3,18.127999782562256,learn,41872.000217437744,Wed Apr 16 2025 18:23:02 GMT-0500 (Central Daylight Time),391023.39999997616,A,grass,O,s,111,1,2566.199999988079,388457.1999999881,7131,WL,B,10.0
3,18.30999994277954,learn,41690.00005722046,Wed Apr 16 2025 18:23:02 GMT-0500 (Central Daylight Time),391206.09999996424,A,grassenter,O,enter,155,1,2748.899999976158,388457.1999999881,7131,WL,B,10.0
3,19.543999910354614,learn,40456.000089645386,Wed Apr 16 2025 18:23:02 GMT-0500 (Central Daylight Time),392440.0,A,c,O,c,1216,1,1233.699999988079,391206.3000000119,7131,WL,B,11.0
3,19.74399995803833,learn,40256.00004196167,Wed Apr 16 2025 18:23:02 GMT-0500 (Central Daylight Time),392640.0,A,ci,O,i,166,1,1433.699999988079,391206.3000000119,7131,WL,B,11.0
3,19.893999814987183,learn,40106.00018501282,Wed Apr 16 2025 18:23:02 GMT-0500 (Central Daylight Time),392789.6999999881,A,cit,O,t,123,1,1583.3999999761581,391206.3000000119,7131,WL,B,11.0
3,19.99399995803833,learn,40006.00004196167,Wed Apr 16 2025 18:23:02 GMT-0500 (Central Daylight Time),392889.59999996424,A,city,O,y,61,1,1683.2999999523163,391206.3000000119,7131,WL,B,11.0
3,20.30999994277954,learn,39690.00005722046,Wed Apr 16 2025 18:23:02 GMT-0500 (Central Daylight Time),393205.39999997616,A,cityenter,O,enter,282,1,1999.0999999642372,391206.3000000119,7131,WL,B,11.0
3,20.694000005722046,learn,39305.999994277954,Wed Apr 16 2025 18:23:02 GMT-0500 (Central Daylight Time),393589.6999999881,A,w,O,w,368,1,384.0,393205.6999999881,7131,WL,B,12.0
3,20.80999994277954,learn,39190.00005722046,Wed Apr 16 2025 18:23:02 GMT-0500 (Central Daylight Time),393705.1999999881,A,wi,O,i,75,1,499.5,393205.6999999881,7131,WL,B,12.0
3,20.859999895095825,learn,39140.000104904175,Wed Apr 16 2025 18:23:02 GMT-0500 (Central Daylight Time),393755.59999996424,A,win,O,n,35,1,549.8999999761581,393205.6999999881,7131,WL,B,12.0
3,20.99399995803833,learn,39006.00004196167,Wed Apr 16 2025 18:23:02 GMT-0500 (Central Daylight Time),393889.3000000119,A,wind,O,d,112,1,683.6000000238419,393205.6999999881,7131,WL,B,12.0
3,21.110999822616577,learn,38889.00017738342,Wed Apr 16 2025 18:23:02 GMT-0500 (Central Daylight Time),394006.1999999881,A,windo,O,o,87,1,800.5,393205.6999999881,7131,WL,B,12.0
3,21.376999855041504,learn,38623.000144958496,Wed Apr 16 2025 18:23:02 GMT-0500 (Central Daylight Time),394272.6999999881,A,window,O,w,228,1,1067.0,393205.6999999881,7131,WL,B,12.0
3,21.692999839782715,learn,38307.000160217285,Wed Apr 16 2025 18:23:02 GMT-0500 (Central Daylight Time),394588.3000000119,A,windowenter,O,enter,284,1,1382.6000000238419,393205.6999999881,7131,WL,B,12.0
3,22.292999982833862,learn,37707.00001716614,Wed Apr 16 2025 18:23:02 GMT-0500 (Central Daylight Time),395189.3000000119,A,l,O,l,586,1,600.8000000119209,394588.5,7131,WL,B,13.0
3,22.408999919891357,learn,37591.00008010864,Wed Apr 16 2025 18:23:02 GMT-0500 (Central Daylight Time),395304.8000000119,A,la,O,a,76,1,716.3000000119209,394588.5,7131,WL,B,13.0
3,22.542999982833862,learn,37457.00001716614,Wed Apr 16 2025 18:23:02 GMT-0500 (Central Daylight Time),395438.6999999881,A,lak,O,k,115,1,850.1999999880791,394588.5,7131,WL,B,13.0
3,22.72699999809265,learn,37273.00000190735,Wed Apr 16 2025 18:23:02 GMT-0500 (Central Daylight Time),395622.5,A,lake,O,e,163,1,1034.0,394588.5,7131,WL,B,13.0
3,22.876999855041504,learn,37123.000144958496,Wed Apr 16 2025 18:23:02 GMT-0500 (Central Daylight Time),395772.39999997616,A,lakeenter,O,enter,109,1,1183.8999999761581,394588.5,7131,WL,B,13.0
3,23.075999975204468,learn,36924.00002479553,Wed Apr 16 2025 18:23:02 GMT-0500 (Central Daylight Time),395971.6999999881,A,c,O,c,185,1,199.10000002384186,395772.59999996424,7131,WL,B,14.0
3,23.192999839782715,learn,36807.000160217285,Wed Apr 16 2025 18:23:02 GMT-0500 (Central Daylight Time),396088.3000000119,A,ca,O,a,86,1,315.7000000476837,395772.59999996424,7131,WL,B,14.0
3,23.525999784469604,learn,36474.000215530396,Wed Apr 16 2025 18:23:02 GMT-0500 (Central Daylight Time),396421.89999997616,A,cab,O,b,305,1,649.3000000119209,395772.59999996424,7131,WL,B,14.0
3,23.658999919891357,learn,36341.00008010864,Wed Apr 16 2025 18:23:02 GMT-0500 (Central Daylight Time),396554.89999997616,A,cabi,O,i,93,1,782.3000000119209,395772.59999996424,7131,WL,B,14.0
3,23.742999792099,learn,36257.000207901,Wed Apr 16 2025 18:23:02 GMT-0500 (Central Daylight Time),396638.1999999881,A,cabin,O,n,60,1,865.6000000238419,395772.59999996424,7131,WL,B,14.0
3,24.625,learn,35375.0,Wed Apr 16 2025 18:23:02 GMT-0500 (Central Daylight Time),397520.59999996424,A,cabinenter,O,enter,844,1,1748.0,395772.59999996424,7131,WL,B,14.0
3,28.173999786376953,learn,31826.000213623047,Wed Apr 16 2025 18:23:02 GMT-0500 (Central Daylight Time),401070.09999996424,A,a,O,a,3541,1,3549.099999964237,397521.0,7131,WL,B,15.0
3,28.47499990463257,learn,31525.00009536743,Wed Apr 16 2025 18:23:02 GMT-0500 (Central Daylight Time),401370.5,A,ar,O,r,260,1,3849.5,397521.0,7131,WL,B,15.0
3,28.890999794006348,learn,31109.000205993652,Wed Apr 16 2025 18:23:02 GMT-0500 (Central Daylight Time),401787.0,A,arm,O,m,384,1,4266.0,397521.0,7131,WL,B,15.0
3,29.139999866485596,learn,30860.000133514404,Wed Apr 16 2025 18:23:02 GMT-0500 (Central Daylight Time),402035.59999996424,A,armenter,O,enter,232,1,4514.599999964237,397521.0,7131,WL,B,15.0
4,1.0339999198913574,learn,58966.00008010864,Wed Apr 16 2025 18:23:02 GMT-0500 (Central Daylight Time),469448.1999999881,A,c,O,c,998,1,1033.199999988079,468415.0,7131,WL,B,1.0
4,1.1510000228881836,learn,58848.99997711182,Wed Apr 16 2025 18:23:02 GMT-0500 (Central Daylight Time),469565.6999999881,A,cl,O,l,91,1,1150.699999988079,468415.0,7131,WL,B,1.0
4,1.3329999446868896,learn,58667.00005531311,Wed Apr 16 2025 18:23:02 GMT-0500 (Central Daylight Time),469748.09999996424,A,clo,O,o,150,1,1333.0999999642372,468415.0,7131,WL,B,1.0
4,1.4830000400543213,learn,58516.99995994568,Wed Apr 16 2025 18:23:02 GMT-0500 (Central Daylight Time),469897.89999997616,A,cloc,O,c,122,1,1482.8999999761581,468415.0,7131,WL,B,1.0
4,1.6500000953674316,learn,58349.99990463257,Wed Apr 16 2025 18:23:02 GMT-0500 (Central Daylight Time),470064.59999996424,A,clock,O,k,131,1,1649.5999999642372,468415.0,7131,WL,B,1.0
4,2.6489999294281006,learn,57351.0000705719,Wed Apr 16 2025 18:23:02 GMT-0500 (Central Daylight Time),471063.1999999881,A,clockenter,O,enter,961,1,2648.199999988079,468415.0,7131,WL,B,1.0
4,2.8489999771118164,learn,57151.00002288818,Wed Apr 16 2025 18:23:02 GMT-0500 (Central Daylight Time),471263.5,A,s,O,s,183,1,200.0,471063.5,7131,WL,B,2.0
4,3.2330000400543213,learn,56766.99995994568,Wed Apr 16 2025 18:23:02 GMT-0500 (Central Daylight Time),471647.39999997616,A,st,O,t,359,1,583.8999999761581,471063.5,7131,WL,B,2.0
4,3.499000072479248,learn,56500.99992752075,Wed Apr 16 2025 18:23:02 GMT-0500 (Central Daylight Time),471913.89999997616,A,str,O,r,226,1,850.3999999761581,471063.5,7131,WL,B,2.0
4,4.065999984741211,learn,55934.00001525879,Wed Apr 16 2025 18:23:02 GMT-0500 (Central Daylight Time),472480.5,A,stre,O,e,530,1,1417.0,471063.5,7131,WL,B,2.0
4,4.249000072479248,learn,55750.99992752075,Wed Apr 16 2025 18:23:02 GMT-0500 (Central Daylight Time),472663.6999999881,A,stree,O,e,149,1,1600.199999988079,471063.5,7131,WL,B,2.0
4,4.615999937057495,learn,55384.000062942505,Wed Apr 16 2025 18:23:02 GMT-0500 (Central Daylight Time),473030.09999996424,A,street,O,t,343,1,1966.5999999642372,471063.5,7131,WL,B,2.0
4,5.480999946594238,learn,54519.00005340576,Wed Apr 16 2025 18:23:02 GMT-0500 (Central Daylight Time),473895.59999996424,A,streetenter,O,enter,832,1,2832.099999964237,471063.5,7131,WL,B,2.0
4,5.79800009727478,learn,54201.99990272522,Wed Apr 16 2025 18:23:02 GMT-0500 (Central Daylight Time),474213.09999996424,A,g,O,g,303,1,317.2999999523163,473895.8000000119,7131,WL,B,3.0
4,5.914000034332275,learn,54085.999965667725,Wed Apr 16 2025 18:23:02 GMT-0500 (Central Daylight Time),474328.89999997616,A,gr,O,r,75,1,433.0999999642372,473895.8000000119,7131,WL,B,3.0
4,6.180999994277954,learn,53819.000005722046,Wed Apr 16 2025 18:23:02 GMT-0500 (Central Daylight Time),474596.09999996424,A,gra,O,a,251,1,700.2999999523163,473895.8000000119,7131,WL,B,3.0
4,6.497999906539917,learn,53502.00009346008,Wed Apr 16 2025 18:23:02 GMT-0500 (Central Daylight Time),474912.89999997616,A,gras,O,s,277,1,1017.0999999642372,473895.8000000119,7131,WL,B,3.0
4,6.63100004196167,learn,53368.99995803833,Wed Apr 16 2025 18:23:02 GMT-0500 (Central Daylight Time),475045.89999997616,A,grass,O,s,110,1,1150.0999999642372,473895.8000000119,7131,WL,B,3.0
4,6.96399998664856,learn,53036.00001335144,Wed Apr 16 2025 18:23:02 GMT-0500 (Central Daylight Time),475378.39999997616,A,grassenter,O,enter,292,1,1482.5999999642372,473895.8000000119,7131,WL,B,3.0
4,7.38100004196167,learn,52618.99995803833,Wed Apr 16 2025 18:23:02 GMT-0500 (Central Daylight Time),475795.8000000119,A,d,O,d,395,1,417.10000002384186,475378.6999999881,7131,WL,B,4.0
4,7.8480000495910645,learn,52151.999950408936,Wed Apr 16 2025 18:23:02 GMT-0500 (Central Daylight Time),476262.1999999881,A,do,O,o,439,1,883.5,475378.6999999881,7131,WL,B,4.0
4,8.030999898910522,learn,51969.00010108948,Wed Apr 16 2025 18:23:02 GMT-0500 (Central Daylight Time),476445.89999997616,A,doo,O,o,160,1,1067.199999988079,475378.6999999881,7131,WL,B,4.0
4,8.197999954223633,learn,51802.00004577637,Wed Apr 16 2025 18:23:02 GMT-0500 (Central Daylight Time),476612.3000000119,A,door,O,r,134,1,1233.6000000238419,475378.6999999881,7131,WL,B,4.0
4,8.54699993133545,learn,51453.00006866455,Wed Apr 16 2025 18:23:02 GMT-0500 (Central Daylight Time),476961.09999996424,A,doorenter,O,enter,310,1,1582.3999999761581,475378.6999999881,7131,WL,B,4.0
4,8.763999938964844,learn,51236.000061035156,Wed Apr 16 2025 18:23:02 GMT-0500 (Central Daylight Time),477178.8000000119,A,a,O,a,206,1,217.5,476961.3000000119,7131,WL,B,5.0
4,9.081000089645386,learn,50918.999910354614,Wed Apr 16 2025 18:23:02 GMT-0500 (Central Daylight Time),477495.39999997616,A,ar,O,r,288,1,534.0999999642372,476961.3000000119,7131,WL,B,5.0
4,9.331000089645386,learn,50668.999910354614,Wed Apr 16 2025 18:23:02 GMT-0500 (Central Daylight Time),477745.1999999881,A,arm,O,m,225,1,783.8999999761581,476961.3000000119,7131,WL,B,5.0
4,9.746000051498413,learn,50253.99994850159,Wed Apr 16 2025 18:23:02 GMT-0500 (Central Daylight Time),478160.89999997616,A,armenter,O,enter,375,1,1199.5999999642372,476961.3000000119,7131,WL,B,5.0
4,10.013999938964844,learn,49986.000061035156,Wed Apr 16 2025 18:23:02 GMT-0500 (Central Daylight Time),478428.59999996424,A,s,O,s,245,1,267.39999997615814,478161.1999999881,7131,WL,B,6.0
4,10.263999938964844,learn,49736.000061035156,Wed Apr 16 2025 18:23:02 GMT-0500 (Central Daylight Time),478678.09999996424,A,st,O,t,221,1,516.8999999761581,478161.1999999881,7131,WL,B,6.0
4,10.44700002670288,learn,49552.99997329712,Wed Apr 16 2025 18:23:02 GMT-0500 (Central Daylight Time),478861.6999999881,A,sta,O,a,148,1,700.5,478161.1999999881,7131,WL,B,6.0
4,10.730000019073486,learn,49269.999980926514,Wed Apr 16 2025 18:23:02 GMT-0500 (Central Daylight Time),479144.89999997616,A,star,O,r,245,1,983.6999999880791,478161.1999999881,7131,WL,B,6.0
4,12.21399998664856,learn,47786.00001335144,Wed Apr 16 2025 18:23:02 GMT-0500 (Central Daylight Time),480626.6999999881,A,starenter,O,enter,1440,1,2465.5,478161.1999999881,7131,WL,B,6.0
4,12.664999961853027,learn,47335.00003814697,Wed Apr 16 2025 18:23:02 GMT-0500 (Central Daylight Time),481077.5,A,w,O,w,436,1,450.5,480627.0,7131,WL,B,7.0
4,12.914999961853027,learn,47085.00003814697,Wed Apr 16 2025 18:23:02 GMT-0500 (Central Daylight Time),481327.3000000119,A,wi,O,i,222,1,700.3000000119209,480627.0,7131,WL,B,7.0
4,13.247999906539917,learn,46752.00009346008,Wed Apr 16 2025 18:23:02 GMT-0500 (Central Daylight Time),481660.6999999881,A,wif,O,f,293,1,1033.699999988079,480627.0,7131,WL,B,7.0
4,13.365000009536743,learn,46634.99999046326,Wed Apr 16 2025 18:23:02 GMT-0500 (Central Daylight Time),481777.39999997616,A,wife,O,e,82,1,1150.3999999761581,480627.0,7131,WL,B,7.0
4,14.19700002670288,learn,45802.99997329712,Wed Apr 16 2025 18:23:02 GMT-0500 (Central Daylight Time),482609.39999997616,A,wifeenter,O,enter,801,1,1982.3999999761581,480627.0,7131,WL,B,7.0
4,15.164000034332275,learn,44835.999965667725,Wed Apr 16 2025 18:23:02 GMT-0500 (Central Daylight Time),483576.89999997616,A,w,O,w,948,1,967.1999999880791,482609.6999999881,7131,WL,B,8.0
4,15.280999898910522,learn,44719.00010108948,Wed Apr 16 2025 18:23:02 GMT-0500 (Central Daylight Time),483693.09999996424,A,wi,O,i,84,1,1083.3999999761581,482609.6999999881,7131,WL,B,8.0
4,15.329999923706055,learn,44670.000076293945,Wed Apr 16 2025 18:23:02 GMT-0500 (Central Daylight Time),483742.89999997616,A,win,O,n,21,1,1133.199999988079,482609.6999999881,7131,WL,B,8.0
4,15.480999946594238,learn,44519.00005340576,Wed Apr 16 2025 18:23:02 GMT-0500 (Central Daylight Time),483893.8000000119,A,wind,O,d,140,1,1284.1000000238419,482609.6999999881,7131,WL,B,8.0
4,15.664000034332275,learn,44335.999965667725,Wed Apr 16 2025 18:23:02 GMT-0500 (Central Daylight Time),484076.3000000119,A,windo,O,o,139,1,1466.6000000238419,482609.6999999881,7131,WL,B,8.0
4,15.88100004196167,learn,44118.99995803833,Wed Apr 16 2025 18:23:02 GMT-0500 (Central Daylight Time),484293.09999996424,A,window,O,w,181,1,1683.3999999761581,482609.6999999881,7131,WL,B,8.0
4,16.34599995613098,learn,43654.00004386902,Wed Apr 16 2025 18:23:02 GMT-0500 (Central Daylight Time),484758.6999999881,A,windowenter,O,enter,429,1,2149.0,482609.6999999881,7131,WL,B,8.0
4,16.812999963760376,learn,43187.000036239624,Wed Apr 16 2025 18:23:02 GMT-0500 (Central Daylight Time),485225.8000000119,A,c,O,c,456,1,466.80000001192093,484759.0,7131,WL,B,9.0
4,16.996999979019165,learn,43003.000020980835,Wed Apr 16 2025 18:23:02 GMT-0500 (Central Daylight Time),485409.39999997616,A,ci,O,i,145,1,650.3999999761581,484759.0,7131,WL,B,9.0
4,17.19700002670288,learn,42802.99997329712,Wed Apr 16 2025 18:23:02 GMT-0500 (Central Daylight Time),485609.39999997616,A,cit,O,t,171,1,850.3999999761581,484759.0,7131,WL,B,9.0
4,17.312999963760376,learn,42687.000036239624,Wed Apr 16 2025 18:23:02 GMT-0500 (Central Daylight Time),485725.89999997616,A,city,O,y,82,1,966.8999999761581,484759.0,7131,WL,B,9.0
4,17.711999893188477,learn,42288.00010681152,Wed Apr 16 2025 18:23:02 GMT-0500 (Central Daylight Time),486124.89999997616,A,cityenter,O,enter,371,1,1365.8999999761581,484759.0,7131,WL,B,9.0
4,18.312999963760376,learn,41687.000036239624,Wed Apr 16 2025 18:23:02 GMT-0500 (Central Daylight Time),486725.8000000119,A,c,O,c,594,1,600.6000000238419,486125.1999999881,7131,WL,B,10.0
4,18.480000019073486,learn,41519.999980926514,Wed Apr 16 2025 18:23:02 GMT-0500 (Central Daylight Time),486892.1999999881,A,ca,O,a,133,1,767.0,486125.1999999881,7131,WL,B,10.0
4,18.680000066757202,learn,41319.9999332428,Wed Apr 16 2025 18:23:02 GMT-0500 (Central Daylight Time),487092.1999999881,A,cab,O,b,159,1,967.0,486125.1999999881,7131,WL,B,10.0
4,18.846999883651733,learn,41153.00011634827,Wed Apr 16 2025 18:23:02 GMT-0500 (Central Daylight Time),487259.3000000119,A,cabi,O,i,131,1,1134.1000000238419,486125.1999999881,7131,WL,B,10.0
4,19.096999883651733,learn,40903.00011634827,Wed Apr 16 2025 18:23:02 GMT-0500 (Central Daylight Time),487509.3000000119,A,cabin,O,n,224,1,1384.1000000238419,486125.1999999881,7131,WL,B,10.0
4,19.494999885559082,learn,40505.00011444092,Wed Apr 16 2025 18:23:02 GMT-0500 (Central Daylight Time),487907.6999999881,A,cabinenter,O,enter,375,1,1782.5,486125.1999999881,7131,WL,B,10.0
4,20.078999996185303,learn,39921.0000038147,Wed Apr 16 2025 18:23:02 GMT-0500 (Central Daylight Time),488491.89999997616,A,f,O,f,562,1,584.0,487907.89999997616,7131,WL,B,11.0
4,20.17899990081787,learn,39821.00009918213,Wed Apr 16 2025 18:23:02 GMT-0500 (Central Daylight Time),488591.6999999881,A,fi,O,i,69,1,683.8000000119209,487907.89999997616,7131,WL,B,11.0
4,20.328999996185303,learn,39671.0000038147,Wed Apr 16 2025 18:23:02 GMT-0500 (Central Daylight Time),488741.59999996424,A,fir,O,r,111,1,833.6999999880791,487907.89999997616,7131,WL,B,11.0
4,20.496000051498413,learn,39503.99994850159,Wed Apr 16 2025 18:23:02 GMT-0500 (Central Daylight Time),488908.39999997616,A,fire,O,e,129,1,1000.5,487907.89999997616,7131,WL,B,11.0
4,21.34500002861023,learn,38654.99997138977,Wed Apr 16 2025 18:23:02 GMT-0500 (Central Daylight Time),489756.89999997616,A,fireenter,O,enter,811,1,1849.0,487907.89999997616,7131,WL,B,11.0
4,27.66000008583069,learn,32339.99991416931,Wed Apr 16 2025 18:23:02 GMT-0500 (Central Daylight Time),496072.6999999881,A,l,O,l,6306,1,6315.399999976158,489757.3000000119,7131,WL,B,12.0
4,27.776000022888184,learn,32223.999977111816,Wed Apr 16 2025 18:23:02 GMT-0500 (Central Daylight Time),496188.3000000119,A,la,O,a,81,1,6431.0,489757.3000000119,7131,WL,B,12.0
4,27.91000008583069,learn,32089.99991416931,Wed Apr 16 2025 18:23:02 GMT-0500 (Central Daylight Time),496322.1999999881,A,lak,O,k,108,1,6564.899999976158,489757.3000000119,7131,WL,B,12.0
4,28.0939998626709,learn,31906.0001373291,Wed Apr 16 2025 18:23:02 GMT-0500 (Central Daylight Time),496506.0,A,lake,O,e,146,1,6748.699999988079,489757.3000000119,7131,WL,B,12.0
4,28.259000062942505,learn,31740.999937057495,Wed Apr 16 2025 18:23:02 GMT-0500 (Central Daylight Time),496671.3000000119,A,lakeenter,O,enter,128,1,6914.0,489757.3000000119,7131,WL,B,12.0
4,29.342999935150146,learn,30657.000064849854,Wed Apr 16 2025 18:23:02 GMT-0500 (Central Daylight Time),497755.3000000119,A,c,O,c,1072,1,1083.7000000476837,496671.59999996424,7131,WL,B,13.0
4,29.493000030517578,learn,30506.999969482422,Wed Apr 16 2025 18:23:02 GMT-0500 (Central Daylight Time),497905.1999999881,A,ca,O,a,120,1,1233.6000000238419,496671.59999996424,7131,WL,B,13.0
4,29.792999982833862,learn,30207.000017166138,Wed Apr 16 2025 18:23:02 GMT-0500 (Central Daylight Time),498205.3000000119,A,cab,O,b,267,1,1533.7000000476837,496671.59999996424,7131,WL,B,13.0
4,29.908999919891357,learn,30091.000080108643,Wed Apr 16 2025 18:23:02 GMT-0500 (Central Daylight Time),498321.1999999881,A,cabi,O,i,77,1,1649.6000000238419,496671.59999996424,7131,WL,B,13.0
4,30.276000022888184,learn,29723.999977111816,Wed Apr 16 2025 18:23:02 GMT-0500 (Central Daylight Time),498688.39999997616,A,cabin,O,n,352,1,2016.800000011921,496671.59999996424,7131,WL,B,13.0
4,30.625,learn,29375.0,Wed Apr 16 2025 18:23:02 GMT-0500 (Central Daylight Time),499037.3000000119,A,cabinenter,O,enter,313,1,2365.7000000476837,496671.59999996424,7131,WL,B,13.0
4,33.84100008010864,learn,26158.999919891357,Wed Apr 16 2025 18:23:02 GMT-0500 (Central Daylight Time),502253.89999997616,A,p,O,p,3201,1,3216.300000011921,499037.59999996424,7131,WL,B,14.0
4,34.09100008010864,learn,25908.999919891357,Wed Apr 16 2025 18:23:02 GMT-0500 (Central Daylight Time),502503.89999997616,A,pu,O,u,212,1,3466.300000011921,499037.59999996424,7131,WL,B,14.0
4,34.34100008010864,learn,25658.999919891357,Wed Apr 16 2025 18:23:02 GMT-0500 (Central Daylight Time),502753.89999997616,A,pup,O,p,212,1,3716.300000011921,499037.59999996424,7131,WL,B,14.0
4,34.490999937057495,learn,25509.000062942505,Wed Apr 16 2025 18:23:02 GMT-0500 (Central Daylight Time),502903.6999999881,A,pupi,O,i,114,1,3866.100000023842,499037.59999996424,7131,WL,B,14.0
4,34.70700001716614,learn,25292.999982833862,Wed Apr 16 2025 18:23:02 GMT-0500 (Central Daylight Time),503119.59999996424,A,pupil,O,l,190,1,4082.0,499037.59999996424,7131,WL,B,14.0
4,35.223000049591064,learn,24776.999950408936,Wed Apr 16 2025 18:23:02 GMT-0500 (Central Daylight Time),503635.89999997616,A,pupilenter,O,enter,485,1,4598.300000011921,499037.59999996424,7131,WL,B,14.0
4,37.5239999294281,learn,22476.0000705719,Wed Apr 16 2025 18:23:02 GMT-0500 (Central Daylight Time),505936.09999996424,A,f,O,f,2290,1,2300.0,503636.09999996424,7131,WL,B,15.0
4,37.639999866485596,learn,22360.000133514404,Wed Apr 16 2025 18:23:02 GMT-0500 (Central Daylight Time),506052.59999996424,A,fi,O,i,80,1,2416.5,503636.09999996424,7131,WL,B,15.0
4,37.78999996185303,learn,22210.000038146973,Wed Apr 16 2025 18:23:02 GMT-0500 (Central Daylight Time),506202.1999999881,A,fir,O,r,122,1,2566.100000023842,503636.09999996424,7131,WL,B,15.0
4,38.03999996185303,learn,21960.000038146973,Wed Apr 16 2025 18:23:02 GMT-0500 (Central Daylight Time),506452.8000000119,A,fire,O,e,213,1,2816.7000000476837,503636.09999996424,7131,WL,B,15.0
4,38.57200002670288,learn,21427.99997329712,Wed Apr 16 2025 18:23:02 GMT-0500 (Central Daylight Time),506984.8000000119,A,fireenter,O,enter,492,1,3348.7000000476837,503636.09999996424,7131,WL,B,15.0
5,0.8830001354217529,learn,60000.0,Wed Apr 16 2025 18:23:02 GMT-0500 (Central Daylight Time),579762.5,A,s,O,s,854,1,882.4000000357628,578880.0999999642,7131,WL,B,1.0
5,1.2320001125335693,learn,60000.0,Wed Apr 16 2025 18:23:02 GMT-0500 (Central Daylight Time),580111.8999999762,A,st,O,t,324,1,1231.800000011921,578880.0999999642,7131,WL,B,1.0
5,1.6490001678466797,learn,60000.0,Wed Apr 16 2025 18:23:02 GMT-0500 (Central Daylight Time),580528.3000000119,A,str,O,r,380,1,1648.2000000476837,578880.0999999642,7131,WL,B,1.0
5,1.9150002002716064,learn,60000.0,Wed Apr 16 2025 18:23:02 GMT-0500 (Central Daylight Time),580794.5999999642,A,stre,O,e,236,1,1914.5,578880.0999999642,7131,WL,B,1.0
5,2.0990002155303955,learn,60000.0,Wed Apr 16 2025 18:23:02 GMT-0500 (Central Daylight Time),580978.1999999881,A,stree,O,e,145,1,2098.100000023842,578880.0999999642,7131,WL,B,1.0
5,2.3320000171661377,learn,60000.0,Wed Apr 16 2025 18:23:02 GMT-0500 (Central Daylight Time),581211.3000000119,A,street,O,t,201,1,2331.2000000476837,578880.0999999642,7131,WL,B,1.0
5,2.765000104904175,learn,60000.0,Wed Apr 16 2025 18:23:02 GMT-0500 (Central Daylight Time),581644.5999999642,A,streetg,O,g,391,1,2764.5,578880.0999999642,7131,WL,B,1.0
5,2.8980000019073486,learn,60000.0,Wed Apr 16 2025 18:23:02 GMT-0500 (Central Daylight Time),581777.8999999762,A,streetgr,O,r,103,1,2897.800000011921,578880.0999999642,7131,WL,B,1.0
5,3.2150001525878906,learn,60000.0,Wed Apr 16 2025 18:23:02 GMT-0500 (Central Daylight Time),582094.5,A,streetgra,O,a,282,1,3214.400000035763,578880.0999999642,7131,WL,B,1.0
5,3.6480000019073486,learn,60000.0,Wed Apr 16 2025 18:23:02 GMT-0500 (Central Daylight Time),582527.6999999881,A,streetgras,O,s,405,1,3647.600000023842,578880.0999999642,7131,WL,B,1.0
5,3.815000057220459,learn,60000.0,Wed Apr 16 2025 18:23:02 GMT-0500 (Central Daylight Time),582694.1999999881,A,streetgrass,O,s,138,1,3814.100000023842,578880.0999999642,7131,WL,B,1.0
5,5.231000185012817,learn,60000.0,Wed Apr 16 2025 18:23:02 GMT-0500 (Central Daylight Time),584110.5999999642,A,streetgras,O,backspace,1380,1,5230.5,578880.0999999642,7131,WL,B,1.0
5,5.397000074386597,learn,60000.0,Wed Apr 16 2025 18:23:02 GMT-0500 (Central Daylight Time),584276.3999999762,A,streetgra,O,backspace,134,1,5396.300000011921,578880.0999999642,7131,WL,B,1.0
5,5.581000089645386,learn,60000.0,Wed Apr 16 2025 18:23:02 GMT-0500 (Central Daylight Time),584460.0,A,streetgr,O,backspace,153,1,5579.900000035763,578880.0999999642,7131,WL,B,1.0
5,5.731000185012817,learn,60000.0,Wed Apr 16 2025 18:23:02 GMT-0500 (Central Daylight Time),584610.0999999642,A,streetg,O,backspace,110,1,5730.0,578880.0999999642,7131,WL,B,1.0
5,5.897000074386597,learn,60000.0,Wed Apr 16 2025 18:23:02 GMT-0500 (Central Daylight Time),584776.5999999642,A,street,O,backspace,129,1,5896.5,578880.0999999642,7131,WL,B,1.0
5,6.080000162124634,learn,60000.0,Wed Apr 16 2025 18:23:02 GMT-0500 (Central Daylight Time),584960.0,A,stree,O,backspace,147,1,6079.900000035763,578880.0999999642,7131,WL,B,1.0
5,7.230000019073486,learn,60000.0,Wed Apr 16 2025 18:23:02 GMT-0500 (Central Daylight Time),586109.8999999762,A,street,O,t,1125,1,7229.800000011921,578880.0999999642,7131,WL,B,1.0
5,7.413000106811523,learn,60000.0,Wed Apr 16 2025 18:23:02 GMT-0500 (Central Daylight Time),586292.0,A,streetenter,O,enter,146,1,7411.900000035763,578880.0999999642,7131,WL,B,1.0
5,7.814000129699707,learn,60000.0,Wed Apr 16 2025 18:23:02 GMT-0500 (Central Daylight Time),586693.5,A,g,O,g,395,1,401.19999998807907,586292.3000000119,7131,WL,B,2.0
5,7.997000217437744,learn,60000.0,Wed Apr 16 2025 18:23:02 GMT-0500 (Central Daylight Time),586876.0,A,gr,O,r,147,1,583.6999999880791,586292.3000000119,7131,WL,B,2.0
5,8.313000202178955,learn,60000.0,Wed Apr 16 2025 18:23:02 GMT-0500 (Central Daylight Time),587192.8000000119,A,gra,O,a,288,1,900.5,586292.3000000119,7131,WL,B,2.0
5,8.663000106811523,learn,60000.0,Wed Apr 16 2025 18:23:02 GMT-0500 (Central Daylight Time),587542.1999999881,A,gras,O,s,322,1,1249.8999999761581,586292.3000000119,7131,WL,B,2.0
5,8.813000202178955,learn,60000.0,Wed Apr 16 2025 18:23:02 GMT-0500 (Central Daylight Time),587692.3000000119,A,grass,O,s,110,1,1400.0,586292.3000000119,7131,WL,B,2.0
5,9.445000171661377,learn,60000.0,Wed Apr 16 2025 18:23:02 GMT-0500 (Central Daylight Time),588324.5999999642,A,grassenter,O,enter,607,1,2032.2999999523163,586292.3000000119,7131,WL,B,2.0
5,9.879000186920166,learn,60000.0,Wed Apr 16 2025 18:23:02 GMT-0500 (Central Daylight Time),588758.5999999642,A,d,O,d,425,1,433.69999998807907,588324.8999999762,7131,WL,B,3.0
5,10.129000186920166,learn,60000.0,Wed Apr 16 2025 18:23:02 GMT-0500 (Central Daylight Time),589008.5999999642,A,do,O,o,223,1,683.6999999880791,588324.8999999762,7131,WL,B,3.0
5,10.263000011444092,learn,60000.0,Wed Apr 16 2025 18:23:02 GMT-0500 (Central Daylight Time),589142.1999999881,A,doo,O,o,98,1,817.3000000119209,588324.8999999762,7131,WL,B,3.0
5,10.463000059127808,learn,60000.0,Wed Apr 16 2025 18:23:02 GMT-0500 (Central Daylight Time),589342.0,A,door,O,r,173,1,1017.1000000238419,588324.8999999762,7131,WL,B,3.0
5,10.662000179290771,learn,60000.0,Wed Apr 16 2025 18:23:02 GMT-0500 (Central Daylight Time),589540.8999999762,A,doorenter,O,enter,172,1,1216.0,588324.8999999762,7131,WL,B,3.0
5,10.879000186920166,learn,60000.0,Wed Apr 16 2025 18:23:02 GMT-0500 (Central Daylight Time),589758.5,A,a,O,a,210,1,217.30000001192093,589541.1999999881,7131,WL,B,4.0
5,11.146000146865845,learn,60000.0,Wed Apr 16 2025 18:23:02 GMT-0500 (Central Daylight Time),590025.1999999881,A,ar,O,r,236,1,484.0,589541.1999999881,7131,WL,B,4.0
5,11.42900013923645,learn,60000.0,Wed Apr 16 2025 18:23:02 GMT-0500 (Central Daylight Time),590308.5,A,arm,O,m,256,1,767.3000000119209,589541.1999999881,7131,WL,B,4.0
5,11.745000123977661,learn,60000.0,Wed Apr 16 2025 18:23:02 GMT-0500 (Central Daylight Time),590624.0,A,armenter,O,enter,278,1,1082.800000011921,589541.1999999881,7131,WL,B,4.0
5,11.979000091552734,learn,60000.0,Wed Apr 16 2025 18:23:02 GMT-0500 (Central Daylight Time),590858.3999999762,A,s,O,s,215,1,234.0999999642372,590624.3000000119,7131,WL,B,5.0
5,12.229000091552734,learn,60000.0,Wed Apr 16 2025 18:23:02 GMT-0500 (Central Daylight Time),591108.1999999881,A,st,O,t,219,1,483.89999997615814,590624.3000000119,7131,WL,B,5.0
5,12.445000171661377,learn,60000.0,Wed Apr 16 2025 18:23:02 GMT-0500 (Central Daylight Time),591324.5999999642,A,sta,O,a,174,1,700.2999999523163,590624.3000000119,7131,WL,B,5.0
5,12.67900013923645,learn,60000.0,Wed Apr 16 2025 18:23:02 GMT-0500 (Central Daylight Time),591557.8999999762,A,star,O,r,208,1,933.5999999642372,590624.3000000119,7131,WL,B,5.0
5,15.81000018119812,learn,60000.0,Wed Apr 16 2025 18:23:02 GMT-0500 (Central Daylight Time),594689.1999999881,A,starenter,O,enter,3101,1,4064.899999976158,590624.3000000119,7131,WL,B,5.0
5,16.39400005340576,learn,60000.0,Wed Apr 16 2025 18:23:02 GMT-0500 (Central Daylight Time),595273.3999999762,A,w,O,w,573,1,583.8999999761581,594689.5,7131,WL,B,6.0
5,16.527000188827515,learn,60000.0,Wed Apr 16 2025 18:23:02 GMT-0500 (Central Daylight Time),595406.8000000119,A,wi,O,i,103,1,717.3000000119209,594689.5,7131,WL,B,6.0
5,16.860000133514404,learn,60000.0,Wed Apr 16 2025 18:23:02 GMT-0500 (Central Daylight Time),595739.8000000119,A,wif,O,f,290,1,1050.300000011921,594689.5,7131,WL,B,6.0
5,17.010000228881836,learn,60000.0,Wed Apr 16 2025 18:23:02 GMT-0500 (Central Daylight Time),595889.3999999762,A,wife,O,e,110,1,1199.8999999761581,594689.5,7131,WL,B,6.0
5,18.30900001525879,learn,60000.0,Wed Apr 16 2025 18:23:02 GMT-0500 (Central Daylight Time),597188.3999999762,A,wifeenter,O,enter,1282,1,2498.899999976158,594689.5,7131,WL,B,6.0
5,21.278000116348267,learn,60000.0,Wed Apr 16 2025 18:23:02 GMT-0500 (Central Daylight Time),600155.5,A,w,O,w,2946,1,2966.800000011921,597188.6999999881,7131,WL,B,7.0
5,21.4280002117157,learn,60000.0,Wed Apr 16 2025 18:23:02 GMT-0500 (Central Daylight Time),600305.1999999881,A,wi,O,i,110,1,3116.5,597188.6999999881,7131,WL,B,7.0
5,21.91100001335144,learn,60000.0,Wed Apr 16 2025 18:23:02 GMT-0500 (Central Daylight Time),600788.1999999881,A,win,O,n,443,1,3599.5,597188.6999999881,7131,WL,B,7.0
5,22.278000116348267,learn,60000.0,Wed Apr 16 2025 18:23:02 GMT-0500 (Central Daylight Time),601154.8999999762,A,wind,O,d,337,1,3966.199999988079,597188.6999999881,7131,WL,B,7.0
5,22.444000005722046,learn,60000.0,Wed Apr 16 2025 18:23:02 GMT-0500 (Central Daylight Time),601321.5,A,windo,O,o,134,1,4132.800000011921,597188.6999999881,7131,WL,B,7.0
5,22.711000204086304,learn,60000.0,Wed Apr 16 2025 18:23:02 GMT-0500 (Central Daylight Time),601588.0999999642,A,window,O,w,225,1,4399.399999976158,597188.6999999881,7131,WL,B,7.0
5,22.926000118255615,learn,60000.0,Wed Apr 16 2025 18:23:02 GMT-0500 (Central Daylight Time),601803.8000000119,A,windowenter,O,enter,187,1,4615.100000023842,597188.6999999881,7131,WL,B,7.0
5,23.544000148773193,learn,60000.0,Wed Apr 16 2025 18:23:02 GMT-0500 (Central Daylight Time),602421.1999999881,A,c,O,c,603,1,617.1999999880791,601804.0,7131,WL,B,8.0
5,23.74400019645691,learn,60000.0,Wed Apr 16 2025 18:23:02 GMT-0500 (Central Daylight Time),602621.6999999881,A,ci,O,i,174,1,817.6999999880791,601804.0,7131,WL,B,8.0
5,23.95900011062622,learn,60000.0,Wed Apr 16 2025 18:23:02 GMT-0500 (Central Daylight Time),602836.8000000119,A,cit,O,t,185,1,1032.800000011921,601804.0,7131,WL,B,8.0
5,24.110000133514404,learn,60000.0,Wed Apr 16 2025 18:23:02 GMT-0500 (Central Daylight Time),602987.8000000119,A,city,O,y,126,1,1183.800000011921,601804.0,7131,WL,B,8.0
5,25.409000158309937,learn,60000.0,Wed Apr 16 2025 18:23:02 GMT-0500 (Central Daylight Time),604286.1999999881,A,cityenter,O,enter,1260,1,2482.199999988079,601804.0,7131,WL,B,8.0
5,26.81000018119812,learn,60000.0,Wed Apr 16 2025 18:23:02 GMT-0500 (Central Daylight Time),605687.0999999642,A,p,O,p,1384,1,1400.5,604286.5999999642,7131,WL,B,9.0
5,27.05900001525879,learn,60000.0,Wed Apr 16 2025 18:23:02 GMT-0500 (Central Daylight Time),605936.6999999881,A,pu,O,u,210,1,1650.1000000238419,604286.5999999642,7131,WL,B,9.0
5,27.276000022888184,learn,60000.0,Wed Apr 16 2025 18:23:02 GMT-0500 (Central Daylight Time),606153.1999999881,A,pup,O,p,186,1,1866.6000000238419,604286.5999999642,7131,WL,B,9.0
5,27.4760000705719,learn,60000.0,Wed Apr 16 2025 18:23:02 GMT-0500 (Central Daylight Time),606353.1999999881,A,pupi,O,i,163,1,2066.600000023842,604286.5999999642,7131,WL,B,9.0
5,27.79300022125244,learn,60000.0,Wed Apr 16 2025 18:23:02 GMT-0500 (Central Daylight Time),606669.8999999762,A,pupil,O,l,291,1,2383.300000011921,604286.5999999642,7131,WL,B,9.0
5,29.724000215530396,learn,60000.0,Wed Apr 16 2025 18:23:02 GMT-0500 (Central Daylight Time),608601.3999999762,A,pupilenter,O,enter,1896,1,4314.800000011921,604286.5999999642,7131,WL,B,9.0
5,30.35800004005432,learn,60000.0,Wed Apr 16 2025 18:23:02 GMT-0500 (Central Daylight Time),609235.8000000119,A,s,O,s,613,1,634.1000000238419,608601.6999999881,7131,WL,B,10.0
5,30.457000017166138,learn,60000.0,Wed Apr 16 2025 18:23:02 GMT-0500 (Central Daylight Time),609334.5999999642,A,sk,O,k,71,1,732.8999999761581,608601.6999999881,7131,WL,B,10.0
5,30.624000072479248,learn,60000.0,Wed Apr 16 2025 18:23:02 GMT-0500 (Central Daylight Time),609501.6999999881,A,ski,O,i,147,1,900.0,608601.6999999881,7131,WL,B,10.0
5,30.85800004005432,learn,60000.0,Wed Apr 16 2025 18:23:02 GMT-0500 (Central Daylight Time),609735.3999999762,A,skin,O,n,199,1,1133.699999988079,608601.6999999881,7131,WL,B,10.0
5,31.124000072479248,learn,60000.0,Wed Apr 16 2025 18:23:02 GMT-0500 (Central Daylight Time),610001.0,A,skinenter,O,enter,233,1,1399.300000011921,608601.6999999881,7131,WL,B,10.0
5,31.44100022315979,learn,60000.0,Wed Apr 16 2025 18:23:02 GMT-0500 (Central Daylight Time),610318.3000000119,A,c,O,c,310,1,317.10000002384186,610001.1999999881,7131,WL,B,11.0
5,31.625,learn,60000.0,Wed Apr 16 2025 18:23:02 GMT-0500 (Central Daylight Time),610502.0999999642,A,ca,O,a,157,1,500.89999997615814,610001.1999999881,7131,WL,B,11.0
5,31.79100012779236,learn,60000.0,Wed Apr 16 2025 18:23:02 GMT-0500 (Central Daylight Time),610668.3000000119,A,cab,O,b,134,1,667.1000000238419,610001.1999999881,7131,WL,B,11.0
5,31.94100022315979,learn,60000.0,Wed Apr 16 2025 18:23:02 GMT-0500 (Central Daylight Time),610818.3999999762,A,cabi,O,i,118,1,817.1999999880791,610001.1999999881,7131,WL,B,11.0
5,32.224000215530396,learn,60000.0,Wed Apr 16 2025 18:23:02 GMT-0500 (Central Daylight Time),611101.0999999642,A,cabin,O,n,249,1,1099.8999999761581,610001.1999999881,7131,WL,B,11.0
5,32.59000015258789,learn,60000.0,Wed Apr 16 2025 18:23:02 GMT-0500 (Central Daylight Time),611467.0999999642,A,cabinenter,O,enter,333,1,1465.8999999761581,610001.1999999881,7131,WL,B,11.0
5,33.62400007247925,learn,60000.0,Wed Apr 16 2025 18:23:02 GMT-0500 (Central Daylight Time),612501.1999999881,A,l,O,l,1011,1,1033.800000011921,611467.3999999762,7131,WL,B,12.0
5,33.873000144958496,learn,60000.0,Wed Apr 16 2025 18:23:02 GMT-0500 (Central Daylight Time),612750.5,A,la,O,a,222,1,1283.1000000238419,611467.3999999762,7131,WL,B,12.0
5,34.02300000190735,learn,60000.0,Wed Apr 16 2025 18:23:02 GMT-0500 (Central Daylight Time),612899.8000000119,A,lak,O,k,123,1,1432.4000000357628,611467.3999999762,7131,WL,B,12.0
5,34.206000089645386,learn,60000.0,Wed Apr 16 2025 18:23:02 GMT-0500 (Central Daylight Time),613083.1999999881,A,lake,O,e,160,1,1615.800000011921,611467.3999999762,7131,WL,B,12.0
5,34.623000144958496,learn,60000.0,Wed Apr 16 2025 18:23:02 GMT-0500 (Central Daylight Time),613499.8000000119,A,lakeenter,O,enter,410,1,2032.4000000357628,611467.3999999762,7131,WL,B,12.0
5,36.49000000953674,learn,60000.0,Wed Apr 16 2025 18:23:02 GMT-0500 (Central Daylight Time),615367.0,A,f,O,f,1851,1,1866.9000000357628,613500.0999999642,7131,WL,B,13.0
5,36.67300009727478,learn,60000.0,Wed Apr 16 2025 18:23:02 GMT-0500 (Central Daylight Time),615549.8000000119,A,fi,O,i,157,1,2049.7000000476837,613500.0999999642,7131,WL,B,13.0
5,36.85600018501282,learn,60000.0,Wed Apr 16 2025 18:23:02 GMT-0500 (Central Daylight Time),615733.3999999762,A,fir,O,r,153,1,2233.300000011921,613500.0999999642,7131,WL,B,13.0
5,36.98900008201599,learn,60000.0,Wed Apr 16 2025 18:23:02 GMT-0500 (Central Daylight Time),615866.5999999642,A,fire,O,e,98,1,2366.5,613500.0999999642,7131,WL,B,13.0
5,37.15500020980835,learn,60000.0,Wed Apr 16 2025 18:23:02 GMT-0500 (Central Daylight Time),616032.3000000119,A,fireenter,O,enter,135,1,2532.2000000476837,613500.0999999642,7131,WL,B,13.0
5,37.372000217437744,learn,60000.0,Wed Apr 16 2025 18:23:02 GMT-0500 (Central Daylight Time),616249.6999999881,A,c,O,c,205,1,217.19999998807907,616032.5,7131,WL,B,14.0
5,37.48900008201599,learn,60000.0,Wed Apr 16 2025 18:23:02 GMT-0500 (Central Daylight Time),616366.0,A,cl,O,l,94,1,333.5,616032.5,7131,WL,B,14.0
5,37.65500020980835,learn,60000.0,Wed Apr 16 2025 18:23:02 GMT-0500 (Central Daylight Time),616532.6999999881,A,clo,O,o,131,1,500.19999998807907,616032.5,7131,WL,B,14.0
5,37.82300019264221,learn,60000.0,Wed Apr 16 2025 18:23:02 GMT-0500 (Central Daylight Time),616699.8999999762,A,cloc,O,c,127,1,667.3999999761581,616032.5,7131,WL,B,14.0
5,37.956000089645386,learn,60000.0,Wed Apr 16 2025 18:23:02 GMT-0500 (Central Daylight Time),616833.0,A,clock,O,k,104,1,800.5,616032.5,7131,WL,B,14.0
5,38.65500020980835,learn,60000.0,Wed Apr 16 2025 18:23:02 GMT-0500 (Central Daylight Time),617531.8000000119,A,clockenter,O,enter,666,1,1499.300000011921,616032.5,7131,WL,B,14.0
5,52.66700005531311,learn,60000.0,Wed Apr 16 2025 18:23:02 GMT-0500 (Central Daylight Time),631543.8000000119,A,w,O,w,14002,1,14011.800000011921,617532.0,7131,WL,B,15.0
5,52.901000022888184,learn,60000.0,Wed Apr 16 2025 18:23:02 GMT-0500 (Central Daylight Time),631778.1999999881,A,wi,O,i,218,1,14246.199999988079,617532.0,7131,WL,B,15.0
5,53.1010000705719,learn,60000.0,Wed Apr 16 2025 18:23:02 GMT-0500 (Central Daylight Time),631978.0999999642,A,wid,O,d,163,1,14446.099999964237,617532.0,7131,WL,B,15.0
5,53.31700015068054,learn,60000.0,Wed Apr 16 2025 18:23:02 GMT-0500 (Central Daylight Time),632194.8000000119,A,wido,O,o,177,1,14662.800000011921,617532.0,7131,WL,B,15.0
5,54.23400020599365,learn,60000.0,Wed Apr 16 2025 18:23:02 GMT-0500 (Central Daylight Time),633111.0999999642,A,wid,O,backspace,882,1,15579.099999964237,617532.0,7131,WL,B,15.0
5,54.5,learn,60000.0,Wed Apr 16 2025 18:23:02 GMT-0500 (Central Daylight Time),633377.3999999762,A,wi,O,backspace,235,1,15845.399999976158,617532.0,7131,WL,B,15.0
5,55.367000102996826,learn,60000.0,Wed Apr 16 2025 18:23:02 GMT-0500 (Central Daylight Time),634244.0,A,wib,O,b,825,1,16712.0,617532.0,7131,WL,B,15.0
5,56.13300013542175,learn,60000.0,Wed Apr 16 2025 18:23:02 GMT-0500 (Central Daylight Time),635010.0999999642,A,wi,O,backspace,738,1,17478.099999964237,617532.0,7131,WL,B,15.0
5,56.866000175476074,learn,60000.0,Wed Apr 16 2025 18:23:02 GMT-0500 (Central Daylight Time),635743.0999999642,A,win,O,n,705,1,18211.099999964237,617532.0,7131,WL,B,15.0
5,57.349000215530396,learn,60000.0,Wed Apr 16 2025 18:23:02 GMT-0500 (Central Daylight Time),636226.5,A,wind,O,d,457,1,18694.5,617532.0,7131,WL,B,15.0
5,57.48200011253357,learn,60000.0,Wed Apr 16 2025 18:23:02 GMT-0500 (Central Daylight Time),636359.6999999881,A,windo,O,o,109,1,18827.69999998808,617532.0,7131,WL,B,15.0
5,57.71600008010864,learn,60000.0,Wed Apr 16 2025 18:23:02 GMT-0500 (Central Daylight Time),636593.3000000119,A,window,O,w,212,1,19061.30000001192,617532.0,7131,WL,B,15.0
5,58.44800019264221,learn,60000.0,Wed Apr 16 2025 18:23:02 GMT-0500 (Central Daylight Time),637325.3000000119,A,windowenter,O,enter,706,1,19793.30000001192,617532.0,7131,WL,B,15.0
6,0.9000000953674316,distr,59099.99990463257,Wed Apr 16 2025 18:23:02 GMT-0500 (Central Daylight Time),712268.5,B,b,O,b,871,1,900.1999999880791,711368.3000000119,7131,WL,B,1.0
6,1.0830001831054688,distr,58916.99981689453,Wed Apr 16 2025 18:23:02 GMT-0500 (Central Daylight Time),712451.5,B,ba,O,a,141,1,1083.199999988079,711368.3000000119,7131,WL,B,1.0
6,1.2670001983642578,distr,58732.99980163574,Wed Apr 16 2025 18:23:02 GMT-0500 (Central Daylight Time),712635.0,B,bab,O,b,157,1,1266.699999988079,711368.3000000119,7131,WL,B,1.0
6,1.6170001029968262,distr,58382.999897003174,Wed Apr 16 2025 18:23:02 GMT-0500 (Central Daylight Time),712985.0,B,baby,O,y,316,1,1616.699999988079,711368.3000000119,7131,WL,B,1.0
6,2.065999984741211,distr,57934.00001525879,Wed Apr 16 2025 18:23:02 GMT-0500 (Central Daylight Time),713433.6999999881,B,babyenter,O,enter,418,1,2065.399999976158,711368.3000000119,7131,WL,B,1.0
6,2.4830000400543213,distr,57516.99995994568,Wed Apr 16 2025 18:23:02 GMT-0500 (Central Daylight Time),713850.6999999881,B,o,O,o,396,1,416.69999998807907,713434.0,7131,WL,B,2.0
6,2.683000087738037,distr,57316.99991226196,Wed Apr 16 2025 18:23:02 GMT-0500 (Central Daylight Time),714051.0999999642,B,oc,O,c,180,1,617.0999999642372,713434.0,7131,WL,B,2.0
6,3.0329999923706055,distr,56967.000007629395,Wed Apr 16 2025 18:23:02 GMT-0500 (Central Daylight Time),714400.8000000119,B,oce,O,e,312,1,966.8000000119209,713434.0,7131,WL,B,2.0
6,3.2330000400543213,distr,56766.99995994568,Wed Apr 16 2025 18:23:02 GMT-0500 (Central Daylight Time),714601.1999999881,B,ocea,O,a,166,1,1167.199999988079,713434.0,7131,WL,B,2.0
6,3.4160001277923584,distr,56583.99987220764,Wed Apr 16 2025 18:23:02 GMT-0500 (Central Daylight Time),714784.1999999881,B,ocean,O,n,154,1,1350.199999988079,713434.0,7131,WL,B,2.0
6,4.232000112533569,distr,55767.99988746643,Wed Apr 16 2025 18:23:02 GMT-0500 (Central Daylight Time),715599.6999999881,B,oceanenter,O,enter,787,1,2165.699999988079,713434.0,7131,WL,B,2.0
6,7.281000137329102,distr,52718.9998626709,Wed Apr 16 2025 18:23:02 GMT-0500 (Central Daylight Time),718649.8000000119,B,b,O,b,3031,1,3049.800000011921,715600.0,7131,WL,B,3.0
6,7.515000104904175,distr,52484.999895095825,Wed Apr 16 2025 18:23:02 GMT-0500 (Central Daylight Time),718882.8999999762,B,ba,O,a,201,1,3282.899999976158,715600.0,7131,WL,B,3.0
6,7.814000129699707,distr,52185.99987030029,Wed Apr 16 2025 18:23:02 GMT-0500 (Central Daylight Time),719182.3999999762,B,bar,O,r,273,1,3582.399999976158,715600.0,7131,WL,B,3.0
6,8.96500015258789,distr,51034.99984741211,Wed Apr 16 2025 18:23:02 GMT-0500 (Central Daylight Time),720331.5,B,barenter,O,enter,1115,1,4731.5,715600.0,7131,WL,B,3.0
6,9.266000032424927,distr,50733.99996757507,Wed Apr 16 2025 18:23:02 GMT-0500 (Central Daylight Time),720632.3000000119,B,d,O,d,283,1,300.7000000476837,720331.5999999642,7131,WL,B,4.0
6,9.483000040054321,distr,50516.99995994568,Wed Apr 16 2025 18:23:02 GMT-0500 (Central Daylight Time),720848.8999999762,B,dr,O,r,178,1,517.3000000119209,720331.5999999642,7131,WL,B,4.0
6,9.549000024795532,distr,50450.99997520447,Wed Apr 16 2025 18:23:02 GMT-0500 (Central Daylight Time),720914.8000000119,B,dre,O,e,27,1,583.2000000476837,720331.5999999642,7131,WL,B,4.0
6,9.848999977111816,distr,50151.00002288818,Wed Apr 16 2025 18:23:02 GMT-0500 (Central Daylight Time),721215.5999999642,B,dres,O,s,279,1,884.0,720331.5999999642,7131,WL,B,4.0
6,10.016000032424927,distr,49983.99996757507,Wed Apr 16 2025 18:23:02 GMT-0500 (Central Daylight Time),721382.3000000119,B,dress,O,s,135,1,1050.7000000476837,720331.5999999642,7131,WL,B,4.0
6,10.282000064849854,distr,49717.99993515015,Wed Apr 16 2025 18:23:02 GMT-0500 (Central Daylight Time),721647.5999999642,B,dressenter,O,enter,236,1,1316.0,720331.5999999642,7131,WL,B,4.0
6,11.065999984741211,distr,48934.00001525879,Wed Apr 16 2025 18:23:02 GMT-0500 (Central Daylight Time),722432.0999999642,B,b,O,b,767,1,784.1999999880791,721647.8999999762,7131,WL,B,5.0
6,11.315999984741211,distr,48684.00001525879,Wed Apr 16 2025 18:23:02 GMT-0500 (Central Daylight Time),722681.8999999762,B,ba,O,a,211,1,1034.0,721647.8999999762,7131,WL,B,5.0
6,11.582000017166138,distr,48417.99998283386,Wed Apr 16 2025 18:23:02 GMT-0500 (Central Daylight Time),722948.3000000119,B,bar,O,r,230,1,1300.4000000357628,721647.8999999762,7131,WL,B,5.0
6,12.496999979019165,distr,47503.000020980835,Wed Apr 16 2025 18:23:02 GMT-0500 (Central Daylight Time),723863.5999999642,B,barenter,O,enter,888,1,2215.699999988079,721647.8999999762,7131,WL,B,5.0
6,13.04800009727478,distr,46951.99990272522,Wed Apr 16 2025 18:23:02 GMT-0500 (Central Daylight Time),724414.3000000119,B,c,O,c,535,1,550.4000000357628,723863.8999999762,7131,WL,B,6.0
6,13.365000009536743,distr,46634.99999046326,Wed Apr 16 2025 18:23:02 GMT-0500 (Central Daylight Time),724731.0999999642,B,co,O,o,278,1,867.1999999880791,723863.8999999762,7131,WL,B,6.0
6,13.565000057220459,distr,46434.99994277954,Wed Apr 16 2025 18:23:02 GMT-0500 (Central Daylight Time),724930.8999999762,B,coi,O,i,169,1,1067.0,723863.8999999762,7131,WL,B,6.0
6,13.680999994277954,distr,46319.000005722046,Wed Apr 16 2025 18:23:02 GMT-0500 (Central Daylight Time),725047.1999999881,B,coin,O,n,82,1,1183.300000011921,723863.8999999762,7131,WL,B,6.0
6,14.547000169754028,distr,45452.99983024597,Wed Apr 16 2025 18:23:02 GMT-0500 (Central Daylight Time),725912.8999999762,B,coinenter,O,enter,827,1,2049.0,723863.8999999762,7131,WL,B,6.0
6,15.265000104904175,distr,44734.999895095825,Wed Apr 16 2025 18:23:02 GMT-0500 (Central Daylight Time),726630.8000000119,B,r,O,r,702,1,717.6000000238419,725913.1999999881,7131,WL,B,7.0
6,15.414000034332275,distr,44585.999965667725,Wed Apr 16 2025 18:23:02 GMT-0500 (Central Daylight Time),726780.3999999762,B,ro,O,o,115,1,867.1999999880791,725913.1999999881,7131,WL,B,7.0
6,15.598000049591064,distr,44401.999950408936,Wed Apr 16 2025 18:23:02 GMT-0500 (Central Daylight Time),726963.8000000119,B,roc,O,c,142,1,1050.6000000238419,725913.1999999881,7131,WL,B,7.0
6,15.680000066757202,distr,44319.9999332428,Wed Apr 16 2025 18:23:02 GMT-0500 (Central Daylight Time),727045.8999999762,B,rock,O,k,54,1,1132.699999988079,725913.1999999881,7131,WL,B,7.0
6,16.42900013923645,distr,43570.99986076355,Wed Apr 16 2025 18:23:02 GMT-0500 (Central Daylight Time),727795.5999999642,B,rockenter,O,enter,725,1,1882.3999999761581,725913.1999999881,7131,WL,B,7.0
6,16.980000019073486,distr,43019.999980926514,Wed Apr 16 2025 18:23:02 GMT-0500 (Central Daylight Time),728346.3999999762,B,a,O,a,539,1,550.5999999642372,727795.8000000119,7131,WL,B,8.0
6,17.27999997138977,distr,42720.00002861023,Wed Apr 16 2025 18:23:02 GMT-0500 (Central Daylight Time),728645.8999999762,B,ar,O,r,274,1,850.0999999642372,727795.8000000119,7131,WL,B,8.0
6,17.463000059127808,distr,42536.99994087219,Wed Apr 16 2025 18:23:02 GMT-0500 (Central Daylight Time),728829.5999999642,B,arm,O,m,150,1,1033.7999999523163,727795.8000000119,7131,WL,B,8.0
6,17.813000202178955,distr,42186.999797821045,Wed Apr 16 2025 18:23:02 GMT-0500 (Central Daylight Time),729179.3999999762,B,army,O,y,311,1,1383.5999999642372,727795.8000000119,7131,WL,B,8.0
6,18.729000091552734,distr,41270.999908447266,Wed Apr 16 2025 18:23:02 GMT-0500 (Central Daylight Time),730094.8999999762,B,armyenter,O,enter,880,1,2299.099999964237,727795.8000000119,7131,WL,B,8.0
6,19.894999980926514,distr,40105.000019073486,Wed Apr 16 2025 18:23:02 GMT-0500 (Central Daylight Time),731261.1999999881,B,f,O,f,1150,1,1166.1000000238419,730095.0999999642,7131,WL,B,9.0
6,20.111999988555908,distr,39888.00001144409,Wed Apr 16 2025 18:23:02 GMT-0500 (Central Daylight Time),731478.6999999881,B,fr,O,r,201,1,1383.6000000238419,730095.0999999642,7131,WL,B,9.0
6,20.880000114440918,distr,39119.99988555908,Wed Apr 16 2025 18:23:02 GMT-0500 (Central Daylight Time),732246.0999999642,B,fri,O,i,740,1,2151.0,730095.0999999642,7131,WL,B,9.0
6,21.01200008392334,distr,38987.99991607666,Wed Apr 16 2025 18:23:02 GMT-0500 (Central Daylight Time),732378.5999999642,B,frie,O,e,93,1,2283.5,730095.0999999642,7131,WL,B,9.0
6,21.212000131607056,distr,38787.999868392944,Wed Apr 16 2025 18:23:02 GMT-0500 (Central Daylight Time),732578.3000000119,B,frien,O,n,159,1,2483.2000000476837,730095.0999999642,7131,WL,B,9.0
6,21.361999988555908,distr,38638.00001144409,Wed Apr 16 2025 18:23:02 GMT-0500 (Central Daylight Time),732728.1999999881,B,friend,O,d,115,1,2633.100000023842,730095.0999999642,7131,WL,B,9.0
6,23.710000038146973,distr,36289.99996185303,Wed Apr 16 2025 18:23:02 GMT-0500 (Central Daylight Time),735076.5999999642,B,friendenter,O,enter,2324,1,4981.5,730095.0999999642,7131,WL,B,9.0
6,31.192000150680542,distr,28807.999849319458,Wed Apr 16 2025 18:23:02 GMT-0500 (Central Daylight Time),742558.5999999642,B,s,O,s,7466,1,7481.799999952316,735076.8000000119,7131,WL,B,10.0
6,31.742000102996826,distr,28257.999897003174,Wed Apr 16 2025 18:23:02 GMT-0500 (Central Daylight Time),743108.3000000119,B,st,O,t,517,1,8031.5,735076.8000000119,7131,WL,B,10.0
6,31.85800004005432,distr,28141.99995994568,Wed Apr 16 2025 18:23:02 GMT-0500 (Central Daylight Time),743224.3000000119,B,sto,O,o,89,1,8147.5,735076.8000000119,7131,WL,B,10.0
6,32.407999992370605,distr,27592.000007629395,Wed Apr 16 2025 18:23:02 GMT-0500 (Central Daylight Time),743774.3999999762,B,stor,O,r,528,1,8697.599999964237,735076.8000000119,7131,WL,B,10.0
6,32.57599997520447,distr,27424.000024795532,Wed Apr 16 2025 18:23:02 GMT-0500 (Central Daylight Time),743942.0999999642,B,storm,O,m,146,1,8865.299999952316,735076.8000000119,7131,WL,B,10.0
6,33.09100008010864,distr,26908.999919891357,Wed Apr 16 2025 18:23:02 GMT-0500 (Central Daylight Time),744456.8999999762,B,stormenter,O,enter,476,1,9380.099999964237,735076.8000000119,7131,WL,B,10.0
6,55.401000022888184,distr,4598.999977111816,Wed Apr 16 2025 18:23:02 GMT-0500 (Central Daylight Time),766767.0,B,l,O,l,22302,1,22309.69999998808,744457.3000000119,7131,WL,B,11.0
6,55.66700005531311,distr,4332.99994468689,Wed Apr 16 2025 18:23:02 GMT-0500 (Central Daylight Time),767033.5999999642,B,li,O,i,228,1,22576.299999952316,744457.3000000119,7131,WL,B,11.0
6,55.8510000705719,distr,4148.999929428101,Wed Apr 16 2025 18:23:02 GMT-0500 (Central Daylight Time),767217.3999999762,B,lip,O,p,146,1,22760.099999964237,744457.3000000119,7131,WL,B,11.0
6,56.051000118255615,distr,3948.9998817443848,Wed Apr 16 2025 18:23:02 GMT-0500 (Central Daylight Time),767417.0,B,lips,O,s,169,1,22959.69999998808,744457.3000000119,7131,WL,B,11.0
6,56.58300018310547,distr,3416.9998168945312,Wed Apr 16 2025 18:23:02 GMT-0500 (Central Daylight Time),767949.1999999881,B,lipsenter,O,enter,504,1,23491.899999976158,744457.3000000119,7131,WL,B,11.0
6,60.01600003242493,distr,-16.000032424926758,Wed Apr 16 2025 18:23:02 GMT-0500 (Central Daylight Time),771382.3000000119,B,None,O,None,3427,1,3432.900000035763,767949.3999999762,7131,WL,B,12.0
7,2.5810000896453857,immed,57418.999910354614,Wed Apr 16 2025 18:23:02 GMT-0500 (Central Daylight Time),788876.5999999642,A,s,O,s,2542,1,2581.2999999523163,786295.3000000119,7131,WL,B,1.0
7,2.930999994277954,immed,57069.000005722046,Wed Apr 16 2025 18:23:02 GMT-0500 (Central Daylight Time),789226.5999999642,A,st,O,t,309,1,2931.2999999523163,786295.3000000119,7131,WL,B,1.0
7,3.180999994277954,immed,56819.000005722046,Wed Apr 16 2025 18:23:02 GMT-0500 (Central Daylight Time),789476.6999999881,A,str,O,r,208,1,3181.399999976158,786295.3000000119,7131,WL,B,1.0
7,3.3980000019073486,immed,56601.99999809265,Wed Apr 16 2025 18:23:02 GMT-0500 (Central Daylight Time),789693.3000000119,A,stre,O,e,183,1,3398.0,786295.3000000119,7131,WL,B,1.0
7,3.564000129699707,immed,56435.99987030029,Wed Apr 16 2025 18:23:02 GMT-0500 (Central Daylight Time),789859.3000000119,A,stree,O,e,125,1,3564.0,786295.3000000119,7131,WL,B,1.0
7,3.8310000896453857,immed,56168.999910354614,Wed Apr 16 2025 18:23:02 GMT-0500 (Central Daylight Time),790126.1999999881,A,street,O,t,240,1,3830.899999976158,786295.3000000119,7131,WL,B,1.0
7,4.463000059127808,immed,55536.99994087219,Wed Apr 16 2025 18:23:02 GMT-0500 (Central Daylight Time),790758.3000000119,A,streetenter,O,enter,602,1,4463.0,786295.3000000119,7131,WL,B,1.0
7,4.764000177383423,immed,55235.99982261658,Wed Apr 16 2025 18:23:02 GMT-0500 (Central Daylight Time),791059.3000000119,A,g,O,g,281,1,300.7000000476837,790758.5999999642,7131,WL,B,2.0
7,4.863000154495239,immed,55136.99984550476,Wed Apr 16 2025 18:23:02 GMT-0500 (Central Daylight Time),791158.3000000119,A,gr,O,r,63,1,399.7000000476837,790758.5999999642,7131,WL,B,2.0
7,5.21399998664856,immed,54786.00001335144,Wed Apr 16 2025 18:23:02 GMT-0500 (Central Daylight Time),791509.1999999881,A,gra,O,a,321,1,750.6000000238419,790758.5999999642,7131,WL,B,2.0
7,5.580000162124634,immed,54419.999837875366,Wed Apr 16 2025 18:23:02 GMT-0500 (Central Daylight Time),791875.5999999642,A,gras,O,s,326,1,1117.0,790758.5999999642,7131,WL,B,2.0
7,5.731000185012817,immed,54268.99981498718,Wed Apr 16 2025 18:23:02 GMT-0500 (Central Daylight Time),792026.0,A,grass,O,s,118,1,1267.4000000357628,790758.5999999642,7131,WL,B,2.0
7,6.746000051498413,immed,53253.99994850159,Wed Apr 16 2025 18:23:02 GMT-0500 (Central Daylight Time),793040.8999999762,A,grassenter,O,enter,984,1,2282.300000011921,790758.5999999642,7131,WL,B,2.0
7,7.230000019073486,immed,52769.999980926514,Wed Apr 16 2025 18:23:02 GMT-0500 (Central Daylight Time),793525.3000000119,A,a,O,a,470,1,484.10000002384186,793041.1999999881,7131,WL,B,3.0
7,7.611999988555908,immed,52388.00001144409,Wed Apr 16 2025 18:23:02 GMT-0500 (Central Daylight Time),793907.1999999881,A,ar,O,r,349,1,866.0,793041.1999999881,7131,WL,B,3.0
7,7.812000036239624,immed,52187.999963760376,Wed Apr 16 2025 18:23:02 GMT-0500 (Central Daylight Time),794107.0,A,arm,O,m,184,1,1065.800000011921,793041.1999999881,7131,WL,B,3.0
7,8.361999988555908,immed,51638.00001144409,Wed Apr 16 2025 18:23:02 GMT-0500 (Central Daylight Time),794657.0999999642,A,armenter,O,enter,538,1,1615.8999999761581,793041.1999999881,7131,WL,B,3.0
7,9.496000051498413,immed,50503.99994850159,Wed Apr 16 2025 18:23:02 GMT-0500 (Central Daylight Time),795791.0999999642,A,,O,backspace,1118,1,1133.699999988079,794657.3999999762,7131,WL,B,4.0
7,9.712000131607056,immed,50287.999868392944,Wed Apr 16 2025 18:23:02 GMT-0500 (Central Daylight Time),796006.8999999762,A,d,O,d,191,1,1349.5,794657.3999999762,7131,WL,B,4.0
7,9.962000131607056,immed,50037.999868392944,Wed Apr 16 2025 18:23:02 GMT-0500 (Central Daylight Time),796257.3999999762,A,do,O,o,226,1,1600.0,794657.3999999762,7131,WL,B,4.0
7,10.111999988555908,immed,49888.00001144409,Wed Apr 16 2025 18:23:02 GMT-0500 (Central Daylight Time),796407.6999999881,A,doo,O,o,115,1,1750.300000011921,794657.3999999762,7131,WL,B,4.0
7,10.296000003814697,immed,49703.9999961853,Wed Apr 16 2025 18:23:02 GMT-0500 (Central Daylight Time),796590.6999999881,A,door,O,r,147,1,1933.300000011921,794657.3999999762,7131,WL,B,4.0
7,10.695000171661377,immed,49304.99982833862,Wed Apr 16 2025 18:23:02 GMT-0500 (Central Daylight Time),796989.5999999642,A,doorenter,O,enter,372,1,2332.199999988079,794657.3999999762,7131,WL,B,4.0
7,10.92900013923645,immed,49070.99986076355,Wed Apr 16 2025 18:23:02 GMT-0500 (Central Daylight Time),797224.0,A,s,O,s,217,1,234.19999998807907,796989.8000000119,7131,WL,B,5.0
7,11.17900013923645,immed,48820.99986076355,Wed Apr 16 2025 18:23:02 GMT-0500 (Central Daylight Time),797473.8999999762,A,st,O,t,212,1,484.0999999642372,796989.8000000119,7131,WL,B,5.0
7,11.394999980926514,immed,48605.000019073486,Wed Apr 16 2025 18:23:02 GMT-0500 (Central Daylight Time),797690.3999999762,A,sta,O,a,181,1,700.5999999642372,796989.8000000119,7131,WL,B,5.0
7,11.662000179290771,immed,48337.99982070923,Wed Apr 16 2025 18:23:02 GMT-0500 (Central Daylight Time),797957.0,A,star,O,r,226,1,967.1999999880791,796989.8000000119,7131,WL,B,5.0
7,14.09500002861023,immed,45904.99997138977,Wed Apr 16 2025 18:23:02 GMT-0500 (Central Daylight Time),800389.8000000119,A,starenter,O,enter,2398,1,3400.0,796989.8000000119,7131,WL,B,5.0
7,16.22699999809265,immed,43773.00000190735,Wed Apr 16 2025 18:23:02 GMT-0500 (Central Daylight Time),802522.0999999642,A,w,O,w,2121,1,2132.099999964237,800390.0,7131,WL,B,6.0
7,16.305999994277954,immed,43694.000005722046,Wed Apr 16 2025 18:23:02 GMT-0500 (Central Daylight Time),802601.5999999642,A,wi,O,i,41,1,2211.599999964237,800390.0,7131,WL,B,6.0
7,16.37600016593933,immed,43623.99983406067,Wed Apr 16 2025 18:23:02 GMT-0500 (Central Daylight Time),802671.5,A,win,O,n,44,1,2281.5,800390.0,7131,WL,B,6.0
7,16.710000038146973,immed,43289.99996185303,Wed Apr 16 2025 18:23:02 GMT-0500 (Central Daylight Time),803005.3000000119,A,wind,O,d,311,1,2615.300000011921,800390.0,7131,WL,B,6.0
7,16.843000173568726,immed,43156.999826431274,Wed Apr 16 2025 18:23:02 GMT-0500 (Central Daylight Time),803138.5999999642,A,windo,O,o,92,1,2748.599999964237,800390.0,7131,WL,B,6.0
7,17.009999990463257,immed,42990.00000953674,Wed Apr 16 2025 18:23:02 GMT-0500 (Central Daylight Time),803305.3999999762,A,window,O,w,130,1,2915.399999976158,800390.0,7131,WL,B,6.0
7,17.20900011062622,immed,42790.99988937378,Wed Apr 16 2025 18:23:02 GMT-0500 (Central Daylight Time),803504.0999999642,A,windowenter,O,enter,161,1,3114.099999964237,800390.0,7131,WL,B,6.0
7,17.575999975204468,immed,42424.00002479553,Wed Apr 16 2025 18:23:02 GMT-0500 (Central Daylight Time),803871.3999999762,A,p,O,p,359,1,366.89999997615814,803504.5,7131,WL,B,7.0
7,17.792999982833862,immed,42207.00001716614,Wed Apr 16 2025 18:23:02 GMT-0500 (Central Daylight Time),804088.5,A,pu,O,u,180,1,584.0,803504.5,7131,WL,B,7.0
7,18.16000008583069,immed,41839.99991416931,Wed Apr 16 2025 18:23:02 GMT-0500 (Central Daylight Time),804454.8000000119,A,pup,O,p,331,1,950.3000000119209,803504.5,7131,WL,B,7.0
7,18.360000133514404,immed,41639.999866485596,Wed Apr 16 2025 18:23:02 GMT-0500 (Central Daylight Time),804654.6999999881,A,pupi,O,i,166,1,1150.199999988079,803504.5,7131,WL,B,7.0
7,18.593000173568726,immed,41406.999826431274,Wed Apr 16 2025 18:23:02 GMT-0500 (Central Daylight Time),804888.0999999642,A,pupil,O,l,206,1,1383.5999999642372,803504.5,7131,WL,B,7.0
7,21.325000047683716,immed,38674.999952316284,Wed Apr 16 2025 18:23:02 GMT-0500 (Central Daylight Time),807620.5,A,pupilenter,O,enter,2691,1,4116.0,803504.5,7131,WL,B,7.0
7,21.609000205993652,immed,38390.99979400635,Wed Apr 16 2025 18:23:02 GMT-0500 (Central Daylight Time),807903.8000000119,A,s,O,s,267,1,283.0,807620.8000000119,7131,WL,B,8.0
7,21.841000080108643,immed,38158.99991989136,Wed Apr 16 2025 18:23:02 GMT-0500 (Central Daylight Time),808136.5,A,st,O,t,204,1,515.6999999880791,807620.8000000119,7131,WL,B,8.0
7,22.02500009536743,immed,37974.99990463257,Wed Apr 16 2025 18:23:02 GMT-0500 (Central Daylight Time),808319.5999999642,A,sta,O,a,154,1,698.7999999523163,807620.8000000119,7131,WL,B,8.0
7,22.29100012779236,immed,37708.99987220764,Wed Apr 16 2025 18:23:02 GMT-0500 (Central Daylight Time),808586.5,A,star,O,r,246,1,965.6999999880791,807620.8000000119,7131,WL,B,8.0
7,22.557000160217285,immed,37442.999839782715,Wed Apr 16 2025 18:23:02 GMT-0500 (Central Daylight Time),808852.5,A,starenter,O,enter,231,1,1231.699999988079,807620.8000000119,7131,WL,B,8.0
7,23.575000047683716,immed,36424.999952316284,Wed Apr 16 2025 18:23:02 GMT-0500 (Central Daylight Time),809869.6999999881,A,c,O,c,1002,1,1017.0,808852.6999999881,7131,WL,B,9.0
7,23.758000135421753,immed,36241.99986457825,Wed Apr 16 2025 18:23:02 GMT-0500 (Central Daylight Time),810053.0,A,ci,O,i,148,1,1200.300000011921,808852.6999999881,7131,WL,B,9.0
7,23.924000024795532,immed,36075.99997520447,Wed Apr 16 2025 18:23:02 GMT-0500 (Central Daylight Time),810218.8000000119,A,cit,O,t,133,1,1366.1000000238419,808852.6999999881,7131,WL,B,9.0
7,24.007000207901,immed,35992.999792099,Wed Apr 16 2025 18:23:02 GMT-0500 (Central Daylight Time),810301.8000000119,A,city,O,y,66,1,1449.1000000238419,808852.6999999881,7131,WL,B,9.0
7,24.290000200271606,immed,35709.99979972839,Wed Apr 16 2025 18:23:02 GMT-0500 (Central Daylight Time),810585.0,A,cityenter,O,enter,263,1,1732.300000011921,808852.6999999881,7131,WL,B,9.0
7,24.54100012779236,immed,35458.99987220764,Wed Apr 16 2025 18:23:02 GMT-0500 (Central Daylight Time),810836.0999999642,A,w,O,w,238,1,250.69999998807907,810585.3999999762,7131,WL,B,10.0
7,24.741000175476074,immed,35258.999824523926,Wed Apr 16 2025 18:23:02 GMT-0500 (Central Daylight Time),811035.8000000119,A,wo,O,o,168,1,450.4000000357628,810585.3999999762,7131,WL,B,10.0
7,24.807000160217285,immed,35192.999839782715,Wed Apr 16 2025 18:23:02 GMT-0500 (Central Daylight Time),811101.8000000119,A,won,O,n,44,1,516.4000000357628,810585.3999999762,7131,WL,B,10.0
7,24.991000175476074,immed,35008.999824523926,Wed Apr 16 2025 18:23:02 GMT-0500 (Central Daylight Time),811286.0,A,wond,O,d,174,1,700.6000000238419,810585.3999999762,7131,WL,B,10.0
7,25.257000207901,immed,34742.999792099,Wed Apr 16 2025 18:23:02 GMT-0500 (Central Daylight Time),811552.6999999881,A,wondo,O,o,238,1,967.3000000119209,810585.3999999762,7131,WL,B,10.0
7,25.44099998474121,immed,34559.00001525879,Wed Apr 16 2025 18:23:02 GMT-0500 (Central Daylight Time),811735.8000000119,A,wondow,O,w,152,1,1150.4000000357628,810585.3999999762,7131,WL,B,10.0
7,26.007000207901,immed,33992.999792099,Wed Apr 16 2025 18:23:02 GMT-0500 (Central Daylight Time),812302.3000000119,A,wondo,O,backspace,538,1,1716.9000000357628,810585.3999999762,7131,WL,B,10.0
7,26.174000024795532,immed,33825.99997520447,Wed Apr 16 2025 18:23:02 GMT-0500 (Central Daylight Time),812468.8999999762,A,wond,O,backspace,133,1,1883.5,810585.3999999762,7131,WL,B,10.0
7,26.33899998664856,immed,33661.00001335144,Wed Apr 16 2025 18:23:02 GMT-0500 (Central Daylight Time),812634.3999999762,A,won,O,backspace,125,1,2049.0,810585.3999999762,7131,WL,B,10.0
