Number,acc_sum,block,block_c,block_cond,con_img,correct,correct_response,datetime,endtime,jitter,project,response,response_time,row_sel,session_number,start_end,starttime,subject_id,task,task_vers,trial
7,1,prac,1,A,circle.png,1,m,Mon Oct 28 2024 14:57:38 GMT-0400 (Eastern Daylight Time),88956.19999980927,1700,I,m,866,6,1,3355.5,85600.69999980927,9004,NTS,B,1
6,2,prac,1,A,circle.png,1,m,Mon Oct 28 2024 14:57:38 GMT-0400 (Eastern Daylight Time),92372.59999990463,1900,I,m,722,5,1,3403.4000000953674,88969.19999980927,9004,NTS,B,2
6,3,prac,1,A,circle.png,1,m,Mon Oct 28 2024 14:57:38 GMT-0400 (Eastern Daylight Time),95672.39999961853,1900,I,m,604,5,1,3288.699999809265,92383.69999980927,9004,NTS,B,3
2,4,prac,1,A,circle.png,1,z,Mon Oct 28 2024 14:57:38 GMT-0400 (Eastern Daylight Time),98972.5,2000,I,z,499,2,1,3287.7000002861023,95684.7999997139,9004,NTS,B,4
3,5,prac,1,A,circle.png,1,z,Mon Oct 28 2024 14:57:38 GMT-0400 (Eastern Daylight Time),101639.19999980927,1200,I,z,670,3,1,2654.5999999046326,98984.59999990463,9004,NTS,B,5
4,6,prac,1,A,circle.png,1,z,Mon Oct 28 2024 14:57:38 GMT-0400 (Eastern Daylight Time),104472.5,1400,I,z,637,4,1,2822.300000190735,101650.19999980927,9004,NTS,B,6
9,7,prac,1,A,circle.png,1,m,Mon Oct 28 2024 14:57:38 GMT-0400 (Eastern Daylight Time),107389.09999990463,1500,I,m,632,8,1,2905.300000190735,104483.7999997139,9004,NTS,B,7
8,8,prac,1,A,circle.png,1,m,Mon Oct 28 2024 14:57:38 GMT-0400 (Eastern Daylight Time),110522.39999961853,1600,I,m,735,7,1,3122.699999809265,107399.69999980927,9004,NTS,B,8
8,9,prac,1,A,circle.png,1,m,Mon Oct 28 2024 14:57:38 GMT-0400 (Eastern Daylight Time),113522.39999961853,1600,I,m,610,7,1,2989.199999809265,110533.19999980927,9004,NTS,B,9
3,10,prac,1,A,circle.png,1,z,Mon Oct 28 2024 14:57:38 GMT-0400 (Eastern Daylight Time),116172.5,1200,I,z,650,3,1,2638.0,113534.5,9004,NTS,B,10
1,11,prac,1,A,circle.png,1,z,Mon Oct 28 2024 14:57:38 GMT-0400 (Eastern Daylight Time),118572.59999990463,1000,I,z,600,1,1,2388.9000000953674,116183.69999980927,9004,NTS,B,11
9,12,prac,1,A,circle.png,1,m,Mon Oct 28 2024 14:57:38 GMT-0400 (Eastern Daylight Time),121505.7999997139,1500,I,m,645,8,1,2922.199999809265,118583.59999990463,9004,NTS,B,12
4,1,prac,1,B,triangle.png,1,m,Mon Oct 28 2024 14:57:38 GMT-0400 (Eastern Daylight Time),157505.89999961853,1500,I,m,1277,4,1,3556.5999999046326,153949.2999997139,9004,NTS,B,1
6,2,prac,1,B,triangle.png,1,m,Mon Oct 28 2024 14:57:38 GMT-0400 (Eastern Daylight Time),160338.7999997139,1000,I,m,1043,5,1,2822.5,157516.2999997139,9004,NTS,B,2
6,3,prac,1,B,triangle.png,1,m,Mon Oct 28 2024 14:57:38 GMT-0400 (Eastern Daylight Time),162789.19999980927,1000,I,m,658,5,1,2437.4000000953674,160351.7999997139,9004,NTS,B,3
2,4,prac,1,B,triangle.png,1,m,Mon Oct 28 2024 14:57:38 GMT-0400 (Eastern Daylight Time),166189.09999990463,1700,I,m,915,2,1,3390.0999999046326,162799.0,9004,NTS,B,4
9,5,prac,1,B,triangle.png,1,z,Mon Oct 28 2024 14:57:38 GMT-0400 (Eastern Daylight Time),169222.5,1400,I,z,840,8,1,3022.2000002861023,166200.2999997139,9004,NTS,B,5
3,6,prac,1,B,triangle.png,1,z,Mon Oct 28 2024 14:57:38 GMT-0400 (Eastern Daylight Time),172239.09999990463,1600,I,z,630,3,1,3003.800000190735,169235.2999997139,9004,NTS,B,6
2,7,prac,1,B,triangle.png,1,m,Mon Oct 28 2024 14:57:38 GMT-0400 (Eastern Daylight Time),175622.19999980927,1700,I,m,889,2,1,3373.0999999046326,172249.09999990463,9004,NTS,B,7
8,8,prac,1,B,triangle.png,1,m,Mon Oct 28 2024 14:57:38 GMT-0400 (Eastern Daylight Time),178522.5,1200,I,m,902,7,1,2889.800000190735,175632.69999980927,9004,NTS,B,8
7,9,prac,1,B,triangle.png,1,z,Mon Oct 28 2024 14:57:38 GMT-0400 (Eastern Daylight Time),182172.59999990463,2000,I,z,850,6,1,3639.9000000953674,178532.69999980927,9004,NTS,B,9
9,10,prac,1,B,triangle.png,1,z,Mon Oct 28 2024 14:57:38 GMT-0400 (Eastern Daylight Time),185255.59999990463,1400,I,z,888,8,1,3070.4000000953674,182185.19999980927,9004,NTS,B,10
1,11,prac,1,B,triangle.png,1,z,Mon Oct 28 2024 14:57:38 GMT-0400 (Eastern Daylight Time),188722.59999990463,1900,I,z,776,1,1,3455.9000000953674,185266.69999980927,9004,NTS,B,11
4,12,prac,1,B,triangle.png,1,m,Mon Oct 28 2024 14:57:38 GMT-0400 (Eastern Daylight Time),192139.19999980927,1500,I,m,1118,4,1,3406.4000000953674,188732.7999997139,9004,NTS,B,12
6,1,test,1,A,circle.png,1,m,Mon Oct 28 2024 14:57:38 GMT-0400 (Eastern Daylight Time),221972.69999980927,1900,I,m,475,5,1,2389.5999999046326,219583.09999990463,9004,NTS,B,1
3,2,test,1,A,circle.png,1,z,Mon Oct 28 2024 14:57:38 GMT-0400 (Eastern Daylight Time),223872.59999990463,1200,I,z,679,3,1,1891.2000002861023,221981.39999961853,9004,NTS,B,2
1,3,test,1,A,circle.png,1,z,Mon Oct 28 2024 14:57:38 GMT-0400 (Eastern Daylight Time),225455.59999990463,1000,I,z,564,1,1,1574.2000002861023,223881.39999961853,9004,NTS,B,3
2,4,test,1,A,circle.png,1,z,Mon Oct 28 2024 14:57:38 GMT-0400 (Eastern Daylight Time),228122.39999961853,2000,I,z,636,2,1,2658.5999999046326,225463.7999997139,9004,NTS,B,4
1,5,test,1,A,circle.png,1,z,Mon Oct 28 2024 14:57:38 GMT-0400 (Eastern Daylight Time),229721.7999997139,1000,I,z,569,1,1,1591.0,228130.7999997139,9004,NTS,B,5
7,6,test,1,A,circle.png,1,m,Mon Oct 28 2024 14:57:38 GMT-0400 (Eastern Daylight Time),232105.7999997139,1700,I,m,652,6,1,2378.4000000953674,229727.39999961853,9004,NTS,B,6
8,7,test,1,A,circle.png,1,m,Mon Oct 28 2024 14:57:38 GMT-0400 (Eastern Daylight Time),234272.39999961853,1600,I,m,546,7,1,2158.7999997138977,232113.59999990463,9004,NTS,B,7
3,8,test,1,A,circle.png,1,z,Mon Oct 28 2024 14:57:38 GMT-0400 (Eastern Daylight Time),236072.5,1200,I,z,570,3,1,1791.6000003814697,234280.89999961853,9004,NTS,B,8
9,9,test,1,A,circle.png,1,m,Mon Oct 28 2024 14:57:38 GMT-0400 (Eastern Daylight Time),238205.69999980927,1500,I,m,600,8,1,2125.5999999046326,236080.09999990463,9004,NTS,B,9
9,10,test,1,A,circle.png,1,m,Mon Oct 28 2024 14:57:38 GMT-0400 (Eastern Daylight Time),240355.69999980927,1500,I,m,625,8,1,2141.9000000953674,238213.7999997139,9004,NTS,B,10
4,11,test,1,A,circle.png,1,z,Mon Oct 28 2024 14:57:38 GMT-0400 (Eastern Daylight Time),242589.0,1400,I,z,800,4,1,2223.6000003814697,240365.39999961853,9004,NTS,B,11
2,12,test,1,A,circle.png,1,z,Mon Oct 28 2024 14:57:38 GMT-0400 (Eastern Daylight Time),245322.59999990463,2000,I,z,704,2,1,2725.300000190735,242597.2999997139,9004,NTS,B,12
1,13,test,1,A,circle.png,1,z,Mon Oct 28 2024 14:57:38 GMT-0400 (Eastern Daylight Time),247005.89999961853,1000,I,z,650,1,1,1674.3999996185303,245331.5,9004,NTS,B,13
7,14,test,1,A,circle.png,1,m,Mon Oct 28 2024 14:57:38 GMT-0400 (Eastern Daylight Time),249705.7999997139,1700,I,m,970,6,1,2691.4000000953674,247014.39999961853,9004,NTS,B,14
8,15,test,1,A,circle.png,1,m,Mon Oct 28 2024 14:57:38 GMT-0400 (Eastern Daylight Time),251889.19999980927,1600,I,m,562,7,1,2171.5999999046326,249717.59999990463,9004,NTS,B,15
2,16,test,1,A,circle.png,1,z,Mon Oct 28 2024 14:57:38 GMT-0400 (Eastern Daylight Time),254555.89999961853,2000,I,z,634,2,1,2657.5999999046326,251898.2999997139,9004,NTS,B,16
4,17,test,1,A,circle.png,1,z,Mon Oct 28 2024 14:57:38 GMT-0400 (Eastern Daylight Time),256872.59999990463,1400,I,z,888,4,1,2308.5,254564.09999990463,9004,NTS,B,17
3,18,test,1,A,circle.png,1,z,Mon Oct 28 2024 14:57:38 GMT-0400 (Eastern Daylight Time),258739.0,1200,I,z,644,3,1,1857.9000000953674,256881.09999990463,9004,NTS,B,18
9,19,test,1,A,circle.png,1,m,Mon Oct 28 2024 14:57:38 GMT-0400 (Eastern Daylight Time),260939.19999980927,1500,I,m,669,8,1,2192.300000190735,258746.89999961853,9004,NTS,B,19
6,20,test,1,A,circle.png,1,m,Mon Oct 28 2024 14:57:38 GMT-0400 (Eastern Daylight Time),264122.2999997139,1900,I,m,1252,5,1,3174.7999997138977,260947.5,9004,NTS,B,20
2,21,test,1,A,circle.png,1,z,Mon Oct 28 2024 14:57:38 GMT-0400 (Eastern Daylight Time),266822.39999961853,2000,I,z,673,2,1,2691.8999996185303,264130.5,9004,NTS,B,21
4,22,test,1,A,circle.png,1,z,Mon Oct 28 2024 14:57:38 GMT-0400 (Eastern Daylight Time),269005.7999997139,1400,I,z,748,4,1,2175.5999999046326,266830.19999980927,9004,NTS,B,22
6,23,test,1,A,circle.png,1,m,Mon Oct 28 2024 14:57:38 GMT-0400 (Eastern Daylight Time),271555.7999997139,1900,I,m,626,5,1,2541.7999997138977,269014.0,9004,NTS,B,23
7,24,test,1,A,circle.png,1,m,Mon Oct 28 2024 14:57:38 GMT-0400 (Eastern Daylight Time),273955.7999997139,1700,I,m,675,6,1,2391.5999999046326,271564.19999980927,9004,NTS,B,24
4,1,test,1,B,triangle.png,1,m,Mon Oct 28 2024 14:57:38 GMT-0400 (Eastern Daylight Time),288889.0,1500,I,m,555,4,1,2075.0,286814.0,9004,NTS,B,1
9,2,test,1,B,triangle.png,1,z,Mon Oct 28 2024 14:57:38 GMT-0400 (Eastern Daylight Time),290989.2999997139,1400,I,z,667,8,1,2091.699999809265,288897.59999990463,9004,NTS,B,2
9,2,test,1,B,triangle.png,0,z,Mon Oct 28 2024 14:57:38 GMT-0400 (Eastern Daylight Time),293539.19999980927,1900,I,m,627,16,1,2541.9000000953674,290997.2999997139,9004,NTS,B,3
4,3,test,1,B,triangle.png,1,m,Mon Oct 28 2024 14:57:38 GMT-0400 (Eastern Daylight Time),295572.39999961853,1000,I,m,1009,12,1,2024.0999999046326,293548.2999997139,9004,NTS,B,4
2,4,test,1,B,triangle.png,1,m,Mon Oct 28 2024 14:57:38 GMT-0400 (Eastern Daylight Time),298139.19999980927,1700,I,m,836,2,1,2558.9000000953674,295580.2999997139,9004,NTS,B,5
2,5,test,1,B,triangle.png,1,m,Mon Oct 28 2024 14:57:38 GMT-0400 (Eastern Daylight Time),300005.7999997139,1200,I,m,641,10,1,1858.7999997138977,298147.0,9004,NTS,B,6
2,6,test,1,B,triangle.png,1,m,Mon Oct 28 2024 14:57:38 GMT-0400 (Eastern Daylight Time),302505.89999961853,1700,I,m,771,2,1,2491.7999997138977,300014.09999990463,9004,NTS,B,7
6,7,test,1,B,triangle.png,1,m,Mon Oct 28 2024 14:57:38 GMT-0400 (Eastern Daylight Time),304522.39999961853,1000,I,m,987,5,1,2008.1999998092651,302514.19999980927,9004,NTS,B,8
6,8,test,1,B,triangle.png,1,m,Mon Oct 28 2024 14:57:38 GMT-0400 (Eastern Daylight Time),306638.89999961853,1500,I,m,598,13,1,2108.3999996185303,304530.5,9004,NTS,B,9
7,9,test,1,B,triangle.png,1,z,Mon Oct 28 2024 14:57:38 GMT-0400 (Eastern Daylight Time),309189.2999997139,2000,I,z,525,6,1,2541.199999809265,306648.09999990463,9004,NTS,B,10
3,10,test,1,B,triangle.png,1,z,Mon Oct 28 2024 14:57:38 GMT-0400 (Eastern Daylight Time),311772.7999997139,1600,I,z,951,3,1,2574.699999809265,309198.09999990463,9004,NTS,B,11
6,11,test,1,B,triangle.png,1,m,Mon Oct 28 2024 14:57:38 GMT-0400 (Eastern Daylight Time),313622.5,1000,I,m,824,5,1,1841.2000002861023,311781.2999997139,9004,NTS,B,12
8,12,test,1,B,triangle.png,1,m,Mon Oct 28 2024 14:57:38 GMT-0400 (Eastern Daylight Time),315739.09999990463,1200,I,m,886,7,1,2108.4000000953674,313630.69999980927,9004,NTS,B,13
7,12,test,1,B,triangle.png,0,z,Mon Oct 28 2024 14:57:38 GMT-0400 (Eastern Daylight Time),318872.7999997139,1600,I,None,1516,14,1,3125.699999809265,315747.09999990463,9004,NTS,B,14
9,12,test,1,B,triangle.png,0,z,Mon Oct 28 2024 14:57:38 GMT-0400 (Eastern Daylight Time),321872.5,1900,I,m,1080,16,1,2989.300000190735,318883.19999980927,9004,NTS,B,15
2,13,test,1,B,triangle.png,1,m,Mon Oct 28 2024 14:57:38 GMT-0400 (Eastern Daylight Time),323939.19999980927,1200,I,m,844,10,1,2056.4000000953674,321882.7999997139,9004,NTS,B,16
6,14,test,1,B,triangle.png,1,m,Mon Oct 28 2024 14:57:38 GMT-0400 (Eastern Daylight Time),326238.7999997139,1500,I,m,782,13,1,2291.699999809265,323947.09999990463,9004,NTS,B,17
8,15,test,1,B,triangle.png,1,m,Mon Oct 28 2024 14:57:38 GMT-0400 (Eastern Daylight Time),328622.59999990463,1700,I,m,665,15,1,2376.9000000953674,326245.69999980927,9004,NTS,B,18
3,16,test,1,B,triangle.png,1,z,Mon Oct 28 2024 14:57:38 GMT-0400 (Eastern Daylight Time),330955.89999961853,1600,I,z,702,3,1,2325.8999996185303,328630.0,9004,NTS,B,19
1,17,test,1,B,triangle.png,1,z,Mon Oct 28 2024 14:57:38 GMT-0400 (Eastern Daylight Time),332972.59999990463,1400,I,z,585,9,1,2008.5999999046326,330964.0,9004,NTS,B,20
1,18,test,1,B,triangle.png,1,z,Mon Oct 28 2024 14:57:38 GMT-0400 (Eastern Daylight Time),335505.89999961853,1900,I,z,612,1,1,2524.699999809265,332981.19999980927,9004,NTS,B,21
4,19,test,1,B,triangle.png,1,m,Mon Oct 28 2024 14:57:38 GMT-0400 (Eastern Daylight Time),337972.69999980927,1500,I,m,943,4,1,2458.199999809265,335514.5,9004,NTS,B,22
8,20,test,1,B,triangle.png,1,m,Mon Oct 28 2024 14:57:38 GMT-0400 (Eastern Daylight Time),339872.5,1200,I,m,680,7,1,1890.4000000953674,337982.09999990463,9004,NTS,B,23
3,21,test,1,B,triangle.png,1,z,Mon Oct 28 2024 14:57:38 GMT-0400 (Eastern Daylight Time),342522.59999990463,2000,I,z,620,11,1,2639.300000190735,339883.2999997139,9004,NTS,B,24
2,1,prac,1,C,triangle.png,1,m,Mon Oct 28 2024 14:57:38 GMT-0400 (Eastern Daylight Time),408039.2999997139,1600,I,m,955,2,1,3343.699999809265,404695.59999990463,9004,NTS,B,1
8,2,prac,1,C,triangle.png,1,m,Mon Oct 28 2024 14:57:38 GMT-0400 (Eastern Daylight Time),410939.39999961853,1400,I,m,701,7,1,2886.8999996185303,408052.5,9004,NTS,B,2
9,3,prac,1,C,circle.png,1,m,Mon Oct 28 2024 14:57:38 GMT-0400 (Eastern Daylight Time),414989.59999990463,1900,I,m,1366,8,1,4040.300000190735,410949.2999997139,9004,NTS,B,3
7,3,prac,1,C,triangle.png,0,z,Mon Oct 28 2024 14:57:38 GMT-0400 (Eastern Daylight Time),418489.19999980927,1200,I,None,1516,6,1,3489.699999809265,414999.5,9004,NTS,B,4
4,4,prac,1,C,circle.png,1,z,Mon Oct 28 2024 14:57:38 GMT-0400 (Eastern Daylight Time),421656.2999997139,1000,I,z,1373,4,1,3155.2999997138977,418501.0,9004,NTS,B,5
3,4,prac,1,C,triangle.png,0,z,Mon Oct 28 2024 14:57:38 GMT-0400 (Eastern Daylight Time),425456.0,1500,I,None,1516,3,1,3789.1000003814697,421666.89999961853,9004,NTS,B,6
2,4,prac,1,C,triangle.png,0,m,Mon Oct 28 2024 14:57:38 GMT-0400 (Eastern Daylight Time),429206.09999990463,1600,I,z,1357,2,1,3739.0,425467.09999990463,9004,NTS,B,7
1,4,prac,1,C,circle.png,0,z,Mon Oct 28 2024 14:57:38 GMT-0400 (Eastern Daylight Time),433206.0,1700,I,None,1516,1,1,3985.800000190735,429220.19999980927,9004,NTS,B,8
9,4,prac,1,C,circle.png,0,m,Mon Oct 28 2024 14:57:38 GMT-0400 (Eastern Daylight Time),437406.09999990463,1900,I,None,1516,8,1,4190.400000095367,433215.69999980927,9004,NTS,B,9
6,4,prac,1,C,circle.png,0,m,Mon Oct 28 2024 14:57:38 GMT-0400 (Eastern Daylight Time),441706.09999990463,2000,I,None,1516,5,1,4289.200000286102,437416.89999961853,9004,NTS,B,10
3,5,prac,1,C,triangle.png,1,z,Mon Oct 28 2024 14:57:38 GMT-0400 (Eastern Daylight Time),445172.7999997139,1500,I,z,1190,3,1,3456.0999999046326,441716.69999980927,9004,NTS,B,11
1,6,prac,1,C,circle.png,1,z,Mon Oct 28 2024 14:57:38 GMT-0400 (Eastern Daylight Time),448722.89999961853,1700,I,z,1061,1,1,3539.5999999046326,445183.2999997139,9004,NTS,B,12
8,1,prac,2,C,triangle.png,1,m,Mon Oct 28 2024 14:57:38 GMT-0400 (Eastern Daylight Time),466922.39999961853,1400,I,m,1335,7,1,3523.3999996185303,463399.0,9004,NTS,B,1
6,2,prac,2,C,circle.png,1,m,Mon Oct 28 2024 14:57:38 GMT-0400 (Eastern Daylight Time),470439.39999961853,2000,I,m,723,5,1,3509.0999999046326,466930.2999997139,9004,NTS,B,2
7,2,prac,2,C,triangle.png,0,z,Mon Oct 28 2024 14:57:38 GMT-0400 (Eastern Daylight Time),473722.7999997139,1200,I,m,1285,6,1,3273.199999809265,470449.59999990463,9004,NTS,B,3
3,2,prac,2,C,triangle.png,0,z,Mon Oct 28 2024 14:57:38 GMT-0400 (Eastern Daylight Time),477522.69999980927,1500,I,None,1517,3,1,3789.800000190735,473732.89999961853,9004,NTS,B,4
4,3,prac,2,C,circle.png,1,z,Mon Oct 28 2024 14:57:38 GMT-0400 (Eastern Daylight Time),480756.19999980927,1000,I,z,1443,4,1,3220.9000000953674,477535.2999997139,9004,NTS,B,5
9,4,prac,2,C,circle.png,1,m,Mon Oct 28 2024 14:57:38 GMT-0400 (Eastern Daylight Time),484806.19999980927,1900,I,m,1358,8,1,4039.800000190735,480766.39999961853,9004,NTS,B,6
7,5,prac,2,C,triangle.png,1,z,Mon Oct 28 2024 14:57:38 GMT-0400 (Eastern Daylight Time),488189.5,1200,I,z,1383,6,1,3373.0,484816.5,9004,NTS,B,7
8,5,prac,2,C,triangle.png,0,m,Mon Oct 28 2024 14:57:38 GMT-0400 (Eastern Daylight Time),491889.39999961853,1400,I,None,1517,7,1,3689.5,488199.89999961853,9004,NTS,B,8
1,6,prac,2,C,circle.png,1,z,Mon Oct 28 2024 14:57:38 GMT-0400 (Eastern Daylight Time),495239.19999980927,1700,I,z,856,1,1,3339.300000190735,491899.89999961853,9004,NTS,B,9
2,6,prac,2,C,triangle.png,0,m,Mon Oct 28 2024 14:57:38 GMT-0400 (Eastern Daylight Time),499139.2999997139,1600,I,None,1516,2,1,3890.0,495249.2999997139,9004,NTS,B,10
2,6,prac,2,C,triangle.png,0,m,Mon Oct 28 2024 14:57:38 GMT-0400 (Eastern Daylight Time),503039.2999997139,1600,I,None,1515,2,1,3888.0,499151.2999997139,9004,NTS,B,11
3,6,prac,2,C,triangle.png,0,z,Mon Oct 28 2024 14:57:38 GMT-0400 (Eastern Daylight Time),506106.0,1500,I,m,770,3,1,3056.4000000953674,503049.59999990463,9004,NTS,B,12
3,1,test,1,C,triangle.png,1,z,Mon Oct 28 2024 14:57:38 GMT-0400 (Eastern Daylight Time),541439.1999998093,1200,I,z,1449,3,1,2658.5,538780.6999998093,9004,NTS,B,1
6,2,test,1,C,triangle.png,1,m,Mon Oct 28 2024 14:57:38 GMT-0400 (Eastern Daylight Time),543922.7999997139,1000,I,m,1461,13,1,2474.2999997138977,541448.5,9004,NTS,B,2
1,3,test,1,C,circle.png,1,z,Mon Oct 28 2024 14:57:38 GMT-0400 (Eastern Daylight Time),546306.0999999046,1000,I,z,1362,1,1,2369.9000000953674,543936.1999998093,9004,NTS,B,3
7,3,test,1,C,triangle.png,0,z,Mon Oct 28 2024 14:57:38 GMT-0400 (Eastern Daylight Time),549539.3999996185,1700,I,None,1516,22,1,3224.699999809265,546314.6999998093,9004,NTS,B,4
4,4,test,1,C,triangle.png,1,m,Mon Oct 28 2024 14:57:38 GMT-0400 (Eastern Daylight Time),552189.5,1500,I,m,1117,12,1,2641.800000190735,549547.6999998093,9004,NTS,B,5
2,5,test,1,C,triangle.png,1,m,Mon Oct 28 2024 14:57:38 GMT-0400 (Eastern Daylight Time),555372.6999998093,2000,I,m,1152,2,1,3173.199999809265,552199.5,9004,NTS,B,6
9,5,test,1,C,circle.png,0,m,Mon Oct 28 2024 14:57:38 GMT-0400 (Eastern Daylight Time),558256.0,1500,I,z,1365,8,1,2875.2000002861023,555380.7999997139,9004,NTS,B,7
1,6,test,1,C,triangle.png,1,z,Mon Oct 28 2024 14:57:38 GMT-0400 (Eastern Daylight Time),561406.0,1900,I,z,1217,17,1,3141.0,558265.0,9004,NTS,B,8
8,6,test,1,C,circle.png,0,m,Mon Oct 28 2024 14:57:38 GMT-0400 (Eastern Daylight Time),564139.3999996185,1200,I,None,1516,15,1,2724.5999999046326,561414.7999997139,9004,NTS,B,9
6,7,test,1,C,circle.png,1,m,Mon Oct 28 2024 14:57:38 GMT-0400 (Eastern Daylight Time),567306.1999998093,1900,I,m,1238,21,1,3156.5,564149.6999998093,9004,NTS,B,10
4,7,test,1,C,triangle.png,0,m,Mon Oct 28 2024 14:57:38 GMT-0400 (Eastern Daylight Time),570339.5999999046,1500,I,None,1516,20,1,3023.2000002861023,567316.3999996185,9004,NTS,B,11
2,7,test,1,C,circle.png,0,z,Mon Oct 28 2024 14:57:38 GMT-0400 (Eastern Daylight Time),573206.0999999046,1700,I,m,1142,18,1,2858.0,570348.0999999046,9004,NTS,B,12
2,8,test,1,C,circle.png,1,z,Mon Oct 28 2024 14:57:38 GMT-0400 (Eastern Daylight Time),575806.0,1700,I,z,867,10,1,2590.2000002861023,573215.7999997139,9004,NTS,B,13
9,8,test,1,C,triangle.png,0,z,Mon Oct 28 2024 14:57:38 GMT-0400 (Eastern Daylight Time),578539.5,1400,I,m,1303,16,1,2723.300000190735,575816.1999998093,9004,NTS,B,14
8,9,test,1,C,triangle.png,1,m,Mon Oct 28 2024 14:57:38 GMT-0400 (Eastern Daylight Time),581089.5,1600,I,m,930,7,1,2541.9000000953674,578547.5999999046,9004,NTS,B,15
9,9,test,1,C,circle.png,0,m,Mon Oct 28 2024 14:57:38 GMT-0400 (Eastern Daylight Time),584006.0999999046,1500,I,z,1392,24,1,2908.0,581098.0999999046,9004,NTS,B,16
7,10,test,1,C,circle.png,1,m,Mon Oct 28 2024 14:57:38 GMT-0400 (Eastern Daylight Time),587172.6999998093,2000,I,m,1144,14,1,3157.699999809265,584015.0,9004,NTS,B,17
3,11,test,1,C,circle.png,1,z,Mon Oct 28 2024 14:57:38 GMT-0400 (Eastern Daylight Time),589872.6999998093,1600,I,z,1081,19,1,2690.699999809265,587182.0,9004,NTS,B,18
8,12,test,1,C,triangle.png,1,m,Mon Oct 28 2024 14:57:38 GMT-0400 (Eastern Daylight Time),592973.0,1600,I,m,1468,23,1,3092.300000190735,589880.6999998093,9004,NTS,B,19
1,13,test,1,C,triangle.png,1,z,Mon Oct 28 2024 14:57:38 GMT-0400 (Eastern Daylight Time),595906.1999998093,1900,I,z,1013,9,1,2925.199999809265,592981.0,9004,NTS,B,20
3,13,test,1,C,circle.png,0,z,Mon Oct 28 2024 14:57:38 GMT-0400 (Eastern Daylight Time),598956.1999998093,1600,I,m,1419,11,1,3041.800000190735,595914.3999996185,9004,NTS,B,21
7,13,test,1,C,triangle.png,0,z,Mon Oct 28 2024 14:57:38 GMT-0400 (Eastern Daylight Time),602189.5999999046,1700,I,None,1516,6,1,3224.7000002861023,598964.8999996185,9004,NTS,B,22
6,13,test,1,C,circle.png,0,m,Mon Oct 28 2024 14:57:38 GMT-0400 (Eastern Daylight Time),605556.1999998093,1900,I,z,1444,5,1,3358.300000190735,602197.8999996185,9004,NTS,B,23
4,14,test,1,C,circle.png,1,z,Mon Oct 28 2024 14:57:38 GMT-0400 (Eastern Daylight Time),607722.7999997139,1400,I,z,738,4,1,2158.0,605564.7999997139,9004,NTS,B,24
7,0,test,2,C,triangle.png,0,z,Mon Oct 28 2024 14:57:38 GMT-0400 (Eastern Daylight Time),619389.5999999046,1700,I,None,1516,6,1,3224.9000000953674,616164.6999998093,9004,NTS,B,1
7,0,test,2,C,circle.png,0,m,Mon Oct 28 2024 14:57:38 GMT-0400 (Eastern Daylight Time),622222.8999996185,2000,I,z,815,22,1,2825.199999809265,619397.6999998093,9004,NTS,B,2
3,1,test,2,C,triangle.png,1,z,Mon Oct 28 2024 14:57:38 GMT-0400 (Eastern Daylight Time),624305.5,1200,I,z,862,3,1,2072.6000003814697,622232.8999996185,9004,NTS,B,3
7,2,test,2,C,circle.png,1,m,Mon Oct 28 2024 14:57:38 GMT-0400 (Eastern Daylight Time),627539.5,2000,I,m,1212,14,1,3228.1000003814697,624311.3999996185,9004,NTS,B,4
9,3,test,2,C,circle.png,1,m,Mon Oct 28 2024 14:57:38 GMT-0400 (Eastern Daylight Time),629956.1999998093,1500,I,m,895,8,1,2408.300000190735,627547.8999996185,9004,NTS,B,5
9,4,test,2,C,triangle.png,1,z,Mon Oct 28 2024 14:57:38 GMT-0400 (Eastern Daylight Time),632406.2999997139,1400,I,z,1026,16,1,2437.699999809265,629968.5999999046,9004,NTS,B,6
8,5,test,2,C,circle.png,1,m,Mon Oct 28 2024 14:57:38 GMT-0400 (Eastern Daylight Time),635072.8999996185,1200,I,m,1447,23,1,2658.0999999046326,632414.7999997139,9004,NTS,B,7
1,6,test,2,C,circle.png,1,z,Mon Oct 28 2024 14:57:38 GMT-0400 (Eastern Daylight Time),637022.8999996185,1000,I,z,933,1,1,1941.3999996185303,635081.5,9004,NTS,B,8
1,7,test,2,C,triangle.png,1,z,Mon Oct 28 2024 14:57:38 GMT-0400 (Eastern Daylight Time),640139.5,1900,I,z,1187,9,1,3108.5,637031.0,9004,NTS,B,9
4,8,test,2,C,circle.png,1,z,Mon Oct 28 2024 14:57:38 GMT-0400 (Eastern Daylight Time),642839.5,1400,I,z,1274,4,1,2691.7000002861023,640147.7999997139,9004,NTS,B,10
3,9,test,2,C,circle.png,1,z,Mon Oct 28 2024 14:57:38 GMT-0400 (Eastern Daylight Time),645489.5,1600,I,z,1030,11,1,2641.9000000953674,642847.5999999046,9004,NTS,B,11
4,9,test,2,C,triangle.png,0,m,Mon Oct 28 2024 14:57:38 GMT-0400 (Eastern Daylight Time),648523.0,1500,I,None,1516,20,1,3025.4000000953674,645497.5999999046,9004,NTS,B,12
1,10,test,2,C,triangle.png,1,z,Mon Oct 28 2024 14:57:38 GMT-0400 (Eastern Daylight Time),651439.3999996185,1900,I,z,999,17,1,2908.0,648531.3999996185,9004,NTS,B,13
6,11,test,2,C,triangle.png,1,m,Mon Oct 28 2024 14:57:38 GMT-0400 (Eastern Daylight Time),653872.7999997139,1000,I,m,1414,21,1,2424.9000000953674,651447.8999996185,9004,NTS,B,14
6,11,test,2,C,circle.png,0,m,Mon Oct 28 2024 14:57:38 GMT-0400 (Eastern Daylight Time),657206.1999998093,1900,I,z,1409,5,1,3325.0,653881.1999998093,9004,NTS,B,15
3,12,test,2,C,circle.png,1,z,Mon Oct 28 2024 14:57:38 GMT-0400 (Eastern Daylight Time),660189.5999999046,1600,I,z,1350,19,1,2974.9000000953674,657214.6999998093,9004,NTS,B,16
9,12,test,2,C,triangle.png,0,z,Mon Oct 28 2024 14:57:38 GMT-0400 (Eastern Daylight Time),662906.2999997139,1400,I,m,1288,24,1,2708.0,660198.2999997139,9004,NTS,B,17
8,13,test,2,C,circle.png,1,m,Mon Oct 28 2024 14:57:38 GMT-0400 (Eastern Daylight Time),665289.5,1200,I,m,1155,15,1,2374.4000000953674,662915.0999999046,9004,NTS,B,18
2,14,test,2,C,circle.png,1,z,Mon Oct 28 2024 14:57:38 GMT-0400 (Eastern Daylight Time),667772.8999996185,1700,I,z,752,10,1,2475.0,665297.8999996185,9004,NTS,B,19
8,15,test,2,C,triangle.png,1,m,Mon Oct 28 2024 14:57:38 GMT-0400 (Eastern Daylight Time),670556.1999998093,1600,I,m,1153,7,1,2774.9000000953674,667781.2999997139,9004,NTS,B,20
2,16,test,2,C,triangle.png,1,m,Mon Oct 28 2024 14:57:38 GMT-0400 (Eastern Daylight Time),673723.0,2000,I,m,1137,2,1,3158.2000002861023,670564.7999997139,9004,NTS,B,21
2,17,test,2,C,circle.png,1,z,Mon Oct 28 2024 14:57:38 GMT-0400 (Eastern Daylight Time),676139.5999999046,1700,I,z,687,18,1,2404.800000190735,673734.7999997139,9004,NTS,B,22
4,17,test,2,C,triangle.png,0,m,Mon Oct 28 2024 14:57:38 GMT-0400 (Eastern Daylight Time),678822.8999996185,1500,I,z,1158,12,1,2671.5999999046326,676151.2999997139,9004,NTS,B,23
6,18,test,2,C,triangle.png,1,m,Mon Oct 28 2024 14:57:38 GMT-0400 (Eastern Daylight Time),681023.0,1000,I,m,1183,13,1,2192.0,678831.0,9004,NTS,B,24
4,1,test,3,C,circle.png,1,z,Mon Oct 28 2024 14:57:38 GMT-0400 (Eastern Daylight Time),686656.1999998093,1400,I,z,1498,4,1,2908.9000000953674,683747.2999997139,9004,NTS,B,1
9,2,test,3,C,circle.png,1,m,Mon Oct 28 2024 14:57:38 GMT-0400 (Eastern Daylight Time),689223.1999998093,1500,I,m,1041,24,1,2558.800000190735,686664.3999996185,9004,NTS,B,2
6,3,test,3,C,circle.png,1,m,Mon Oct 28 2024 14:57:38 GMT-0400 (Eastern Daylight Time),692556.2999997139,1900,I,m,1403,5,1,3324.5999999046326,689231.6999998093,9004,NTS,B,3
7,4,test,3,C,circle.png,1,m,Mon Oct 28 2024 14:57:38 GMT-0400 (Eastern Daylight Time),695723.0,2000,I,m,1138,14,1,3157.9000000953674,692565.0999999046,9004,NTS,B,4
3,5,test,3,C,circle.png,1,z,Mon Oct 28 2024 14:57:38 GMT-0400 (Eastern Daylight Time),698556.2999997139,1600,I,z,1203,11,1,2824.5999999046326,695731.6999998093,9004,NTS,B,5
8,5,test,3,C,triangle.png,0,m,Mon Oct 28 2024 14:57:38 GMT-0400 (Eastern Daylight Time),701689.6999998093,1600,I,None,1516,7,1,3123.0,698566.6999998093,9004,NTS,B,6
1,6,test,3,C,circle.png,1,z,Mon Oct 28 2024 14:57:38 GMT-0400 (Eastern Daylight Time),703756.3999996185,1000,I,z,1036,17,1,2054.7999997138977,701701.5999999046,9004,NTS,B,7
6,7,test,3,C,circle.png,1,m,Mon Oct 28 2024 14:57:38 GMT-0400 (Eastern Daylight Time),706989.2999997139,1900,I,m,1300,21,1,3223.7999997138977,703765.5,9004,NTS,B,8
2,8,test,3,C,triangle.png,1,m,Mon Oct 28 2024 14:57:38 GMT-0400 (Eastern Daylight Time),710306.0999999046,2000,I,m,1297,2,1,3309.0999999046326,706997.0,9004,NTS,B,9
6,9,test,3,C,triangle.png,1,m,Mon Oct 28 2024 14:57:38 GMT-0400 (Eastern Daylight Time),712223.0999999046,1000,I,m,899,13,1,1905.8000001907349,710317.2999997139,9004,NTS,B,10
1,9,test,3,C,circle.png,0,z,Mon Oct 28 2024 14:57:38 GMT-0400 (Eastern Daylight Time),714756.1999998093,1000,I,None,1516,1,1,2525.4000000953674,712230.7999997139,9004,NTS,B,11
9,9,test,3,C,triangle.png,0,z,Mon Oct 28 2024 14:57:38 GMT-0400 (Eastern Daylight Time),717689.5999999046,1400,I,None,1516,16,1,2924.800000190735,714764.7999997139,9004,NTS,B,12
2,10,test,3,C,triangle.png,1,m,Mon Oct 28 2024 14:57:38 GMT-0400 (Eastern Daylight Time),721039.1999998093,2000,I,m,1332,18,1,3340.300000190735,717698.8999996185,9004,NTS,B,13
8,11,test,3,C,circle.png,1,m,Mon Oct 28 2024 14:57:38 GMT-0400 (Eastern Daylight Time),723589.5999999046,1200,I,m,1326,15,1,2541.800000190735,721047.7999997139,9004,NTS,B,14
9,11,test,3,C,circle.png,0,m,Mon Oct 28 2024 14:57:38 GMT-0400 (Eastern Daylight Time),726623.0,1500,I,None,1516,8,1,3024.4000000953674,723598.5999999046,9004,NTS,B,15
2,12,test,3,C,circle.png,1,z,Mon Oct 28 2024 14:57:38 GMT-0400 (Eastern Daylight Time),729806.2999997139,1700,I,z,1451,10,1,3175.5,726630.7999997139,9004,NTS,B,16
4,13,test,3,C,circle.png,1,z,Mon Oct 28 2024 14:57:38 GMT-0400 (Eastern Daylight Time),732073.0999999046,1400,I,z,839,20,1,2257.2000002861023,729815.8999996185,9004,NTS,B,17
7,14,test,3,C,triangle.png,1,z,Mon Oct 28 2024 14:57:38 GMT-0400 (Eastern Daylight Time),734856.2999997139,1700,I,z,1057,22,1,2768.7999997138977,732087.5,9004,NTS,B,18
3,15,test,3,C,triangle.png,1,z,Mon Oct 28 2024 14:57:38 GMT-0400 (Eastern Daylight Time),737056.0999999046,1200,I,z,982,19,1,2191.9000000953674,734864.1999998093,9004,NTS,B,19
3,16,test,3,C,triangle.png,1,z,Mon Oct 28 2024 14:57:38 GMT-0400 (Eastern Daylight Time),739005.6999998093,1200,I,z,716,3,1,1941.5,737064.1999998093,9004,NTS,B,20
4,17,test,3,C,triangle.png,1,m,Mon Oct 28 2024 14:57:38 GMT-0400 (Eastern Daylight Time),741456.0999999046,1500,I,m,931,12,1,2444.4000000953674,739011.6999998093,9004,NTS,B,21
1,18,test,3,C,triangle.png,1,z,Mon Oct 28 2024 14:57:38 GMT-0400 (Eastern Daylight Time),744422.7999997139,1900,I,z,1041,9,1,2957.9000000953674,741464.8999996185,9004,NTS,B,22
8,19,test,3,C,triangle.png,1,m,Mon Oct 28 2024 14:57:38 GMT-0400 (Eastern Daylight Time),746973.0,1600,I,m,919,23,1,2542.0,744431.0,9004,NTS,B,23
7,20,test,3,C,triangle.png,1,z,Mon Oct 28 2024 14:57:38 GMT-0400 (Eastern Daylight Time),749623.0,1700,I,z,925,6,1,2641.800000190735,746981.1999998093,9004,NTS,B,24
2,0,test,4,C,triangle.png,0,m,Mon Oct 28 2024 14:57:38 GMT-0400 (Eastern Daylight Time),755923.1999998093,2000,I,None,1516,2,1,3525.4000000953674,752397.7999997139,9004,NTS,B,1
9,0,test,4,C,circle.png,0,m,Mon Oct 28 2024 14:57:38 GMT-0400 (Eastern Daylight Time),758823.1999998093,1500,I,z,1375,24,1,2890.9000000953674,755932.2999997139,9004,NTS,B,2
4,0,test,4,C,circle.png,0,z,Mon Oct 28 2024 14:57:38 GMT-0400 (Eastern Daylight Time),761756.5,1400,I,None,1516,4,1,2924.4000000953674,758832.0999999046,9004,NTS,B,3
7,0,test,4,C,triangle.png,0,z,Mon Oct 28 2024 14:57:38 GMT-0400 (Eastern Daylight Time),764873.0999999046,1700,I,m,1390,6,1,3107.5999999046326,761765.5,9004,NTS,B,4
2,0,test,4,C,triangle.png,0,m,Mon Oct 28 2024 14:57:38 GMT-0400 (Eastern Daylight Time),768039.5999999046,2000,I,z,1141,18,1,3155.4000000953674,764884.1999998093,9004,NTS,B,5
8,1,test,4,C,triangle.png,1,m,Mon Oct 28 2024 14:57:38 GMT-0400 (Eastern Daylight Time),771139.5999999046,1600,I,m,1478,23,1,3091.7000002861023,768047.8999996185,9004,NTS,B,6
1,2,test,4,C,circle.png,1,z,Mon Oct 28 2024 14:57:38 GMT-0400 (Eastern Daylight Time),773489.5,1000,I,z,1330,17,1,2342.0,771147.5,9004,NTS,B,7
6,3,test,4,C,circle.png,1,m,Mon Oct 28 2024 14:57:38 GMT-0400 (Eastern Daylight Time),776589.3999996185,1900,I,m,1167,21,1,3091.199999809265,773498.1999998093,9004,NTS,B,8
7,4,test,4,C,circle.png,1,m,Mon Oct 28 2024 14:57:38 GMT-0400 (Eastern Daylight Time),779723.0,2000,I,m,1104,14,1,3124.9000000953674,776598.0999999046,9004,NTS,B,9
2,5,test,4,C,circle.png,1,z,Mon Oct 28 2024 14:57:38 GMT-0400 (Eastern Daylight Time),782539.6999998093,1700,I,z,1086,10,1,2808.5999999046326,779731.0999999046,9004,NTS,B,10
4,6,test,4,C,triangle.png,1,m,Mon Oct 28 2024 14:57:38 GMT-0400 (Eastern Daylight Time),785439.3999996185,1500,I,m,1382,12,1,2891.0,782548.3999996185,9004,NTS,B,11
7,7,test,4,C,triangle.png,1,z,Mon Oct 28 2024 14:57:38 GMT-0400 (Eastern Daylight Time),788156.3999996185,1700,I,z,986,22,1,2709.3999996185303,785447.0,9004,NTS,B,12
1,7,test,4,C,circle.png,0,z,Mon Oct 28 2024 14:57:38 GMT-0400 (Eastern Daylight Time),790689.7999997139,1000,I,None,1517,1,1,2524.2999997138977,788165.5,9004,NTS,B,13
9,7,test,4,C,triangle.png,0,z,Mon Oct 28 2024 14:57:38 GMT-0400 (Eastern Daylight Time),793623.0999999046,1400,I,None,1516,16,1,2924.5999999046326,790698.5,9004,NTS,B,14
3,8,test,4,C,triangle.png,1,z,Mon Oct 28 2024 14:57:38 GMT-0400 (Eastern Daylight Time),795773.0,1200,I,z,919,3,1,2142.0,793631.0,9004,NTS,B,15
3,9,test,4,C,triangle.png,1,z,Mon Oct 28 2024 14:57:38 GMT-0400 (Eastern Daylight Time),797606.3999996185,1200,I,z,609,19,1,1825.2999997138977,795781.0999999046,9004,NTS,B,16
1,10,test,4,C,triangle.png,1,z,Mon Oct 28 2024 14:57:38 GMT-0400 (Eastern Daylight Time),800223.0999999046,1900,I,z,699,9,1,2607.4000000953674,797615.6999998093,9004,NTS,B,17
9,11,test,4,C,circle.png,1,m,Mon Oct 28 2024 14:57:38 GMT-0400 (Eastern Daylight Time),802689.5999999046,1500,I,m,947,8,1,2456.5999999046326,800233.0,9004,NTS,B,18
3,12,test,4,C,circle.png,1,z,Mon Oct 28 2024 14:57:38 GMT-0400 (Eastern Daylight Time),805255.7999997139,1600,I,z,940,11,1,2557.199999809265,802698.5999999046,9004,NTS,B,19
4,13,test,4,C,circle.png,1,z,Mon Oct 28 2024 14:57:38 GMT-0400 (Eastern Daylight Time),807856.2999997139,1400,I,z,1181,20,1,2595.2999997138977,805261.0,9004,NTS,B,20
6,14,test,4,C,triangle.png,1,m,Mon Oct 28 2024 14:57:38 GMT-0400 (Eastern Daylight Time),810322.7999997139,1000,I,m,1445,13,1,2458.2999997138977,807864.5,9004,NTS,B,21
8,15,test,4,C,circle.png,1,m,Mon Oct 28 2024 14:57:38 GMT-0400 (Eastern Daylight Time),812573.0,1200,I,m,1019,15,1,2241.5,810331.5,9004,NTS,B,22
8,15,test,4,C,triangle.png,0,m,Mon Oct 28 2024 14:57:38 GMT-0400 (Eastern Daylight Time),815173.0999999046,1600,I,z,977,7,1,2591.5,812581.5999999046,9004,NTS,B,23
6,16,test,4,C,circle.png,1,m,Mon Oct 28 2024 14:57:38 GMT-0400 (Eastern Daylight Time),818173.0,1900,I,m,1069,5,1,2990.4000000953674,815182.5999999046,9004,NTS,B,24
