acc_sum,block,block_c,change,condition,correct,correct_response,datetime,endtime,face,project,response,response_time,row_sel,session_number,start_end,starttime,subject_id,task,task_vers,trial
0,prac,1,,1-Back,,,Mon Feb 17 2025 16:58:45 GMT-0600 (Central Standard Time),,050_m_f_n_a.png,O,space,14090,1,1,,,7049,NNB,A,0
1,prac,1,0.0,1-Back,1,m,Mon Feb 17 2025 16:58:45 GMT-0600 (Central Standard Time),160357.6000000001,063_y_f_n_a.png,O,m,1371,2,1,2175.2000000001863,158182.3999999999,7049,NNB,A,1
2,prac,1,1.0,1-Back,1,z,Mon Feb 17 2025 16:58:45 GMT-0600 (Central Standard Time),162490.2000000002,063_y_f_n_a.png,O,z,1349,3,1,2125.8000000002794,160364.3999999999,7049,NNB,A,2
2,prac,1,0.0,1-Back,0,m,Mon Feb 17 2025 16:58:45 GMT-0600 (Central Standard Time),165289.2000000002,053_o_m_n_a.png,O,None,2001,4,1,2791.899999999907,162497.30000000028,7049,NNB,A,3
3,prac,1,0.0,1-Back,1,m,Mon Feb 17 2025 16:58:45 GMT-0600 (Central Standard Time),167621.80000000028,058_m_m_n_a.png,O,m,1520,5,1,2326.0,165295.80000000028,7049,NNB,A,4
4,prac,1,1.0,1-Back,1,z,Mon Feb 17 2025 16:58:45 GMT-0600 (Central Standard Time),169337.8999999999,058_m_m_n_a.png,O,z,933,6,1,1709.3999999999069,167628.5,7049,NNB,A,5
5,prac,1,0.0,1-Back,1,m,Mon Feb 17 2025 16:58:45 GMT-0600 (Central Standard Time),171387.6000000001,047_o_f_n_a.png,O,m,1217,7,1,2042.1000000000931,169345.5,7049,NNB,A,6
6,prac,1,0.0,1-Back,1,m,Mon Feb 17 2025 16:58:45 GMT-0600 (Central Standard Time),173287.1000000001,045_m_m_n_a.png,O,m,1088,8,1,1892.5,171394.6000000001,7049,NNB,A,7
7,prac,1,0.0,1-Back,1,m,Mon Feb 17 2025 16:58:45 GMT-0600 (Central Standard Time),175036.30000000028,050_m_f_n_a.png,O,m,972,9,1,1742.5,173293.80000000028,7049,NNB,A,8
8,prac,1,1.0,1-Back,1,z,Mon Feb 17 2025 16:58:45 GMT-0600 (Central Standard Time),176585.7000000002,050_m_f_n_a.png,O,z,774,10,1,1542.1000000000931,175043.6000000001,7049,NNB,A,9
9,prac,1,0.0,1-Back,1,m,Mon Feb 17 2025 16:58:45 GMT-0600 (Central Standard Time),178518.3999999999,053_o_m_n_a.png,O,m,1153,11,1,1926.0,176592.3999999999,7049,NNB,A,10
10,prac,1,0.0,1-Back,1,m,Mon Feb 17 2025 16:58:45 GMT-0600 (Central Standard Time),180401.5,010_y_f_n_a.png,O,m,1057,12,1,1876.1000000000931,178525.3999999999,7049,NNB,A,11
0,test,1,0.0,1-Back,,,Mon Feb 17 2025 16:58:45 GMT-0600 (Central Standard Time),180401.5,063_y_f_n_a.png,O,space,11231,1,1,1876.1000000000931,178525.3999999999,7049,NNB,A,0
1,test,1,0.0,1-Back,1,m,Mon Feb 17 2025 16:58:45 GMT-0600 (Central Standard Time),201811.1000000001,043_m_f_n_a.png,O,m,865,2,1,1876.0,199935.1000000001,7049,NNB,A,1
2,test,1,0.0,1-Back,1,m,Mon Feb 17 2025 16:58:45 GMT-0600 (Central Standard Time),203860.80000000028,010_y_f_n_a.png,O,m,1022,3,1,2043.8000000002794,201817.0,7049,NNB,A,2
3,test,1,1.0,1-Back,1,z,Mon Feb 17 2025 16:58:45 GMT-0600 (Central Standard Time),205626.5,010_y_f_n_a.png,O,z,749,4,1,1759.1999999997206,203867.30000000028,7049,NNB,A,3
4,test,1,0.0,1-Back,1,m,Mon Feb 17 2025 16:58:45 GMT-0600 (Central Standard Time),207510.5,043_m_f_n_a.png,O,m,855,5,1,1878.1999999997206,205632.30000000028,7049,NNB,A,4
5,test,1,0.0,1-Back,1,m,Mon Feb 17 2025 16:58:45 GMT-0600 (Central Standard Time),209175.3999999999,053_o_m_n_a.png,O,m,636,6,1,1659.0,207516.3999999999,7049,NNB,A,5
6,test,1,1.0,1-Back,1,z,Mon Feb 17 2025 16:58:45 GMT-0600 (Central Standard Time),210908.2000000002,053_o_m_n_a.png,O,z,705,7,1,1727.0,209181.2000000002,7049,NNB,A,6
7,test,1,0.0,1-Back,1,m,Mon Feb 17 2025 16:58:45 GMT-0600 (Central Standard Time),212607.80000000028,058_m_m_n_a.png,O,m,669,8,1,1693.8000000002794,210914.0,7049,NNB,A,7
8,test,1,0.0,1-Back,1,m,Mon Feb 17 2025 16:58:45 GMT-0600 (Central Standard Time),214490.3999999999,047_o_f_n_a.png,O,m,865,9,1,1876.3999999999069,212614.0,7049,NNB,A,8
9,test,1,0.0,1-Back,1,m,Mon Feb 17 2025 16:58:45 GMT-0600 (Central Standard Time),216390.0,058_m_m_n_a.png,O,m,879,10,1,1893.3999999999069,214496.6000000001,7049,NNB,A,9
10,test,1,0.0,1-Back,1,m,Mon Feb 17 2025 16:58:45 GMT-0600 (Central Standard Time),218156.1000000001,041_y_m_n_a.png,O,m,747,11,1,1760.1000000000931,216396.0,7049,NNB,A,10
11,test,1,1.0,1-Back,1,z,Mon Feb 17 2025 16:58:45 GMT-0600 (Central Standard Time),219638.80000000028,041_y_m_n_a.png,O,z,453,12,1,1476.5,218162.30000000028,7049,NNB,A,11
12,test,1,0.0,1-Back,1,m,Mon Feb 17 2025 16:58:45 GMT-0600 (Central Standard Time),221638.0,044_o_f_n_a.png,O,m,978,13,1,1993.1000000000931,219644.8999999999,7049,NNB,A,12
13,test,1,1.0,1-Back,1,z,Mon Feb 17 2025 16:58:45 GMT-0600 (Central Standard Time),223237.7000000002,044_o_f_n_a.png,O,z,571,14,1,1593.5,221644.2000000002,7049,NNB,A,13
14,test,1,0.0,1-Back,1,m,Mon Feb 17 2025 16:58:45 GMT-0600 (Central Standard Time),225186.8999999999,008_y_m_n_a.png,O,m,931,15,1,1943.3999999999069,223243.5,7049,NNB,A,14
15,test,1,0.0,1-Back,1,m,Mon Feb 17 2025 16:58:45 GMT-0600 (Central Standard Time),227003.1000000001,050_m_f_n_a.png,O,m,798,16,1,1810.7000000001863,225192.3999999999,7049,NNB,A,15
16,test,1,0.0,1-Back,1,m,Mon Feb 17 2025 16:58:45 GMT-0600 (Central Standard Time),228769.30000000028,046_o_m_n_a.png,O,m,734,17,1,1760.6000000000931,227008.7000000002,7049,NNB,A,16
17,test,1,0.0,1-Back,1,m,Mon Feb 17 2025 16:58:45 GMT-0600 (Central Standard Time),230818.80000000028,050_m_f_n_a.png,O,m,1024,18,1,2043.6000000000931,228775.2000000002,7049,NNB,A,17
0,test,2,0.0,1-Back,,,Mon Feb 17 2025 16:58:45 GMT-0600 (Central Standard Time),230818.80000000028,058_m_m_n_a.png,O,space,5542,1,1,2043.6000000000931,228775.2000000002,7049,NNB,A,0
1,test,2,0.0,1-Back,1,m,Mon Feb 17 2025 16:58:45 GMT-0600 (Central Standard Time),240165.7000000002,043_m_f_n_a.png,O,m,762,2,1,1776.7000000001863,238389.0,7049,NNB,A,1
2,test,2,1.0,1-Back,1,z,Mon Feb 17 2025 16:58:45 GMT-0600 (Central Standard Time),241648.6000000001,043_m_f_n_a.png,O,z,460,3,1,1476.8999999999069,240171.7000000002,7049,NNB,A,2
3,test,2,0.0,1-Back,1,m,Mon Feb 17 2025 16:58:45 GMT-0600 (Central Standard Time),243548.1000000001,058_m_m_n_a.png,O,m,872,4,1,1893.7999999998137,241654.30000000028,7049,NNB,A,3
4,test,2,0.0,1-Back,1,m,Mon Feb 17 2025 16:58:45 GMT-0600 (Central Standard Time),245113.8999999999,041_y_m_n_a.png,O,m,541,5,1,1559.6999999997206,243554.2000000002,7049,NNB,A,4
5,test,2,0.0,1-Back,1,m,Mon Feb 17 2025 16:58:45 GMT-0600 (Central Standard Time),246980.30000000028,063_y_f_n_a.png,O,m,847,6,1,1860.2000000001863,245120.1000000001,7049,NNB,A,5
6,test,2,1.0,1-Back,1,z,Mon Feb 17 2025 16:58:45 GMT-0600 (Central Standard Time),248562.80000000028,063_y_f_n_a.png,O,z,565,7,1,1576.9000000003725,246985.8999999999,7049,NNB,A,6
7,test,2,0.0,1-Back,1,m,Mon Feb 17 2025 16:58:45 GMT-0600 (Central Standard Time),250595.8999999999,041_y_m_n_a.png,O,m,1006,8,1,2026.3999999999069,248569.5,7049,NNB,A,7
8,test,2,0.0,1-Back,1,m,Mon Feb 17 2025 16:58:45 GMT-0600 (Central Standard Time),252178.6000000001,044_o_f_n_a.png,O,m,565,9,1,1577.1000000000931,250601.5,7049,NNB,A,8
9,test,2,0.0,1-Back,1,m,Mon Feb 17 2025 16:58:45 GMT-0600 (Central Standard Time),253877.8999999999,045_m_m_n_a.png,O,m,621,10,1,1693.3999999999069,252184.5,7049,NNB,A,9
10,test,2,1.0,1-Back,1,z,Mon Feb 17 2025 16:58:45 GMT-0600 (Central Standard Time),255511.0,045_m_m_n_a.png,O,z,603,11,1,1626.8999999999069,253884.1000000001,7049,NNB,A,10
11,test,2,0.0,1-Back,1,m,Mon Feb 17 2025 16:58:45 GMT-0600 (Central Standard Time),257310.2000000002,044_o_f_n_a.png,O,m,778,12,1,1793.3000000002794,255516.8999999999,7049,NNB,A,11
12,test,2,0.0,1-Back,1,m,Mon Feb 17 2025 16:58:45 GMT-0600 (Central Standard Time),259010.0,047_o_f_n_a.png,O,m,667,13,1,1693.8999999999069,257316.1000000001,7049,NNB,A,12
13,test,2,0.0,1-Back,1,m,Mon Feb 17 2025 16:58:45 GMT-0600 (Central Standard Time),260609.5,053_o_m_n_a.png,O,m,567,14,1,1593.6999999997206,259015.80000000028,7049,NNB,A,13
14,test,2,0.0,1-Back,1,m,Mon Feb 17 2025 16:58:45 GMT-0600 (Central Standard Time),262225.6000000001,046_o_m_n_a.png,O,m,584,15,1,1610.2999999998137,260615.30000000028,7049,NNB,A,14
15,test,2,1.0,1-Back,1,z,Mon Feb 17 2025 16:58:45 GMT-0600 (Central Standard Time),263858.2000000002,046_o_m_n_a.png,O,z,607,16,1,1626.8999999999069,262231.3000000003,7049,NNB,A,15
16,test,2,0.0,1-Back,1,m,Mon Feb 17 2025 16:58:45 GMT-0600 (Central Standard Time),265608.8999999999,008_y_m_n_a.png,O,m,719,17,1,1744.5999999996275,263864.3000000003,7049,NNB,A,16
17,test,2,1.0,1-Back,1,z,Mon Feb 17 2025 16:58:45 GMT-0600 (Central Standard Time),267357.1000000001,008_y_m_n_a.png,O,z,729,18,1,1742.3999999999069,265614.7000000002,7049,NNB,A,17
0,test,3,1.0,1-Back,,,Mon Feb 17 2025 16:58:45 GMT-0600 (Central Standard Time),267357.1000000001,010_y_f_n_a.png,O,space,2708,1,1,1742.3999999999069,265614.7000000002,7049,NNB,A,0
1,test,3,0.0,1-Back,1,m,Mon Feb 17 2025 16:58:45 GMT-0600 (Central Standard Time),273705.3000000003,046_o_m_n_a.png,O,m,542,2,1,1560.3000000002794,272145.0,7049,NNB,A,1
2,test,3,1.0,1-Back,1,z,Mon Feb 17 2025 16:58:45 GMT-0600 (Central Standard Time),275421.2000000002,046_o_m_n_a.png,O,z,688,3,1,1710.1000000000931,273711.1000000001,7049,NNB,A,2
3,test,3,0.0,1-Back,1,m,Mon Feb 17 2025 16:58:45 GMT-0600 (Central Standard Time),277204.0,050_m_f_n_a.png,O,m,756,4,1,1776.1000000000931,275427.8999999999,7049,NNB,A,3
4,test,3,1.0,1-Back,1,z,Mon Feb 17 2025 16:58:45 GMT-0600 (Central Standard Time),278953.8999999999,050_m_f_n_a.png,O,z,717,5,1,1743.8999999999069,277210.0,7049,NNB,A,4
5,test,3,0.0,1-Back,1,m,Mon Feb 17 2025 16:58:45 GMT-0600 (Central Standard Time),280769.8000000003,044_o_f_n_a.png,O,m,791,6,1,1809.8000000002794,278960.0,7049,NNB,A,5
6,test,3,0.0,1-Back,1,m,Mon Feb 17 2025 16:58:45 GMT-0600 (Central Standard Time),282402.5,041_y_m_n_a.png,O,m,615,7,1,1626.6999999997206,280775.8000000003,7049,NNB,A,6
7,test,3,0.0,1-Back,1,m,Mon Feb 17 2025 16:58:45 GMT-0600 (Central Standard Time),284352.0,044_o_f_n_a.png,O,m,919,8,1,1943.6999999997206,282408.3000000003,7049,NNB,A,7
8,test,3,0.0,1-Back,1,m,Mon Feb 17 2025 16:58:45 GMT-0600 (Central Standard Time),286134.7000000002,008_y_m_n_a.png,O,m,752,9,1,1776.8000000002794,284357.8999999999,7049,NNB,A,8
9,test,3,1.0,1-Back,1,z,Mon Feb 17 2025 16:58:45 GMT-0600 (Central Standard Time),287767.5,008_y_m_n_a.png,O,z,610,10,1,1626.6999999997206,286140.8000000003,7049,NNB,A,9
10,test,3,0.0,1-Back,1,m,Mon Feb 17 2025 16:58:45 GMT-0600 (Central Standard Time),289767.1000000001,043_m_f_n_a.png,O,m,978,11,1,1993.7000000001863,287773.3999999999,7049,NNB,A,10
11,test,3,0.0,1-Back,1,m,Mon Feb 17 2025 16:58:45 GMT-0600 (Central Standard Time),291466.3999999999,063_y_f_n_a.png,O,m,667,12,1,1693.2999999998137,289773.1000000001,7049,NNB,A,11
12,test,3,1.0,1-Back,1,z,Mon Feb 17 2025 16:58:45 GMT-0600 (Central Standard Time),293032.5,063_y_f_n_a.png,O,z,535,13,1,1560.2999999998137,291472.2000000002,7049,NNB,A,12
13,test,3,0.0,1-Back,1,m,Mon Feb 17 2025 16:58:45 GMT-0600 (Central Standard Time),294865.2000000002,043_m_f_n_a.png,O,m,800,14,1,1826.8999999999069,293038.3000000003,7049,NNB,A,13
14,test,3,0.0,1-Back,1,m,Mon Feb 17 2025 16:58:45 GMT-0600 (Central Standard Time),296731.5,058_m_m_n_a.png,O,m,840,15,1,1860.1999999997206,294871.3000000003,7049,NNB,A,14
15,test,3,1.0,1-Back,1,z,Mon Feb 17 2025 16:58:45 GMT-0600 (Central Standard Time),298447.5,058_m_m_n_a.png,O,z,694,16,1,1710.0,296737.5,7049,NNB,A,15
16,test,3,0.0,1-Back,1,m,Mon Feb 17 2025 16:58:45 GMT-0600 (Central Standard Time),300391.3999999999,047_o_f_n_a.png,O,m,927,17,1,1937.8999999999069,298453.5,7049,NNB,A,16
17,test,3,1.0,1-Back,1,z,Mon Feb 17 2025 16:58:45 GMT-0600 (Central Standard Time),301929.8000000003,047_o_f_n_a.png,O,z,508,18,1,1532.0,300397.8000000003,7049,NNB,A,17
0,test,4,1.0,1-Back,,,Mon Feb 17 2025 16:58:45 GMT-0600 (Central Standard Time),301929.8000000003,050_m_f_n_a.png,O,space,2287,1,1,1532.0,300397.8000000003,7049,NNB,A,0
1,test,4,0.0,1-Back,1,m,Mon Feb 17 2025 16:58:45 GMT-0600 (Central Standard Time),308277.8999999999,046_o_m_n_a.png,O,m,1004,2,1,2026.8999999999069,306251.0,7049,NNB,A,1
2,test,4,0.0,1-Back,1,m,Mon Feb 17 2025 16:58:45 GMT-0600 (Central Standard Time),309977.2000000002,050_m_f_n_a.png,O,m,667,3,1,1693.7000000001863,308283.5,7049,NNB,A,2
3,test,4,0.0,1-Back,1,m,Mon Feb 17 2025 16:58:45 GMT-0600 (Central Standard Time),311593.2000000002,044_o_f_n_a.png,O,m,584,4,1,1610.1000000000931,309983.1000000001,7049,NNB,A,3
4,test,4,1.0,1-Back,1,z,Mon Feb 17 2025 16:58:45 GMT-0600 (Central Standard Time),313092.8999999999,044_o_f_n_a.png,O,z,472,5,1,1493.8999999999069,311599.0,7049,NNB,A,4
5,test,4,0.0,1-Back,1,m,Mon Feb 17 2025 16:58:45 GMT-0600 (Central Standard Time),314909.0,063_y_f_n_a.png,O,m,797,6,1,1810.1999999997206,313098.8000000003,7049,NNB,A,5
6,test,4,0.0,1-Back,1,m,Mon Feb 17 2025 16:58:45 GMT-0600 (Central Standard Time),316541.8999999999,041_y_m_n_a.png,O,m,604,7,1,1627.0,314914.8999999999,7049,NNB,A,6
7,test,4,1.0,1-Back,1,z,Mon Feb 17 2025 16:58:45 GMT-0600 (Central Standard Time),318191.2000000002,041_y_m_n_a.png,O,z,627,8,1,1643.1000000000931,316548.1000000001,7049,NNB,A,7
8,test,4,0.0,1-Back,1,m,Mon Feb 17 2025 16:58:45 GMT-0600 (Central Standard Time),319990.8000000003,063_y_f_n_a.png,O,m,777,9,1,1793.5,318197.3000000003,7049,NNB,A,8
9,test,4,0.0,1-Back,1,m,Mon Feb 17 2025 16:58:45 GMT-0600 (Central Standard Time),321973.5,045_m_m_n_a.png,O,m,954,10,1,1976.8999999999069,319996.6000000001,7049,NNB,A,9
10,test,4,1.0,1-Back,1,z,Mon Feb 17 2025 16:58:45 GMT-0600 (Central Standard Time),323523.2000000002,045_m_m_n_a.png,O,z,532,11,1,1543.8999999999069,321979.3000000003,7049,NNB,A,10
11,test,4,0.0,1-Back,1,m,Mon Feb 17 2025 16:58:45 GMT-0600 (Central Standard Time),325405.5,047_o_f_n_a.png,O,m,862,12,1,1876.2999999998137,323529.2000000002,7049,NNB,A,11
12,test,4,0.0,1-Back,1,m,Mon Feb 17 2025 16:58:45 GMT-0600 (Central Standard Time),327088.7000000002,053_o_m_n_a.png,O,m,660,13,1,1676.7000000001863,325412.0,7049,NNB,A,12
13,test,4,0.0,1-Back,1,m,Mon Feb 17 2025 16:58:45 GMT-0600 (Central Standard Time),328721.2000000002,047_o_f_n_a.png,O,m,609,14,1,1626.3000000002794,327094.8999999999,7049,NNB,A,13
14,test,4,0.0,1-Back,1,m,Mon Feb 17 2025 16:58:45 GMT-0600 (Central Standard Time),330487.3999999999,010_y_f_n_a.png,O,m,736,15,1,1759.8999999999069,328727.5,7049,NNB,A,14
15,test,4,1.0,1-Back,1,z,Mon Feb 17 2025 16:58:45 GMT-0600 (Central Standard Time),331937.0,010_y_f_n_a.png,O,z,426,16,1,1443.7999999998137,330493.2000000002,7049,NNB,A,15
16,test,4,0.0,1-Back,1,m,Mon Feb 17 2025 16:58:45 GMT-0600 (Central Standard Time),333719.7000000002,043_m_f_n_a.png,O,m,752,17,1,1776.7000000001863,331943.0,7049,NNB,A,16
17,test,4,1.0,1-Back,1,z,Mon Feb 17 2025 16:58:45 GMT-0600 (Central Standard Time),335186.3999999999,043_m_f_n_a.png,O,z,441,18,1,1460.5,333725.8999999999,7049,NNB,A,17
0,test,5,1.0,1-Back,,,Mon Feb 17 2025 16:58:45 GMT-0600 (Central Standard Time),335186.3999999999,053_o_m_n_a.png,O,space,2463,1,1,1460.5,333725.8999999999,7049,NNB,A,0
1,test,5,1.0,1-Back,1,z,Mon Feb 17 2025 16:58:45 GMT-0600 (Central Standard Time),341184.3000000003,053_o_m_n_a.png,O,z,485,2,1,1510.0,339674.3000000003,7049,NNB,A,1
2,test,5,0.0,1-Back,1,m,Mon Feb 17 2025 16:58:45 GMT-0600 (Central Standard Time),342966.8999999999,063_y_f_n_a.png,O,m,753,3,1,1776.5999999996275,341190.3000000003,7049,NNB,A,2
3,test,5,0.0,1-Back,1,m,Mon Feb 17 2025 16:58:45 GMT-0600 (Central Standard Time),344916.3999999999,041_y_m_n_a.png,O,m,929,4,1,1943.7999999998137,342972.6000000001,7049,NNB,A,3
4,test,5,0.0,1-Back,1,m,Mon Feb 17 2025 16:58:45 GMT-0600 (Central Standard Time),346865.8999999999,063_y_f_n_a.png,O,m,917,5,1,1943.5,344922.3999999999,7049,NNB,A,4
5,test,5,0.0,1-Back,1,m,Mon Feb 17 2025 16:58:45 GMT-0600 (Central Standard Time),348498.3999999999,058_m_m_n_a.png,O,m,607,6,1,1626.7999999998137,346871.6000000001,7049,NNB,A,5
6,test,5,1.0,1-Back,1,z,Mon Feb 17 2025 16:58:45 GMT-0600 (Central Standard Time),350048.1000000001,058_m_m_n_a.png,O,z,527,7,1,1543.7000000001863,348504.3999999999,7049,NNB,A,6
7,test,5,0.0,1-Back,1,m,Mon Feb 17 2025 16:58:45 GMT-0600 (Central Standard Time),351830.7000000002,010_y_f_n_a.png,O,m,753,8,1,1776.7000000001863,350054.0,7049,NNB,A,7
8,test,5,0.0,1-Back,1,m,Mon Feb 17 2025 16:58:45 GMT-0600 (Central Standard Time),353463.5,008_y_m_n_a.png,O,m,610,9,1,1626.5,351837.0,7049,NNB,A,8
9,test,5,0.0,1-Back,1,m,Mon Feb 17 2025 16:58:45 GMT-0600 (Central Standard Time),355163.0,010_y_f_n_a.png,O,m,674,10,1,1693.1000000000931,353469.8999999999,7049,NNB,A,9
10,test,5,0.0,1-Back,1,m,Mon Feb 17 2025 16:58:45 GMT-0600 (Central Standard Time),356846.0,047_o_f_n_a.png,O,m,654,11,1,1677.1000000000931,355168.8999999999,7049,NNB,A,10
11,test,5,1.0,1-Back,1,z,Mon Feb 17 2025 16:58:45 GMT-0600 (Central Standard Time),358328.8000000003,047_o_f_n_a.png,O,z,451,12,1,1476.9000000003725,356851.8999999999,7049,NNB,A,11
12,test,5,0.0,1-Back,1,m,Mon Feb 17 2025 16:58:45 GMT-0600 (Central Standard Time),360228.1000000001,046_o_m_n_a.png,O,m,872,13,1,1893.5,358334.6000000001,7049,NNB,A,12
13,test,5,0.0,1-Back,1,m,Mon Feb 17 2025 16:58:45 GMT-0600 (Central Standard Time),361927.7000000002,050_m_f_n_a.png,O,m,669,14,1,1693.8999999999069,360233.8000000003,7049,NNB,A,13
13,test,5,1.0,1-Back,0,z,Mon Feb 17 2025 16:58:45 GMT-0600 (Central Standard Time),363527.3000000003,050_m_f_n_a.png,O,m,570,15,1,1593.5,361933.8000000003,7049,NNB,A,14
14,test,5,0.0,1-Back,1,m,Mon Feb 17 2025 16:58:45 GMT-0600 (Central Standard Time),366042.7000000002,046_o_m_n_a.png,O,m,1498,16,1,2509.600000000093,363533.1000000001,7049,NNB,A,15
15,test,5,0.0,1-Back,1,m,Mon Feb 17 2025 16:58:45 GMT-0600 (Central Standard Time),368258.8000000003,043_m_f_n_a.png,O,m,1198,17,1,2210.4000000003725,366048.3999999999,7049,NNB,A,16
16,test,5,0.0,1-Back,1,m,Mon Feb 17 2025 16:58:45 GMT-0600 (Central Standard Time),369908.5,045_m_m_n_a.png,O,m,630,18,1,1643.8999999999069,368264.6000000001,7049,NNB,A,17
0,prac,1,0.0,2-Back,,,Mon Feb 17 2025 16:58:45 GMT-0600 (Central Standard Time),369908.5,008_y_m_n_a.png,O,space,11688,1,1,1643.8999999999069,368264.6000000001,7049,NNB,A,0
0,prac,1,0.0,2-Back,,,Mon Feb 17 2025 16:58:45 GMT-0600 (Central Standard Time),369908.5,043_m_f_n_a.png,O,space,11688,2,1,1643.8999999999069,368264.6000000001,7049,NNB,A,0
1,prac,1,1.0,2-Back,1,m,Mon Feb 17 2025 16:58:45 GMT-0600 (Central Standard Time),484789.3000000003,046_o_m_n_a.png,O,m,1481,3,1,2276.0,482513.3000000003,7049,NNB,A,1
2,prac,1,0.0,2-Back,1,m,Mon Feb 17 2025 16:58:45 GMT-0600 (Central Standard Time),487421.8999999999,047_o_f_n_a.png,O,m,1789,4,1,2625.399999999907,484796.5,7049,NNB,A,2
3,prac,1,0.0,2-Back,1,z,Mon Feb 17 2025 16:58:45 GMT-0600 (Central Standard Time),489720.8999999999,046_o_m_n_a.png,O,z,1517,5,1,2291.899999999907,487429.0,7049,NNB,A,3
3,prac,1,1.0,2-Back,0,z,Mon Feb 17 2025 16:58:45 GMT-0600 (Central Standard Time),492503.3999999999,047_o_f_n_a.png,O,None,2008,6,1,2775.1999999997206,489728.2000000002,7049,NNB,A,4
4,prac,1,0.0,2-Back,1,m,Mon Feb 17 2025 16:58:45 GMT-0600 (Central Standard Time),494719.2000000002,045_m_m_n_a.png,O,m,1403,7,1,2208.7000000001863,492510.5,7049,NNB,A,5
5,prac,1,0.0,2-Back,1,m,Mon Feb 17 2025 16:58:45 GMT-0600 (Central Standard Time),496368.8000000003,053_o_m_n_a.png,O,m,827,8,1,1641.2000000001863,494727.6000000001,7049,NNB,A,6
6,prac,1,0.0,2-Back,1,m,Mon Feb 17 2025 16:58:45 GMT-0600 (Central Standard Time),498701.5,010_y_f_n_a.png,O,m,1494,9,1,2325.5,496376.0,7049,NNB,A,7
7,prac,1,1.0,2-Back,1,z,Mon Feb 17 2025 16:58:45 GMT-0600 (Central Standard Time),500217.8000000003,053_o_m_n_a.png,O,z,733,10,1,1509.4000000003725,498708.3999999999,7049,NNB,A,8
8,prac,1,0.0,2-Back,1,m,Mon Feb 17 2025 16:58:45 GMT-0600 (Central Standard Time),502233.7000000002,063_y_f_n_a.png,O,m,1210,11,1,2008.8999999999069,500224.8000000003,7049,NNB,A,9
9,prac,1,0.0,2-Back,1,m,Mon Feb 17 2025 16:58:45 GMT-0600 (Central Standard Time),504116.5,045_m_m_n_a.png,O,m,1097,12,1,1875.7999999998137,502240.7000000002,7049,NNB,A,10
0,test,1,0.0,2-Back,,,Mon Feb 17 2025 16:58:45 GMT-0600 (Central Standard Time),504116.5,041_y_m_n_a.png,O,space,12816,1,1,1875.7999999998137,502240.7000000002,7049,NNB,A,0
0,test,1,0.0,2-Back,,,Mon Feb 17 2025 16:58:45 GMT-0600 (Central Standard Time),504116.5,041_y_m_n_a.png,O,space,12816,2,1,1875.7999999998137,502240.7000000002,7049,NNB,A,0
1,test,1,0.0,2-Back,1,m,Mon Feb 17 2025 16:58:45 GMT-0600 (Central Standard Time),531408.0,047_o_f_n_a.png,O,m,1335,3,1,2360.2999999998137,529047.7000000002,7049,NNB,A,1
2,test,1,0.0,2-Back,1,m,Mon Feb 17 2025 16:58:45 GMT-0600 (Central Standard Time),534257.1000000001,058_m_m_n_a.png,O,m,1818,4,1,2842.7999999998137,531414.3000000003,7049,NNB,A,2
3,test,1,1.0,2-Back,1,z,Mon Feb 17 2025 16:58:45 GMT-0600 (Central Standard Time),535773.2000000002,047_o_f_n_a.png,O,z,496,5,1,1509.8000000002794,534263.3999999999,7049,NNB,A,3
4,test,1,0.0,2-Back,1,m,Mon Feb 17 2025 16:58:45 GMT-0600 (Central Standard Time),537939.2000000002,063_y_f_n_a.png,O,m,1006,6,1,2023.5,535915.7000000002,7049,NNB,A,4
4,test,1,0.0,2-Back,0,m,Mon Feb 17 2025 16:58:45 GMT-0600 (Central Standard Time),539505.3000000003,058_m_m_n_a.png,O,z,542,7,1,1560.0,537945.3000000003,7049,NNB,A,5
4,test,1,1.0,2-Back,0,z,Mon Feb 17 2025 16:58:45 GMT-0600 (Central Standard Time),541987.8000000003,063_y_f_n_a.png,O,m,1464,8,1,2476.4000000003725,539511.3999999999,7049,NNB,A,6
5,test,1,0.0,2-Back,1,m,Mon Feb 17 2025 16:58:45 GMT-0600 (Central Standard Time),544253.8999999999,008_y_m_n_a.png,O,m,1245,9,1,2260.0999999996275,541993.8000000003,7049,NNB,A,7
6,test,1,0.0,2-Back,1,m,Mon Feb 17 2025 16:58:45 GMT-0600 (Central Standard Time),546636.2000000002,044_o_f_n_a.png,O,m,1355,10,1,2375.8000000002794,544260.3999999999,7049,NNB,A,8
7,test,1,1.0,2-Back,1,z,Mon Feb 17 2025 16:58:45 GMT-0600 (Central Standard Time),548852.1000000001,008_y_m_n_a.png,O,z,1197,11,1,2209.7000000001863,546642.3999999999,7049,NNB,A,9
8,test,1,0.0,2-Back,1,m,Mon Feb 17 2025 16:58:45 GMT-0600 (Central Standard Time),551018.3000000003,043_m_f_n_a.png,O,m,1141,12,1,2159.8000000002794,548858.5,7049,NNB,A,10
9,test,1,0.0,2-Back,1,m,Mon Feb 17 2025 16:58:45 GMT-0600 (Central Standard Time),553734.2000000002,043_m_f_n_a.png,O,m,1695,13,1,2709.899999999907,551024.3000000003,7049,NNB,A,11
10,test,1,0.0,2-Back,1,m,Mon Feb 17 2025 16:58:45 GMT-0600 (Central Standard Time),555883.3999999999,046_o_m_n_a.png,O,m,1123,14,1,2143.0999999996275,553740.3000000003,7049,NNB,A,12
11,test,1,0.0,2-Back,1,m,Mon Feb 17 2025 16:58:45 GMT-0600 (Central Standard Time),558582.5,044_o_f_n_a.png,O,m,1677,15,1,2693.1999999997206,555889.3000000003,7049,NNB,A,13
11,test,1,1.0,2-Back,0,z,Mon Feb 17 2025 16:58:45 GMT-0600 (Central Standard Time),560498.8000000003,046_o_m_n_a.png,O,m,891,16,1,1910.0,558588.8000000003,7049,NNB,A,14
12,test,1,0.0,2-Back,1,m,Mon Feb 17 2025 16:58:45 GMT-0600 (Central Standard Time),562631.5,050_m_f_n_a.png,O,m,1102,17,1,2126.5,560505.0,7049,NNB,A,15
13,test,1,0.0,2-Back,1,m,Mon Feb 17 2025 16:58:45 GMT-0600 (Central Standard Time),565313.8000000003,045_m_m_n_a.png,O,m,1658,18,1,2676.3000000002794,562637.5,7049,NNB,A,16
0,test,2,0.0,2-Back,,,Mon Feb 17 2025 16:58:45 GMT-0600 (Central Standard Time),565313.8000000003,045_m_m_n_a.png,O,space,1583,1,1,2676.3000000002794,562637.5,7049,NNB,A,0
0,test,2,0.0,2-Back,,,Mon Feb 17 2025 16:58:45 GMT-0600 (Central Standard Time),565313.8000000003,010_y_f_n_a.png,O,space,1583,2,1,2676.3000000002794,562637.5,7049,NNB,A,0
0,test,2,1.0,2-Back,0,z,Mon Feb 17 2025 16:58:45 GMT-0600 (Central Standard Time),573778.0,045_m_m_n_a.png,O,m,741,3,1,1760.1000000000931,572017.8999999999,7049,NNB,A,1
0,test,2,0.0,2-Back,0,m,Mon Feb 17 2025 16:58:45 GMT-0600 (Central Standard Time),576810.3999999999,050_m_f_n_a.png,O,None,2015,4,1,3026.0,573784.3999999999,7049,NNB,A,2
1,test,2,0.0,2-Back,1,m,Mon Feb 17 2025 16:58:45 GMT-0600 (Central Standard Time),579376.2000000002,010_y_f_n_a.png,O,m,1535,5,1,2559.7000000001863,576816.5,7049,NNB,A,3
2,test,2,0.0,2-Back,1,m,Mon Feb 17 2025 16:58:45 GMT-0600 (Central Standard Time),581825.6000000001,046_o_m_n_a.png,O,m,1417,6,1,2443.399999999907,579382.2000000002,7049,NNB,A,4
2,test,2,0.0,2-Back,0,m,Mon Feb 17 2025 16:58:45 GMT-0600 (Central Standard Time),583741.2000000002,063_y_f_n_a.png,O,z,876,7,1,1909.3999999999069,581831.8000000003,7049,NNB,A,5
2,test,2,1.0,2-Back,0,z,Mon Feb 17 2025 16:58:45 GMT-0600 (Central Standard Time),586424.0,046_o_m_n_a.png,O,m,1652,8,1,2677.100000000093,583746.8999999999,7049,NNB,A,6
3,test,2,0.0,2-Back,1,m,Mon Feb 17 2025 16:58:45 GMT-0600 (Central Standard Time),588689.8999999999,008_y_m_n_a.png,O,m,1233,9,1,2259.7999999998137,586430.1000000001,7049,NNB,A,7
4,test,2,0.0,2-Back,1,m,Mon Feb 17 2025 16:58:45 GMT-0600 (Central Standard Time),590706.3999999999,008_y_m_n_a.png,O,m,999,10,1,2010.2999999998137,588696.1000000001,7049,NNB,A,8
5,test,2,0.0,2-Back,1,m,Mon Feb 17 2025 16:58:45 GMT-0600 (Central Standard Time),592938.7000000002,043_m_f_n_a.png,O,m,1199,11,1,2226.100000000093,590712.6000000001,7049,NNB,A,9
6,test,2,0.0,2-Back,1,m,Mon Feb 17 2025 16:58:45 GMT-0600 (Central Standard Time),594971.5,010_y_f_n_a.png,O,m,1006,12,1,2026.5,592945.0,7049,NNB,A,10
7,test,2,1.0,2-Back,1,z,Mon Feb 17 2025 16:58:45 GMT-0600 (Central Standard Time),596754.1000000001,043_m_f_n_a.png,O,z,758,13,1,1776.1000000000931,594978.0,7049,NNB,A,11
8,test,2,0.0,2-Back,1,m,Mon Feb 17 2025 16:58:45 GMT-0600 (Central Standard Time),599120.0,053_o_m_n_a.png,O,m,1343,14,1,2359.7999999998137,596760.2000000002,7049,NNB,A,12
9,test,2,0.0,2-Back,1,m,Mon Feb 17 2025 16:58:45 GMT-0600 (Central Standard Time),601402.6000000001,053_o_m_n_a.png,O,m,1250,15,1,2276.2999999998137,599126.3000000003,7049,NNB,A,13
10,test,2,0.0,2-Back,1,m,Mon Feb 17 2025 16:58:45 GMT-0600 (Central Standard Time),603751.8999999999,044_o_f_n_a.png,O,m,1318,16,1,2343.1999999997206,601408.7000000002,7049,NNB,A,14
11,test,2,0.0,2-Back,1,m,Mon Feb 17 2025 16:58:45 GMT-0600 (Central Standard Time),606396.1000000001,058_m_m_n_a.png,O,m,1489,17,1,2638.2000000001863,603757.8999999999,7049,NNB,A,15
12,test,2,1.0,2-Back,1,z,Mon Feb 17 2025 16:58:45 GMT-0600 (Central Standard Time),608133.7000000002,044_o_f_n_a.png,O,z,712,18,1,1730.2000000001863,606403.5,7049,NNB,A,16
0,test,3,1.0,2-Back,,,Mon Feb 17 2025 16:58:45 GMT-0600 (Central Standard Time),608133.7000000002,041_y_m_n_a.png,O,space,2148,1,1,1730.2000000001863,606403.5,7049,NNB,A,0
0,test,3,1.0,2-Back,,,Mon Feb 17 2025 16:58:45 GMT-0600 (Central Standard Time),608133.7000000002,041_y_m_n_a.png,O,space,2148,2,1,1730.2000000001863,606403.5,7049,NNB,A,0
1,test,3,0.0,2-Back,1,m,Mon Feb 17 2025 16:58:45 GMT-0600 (Central Standard Time),617797.5,044_o_f_n_a.png,O,m,1421,3,1,2442.899999999907,615354.6000000001,7049,NNB,A,1
2,test,3,0.0,2-Back,1,m,Mon Feb 17 2025 16:58:45 GMT-0600 (Central Standard Time),620213.5,045_m_m_n_a.png,O,m,1388,4,1,2409.6999999997206,617803.8000000003,7049,NNB,A,2
3,test,3,1.0,2-Back,1,z,Mon Feb 17 2025 16:58:45 GMT-0600 (Central Standard Time),622196.2000000002,044_o_f_n_a.png,O,z,964,5,1,1976.2000000001863,620220.0,7049,NNB,A,3
4,test,3,0.0,2-Back,1,m,Mon Feb 17 2025 16:58:45 GMT-0600 (Central Standard Time),624612.0,008_y_m_n_a.png,O,m,1397,6,1,2410.0,622202.0,7049,NNB,A,4
4,test,3,0.0,2-Back,0,m,Mon Feb 17 2025 16:58:45 GMT-0600 (Central Standard Time),626978.0,045_m_m_n_a.png,O,z,1341,7,1,2359.5,624618.5,7049,NNB,A,5
4,test,3,1.0,2-Back,0,z,Mon Feb 17 2025 16:58:45 GMT-0600 (Central Standard Time),630088.0,008_y_m_n_a.png,O,None,2093,8,1,3104.399999999907,626983.6000000001,7049,NNB,A,6
5,test,3,0.0,2-Back,1,m,Mon Feb 17 2025 16:58:45 GMT-0600 (Central Standard Time),632526.2000000002,010_y_f_n_a.png,O,m,1411,9,1,2431.399999999907,630094.8000000003,7049,NNB,A,7
6,test,3,0.0,2-Back,1,m,Mon Feb 17 2025 16:58:45 GMT-0600 (Central Standard Time),634509.0,058_m_m_n_a.png,O,m,963,10,1,1976.5,632532.5,7049,NNB,A,8
7,test,3,1.0,2-Back,1,z,Mon Feb 17 2025 16:58:45 GMT-0600 (Central Standard Time),636208.2000000002,010_y_f_n_a.png,O,z,668,11,1,1693.3999999999069,634514.8000000003,7049,NNB,A,9
7,test,3,1.0,2-Back,0,z,Mon Feb 17 2025 16:58:45 GMT-0600 (Central Standard Time),638774.2000000002,058_m_m_n_a.png,O,m,1537,12,1,2559.3000000002794,636214.8999999999,7049,NNB,A,10
8,test,3,0.0,2-Back,1,m,Mon Feb 17 2025 16:58:45 GMT-0600 (Central Standard Time),640657.0,044_o_f_n_a.png,O,m,859,13,1,1876.3999999999069,638780.6000000001,7049,NNB,A,11
9,test,3,0.0,2-Back,1,m,Mon Feb 17 2025 16:58:45 GMT-0600 (Central Standard Time),642756.2000000002,050_m_f_n_a.png,O,m,1072,14,1,2092.600000000093,640663.6000000001,7049,NNB,A,12
10,test,3,0.0,2-Back,1,m,Mon Feb 17 2025 16:58:45 GMT-0600 (Central Standard Time),644789.1000000001,046_o_m_n_a.png,O,m,1013,15,1,2027.0,642762.1000000001,7049,NNB,A,13
11,test,3,1.0,2-Back,1,z,Mon Feb 17 2025 16:58:45 GMT-0600 (Central Standard Time),646771.7000000002,050_m_f_n_a.png,O,z,956,16,1,1976.3999999999069,644795.3000000003,7049,NNB,A,14
12,test,3,0.0,2-Back,1,m,Mon Feb 17 2025 16:58:45 GMT-0600 (Central Standard Time),649037.7000000002,047_o_f_n_a.png,O,m,1237,17,1,2260.0,646777.7000000002,7049,NNB,A,15
13,test,3,0.0,2-Back,1,m,Mon Feb 17 2025 16:58:45 GMT-0600 (Central Standard Time),651786.8999999999,047_o_f_n_a.png,O,m,1723,18,1,2743.0999999996275,649043.8000000003,7049,NNB,A,16
0,test,4,0.0,2-Back,,,Mon Feb 17 2025 16:58:45 GMT-0600 (Central Standard Time),651786.8999999999,053_o_m_n_a.png,O,space,1334,1,1,2743.0999999996275,649043.8000000003,7049,NNB,A,0
0,test,4,0.0,2-Back,,,Mon Feb 17 2025 16:58:45 GMT-0600 (Central Standard Time),651786.8999999999,063_y_f_n_a.png,O,space,1334,2,1,2743.0999999996275,649043.8000000003,7049,NNB,A,0
1,test,4,1.0,2-Back,1,z,Mon Feb 17 2025 16:58:45 GMT-0600 (Central Standard Time),660218.5,053_o_m_n_a.png,O,z,950,3,1,1977.2999999998137,658241.2000000002,7049,NNB,A,1
1,test,4,1.0,2-Back,0,z,Mon Feb 17 2025 16:58:45 GMT-0600 (Central Standard Time),662866.8000000003,063_y_f_n_a.png,O,m,1623,4,1,2641.8000000002794,660225.0,7049,NNB,A,2
2,test,4,0.0,2-Back,1,m,Mon Feb 17 2025 16:58:45 GMT-0600 (Central Standard Time),664882.6000000001,044_o_f_n_a.png,O,m,998,5,1,2009.2999999998137,662873.3000000003,7049,NNB,A,3
2,test,4,0.0,2-Back,0,m,Mon Feb 17 2025 16:58:45 GMT-0600 (Central Standard Time),667265.2000000002,044_o_f_n_a.png,O,z,1358,6,1,2376.399999999907,664888.8000000003,7049,NNB,A,4
3,test,4,0.0,2-Back,1,m,Mon Feb 17 2025 16:58:45 GMT-0600 (Central Standard Time),669398.1000000001,043_m_f_n_a.png,O,m,1104,7,1,2126.899999999907,667271.2000000002,7049,NNB,A,5
4,test,4,0.0,2-Back,1,m,Mon Feb 17 2025 16:58:45 GMT-0600 (Central Standard Time),671264.3999999999,008_y_m_n_a.png,O,m,835,8,1,1860.0999999996275,669404.3000000003,7049,NNB,A,6
5,test,4,1.0,2-Back,1,z,Mon Feb 17 2025 16:58:45 GMT-0600 (Central Standard Time),673213.5,043_m_f_n_a.png,O,z,921,9,1,1943.2999999998137,671270.2000000002,7049,NNB,A,7
6,test,4,0.0,2-Back,1,m,Mon Feb 17 2025 16:58:45 GMT-0600 (Central Standard Time),675362.5,058_m_m_n_a.png,O,m,1132,10,1,2142.899999999907,673219.6000000001,7049,NNB,A,8
6,test,4,0.0,2-Back,0,m,Mon Feb 17 2025 16:58:45 GMT-0600 (Central Standard Time),677173.2000000002,008_y_m_n_a.png,O,z,793,11,1,1804.0,675369.2000000002,7049,NNB,A,9
7,test,4,0.0,2-Back,1,m,Mon Feb 17 2025 16:58:45 GMT-0600 (Central Standard Time),679328.2000000002,047_o_f_n_a.png,O,m,1118,12,1,2148.3000000002794,677179.8999999999,7049,NNB,A,10
8,test,4,0.0,2-Back,1,m,Mon Feb 17 2025 16:58:45 GMT-0600 (Central Standard Time),681344.2000000002,041_y_m_n_a.png,O,m,985,13,1,2010.0,679334.2000000002,7049,NNB,A,11
9,test,4,1.0,2-Back,1,z,Mon Feb 17 2025 16:58:45 GMT-0600 (Central Standard Time),682877.1000000001,047_o_f_n_a.png,O,z,505,14,1,1526.7000000001863,681350.3999999999,7049,NNB,A,12
10,test,4,1.0,2-Back,1,z,Mon Feb 17 2025 16:58:45 GMT-0600 (Central Standard Time),685426.3999999999,041_y_m_n_a.png,O,z,1531,15,1,2543.2999999998137,682883.1000000001,7049,NNB,A,13
11,test,4,0.0,2-Back,1,m,Mon Feb 17 2025 16:58:45 GMT-0600 (Central Standard Time),687409.0,045_m_m_n_a.png,O,m,959,16,1,1976.2999999998137,685432.7000000002,7049,NNB,A,14
12,test,4,0.0,2-Back,1,m,Mon Feb 17 2025 16:58:45 GMT-0600 (Central Standard Time),689541.7000000002,050_m_f_n_a.png,O,m,1104,17,1,2126.399999999907,687415.3000000003,7049,NNB,A,15
13,test,4,1.0,2-Back,1,z,Mon Feb 17 2025 16:58:45 GMT-0600 (Central Standard Time),691024.6000000001,045_m_m_n_a.png,O,z,451,18,1,1476.5,689548.1000000001,7049,NNB,A,16
0,test,5,1.0,2-Back,,,Mon Feb 17 2025 16:58:45 GMT-0600 (Central Standard Time),691024.6000000001,041_y_m_n_a.png,O,space,1857,1,1,1476.5,689548.1000000001,7049,NNB,A,0
0,test,5,1.0,2-Back,,,Mon Feb 17 2025 16:58:45 GMT-0600 (Central Standard Time),691024.6000000001,050_m_f_n_a.png,O,space,1857,2,1,1476.5,689548.1000000001,7049,NNB,A,0
1,test,5,1.0,2-Back,1,z,Mon Feb 17 2025 16:58:45 GMT-0600 (Central Standard Time),700021.8999999999,041_y_m_n_a.png,O,z,1062,3,1,2077.0,697944.8999999999,7049,NNB,A,1
2,test,5,1.0,2-Back,1,z,Mon Feb 17 2025 16:58:45 GMT-0600 (Central Standard Time),701987.8000000003,050_m_f_n_a.png,O,z,948,4,1,1959.7000000001863,700028.1000000001,7049,NNB,A,2
3,test,5,0.0,2-Back,1,m,Mon Feb 17 2025 16:58:45 GMT-0600 (Central Standard Time),704270.1999999997,047_o_f_n_a.png,O,m,1253,5,1,2276.5999999996275,701993.6000000001,7049,NNB,A,3
4,test,5,0.0,2-Back,1,m,Mon Feb 17 2025 16:58:45 GMT-0600 (Central Standard Time),706903.0000000005,041_y_m_n_a.png,O,m,1603,6,1,2626.7000000001863,704276.3000000003,7049,NNB,A,4
5,test,5,0.0,2-Back,1,m,Mon Feb 17 2025 16:58:45 GMT-0600 (Central Standard Time),709035.5000000005,010_y_f_n_a.png,O,m,1106,7,1,2126.2000000001863,706909.3000000003,7049,NNB,A,5
5,test,5,0.0,2-Back,0,m,Mon Feb 17 2025 16:58:45 GMT-0600 (Central Standard Time),711318.3000000003,047_o_f_n_a.png,O,z,1261,8,1,2276.7999999998137,709041.5000000005,7049,NNB,A,6
6,test,5,1.0,2-Back,1,z,Mon Feb 17 2025 16:58:45 GMT-0600 (Central Standard Time),713234.1999999997,010_y_f_n_a.png,O,z,883,9,1,1909.5999999996275,711324.6000000001,7049,NNB,A,7
7,test,5,0.0,2-Back,1,m,Mon Feb 17 2025 16:58:45 GMT-0600 (Central Standard Time),715333.5000000005,046_o_m_n_a.png,O,m,1079,10,1,2092.9000000003725,713240.6000000001,7049,NNB,A,8
8,test,5,0.0,2-Back,1,m,Mon Feb 17 2025 16:58:45 GMT-0600 (Central Standard Time),717332.8999999999,043_m_f_n_a.png,O,m,979,11,1,1993.2999999998137,715339.6000000001,7049,NNB,A,9
9,test,5,0.0,2-Back,1,m,Mon Feb 17 2025 16:58:45 GMT-0600 (Central Standard Time),719299.0000000005,058_m_m_n_a.png,O,m,940,12,1,1959.6000000005588,717339.3999999999,7049,NNB,A,10
10,test,5,0.0,2-Back,1,m,Mon Feb 17 2025 16:58:45 GMT-0600 (Central Standard Time),721114.8999999999,046_o_m_n_a.png,O,m,798,13,1,1809.5,719305.3999999999,7049,NNB,A,11
10,test,5,1.0,2-Back,0,z,Mon Feb 17 2025 16:58:45 GMT-0600 (Central Standard Time),723364.3000000003,058_m_m_n_a.png,O,m,1222,14,1,2243.5,721120.8000000003,7049,NNB,A,12
11,test,5,0.0,2-Back,1,m,Mon Feb 17 2025 16:58:45 GMT-0600 (Central Standard Time),725363.8999999999,063_y_f_n_a.png,O,m,981,15,1,1993.2000000001863,723370.6999999997,7049,NNB,A,13
12,test,5,0.0,2-Back,1,m,Mon Feb 17 2025 16:58:45 GMT-0600 (Central Standard Time),727279.8000000003,053_o_m_n_a.png,O,m,885,16,1,1909.9000000003725,725369.8999999999,7049,NNB,A,14
13,test,5,0.0,2-Back,1,m,Mon Feb 17 2025 16:58:45 GMT-0600 (Central Standard Time),729929.0000000005,043_m_f_n_a.png,O,m,1618,17,1,2643.100000000559,727285.8999999999,7049,NNB,A,15
14,test,5,1.0,2-Back,1,z,Mon Feb 17 2025 16:58:45 GMT-0600 (Central Standard Time),731895.1999999997,053_o_m_n_a.png,O,z,944,18,1,1960.0999999996275,729935.1000000001,7049,NNB,A,16
