acc_sum,block_c,block_dur,condition,correct,correct_response,countdown,datetime,endtime,project,response,response_time,response_time_test1_response,response_time_test2_response,row_sel,same,session_number,start_end,starttime,stim1,stim2,subject_id,task,task_vers,time_test1,time_test2,trial
0,1,0.0,prac,0,m,30000.0,Mon Mar 31 2025 11:46:46 GMT-0400 (Eastern Daylight Time),29975.60000038147,I,z,1968,,,5,no,1,3490.6000003814697,26485.0,LNDPRSKQB,LNDPRSJQB,9013,LC,A,,,1
1,1,0.0,prac,1,z,30000.0,Mon Mar 31 2025 11:46:46 GMT-0400 (Eastern Daylight Time),32625.400000095367,I,z,1109,,,4,yes,1,2641.0,29984.400000095367,RSM,RSM,9013,LC,A,,,2
2,1,0.0,prac,1,z,30000.0,Mon Mar 31 2025 11:46:46 GMT-0400 (Eastern Daylight Time),35858.7000002861,I,z,1689,,,2,yes,1,3222.9000000953674,32635.800000190735,NBGFSM,NBGFSM,9013,LC,A,,,3
3,1,0.0,prac,1,m,30000.0,Mon Mar 31 2025 11:46:46 GMT-0400 (Eastern Daylight Time),39158.7000002861,I,m,1767,,,3,no,1,3290.300000190735,35868.40000009537,QHZXPC,QHZWPC,9013,LC,A,,,4
3,1,0.0,prac,0,m,30000.0,Mon Mar 31 2025 11:46:46 GMT-0400 (Eastern Daylight Time),41691.90000009537,I,z,997,,,1,no,1,2524.0,39167.90000009537,RNV,FNV,9013,LC,A,,,5
4,1,0.0,prac,1,z,30000.0,Mon Mar 31 2025 11:46:46 GMT-0400 (Eastern Daylight Time),45808.5,I,z,2577,,,6,yes,1,4108.099999904633,41700.40000009537,CSDBFPHXZ,CSDBFPHXZ,9013,LC,A,,,6
1,1,1.0999999046325684,test,1,m,28900.00009536743,Mon Mar 31 2025 11:46:46 GMT-0400 (Eastern Daylight Time),54525.7000002861,I,m,1085,1085,,1,no,1,1093.0,53432.7000002861,HCF,RCF,9013,LC,A,51490,,1
2,1,2.8999998569488525,test,1,m,27100.000143051147,Mon Mar 31 2025 11:46:46 GMT-0400 (Eastern Daylight Time),56325.7000002861,I,m,1776,1776,,2,no,1,1792.5,54533.2000002861,QTPRJX,QTPNJX,9013,LC,A,52591,,2
3,1,5.5329999923706055,test,1,m,24467.000007629395,Mon Mar 31 2025 11:46:46 GMT-0400 (Eastern Daylight Time),58958.7000002861,I,m,2610,2610,,3,no,1,2621.5999999046326,56337.10000038147,MZDYGVGKQ,MZDYGLBKQ,9013,LC,A,54397,,3
4,1,6.58299994468689,test,1,m,23417.00005531311,Mon Mar 31 2025 11:46:46 GMT-0400 (Eastern Daylight Time),60008.7000002861,I,m,1038,1038,,4,no,1,1041.8000001907349,58966.90000009537,FQTNMK,JQTNMK,9013,LC,A,57025,,4
5,1,7.916999816894531,test,1,z,22083.00018310547,Mon Mar 31 2025 11:46:46 GMT-0400 (Eastern Daylight Time),61341.90000009537,I,z,1317,1317,,5,yes,1,1325.6999998092651,60016.2000002861,CLJ,CLJ,9013,LC,A,58074,,5
6,1,9.399999856948853,test,1,m,20600.000143051147,Mon Mar 31 2025 11:46:46 GMT-0400 (Eastern Daylight Time),62825.300000190735,I,m,1471,1471,,6,no,1,1475.4000000953674,61349.90000009537,JGDMNSVPW,JGZMNSVPW,9013,LC,A,59408,,6
7,1,11.482999801635742,test,1,z,18517.000198364258,Mon Mar 31 2025 11:46:46 GMT-0400 (Eastern Daylight Time),64908.60000038147,I,z,2069,2069,,7,yes,1,2076.5,62832.10000038147,FPTVHKCBJ,FPTVHKCBJ,9013,LC,A,60890,,7
8,1,12.916999816894531,test,1,m,17083.00018310547,Mon Mar 31 2025 11:46:46 GMT-0400 (Eastern Daylight Time),66342.5,I,m,1423,1423,,8,no,1,1424.1999998092651,64918.300000190735,XRPZBS,ZRPBDH,9013,LC,A,62976,,8
9,1,14.182999849319458,test,1,m,15817.000150680542,Mon Mar 31 2025 11:46:46 GMT-0400 (Eastern Daylight Time),67608.7000002861,I,m,1255,1255,,9,no,1,1258.5,66350.2000002861,ZSQ,ZSP,9013,LC,A,64408,,9
10,1,16.33299994468689,test,1,z,13667.00005531311,Mon Mar 31 2025 11:46:46 GMT-0400 (Eastern Daylight Time),69758.30000019073,I,z,2132,2132,,10,yes,1,2142.5,67615.80000019073,MPZRXL,MPZRXL,9013,LC,A,65674,,10
11,1,17.615999937057495,test,1,m,12384.000062942505,Mon Mar 31 2025 11:46:46 GMT-0400 (Eastern Daylight Time),71041.60000038147,I,m,1263,1263,,11,no,1,1276.3000001907349,69765.30000019073,KJH,KRH,9013,LC,A,67823,,11
12,1,19.782999992370605,test,1,z,10217.000007629395,Mon Mar 31 2025 11:46:46 GMT-0400 (Eastern Daylight Time),73208.7000002861,I,z,2157,2157,,12,yes,1,2161.300000190735,71047.40000009537,SMNHVTFCB,SMNHVTFCB,9013,LC,A,69105,,12
12,1,20.75,test,0,z,9250.0,Mon Mar 31 2025 11:46:46 GMT-0400 (Eastern Daylight Time),74175.40000009537,I,m,948,948,,13,yes,1,958.5999999046326,73216.80000019073,KJWTQF,KJWTQF,9013,LC,A,71275,,13
13,1,23.566999912261963,test,1,z,6433.000087738037,Mon Mar 31 2025 11:46:46 GMT-0400 (Eastern Daylight Time),76992.0,I,z,2799,2799,,14,yes,1,2809.5999999046326,74182.40000009537,CHDKQGLMB,CHDKQGLMB,9013,LC,A,72240,,14
14,1,24.566999912261963,test,1,z,5433.000087738037,Mon Mar 31 2025 11:46:46 GMT-0400 (Eastern Daylight Time),77991.7000002861,I,z,990,990,,15,yes,1,992.5999999046326,76999.10000038147,GHQ,GHQ,9013,LC,A,75057,,15
15,1,25.866999864578247,test,1,z,4133.000135421753,Mon Mar 31 2025 11:46:46 GMT-0400 (Eastern Daylight Time),79291.90000009537,I,z,1286,1286,,16,yes,1,1292.6999998092651,77999.2000002861,GFVMRH,GFVMRH,9013,LC,A,76057,,16
16,1,26.799999952316284,test,1,z,3200.000047683716,Mon Mar 31 2025 11:46:46 GMT-0400 (Eastern Daylight Time),80225.30000019073,I,z,913,913,,17,yes,1,925.5999999046326,79299.7000002861,RSM,RSM,9013,LC,A,77358,,17
16,1,28.51699995994568,test,0,m,1483.0000400543213,Mon Mar 31 2025 11:46:46 GMT-0400 (Eastern Daylight Time),81941.90000009537,I,z,1692,1692,,18,no,1,1708.5999999046326,80233.30000019073,BSRJTRMLG,BSFJTRMLG,9013,LC,A,78291,,18
17,1,29.649999856948853,test,1,z,350.00014305114746,Mon Mar 31 2025 11:46:46 GMT-0400 (Eastern Daylight Time),83075.30000019073,I,z,1112,1112,,19,yes,1,1125.6999998092651,81949.60000038147,NBGFSM,NBGFSM,9013,LC,A,80007,,19
17,1,30.01699995994568,test,0,z,-16.99995994567871,Mon Mar 31 2025 11:46:46 GMT-0400 (Eastern Daylight Time),83442.10000038147,I,None,359,359,,20,yes,1,359.7000002861023,83082.40000009537,JQKBPLXGY,JQKBPLXGY,9013,LC,A,81140,,20
1,2,2.9000000953674316,test,1,z,27099.99990463257,Mon Mar 31 2025 11:46:46 GMT-0400 (Eastern Daylight Time),89141.80000019073,I,z,2876,,2876.0,1,yes,1,6059.400000095367,83082.40000009537,PRDBZTYFN,PRDBZTYFN,9013,LC,A,,84307.0,1
1,2,4.165999889373779,test,0,m,25834.00011062622,Mon Mar 31 2025 11:46:46 GMT-0400 (Eastern Daylight Time),90408.5,I,z,1257,,1257.0,2,no,1,7326.099999904633,83082.40000009537,NCWJDZ,NCMJDZ,9013,LC,A,,87206.0,2
2,2,5.615999937057495,test,1,m,24384.000062942505,Mon Mar 31 2025 11:46:46 GMT-0400 (Eastern Daylight Time),91858.5,I,m,1427,,1427.0,3,no,1,8776.099999904633,83082.40000009537,KHW,KBW,9013,LC,A,,88476.0,3
3,2,7.983000040054321,test,1,m,22016.99995994568,Mon Mar 31 2025 11:46:46 GMT-0400 (Eastern Daylight Time),94225.30000019073,I,m,2347,,2347.0,4,no,1,11142.900000095367,83082.40000009537,ZRBGMF,ZRBCMF,9013,LC,A,,89924.0,4
4,2,9.233000040054321,test,1,m,20766.99995994568,Mon Mar 31 2025 11:46:46 GMT-0400 (Eastern Daylight Time),95475.40000009537,I,m,1229,,1229.0,5,no,1,12393.0,83082.40000009537,BTH,BYH,9013,LC,A,,92290.0,5
5,2,11.483000040054321,test,1,z,18516.99995994568,Mon Mar 31 2025 11:46:46 GMT-0400 (Eastern Daylight Time),97725.30000019073,I,z,2235,,2235.0,6,yes,1,14642.900000095367,83082.40000009537,XWKQRYCNZ,XWKQRYCNZ,9013,LC,A,,93540.0,6
6,2,14.0,test,1,z,16000.0,Mon Mar 31 2025 11:46:46 GMT-0400 (Eastern Daylight Time),100242.0,I,z,2497,,2497.0,7,yes,1,17159.599999904633,83082.40000009537,HNPDLK,HNPDLK,9013,LC,A,,95790.0,7
7,2,18.365999937057495,test,1,m,11634.000062942505,Mon Mar 31 2025 11:46:46 GMT-0400 (Eastern Daylight Time),104608.60000038147,I,m,4348,,4348.0,8,no,1,21526.200000286102,83082.40000009537,WMQTRSGLZ,WMQTRZGLZ,9013,LC,A,,98307.0,8
8,2,19.299999952316284,test,1,z,10700.000047683716,Mon Mar 31 2025 11:46:46 GMT-0400 (Eastern Daylight Time),105542.2000002861,I,z,925,,925.0,9,yes,1,22459.800000190735,83082.40000009537,JPN,JPN,9013,LC,A,,102674.0,9
9,2,20.865999937057495,test,1,m,9134.000062942505,Mon Mar 31 2025 11:46:46 GMT-0400 (Eastern Daylight Time),107108.7000002861,I,m,1543,,1543.0,10,no,1,24026.300000190735,83082.40000009537,QLXSVT,QLNSVT,9013,LC,A,,103607.0,10
9,2,23.749000072479248,test,0,z,6250.999927520752,Mon Mar 31 2025 11:46:46 GMT-0400 (Eastern Daylight Time),109991.10000038147,I,m,2873,,2873.0,11,yes,1,26908.700000286102,83082.40000009537,YXHKZVFPB,YXHKZVFPD,9013,LC,A,,105173.0,11
10,2,25.299999952316284,test,1,z,4700.000047683716,Mon Mar 31 2025 11:46:46 GMT-0400 (Eastern Daylight Time),111542.10000038147,I,z,1530,,1530.0,12,yes,1,28459.700000286102,83082.40000009537,RJZ,RJZ,9013,LC,A,,108053.0,12
11,2,26.799999952316284,test,1,z,3200.000047683716,Mon Mar 31 2025 11:46:46 GMT-0400 (Eastern Daylight Time),113041.80000019073,I,z,1479,,1479.0,13,yes,1,29959.400000095367,83082.40000009537,CLNPZD,CLNPZD,9013,LC,A,,109608.0,13
11,2,30.016000032424927,test,0,m,-16.000032424926758,Mon Mar 31 2025 11:46:46 GMT-0400 (Eastern Daylight Time),116258.10000038147,I,None,3209,,3209.0,14,no,1,33175.7000002861,83082.40000009537,DCBPFHXYJ,DCBPFHLYJ,9013,LC,A,,111106.0,14
