acc_sum,block_c,block_dur,condition,correct,correct_response,countdown,datetime,endtime,project,response,response_time,response_time_test1_response,response_time_test2_response,row_sel,same,session_number,start_end,starttime,stim1,stim2,subject_id,task,task_vers,time_test1,time_test2,trial
1,1,0.0,prac,1,m,30000.0,Wed Apr 16 2025 14:56:56 GMT-0400 (Eastern Daylight Time),70502.30000019073,I,m,2764,,,5,no,1,4294.400000572205,66207.89999961853,LNDPRSKQB,LNDPRSJQB,9014,LC,B,,,1
2,1,0.0,prac,1,z,30000.0,Wed Apr 16 2025 14:56:56 GMT-0400 (Eastern Daylight Time),73935.5,I,z,1890,,,2,yes,1,3415.6000003814697,70519.89999961853,NBGFSM,NBGFSM,9014,LC,B,,,2
3,1,0.0,prac,1,z,30000.0,Wed Apr 16 2025 14:56:56 GMT-0400 (Eastern Daylight Time),77385.5,I,z,1906,,,6,yes,1,3440.199999809265,73945.30000019073,CSDBFPHXZ,CSDBFPHXZ,9014,LC,B,,,3
4,1,0.0,prac,1,m,30000.0,Wed Apr 16 2025 14:56:56 GMT-0400 (Eastern Daylight Time),80151.89999961853,I,m,1225,,,3,no,1,2756.5,77395.39999961853,QHZXPC,QHZWPC,9014,LC,B,,,4
5,1,0.0,prac,1,z,30000.0,Wed Apr 16 2025 14:56:56 GMT-0400 (Eastern Daylight Time),82652.0999994278,I,z,970,,,4,yes,1,2489.8999996185303,80162.19999980927,RSM,RSM,9014,LC,B,,,5
6,1,0.0,prac,1,m,30000.0,Wed Apr 16 2025 14:56:56 GMT-0400 (Eastern Daylight Time),85201.89999961853,I,m,1012,,,1,no,1,2537.699999809265,82664.19999980927,RNV,FNV,9014,LC,B,,,6
1,1,1.3340001106262207,test,1,m,28665.99988937378,Wed Apr 16 2025 14:56:56 GMT-0400 (Eastern Daylight Time),89619.19999980927,I,m,1321,1321,,1,no,1,1326.6999998092651,88292.5,HCF,RCF,9014,LC,B,86286,,1
2,1,3.5169999599456787,test,1,m,26483.00004005432,Wed Apr 16 2025 14:56:56 GMT-0400 (Eastern Daylight Time),91802.39999961853,I,m,2161,2161,,2,no,1,2175.0,89627.39999961853,QTPRJX,QTPNJX,9014,LC,B,87621,,2
3,1,4.933000087738037,test,1,m,25066.999912261963,Wed Apr 16 2025 14:56:56 GMT-0400 (Eastern Daylight Time),93218.80000019073,I,m,1401,1401,,3,no,1,1407.7000007629395,91811.0999994278,MZDYGVGKQ,MZDYGLBKQ,9014,LC,B,89805,,3
4,1,6.416000127792358,test,1,m,23583.99987220764,Wed Apr 16 2025 14:56:56 GMT-0400 (Eastern Daylight Time),94701.89999961853,I,m,1471,1471,,4,no,1,1472.8999996185303,93229.0,FQTNMK,JQTNMK,9014,LC,B,91223,,4
5,1,7.433000087738037,test,1,z,22566.999912261963,Wed Apr 16 2025 14:56:56 GMT-0400 (Eastern Daylight Time),95719.0,I,z,998,998,,5,yes,1,1008.3000001907349,94710.69999980927,CLJ,CLJ,9014,LC,B,92704,,5
6,1,9.483000040054321,test,1,m,20516.99995994568,Wed Apr 16 2025 14:56:56 GMT-0400 (Eastern Daylight Time),97768.69999980927,I,m,2029,2029,,6,no,1,2042.1000003814697,95726.5999994278,JGDMNSVPW,JGZMNSVPW,9014,LC,B,93721,,6
7,1,12.0,test,1,z,18000.0,Wed Apr 16 2025 14:56:56 GMT-0400 (Eastern Daylight Time),100285.5,I,z,2492,2492,,7,yes,1,2508.800000190735,97776.69999980927,FPTVHKCBJ,FPTVHKCBJ,9014,LC,B,95770,,7
8,1,13.166000127792358,test,1,m,16833.99987220764,Wed Apr 16 2025 14:56:56 GMT-0400 (Eastern Daylight Time),101452.0999994278,I,m,1143,1143,,8,no,1,1159.5,100292.5999994278,XRPZBS,ZRPBDH,9014,LC,B,98287,,8
9,1,14.299999952316284,test,1,m,15700.000047683716,Wed Apr 16 2025 14:56:56 GMT-0400 (Eastern Daylight Time),102585.5,I,m,1114,1114,,9,no,1,1126.6999998092651,101458.80000019073,ZSQ,ZSP,9014,LC,B,99452,,9
10,1,15.817000150680542,test,1,z,14182.999849319458,Wed Apr 16 2025 14:56:56 GMT-0400 (Eastern Daylight Time),104102.19999980927,I,z,1499,1499,,10,yes,1,1509.1999998092651,102593.0,MPZRXL,MPZRXL,9014,LC,B,100587,,10
11,1,16.91700005531311,test,1,m,13082.99994468689,Wed Apr 16 2025 14:56:56 GMT-0400 (Eastern Daylight Time),105202.0999994278,I,m,1084,1084,,11,no,1,1089.6999998092651,104112.39999961853,KJH,KRH,9014,LC,B,102106,,11
12,1,18.949000120162964,test,1,z,11050.999879837036,Wed Apr 16 2025 14:56:56 GMT-0400 (Eastern Daylight Time),107234.89999961853,I,z,2015,2015,,12,yes,1,2023.3000001907349,105211.5999994278,SMNHVTFCB,SMNHVTFCB,9014,LC,B,103205,,12
13,1,20.5,test,1,z,9500.0,Wed Apr 16 2025 14:56:56 GMT-0400 (Eastern Daylight Time),108785.30000019073,I,z,1541,1541,,13,yes,1,1545.9000005722046,107239.39999961853,KJWTQF,KJWTQF,9014,LC,B,105233,,13
14,1,22.133000135421753,test,1,z,7866.999864578247,Wed Apr 16 2025 14:56:56 GMT-0400 (Eastern Daylight Time),110418.69999980927,I,z,1622,1622,,14,yes,1,1627.1000003814697,108791.5999994278,CHDKQGLMB,CHDKQGLMB,9014,LC,B,106785,,14
15,1,23.183000087738037,test,1,z,6816.999912261963,Wed Apr 16 2025 14:56:56 GMT-0400 (Eastern Daylight Time),111468.69999980927,I,z,1026,1026,,15,yes,1,1042.8000001907349,110425.89999961853,GHQ,GHQ,9014,LC,B,108420,,15
16,1,24.48300004005432,test,1,z,5516.999959945679,Wed Apr 16 2025 14:56:56 GMT-0400 (Eastern Daylight Time),112768.80000019073,I,z,1288,1288,,16,yes,1,1292.8000001907349,111476.0,GFVMRH,GFVMRH,9014,LC,B,109470,,16
17,1,25.466000080108643,test,1,z,4533.999919891357,Wed Apr 16 2025 14:56:56 GMT-0400 (Eastern Daylight Time),113752.0,I,z,964,964,,17,yes,1,975.3000001907349,112776.69999980927,RSM,RSM,9014,LC,B,110770,,17
17,1,27.617000102996826,test,0,m,2382.999897003174,Wed Apr 16 2025 14:56:56 GMT-0400 (Eastern Daylight Time),115902.19999980927,I,z,2139,2139,,18,no,1,2141.5,113760.69999980927,BSRJTRMLG,BSFJTRMLG,9014,LC,B,111755,,18
18,1,29.0,test,1,z,1000.0,Wed Apr 16 2025 14:56:56 GMT-0400 (Eastern Daylight Time),117285.5999994278,I,z,1368,1368,,19,yes,1,1377.1999998092651,115908.39999961853,NBGFSM,NBGFSM,9014,LC,B,113902,,19
18,1,30.01699995994568,test,0,z,-16.99995994567871,Wed Apr 16 2025 14:56:56 GMT-0400 (Eastern Daylight Time),118302.39999961853,I,None,1008,1008,,20,yes,1,1009.1999998092651,117293.19999980927,JQKBPLXGY,JQKBPLXGY,9014,LC,B,115287,,20
1,2,2.749000072479248,test,1,z,27250.999927520752,Wed Apr 16 2025 14:56:56 GMT-0400 (Eastern Daylight Time),124902.0,I,z,2733,,2733.0,1,yes,1,7608.800000190735,117293.19999980927,PRDBZTYFN,PRDBZTYFN,9014,LC,B,,120153.0,1
1,2,4.33299994468689,test,0,m,25667.00005531311,Wed Apr 16 2025 14:56:56 GMT-0400 (Eastern Daylight Time),126485.5,I,z,1567,,1567.0,2,no,1,9192.300000190735,117293.19999980927,NCWJDZ,NCMJDZ,9014,LC,B,,122903.0,2
2,2,5.598999977111816,test,1,m,24401.000022888184,Wed Apr 16 2025 14:56:56 GMT-0400 (Eastern Daylight Time),127752.0,I,m,1244,,1244.0,3,no,1,10458.800000190735,117293.19999980927,KHW,KBW,9014,LC,B,,124490.0,3
3,2,7.233000040054321,test,1,m,22766.99995994568,Wed Apr 16 2025 14:56:56 GMT-0400 (Eastern Daylight Time),129385.5,I,m,1611,,1611.0,4,no,1,12092.300000190735,117293.19999980927,ZRBGMF,ZRBCMF,9014,LC,B,,125754.0,4
4,2,8.282999992370605,test,1,m,21717.000007629395,Wed Apr 16 2025 14:56:56 GMT-0400 (Eastern Daylight Time),130435.30000019073,I,m,1036,,1036.0,5,no,1,13142.10000038147,117293.19999980927,BTH,BYH,9014,LC,B,,127386.0,5
5,2,10.448999881744385,test,1,z,19551.000118255615,Wed Apr 16 2025 14:56:56 GMT-0400 (Eastern Daylight Time),132601.5999994278,I,z,2144,,2144.0,6,yes,1,15308.39999961853,117293.19999980927,XWKQRYCNZ,XWKQRYCNZ,9014,LC,B,,128438.0,6
6,2,12.08299994468689,test,1,z,17917.00005531311,Wed Apr 16 2025 14:56:56 GMT-0400 (Eastern Daylight Time),134235.19999980927,I,z,1614,,1614.0,7,yes,1,16942.0,117293.19999980927,HNPDLK,HNPDLK,9014,LC,B,,130600.0,7
7,2,13.932999849319458,test,1,m,16067.000150680542,Wed Apr 16 2025 14:56:56 GMT-0400 (Eastern Daylight Time),136085.39999961853,I,m,1834,,1834.0,8,no,1,18792.199999809265,117293.19999980927,WMQTRSGLZ,WMQTRZGLZ,9014,LC,B,,132236.0,8
8,2,15.149999856948853,test,1,z,14850.000143051147,Wed Apr 16 2025 14:56:56 GMT-0400 (Eastern Daylight Time),137302.0999994278,I,z,1200,,1200.0,9,yes,1,20008.89999961853,117293.19999980927,JPN,JPN,9014,LC,B,,134086.0,9
9,2,17.049000024795532,test,1,m,12950.999975204468,Wed Apr 16 2025 14:56:56 GMT-0400 (Eastern Daylight Time),139202.0999994278,I,m,1884,,1884.0,10,no,1,21908.89999961853,117293.19999980927,QLXSVT,QLNSVT,9014,LC,B,,135306.0,10
9,2,19.899999856948853,test,0,z,10100.000143051147,Wed Apr 16 2025 14:56:56 GMT-0400 (Eastern Daylight Time),142052.0999994278,I,m,2835,,2835.0,11,yes,1,24758.89999961853,117293.19999980927,YXHKZVFPB,YXHKZVFPD,9014,LC,B,,137203.0,11
10,2,21.31599998474121,test,1,z,8684.000015258789,Wed Apr 16 2025 14:56:56 GMT-0400 (Eastern Daylight Time),143468.69999980927,I,z,1392,,1392.0,12,yes,1,26175.5,117293.19999980927,RJZ,RJZ,9014,LC,B,,140054.0,12
11,2,22.882999897003174,test,1,z,7117.000102996826,Wed Apr 16 2025 14:56:56 GMT-0400 (Eastern Daylight Time),145035.19999980927,I,z,1544,,1544.0,13,yes,1,27742.0,117293.19999980927,CLNPZD,CLNPZD,9014,LC,B,,141470.0,13
12,2,24.632999897003174,test,1,m,5367.000102996826,Wed Apr 16 2025 14:56:56 GMT-0400 (Eastern Daylight Time),146785.30000019073,I,m,1737,,1737.0,14,no,1,29492.10000038147,117293.19999980927,DCBPFHXYJ,DCBPFHLYJ,9014,LC,B,,143037.0,14
13,2,25.83299994468689,test,1,m,4167.00005531311,Wed Apr 16 2025 14:56:56 GMT-0400 (Eastern Daylight Time),147985.19999980927,I,m,1188,,1188.0,15,no,1,30692.0,117293.19999980927,MWR,ZWR,9014,LC,B,,144786.0,15
14,2,27.66599988937378,test,1,z,2334.0001106262207,Wed Apr 16 2025 14:56:56 GMT-0400 (Eastern Daylight Time),149818.0999994278,I,z,1812,,1812.0,16,yes,1,32524.89999961853,117293.19999980927,LPKXZW,LPKXZW,9014,LC,B,,145985.0,16
15,2,28.58299994468689,test,1,m,1417.0000553131104,Wed Apr 16 2025 14:56:56 GMT-0400 (Eastern Daylight Time),150735.19999980927,I,m,910,,910.0,17,no,1,33442.0,117293.19999980927,TZL,TZQ,9014,LC,B,,147816.0,17
15,2,30.016000032424927,test,0,z,-16.000032424926758,Wed Apr 16 2025 14:56:56 GMT-0400 (Eastern Daylight Time),152168.80000019073,I,None,1424,,1424.0,18,yes,1,34875.60000038147,117293.19999980927,CSDBFPHXZ,CSDBFPHXZ,9014,LC,B,,148736.0,18
