acc_sum,block,block_c,change,condition,correct,correct_response,datetime,endtime,face,project,response,response_time,row_sel,session_number,start_end,starttime,subject_id,task,task_vers,trial
0,prac,1,,1-Back,,,Thu Feb 20 2025 12:41:31 GMT-0600 (Central Standard Time),,097_m_f_n_a.png,I,space,8486,1,1,,,8030,NNB,B,0
1,prac,1,0.0,1-Back,1,m,Thu Feb 20 2025 12:41:31 GMT-0600 (Central Standard Time),139920.5,152_y_f_n_a.png,I,m,843,2,1,1707.2999999998137,138213.2000000002,8030,NNB,B,1
1,prac,1,1.0,1-Back,0,z,Thu Feb 20 2025 12:41:31 GMT-0600 (Central Standard Time),141619.7999999998,152_y_f_n_a.png,I,m,912,3,1,1691.8999999999069,139927.8999999999,8030,NNB,B,2
1,prac,1,0.0,1-Back,0,m,Thu Feb 20 2025 12:41:31 GMT-0600 (Central Standard Time),143569.2000000002,176_o_m_n_a.png,I,z,1078,4,1,1943.4000000003725,141625.7999999998,8030,NNB,B,3
2,prac,1,0.0,1-Back,1,m,Thu Feb 20 2025 12:41:31 GMT-0600 (Central Standard Time),145352.2999999998,126_m_m_n_a.png,I,m,910,5,1,1776.6999999997206,143575.6000000001,8030,NNB,B,4
2,prac,1,1.0,1-Back,0,z,Thu Feb 20 2025 12:41:31 GMT-0600 (Central Standard Time),146801.7000000002,126_m_m_n_a.png,I,m,674,6,1,1443.5,145358.2000000002,8030,NNB,B,5
3,prac,1,0.0,1-Back,1,m,Thu Feb 20 2025 12:41:31 GMT-0600 (Central Standard Time),148601.0,086_o_f_n_a.png,I,m,912,7,1,1792.3999999999069,146808.6000000001,8030,NNB,B,6
3,prac,1,0.0,1-Back,0,m,Thu Feb 20 2025 12:41:31 GMT-0600 (Central Standard Time),150633.7000000002,178_m_m_n_a.png,I,z,1164,8,1,2025.1000000000931,148608.6000000001,8030,NNB,B,7
4,prac,1,0.0,1-Back,1,m,Thu Feb 20 2025 12:41:31 GMT-0600 (Central Standard Time),152283.2000000002,097_m_f_n_a.png,I,m,871,9,1,1642.0,150641.2000000002,8030,NNB,B,8
4,prac,1,1.0,1-Back,0,z,Thu Feb 20 2025 12:41:31 GMT-0600 (Central Standard Time),153649.6000000001,097_m_f_n_a.png,I,m,592,10,1,1360.8000000002794,152288.7999999998,8030,NNB,B,9
4,prac,1,0.0,1-Back,0,m,Thu Feb 20 2025 12:41:31 GMT-0600 (Central Standard Time),156099.7999999998,176_o_m_n_a.png,I,z,1681,11,1,2443.7999999998137,153656.0,8030,NNB,B,10
5,prac,1,0.0,1-Back,1,m,Thu Feb 20 2025 12:41:31 GMT-0600 (Central Standard Time),158198.0,173_y_f_n_a.png,I,m,1222,12,1,2091.0,156107.0,8030,NNB,B,11
0,prac,2,0.0,1-Back,,,Thu Feb 20 2025 12:41:31 GMT-0600 (Central Standard Time),158198.0,097_m_f_n_a.png,I,a,14263,1,1,2091.0,156107.0,8030,NNB,B,0
1,prac,2,0.0,1-Back,1,m,Thu Feb 20 2025 12:41:31 GMT-0600 (Central Standard Time),177558.6000000001,152_y_f_n_a.png,I,m,1177,2,1,2039.8000000002794,175518.7999999998,8030,NNB,B,1
2,prac,2,1.0,1-Back,1,z,Thu Feb 20 2025 12:41:31 GMT-0600 (Central Standard Time),179441.5,152_y_f_n_a.png,I,z,1107,3,1,1875.8999999999069,177565.6000000001,8030,NNB,B,2
3,prac,2,0.0,1-Back,1,m,Thu Feb 20 2025 12:41:31 GMT-0600 (Central Standard Time),181340.6000000001,176_o_m_n_a.png,I,m,1112,4,1,1892.6000000000931,179448.0,8030,NNB,B,3
4,prac,2,0.0,1-Back,1,m,Thu Feb 20 2025 12:41:31 GMT-0600 (Central Standard Time),183640.1000000001,126_m_m_n_a.png,I,m,1413,5,1,2292.5,181347.6000000001,8030,NNB,B,4
5,prac,2,1.0,1-Back,1,z,Thu Feb 20 2025 12:41:31 GMT-0600 (Central Standard Time),185239.5,126_m_m_n_a.png,I,z,817,6,1,1592.5,183647.0,8030,NNB,B,5
6,prac,2,0.0,1-Back,1,m,Thu Feb 20 2025 12:41:31 GMT-0600 (Central Standard Time),187072.3999999999,086_o_f_n_a.png,I,m,946,7,1,1825.6000000000931,185246.7999999998,8030,NNB,B,6
7,prac,2,0.0,1-Back,1,m,Thu Feb 20 2025 12:41:31 GMT-0600 (Central Standard Time),188938.3999999999,178_m_m_n_a.png,I,m,991,8,1,1859.7999999998137,187078.6000000001,8030,NNB,B,7
8,prac,2,0.0,1-Back,1,m,Thu Feb 20 2025 12:41:31 GMT-0600 (Central Standard Time),190687.8999999999,097_m_f_n_a.png,I,m,967,9,1,1743.1999999997206,188944.7000000002,8030,NNB,B,8
9,prac,2,1.0,1-Back,1,z,Thu Feb 20 2025 12:41:31 GMT-0600 (Central Standard Time),192420.7000000002,097_m_f_n_a.png,I,z,947,10,1,1727.3000000002794,190693.3999999999,8030,NNB,B,9
10,prac,2,0.0,1-Back,1,m,Thu Feb 20 2025 12:41:31 GMT-0600 (Central Standard Time),194104.6000000001,176_o_m_n_a.png,I,m,910,11,1,1678.5,192426.1000000001,8030,NNB,B,10
10,prac,2,0.0,1-Back,0,m,Thu Feb 20 2025 12:41:31 GMT-0600 (Central Standard Time),195752.8999999999,173_y_f_n_a.png,I,z,786,12,1,1642.0,194110.8999999999,8030,NNB,B,11
0,test,1,0.0,1-Back,,,Thu Feb 20 2025 12:41:31 GMT-0600 (Central Standard Time),195752.8999999999,152_y_f_n_a.png,I,space,21651,1,1,1642.0,194110.8999999999,8030,NNB,B,0
1,test,1,0.0,1-Back,1,m,Thu Feb 20 2025 12:41:31 GMT-0600 (Central Standard Time),227726.2000000002,029_m_f_n_a.png,I,m,1019,2,1,2045.8000000002794,225680.3999999999,8030,NNB,B,1
2,test,1,0.0,1-Back,1,m,Thu Feb 20 2025 12:41:31 GMT-0600 (Central Standard Time),229760.1000000001,173_y_f_n_a.png,I,m,1002,3,1,2029.3999999999069,227730.7000000002,8030,NNB,B,2
3,test,1,1.0,1-Back,1,z,Thu Feb 20 2025 12:41:31 GMT-0600 (Central Standard Time),231525.0,173_y_f_n_a.png,I,z,737,4,1,1760.7000000001863,229764.2999999998,8030,NNB,B,3
4,test,1,0.0,1-Back,1,m,Thu Feb 20 2025 12:41:31 GMT-0600 (Central Standard Time),233107.8999999999,029_m_f_n_a.png,I,m,555,5,1,1578.7999999998137,231529.1000000001,8030,NNB,B,4
5,test,1,0.0,1-Back,1,m,Thu Feb 20 2025 12:41:31 GMT-0600 (Central Standard Time),234873.8999999999,176_o_m_n_a.png,I,m,748,6,1,1762.5,233111.3999999999,8030,NNB,B,5
6,test,1,1.0,1-Back,1,z,Thu Feb 20 2025 12:41:31 GMT-0600 (Central Standard Time),236373.5,176_o_m_n_a.png,I,z,470,7,1,1495.5,234878.0,8030,NNB,B,6
7,test,1,0.0,1-Back,1,m,Thu Feb 20 2025 12:41:31 GMT-0600 (Central Standard Time),238356.2000000002,126_m_m_n_a.png,I,m,954,8,1,1978.2000000001863,236378.0,8030,NNB,B,7
8,test,1,0.0,1-Back,1,m,Thu Feb 20 2025 12:41:31 GMT-0600 (Central Standard Time),240089.2000000002,086_o_f_n_a.png,I,m,716,9,1,1729.1000000000931,238360.1000000001,8030,NNB,B,8
9,test,1,0.0,1-Back,1,m,Thu Feb 20 2025 12:41:31 GMT-0600 (Central Standard Time),241855.2000000002,126_m_m_n_a.png,I,m,743,10,1,1762.0,240093.2000000002,8030,NNB,B,9
9,test,1,0.0,1-Back,0,m,Thu Feb 20 2025 12:41:31 GMT-0600 (Central Standard Time),243654.7999999998,153_y_m_n_a.png,I,z,777,11,1,1795.0999999996275,241859.7000000002,8030,NNB,B,10
10,test,1,1.0,1-Back,1,z,Thu Feb 20 2025 12:41:31 GMT-0600 (Central Standard Time),245704.2000000002,153_y_m_n_a.png,I,z,1018,12,1,2045.2000000001863,243659.0,8030,NNB,B,11
11,test,1,0.0,1-Back,1,m,Thu Feb 20 2025 12:41:31 GMT-0600 (Central Standard Time),247470.0,110_o_f_n_a.png,I,m,744,13,1,1761.7999999998137,245708.2000000002,8030,NNB,B,12
11,test,1,1.0,1-Back,0,z,Thu Feb 20 2025 12:41:31 GMT-0600 (Central Standard Time),248969.5,110_o_f_n_a.png,I,m,482,14,1,1495.1000000000931,247474.3999999999,8030,NNB,B,13
12,test,1,0.0,1-Back,1,m,Thu Feb 20 2025 12:41:31 GMT-0600 (Central Standard Time),251135.7000000002,013_y_m_n_a.png,I,m,1143,15,1,2163.100000000093,248972.6000000001,8030,NNB,B,14
13,test,1,0.0,1-Back,1,m,Thu Feb 20 2025 12:41:31 GMT-0600 (Central Standard Time),252985.2999999998,097_m_f_n_a.png,I,m,817,16,1,1845.0999999996275,251140.2000000002,8030,NNB,B,15
14,test,1,0.0,1-Back,1,m,Thu Feb 20 2025 12:41:31 GMT-0600 (Central Standard Time),254834.6000000001,065_o_m_n_a.png,I,m,823,17,1,1845.3999999999069,252989.2000000002,8030,NNB,B,16
15,test,1,0.0,1-Back,1,m,Thu Feb 20 2025 12:41:31 GMT-0600 (Central Standard Time),256567.2999999998,097_m_f_n_a.png,I,m,702,18,1,1728.2999999998137,254839.0,8030,NNB,B,17
0,test,2,0.0,1-Back,,,Thu Feb 20 2025 12:41:31 GMT-0600 (Central Standard Time),256567.2999999998,126_m_m_n_a.png,I,space,2713,1,1,1728.2999999998137,254839.0,8030,NNB,B,0
1,test,2,0.0,1-Back,1,m,Thu Feb 20 2025 12:41:31 GMT-0600 (Central Standard Time),263182.0,029_m_f_n_a.png,I,m,853,2,1,1879.2000000001863,261302.7999999998,8030,NNB,B,1
2,test,2,1.0,1-Back,1,z,Thu Feb 20 2025 12:41:31 GMT-0600 (Central Standard Time),264731.6000000001,029_m_f_n_a.png,I,z,522,3,1,1545.5,263186.1000000001,8030,NNB,B,2
3,test,2,0.0,1-Back,1,m,Thu Feb 20 2025 12:41:31 GMT-0600 (Central Standard Time),266747.1000000001,126_m_m_n_a.png,I,m,997,4,1,2011.8999999999069,264735.2000000002,8030,NNB,B,3
4,test,2,0.0,1-Back,1,m,Thu Feb 20 2025 12:41:31 GMT-0600 (Central Standard Time),268646.7999999998,153_y_m_n_a.png,I,m,876,5,1,1895.6999999997206,266751.1000000001,8030,NNB,B,4
5,test,2,0.0,1-Back,1,m,Thu Feb 20 2025 12:41:31 GMT-0600 (Central Standard Time),270362.8999999999,152_y_f_n_a.png,I,m,698,6,1,1712.3999999999069,268650.5,8030,NNB,B,5
6,test,2,1.0,1-Back,1,z,Thu Feb 20 2025 12:41:31 GMT-0600 (Central Standard Time),272329.1000000001,152_y_f_n_a.png,I,z,949,7,1,1962.1000000000931,270367.0,8030,NNB,B,6
7,test,2,0.0,1-Back,1,m,Thu Feb 20 2025 12:41:31 GMT-0600 (Central Standard Time),274078.2999999998,153_y_m_n_a.png,I,m,719,8,1,1744.8999999999069,272333.3999999999,8030,NNB,B,7
8,test,2,0.0,1-Back,1,m,Thu Feb 20 2025 12:41:31 GMT-0600 (Central Standard Time),275810.7999999998,110_o_f_n_a.png,I,m,713,9,1,1728.8999999999069,274081.8999999999,8030,NNB,B,8
9,test,2,0.0,1-Back,1,m,Thu Feb 20 2025 12:41:31 GMT-0600 (Central Standard Time),277660.7000000002,178_m_m_n_a.png,I,m,821,10,1,1846.3000000002794,275814.3999999999,8030,NNB,B,9
10,test,2,1.0,1-Back,1,z,Thu Feb 20 2025 12:41:31 GMT-0600 (Central Standard Time),279326.7000000002,178_m_m_n_a.png,I,z,643,11,1,1661.8000000002794,277664.8999999999,8030,NNB,B,10
11,test,2,0.0,1-Back,1,m,Thu Feb 20 2025 12:41:31 GMT-0600 (Central Standard Time),281109.6000000001,110_o_f_n_a.png,I,m,753,12,1,1779.3000000002794,279330.2999999998,8030,NNB,B,11
12,test,2,0.0,1-Back,1,m,Thu Feb 20 2025 12:41:31 GMT-0600 (Central Standard Time),282892.2000000002,086_o_f_n_a.png,I,m,763,13,1,1778.0,281114.2000000002,8030,NNB,B,12
13,test,2,0.0,1-Back,1,m,Thu Feb 20 2025 12:41:31 GMT-0600 (Central Standard Time),284825.0,176_o_m_n_a.png,I,m,900,14,1,1927.8999999999069,282897.1000000001,8030,NNB,B,13
14,test,2,0.0,1-Back,1,m,Thu Feb 20 2025 12:41:31 GMT-0600 (Central Standard Time),286507.7999999998,065_o_m_n_a.png,I,m,663,15,1,1678.6999999997206,284829.1000000001,8030,NNB,B,14
15,test,2,1.0,1-Back,1,z,Thu Feb 20 2025 12:41:31 GMT-0600 (Central Standard Time),288373.7000000002,065_o_m_n_a.png,I,z,836,16,1,1861.6000000000931,286512.1000000001,8030,NNB,B,15
16,test,2,0.0,1-Back,1,m,Thu Feb 20 2025 12:41:31 GMT-0600 (Central Standard Time),290273.2999999998,013_y_m_n_a.png,I,m,874,17,1,1895.2999999998137,288378.0,8030,NNB,B,16
17,test,2,1.0,1-Back,1,z,Thu Feb 20 2025 12:41:31 GMT-0600 (Central Standard Time),292056.2999999998,013_y_m_n_a.png,I,z,759,18,1,1779.6999999997206,290276.6000000001,8030,NNB,B,17
0,test,3,1.0,1-Back,,,Thu Feb 20 2025 12:41:31 GMT-0600 (Central Standard Time),292056.2999999998,173_y_f_n_a.png,I,space,2000,1,1,1779.6999999997206,290276.6000000001,8030,NNB,B,0
1,test,3,0.0,1-Back,1,m,Thu Feb 20 2025 12:41:31 GMT-0600 (Central Standard Time),297921.2000000002,065_o_m_n_a.png,I,m,717,1,1,1744.2000000001863,296177.0,8030,NNB,B,1
2,test,3,1.0,1-Back,1,z,Thu Feb 20 2025 12:41:31 GMT-0600 (Central Standard Time),299720.2999999998,065_o_m_n_a.png,I,z,775,1,1,1794.5999999996275,297925.7000000002,8030,NNB,B,2
3,test,3,0.0,1-Back,1,m,Thu Feb 20 2025 12:41:31 GMT-0600 (Central Standard Time),301486.3999999999,097_m_f_n_a.png,I,m,744,1,1,1761.6999999997206,299724.7000000002,8030,NNB,B,3
4,test,3,1.0,1-Back,1,z,Thu Feb 20 2025 12:41:31 GMT-0600 (Central Standard Time),303252.8999999999,097_m_f_n_a.png,I,z,738,1,1,1763.1999999997206,301489.7000000002,8030,NNB,B,4
5,test,3,0.0,1-Back,1,m,Thu Feb 20 2025 12:41:31 GMT-0600 (Central Standard Time),305085.6000000001,110_o_f_n_a.png,I,m,811,1,1,1828.1000000000931,303257.5,8030,NNB,B,5
6,test,3,0.0,1-Back,1,m,Thu Feb 20 2025 12:41:31 GMT-0600 (Central Standard Time),306884.8999999999,153_y_m_n_a.png,I,m,778,1,1,1795.1000000000931,305089.7999999998,8030,NNB,B,6
7,test,3,0.0,1-Back,1,m,Thu Feb 20 2025 12:41:31 GMT-0600 (Central Standard Time),308517.7000000002,110_o_f_n_a.png,I,m,604,1,1,1628.5,306889.2000000002,8030,NNB,B,7
8,test,3,0.0,1-Back,1,m,Thu Feb 20 2025 12:41:31 GMT-0600 (Central Standard Time),310250.3999999999,013_y_m_n_a.png,I,m,706,1,1,1728.2999999998137,308522.1000000001,8030,NNB,B,8
9,test,3,1.0,1-Back,1,z,Thu Feb 20 2025 12:41:31 GMT-0600 (Central Standard Time),311849.7000000002,013_y_m_n_a.png,I,z,582,1,1,1593.5,310256.2000000002,8030,NNB,B,9
10,test,3,0.0,1-Back,1,m,Thu Feb 20 2025 12:41:31 GMT-0600 (Central Standard Time),313832.5,029_m_f_n_a.png,I,m,958,1,1,1979.0,311853.5,8030,NNB,B,10
11,test,3,0.0,1-Back,1,m,Thu Feb 20 2025 12:41:31 GMT-0600 (Central Standard Time),315515.6000000001,152_y_f_n_a.png,I,m,663,1,1,1679.0,313836.6000000001,8030,NNB,B,11
12,test,3,1.0,1-Back,1,z,Thu Feb 20 2025 12:41:31 GMT-0600 (Central Standard Time),317148.2000000002,152_y_f_n_a.png,I,z,605,1,1,1628.4000000003725,315519.7999999998,8030,NNB,B,12
13,test,3,0.0,1-Back,1,m,Thu Feb 20 2025 12:41:31 GMT-0600 (Central Standard Time),319214.5,029_m_f_n_a.png,I,m,1034,1,1,2062.100000000093,317152.3999999999,8030,NNB,B,13
14,test,3,0.0,1-Back,1,m,Thu Feb 20 2025 12:41:31 GMT-0600 (Central Standard Time),321014.0,126_m_m_n_a.png,I,m,770,1,1,1795.2999999998137,319218.7000000002,8030,NNB,B,14
15,test,3,1.0,1-Back,1,z,Thu Feb 20 2025 12:41:31 GMT-0600 (Central Standard Time),322763.2000000002,126_m_m_n_a.png,I,z,722,1,1,1745.1000000000931,321018.1000000001,8030,NNB,B,15
16,test,3,0.0,1-Back,1,m,Thu Feb 20 2025 12:41:31 GMT-0600 (Central Standard Time),324679.5,086_o_f_n_a.png,I,m,893,1,1,1912.2000000001863,322767.2999999998,8030,NNB,B,16
17,test,3,1.0,1-Back,1,z,Thu Feb 20 2025 12:41:31 GMT-0600 (Central Standard Time),326378.7999999998,086_o_f_n_a.png,I,z,681,1,1,1695.3999999999069,324683.3999999999,8030,NNB,B,17
0,test,4,1.0,1-Back,,,Thu Feb 20 2025 12:41:31 GMT-0600 (Central Standard Time),326378.7999999998,097_m_f_n_a.png,I,space,1637,1,1,1695.3999999999069,324683.3999999999,8030,NNB,B,0
1,test,4,0.0,1-Back,1,m,Thu Feb 20 2025 12:41:31 GMT-0600 (Central Standard Time),331910.2999999998,065_o_m_n_a.png,I,m,752,2,1,1779.8999999999069,330130.3999999999,8030,NNB,B,1
2,test,4,0.0,1-Back,1,m,Thu Feb 20 2025 12:41:31 GMT-0600 (Central Standard Time),333876.2999999998,097_m_f_n_a.png,I,m,938,3,1,1960.8999999999069,331915.3999999999,8030,NNB,B,2
3,test,4,0.0,1-Back,1,m,Thu Feb 20 2025 12:41:31 GMT-0600 (Central Standard Time),335559.1000000001,110_o_f_n_a.png,I,m,660,4,1,1679.7000000001863,333879.3999999999,8030,NNB,B,3
4,test,4,1.0,1-Back,1,z,Thu Feb 20 2025 12:41:31 GMT-0600 (Central Standard Time),337258.5,110_o_f_n_a.png,I,z,673,5,1,1695.5,335563.0,8030,NNB,B,4
5,test,4,0.0,1-Back,1,m,Thu Feb 20 2025 12:41:31 GMT-0600 (Central Standard Time),339207.8999999999,152_y_f_n_a.png,I,m,924,6,1,1945.2999999998137,337262.6000000001,8030,NNB,B,5
6,test,4,0.0,1-Back,1,m,Thu Feb 20 2025 12:41:31 GMT-0600 (Central Standard Time),340974.1000000001,153_y_m_n_a.png,I,m,744,7,1,1762.1000000000931,339212.0,8030,NNB,B,6
7,test,4,1.0,1-Back,1,z,Thu Feb 20 2025 12:41:31 GMT-0600 (Central Standard Time),342523.7000000002,153_y_m_n_a.png,I,z,530,8,1,1545.3000000002794,340978.3999999999,8030,NNB,B,7
8,test,4,0.0,1-Back,1,m,Thu Feb 20 2025 12:41:31 GMT-0600 (Central Standard Time),344273.1000000001,152_y_f_n_a.png,I,m,724,9,1,1745.3000000002794,342527.7999999998,8030,NNB,B,8
9,test,4,0.0,1-Back,1,m,Thu Feb 20 2025 12:41:31 GMT-0600 (Central Standard Time),345956.0,178_m_m_n_a.png,I,m,655,10,1,1679.7000000001863,344276.2999999998,8030,NNB,B,9
10,test,4,1.0,1-Back,1,z,Thu Feb 20 2025 12:41:31 GMT-0600 (Central Standard Time),347555.6000000001,178_m_m_n_a.png,I,z,580,11,1,1595.6000000000931,345960.0,8030,NNB,B,10
11,test,4,0.0,1-Back,1,m,Thu Feb 20 2025 12:41:31 GMT-0600 (Central Standard Time),349238.1000000001,086_o_f_n_a.png,I,m,661,12,1,1678.2000000001863,347559.8999999999,8030,NNB,B,11
12,test,4,0.0,1-Back,1,m,Thu Feb 20 2025 12:41:31 GMT-0600 (Central Standard Time),351105.1000000001,176_o_m_n_a.png,I,m,842,13,1,1863.7000000001863,349241.3999999999,8030,NNB,B,12
13,test,4,0.0,1-Back,1,m,Thu Feb 20 2025 12:41:31 GMT-0600 (Central Standard Time),352787.0,086_o_f_n_a.png,I,m,664,14,1,1678.5,351108.5,8030,NNB,B,13
14,test,4,0.0,1-Back,1,m,Thu Feb 20 2025 12:41:31 GMT-0600 (Central Standard Time),354519.8999999999,173_y_f_n_a.png,I,m,708,15,1,1728.6999999997206,352791.2000000002,8030,NNB,B,14
15,test,4,1.0,1-Back,1,z,Thu Feb 20 2025 12:41:31 GMT-0600 (Central Standard Time),356269.2999999998,173_y_f_n_a.png,I,z,728,16,1,1746.2999999998137,354523.0,8030,NNB,B,15
16,test,4,0.0,1-Back,1,m,Thu Feb 20 2025 12:41:31 GMT-0600 (Central Standard Time),358285.3999999999,029_m_f_n_a.png,I,m,995,17,1,2012.7999999998137,356272.6000000001,8030,NNB,B,16
17,test,4,1.0,1-Back,1,z,Thu Feb 20 2025 12:41:31 GMT-0600 (Central Standard Time),359918.2999999998,029_m_f_n_a.png,I,z,603,18,1,1629.0,358289.2999999998,8030,NNB,B,17
0,test,5,1.0,1-Back,,,Thu Feb 20 2025 12:41:31 GMT-0600 (Central Standard Time),359918.2999999998,176_o_m_n_a.png,I,space,1594,1,1,1629.0,358289.2999999998,8030,NNB,B,0
1,test,5,1.0,1-Back,1,z,Thu Feb 20 2025 12:41:31 GMT-0600 (Central Standard Time),365266.6000000001,176_o_m_n_a.png,I,z,715,2,1,1728.5,363538.1000000001,8030,NNB,B,1
2,test,5,0.0,1-Back,1,m,Thu Feb 20 2025 12:41:31 GMT-0600 (Central Standard Time),366982.7000000002,152_y_f_n_a.png,I,m,693,3,1,1712.3000000002794,365270.3999999999,8030,NNB,B,2
3,test,5,0.0,1-Back,1,m,Thu Feb 20 2025 12:41:31 GMT-0600 (Central Standard Time),368948.8999999999,153_y_m_n_a.png,I,m,945,4,1,1962.1999999997206,366986.7000000002,8030,NNB,B,3
4,test,5,0.0,1-Back,1,m,Thu Feb 20 2025 12:41:31 GMT-0600 (Central Standard Time),370548.2999999998,152_y_f_n_a.png,I,m,579,5,1,1595.5,368952.7999999998,8030,NNB,B,4
5,test,5,0.0,1-Back,1,m,Thu Feb 20 2025 12:41:31 GMT-0600 (Central Standard Time),372231.1000000001,126_m_m_n_a.png,I,m,652,6,1,1679.6000000000931,370551.5,8030,NNB,B,5
6,test,5,1.0,1-Back,1,z,Thu Feb 20 2025 12:41:31 GMT-0600 (Central Standard Time),373813.8999999999,126_m_m_n_a.png,I,z,553,7,1,1578.7999999998137,372235.1000000001,8030,NNB,B,6
7,test,5,0.0,1-Back,1,m,Thu Feb 20 2025 12:41:31 GMT-0600 (Central Standard Time),375646.6000000001,173_y_f_n_a.png,I,m,810,8,1,1828.6000000000931,373818.0,8030,NNB,B,7
8,test,5,0.0,1-Back,1,m,Thu Feb 20 2025 12:41:31 GMT-0600 (Central Standard Time),377479.2000000002,013_y_m_n_a.png,I,m,810,9,1,1828.6000000000931,375650.6000000001,8030,NNB,B,8
9,test,5,0.0,1-Back,1,m,Thu Feb 20 2025 12:41:31 GMT-0600 (Central Standard Time),379212.0,173_y_f_n_a.png,I,m,705,10,1,1728.3999999999069,377483.6000000001,8030,NNB,B,9
10,test,5,0.0,1-Back,1,m,Thu Feb 20 2025 12:41:31 GMT-0600 (Central Standard Time),380928.7000000002,086_o_f_n_a.png,I,m,684,11,1,1712.6000000000931,379216.1000000001,8030,NNB,B,10
11,test,5,1.0,1-Back,1,z,Thu Feb 20 2025 12:41:31 GMT-0600 (Central Standard Time),382744.5,086_o_f_n_a.png,I,z,784,12,1,1811.8999999999069,380932.6000000001,8030,NNB,B,11
12,test,5,0.0,1-Back,1,m,Thu Feb 20 2025 12:41:31 GMT-0600 (Central Standard Time),384510.5,065_o_m_n_a.png,I,m,744,13,1,1761.6000000000931,382748.8999999999,8030,NNB,B,12
13,test,5,0.0,1-Back,1,m,Thu Feb 20 2025 12:41:31 GMT-0600 (Central Standard Time),386176.6000000001,097_m_f_n_a.png,I,m,642,14,1,1662.3999999999069,384514.2000000002,8030,NNB,B,13
14,test,5,1.0,1-Back,1,z,Thu Feb 20 2025 12:41:31 GMT-0600 (Central Standard Time),388042.7999999998,097_m_f_n_a.png,I,z,840,15,1,1862.1999999997206,386180.6000000001,8030,NNB,B,14
15,test,5,0.0,1-Back,1,m,Thu Feb 20 2025 12:41:31 GMT-0600 (Central Standard Time),389759.1000000001,065_o_m_n_a.png,I,m,693,16,1,1712.5,388046.6000000001,8030,NNB,B,15
16,test,5,0.0,1-Back,1,m,Thu Feb 20 2025 12:41:31 GMT-0600 (Central Standard Time),391441.7000000002,029_m_f_n_a.png,I,m,657,17,1,1678.3000000002794,389763.3999999999,8030,NNB,B,16
17,test,5,0.0,1-Back,1,m,Thu Feb 20 2025 12:41:31 GMT-0600 (Central Standard Time),393074.7000000002,178_m_m_n_a.png,I,m,606,18,1,1629.1000000000931,391445.6000000001,8030,NNB,B,17
0,prac,1,0.0,2-Back,,,Thu Feb 20 2025 12:41:31 GMT-0600 (Central Standard Time),393074.7000000002,013_y_m_n_a.png,I,space,6215,1,1,1629.1000000000931,391445.6000000001,8030,NNB,B,0
0,prac,1,0.0,2-Back,,,Thu Feb 20 2025 12:41:31 GMT-0600 (Central Standard Time),393074.7000000002,029_m_f_n_a.png,I,space,6215,2,1,1629.1000000000931,391445.6000000001,8030,NNB,B,0
1,prac,1,1.0,2-Back,1,m,Thu Feb 20 2025 12:41:31 GMT-0600 (Central Standard Time),632217.7000000002,065_o_m_n_a.png,I,m,1006,3,1,1878.5,630339.2000000002,8030,NNB,B,1
2,prac,1,0.0,2-Back,1,m,Thu Feb 20 2025 12:41:31 GMT-0600 (Central Standard Time),634216.0,086_o_f_n_a.png,I,m,1113,4,1,1991.5,632224.5,8030,NNB,B,2
2,prac,1,0.0,2-Back,0,z,Thu Feb 20 2025 12:41:31 GMT-0600 (Central Standard Time),636498.3999999999,065_o_m_n_a.png,I,m,1506,5,1,2276.0,634222.3999999999,8030,NNB,B,3
2,prac,1,1.0,2-Back,0,z,Thu Feb 20 2025 12:41:31 GMT-0600 (Central Standard Time),639247.7999999998,086_o_f_n_a.png,I,m,1961,6,1,2743.5999999996275,636504.2000000002,8030,NNB,B,4
3,prac,1,0.0,2-Back,1,m,Thu Feb 20 2025 12:41:31 GMT-0600 (Central Standard Time),641647.0,178_m_m_n_a.png,I,m,1527,7,1,2393.5,639253.5,8030,NNB,B,5
4,prac,1,0.0,2-Back,1,m,Thu Feb 20 2025 12:41:31 GMT-0600 (Central Standard Time),643879.7999999998,176_o_m_n_a.png,I,m,1353,8,1,2225.5999999996275,641654.2000000002,8030,NNB,B,6
5,prac,1,0.0,2-Back,1,m,Thu Feb 20 2025 12:41:31 GMT-0600 (Central Standard Time),645812.3999999999,173_y_f_n_a.png,I,m,1066,9,1,1926.1999999997206,643886.2000000002,8030,NNB,B,7
6,prac,1,1.0,2-Back,1,z,Thu Feb 20 2025 12:41:31 GMT-0600 (Central Standard Time),648045.1000000001,176_o_m_n_a.png,I,z,1447,10,1,2227.100000000093,645818.0,8030,NNB,B,8
7,prac,1,0.0,2-Back,1,m,Thu Feb 20 2025 12:41:31 GMT-0600 (Central Standard Time),650260.8999999999,152_y_f_n_a.png,I,m,1342,11,1,2208.7999999998137,648052.1000000001,8030,NNB,B,9
7,prac,1,0.0,2-Back,0,m,Thu Feb 20 2025 12:41:31 GMT-0600 (Central Standard Time),652510.2000000002,178_m_m_n_a.png,I,z,1469,12,1,2242.4000000003725,650267.7999999998,8030,NNB,B,10
0,test,1,0.0,2-Back,,,Thu Feb 20 2025 12:41:31 GMT-0600 (Central Standard Time),652510.2000000002,153_y_m_n_a.png,I,space,19975,1,1,2242.4000000003725,650267.7999999998,8030,NNB,B,0
0,test,1,0.0,2-Back,,,Thu Feb 20 2025 12:41:31 GMT-0600 (Central Standard Time),652510.2000000002,153_y_m_n_a.png,I,space,19975,2,1,2242.4000000003725,650267.7999999998,8030,NNB,B,0
1,test,1,0.0,2-Back,1,m,Thu Feb 20 2025 12:41:31 GMT-0600 (Central Standard Time),690331.2999999998,086_o_f_n_a.png,I,m,913,3,1,1928.2999999998137,688403.0,8030,NNB,B,1
2,test,1,0.0,2-Back,1,m,Thu Feb 20 2025 12:41:31 GMT-0600 (Central Standard Time),692081.2999999998,126_m_m_n_a.png,I,m,717,4,1,1746.3999999999069,690334.8999999999,8030,NNB,B,2
3,test,1,1.0,2-Back,1,z,Thu Feb 20 2025 12:41:31 GMT-0600 (Central Standard Time),693997.1000000001,086_o_f_n_a.png,I,z,895,5,1,1912.0,692085.1000000001,8030,NNB,B,3
4,test,1,0.0,2-Back,1,m,Thu Feb 20 2025 12:41:31 GMT-0600 (Central Standard Time),695946.3999999999,152_y_f_n_a.png,I,m,923,6,1,1945.3999999999069,694001.0,8030,NNB,B,4
5,test,1,0.0,2-Back,1,m,Thu Feb 20 2025 12:41:31 GMT-0600 (Central Standard Time),697879.2999999998,126_m_m_n_a.png,I,m,910,7,1,1929.0999999996275,695950.2000000002,8030,NNB,B,5
6,test,1,1.0,2-Back,1,z,Thu Feb 20 2025 12:41:31 GMT-0600 (Central Standard Time),699978.5,152_y_f_n_a.png,I,z,1073,8,1,2096.2000000001863,697882.2999999998,8030,NNB,B,6
7,test,1,0.0,2-Back,1,m,Thu Feb 20 2025 12:41:31 GMT-0600 (Central Standard Time),702061.3999999999,013_y_m_n_a.png,I,m,1054,9,1,2079.0,699982.3999999999,8030,NNB,B,7
8,test,1,0.0,2-Back,1,m,Thu Feb 20 2025 12:41:31 GMT-0600 (Central Standard Time),704177.5,110_o_f_n_a.png,I,m,1099,10,1,2112.0,702065.5,8030,NNB,B,8
9,test,1,1.0,2-Back,1,z,Thu Feb 20 2025 12:41:31 GMT-0600 (Central Standard Time),706643.2000000002,013_y_m_n_a.png,I,z,1447,11,1,2461.8000000002794,704181.3999999999,8030,NNB,B,9
10,test,1,0.0,2-Back,1,m,Thu Feb 20 2025 12:41:31 GMT-0600 (Central Standard Time),708792.3999999999,029_m_f_n_a.png,I,m,1125,12,1,2145.2999999998137,706647.1000000001,8030,NNB,B,10
10,test,1,0.0,2-Back,0,m,Thu Feb 20 2025 12:41:31 GMT-0600 (Central Standard Time),711824.8999999999,029_m_f_n_a.png,I,None,2016,13,1,3028.6999999997206,708796.2000000002,8030,NNB,B,11
11,test,1,0.0,2-Back,1,m,Thu Feb 20 2025 12:41:31 GMT-0600 (Central Standard Time),713841.0,065_o_m_n_a.png,I,m,984,14,1,2012.2000000001863,711828.7999999998,8030,NNB,B,12
12,test,1,0.0,2-Back,1,m,Thu Feb 20 2025 12:41:31 GMT-0600 (Central Standard Time),716177.6000000001,110_o_f_n_a.png,I,m,1311,15,1,2332.8000000002794,713844.7999999998,8030,NNB,B,13
13,test,1,1.0,2-Back,1,z,Thu Feb 20 2025 12:41:31 GMT-0600 (Central Standard Time),718072.8999999999,065_o_m_n_a.png,I,z,875,16,1,1891.3999999999069,716181.5,8030,NNB,B,14
14,test,1,0.0,2-Back,1,m,Thu Feb 20 2025 12:41:31 GMT-0600 (Central Standard Time),720022.3999999999,097_m_f_n_a.png,I,m,919,17,1,1945.6000000000931,718076.7999999998,8030,NNB,B,15
15,test,1,0.0,2-Back,1,m,Thu Feb 20 2025 12:41:31 GMT-0600 (Central Standard Time),721971.6000000001,178_m_m_n_a.png,I,m,930,18,1,1946.1000000000931,720025.5,8030,NNB,B,16
0,test,2,0.0,2-Back,,,Thu Feb 20 2025 12:41:31 GMT-0600 (Central Standard Time),721971.6000000001,178_m_m_n_a.png,I,space,3893,1,1,1946.1000000000931,720025.5,8030,NNB,B,0
0,test,2,0.0,2-Back,,,Thu Feb 20 2025 12:41:31 GMT-0600 (Central Standard Time),721971.6000000001,173_y_f_n_a.png,I,space,3893,2,1,1946.1000000000931,720025.5,8030,NNB,B,0
1,test,2,1.0,2-Back,1,z,Thu Feb 20 2025 12:41:31 GMT-0600 (Central Standard Time),732651.7000000002,178_m_m_n_a.png,I,z,622,3,1,1645.1000000000931,731006.6000000001,8030,NNB,B,1
2,test,2,0.0,2-Back,1,m,Thu Feb 20 2025 12:41:31 GMT-0600 (Central Standard Time),734501.2000000002,097_m_f_n_a.png,I,m,829,4,1,1845.7000000001863,732655.5,8030,NNB,B,2
2,test,2,0.0,2-Back,0,m,Thu Feb 20 2025 12:41:31 GMT-0600 (Central Standard Time),736567.2000000002,173_y_f_n_a.png,I,z,1043,5,1,2062.100000000093,734505.1000000001,8030,NNB,B,3
3,test,2,0.0,2-Back,1,m,Thu Feb 20 2025 12:41:31 GMT-0600 (Central Standard Time),738366.5,065_o_m_n_a.png,I,m,777,6,1,1795.5,736571.0,8030,NNB,B,4
4,test,2,0.0,2-Back,1,m,Thu Feb 20 2025 12:41:31 GMT-0600 (Central Standard Time),740467.0,152_y_f_n_a.png,I,m,958,7,1,2097.100000000093,738369.8999999999,8030,NNB,B,5
5,test,2,1.0,2-Back,1,z,Thu Feb 20 2025 12:41:31 GMT-0600 (Central Standard Time),742332.2000000002,065_o_m_n_a.png,I,z,838,8,1,1861.0,740471.2000000002,8030,NNB,B,6
6,test,2,0.0,2-Back,1,m,Thu Feb 20 2025 12:41:31 GMT-0600 (Central Standard Time),744381.2999999998,013_y_m_n_a.png,I,m,1028,9,1,2045.0999999996275,742336.2000000002,8030,NNB,B,7
6,test,2,0.0,2-Back,0,m,Thu Feb 20 2025 12:41:31 GMT-0600 (Central Standard Time),746497.3999999999,013_y_m_n_a.png,I,z,1099,10,1,2112.6999999997206,744384.7000000002,8030,NNB,B,8
7,test,2,0.0,2-Back,1,m,Thu Feb 20 2025 12:41:31 GMT-0600 (Central Standard Time),748396.7999999998,029_m_f_n_a.png,I,m,871,11,1,1895.7999999998137,746501.0,8030,NNB,B,9
8,test,2,0.0,2-Back,1,m,Thu Feb 20 2025 12:41:31 GMT-0600 (Central Standard Time),750562.5,173_y_f_n_a.png,I,m,1147,12,1,2162.100000000093,748400.3999999999,8030,NNB,B,10
8,test,2,1.0,2-Back,0,z,Thu Feb 20 2025 12:41:31 GMT-0600 (Central Standard Time),752512.2000000002,029_m_f_n_a.png,I,m,925,13,1,1945.8000000002794,750566.3999999999,8030,NNB,B,11
9,test,2,0.0,2-Back,1,m,Thu Feb 20 2025 12:41:31 GMT-0600 (Central Standard Time),754361.6000000001,176_o_m_n_a.png,I,m,832,14,1,1845.5,752516.1000000001,8030,NNB,B,12
9,test,2,0.0,2-Back,0,m,Thu Feb 20 2025 12:41:31 GMT-0600 (Central Standard Time),756327.7000000002,176_o_m_n_a.png,I,z,935,15,1,1961.9000000003725,754365.7999999998,8030,NNB,B,13
10,test,2,0.0,2-Back,1,m,Thu Feb 20 2025 12:41:31 GMT-0600 (Central Standard Time),758227.2000000002,110_o_f_n_a.png,I,m,873,16,1,1896.2000000001863,756331.0,8030,NNB,B,14
11,test,2,0.0,2-Back,1,m,Thu Feb 20 2025 12:41:31 GMT-0600 (Central Standard Time),760276.3999999999,126_m_m_n_a.png,I,m,1029,17,1,2045.2999999998137,758231.1000000001,8030,NNB,B,15
12,test,2,1.0,2-Back,1,z,Thu Feb 20 2025 12:41:31 GMT-0600 (Central Standard Time),762242.5,110_o_f_n_a.png,I,z,948,18,1,1962.2999999998137,760280.2000000002,8030,NNB,B,16
0,test,3,1.0,2-Back,,,Thu Feb 20 2025 12:41:31 GMT-0600 (Central Standard Time),762242.5,153_y_m_n_a.png,I,space,2086,1,1,1962.2999999998137,760280.2000000002,8030,NNB,B,0
0,test,3,1.0,2-Back,,,Thu Feb 20 2025 12:41:31 GMT-0600 (Central Standard Time),762242.5,153_y_m_n_a.png,I,space,2086,2,1,1962.2999999998137,760280.2000000002,8030,NNB,B,0
1,test,3,0.0,2-Back,1,m,Thu Feb 20 2025 12:41:31 GMT-0600 (Central Standard Time),771339.5,110_o_f_n_a.png,I,m,839,3,1,1862.0,769477.5,8030,NNB,B,1
2,test,3,0.0,2-Back,1,m,Thu Feb 20 2025 12:41:31 GMT-0600 (Central Standard Time),773172.2000000002,178_m_m_n_a.png,I,m,805,4,1,1829.6000000000931,771342.6000000001,8030,NNB,B,2
3,test,3,1.0,2-Back,1,z,Thu Feb 20 2025 12:41:31 GMT-0600 (Central Standard Time),775155.1000000001,110_o_f_n_a.png,I,z,964,5,1,1979.0,773176.1000000001,8030,NNB,B,3
4,test,3,0.0,2-Back,1,m,Thu Feb 20 2025 12:41:31 GMT-0600 (Central Standard Time),776971.2000000002,013_y_m_n_a.png,I,m,797,6,1,1812.3000000002794,775158.8999999999,8030,NNB,B,4
4,test,3,0.0,2-Back,0,m,Thu Feb 20 2025 12:41:31 GMT-0600 (Central Standard Time),778737.6000000001,178_m_m_n_a.png,I,z,741,7,1,1762.5,776975.1000000001,8030,NNB,B,5
5,test,3,1.0,2-Back,1,z,Thu Feb 20 2025 12:41:31 GMT-0600 (Central Standard Time),781186.2999999998,013_y_m_n_a.png,I,z,1431,8,1,2444.6999999997206,778741.6000000001,8030,NNB,B,6
6,test,3,0.0,2-Back,1,m,Thu Feb 20 2025 12:41:31 GMT-0600 (Central Standard Time),783902.1000000001,173_y_f_n_a.png,I,m,1693,9,1,2711.8000000002794,781190.2999999998,8030,NNB,B,7
7,test,3,0.0,2-Back,1,m,Thu Feb 20 2025 12:41:31 GMT-0600 (Central Standard Time),785785.2000000002,126_m_m_n_a.png,I,m,850,10,1,1879.2000000001863,783906.0,8030,NNB,B,8
8,test,3,1.0,2-Back,1,z,Thu Feb 20 2025 12:41:31 GMT-0600 (Central Standard Time),787500.8999999999,173_y_f_n_a.png,I,z,687,11,1,1712.6000000000931,785788.2999999998,8030,NNB,B,9
8,test,3,1.0,2-Back,0,z,Thu Feb 20 2025 12:41:31 GMT-0600 (Central Standard Time),789733.7999999998,126_m_m_n_a.png,I,m,1211,12,1,2229.6999999997206,787504.1000000001,8030,NNB,B,10
9,test,3,0.0,2-Back,1,m,Thu Feb 20 2025 12:41:31 GMT-0600 (Central Standard Time),791733.2000000002,110_o_f_n_a.png,I,m,971,13,1,1995.6000000000931,789737.6000000001,8030,NNB,B,11
10,test,3,0.0,2-Back,1,m,Thu Feb 20 2025 12:41:31 GMT-0600 (Central Standard Time),793699.2999999998,097_m_f_n_a.png,I,m,947,14,1,1962.7999999998137,791736.5,8030,NNB,B,12
11,test,3,0.0,2-Back,1,m,Thu Feb 20 2025 12:41:31 GMT-0600 (Central Standard Time),795482.0,065_o_m_n_a.png,I,m,765,15,1,1779.2000000001863,793702.7999999998,8030,NNB,B,13
12,test,3,1.0,2-Back,1,z,Thu Feb 20 2025 12:41:31 GMT-0600 (Central Standard Time),797314.7999999998,097_m_f_n_a.png,I,z,814,16,1,1829.0,795485.7999999998,8030,NNB,B,14
13,test,3,0.0,2-Back,1,m,Thu Feb 20 2025 12:41:31 GMT-0600 (Central Standard Time),799247.3999999999,086_o_f_n_a.png,I,m,901,17,1,1928.2999999998137,797319.1000000001,8030,NNB,B,15
14,test,3,0.0,2-Back,1,m,Thu Feb 20 2025 12:41:31 GMT-0600 (Central Standard Time),801729.8999999999,086_o_f_n_a.png,I,m,1457,18,1,2478.6999999997206,799251.2000000002,8030,NNB,B,16
0,test,4,0.0,2-Back,,,Thu Feb 20 2025 12:41:31 GMT-0600 (Central Standard Time),801729.8999999999,176_o_m_n_a.png,I,space,2254,1,1,2478.6999999997206,799251.2000000002,8030,NNB,B,0
0,test,4,0.0,2-Back,,,Thu Feb 20 2025 12:41:31 GMT-0600 (Central Standard Time),801729.8999999999,152_y_f_n_a.png,I,space,2254,2,1,2478.6999999997206,799251.2000000002,8030,NNB,B,0
1,test,4,1.0,2-Back,1,z,Thu Feb 20 2025 12:41:31 GMT-0600 (Central Standard Time),811677.0,176_o_m_n_a.png,I,z,1413,3,1,2428.7000000001863,809248.2999999998,8030,NNB,B,1
1,test,4,1.0,2-Back,0,z,Thu Feb 20 2025 12:41:31 GMT-0600 (Central Standard Time),813426.6000000001,152_y_f_n_a.png,I,m,723,4,1,1745.8000000002794,811680.7999999998,8030,NNB,B,2
2,test,4,0.0,2-Back,1,m,Thu Feb 20 2025 12:41:31 GMT-0600 (Central Standard Time),815342.5,110_o_f_n_a.png,I,m,886,5,1,1911.3999999999069,813431.1000000001,8030,NNB,B,3
2,test,4,0.0,2-Back,0,m,Thu Feb 20 2025 12:41:31 GMT-0600 (Central Standard Time),817592.0,110_o_f_n_a.png,I,z,1217,6,1,2245.399999999907,815346.6000000001,8030,NNB,B,4
3,test,4,0.0,2-Back,1,m,Thu Feb 20 2025 12:41:31 GMT-0600 (Central Standard Time),819507.6000000001,029_m_f_n_a.png,I,m,896,7,1,1911.6000000000931,817596.0,8030,NNB,B,5
4,test,4,0.0,2-Back,1,m,Thu Feb 20 2025 12:41:31 GMT-0600 (Central Standard Time),821323.8999999999,013_y_m_n_a.png,I,m,788,8,1,1812.6999999997206,819511.2000000002,8030,NNB,B,6
5,test,4,1.0,2-Back,1,z,Thu Feb 20 2025 12:41:31 GMT-0600 (Central Standard Time),823123.2999999998,029_m_f_n_a.png,I,z,780,9,1,1795.5,821327.7999999998,8030,NNB,B,7
6,test,4,0.0,2-Back,1,m,Thu Feb 20 2025 12:41:31 GMT-0600 (Central Standard Time),825122.7000000002,126_m_m_n_a.png,I,m,973,10,1,1995.5,823127.2000000002,8030,NNB,B,8
7,test,4,0.0,2-Back,1,m,Thu Feb 20 2025 12:41:31 GMT-0600 (Central Standard Time),827323.2000000002,013_y_m_n_a.png,I,m,1181,11,1,2196.4000000003725,825126.7999999998,8030,NNB,B,9
8,test,4,0.0,2-Back,1,m,Thu Feb 20 2025 12:41:31 GMT-0600 (Central Standard Time),829288.2999999998,086_o_f_n_a.png,I,m,934,12,1,1961.0999999996275,827327.2000000002,8030,NNB,B,10
9,test,4,0.0,2-Back,1,m,Thu Feb 20 2025 12:41:31 GMT-0600 (Central Standard Time),831137.7999999998,153_y_m_n_a.png,I,m,833,13,1,1845.8999999999069,829291.8999999999,8030,NNB,B,11
10,test,4,1.0,2-Back,1,z,Thu Feb 20 2025 12:41:31 GMT-0600 (Central Standard Time),832870.5,086_o_f_n_a.png,I,z,702,14,1,1729.7999999998137,831140.7000000002,8030,NNB,B,12
10,test,4,1.0,2-Back,0,z,Thu Feb 20 2025 12:41:31 GMT-0600 (Central Standard Time),835369.7000000002,153_y_m_n_a.png,I,m,1479,15,1,2495.4000000003725,832874.2999999998,8030,NNB,B,13
11,test,4,0.0,2-Back,1,m,Thu Feb 20 2025 12:41:31 GMT-0600 (Central Standard Time),837319.0,178_m_m_n_a.png,I,m,926,16,1,1945.2000000001863,835373.7999999998,8030,NNB,B,14
12,test,4,0.0,2-Back,1,m,Thu Feb 20 2025 12:41:31 GMT-0600 (Central Standard Time),839268.2999999998,097_m_f_n_a.png,I,m,921,17,1,1945.5,837322.7999999998,8030,NNB,B,15
13,test,4,1.0,2-Back,1,z,Thu Feb 20 2025 12:41:31 GMT-0600 (Central Standard Time),841267.7000000002,178_m_m_n_a.png,I,z,972,18,1,1995.5,839272.2000000002,8030,NNB,B,16
0,test,5,1.0,2-Back,,,Thu Feb 20 2025 12:41:31 GMT-0600 (Central Standard Time),841267.7000000002,153_y_m_n_a.png,I,space,2053,1,1,1995.5,839272.2000000002,8030,NNB,B,0
0,test,5,1.0,2-Back,,,Thu Feb 20 2025 12:41:31 GMT-0600 (Central Standard Time),841267.7000000002,097_m_f_n_a.png,I,space,2053,2,1,1995.5,839272.2000000002,8030,NNB,B,0
1,test,5,1.0,2-Back,1,z,Thu Feb 20 2025 12:41:31 GMT-0600 (Central Standard Time),850998.2000000002,153_y_m_n_a.png,I,z,1594,3,1,2611.8000000002794,848386.3999999999,8030,NNB,B,1
1,test,5,1.0,2-Back,0,z,Thu Feb 20 2025 12:41:31 GMT-0600 (Central Standard Time),853664.0,097_m_f_n_a.png,I,m,1634,4,1,2661.5,851002.5,8030,NNB,B,2
2,test,5,0.0,2-Back,1,m,Thu Feb 20 2025 12:41:31 GMT-0600 (Central Standard Time),855729.7999999998,086_o_f_n_a.png,I,m,1040,5,1,2062.0999999996275,853667.7000000002,8030,NNB,B,3
3,test,5,0.0,2-Back,1,m,Thu Feb 20 2025 12:41:31 GMT-0600 (Central Standard Time),858129.2000000002,153_y_m_n_a.png,I,m,1374,6,1,2395.8000000002794,855733.3999999999,8030,NNB,B,4
4,test,5,0.0,2-Back,1,m,Thu Feb 20 2025 12:41:31 GMT-0600 (Central Standard Time),860178.2999999998,173_y_f_n_a.png,I,m,1031,7,1,2046.0,858132.2999999998,8030,NNB,B,5
5,test,5,0.0,2-Back,1,m,Thu Feb 20 2025 12:41:31 GMT-0600 (Central Standard Time),861994.7000000002,086_o_f_n_a.png,I,m,790,8,1,1812.5,860182.2000000002,8030,NNB,B,6
6,test,5,1.0,2-Back,1,z,Thu Feb 20 2025 12:41:31 GMT-0600 (Central Standard Time),863844.1000000001,173_y_f_n_a.png,I,z,830,9,1,1845.8000000002794,861998.2999999998,8030,NNB,B,7
7,test,5,0.0,2-Back,1,m,Thu Feb 20 2025 12:41:31 GMT-0600 (Central Standard Time),865760.0,065_o_m_n_a.png,I,m,893,10,1,1912.2000000001863,863847.7999999998,8030,NNB,B,8
8,test,5,0.0,2-Back,1,m,Thu Feb 20 2025 12:41:31 GMT-0600 (Central Standard Time),867759.3999999999,029_m_f_n_a.png,I,m,968,11,1,1995.6000000000931,865763.7999999998,8030,NNB,B,9
9,test,5,0.0,2-Back,1,m,Thu Feb 20 2025 12:41:31 GMT-0600 (Central Standard Time),869742.2999999998,126_m_m_n_a.png,I,m,961,12,1,1978.7999999998137,867763.5,8030,NNB,B,10
10,test,5,0.0,2-Back,1,m,Thu Feb 20 2025 12:41:31 GMT-0600 (Central Standard Time),872691.0,065_o_m_n_a.png,I,m,1922,13,1,2944.7999999998137,869746.2000000002,8030,NNB,B,11
11,test,5,1.0,2-Back,1,z,Thu Feb 20 2025 12:41:31 GMT-0600 (Central Standard Time),875223.7999999998,126_m_m_n_a.png,I,z,1501,14,1,2529.0999999996275,872694.7000000002,8030,NNB,B,12
12,test,5,0.0,2-Back,1,m,Thu Feb 20 2025 12:41:31 GMT-0600 (Central Standard Time),877306.3999999999,152_y_f_n_a.png,I,m,1065,15,1,2079.0,875227.3999999999,8030,NNB,B,13
13,test,5,0.0,2-Back,1,m,Thu Feb 20 2025 12:41:31 GMT-0600 (Central Standard Time),879405.7999999998,176_o_m_n_a.png,I,m,1070,16,1,2095.6999999997206,877310.1000000001,8030,NNB,B,14
14,test,5,0.0,2-Back,1,m,Thu Feb 20 2025 12:41:31 GMT-0600 (Central Standard Time),881271.8999999999,029_m_f_n_a.png,I,m,843,17,1,1861.7999999998137,879410.1000000001,8030,NNB,B,15
15,test,5,1.0,2-Back,1,z,Thu Feb 20 2025 12:41:31 GMT-0600 (Central Standard Time),883338.1000000001,176_o_m_n_a.png,I,z,1048,18,1,2062.2000000001863,881275.8999999999,8030,NNB,B,16
