acc_sum,block,block_c,condition,correct,correct_response,datetime,endtime,flanker,jitter,project,response,response_test_buffer_response,response_test_target_response,response_time,response_time_test_buffer_response,response_time_test_target_response,row_sel,session_number,start_end,starttime,subject_id,target,task,task_vers,time_test_buffer,time_test_buffer_response,time_test_constants,time_test_flanker,time_test_jitter,time_test_logger,time_test_target,time_test_target_response,time_test_variables,trial
1,prac,1,con,1,z,Fri Oct 04 2024 09:11:52 GMT-0500 (Central Daylight Time),128574.19999999925,brutal,800,I,z,,,643,,,13,1,2744.39999999851,125829.80000000075,8003,brutal,AF,A,,,,,,,,,,1
2,prac,1,inc,1,m,Fri Oct 04 2024 09:11:52 GMT-0500 (Central Daylight Time),131273.40000000224,kind,900,I,m,,,482,,,2,1,2694.10000000149,128579.30000000075,8003,rock,AF,A,,,,,,,,,,2
3,prac,1,inc,1,m,Fri Oct 04 2024 09:11:52 GMT-0500 (Central Daylight Time),134072.40000000224,elated,900,I,m,,,584,,,6,1,2794.5,131277.90000000224,8003,napkin,AF,A,,,,,,,,,,3
4,prac,1,con,1,m,Fri Oct 04 2024 09:11:52 GMT-0500 (Central Daylight Time),136921.5,jacket,800,I,m,,,731,,,5,1,2844.699999999255,134076.80000000075,8003,jacket,AF,A,,,,,,,,,,4
5,prac,1,con,1,m,Fri Oct 04 2024 09:11:52 GMT-0500 (Central Daylight Time),139420.5,step,800,I,m,,,386,,,1,1,2494.199999999255,136926.30000000075,8003,step,AF,A,,,,,,,,,,5
6,prac,1,inc,1,z,Fri Oct 04 2024 09:11:52 GMT-0500 (Central Daylight Time),142419.80000000075,window,1100,I,z,,,595,,,16,1,2994.800000000745,139425.0,8003,temper,AF,A,,,,,,,,,,6
7,prac,1,con,1,m,Fri Oct 04 2024 09:11:52 GMT-0500 (Central Daylight Time),145368.80000000075,remote,1000,I,m,,,648,,,7,1,2944.699999999255,142424.1000000015,8003,remote,AF,A,,,,,,,,,,7
8,prac,1,inc,1,z,Fri Oct 04 2024 09:11:52 GMT-0500 (Central Daylight Time),148251.30000000075,film,900,I,z,,,681,,,14,1,2878.300000000745,145373.0,8003,hate,AF,A,,,,,,,,,,8
9,prac,1,con,1,z,Fri Oct 04 2024 09:11:52 GMT-0500 (Central Daylight Time),150933.5,elated,800,I,z,,,569,,,9,1,2678.0,148255.5,8003,elated,AF,A,,,,,,,,,,9
10,prac,1,inc,1,z,Fri Oct 04 2024 09:11:52 GMT-0500 (Central Daylight Time),153832.69999999925,rock,900,I,z,,,698,,,10,1,2894.599999997765,150938.1000000015,8003,kind,AF,A,,,,,,,,,,10
11,prac,1,inc,1,z,Fri Oct 04 2024 09:11:52 GMT-0500 (Central Daylight Time),157202.40000000224,napkin,1100,I,z,,,967,,,12,1,3364.800000000745,153837.6000000015,8003,friend,AF,A,,,,,,,,,,11
12,prac,1,inc,1,m,Fri Oct 04 2024 09:11:52 GMT-0500 (Central Daylight Time),160330.80000000075,brutal,1100,I,m,,,731,,,8,1,3123.800000000745,157207.0,8003,window,AF,A,,,,,,,,,,12
13,prac,1,inc,1,m,Fri Oct 04 2024 09:11:52 GMT-0500 (Central Daylight Time),163514.90000000224,hate,1100,I,m,,,773,,,4,1,3179.800000000745,160335.1000000015,8003,film,AF,A,,,,,,,,,,13
14,prac,1,con,1,z,Fri Oct 04 2024 09:11:52 GMT-0500 (Central Daylight Time),166278.90000000224,love,1000,I,z,,,460,,,11,1,2759.60000000149,163519.30000000075,8003,love,AF,A,,,,,,,,,,14
15,prac,1,con,1,z,Fri Oct 04 2024 09:11:52 GMT-0500 (Central Daylight Time),169178.0,rage,1000,I,z,,,598,,,15,1,2894.5,166283.5,8003,rage,AF,A,,,,,,,,,,15
16,prac,1,con,1,m,Fri Oct 04 2024 09:11:52 GMT-0500 (Central Daylight Time),172093.6000000015,bell,1000,I,m,,,603,,,3,1,2911.199999999255,169182.40000000224,8003,bell,AF,A,,,,,,,,,,16
1,test,1,con,1,m,Fri Oct 04 2024 09:11:52 GMT-0500 (Central Daylight Time),192703.80000000075,window,1000,I,m,m,None,569,369.0,200.0,123,1,2112.10000000149,190591.69999999925,8003,window,AF,A,188701,188701,186972,187985,186972,189084,188501,188501,189084,1
2,test,1,inc,1,m,Fri Oct 04 2024 09:11:52 GMT-0500 (Central Daylight Time),194703.30000000075,elated,800,I,m,m,None,653,453.0,200.0,109,1,1993.699999999255,192709.6000000015,8003,napkin,AF,A,190617,190617,189090,189901,189090,191083,190417,190417,191083,2
3,test,1,con,1,z,Fri Oct 04 2024 09:11:52 GMT-0500 (Central Daylight Time),196885.90000000224,friend,1000,I,z,z,None,645,445.0,200.0,27,1,2178.2000000029802,194707.69999999925,8003,friend,AF,A,192816,192817,191088,192100,191088,193266,192616,192616,193266,3
4,test,1,con,1,z,Fri Oct 04 2024 09:11:52 GMT-0500 (Central Daylight Time),198935.1000000015,brutal,1000,I,z,z,None,511,311.0,200.0,35,1,2044.9000000022352,196890.19999999925,8003,brutal,AF,A,194999,194999,193270,194282,193270,195315,194799,194799,195315,4
5,test,1,inc,1,m,Fri Oct 04 2024 09:11:52 GMT-0500 (Central Daylight Time),201050.90000000224,kind,900,I,m,m,None,681,481.0,200.0,70,1,2111.60000000149,198939.30000000075,8003,step,AF,A,196949,196949,195319,196232,195320,197431,196748,196748,197431,5
6,test,1,inc,1,m,Fri Oct 04 2024 09:11:52 GMT-0500 (Central Daylight Time),203017.30000000075,elated,800,I,m,m,None,618,418.0,200.0,125,1,1962.699999999255,201054.6000000015,8003,window,AF,A,198964,198964,197435,198248,197435,199397,198764,198764,199397,6
7,test,1,con,1,m,Fri Oct 04 2024 09:11:52 GMT-0500 (Central Daylight Time),205166.6000000015,jacket,800,I,m,m,None,803,604.0,199.0,97,1,2145.199999999255,203021.40000000224,8003,jacket,AF,A,200930,200930,199401,200214,199402,201547,200731,200731,201547,7
8,test,1,inc,1,z,Fri Oct 04 2024 09:11:52 GMT-0500 (Central Daylight Time),207316.0,remote,1000,I,z,z,None,613,414.0,199.0,39,1,2145.0,205171.0,8003,brutal,AF,A,203280,203280,201551,202563,201551,203696,203080,203080,203696,8
9,test,1,inc,1,m,Fri Oct 04 2024 09:11:52 GMT-0500 (Central Daylight Time),209448.5,love,1000,I,m,m,None,585,385.0,200.0,71,1,2128.39999999851,207320.1000000015,8003,step,AF,A,205429,205429,203700,204714,203700,205829,205229,205229,205828,9
10,test,1,con,1,m,Fri Oct 04 2024 09:11:52 GMT-0500 (Central Daylight Time),211581.30000000075,napkin,1100,I,m,m,None,488,288.0,200.0,108,1,2128.800000000745,209452.5,8003,napkin,AF,A,207662,207662,205833,206945,205833,207961,207462,207462,207961,10
11,test,1,inc,1,z,Fri Oct 04 2024 09:11:52 GMT-0500 (Central Daylight Time),213747.1000000015,remote,1000,I,z,z,None,623,424.0,199.0,31,1,2161.300000000745,211585.80000000075,8003,friend,AF,A,209694,209694,207966,208978,207966,210127,209495,209495,210127,11
12,test,1,con,1,z,Fri Oct 04 2024 09:11:52 GMT-0500 (Central Daylight Time),216063.30000000075,love,1100,I,z,z,None,670,470.0,200.0,20,1,2311.60000000149,213751.69999999925,8003,love,AF,A,211960,211960,210132,211244,210132,212443,211760,211760,212443,12
13,test,1,inc,1,z,Fri Oct 04 2024 09:11:52 GMT-0500 (Central Daylight Time),218029.30000000075,jacket,800,I,z,z,None,620,421.0,199.0,5,1,1962.0,216067.30000000075,8003,elated,AF,A,213976,213977,212447,213260,212448,214409,213777,213777,214409,13
14,test,1,con,1,z,Fri Oct 04 2024 09:11:52 GMT-0500 (Central Daylight Time),219762.1000000015,rage,800,I,z,z,None,392,192.0,200.0,49,1,1728.6000000014901,218033.5,8003,rage,AF,A,215942,215942,214414,215226,214414,216142,215742,215742,216142,14
15,test,1,inc,1,m,Fri Oct 04 2024 09:11:52 GMT-0500 (Central Daylight Time),221844.69999999925,brutal,900,I,m,m,None,646,447.0,199.0,118,1,2078.599999997765,219766.1000000015,8003,remote,AF,A,217775,217775,216146,217059,216146,218225,217575,217576,218225,15
16,test,1,con,1,z,Fri Oct 04 2024 09:11:52 GMT-0500 (Central Daylight Time),224094.0,elated,900,I,z,z,None,811,612.0,199.0,2,1,2245.199999999255,221848.80000000075,8003,elated,AF,A,219858,219858,218229,219141,218229,220474,219658,219658,220474,16
17,test,1,con,1,m,Fri Oct 04 2024 09:11:52 GMT-0500 (Central Daylight Time),226076.5,film,1000,I,m,m,None,439,239.0,200.0,91,1,1978.300000000745,224098.19999999925,8003,film,AF,A,222207,222207,220478,221491,220478,222457,222007,222007,222456,17
18,test,1,inc,1,z,Fri Oct 04 2024 09:11:52 GMT-0500 (Central Daylight Time),228026.5,step,800,I,z,z,None,609,379.0,230.0,13,1,1945.3999999985099,226081.1000000015,8003,kind,AF,A,224020,224020,222461,223274,222461,224407,223790,223790,224406,18
19,test,1,inc,1,m,Fri Oct 04 2024 09:11:52 GMT-0500 (Central Daylight Time),230192.30000000075,temper,1000,I,m,m,None,627,427.0,200.0,103,1,2162.199999999255,228030.1000000015,8003,jacket,AF,A,226139,226139,224410,225423,224410,226572,225939,225939,226572,19
20,test,1,con,1,m,Fri Oct 04 2024 09:11:52 GMT-0500 (Central Daylight Time),232408.0,step,1100,I,m,m,None,569,369.0,200.0,68,1,2211.800000000745,230196.19999999925,8003,step,AF,A,228405,228405,226576,227689,226576,228788,228205,228205,228788,20
21,test,1,con,1,z,Fri Oct 04 2024 09:11:52 GMT-0500 (Central Daylight Time),234524.19999999925,hate,1000,I,z,z,None,573,373.0,200.0,43,1,2111.7999999970198,232412.40000000224,8003,hate,AF,A,230521,230521,228792,229805,228793,230904,230321,230321,230904,21
22,test,1,con,1,z,Fri Oct 04 2024 09:11:52 GMT-0500 (Central Daylight Time),236306.90000000224,love,800,I,z,z,None,450,250.0,200.0,17,1,1776.9000000022352,234530.0,8003,love,AF,A,232437,232437,230910,231721,230910,232687,232237,232237,232687,22
23,test,1,con,1,m,Fri Oct 04 2024 09:11:52 GMT-0500 (Central Daylight Time),238606.19999999925,step,1000,I,m,m,None,754,554.0,200.0,67,1,2294.7999999970198,236311.40000000224,8003,step,AF,A,234420,234420,232691,233704,232692,234986,234220,234220,234986,23
24,test,1,con,1,z,Fri Oct 04 2024 09:11:52 GMT-0500 (Central Daylight Time),240822.19999999925,rage,1100,I,z,z,None,579,379.0,200.0,52,1,2211.7999999970198,238610.40000000224,8003,rage,AF,A,236819,236819,234990,236103,234991,237202,236619,236619,237202,24
25,test,1,inc,1,m,Fri Oct 04 2024 09:11:52 GMT-0500 (Central Daylight Time),242688.30000000075,rage,800,I,m,m,None,534,319.0,215.0,85,1,1862.300000000745,240826.0,8003,bell,AF,A,238735,238735,237206,238019,237206,239068,238520,238520,239068,25
26,test,1,con,1,z,Fri Oct 04 2024 09:11:52 GMT-0500 (Central Daylight Time),244454.30000000075,friend,800,I,z,z,None,421,221.0,200.0,25,1,1762.0,242692.30000000075,8003,friend,AF,A,240601,240601,239072,239885,239073,240834,240401,240401,240834,26
27,test,1,inc,1,m,Fri Oct 04 2024 09:11:52 GMT-0500 (Central Daylight Time),246771.30000000075,hate,1100,I,m,m,None,674,475.0,199.0,88,1,2313.0,244458.30000000075,8003,bell,AF,A,242667,242667,240838,241951,240839,243151,242467,242468,243151,27
28,test,1,inc,1,m,Fri Oct 04 2024 09:11:52 GMT-0500 (Central Daylight Time),249052.90000000224,temper,1000,I,m,m,None,747,547.0,200.0,119,1,2277.800000000745,246775.1000000015,8003,remote,AF,A,244883,244883,243155,244167,243155,245433,244683,244683,245433,28
29,test,1,con,1,z,Fri Oct 04 2024 09:11:52 GMT-0500 (Central Daylight Time),251314.40000000224,rage,1000,I,z,z,None,728,528.0,200.0,51,1,2257.2000000029802,249057.19999999925,8003,rage,AF,A,247166,247166,245437,246449,245437,247694,246966,246966,247694,29
30,test,1,inc,1,m,Fri Oct 04 2024 09:11:52 GMT-0500 (Central Daylight Time),253218.30000000075,elated,800,I,m,m,None,558,358.0,200.0,101,1,1899.699999999255,251318.6000000015,8003,jacket,AF,A,249232,249232,247699,248516,247699,249598,249032,249032,249598,30
31,test,1,con,1,m,Fri Oct 04 2024 09:11:52 GMT-0500 (Central Daylight Time),255201.0,napkin,800,I,m,m,None,643,443.0,200.0,105,1,1978.699999999255,253222.30000000075,8003,napkin,AF,A,251131,251131,249602,250415,249603,251581,250931,250931,251581,31
32,test,1,inc,1,z,Fri Oct 04 2024 09:11:52 GMT-0500 (Central Daylight Time),257450.30000000075,remote,1000,I,z,z,None,708,507.0,201.0,7,1,2245.10000000149,255205.19999999925,8003,elated,AF,A,253315,253315,251585,252599,251586,253830,253114,253114,253830,32
33,test,1,inc,1,m,Fri Oct 04 2024 09:11:52 GMT-0500 (Central Daylight Time),259682.69999999925,friend,1100,I,m,m,None,583,383.0,200.0,112,1,2228.5,257454.19999999925,8003,napkin,AF,A,255664,255664,253834,254947,253834,256063,255463,255463,256063,33
34,test,1,con,1,z,Fri Oct 04 2024 09:11:52 GMT-0500 (Central Daylight Time),261649.0,elated,800,I,z,z,None,618,418.0,200.0,1,1,1962.300000000745,259686.69999999925,8003,elated,AF,A,257596,257596,256067,256880,256067,258029,257396,257396,258029,34
35,test,1,con,1,z,Fri Oct 04 2024 09:11:52 GMT-0500 (Central Daylight Time),263615.0,brutal,800,I,z,z,None,628,428.0,200.0,33,1,1962.0999999977648,261652.90000000224,8003,brutal,AF,A,259562,259562,258033,258846,258033,259995,259362,259362,259995,35
36,test,1,inc,1,z,Fri Oct 04 2024 09:11:52 GMT-0500 (Central Daylight Time),265614.30000000075,rock,900,I,z,z,None,562,362.0,200.0,54,1,1995.199999999255,263619.1000000015,8003,rage,AF,A,261628,261628,259999,260912,259999,261994,261428,261428,261994,36
37,test,1,con,1,z,Fri Oct 04 2024 09:11:52 GMT-0500 (Central Daylight Time),267514.80000000075,rage,900,I,z,z,None,457,258.0,199.0,50,1,1896.6000000014901,265618.19999999925,8003,rage,AF,A,263628,263628,261998,262911,261998,263895,263428,263428,263895,37
38,test,1,inc,1,z,Fri Oct 04 2024 09:11:52 GMT-0500 (Central Daylight Time),269364.30000000075,step,800,I,z,z,None,515,315.0,200.0,53,1,1845.5,267518.80000000075,8003,rage,AF,A,265427,265427,263899,264710,263899,265744,265227,265227,265744,38
39,test,1,inc,1,m,Fri Oct 04 2024 09:11:52 GMT-0500 (Central Daylight Time),271445.80000000075,kind,900,I,m,m,None,644,445.0,199.0,78,1,2077.60000000149,269368.19999999925,8003,rock,AF,A,267377,267377,265748,266660,265748,267826,267177,267177,267826,39
40,test,1,con,1,m,Fri Oct 04 2024 09:11:52 GMT-0500 (Central Daylight Time),273261.90000000224,window,800,I,m,m,None,470,271.0,199.0,121,1,1811.7000000029802,271450.19999999925,8003,window,AF,A,269359,269359,267830,268642,267830,269642,269160,269160,269642,40
41,test,1,con,1,m,Fri Oct 04 2024 09:11:52 GMT-0500 (Central Daylight Time),275277.80000000075,film,900,I,m,m,None,573,371.0,202.0,90,1,2012.0,273265.80000000075,8003,film,AF,A,271275,271275,269646,270558,269646,271658,271073,271073,271658,41
42,test,1,inc,1,m,Fri Oct 04 2024 09:11:52 GMT-0500 (Central Daylight Time),277210.69999999925,elated,800,I,m,m,None,600,400.0,200.0,117,1,1929.3999999985099,275281.30000000075,8003,remote,AF,A,273191,273191,271661,272475,271662,273591,272991,272991,273591,42
43,test,1,con,1,m,Fri Oct 04 2024 09:11:52 GMT-0500 (Central Daylight Time),278976.80000000075,remote,800,I,m,m,None,419,219.0,200.0,113,1,1762.199999999255,277214.6000000015,8003,remote,AF,A,275124,275124,273595,274407,273595,275357,274924,274924,275357,43
44,test,1,con,1,z,Fri Oct 04 2024 09:11:52 GMT-0500 (Central Daylight Time),281076.19999999925,temper,1000,I,z,z,None,564,364.0,200.0,59,1,2095.2999999970198,278980.90000000224,8003,temper,AF,A,277090,277090,275361,276374,275361,277456,276890,276890,277456,44
45,test,1,inc,1,z,Fri Oct 04 2024 09:11:52 GMT-0500 (Central Daylight Time),283159.1000000015,bell,1000,I,z,z,None,536,337.0,199.0,23,1,2078.900000002235,281080.19999999925,8003,love,AF,A,279189,279189,277460,278473,277460,279539,278990,278990,279539,45
46,test,1,inc,1,z,Fri Oct 04 2024 09:11:52 GMT-0500 (Central Daylight Time),285208.30000000075,film,1100,I,z,z,None,402,202.0,200.0,24,1,2045.199999999255,283163.1000000015,8003,love,AF,A,281372,281372,279543,280655,279543,281588,281172,281172,281588,46
47,test,1,con,1,m,Fri Oct 04 2024 09:11:52 GMT-0500 (Central Daylight Time),287307.6000000015,remote,1000,I,m,m,None,557,357.0,200.0,115,1,2095.5,285212.1000000015,8003,remote,AF,A,283321,283321,281592,282605,281592,283688,283121,283121,283688,47
48,test,1,inc,1,z,Fri Oct 04 2024 09:11:52 GMT-0500 (Central Daylight Time),289373.5,bell,1000,I,z,z,None,528,329.0,199.0,47,1,2061.89999999851,287311.6000000015,8003,hate,AF,A,285421,285421,283692,284704,283692,285754,285221,285221,285754,48
49,test,1,con,1,m,Fri Oct 04 2024 09:11:52 GMT-0500 (Central Daylight Time),291273.19999999925,bell,800,I,m,m,None,551,351.0,200.0,81,1,1895.699999999255,289377.5,8003,bell,AF,A,287287,287287,285758,286570,285758,287653,287087,287087,287653,49
50,test,1,inc,1,z,Fri Oct 04 2024 09:11:52 GMT-0500 (Central Daylight Time),293205.6000000015,jacket,800,I,z,z,None,588,388.0,200.0,37,1,1928.699999999255,291276.90000000224,8003,brutal,AF,A,289186,289186,287657,288470,287657,289586,288986,288986,289586,50
51,test,1,con,1,z,Fri Oct 04 2024 09:11:52 GMT-0500 (Central Daylight Time),295338.40000000224,kind,1000,I,z,z,None,615,416.0,199.0,11,1,2128.900000002235,293209.5,8003,kind,AF,A,291302,291302,289590,290602,289590,291718,291103,291103,291718,51
52,test,1,con,1,z,Fri Oct 04 2024 09:11:52 GMT-0500 (Central Daylight Time),297621.1000000015,brutal,1100,I,z,z,None,639,440.0,199.0,36,1,2279.10000000149,295342.0,8003,brutal,AF,A,293551,293551,291722,292836,291722,294001,293352,293352,294001,52
53,test,1,inc,1,m,Fri Oct 04 2024 09:11:52 GMT-0500 (Central Daylight Time),299804.69999999925,friend,1100,I,m,m,None,540,340.0,200.0,104,1,2180.0,297624.69999999925,8003,jacket,AF,A,295834,295834,294005,295117,294005,296185,295634,295634,296185,53
54,test,1,inc,1,z,Fri Oct 04 2024 09:11:52 GMT-0500 (Central Daylight Time),301803.30000000075,napkin,900,I,z,z,None,573,374.0,199.0,38,1,1994.3999999985099,299808.90000000224,8003,brutal,AF,A,297800,297800,296189,297100,296189,298183,297601,297601,298183,54
55,test,1,con,1,z,Fri Oct 04 2024 09:11:52 GMT-0500 (Central Daylight Time),303869.0,hate,900,I,z,z,None,622,422.0,200.0,42,1,2062.099999997765,301806.90000000224,8003,hate,AF,A,299816,299816,298187,299100,298187,300249,299616,299616,300249,55
56,test,1,con,1,z,Fri Oct 04 2024 09:11:52 GMT-0500 (Central Daylight Time),305985.1000000015,love,1000,I,z,z,None,568,368.0,200.0,19,1,2112.0,303873.1000000015,8003,love,AF,A,301982,301982,300253,301266,300253,302365,301782,301782,302365,56
57,test,1,inc,1,z,Fri Oct 04 2024 09:11:52 GMT-0500 (Central Daylight Time),308184.19999999925,window,1100,I,z,z,None,552,352.0,200.0,40,1,2195.2999999970198,305988.90000000224,8003,brutal,AF,A,304198,304198,302369,303481,302369,304564,303998,303998,304564,57
58,test,1,con,1,z,Fri Oct 04 2024 09:11:52 GMT-0500 (Central Daylight Time),310066.90000000224,love,900,I,z,z,None,449,249.0,200.0,18,1,1878.800000000745,308188.1000000015,8003,love,AF,A,306197,306197,304568,305481,304568,306447,305997,305997,306447,58
59,test,1,con,1,m,Fri Oct 04 2024 09:11:52 GMT-0500 (Central Daylight Time),312133.19999999925,remote,900,I,m,m,None,630,430.0,200.0,114,1,2062.89999999851,310070.30000000075,8003,remote,AF,A,308080,308080,306450,307364,306451,308513,307880,307880,308513,59
60,test,1,con,1,z,Fri Oct 04 2024 09:11:52 GMT-0500 (Central Daylight Time),314332.5,temper,1100,I,z,z,None,565,365.0,200.0,60,1,2195.5,312137.0,8003,temper,AF,A,310346,310346,308517,309630,308517,310713,310146,310146,310712,60
61,test,1,con,1,m,Fri Oct 04 2024 09:11:52 GMT-0500 (Central Daylight Time),316265.90000000224,film,800,I,m,m,None,583,384.0,199.0,89,1,1929.6000000014901,314336.30000000075,8003,film,AF,A,312246,312246,310716,311529,310717,312646,312046,312046,312646,61
62,test,1,inc,1,m,Fri Oct 04 2024 09:11:52 GMT-0500 (Central Daylight Time),318697.6000000015,hate,1100,I,m,m,None,792,591.0,201.0,72,1,2427.900000002235,316269.69999999925,8003,step,AF,A,314479,314479,312650,313762,312650,315078,314278,314278,315078,62
63,test,1,inc,1,z,Fri Oct 04 2024 09:11:52 GMT-0500 (Central Daylight Time),320696.90000000224,rock,900,I,z,z,None,550,351.0,199.0,46,1,1995.300000000745,318701.6000000015,8003,hate,AF,A,316711,316711,315082,315995,315082,317077,316511,316511,317077,63
64,test,1,inc,1,z,Fri Oct 04 2024 09:11:52 GMT-0500 (Central Daylight Time),322929.69999999925,window,1100,I,z,z,None,525,325.0,200.0,64,1,2229.0,320700.69999999925,8003,temper,AF,A,318977,318977,317081,318268,317081,319310,318777,318777,319310,64
65,test,1,inc,1,m,Fri Oct 04 2024 09:11:52 GMT-0500 (Central Daylight Time),325029.1000000015,love,1000,I,m,m,None,562,363.0,199.0,87,1,2095.699999999255,322933.40000000224,8003,bell,AF,A,321043,321043,319313,320326,319314,321409,320843,320843,321409,65
66,test,1,inc,1,z,Fri Oct 04 2024 09:11:52 GMT-0500 (Central Daylight Time),327461.5,window,1100,I,z,z,None,788,588.0,200.0,32,1,2428.39999999851,325033.1000000015,8003,friend,AF,A,323242,323242,321413,322526,321413,323842,323042,323042,323842,66
67,test,1,con,1,m,Fri Oct 04 2024 09:11:52 GMT-0500 (Central Daylight Time),329677.6000000015,rock,1000,I,m,m,None,678,479.0,199.0,75,1,2212.10000000149,327465.5,8003,rock,AF,A,325575,325575,323846,324858,323846,326058,325375,325375,326058,67
68,test,1,inc,1,z,Fri Oct 04 2024 09:11:52 GMT-0500 (Central Daylight Time),332010.30000000075,film,1100,I,z,z,None,690,475.0,215.0,16,1,2328.699999999255,329681.6000000015,8003,kind,AF,A,327907,327907,326062,327174,326062,328390,327692,327692,328390,68
69,test,1,con,1,m,Fri Oct 04 2024 09:11:52 GMT-0500 (Central Daylight Time),334076.40000000224,napkin,1000,I,m,m,None,531,331.0,200.0,107,1,2062.10000000149,332014.30000000075,8003,napkin,AF,A,330123,330123,328394,329408,328395,330456,329923,329923,330456,69
70,test,1,con,1,m,Fri Oct 04 2024 09:11:52 GMT-0500 (Central Daylight Time),336325.40000000224,bell,1100,I,m,m,None,628,429.0,199.0,84,1,2245.2000000029802,334080.19999999925,8003,bell,AF,A,332273,332273,330460,331573,330461,332705,332074,332074,332705,70
71,test,1,inc,1,m,Fri Oct 04 2024 09:11:52 GMT-0500 (Central Daylight Time),338524.80000000075,hate,1100,I,m,m,None,554,355.0,199.0,96,1,2195.199999999255,336329.6000000015,8003,film,AF,A,334539,334539,332710,333823,332710,334905,334339,334339,334905,71
72,test,1,con,1,m,Fri Oct 04 2024 09:11:52 GMT-0500 (Central Daylight Time),340691.90000000224,jacket,1000,I,m,m,None,624,424.0,200.0,99,1,2163.400000002235,338528.5,8003,jacket,AF,A,336638,336638,334909,335921,334909,337072,336438,336438,337072,72
73,test,1,inc,1,m,Fri Oct 04 2024 09:11:52 GMT-0500 (Central Daylight Time),342940.19999999925,hate,1100,I,m,m,None,607,407.0,200.0,80,1,2244.2999999970198,340695.90000000224,8003,rock,AF,A,338904,338904,337076,338188,337076,339320,338704,338704,339320,73
74,test,1,con,1,m,Fri Oct 04 2024 09:11:52 GMT-0500 (Central Daylight Time),344839.5,bell,900,I,m,m,None,462,262.0,200.0,82,1,1895.5,342944.0,8003,bell,AF,A,340953,340953,339324,340237,339324,341220,340753,340753,341220,74
75,test,1,con,1,z,Fri Oct 04 2024 09:11:52 GMT-0500 (Central Daylight Time),346955.40000000224,temper,900,I,z,z,None,673,474.0,199.0,58,1,2112.300000000745,344843.1000000015,8003,temper,AF,A,342852,342852,341223,342136,341223,343336,342653,342653,343335,75
76,test,1,con,1,m,Fri Oct 04 2024 09:11:52 GMT-0500 (Central Daylight Time),348738.5,step,800,I,m,m,None,448,249.0,199.0,65,1,1779.3999999985099,346959.1000000015,8003,step,AF,A,344869,344869,343339,344152,343339,345119,344669,344669,345119,76
77,test,1,con,1,m,Fri Oct 04 2024 09:11:52 GMT-0500 (Central Daylight Time),350871.30000000075,jacket,1100,I,m,m,None,487,287.0,200.0,100,1,2129.10000000149,348742.19999999925,8003,jacket,AF,A,346951,346951,345122,346235,345122,347251,346751,346751,347251,77
78,test,1,con,1,m,Fri Oct 04 2024 09:11:52 GMT-0500 (Central Daylight Time),352803.6000000015,bell,1000,I,m,m,None,390,190.0,200.0,83,1,1928.5,350875.1000000015,8003,bell,AF,A,348984,348984,347255,348268,347255,349184,348784,348784,349184,78
79,test,1,con,1,z,Fri Oct 04 2024 09:11:52 GMT-0500 (Central Daylight Time),354736.40000000224,kind,900,I,z,z,None,492,293.0,199.0,10,1,1928.800000000745,352807.6000000015,8003,kind,AF,A,350817,350817,349188,350100,349188,351116,350617,350617,351116,79
80,test,1,inc,1,z,Fri Oct 04 2024 09:11:52 GMT-0500 (Central Daylight Time),356819.40000000224,bell,1000,I,z,z,None,548,349.0,199.0,55,1,2079.2000000029802,354740.19999999925,8003,rage,AF,A,352849,352849,351120,352133,351120,353199,352650,352650,353199,80
81,test,1,con,1,m,Fri Oct 04 2024 09:11:52 GMT-0500 (Central Daylight Time),358818.5,jacket,900,I,m,m,None,566,366.0,200.0,98,1,1995.3999999985099,356823.1000000015,8003,jacket,AF,A,354832,354832,353203,354116,353203,355199,354632,354632,355199,81
82,test,1,con,1,m,Fri Oct 04 2024 09:11:52 GMT-0500 (Central Daylight Time),360901.40000000224,rock,900,I,m,m,None,645,446.0,199.0,74,1,2079.2000000029802,358822.19999999925,8003,rock,AF,A,356832,356832,355202,356115,355203,357281,356632,356632,357281,82
83,test,1,con,1,z,Fri Oct 04 2024 09:11:52 GMT-0500 (Central Daylight Time),363167.19999999925,kind,1100,I,z,z,None,620,420.0,200.0,12,1,2262.099999997765,360905.1000000015,8003,kind,AF,A,359114,359114,357285,358398,357285,359547,358914,358914,359547,83
84,test,1,inc,1,m,Fri Oct 04 2024 09:11:52 GMT-0500 (Central Daylight Time),365216.5,temper,1000,I,m,m,None,510,310.0,200.0,127,1,2045.5999999977648,363170.90000000224,8003,window,AF,A,361280,361280,359551,360564,359551,361597,361080,361080,361596,84
85,test,1,inc,1,m,Fri Oct 04 2024 09:11:52 GMT-0500 (Central Daylight Time),367349.19999999925,love,1000,I,m,m,None,596,397.0,199.0,95,1,2128.699999999255,365220.5,8003,film,AF,A,363330,363330,361601,362614,361601,363729,363130,363130,363729,85
86,test,1,con,1,z,Fri Oct 04 2024 09:11:52 GMT-0500 (Central Daylight Time),369631.80000000075,elated,1000,I,z,z,None,642,436.0,206.0,3,1,2278.800000000745,367353.0,8003,elated,AF,A,365562,365562,363733,364746,363733,366012,365356,365356,366012,86
87,test,1,con,1,m,Fri Oct 04 2024 09:11:52 GMT-0500 (Central Daylight Time),371881.1000000015,film,1100,I,m,m,None,601,401.0,200.0,92,1,2245.699999999255,369635.40000000224,8003,film,AF,A,367845,367845,366015,367128,366016,368261,367645,367645,368261,87
87,test,1,inc,0,z,Fri Oct 04 2024 09:11:52 GMT-0500 (Central Daylight Time),373763.69999999925,rock,900,I,m,m,None,440,240.0,200.0,14,1,1878.5999999977648,371885.1000000015,8003,kind,AF,A,369894,369894,368265,369178,368265,370144,369694,369694,370144,88
88,test,1,inc,1,z,Fri Oct 04 2024 09:11:52 GMT-0500 (Central Daylight Time),375779.80000000075,napkin,900,I,z,z,None,581,381.0,200.0,6,1,2012.300000000745,373767.5,8003,elated,AF,A,371777,371777,370148,371061,370148,372160,371577,371577,372160,89
89,test,1,inc,1,z,Fri Oct 04 2024 09:11:52 GMT-0500 (Central Daylight Time),377729.19999999925,jacket,800,I,z,z,None,609,409.0,200.0,61,1,1945.5,375783.69999999925,8003,temper,AF,A,373693,373693,372164,372976,372164,374109,373493,373493,374109,90
90,test,1,con,1,z,Fri Oct 04 2024 09:11:52 GMT-0500 (Central Daylight Time),379612.0,hate,800,I,z,z,None,547,348.0,199.0,41,1,1879.0,377733.0,8003,hate,AF,A,375642,375642,374113,374926,374113,375992,375443,375443,375992,91
91,test,1,inc,1,z,Fri Oct 04 2024 09:11:52 GMT-0500 (Central Daylight Time),381578.0,rock,900,I,z,z,None,517,317.0,200.0,22,1,1962.199999999255,379615.80000000075,8003,love,AF,A,377625,377625,375996,376908,375996,377958,377425,377425,377958,92
92,test,1,inc,1,z,Fri Oct 04 2024 09:11:52 GMT-0500 (Central Daylight Time),383643.90000000224,remote,1000,I,z,z,None,522,323.0,199.0,63,1,2062.2000000029802,381581.69999999925,8003,temper,AF,A,379691,379691,377962,378975,377962,380024,379492,379492,380024,93
93,test,1,inc,1,z,Fri Oct 04 2024 09:11:52 GMT-0500 (Central Daylight Time),385827.80000000075,window,1100,I,z,z,None,541,341.0,200.0,8,1,2179.800000000745,383648.0,8003,elated,AF,A,381857,381857,380028,381141,380028,382208,381657,381657,382208,94
94,test,1,inc,1,z,Fri Oct 04 2024 09:11:52 GMT-0500 (Central Daylight Time),387776.1000000015,step,800,I,z,z,None,611,411.0,200.0,45,1,1944.300000000745,385831.80000000075,8003,hate,AF,A,383740,383740,382212,383023,382212,384156,383540,383540,384156,95
95,test,1,inc,1,m,Fri Oct 04 2024 09:11:52 GMT-0500 (Central Daylight Time),389725.40000000224,brutal,900,I,m,m,None,505,305.0,200.0,126,1,1945.5,387779.90000000224,8003,window,AF,A,385789,385789,384160,385073,384160,386105,385589,385589,386105,96
96,test,1,con,1,z,Fri Oct 04 2024 09:11:52 GMT-0500 (Central Daylight Time),392372.6000000015,elated,1100,I,z,z,None,875,675.0,200.0,4,1,2643.5,389729.1000000015,8003,elated,AF,A,387939,387939,386109,387222,386109,388753,387738,387738,388753,97
97,test,1,inc,1,m,Fri Oct 04 2024 09:11:52 GMT-0500 (Central Daylight Time),394657.30000000075,friend,1100,I,m,m,None,650,450.0,200.0,120,1,2280.60000000149,392376.69999999925,8003,remote,AF,A,390572,390572,388757,389871,388757,391037,390372,390372,391037,98
98,test,1,inc,1,z,Fri Oct 04 2024 09:11:52 GMT-0500 (Central Daylight Time),396839.80000000075,film,1100,I,z,z,None,543,343.0,200.0,56,1,2178.800000000745,394661.0,8003,rage,AF,A,392870,392871,391041,392154,391041,393220,392670,392670,393220,99
99,test,1,inc,1,m,Fri Oct 04 2024 09:11:52 GMT-0500 (Central Daylight Time),398822.6000000015,brutal,900,I,m,m,None,537,337.0,200.0,110,1,1978.800000000745,396843.80000000075,8003,napkin,AF,A,394853,394853,393224,394137,393224,395203,394653,394653,395203,100
100,test,1,inc,1,m,Fri Oct 04 2024 09:11:52 GMT-0500 (Central Daylight Time),400788.6000000015,rage,800,I,m,m,None,629,430.0,199.0,93,1,1962.300000000745,398826.30000000075,8003,film,AF,A,396736,396736,395206,396019,395207,397169,396536,396536,397169,101
101,test,1,inc,1,m,Fri Oct 04 2024 09:11:52 GMT-0500 (Central Daylight Time),402904.6000000015,temper,1000,I,m,m,None,567,368.0,199.0,111,1,2111.900000002235,400792.69999999925,8003,napkin,AF,A,398902,398902,397173,398185,397173,399285,398702,398702,399285,102
102,test,1,con,1,z,Fri Oct 04 2024 09:11:52 GMT-0500 (Central Daylight Time),404937.5,temper,800,I,z,z,None,692,493.0,199.0,57,1,2029.0999999977648,402908.40000000224,8003,temper,AF,A,400818,400818,399288,400101,399289,401318,400618,400618,401318,103
102,test,1,con,0,z,Fri Oct 04 2024 09:11:52 GMT-0500 (Central Daylight Time),407104.40000000224,friend,900,I,m,m,None,719,520.0,199.0,26,1,2163.10000000149,404941.30000000075,8003,friend,AF,A,402950,402950,401321,402234,401322,403484,402751,402751,403484,104
103,test,1,inc,1,m,Fri Oct 04 2024 09:11:52 GMT-0500 (Central Daylight Time),409169.40000000224,rage,800,I,m,m,None,717,518.0,199.0,69,1,2060.800000000745,407108.6000000015,8003,step,AF,A,405016,405016,403489,404300,403489,405550,404817,404817,405549,105
104,test,1,con,1,m,Fri Oct 04 2024 09:11:52 GMT-0500 (Central Daylight Time),411219.1000000015,step,900,I,m,m,None,599,400.0,199.0,66,1,2046.0,409173.1000000015,8003,step,AF,A,407183,407183,405553,406466,405553,407599,406983,406983,407599,106
105,test,1,inc,1,z,Fri Oct 04 2024 09:11:52 GMT-0500 (Central Daylight Time),413184.80000000075,step,800,I,z,z,None,626,426.0,200.0,21,1,1962.1000000014901,411222.69999999925,8003,love,AF,A,409132,409132,407603,408415,407603,409565,408932,408932,409565,107
106,test,1,inc,1,m,Fri Oct 04 2024 09:11:52 GMT-0500 (Central Daylight Time),415267.5,brutal,900,I,m,m,None,641,441.0,200.0,102,1,2078.800000000745,413188.69999999925,8003,jacket,AF,A,411198,411198,409569,410481,409569,411648,410998,410998,411647,108
107,test,1,inc,1,z,Fri Oct 04 2024 09:11:52 GMT-0500 (Central Daylight Time),417216.90000000224,jacket,800,I,z,z,None,608,409.0,199.0,29,1,1945.300000000745,415271.6000000015,8003,friend,AF,A,413181,413181,411652,412474,411652,413597,412981,412981,413597,109
108,test,1,con,1,z,Fri Oct 04 2024 09:11:52 GMT-0500 (Central Daylight Time),419332.69999999925,kind,800,I,z,z,None,772,572.0,200.0,9,1,2111.2999999970198,417221.40000000224,8003,kind,AF,A,415130,415130,413601,414414,413602,415713,414930,414930,415713,110
109,test,1,inc,1,z,Fri Oct 04 2024 09:11:52 GMT-0500 (Central Daylight Time),421465.40000000224,napkin,900,I,z,z,None,692,492.0,200.0,62,1,2128.7000000029802,419336.69999999925,8003,temper,AF,A,417346,417346,415717,416630,415717,417845,417146,417146,417845,111
110,test,1,inc,1,z,Fri Oct 04 2024 09:11:52 GMT-0500 (Central Daylight Time),423448.19999999925,napkin,900,I,z,z,None,534,335.0,199.0,30,1,1978.8999999985099,421469.30000000075,8003,friend,AF,A,419479,419479,417849,418763,417850,419828,419279,419279,419828,112
111,test,1,inc,1,m,Fri Oct 04 2024 09:11:52 GMT-0500 (Central Daylight Time),425597.6000000015,love,1000,I,m,m,None,612,413.0,199.0,79,1,2145.699999999255,423451.90000000224,8003,rock,AF,A,421561,421561,419832,420845,419832,421978,421362,421362,421978,113
112,test,1,inc,1,z,Fri Oct 04 2024 09:11:52 GMT-0500 (Central Daylight Time),427780.1000000015,film,1100,I,z,z,None,538,339.0,199.0,48,1,2178.60000000149,425601.5,8003,hate,AF,A,423811,423811,421982,423094,421982,424160,423611,423611,424160,114
113,test,1,con,1,m,Fri Oct 04 2024 09:11:52 GMT-0500 (Central Daylight Time),430080.69999999925,remote,1100,I,m,m,None,662,462.0,200.0,116,1,2296.7999999970198,427783.90000000224,8003,remote,AF,A,425993,425993,424164,425278,424164,426461,425793,425793,426461,115
114,test,1,inc,1,m,Fri Oct 04 2024 09:11:52 GMT-0500 (Central Daylight Time),432095.5,kind,900,I,m,m,None,577,378.0,199.0,86,1,2010.699999999255,430084.80000000075,8003,bell,AF,A,428092,428093,426465,427377,426465,428476,427893,427893,428476,116
115,test,1,con,1,m,Fri Oct 04 2024 09:11:52 GMT-0500 (Central Daylight Time),434444.69999999925,window,1100,I,m,m,None,714,514.0,200.0,124,1,2345.5,432099.19999999925,8003,window,AF,A,430308,430308,428479,429592,428479,430825,430108,430108,430825,117
116,test,1,con,1,m,Fri Oct 04 2024 09:11:52 GMT-0500 (Central Daylight Time),436477.40000000224,napkin,900,I,m,m,None,605,405.0,200.0,106,1,2029.0,434448.40000000224,8003,napkin,AF,A,432442,432442,430828,431741,430829,432857,432242,432242,432857,118
117,test,1,inc,1,m,Fri Oct 04 2024 09:11:52 GMT-0500 (Central Daylight Time),438393.40000000224,rage,800,I,m,m,None,567,367.0,200.0,77,1,1912.6000000014901,436480.80000000075,8003,rock,AF,A,434391,434391,432861,433675,432861,434773,434191,434191,434773,119
118,test,1,con,1,z,Fri Oct 04 2024 09:11:52 GMT-0500 (Central Daylight Time),440426.30000000075,brutal,900,I,z,z,None,591,391.0,200.0,34,1,2029.1000000014901,438397.19999999925,8003,brutal,AF,A,436407,436407,434777,435690,434777,436806,436206,436206,436806,120
119,test,1,inc,1,z,Fri Oct 04 2024 09:11:52 GMT-0500 (Central Daylight Time),442525.6000000015,bell,1000,I,z,z,None,554,353.0,201.0,15,1,2095.5,440430.1000000015,8003,kind,AF,A,438540,438541,436810,437823,436810,438906,438339,438339,438906,121
120,test,1,inc,1,m,Fri Oct 04 2024 09:11:52 GMT-0500 (Central Daylight Time),444724.80000000075,friend,1100,I,m,m,None,554,355.0,199.0,128,1,2195.10000000149,442529.69999999925,8003,window,AF,A,440739,440739,438910,440022,438910,441105,440539,440539,441105,122
121,test,1,con,1,z,Fri Oct 04 2024 09:11:52 GMT-0500 (Central Daylight Time),446957.40000000224,hate,1100,I,z,z,None,588,388.0,200.0,44,1,2228.900000002235,444728.5,8003,hate,AF,A,442938,442938,441109,442222,441109,443337,442738,442738,443337,123
122,test,1,con,1,m,Fri Oct 04 2024 09:11:52 GMT-0500 (Central Daylight Time),448990.1000000015,rock,800,I,m,m,None,696,496.0,200.0,73,1,2029.1000000014901,446961.0,8003,rock,AF,A,444870,444870,443341,444154,443341,445370,444670,444670,445370,124
123,test,1,con,1,z,Fri Oct 04 2024 09:11:52 GMT-0500 (Central Daylight Time),451239.30000000075,friend,1100,I,z,z,None,603,403.0,200.0,28,1,2244.89999999851,448994.40000000224,8003,friend,AF,A,447203,447203,445374,446487,445375,447619,447003,447003,447619,125
124,test,1,con,1,m,Fri Oct 04 2024 09:11:52 GMT-0500 (Central Daylight Time),453289.90000000224,window,900,I,m,m,None,608,409.0,199.0,122,1,2046.800000000745,451243.1000000015,8003,window,AF,A,449253,449253,447623,448537,447623,449670,449053,449053,449670,126
125,test,1,inc,1,m,Fri Oct 04 2024 09:11:52 GMT-0500 (Central Daylight Time),455356.0000000037,kind,900,I,m,m,None,632,432.0,200.0,94,1,2062.0,453294.0000000037,8003,film,AF,A,451302,451302,449674,450586,449674,451736,451102,451102,451736,127
126,test,1,con,1,m,Fri Oct 04 2024 09:11:52 GMT-0500 (Central Daylight Time),457587.40000000224,rock,1100,I,m,m,None,590,390.0,200.0,76,1,2227.60000000149,455359.80000000075,8003,rock,AF,A,453568,453568,451740,452852,451740,453967,453368,453368,453967,128
