acc_sum,block,block_c,change,condition,correct,correct_response,datetime,endtime,face,project,response,response_time,row_sel,session_number,start_end,starttime,subject_id,task,task_vers,trial
0,prac,1,,1-Back,,,Fri Mar 07 2025 15:49:34 GMT-0600 (Central Standard Time),,093_m_f_n_a.png,O,space,7335,1,1,,,7078,NNB,C,0
1,prac,1,0.0,1-Back,1,m,Fri Mar 07 2025 15:49:34 GMT-0600 (Central Standard Time),158308.30000000005,098_y_f_n_a.png,O,m,905,2,1,1773.8999999999069,156534.40000000014,7078,NNB,C,1
2,prac,1,1.0,1-Back,1,z,Fri Mar 07 2025 15:49:34 GMT-0600 (Central Standard Time),160074.0,098_y_f_n_a.png,O,z,990,3,1,1759.0999999998603,158314.90000000014,7078,NNB,C,2
2,prac,1,0.0,1-Back,0,m,Fri Mar 07 2025 15:49:34 GMT-0600 (Central Standard Time),162956.80000000005,059_o_m_n_a.png,O,None,2010,4,1,2875.899999999907,160080.90000000014,7078,NNB,C,3
3,prac,1,0.0,1-Back,1,m,Fri Mar 07 2025 15:49:34 GMT-0600 (Central Standard Time),163939.6000000001,092_m_m_n_a.png,O,m,111,5,1,975.8000000000466,162963.80000000005,7078,NNB,C,4
3,prac,1,1.0,1-Back,0,z,Fri Mar 07 2025 15:49:34 GMT-0600 (Central Standard Time),165805.80000000005,092_m_m_n_a.png,O,m,1086,6,1,1859.0,163946.80000000005,7078,NNB,C,5
4,prac,1,0.0,1-Back,1,m,Fri Mar 07 2025 15:49:34 GMT-0600 (Central Standard Time),168305.0,130_o_f_n_a.png,O,m,1613,7,1,2492.5999999998603,165812.40000000014,7078,NNB,C,6
5,prac,1,0.0,1-Back,1,m,Fri Mar 07 2025 15:49:34 GMT-0600 (Central Standard Time),170404.40000000014,082_m_m_n_a.png,O,m,1225,8,1,2091.6999999999534,168312.7000000002,7078,NNB,C,7
6,prac,1,0.0,1-Back,1,m,Fri Mar 07 2025 15:49:34 GMT-0600 (Central Standard Time),171987.30000000005,093_m_f_n_a.png,O,m,806,9,1,1575.6999999999534,170411.6000000001,7078,NNB,C,8
7,prac,1,1.0,1-Back,1,z,Fri Mar 07 2025 15:49:34 GMT-0600 (Central Standard Time),173569.90000000014,093_m_f_n_a.png,O,z,799,10,1,1575.8000000000466,171994.1000000001,7078,NNB,C,9
8,prac,1,0.0,1-Back,1,m,Fri Mar 07 2025 15:49:34 GMT-0600 (Central Standard Time),175269.40000000014,059_o_m_n_a.png,O,m,912,11,1,1692.3000000000466,173577.1000000001,7078,NNB,C,10
9,prac,1,0.0,1-Back,1,m,Fri Mar 07 2025 15:49:34 GMT-0600 (Central Standard Time),176919.0,028_y_f_n_a.png,O,m,767,12,1,1642.5,175276.5,7078,NNB,C,11
0,test,1,0.0,1-Back,,,Fri Mar 07 2025 15:49:34 GMT-0600 (Central Standard Time),176919.0,098_y_f_n_a.png,O,space,6746,1,1,1642.5,175276.5,7078,NNB,C,0
1,test,1,0.0,1-Back,1,m,Fri Mar 07 2025 15:49:34 GMT-0600 (Central Standard Time),194630.0,006_m_f_n_a.png,O,m,778,2,1,1794.0,192836.0,7078,NNB,C,1
2,test,1,0.0,1-Back,1,m,Fri Mar 07 2025 15:49:34 GMT-0600 (Central Standard Time),196512.7000000002,028_y_f_n_a.png,O,m,851,3,1,1877.8000000000466,194634.90000000014,7078,NNB,C,2
3,test,1,1.0,1-Back,1,z,Fri Mar 07 2025 15:49:34 GMT-0600 (Central Standard Time),198212.2000000002,028_y_f_n_a.png,O,z,681,4,1,1694.4000000001397,196517.80000000005,7078,NNB,C,3
4,test,1,0.0,1-Back,1,m,Fri Mar 07 2025 15:49:34 GMT-0600 (Central Standard Time),199861.80000000005,006_m_f_n_a.png,O,m,621,5,1,1645.8000000000466,198216.0,7078,NNB,C,4
5,test,1,0.0,1-Back,1,m,Fri Mar 07 2025 15:49:34 GMT-0600 (Central Standard Time),201511.1000000001,059_o_m_n_a.png,O,m,620,6,1,1645.5,199865.6000000001,7078,NNB,C,5
6,test,1,1.0,1-Back,1,z,Fri Mar 07 2025 15:49:34 GMT-0600 (Central Standard Time),203194.2000000002,059_o_m_n_a.png,O,z,666,7,1,1678.5,201515.7000000002,7078,NNB,C,6
7,test,1,0.0,1-Back,1,m,Fri Mar 07 2025 15:49:34 GMT-0600 (Central Standard Time),204893.6000000001,092_m_m_n_a.png,O,m,671,8,1,1695.3000000000466,203198.30000000005,7078,NNB,C,7
8,test,1,0.0,1-Back,1,m,Fri Mar 07 2025 15:49:34 GMT-0600 (Central Standard Time),206659.7000000002,130_o_f_n_a.png,O,m,748,9,1,1762.3000000000466,204897.40000000014,7078,NNB,C,8
9,test,1,0.0,1-Back,1,m,Fri Mar 07 2025 15:49:34 GMT-0600 (Central Standard Time),208392.40000000014,092_m_m_n_a.png,O,m,709,10,1,1728.9000000001397,206663.5,7078,NNB,C,9
10,test,1,0.0,1-Back,1,m,Fri Mar 07 2025 15:49:34 GMT-0600 (Central Standard Time),210041.90000000014,057_y_m_n_a.png,O,m,625,11,1,1646.1000000000931,208395.80000000005,7078,NNB,C,10
11,test,1,1.0,1-Back,1,z,Fri Mar 07 2025 15:49:34 GMT-0600 (Central Standard Time),211658.0,057_y_m_n_a.png,O,z,591,12,1,1612.5,210045.5,7078,NNB,C,11
12,test,1,0.0,1-Back,1,m,Fri Mar 07 2025 15:49:34 GMT-0600 (Central Standard Time),213240.80000000005,030_o_f_n_a.png,O,m,551,13,1,1579.3000000000466,211661.5,7078,NNB,C,12
13,test,1,1.0,1-Back,1,z,Fri Mar 07 2025 15:49:34 GMT-0600 (Central Standard Time),215123.6000000001,030_o_f_n_a.png,O,z,864,14,1,1878.5,213245.1000000001,7078,NNB,C,13
14,test,1,0.0,1-Back,1,m,Fri Mar 07 2025 15:49:34 GMT-0600 (Central Standard Time),216723.1000000001,031_y_m_n_a.png,O,m,573,15,1,1595.8000000000466,215127.30000000005,7078,NNB,C,14
15,test,1,0.0,1-Back,1,m,Fri Mar 07 2025 15:49:34 GMT-0600 (Central Standard Time),218422.80000000005,093_m_f_n_a.png,O,m,670,16,1,1695.1999999999534,216727.6000000001,7078,NNB,C,15
16,test,1,0.0,1-Back,1,m,Fri Mar 07 2025 15:49:34 GMT-0600 (Central Standard Time),220155.40000000014,146_o_m_n_a.png,O,m,714,17,1,1729.0,218426.40000000014,7078,NNB,C,16
17,test,1,0.0,1-Back,1,m,Fri Mar 07 2025 15:49:34 GMT-0600 (Central Standard Time),222071.5,093_m_f_n_a.png,O,m,894,18,1,1910.6999999999534,220160.80000000005,7078,NNB,C,17
0,test,2,0.0,1-Back,,,Fri Mar 07 2025 15:49:34 GMT-0600 (Central Standard Time),222071.5,092_m_m_n_a.png,O,space,9826,1,1,1910.6999999999534,220160.80000000005,7078,NNB,C,0
1,test,2,0.0,1-Back,1,m,Fri Mar 07 2025 15:49:34 GMT-0600 (Central Standard Time),235650.40000000014,006_m_f_n_a.png,O,m,715,2,1,1728.3000000000466,233922.1000000001,7078,NNB,C,1
2,test,2,1.0,1-Back,1,z,Fri Mar 07 2025 15:49:34 GMT-0600 (Central Standard Time),237649.90000000014,006_m_f_n_a.png,O,z,967,3,1,1995.0,235654.90000000014,7078,NNB,C,2
3,test,2,0.0,1-Back,1,m,Fri Mar 07 2025 15:49:34 GMT-0600 (Central Standard Time),239432.7000000002,092_m_m_n_a.png,O,m,751,4,1,1778.4000000001397,237654.30000000005,7078,NNB,C,3
4,test,2,0.0,1-Back,1,m,Fri Mar 07 2025 15:49:34 GMT-0600 (Central Standard Time),241132.0,057_y_m_n_a.png,O,m,673,5,1,1695.6999999999534,239436.30000000005,7078,NNB,C,4
5,test,2,0.0,1-Back,1,m,Fri Mar 07 2025 15:49:34 GMT-0600 (Central Standard Time),242766.2000000002,098_y_f_n_a.png,O,m,613,6,1,1630.8000000000466,241135.40000000014,7078,NNB,C,5
6,test,2,1.0,1-Back,1,z,Fri Mar 07 2025 15:49:34 GMT-0600 (Central Standard Time),244514.5,098_y_f_n_a.png,O,z,732,7,1,1743.8999999999069,242770.6000000001,7078,NNB,C,6
7,test,2,0.0,1-Back,1,m,Fri Mar 07 2025 15:49:34 GMT-0600 (Central Standard Time),246363.90000000014,057_y_m_n_a.png,O,m,823,8,1,1845.6999999999534,244518.2000000002,7078,NNB,C,7
8,test,2,0.0,1-Back,1,m,Fri Mar 07 2025 15:49:34 GMT-0600 (Central Standard Time),248046.80000000005,030_o_f_n_a.png,O,m,653,9,1,1678.3000000000466,246368.5,7078,NNB,C,8
9,test,2,0.0,1-Back,1,m,Fri Mar 07 2025 15:49:34 GMT-0600 (Central Standard Time),249612.7000000002,082_m_m_n_a.png,O,m,547,10,1,1561.7000000001863,248051.0,7078,NNB,C,9
10,test,2,1.0,1-Back,1,z,Fri Mar 07 2025 15:49:34 GMT-0600 (Central Standard Time),251245.6000000001,082_m_m_n_a.png,O,z,605,11,1,1628.5,249617.1000000001,7078,NNB,C,10
11,test,2,0.0,1-Back,1,m,Fri Mar 07 2025 15:49:34 GMT-0600 (Central Standard Time),253161.80000000005,030_o_f_n_a.png,O,m,883,12,1,1912.8000000000466,251249.0,7078,NNB,C,11
12,test,2,0.0,1-Back,1,m,Fri Mar 07 2025 15:49:34 GMT-0600 (Central Standard Time),254861.2000000002,130_o_f_n_a.png,O,m,679,13,1,1695.4000000001397,253165.80000000005,7078,NNB,C,12
13,test,2,0.0,1-Back,1,m,Fri Mar 07 2025 15:49:34 GMT-0600 (Central Standard Time),256460.6000000001,059_o_m_n_a.png,O,m,572,14,1,1594.3000000000466,254866.30000000005,7078,NNB,C,13
14,test,2,0.0,1-Back,1,m,Fri Mar 07 2025 15:49:34 GMT-0600 (Central Standard Time),258211.2000000002,146_o_m_n_a.png,O,m,717,15,1,1746.8000000000466,256464.40000000014,7078,NNB,C,14
15,test,2,1.0,1-Back,1,z,Fri Mar 07 2025 15:49:34 GMT-0600 (Central Standard Time),259926.5,146_o_m_n_a.png,O,z,695,16,1,1711.2999999998137,258215.2000000002,7078,NNB,C,15
16,test,2,0.0,1-Back,1,m,Fri Mar 07 2025 15:49:34 GMT-0600 (Central Standard Time),261858.80000000028,031_y_m_n_a.png,O,m,907,17,1,1928.8000000002794,259930.0,7078,NNB,C,16
17,test,2,1.0,1-Back,1,z,Fri Mar 07 2025 15:49:34 GMT-0600 (Central Standard Time),263608.5,031_y_m_n_a.png,O,z,727,18,1,1746.1999999997206,261862.30000000028,7078,NNB,C,17
0,test,3,1.0,1-Back,,,Fri Mar 07 2025 15:49:34 GMT-0600 (Central Standard Time),263608.5,028_y_f_n_a.png,O,space,1384,1,1,1746.1999999997206,261862.30000000028,7078,NNB,C,0
1,test,3,0.0,1-Back,1,m,Fri Mar 07 2025 15:49:34 GMT-0600 (Central Standard Time),268756.8000000003,146_o_m_n_a.png,O,m,622,1,1,1644.5,267112.3000000003,7078,NNB,C,1
2,test,3,1.0,1-Back,1,z,Fri Mar 07 2025 15:49:34 GMT-0600 (Central Standard Time),270522.8000000003,146_o_m_n_a.png,O,z,740,1,1,1762.6000000000931,268760.2000000002,7078,NNB,C,2
2,test,3,0.0,1-Back,0,m,Fri Mar 07 2025 15:49:34 GMT-0600 (Central Standard Time),272455.7000000002,093_m_f_n_a.png,O,z,909,1,1,1928.6000000000931,270527.1000000001,7078,NNB,C,3
3,test,3,1.0,1-Back,1,z,Fri Mar 07 2025 15:49:34 GMT-0600 (Central Standard Time),274488.3000000003,093_m_f_n_a.png,O,z,1009,1,1,2028.2000000001863,272460.1000000001,7078,NNB,C,4
4,test,3,0.0,1-Back,1,m,Fri Mar 07 2025 15:49:34 GMT-0600 (Central Standard Time),276521.2000000002,030_o_f_n_a.png,O,m,1001,1,1,2029.0,274492.2000000002,7078,NNB,C,5
5,test,3,0.0,1-Back,1,m,Fri Mar 07 2025 15:49:34 GMT-0600 (Central Standard Time),278370.3999999999,057_y_m_n_a.png,O,m,832,1,1,1844.5999999996275,276525.8000000003,7078,NNB,C,6
6,test,3,0.0,1-Back,1,m,Fri Mar 07 2025 15:49:34 GMT-0600 (Central Standard Time),280069.8999999999,030_o_f_n_a.png,O,m,671,1,1,1695.5,278374.3999999999,7078,NNB,C,7
7,test,3,0.0,1-Back,1,m,Fri Mar 07 2025 15:49:34 GMT-0600 (Central Standard Time),281886.0,031_y_m_n_a.png,O,m,787,1,1,1812.1000000000931,280073.8999999999,7078,NNB,C,8
8,test,3,1.0,1-Back,1,z,Fri Mar 07 2025 15:49:34 GMT-0600 (Central Standard Time),283953.2000000002,031_y_m_n_a.png,O,z,1042,1,1,2063.7000000001863,281889.5,7078,NNB,C,9
9,test,3,0.0,1-Back,1,m,Fri Mar 07 2025 15:49:34 GMT-0600 (Central Standard Time),285684.8999999999,006_m_f_n_a.png,O,m,713,1,1,1727.2999999998137,283957.6000000001,7078,NNB,C,10
10,test,3,0.0,1-Back,1,m,Fri Mar 07 2025 15:49:34 GMT-0600 (Central Standard Time),287401.0,098_y_f_n_a.png,O,m,692,1,1,1711.6000000000931,285689.3999999999,7078,NNB,C,11
11,test,3,1.0,1-Back,1,z,Fri Mar 07 2025 15:49:34 GMT-0600 (Central Standard Time),289133.8000000003,098_y_f_n_a.png,O,z,704,1,1,1728.3000000002794,287405.5,7078,NNB,C,12
12,test,3,0.0,1-Back,1,m,Fri Mar 07 2025 15:49:34 GMT-0600 (Central Standard Time),291049.8999999999,006_m_f_n_a.png,O,m,883,1,1,1911.3999999999069,289138.5,7078,NNB,C,13
13,test,3,0.0,1-Back,1,m,Fri Mar 07 2025 15:49:34 GMT-0600 (Central Standard Time),292682.3999999999,092_m_m_n_a.png,O,m,616,1,1,1628.5,291053.8999999999,7078,NNB,C,14
14,test,3,1.0,1-Back,1,z,Fri Mar 07 2025 15:49:34 GMT-0600 (Central Standard Time),294615.5,092_m_m_n_a.png,O,z,911,1,1,1929.6000000000931,292685.8999999999,7078,NNB,C,15
15,test,3,0.0,1-Back,1,m,Fri Mar 07 2025 15:49:34 GMT-0600 (Central Standard Time),296431.5,130_o_f_n_a.png,O,m,786,1,1,1811.6999999997206,294619.8000000003,7078,NNB,C,16
16,test,3,1.0,1-Back,1,z,Fri Mar 07 2025 15:49:34 GMT-0600 (Central Standard Time),298381.1000000001,130_o_f_n_a.png,O,z,922,1,1,1945.2000000001863,296435.8999999999,7078,NNB,C,17
0,test,4,1.0,1-Back,,,Fri Mar 07 2025 15:49:34 GMT-0600 (Central Standard Time),298381.1000000001,093_m_f_n_a.png,O,space,1332,1,1,1945.2000000001863,296435.8999999999,7078,NNB,C,0
1,test,4,0.0,1-Back,1,m,Fri Mar 07 2025 15:49:34 GMT-0600 (Central Standard Time),303595.8999999999,146_o_m_n_a.png,O,m,756,2,1,1777.8999999999069,301818.0,7078,NNB,C,1
2,test,4,0.0,1-Back,1,m,Fri Mar 07 2025 15:49:34 GMT-0600 (Central Standard Time),305362.0,093_m_f_n_a.png,O,m,741,3,1,1761.6000000000931,303600.3999999999,7078,NNB,C,2
3,test,4,0.0,1-Back,1,m,Fri Mar 07 2025 15:49:34 GMT-0600 (Central Standard Time),307194.8000000003,030_o_f_n_a.png,O,m,807,4,1,1828.4000000003725,305366.3999999999,7078,NNB,C,3
4,test,4,1.0,1-Back,1,z,Fri Mar 07 2025 15:49:34 GMT-0600 (Central Standard Time),308994.2000000002,030_o_f_n_a.png,O,z,782,5,1,1795.8000000002794,307198.3999999999,7078,NNB,C,4
5,test,4,0.0,1-Back,1,m,Fri Mar 07 2025 15:49:34 GMT-0600 (Central Standard Time),310893.7000000002,098_y_f_n_a.png,O,m,879,6,1,1895.5,308998.2000000002,7078,NNB,C,5
6,test,4,0.0,1-Back,1,m,Fri Mar 07 2025 15:49:34 GMT-0600 (Central Standard Time),312609.7000000002,057_y_m_n_a.png,O,m,690,7,1,1712.0,310897.7000000002,7078,NNB,C,6
7,test,4,1.0,1-Back,1,z,Fri Mar 07 2025 15:49:34 GMT-0600 (Central Standard Time),314375.8999999999,057_y_m_n_a.png,O,z,735,8,1,1762.6999999997206,312613.2000000002,7078,NNB,C,7
8,test,4,0.0,1-Back,1,m,Fri Mar 07 2025 15:49:34 GMT-0600 (Central Standard Time),316408.6000000001,098_y_f_n_a.png,O,m,1001,9,1,2028.7000000001863,314379.8999999999,7078,NNB,C,8
9,test,4,0.0,1-Back,1,m,Fri Mar 07 2025 15:49:34 GMT-0600 (Central Standard Time),318208.0,082_m_m_n_a.png,O,m,777,10,1,1795.2999999998137,316412.7000000002,7078,NNB,C,9
9,test,4,1.0,1-Back,0,z,Fri Mar 07 2025 15:49:34 GMT-0600 (Central Standard Time),320357.3999999999,082_m_m_n_a.png,O,m,1121,11,1,2144.899999999907,318212.5,7078,NNB,C,10
10,test,4,0.0,1-Back,1,m,Fri Mar 07 2025 15:49:34 GMT-0600 (Central Standard Time),322040.0,130_o_f_n_a.png,O,m,659,12,1,1678.7999999998137,320361.2000000002,7078,NNB,C,11
11,test,4,0.0,1-Back,1,m,Fri Mar 07 2025 15:49:34 GMT-0600 (Central Standard Time),323689.8999999999,059_o_m_n_a.png,O,m,633,13,1,1645.5,322044.3999999999,7078,NNB,C,12
12,test,4,0.0,1-Back,1,m,Fri Mar 07 2025 15:49:34 GMT-0600 (Central Standard Time),325855.6000000001,130_o_f_n_a.png,O,m,1144,14,1,2160.7999999998137,323694.8000000003,7078,NNB,C,13
13,test,4,0.0,1-Back,1,m,Fri Mar 07 2025 15:49:34 GMT-0600 (Central Standard Time),327521.8999999999,028_y_f_n_a.png,O,m,633,15,1,1662.2999999998137,325859.6000000001,7078,NNB,C,14
14,test,4,1.0,1-Back,1,z,Fri Mar 07 2025 15:49:34 GMT-0600 (Central Standard Time),329187.8999999999,028_y_f_n_a.png,O,z,617,16,1,1661.5,327526.3999999999,7078,NNB,C,15
15,test,4,0.0,1-Back,1,m,Fri Mar 07 2025 15:49:34 GMT-0600 (Central Standard Time),331037.2000000002,006_m_f_n_a.png,O,m,829,17,1,1845.1000000000931,329192.1000000001,7078,NNB,C,16
16,test,4,1.0,1-Back,1,z,Fri Mar 07 2025 15:49:34 GMT-0600 (Central Standard Time),332770.3999999999,006_m_f_n_a.png,O,z,699,18,1,1728.8999999999069,331041.5,7078,NNB,C,17
0,test,5,1.0,1-Back,,,Fri Mar 07 2025 15:49:34 GMT-0600 (Central Standard Time),332770.3999999999,059_o_m_n_a.png,O,space,1175,1,1,1728.8999999999069,331041.5,7078,NNB,C,0
1,test,5,1.0,1-Back,1,z,Fri Mar 07 2025 15:49:34 GMT-0600 (Central Standard Time),337835.1000000001,059_o_m_n_a.png,O,z,848,2,1,1861.2999999998137,335973.8000000003,7078,NNB,C,1
1,test,5,0.0,1-Back,0,m,Fri Mar 07 2025 15:49:34 GMT-0600 (Central Standard Time),340867.7000000002,098_y_f_n_a.png,O,None,2016,3,1,3028.5,337839.2000000002,7078,NNB,C,2
2,test,5,0.0,1-Back,1,m,Fri Mar 07 2025 15:49:34 GMT-0600 (Central Standard Time),342483.8000000003,057_y_m_n_a.png,O,m,597,4,1,1612.9000000003725,340870.8999999999,7078,NNB,C,3
3,test,5,0.0,1-Back,1,m,Fri Mar 07 2025 15:49:34 GMT-0600 (Central Standard Time),344532.8999999999,098_y_f_n_a.png,O,m,1029,5,1,2044.5999999996275,342488.3000000003,7078,NNB,C,4
4,test,5,0.0,1-Back,1,m,Fri Mar 07 2025 15:49:34 GMT-0600 (Central Standard Time),346282.6000000001,092_m_m_n_a.png,O,m,716,6,1,1746.6000000000931,344536.0,7078,NNB,C,5
5,test,5,1.0,1-Back,1,z,Fri Mar 07 2025 15:49:34 GMT-0600 (Central Standard Time),347998.7000000002,092_m_m_n_a.png,O,z,695,7,1,1712.8999999999069,346285.8000000003,7078,NNB,C,6
6,test,5,0.0,1-Back,1,m,Fri Mar 07 2025 15:49:34 GMT-0600 (Central Standard Time),349881.3999999999,028_y_f_n_a.png,O,m,850,8,1,1879.0999999996275,348002.3000000003,7078,NNB,C,7
7,test,5,0.0,1-Back,1,m,Fri Mar 07 2025 15:49:34 GMT-0600 (Central Standard Time),351515.3999999999,031_y_m_n_a.png,O,m,608,9,1,1629.8999999999069,349885.5,7078,NNB,C,8
8,test,5,0.0,1-Back,1,m,Fri Mar 07 2025 15:49:34 GMT-0600 (Central Standard Time),353230.3000000003,028_y_f_n_a.png,O,m,687,10,1,1710.8000000002794,351519.5,7078,NNB,C,9
9,test,5,0.0,1-Back,1,m,Fri Mar 07 2025 15:49:34 GMT-0600 (Central Standard Time),355163.1000000001,130_o_f_n_a.png,O,m,915,11,1,1929.6000000000931,353233.5,7078,NNB,C,10
10,test,5,1.0,1-Back,1,z,Fri Mar 07 2025 15:49:34 GMT-0600 (Central Standard Time),356812.5,130_o_f_n_a.png,O,z,630,12,1,1645.6000000000931,355166.8999999999,7078,NNB,C,11
11,test,5,0.0,1-Back,1,m,Fri Mar 07 2025 15:49:34 GMT-0600 (Central Standard Time),358628.7000000002,146_o_m_n_a.png,O,m,789,13,1,1812.3000000002794,356816.3999999999,7078,NNB,C,12
12,test,5,0.0,1-Back,1,m,Fri Mar 07 2025 15:49:34 GMT-0600 (Central Standard Time),360294.8000000003,093_m_f_n_a.png,O,m,637,14,1,1662.1000000000931,358632.7000000002,7078,NNB,C,13
13,test,5,1.0,1-Back,1,z,Fri Mar 07 2025 15:49:34 GMT-0600 (Central Standard Time),362094.0,093_m_f_n_a.png,O,z,770,15,1,1795.1999999997206,360298.8000000003,7078,NNB,C,14
14,test,5,0.0,1-Back,1,m,Fri Mar 07 2025 15:49:34 GMT-0600 (Central Standard Time),363627.0,146_o_m_n_a.png,O,m,507,16,1,1529.5,362097.5,7078,NNB,C,15
15,test,5,0.0,1-Back,1,m,Fri Mar 07 2025 15:49:34 GMT-0600 (Central Standard Time),365210.1000000001,006_m_f_n_a.png,O,m,550,17,1,1578.7999999998137,363631.3000000003,7078,NNB,C,16
16,test,5,0.0,1-Back,1,m,Fri Mar 07 2025 15:49:34 GMT-0600 (Central Standard Time),366826.1000000001,082_m_m_n_a.png,O,m,600,18,1,1612.1000000000931,365214.0,7078,NNB,C,17
0,prac,1,0.0,2-Back,,,Fri Mar 07 2025 15:49:34 GMT-0600 (Central Standard Time),366826.1000000001,031_y_m_n_a.png,O,space,9858,1,1,1612.1000000000931,365214.0,7078,NNB,C,0
0,prac,1,0.0,2-Back,,,Fri Mar 07 2025 15:49:34 GMT-0600 (Central Standard Time),366826.1000000001,006_m_f_n_a.png,O,space,9858,2,1,1612.1000000000931,365214.0,7078,NNB,C,0
1,prac,1,1.0,2-Back,1,m,Fri Mar 07 2025 15:49:34 GMT-0600 (Central Standard Time),487455.8999999999,146_o_m_n_a.png,O,m,1932,3,1,2793.0,484662.8999999999,7078,NNB,C,1
1,prac,1,0.0,2-Back,0,m,Fri Mar 07 2025 15:49:34 GMT-0600 (Central Standard Time),490353.8999999999,130_o_f_n_a.png,O,None,2011,4,1,2891.6999999997206,487462.2000000002,7078,NNB,C,2
1,prac,1,0.0,2-Back,0,z,Fri Mar 07 2025 15:49:34 GMT-0600 (Central Standard Time),491603.6000000001,146_o_m_n_a.png,O,m,466,5,1,1243.8999999999069,490359.7000000002,7078,NNB,C,3
1,prac,1,1.0,2-Back,0,z,Fri Mar 07 2025 15:49:34 GMT-0600 (Central Standard Time),494386.2000000002,130_o_f_n_a.png,O,None,2010,6,1,2777.100000000093,491609.1000000001,7078,NNB,C,4
1,prac,1,0.0,2-Back,0,m,Fri Mar 07 2025 15:49:34 GMT-0600 (Central Standard Time),496935.3000000003,082_m_m_n_a.png,O,z,1656,7,1,2544.0,494391.3000000003,7078,NNB,C,5
2,prac,1,0.0,2-Back,1,m,Fri Mar 07 2025 15:49:34 GMT-0600 (Central Standard Time),499118.2000000002,059_o_m_n_a.png,O,m,1306,8,1,2176.100000000093,496942.1000000001,7078,NNB,C,6
3,prac,1,0.0,2-Back,1,m,Fri Mar 07 2025 15:49:34 GMT-0600 (Central Standard Time),501034.1000000001,028_y_f_n_a.png,O,m,1044,9,1,1909.2000000001863,499124.8999999999,7078,NNB,C,7
4,prac,1,1.0,2-Back,1,z,Fri Mar 07 2025 15:49:34 GMT-0600 (Central Standard Time),502750.2000000002,059_o_m_n_a.png,O,z,936,10,1,1709.2000000001863,501041.0,7078,NNB,C,8
5,prac,1,0.0,2-Back,1,m,Fri Mar 07 2025 15:49:34 GMT-0600 (Central Standard Time),504566.5,098_y_f_n_a.png,O,m,940,11,1,1809.7999999998137,502756.7000000002,7078,NNB,C,9
6,prac,1,0.0,2-Back,1,m,Fri Mar 07 2025 15:49:34 GMT-0600 (Central Standard Time),506516.0,082_m_m_n_a.png,O,m,1165,12,1,1943.6000000000931,504572.3999999999,7078,NNB,C,10
0,prac,2,0.0,2-Back,,,Fri Mar 07 2025 15:49:34 GMT-0600 (Central Standard Time),506516.0,031_y_m_n_a.png,O,a,5490,1,1,1943.6000000000931,504572.3999999999,7078,NNB,C,0
0,prac,2,0.0,2-Back,,,Fri Mar 07 2025 15:49:34 GMT-0600 (Central Standard Time),506516.0,006_m_f_n_a.png,O,a,5490,2,1,1943.6000000000931,504572.3999999999,7078,NNB,C,0
0,prac,2,1.0,2-Back,0,m,Fri Mar 07 2025 15:49:34 GMT-0600 (Central Standard Time),519478.2000000002,146_o_m_n_a.png,O,z,1331,3,1,2208.899999999907,517269.3000000003,7078,NNB,C,1
1,prac,2,0.0,2-Back,1,m,Fri Mar 07 2025 15:49:34 GMT-0600 (Central Standard Time),522210.8000000003,130_o_f_n_a.png,O,m,1843,4,1,2726.8000000002794,519484.0,7078,NNB,C,2
2,prac,2,0.0,2-Back,1,z,Fri Mar 07 2025 15:49:34 GMT-0600 (Central Standard Time),524026.8999999999,146_o_m_n_a.png,O,z,1032,5,1,1809.3999999999069,522217.5,7078,NNB,C,3
3,prac,2,1.0,2-Back,1,z,Fri Mar 07 2025 15:49:34 GMT-0600 (Central Standard Time),526276.0,130_o_f_n_a.png,O,z,1464,6,1,2242.7999999998137,524033.2000000002,7078,NNB,C,4
4,prac,2,0.0,2-Back,1,m,Fri Mar 07 2025 15:49:34 GMT-0600 (Central Standard Time),528342.2000000002,082_m_m_n_a.png,O,m,1279,7,1,2059.600000000093,526282.6000000001,7078,NNB,C,5
5,prac,2,0.0,2-Back,1,m,Fri Mar 07 2025 15:49:34 GMT-0600 (Central Standard Time),530608.2000000002,059_o_m_n_a.png,O,m,1380,8,1,2260.2000000001863,528348.0,7078,NNB,C,6
6,prac,2,0.0,2-Back,1,m,Fri Mar 07 2025 15:49:34 GMT-0600 (Central Standard Time),532657.3999999999,028_y_f_n_a.png,O,m,1173,9,1,2043.7999999998137,530613.6000000001,7078,NNB,C,7
6,prac,2,1.0,2-Back,0,z,Fri Mar 07 2025 15:49:34 GMT-0600 (Central Standard Time),534740.3000000003,059_o_m_n_a.png,O,m,1298,10,1,2076.7000000001863,532663.6000000001,7078,NNB,C,8
7,prac,2,0.0,2-Back,1,m,Fri Mar 07 2025 15:49:34 GMT-0600 (Central Standard Time),537106.1000000001,098_y_f_n_a.png,O,m,1501,11,1,2358.7000000001863,534747.3999999999,7078,NNB,C,9
8,prac,2,0.0,2-Back,1,m,Fri Mar 07 2025 15:49:34 GMT-0600 (Central Standard Time),539188.7000000002,082_m_m_n_a.png,O,m,1304,12,1,2075.7000000001863,537113.0,7078,NNB,C,10
0,test,1,0.0,2-Back,,,Fri Mar 07 2025 15:49:34 GMT-0600 (Central Standard Time),539188.7000000002,057_y_m_n_a.png,O,space,6905,1,1,2075.7000000001863,537113.0,7078,NNB,C,0
0,test,1,0.0,2-Back,,,Fri Mar 07 2025 15:49:34 GMT-0600 (Central Standard Time),539188.7000000002,057_y_m_n_a.png,O,space,6905,2,1,2075.7000000001863,537113.0,7078,NNB,C,0
1,test,1,0.0,2-Back,1,m,Fri Mar 07 2025 15:49:34 GMT-0600 (Central Standard Time),559798.8999999999,130_o_f_n_a.png,O,m,978,3,1,1996.0,557802.8999999999,7078,NNB,C,1
2,test,1,0.0,2-Back,1,m,Fri Mar 07 2025 15:49:34 GMT-0600 (Central Standard Time),562164.8000000003,092_m_m_n_a.png,O,m,1345,4,1,2361.600000000093,559803.2000000002,7078,NNB,C,2
3,test,1,1.0,2-Back,1,z,Fri Mar 07 2025 15:49:34 GMT-0600 (Central Standard Time),564530.8999999999,130_o_f_n_a.png,O,z,1340,5,1,2362.0,562168.8999999999,7078,NNB,C,3
4,test,1,0.0,2-Back,1,m,Fri Mar 07 2025 15:49:34 GMT-0600 (Central Standard Time),566513.5,098_y_f_n_a.png,O,m,958,6,1,1978.6999999997206,564534.8000000003,7078,NNB,C,4
5,test,1,0.0,2-Back,1,m,Fri Mar 07 2025 15:49:34 GMT-0600 (Central Standard Time),569346.1000000001,092_m_m_n_a.png,O,m,1800,7,1,2829.0,566517.1000000001,7078,NNB,C,5
6,test,1,1.0,2-Back,1,z,Fri Mar 07 2025 15:49:34 GMT-0600 (Central Standard Time),570961.8999999999,098_y_f_n_a.png,O,z,583,8,1,1611.5999999996275,569350.3000000003,7078,NNB,C,6
7,test,1,0.0,2-Back,1,m,Fri Mar 07 2025 15:49:34 GMT-0600 (Central Standard Time),573094.7000000002,031_y_m_n_a.png,O,m,1111,9,1,2129.0,570965.7000000002,7078,NNB,C,7
8,test,1,0.0,2-Back,1,m,Fri Mar 07 2025 15:49:34 GMT-0600 (Central Standard Time),575194.0,030_o_f_n_a.png,O,m,1066,10,1,2095.6999999997206,573098.3000000003,7078,NNB,C,8
9,test,1,1.0,2-Back,1,z,Fri Mar 07 2025 15:49:34 GMT-0600 (Central Standard Time),577143.5,031_y_m_n_a.png,O,z,919,11,1,1945.2999999998137,575198.2000000002,7078,NNB,C,9
9,test,1,0.0,2-Back,0,m,Fri Mar 07 2025 15:49:34 GMT-0600 (Central Standard Time),580175.8999999999,006_m_f_n_a.png,O,None,2016,12,1,3028.7999999998137,577147.1000000001,7078,NNB,C,10
10,test,1,0.0,2-Back,1,m,Fri Mar 07 2025 15:49:34 GMT-0600 (Central Standard Time),582358.5,006_m_f_n_a.png,O,m,1153,13,1,2178.600000000093,580179.8999999999,7078,NNB,C,11
11,test,1,0.0,2-Back,1,m,Fri Mar 07 2025 15:49:34 GMT-0600 (Central Standard Time),584807.3999999999,146_o_m_n_a.png,O,m,1426,14,1,2445.6999999997206,582361.7000000002,7078,NNB,C,12
12,test,1,0.0,2-Back,1,m,Fri Mar 07 2025 15:49:34 GMT-0600 (Central Standard Time),587487.5,030_o_f_n_a.png,O,m,1663,15,1,2676.5,584811.0,7078,NNB,C,13
13,test,1,1.0,2-Back,1,z,Fri Mar 07 2025 15:49:34 GMT-0600 (Central Standard Time),589106.6000000001,146_o_m_n_a.png,O,z,591,16,1,1613.7999999998137,587492.8000000003,7078,NNB,C,14
14,test,1,0.0,2-Back,1,m,Fri Mar 07 2025 15:49:34 GMT-0600 (Central Standard Time),591305.8000000003,093_m_f_n_a.png,O,m,1167,17,1,2195.2000000001863,589110.6000000001,7078,NNB,C,15
15,test,1,0.0,2-Back,1,m,Fri Mar 07 2025 15:49:34 GMT-0600 (Central Standard Time),593421.8000000003,082_m_m_n_a.png,O,m,1087,18,1,2112.9000000003725,591308.8999999999,7078,NNB,C,16
0,test,2,0.0,2-Back,,,Fri Mar 07 2025 15:49:34 GMT-0600 (Central Standard Time),593421.8000000003,082_m_m_n_a.png,O,space,2572,1,1,2112.9000000003725,591308.8999999999,7078,NNB,C,0
0,test,2,0.0,2-Back,,,Fri Mar 07 2025 15:49:34 GMT-0600 (Central Standard Time),593421.8000000003,028_y_f_n_a.png,O,space,2572,2,1,2112.9000000003725,591308.8999999999,7078,NNB,C,0
0,test,2,1.0,2-Back,0,z,Fri Mar 07 2025 15:49:34 GMT-0600 (Central Standard Time),603102.1000000001,082_m_m_n_a.png,O,m,929,3,1,1945.3999999999069,601156.7000000002,7078,NNB,C,1
0,test,2,0.0,2-Back,0,m,Fri Mar 07 2025 15:49:34 GMT-0600 (Central Standard Time),606134.3999999999,093_m_f_n_a.png,O,None,2015,4,1,3028.0,603106.3999999999,7078,NNB,C,2
1,test,2,0.0,2-Back,1,m,Fri Mar 07 2025 15:49:34 GMT-0600 (Central Standard Time),608783.6000000001,028_y_f_n_a.png,O,m,1619,5,1,2645.399999999907,606138.2000000002,7078,NNB,C,3
2,test,2,0.0,2-Back,1,m,Fri Mar 07 2025 15:49:34 GMT-0600 (Central Standard Time),610682.7000000002,146_o_m_n_a.png,O,m,881,6,1,1895.0,608787.7000000002,7078,NNB,C,4
3,test,2,0.0,2-Back,1,m,Fri Mar 07 2025 15:49:34 GMT-0600 (Central Standard Time),612582.3000000003,098_y_f_n_a.png,O,m,870,7,1,1895.7000000001863,610686.6000000001,7078,NNB,C,5
4,test,2,1.0,2-Back,1,z,Fri Mar 07 2025 15:49:34 GMT-0600 (Central Standard Time),614499.3999999999,146_o_m_n_a.png,O,z,899,8,1,1913.8999999999069,612585.5,7078,NNB,C,6
5,test,2,0.0,2-Back,1,m,Fri Mar 07 2025 15:49:34 GMT-0600 (Central Standard Time),616514.3999999999,031_y_m_n_a.png,O,m,991,9,1,2011.7999999998137,614502.6000000001,7078,NNB,C,7
6,test,2,0.0,2-Back,1,m,Fri Mar 07 2025 15:49:34 GMT-0600 (Central Standard Time),619147.0,031_y_m_n_a.png,O,m,1607,10,1,2629.100000000093,616517.8999999999,7078,NNB,C,8
7,test,2,0.0,2-Back,1,m,Fri Mar 07 2025 15:49:34 GMT-0600 (Central Standard Time),621512.8000000003,006_m_f_n_a.png,O,m,1334,11,1,2362.600000000093,619150.2000000002,7078,NNB,C,9
8,test,2,0.0,2-Back,1,m,Fri Mar 07 2025 15:49:34 GMT-0600 (Central Standard Time),623628.8999999999,028_y_f_n_a.png,O,m,1088,12,1,2112.5999999996275,621516.3000000003,7078,NNB,C,10
9,test,2,1.0,2-Back,1,z,Fri Mar 07 2025 15:49:34 GMT-0600 (Central Standard Time),625178.3000000003,006_m_f_n_a.png,O,z,532,13,1,1546.3000000002794,623632.0,7078,NNB,C,11
10,test,2,0.0,2-Back,1,m,Fri Mar 07 2025 15:49:34 GMT-0600 (Central Standard Time),627094.3999999999,059_o_m_n_a.png,O,m,895,14,1,1913.0,625181.3999999999,7078,NNB,C,12
11,test,2,0.0,2-Back,1,m,Fri Mar 07 2025 15:49:34 GMT-0600 (Central Standard Time),629160.7000000002,059_o_m_n_a.png,O,m,1043,15,1,2062.399999999907,627098.3000000003,7078,NNB,C,13
12,test,2,0.0,2-Back,1,m,Fri Mar 07 2025 15:49:34 GMT-0600 (Central Standard Time),631443.1000000001,030_o_f_n_a.png,O,m,1257,16,1,2278.399999999907,629164.7000000002,7078,NNB,C,14
13,test,2,0.0,2-Back,1,m,Fri Mar 07 2025 15:49:34 GMT-0600 (Central Standard Time),633442.3000000003,092_m_m_n_a.png,O,m,982,17,1,1995.4000000003725,631446.8999999999,7078,NNB,C,15
14,test,2,1.0,2-Back,1,z,Fri Mar 07 2025 15:49:34 GMT-0600 (Central Standard Time),635991.8000000003,030_o_f_n_a.png,O,z,1424,18,1,2546.100000000093,633445.7000000002,7078,NNB,C,16
0,test,3,1.0,2-Back,,,Fri Mar 07 2025 15:49:34 GMT-0600 (Central Standard Time),635991.8000000003,057_y_m_n_a.png,O,space,1386,1,1,2546.100000000093,633445.7000000002,7078,NNB,C,0
0,test,3,1.0,2-Back,,,Fri Mar 07 2025 15:49:34 GMT-0600 (Central Standard Time),635991.8000000003,057_y_m_n_a.png,O,space,1386,2,1,2546.100000000093,633445.7000000002,7078,NNB,C,0
1,test,3,0.0,2-Back,1,m,Fri Mar 07 2025 15:49:34 GMT-0600 (Central Standard Time),644472.3000000003,030_o_f_n_a.png,O,m,902,3,1,1928.4000000003725,642543.8999999999,7078,NNB,C,1
2,test,3,0.0,2-Back,1,m,Fri Mar 07 2025 15:49:34 GMT-0600 (Central Standard Time),646388.6000000001,082_m_m_n_a.png,O,m,889,4,1,1913.1000000000931,644475.5,7078,NNB,C,2
3,test,3,1.0,2-Back,1,z,Fri Mar 07 2025 15:49:34 GMT-0600 (Central Standard Time),648271.2000000002,030_o_f_n_a.png,O,z,860,5,1,1878.3999999999069,646392.8000000003,7078,NNB,C,3
4,test,3,0.0,2-Back,1,m,Fri Mar 07 2025 15:49:34 GMT-0600 (Central Standard Time),650320.7000000002,031_y_m_n_a.png,O,m,1026,6,1,2045.5,648275.2000000002,7078,NNB,C,4
5,test,3,0.0,2-Back,1,m,Fri Mar 07 2025 15:49:34 GMT-0600 (Central Standard Time),652753.3999999999,082_m_m_n_a.png,O,m,1409,7,1,2428.899999999907,650324.5,7078,NNB,C,5
6,test,3,1.0,2-Back,1,z,Fri Mar 07 2025 15:49:34 GMT-0600 (Central Standard Time),654886.0,031_y_m_n_a.png,O,z,1104,8,1,2128.899999999907,652757.1000000001,7078,NNB,C,6
7,test,3,0.0,2-Back,1,m,Fri Mar 07 2025 15:49:34 GMT-0600 (Central Standard Time),657334.8999999999,028_y_f_n_a.png,O,m,1419,9,1,2444.899999999907,654890.0,7078,NNB,C,7
8,test,3,0.0,2-Back,1,m,Fri Mar 07 2025 15:49:34 GMT-0600 (Central Standard Time),659717.8000000003,092_m_m_n_a.png,O,m,1353,10,1,2379.4000000003725,657338.3999999999,7078,NNB,C,8
9,test,3,1.0,2-Back,1,z,Fri Mar 07 2025 15:49:34 GMT-0600 (Central Standard Time),661333.5,028_y_f_n_a.png,O,z,588,11,1,1612.6000000000931,659720.8999999999,7078,NNB,C,9
10,test,3,1.0,2-Back,1,z,Fri Mar 07 2025 15:49:34 GMT-0600 (Central Standard Time),663632.8999999999,092_m_m_n_a.png,O,z,1275,12,1,2295.2999999998137,661337.6000000001,7078,NNB,C,10
11,test,3,0.0,2-Back,1,m,Fri Mar 07 2025 15:49:34 GMT-0600 (Central Standard Time),665665.8000000003,030_o_f_n_a.png,O,m,1000,13,1,2029.7000000001863,663636.1000000001,7078,NNB,C,11
12,test,3,0.0,2-Back,1,m,Fri Mar 07 2025 15:49:34 GMT-0600 (Central Standard Time),667681.8000000003,093_m_f_n_a.png,O,m,999,14,1,2012.0,665669.8000000003,7078,NNB,C,12
13,test,3,0.0,2-Back,1,m,Fri Mar 07 2025 15:49:34 GMT-0600 (Central Standard Time),669697.8999999999,146_o_m_n_a.png,O,m,992,15,1,2013.0999999996275,667684.8000000003,7078,NNB,C,13
14,test,3,1.0,2-Back,1,z,Fri Mar 07 2025 15:49:34 GMT-0600 (Central Standard Time),671614.8999999999,093_m_f_n_a.png,O,z,896,16,1,1913.0999999996275,669701.8000000003,7078,NNB,C,14
15,test,3,0.0,2-Back,1,m,Fri Mar 07 2025 15:49:34 GMT-0600 (Central Standard Time),673413.6000000001,130_o_f_n_a.png,O,m,771,17,1,1794.5,671619.1000000001,7078,NNB,C,15
16,test,3,0.0,2-Back,1,m,Fri Mar 07 2025 15:49:34 GMT-0600 (Central Standard Time),675562.6000000001,130_o_f_n_a.png,O,m,1124,18,1,2145.2999999998137,673417.3000000003,7078,NNB,C,16
0,test,4,0.0,2-Back,,,Fri Mar 07 2025 15:49:34 GMT-0600 (Central Standard Time),675562.6000000001,059_o_m_n_a.png,O,space,1087,1,1,2145.2999999998137,673417.3000000003,7078,NNB,C,0
0,test,4,0.0,2-Back,,,Fri Mar 07 2025 15:49:34 GMT-0600 (Central Standard Time),675562.6000000001,098_y_f_n_a.png,O,space,1087,2,1,2145.2999999998137,673417.3000000003,7078,NNB,C,0
1,test,4,1.0,2-Back,1,z,Fri Mar 07 2025 15:49:34 GMT-0600 (Central Standard Time),684110.0,059_o_m_n_a.png,O,z,1195,3,1,2211.899999999907,681898.1000000001,7078,NNB,C,1
1,test,4,1.0,2-Back,0,z,Fri Mar 07 2025 15:49:34 GMT-0600 (Central Standard Time),686026.0,098_y_f_n_a.png,O,m,891,4,1,1913.0,684113.0,7078,NNB,C,2
2,test,4,0.0,2-Back,1,m,Fri Mar 07 2025 15:49:34 GMT-0600 (Central Standard Time),688108.7000000002,030_o_f_n_a.png,O,m,1063,5,1,2079.100000000093,686029.6000000001,7078,NNB,C,3
3,test,4,0.0,2-Back,1,m,Fri Mar 07 2025 15:49:34 GMT-0600 (Central Standard Time),690058.0,030_o_f_n_a.png,O,m,916,6,1,1945.3999999999069,688112.6000000001,7078,NNB,C,4
4,test,4,0.0,2-Back,1,m,Fri Mar 07 2025 15:49:34 GMT-0600 (Central Standard Time),692374.1000000001,006_m_f_n_a.png,O,m,1287,7,1,2312.399999999907,690061.7000000002,7078,NNB,C,5
5,test,4,0.0,2-Back,1,m,Fri Mar 07 2025 15:49:34 GMT-0600 (Central Standard Time),694306.7000000002,031_y_m_n_a.png,O,m,907,8,1,1928.1000000000931,692378.6000000001,7078,NNB,C,6
6,test,4,1.0,2-Back,1,z,Fri Mar 07 2025 15:49:34 GMT-0600 (Central Standard Time),696072.8999999999,006_m_f_n_a.png,O,z,742,9,1,1762.7999999998137,694310.1000000001,7078,NNB,C,7
7,test,4,0.0,2-Back,1,m,Fri Mar 07 2025 15:49:34 GMT-0600 (Central Standard Time),698172.1000000001,092_m_m_n_a.png,O,m,1080,10,1,2096.0,696076.1000000001,7078,NNB,C,8
7,test,4,0.0,2-Back,0,m,Fri Mar 07 2025 15:49:34 GMT-0600 (Central Standard Time),700138.3999999999,031_y_m_n_a.png,O,z,932,11,1,1963.1999999997206,698175.2000000002,7078,NNB,C,9
8,test,4,0.0,2-Back,1,m,Fri Mar 07 2025 15:49:34 GMT-0600 (Central Standard Time),701937.6000000001,130_o_f_n_a.png,O,m,767,12,1,1795.2999999998137,700142.3000000003,7078,NNB,C,10
9,test,4,0.0,2-Back,1,m,Fri Mar 07 2025 15:49:34 GMT-0600 (Central Standard Time),703786.8999999999,057_y_m_n_a.png,O,m,824,13,1,1846.0999999996275,701940.8000000003,7078,NNB,C,11
10,test,4,1.0,2-Back,1,z,Fri Mar 07 2025 15:49:34 GMT-0600 (Central Standard Time),705703.0,130_o_f_n_a.png,O,z,885,14,1,1911.6000000000931,703791.3999999999,7078,NNB,C,12
10,test,4,1.0,2-Back,0,z,Fri Mar 07 2025 15:49:34 GMT-0600 (Central Standard Time),707835.8999999999,057_y_m_n_a.png,O,m,1114,15,1,2129.399999999907,705706.5,7078,NNB,C,13
11,test,4,0.0,2-Back,1,m,Fri Mar 07 2025 15:49:34 GMT-0600 (Central Standard Time),709868.6000000001,082_m_m_n_a.png,O,m,1003,16,1,2029.5,707839.1000000001,7078,NNB,C,14
12,test,4,0.0,2-Back,1,m,Fri Mar 07 2025 15:49:34 GMT-0600 (Central Standard Time),711617.8999999999,093_m_f_n_a.png,O,m,725,17,1,1746.1999999997206,709871.7000000002,7078,NNB,C,15
13,test,4,1.0,2-Back,1,z,Fri Mar 07 2025 15:49:34 GMT-0600 (Central Standard Time),713500.7000000002,082_m_m_n_a.png,O,z,863,18,1,1879.0,711621.7000000002,7078,NNB,C,16
0,test,5,1.0,2-Back,,,Fri Mar 07 2025 15:49:34 GMT-0600 (Central Standard Time),713500.7000000002,057_y_m_n_a.png,O,space,1012,1,1,1879.0,711621.7000000002,7078,NNB,C,0
0,test,5,1.0,2-Back,,,Fri Mar 07 2025 15:49:34 GMT-0600 (Central Standard Time),713500.7000000002,093_m_f_n_a.png,O,space,1012,2,1,1879.0,711621.7000000002,7078,NNB,C,0
1,test,5,1.0,2-Back,1,z,Fri Mar 07 2025 15:49:34 GMT-0600 (Central Standard Time),721448.2000000002,057_y_m_n_a.png,O,z,851,3,1,1878.2000000001863,719570.0,7078,NNB,C,1
1,test,5,1.0,2-Back,0,z,Fri Mar 07 2025 15:49:34 GMT-0600 (Central Standard Time),723347.7000000002,093_m_f_n_a.png,O,m,881,4,1,1896.2000000001863,721451.5,7078,NNB,C,2
2,test,5,0.0,2-Back,1,m,Fri Mar 07 2025 15:49:34 GMT-0600 (Central Standard Time),725363.6000000001,130_o_f_n_a.png,O,m,997,5,1,2012.0,723351.6000000001,7078,NNB,C,3
3,test,5,0.0,2-Back,1,m,Fri Mar 07 2025 15:49:34 GMT-0600 (Central Standard Time),727429.7000000002,057_y_m_n_a.png,O,m,1037,6,1,2062.100000000093,725367.6000000001,7078,NNB,C,4
4,test,5,0.0,2-Back,1,m,Fri Mar 07 2025 15:49:34 GMT-0600 (Central Standard Time),729379.3000000003,028_y_f_n_a.png,O,m,791,7,1,1946.3000000002794,727433.0,7078,NNB,C,5
4,test,5,0.0,2-Back,0,m,Fri Mar 07 2025 15:49:34 GMT-0600 (Central Standard Time),731228.3999999999,130_o_f_n_a.png,O,z,830,8,1,1845.8999999999069,729382.5,7078,NNB,C,6
4,test,5,1.0,2-Back,0,z,Fri Mar 07 2025 15:49:34 GMT-0600 (Central Standard Time),732994.5,028_y_f_n_a.png,O,m,749,9,1,1762.8999999999069,731231.6000000001,7078,NNB,C,7
5,test,5,0.0,2-Back,1,m,Fri Mar 07 2025 15:49:34 GMT-0600 (Central Standard Time),735093.8999999999,146_o_m_n_a.png,O,m,1071,10,1,2096.399999999907,732997.5,7078,NNB,C,8
6,test,5,0.0,2-Back,1,m,Fri Mar 07 2025 15:49:34 GMT-0600 (Central Standard Time),737009.8000000003,006_m_f_n_a.png,O,m,891,11,1,1912.6000000000931,735097.2000000002,7078,NNB,C,9
7,test,5,0.0,2-Back,1,m,Fri Mar 07 2025 15:49:34 GMT-0600 (Central Standard Time),738909.5,092_m_m_n_a.png,O,m,871,12,1,1895.6000000000931,737013.8999999999,7078,NNB,C,10
7,test,5,0.0,2-Back,0,m,Fri Mar 07 2025 15:49:34 GMT-0600 (Central Standard Time),740858.6000000001,146_o_m_n_a.png,O,z,930,13,1,1946.1000000000931,738912.5,7078,NNB,C,11
7,test,5,1.0,2-Back,0,z,Fri Mar 07 2025 15:49:34 GMT-0600 (Central Standard Time),742941.5,092_m_m_n_a.png,O,m,1055,14,1,2079.1999999997206,740862.3000000003,7078,NNB,C,12
8,test,5,0.0,2-Back,1,m,Fri Mar 07 2025 15:49:34 GMT-0600 (Central Standard Time),744924.1000000001,098_y_f_n_a.png,O,m,955,15,1,1978.8999999999069,742945.2000000002,7078,NNB,C,13
9,test,5,0.0,2-Back,1,m,Fri Mar 07 2025 15:49:34 GMT-0600 (Central Standard Time),746708.1000000001,059_o_m_n_a.png,O,m,757,16,1,1780.7999999998137,744927.3000000003,7078,NNB,C,14
10,test,5,0.0,2-Back,1,m,Fri Mar 07 2025 15:49:34 GMT-0600 (Central Standard Time),748490.0,006_m_f_n_a.png,O,m,766,17,1,1777.6999999997206,746712.3000000003,7078,NNB,C,15
11,test,5,1.0,2-Back,1,z,Fri Mar 07 2025 15:49:34 GMT-0600 (Central Standard Time),750189.2000000002,059_o_m_n_a.png,O,z,679,18,1,1696.0,748493.2000000002,7078,NNB,C,16
