Number,acc_sum,block,block_c,block_cond,con_img,correct,correct_response,datetime,endtime,jitter,project,response,response_time,row_sel,session_number,start_end,starttime,subject_id,task,task_vers,trial
4,0,prac,1,A,circle.png,0,z,Fri Apr 04 2025 14:09:41 GMT-0500 (Central Daylight Time),84627.60000000149,1400,O,None,1511,4,1,3690.0,80937.60000000149,7112,NTS,C,1
4,1,prac,1,A,circle.png,1,z,Fri Apr 04 2025 14:09:41 GMT-0500 (Central Daylight Time),87741.79999999702,1400,O,z,916,4,1,3105.7999999970198,84636.0,7112,NTS,C,2
1,2,prac,1,A,circle.png,1,z,Fri Apr 04 2025 14:09:41 GMT-0500 (Central Daylight Time),90159.39999999851,1000,O,z,615,1,1,2410.39999999851,87749.0,7112,NTS,C,3
9,3,prac,1,A,circle.png,1,m,Fri Apr 04 2025 14:09:41 GMT-0500 (Central Daylight Time),93007.29999999702,1500,O,m,566,8,1,2840.6999999955297,90166.60000000149,7112,NTS,C,4
1,4,prac,1,A,circle.png,1,z,Fri Apr 04 2025 14:09:41 GMT-0500 (Central Daylight Time),95340.69999999553,1000,O,z,543,1,1,2325.39999999851,93015.29999999702,7112,NTS,C,5
8,5,prac,1,A,circle.png,1,m,Fri Apr 04 2025 14:09:41 GMT-0500 (Central Daylight Time),98389.19999999553,1600,O,m,651,7,1,3041.89999999851,95347.29999999702,7112,NTS,C,6
7,6,prac,1,A,circle.png,1,m,Fri Apr 04 2025 14:09:41 GMT-0500 (Central Daylight Time),101552.69999999553,1700,O,m,677,6,1,3156.5,98396.19999999553,7112,NTS,C,7
8,7,prac,1,A,circle.png,1,m,Fri Apr 04 2025 14:09:41 GMT-0500 (Central Daylight Time),104603.5,1600,O,m,666,7,1,3046.2000000029802,101557.29999999702,7112,NTS,C,8
3,8,prac,1,A,circle.png,1,z,Fri Apr 04 2025 14:09:41 GMT-0500 (Central Daylight Time),107302.60000000149,1200,O,z,696,3,1,2692.60000000149,104610.0,7112,NTS,C,9
2,9,prac,1,A,circle.png,1,z,Fri Apr 04 2025 14:09:41 GMT-0500 (Central Daylight Time),110699.19999999553,2000,O,z,611,2,1,3389.6999999955297,107309.5,7112,NTS,C,10
6,10,prac,1,A,circle.png,1,m,Fri Apr 04 2025 14:09:41 GMT-0500 (Central Daylight Time),114132.29999999702,1900,O,m,743,5,1,3424.2999999970198,110708.0,7112,NTS,C,11
6,11,prac,1,A,circle.png,1,m,Fri Apr 04 2025 14:09:41 GMT-0500 (Central Daylight Time),117550.39999999851,1900,O,m,725,5,1,3413.5,114136.89999999851,7112,NTS,C,12
8,0,prac,1,B,triangle.png,0,m,Fri Apr 04 2025 14:09:41 GMT-0500 (Central Daylight Time),171299.1000000015,1200,O,None,1515,7,1,3492.3000000044703,167806.79999999702,7112,NTS,C,1
3,1,prac,1,B,triangle.png,1,z,Fri Apr 04 2025 14:09:41 GMT-0500 (Central Daylight Time),174632.3999999985,1600,O,z,950,3,1,3324.10000000149,171308.29999999702,7112,NTS,C,2
8,2,prac,1,B,triangle.png,1,m,Fri Apr 04 2025 14:09:41 GMT-0500 (Central Daylight Time),177366.5,1200,O,m,737,7,1,2726.0,174640.5,7112,NTS,C,3
7,3,prac,1,B,triangle.png,1,z,Fri Apr 04 2025 14:09:41 GMT-0500 (Central Daylight Time),181082.0,2000,O,z,941,6,1,3708.7000000029802,177373.29999999702,7112,NTS,C,4
4,4,prac,1,B,triangle.png,1,m,Fri Apr 04 2025 14:09:41 GMT-0500 (Central Daylight Time),184527.79999999702,1500,O,m,1155,4,1,3439.6999999955297,181088.1000000015,7112,NTS,C,5
9,5,prac,1,B,triangle.png,1,z,Fri Apr 04 2025 14:09:41 GMT-0500 (Central Daylight Time),187511.0,1400,O,z,786,8,1,2976.5,184534.5,7112,NTS,C,6
6,6,prac,1,B,triangle.png,1,m,Fri Apr 04 2025 14:09:41 GMT-0500 (Central Daylight Time),190159.6000000015,1000,O,m,857,5,1,2640.60000000149,187519.0,7112,NTS,C,7
9,7,prac,1,B,triangle.png,1,z,Fri Apr 04 2025 14:09:41 GMT-0500 (Central Daylight Time),193310.19999999553,1400,O,z,952,8,1,3143.5,190166.69999999553,7112,NTS,C,8
1,8,prac,1,B,triangle.png,1,z,Fri Apr 04 2025 14:09:41 GMT-0500 (Central Daylight Time),196893.79999999702,1900,O,z,903,1,1,3575.6999999955297,193318.1000000015,7112,NTS,C,9
2,9,prac,1,B,triangle.png,1,m,Fri Apr 04 2025 14:09:41 GMT-0500 (Central Daylight Time),200254.5,1700,O,m,881,2,1,3352.7000000029802,196901.79999999702,7112,NTS,C,10
2,10,prac,1,B,triangle.png,1,m,Fri Apr 04 2025 14:09:41 GMT-0500 (Central Daylight Time),204022.8999999985,1700,O,m,1268,2,1,3763.60000000149,200259.29999999702,7112,NTS,C,11
3,11,prac,1,B,triangle.png,1,z,Fri Apr 04 2025 14:09:41 GMT-0500 (Central Daylight Time),207022.29999999702,1600,O,z,603,3,1,2990.6999999955297,204031.6000000015,7112,NTS,C,12
2,0,test,1,A,circle.png,0,z,Fri Apr 04 2025 14:09:41 GMT-0500 (Central Daylight Time),225267.1000000015,2000,O,None,1515,2,1,3528.3000000044703,221738.79999999702,7112,NTS,C,1
3,0,test,1,A,circle.png,0,z,Fri Apr 04 2025 14:09:41 GMT-0500 (Central Daylight Time),227332.6000000015,1200,O,m,849,3,1,2060.10000000149,225272.5,7112,NTS,C,2
8,0,test,1,A,circle.png,0,m,Fri Apr 04 2025 14:09:41 GMT-0500 (Central Daylight Time),230047.0,1600,O,z,1085,7,1,2709.2000000029802,227337.79999999702,7112,NTS,C,3
6,0,test,1,A,circle.png,0,m,Fri Apr 04 2025 14:09:41 GMT-0500 (Central Daylight Time),233478.8999999985,1900,O,None,1514,5,1,3426.60000000149,230052.29999999702,7112,NTS,C,4
9,1,test,1,A,circle.png,1,m,Fri Apr 04 2025 14:09:41 GMT-0500 (Central Daylight Time),236144.69999999553,1500,O,m,1140,8,1,2658.2999999970198,233486.3999999985,7112,NTS,C,5
7,2,test,1,A,circle.png,1,m,Fri Apr 04 2025 14:09:41 GMT-0500 (Central Daylight Time),238861.3999999985,1700,O,m,995,6,1,2712.89999999851,236148.5,7112,NTS,C,6
8,3,test,1,A,circle.png,1,m,Fri Apr 04 2025 14:09:41 GMT-0500 (Central Daylight Time),241110.19999999553,1600,O,m,617,7,1,2243.89999999851,238866.29999999702,7112,NTS,C,7
1,4,test,1,A,circle.png,1,z,Fri Apr 04 2025 14:09:41 GMT-0500 (Central Daylight Time),242676.3999999985,1000,O,z,537,1,1,1562.2000000029802,241114.19999999553,7112,NTS,C,8
9,5,test,1,A,circle.png,1,m,Fri Apr 04 2025 14:09:41 GMT-0500 (Central Daylight Time),244809.1000000015,1500,O,m,607,8,1,2128.10000000149,242681.0,7112,NTS,C,9
4,6,test,1,A,circle.png,1,z,Fri Apr 04 2025 14:09:41 GMT-0500 (Central Daylight Time),247142.19999999553,1400,O,z,909,4,1,2328.5999999940395,244813.6000000015,7112,NTS,C,10
7,7,test,1,A,circle.png,1,m,Fri Apr 04 2025 14:09:41 GMT-0500 (Central Daylight Time),249456.6000000015,1700,O,m,581,6,1,2310.4000000059605,247146.19999999553,7112,NTS,C,11
2,8,test,1,A,circle.png,1,z,Fri Apr 04 2025 14:09:41 GMT-0500 (Central Daylight Time),252222.79999999702,2000,O,z,735,2,1,2763.39999999851,249459.3999999985,7112,NTS,C,12
4,9,test,1,A,circle.png,1,z,Fri Apr 04 2025 14:09:41 GMT-0500 (Central Daylight Time),254772.0,1400,O,z,1118,4,1,2543.8000000044703,252228.19999999553,7112,NTS,C,13
7,10,test,1,A,circle.png,1,m,Fri Apr 04 2025 14:09:41 GMT-0500 (Central Daylight Time),257121.5,1700,O,m,621,6,1,2344.10000000149,254777.3999999985,7112,NTS,C,14
2,11,test,1,A,circle.png,1,z,Fri Apr 04 2025 14:09:41 GMT-0500 (Central Daylight Time),259756.8999999985,2000,O,z,617,2,1,2631.2000000029802,257125.69999999553,7112,NTS,C,15
1,12,test,1,A,circle.png,1,z,Fri Apr 04 2025 14:09:41 GMT-0500 (Central Daylight Time),261554.69999999553,1000,O,z,781,1,1,1793.5999999940395,259761.1000000015,7112,NTS,C,16
4,13,test,1,A,circle.png,1,z,Fri Apr 04 2025 14:09:41 GMT-0500 (Central Daylight Time),264119.8999999985,1400,O,z,1142,4,1,2558.60000000149,261561.29999999702,7112,NTS,C,17
3,14,test,1,A,circle.png,1,z,Fri Apr 04 2025 14:09:41 GMT-0500 (Central Daylight Time),266253.8999999985,1200,O,z,915,3,1,2129.89999999851,264124.0,7112,NTS,C,18
8,15,test,1,A,circle.png,1,m,Fri Apr 04 2025 14:09:41 GMT-0500 (Central Daylight Time),268518.8999999985,1600,O,m,634,7,1,2259.7000000029802,266259.19999999553,7112,NTS,C,19
4,16,test,1,A,circle.png,1,z,Fri Apr 04 2025 14:09:41 GMT-0500 (Central Daylight Time),270750.1000000015,1400,O,z,809,4,1,2226.2000000029802,268523.8999999985,7112,NTS,C,20
9,17,test,1,A,circle.png,1,m,Fri Apr 04 2025 14:09:41 GMT-0500 (Central Daylight Time),272999.6000000015,1500,O,m,724,8,1,2245.4000000059605,270754.19999999553,7112,NTS,C,21
6,18,test,1,A,circle.png,1,m,Fri Apr 04 2025 14:09:41 GMT-0500 (Central Daylight Time),275799.299999997,1900,O,m,866,5,1,2795.10000000149,273004.19999999553,7112,NTS,C,22
2,19,test,1,A,circle.png,1,z,Fri Apr 04 2025 14:09:41 GMT-0500 (Central Daylight Time),278419.3999999985,2000,O,z,585,2,1,2615.60000000149,275803.799999997,7112,NTS,C,23
6,20,test,1,A,circle.png,1,m,Fri Apr 04 2025 14:09:41 GMT-0500 (Central Daylight Time),281180.8999999985,1900,O,m,845,5,1,2758.7999999970198,278422.1000000015,7112,NTS,C,24
8,1,test,1,B,triangle.png,1,m,Fri Apr 04 2025 14:09:41 GMT-0500 (Central Daylight Time),289929.69999999553,1200,O,m,1017,7,1,2229.2999999970198,287700.3999999985,7112,NTS,C,1
2,1,test,1,B,triangle.png,0,m,Fri Apr 04 2025 14:09:41 GMT-0500 (Central Daylight Time),292260.8999999985,1700,O,z,602,2,1,2326.2999999970198,289934.6000000015,7112,NTS,C,2
1,2,test,1,B,triangle.png,1,z,Fri Apr 04 2025 14:09:41 GMT-0500 (Central Daylight Time),295076.1000000015,1900,O,z,895,1,1,2810.9000000059605,292265.19999999553,7112,NTS,C,3
7,3,test,1,B,triangle.png,1,z,Fri Apr 04 2025 14:09:41 GMT-0500 (Central Daylight Time),297758.19999999553,1600,O,z,1060,14,1,2674.89999999851,295083.299999997,7112,NTS,C,4
1,4,test,1,B,triangle.png,1,z,Fri Apr 04 2025 14:09:41 GMT-0500 (Central Daylight Time),299859.8999999985,1400,O,z,683,9,1,2091.60000000149,297768.299999997,7112,NTS,C,5
9,5,test,1,B,triangle.png,1,z,Fri Apr 04 2025 14:09:41 GMT-0500 (Central Daylight Time),302507.6000000015,1400,O,z,1221,8,1,2641.10000000149,299866.5,7112,NTS,C,6
9,6,test,1,B,triangle.png,1,z,Fri Apr 04 2025 14:09:41 GMT-0500 (Central Daylight Time),305440.5,1900,O,z,998,16,1,2926.39999999851,302514.1000000015,7112,NTS,C,7
7,7,test,1,B,triangle.png,1,z,Fri Apr 04 2025 14:09:41 GMT-0500 (Central Daylight Time),308240.0,2000,O,z,775,6,1,2795.10000000149,305444.8999999985,7112,NTS,C,8
4,8,test,1,B,triangle.png,1,m,Fri Apr 04 2025 14:09:41 GMT-0500 (Central Daylight Time),310506.799999997,1500,O,m,737,4,1,2259.60000000149,308247.19999999553,7112,NTS,C,9
6,9,test,1,B,triangle.png,1,m,Fri Apr 04 2025 14:09:41 GMT-0500 (Central Daylight Time),312472.299999997,1000,O,m,934,5,1,1958.6999999955297,310513.6000000015,7112,NTS,C,10
2,10,test,1,B,triangle.png,1,m,Fri Apr 04 2025 14:09:41 GMT-0500 (Central Daylight Time),314970.8999999985,1700,O,m,772,2,1,2490.7999999970198,312480.1000000015,7112,NTS,C,11
8,11,test,1,B,triangle.png,1,m,Fri Apr 04 2025 14:09:41 GMT-0500 (Central Daylight Time),317486.3999999985,1700,O,m,795,15,1,2512.0,314974.3999999985,7112,NTS,C,12
3,12,test,1,B,triangle.png,1,z,Fri Apr 04 2025 14:09:41 GMT-0500 (Central Daylight Time),320220.3999999985,2000,O,z,716,11,1,2727.60000000149,317492.799999997,7112,NTS,C,13
4,12,test,1,B,triangle.png,0,m,Fri Apr 04 2025 14:09:41 GMT-0500 (Central Daylight Time),322752.1000000015,1000,O,None,1515,12,1,2526.2000000029802,320225.8999999985,7112,NTS,C,14
8,13,test,1,B,triangle.png,1,m,Fri Apr 04 2025 14:09:41 GMT-0500 (Central Daylight Time),325570.19999999553,1700,O,m,1094,15,1,2813.0,322757.19999999553,7112,NTS,C,15
2,14,test,1,B,triangle.png,1,m,Fri Apr 04 2025 14:09:41 GMT-0500 (Central Daylight Time),327632.69999999553,1200,O,m,842,10,1,2057.2999999970198,325575.3999999985,7112,NTS,C,16
3,15,test,1,B,triangle.png,1,z,Fri Apr 04 2025 14:09:41 GMT-0500 (Central Daylight Time),330500.1000000015,2000,O,z,848,11,1,2861.4000000059605,327638.69999999553,7112,NTS,C,17
6,16,test,1,B,triangle.png,1,m,Fri Apr 04 2025 14:09:41 GMT-0500 (Central Daylight Time),332765.8999999985,1500,O,m,739,13,1,2260.2999999970198,330505.6000000015,7112,NTS,C,18
6,17,test,1,B,triangle.png,1,m,Fri Apr 04 2025 14:09:41 GMT-0500 (Central Daylight Time),335248.69999999553,1500,O,m,950,13,1,2478.0999999940395,332770.6000000015,7112,NTS,C,19
3,18,test,1,B,triangle.png,1,z,Fri Apr 04 2025 14:09:41 GMT-0500 (Central Daylight Time),337731.19999999553,1600,O,z,866,3,1,2477.5,335253.69999999553,7112,NTS,C,20
4,19,test,1,B,triangle.png,1,m,Fri Apr 04 2025 14:09:41 GMT-0500 (Central Daylight Time),339729.3999999985,1000,O,m,975,12,1,1993.1000000014901,337736.299999997,7112,NTS,C,21
2,19,test,1,B,triangle.png,0,m,Fri Apr 04 2025 14:09:41 GMT-0500 (Central Daylight Time),342461.8999999985,1200,O,None,1515,10,1,2727.89999999851,339734.0,7112,NTS,C,22
4,20,test,1,B,triangle.png,1,m,Fri Apr 04 2025 14:09:41 GMT-0500 (Central Daylight Time),344710.8999999985,1500,O,m,726,4,1,2239.5,342471.3999999985,7112,NTS,C,23
7,21,test,1,B,triangle.png,1,z,Fri Apr 04 2025 14:09:41 GMT-0500 (Central Daylight Time),347444.5,1600,O,z,1116,14,1,2729.5,344715.0,7112,NTS,C,24
8,0,prac,1,C,triangle.png,0,m,Fri Apr 04 2025 14:09:41 GMT-0500 (Central Daylight Time),409041.69999999553,1400,O,None,1514,7,1,3692.39999999851,405349.299999997,7112,NTS,C,1
1,1,prac,1,C,circle.png,1,z,Fri Apr 04 2025 14:09:41 GMT-0500 (Central Daylight Time),412574.19999999553,1700,O,z,1044,1,1,3525.89999999851,409048.299999997,7112,NTS,C,2
4,1,prac,1,C,circle.png,0,z,Fri Apr 04 2025 14:09:41 GMT-0500 (Central Daylight Time),415873.19999999553,1000,O,None,1516,4,1,3292.5,412580.69999999553,7112,NTS,C,3
6,2,prac,1,C,circle.png,1,m,Fri Apr 04 2025 14:09:41 GMT-0500 (Central Daylight Time),419754.5,2000,O,m,1090,5,1,3874.7000000029802,415879.799999997,7112,NTS,C,4
4,3,prac,1,C,circle.png,1,z,Fri Apr 04 2025 14:09:41 GMT-0500 (Central Daylight Time),422737.5,1000,O,z,1184,4,1,2975.5,419762.0,7112,NTS,C,5
6,4,prac,1,C,circle.png,1,m,Fri Apr 04 2025 14:09:41 GMT-0500 (Central Daylight Time),426420.799999997,2000,O,m,888,5,1,3677.10000000149,422743.69999999553,7112,NTS,C,6
9,5,prac,1,C,circle.png,1,m,Fri Apr 04 2025 14:09:41 GMT-0500 (Central Daylight Time),429735.299999997,1900,O,m,627,8,1,3305.7999999970198,426429.5,7112,NTS,C,7
3,6,prac,1,C,triangle.png,1,z,Fri Apr 04 2025 14:09:41 GMT-0500 (Central Daylight Time),432750.8999999985,1500,O,z,727,3,1,3009.39999999851,429741.5,7112,NTS,C,8
8,7,prac,1,C,triangle.png,1,m,Fri Apr 04 2025 14:09:41 GMT-0500 (Central Daylight Time),435751.299999997,1400,O,m,804,7,1,2994.2999999970198,432757.0,7112,NTS,C,9
7,7,prac,1,C,triangle.png,0,z,Fri Apr 04 2025 14:09:41 GMT-0500 (Central Daylight Time),438649.69999999553,1200,O,m,917,6,1,2891.0999999940395,435758.6000000015,7112,NTS,C,10
2,7,prac,1,C,triangle.png,0,m,Fri Apr 04 2025 14:09:41 GMT-0500 (Central Daylight Time),441997.19999999553,1600,O,z,951,2,1,3338.1999999955297,438659.0,7112,NTS,C,11
3,8,prac,1,C,triangle.png,1,z,Fri Apr 04 2025 14:09:41 GMT-0500 (Central Daylight Time),445230.1000000015,1500,O,z,945,3,1,3226.7000000029802,442003.3999999985,7112,NTS,C,12
9,1,test,1,C,circle.png,1,m,Fri Apr 04 2025 14:09:41 GMT-0500 (Central Daylight Time),457541.19999999553,1500,O,m,1186,8,1,2711.39999999851,454829.799999997,7112,NTS,C,1
8,2,test,1,C,triangle.png,1,m,Fri Apr 04 2025 14:09:41 GMT-0500 (Central Daylight Time),460075.1000000015,1600,O,m,907,7,1,2529.5,457545.6000000015,7112,NTS,C,2
4,2,test,1,C,triangle.png,0,m,Fri Apr 04 2025 14:09:41 GMT-0500 (Central Daylight Time),463006.69999999553,1500,O,z,1410,20,1,2927.2999999970198,460079.3999999985,7112,NTS,C,3
8,3,test,1,C,triangle.png,1,m,Fri Apr 04 2025 14:09:41 GMT-0500 (Central Daylight Time),465907.1000000015,1600,O,m,1283,23,1,2896.60000000149,463010.5,7112,NTS,C,4
2,3,test,1,C,circle.png,0,z,Fri Apr 04 2025 14:09:41 GMT-0500 (Central Daylight Time),468938.19999999553,1700,O,m,1310,10,1,3026.89999999851,465911.299999997,7112,NTS,C,5
4,4,test,1,C,triangle.png,1,m,Fri Apr 04 2025 14:09:41 GMT-0500 (Central Daylight Time),471421.19999999553,1500,O,m,955,12,1,2479.0,468942.19999999553,7112,NTS,C,6
9,5,test,1,C,triangle.png,1,z,Fri Apr 04 2025 14:09:41 GMT-0500 (Central Daylight Time),473919.6000000015,1400,O,z,1075,16,1,2494.0,471425.6000000015,7112,NTS,C,7
3,5,test,1,C,circle.png,0,z,Fri Apr 04 2025 14:09:41 GMT-0500 (Central Daylight Time),477053.0,1600,O,None,1516,11,1,3129.5,473923.5,7112,NTS,C,8
8,6,test,1,C,circle.png,1,m,Fri Apr 04 2025 14:09:41 GMT-0500 (Central Daylight Time),479184.6000000015,1200,O,m,901,15,1,2125.9000000059605,477058.69999999553,7112,NTS,C,9
1,7,test,1,C,triangle.png,1,z,Fri Apr 04 2025 14:09:41 GMT-0500 (Central Daylight Time),482017.6000000015,1900,O,z,908,9,1,2827.3000000044703,479190.299999997,7112,NTS,C,10
4,7,test,1,C,circle.png,0,z,Fri Apr 04 2025 14:09:41 GMT-0500 (Central Daylight Time),484199.299999997,1400,O,m,759,4,1,2176.39999999851,482022.8999999985,7112,NTS,C,11
7,7,test,1,C,triangle.png,0,z,Fri Apr 04 2025 14:09:41 GMT-0500 (Central Daylight Time),487432.6000000015,1700,O,None,1516,6,1,3229.8000000044703,484202.799999997,7112,NTS,C,12
7,7,test,1,C,triangle.png,0,z,Fri Apr 04 2025 14:09:41 GMT-0500 (Central Daylight Time),490066.799999997,1700,O,m,909,22,1,2628.89999999851,487437.8999999985,7112,NTS,C,13
1,8,test,1,C,circle.png,1,z,Fri Apr 04 2025 14:09:41 GMT-0500 (Central Daylight Time),491780.8999999985,1000,O,z,687,1,1,1709.5,490071.3999999985,7112,NTS,C,14
1,9,test,1,C,triangle.png,1,z,Fri Apr 04 2025 14:09:41 GMT-0500 (Central Daylight Time),494247.1000000015,1900,O,z,535,17,1,2461.9000000059605,491785.19999999553,7112,NTS,C,15
3,9,test,1,C,triangle.png,0,z,Fri Apr 04 2025 14:09:41 GMT-0500 (Central Daylight Time),496146.3999999985,1200,O,m,675,3,1,1895.1000000014901,494251.299999997,7112,NTS,C,16
9,9,test,1,C,circle.png,0,m,Fri Apr 04 2025 14:09:41 GMT-0500 (Central Daylight Time),498196.5,1500,O,z,533,24,1,2045.7000000029802,496150.799999997,7112,NTS,C,17
6,9,test,1,C,circle.png,0,m,Fri Apr 04 2025 14:09:41 GMT-0500 (Central Daylight Time),501627.8999999985,1900,O,None,1516,21,1,3426.2999999970198,498201.6000000015,7112,NTS,C,18
7,9,test,1,C,circle.png,0,m,Fri Apr 04 2025 14:09:41 GMT-0500 (Central Daylight Time),505161.3999999985,2000,O,None,1516,14,1,3528.10000000149,501633.299999997,7112,NTS,C,19
2,9,test,1,C,triangle.png,0,m,Fri Apr 04 2025 14:09:41 GMT-0500 (Central Daylight Time),508691.1000000015,2000,O,None,1513,2,1,3524.3000000044703,505166.799999997,7112,NTS,C,20
2,9,test,1,C,circle.png,0,z,Fri Apr 04 2025 14:09:41 GMT-0500 (Central Daylight Time),511925.0,1700,O,None,1516,18,1,3225.3000000044703,508699.69999999553,7112,NTS,C,21
3,9,test,1,C,circle.png,0,z,Fri Apr 04 2025 14:09:41 GMT-0500 (Central Daylight Time),515057.299999997,1600,O,None,1516,19,1,3126.0,511931.299999997,7112,NTS,C,22
6,9,test,1,C,circle.png,0,m,Fri Apr 04 2025 14:09:41 GMT-0500 (Central Daylight Time),518489.6000000015,1900,O,None,1515,5,1,3425.5,515064.1000000015,7112,NTS,C,23
6,9,test,1,C,triangle.png,0,m,Fri Apr 04 2025 14:09:41 GMT-0500 (Central Daylight Time),521021.3999999985,1000,O,None,1514,13,1,2526.39999999851,518495.0,7112,NTS,C,24
1,0,test,2,C,circle.png,0,z,Fri Apr 04 2025 14:09:41 GMT-0500 (Central Daylight Time),583569.5,1000,O,None,1515,1,1,2527.8000000044703,581041.6999999955,7112,NTS,C,1
9,0,test,2,C,triangle.png,0,z,Fri Apr 04 2025 14:09:41 GMT-0500 (Central Daylight Time),586500.8999999985,1400,O,None,1515,16,1,2923.2000000029802,583577.6999999955,7112,NTS,C,2
6,0,test,2,C,triangle.png,0,m,Fri Apr 04 2025 14:09:41 GMT-0500 (Central Daylight Time),589017.8999999985,1000,O,None,1501,13,1,2511.7999999970198,586506.1000000015,7112,NTS,C,3
8,0,test,2,C,circle.png,0,m,Fri Apr 04 2025 14:09:41 GMT-0500 (Central Daylight Time),591748.6999999955,1200,O,None,1515,15,1,2723.0,589025.6999999955,7112,NTS,C,4
1,0,test,2,C,triangle.png,0,z,Fri Apr 04 2025 14:09:41 GMT-0500 (Central Daylight Time),595180.8999999985,1900,O,None,1514,9,1,3425.5,591755.3999999985,7112,NTS,C,5
6,0,test,2,C,triangle.png,0,m,Fri Apr 04 2025 14:09:41 GMT-0500 (Central Daylight Time),597713.5,1000,O,None,1515,21,1,2528.89999999851,595184.6000000015,7112,NTS,C,6
8,0,test,2,C,triangle.png,0,m,Fri Apr 04 2025 14:09:41 GMT-0500 (Central Daylight Time),600846.299999997,1600,O,None,1513,7,1,3126.6999999955297,597719.6000000015,7112,NTS,C,7
2,0,test,2,C,circle.png,0,z,Fri Apr 04 2025 14:09:41 GMT-0500 (Central Daylight Time),604078.8999999985,1700,O,None,1515,10,1,3227.2999999970198,600851.6000000015,7112,NTS,C,8
7,0,test,2,C,circle.png,0,m,Fri Apr 04 2025 14:09:41 GMT-0500 (Central Daylight Time),607611.3999999985,2000,O,None,1514,14,1,3527.89999999851,604083.5,7112,NTS,C,9
3,0,test,2,C,circle.png,0,z,Fri Apr 04 2025 14:09:41 GMT-0500 (Central Daylight Time),610742.6000000015,1600,O,None,1515,19,1,3127.7000000029802,607614.8999999985,7112,NTS,C,10
9,0,test,2,C,triangle.png,0,z,Fri Apr 04 2025 14:09:41 GMT-0500 (Central Daylight Time),613676.3999999985,1400,O,None,1515,24,1,2926.39999999851,610750.0,7112,NTS,C,11
3,0,test,2,C,triangle.png,0,z,Fri Apr 04 2025 14:09:41 GMT-0500 (Central Daylight Time),616408.8999999985,1200,O,None,1516,3,1,2727.10000000149,613681.799999997,7112,NTS,C,12
7,0,test,2,C,circle.png,0,m,Fri Apr 04 2025 14:09:41 GMT-0500 (Central Daylight Time),619941.0,2000,O,None,1515,22,1,3528.0,616413.0,7112,NTS,C,13
6,0,test,2,C,circle.png,0,m,Fri Apr 04 2025 14:09:41 GMT-0500 (Central Daylight Time),623372.5,1900,O,None,1515,5,1,3427.10000000149,619945.3999999985,7112,NTS,C,14
1,0,test,2,C,triangle.png,0,z,Fri Apr 04 2025 14:09:41 GMT-0500 (Central Daylight Time),626805.1999999955,1900,O,None,1513,17,1,3428.2999999970198,623376.8999999985,7112,NTS,C,15
2,0,test,2,C,circle.png,0,z,Fri Apr 04 2025 14:09:41 GMT-0500 (Central Daylight Time),630037.299999997,1700,O,None,1515,18,1,3226.60000000149,626810.6999999955,7112,NTS,C,16
2,0,test,2,C,triangle.png,0,m,Fri Apr 04 2025 14:09:41 GMT-0500 (Central Daylight Time),633569.299999997,2000,O,None,1515,2,1,3526.7999999970198,630042.5,7112,NTS,C,17
4,0,test,2,C,circle.png,0,z,Fri Apr 04 2025 14:09:41 GMT-0500 (Central Daylight Time),636501.6999999955,1400,O,None,1515,4,1,2927.7999999970198,633573.8999999985,7112,NTS,C,18
9,0,test,2,C,circle.png,0,m,Fri Apr 04 2025 14:09:41 GMT-0500 (Central Daylight Time),639535.1999999955,1500,O,None,1515,8,1,3028.39999999851,636506.799999997,7112,NTS,C,19
4,0,test,2,C,triangle.png,0,m,Fri Apr 04 2025 14:09:41 GMT-0500 (Central Daylight Time),642569.0,1500,O,None,1518,20,1,3029.3000000044703,639539.6999999955,7112,NTS,C,20
8,0,test,2,C,circle.png,0,m,Fri Apr 04 2025 14:09:41 GMT-0500 (Central Daylight Time),645299.8999999985,1200,O,None,1515,23,1,2726.7999999970198,642573.1000000015,7112,NTS,C,21
7,0,test,2,C,triangle.png,0,z,Fri Apr 04 2025 14:09:41 GMT-0500 (Central Daylight Time),648532.3999999985,1700,O,None,1516,6,1,3226.60000000149,645305.799999997,7112,NTS,C,22
3,0,test,2,C,circle.png,0,z,Fri Apr 04 2025 14:09:41 GMT-0500 (Central Daylight Time),651663.6999999955,1600,O,None,1514,11,1,3125.7999999970198,648537.8999999985,7112,NTS,C,23
4,0,test,2,C,triangle.png,0,m,Fri Apr 04 2025 14:09:41 GMT-0500 (Central Daylight Time),654695.3999999985,1500,O,None,1514,12,1,3026.39999999851,651669.0,7112,NTS,C,24
4,0,test,3,C,circle.png,0,z,Fri Apr 04 2025 14:09:41 GMT-0500 (Central Daylight Time),717643.5,1400,O,None,1514,20,1,2926.7000000029802,714716.799999997,7112,NTS,C,1
4,0,test,3,C,circle.png,0,z,Fri Apr 04 2025 14:09:41 GMT-0500 (Central Daylight Time),720575.8999999985,1400,O,None,1515,4,1,2925.5,717650.3999999985,7112,NTS,C,2
6,0,test,3,C,circle.png,0,m,Fri Apr 04 2025 14:09:41 GMT-0500 (Central Daylight Time),724007.799999997,1900,O,None,1517,5,1,3426.60000000149,720581.1999999955,7112,NTS,C,3
1,0,test,3,C,triangle.png,0,z,Fri Apr 04 2025 14:09:41 GMT-0500 (Central Daylight Time),727440.1000000015,1900,O,None,1515,9,1,3426.3000000044703,724013.799999997,7112,NTS,C,4
1,0,test,3,C,circle.png,0,z,Fri Apr 04 2025 14:09:41 GMT-0500 (Central Daylight Time),729971.5,1000,O,None,1513,1,1,2526.3000000044703,727445.1999999955,7112,NTS,C,5
7,0,test,3,C,circle.png,0,m,Fri Apr 04 2025 14:09:41 GMT-0500 (Central Daylight Time),733488.1999999955,2000,O,None,1501,14,1,3511.7999999970198,729976.3999999985,7112,NTS,C,6
3,0,test,3,C,triangle.png,0,z,Fri Apr 04 2025 14:09:41 GMT-0500 (Central Daylight Time),736219.8999999985,1200,O,None,1515,3,1,2723.39999999851,733496.5,7112,NTS,C,7
8,0,test,3,C,circle.png,0,m,Fri Apr 04 2025 14:09:41 GMT-0500 (Central Daylight Time),738950.6000000015,1200,O,None,1514,15,1,2724.5,736226.1000000015,7112,NTS,C,8
6,0,test,3,C,circle.png,0,m,Fri Apr 04 2025 14:09:41 GMT-0500 (Central Daylight Time),742385.8999999985,1900,O,None,1516,21,1,3431.89999999851,738954.0,7112,NTS,C,9
8,0,test,3,C,triangle.png,0,m,Fri Apr 04 2025 14:09:41 GMT-0500 (Central Daylight Time),745518.3999999985,1600,O,None,1515,7,1,3126.7999999970198,742391.6000000015,7112,NTS,C,10
7,0,test,3,C,triangle.png,0,z,Fri Apr 04 2025 14:09:41 GMT-0500 (Central Daylight Time),748750.1999999955,1700,O,None,1515,22,1,3226.5,745523.6999999955,7112,NTS,C,11
3,0,test,3,C,triangle.png,0,z,Fri Apr 04 2025 14:09:41 GMT-0500 (Central Daylight Time),751482.1999999955,1200,O,None,1514,19,1,2726.1999999955297,748756.0,7112,NTS,C,12
2,0,test,3,C,triangle.png,0,m,Fri Apr 04 2025 14:09:41 GMT-0500 (Central Daylight Time),755015.1999999955,2000,O,None,1515,18,1,3526.39999999851,751488.799999997,7112,NTS,C,13
2,0,test,3,C,triangle.png,0,m,Fri Apr 04 2025 14:09:41 GMT-0500 (Central Daylight Time),758546.299999997,2000,O,None,1516,2,1,3525.6999999955297,755020.6000000015,7112,NTS,C,14
9,0,test,3,C,triangle.png,0,z,Fri Apr 04 2025 14:09:41 GMT-0500 (Central Daylight Time),761479.8999999985,1400,O,None,1516,16,1,2927.2000000029802,758552.6999999955,7112,NTS,C,15
7,0,test,3,C,triangle.png,0,z,Fri Apr 04 2025 14:09:41 GMT-0500 (Central Daylight Time),764712.0,1700,O,None,1513,6,1,3226.8000000044703,761485.1999999955,7112,NTS,C,16
9,0,test,3,C,circle.png,0,m,Fri Apr 04 2025 14:09:41 GMT-0500 (Central Daylight Time),767745.0,1500,O,None,1515,8,1,3026.7000000029802,764718.299999997,7112,NTS,C,17
2,0,test,3,C,circle.png,0,z,Fri Apr 04 2025 14:09:41 GMT-0500 (Central Daylight Time),770975.3999999985,1700,O,None,1514,10,1,3226.60000000149,767748.799999997,7112,NTS,C,18
9,0,test,3,C,circle.png,0,m,Fri Apr 04 2025 14:09:41 GMT-0500 (Central Daylight Time),774009.1000000015,1500,O,None,1516,24,1,3026.5,770982.6000000015,7112,NTS,C,19
3,0,test,3,C,circle.png,0,z,Fri Apr 04 2025 14:09:41 GMT-0500 (Central Daylight Time),777141.6000000015,1600,O,None,1517,11,1,3127.10000000149,774014.5,7112,NTS,C,20
8,0,test,3,C,triangle.png,0,m,Fri Apr 04 2025 14:09:41 GMT-0500 (Central Daylight Time),780274.3999999985,1600,O,None,1516,23,1,3127.60000000149,777146.799999997,7112,NTS,C,21
1,0,test,3,C,circle.png,0,z,Fri Apr 04 2025 14:09:41 GMT-0500 (Central Daylight Time),782805.299999997,1000,O,None,1514,17,1,2524.1999999955297,780281.1000000015,7112,NTS,C,22
4,0,test,3,C,triangle.png,0,m,Fri Apr 04 2025 14:09:41 GMT-0500 (Central Daylight Time),785839.3999999985,1500,O,None,1515,12,1,3030.10000000149,782809.299999997,7112,NTS,C,23
6,0,test,3,C,triangle.png,0,m,Fri Apr 04 2025 14:09:41 GMT-0500 (Central Daylight Time),788369.299999997,1000,O,None,1513,13,1,2521.89999999851,785847.3999999985,7112,NTS,C,24
1,0,test,4,C,circle.png,0,z,Fri Apr 04 2025 14:09:41 GMT-0500 (Central Daylight Time),850916.3999999985,1000,O,None,1516,17,1,2527.60000000149,848388.799999997,7112,NTS,C,1
7,0,test,4,C,triangle.png,0,z,Fri Apr 04 2025 14:09:41 GMT-0500 (Central Daylight Time),854149.5,1700,O,None,1514,6,1,3227.3000000044703,850922.1999999955,7112,NTS,C,2
2,0,test,4,C,circle.png,0,z,Fri Apr 04 2025 14:09:41 GMT-0500 (Central Daylight Time),857382.1000000015,1700,O,None,1515,10,1,3227.0,854155.1000000015,7112,NTS,C,3
3,0,test,4,C,circle.png,0,z,Fri Apr 04 2025 14:09:41 GMT-0500 (Central Daylight Time),860514.8999999985,1600,O,None,1515,11,1,3128.5,857386.3999999985,7112,NTS,C,4
6,0,test,4,C,circle.png,0,m,Fri Apr 04 2025 14:09:41 GMT-0500 (Central Daylight Time),863945.6999999955,1900,O,None,1516,21,1,3425.5,860520.1999999955,7112,NTS,C,5
9,0,test,4,C,triangle.png,0,z,Fri Apr 04 2025 14:09:41 GMT-0500 (Central Daylight Time),866879.1999999955,1400,O,None,1514,16,1,2928.1999999955297,863951.0,7112,NTS,C,6
6,0,test,4,C,triangle.png,0,m,Fri Apr 04 2025 14:09:41 GMT-0500 (Central Daylight Time),869395.6999999955,1000,O,None,1501,13,1,2509.89999999851,866885.799999997,7112,NTS,C,7
2,0,test,4,C,triangle.png,0,m,Fri Apr 04 2025 14:09:41 GMT-0500 (Central Daylight Time),872926.299999997,2000,O,None,1515,18,1,3523.89999999851,869402.3999999985,7112,NTS,C,8
8,0,test,4,C,circle.png,0,m,Fri Apr 04 2025 14:09:41 GMT-0500 (Central Daylight Time),875659.0,1200,O,None,1515,15,1,2726.3000000044703,872932.6999999955,7112,NTS,C,9
7,0,test,4,C,circle.png,0,m,Fri Apr 04 2025 14:09:41 GMT-0500 (Central Daylight Time),879191.1000000015,2000,O,None,1515,14,1,3525.4000000059605,875665.6999999955,7112,NTS,C,10
8,0,test,4,C,triangle.png,0,m,Fri Apr 04 2025 14:09:41 GMT-0500 (Central Daylight Time),882324.799999997,1600,O,None,1516,7,1,3127.5,879197.299999997,7112,NTS,C,11
3,0,test,4,C,triangle.png,0,z,Fri Apr 04 2025 14:09:41 GMT-0500 (Central Daylight Time),885057.0,1200,O,None,1515,19,1,2726.8000000044703,882330.1999999955,7112,NTS,C,12
9,0,test,4,C,circle.png,0,m,Fri Apr 04 2025 14:09:41 GMT-0500 (Central Daylight Time),888089.8999999985,1500,O,None,1517,24,1,3026.89999999851,885063.0,7112,NTS,C,13
3,0,test,4,C,triangle.png,0,z,Fri Apr 04 2025 14:09:41 GMT-0500 (Central Daylight Time),890821.299999997,1200,O,None,1514,3,1,2725.6999999955297,888095.6000000015,7112,NTS,C,14
4,0,test,4,C,circle.png,0,z,Fri Apr 04 2025 14:09:41 GMT-0500 (Central Daylight Time),893753.3999999985,1400,O,None,1514,4,1,2926.10000000149,890827.299999997,7112,NTS,C,15
4,0,test,4,C,circle.png,0,z,Fri Apr 04 2025 14:09:41 GMT-0500 (Central Daylight Time),896685.299999997,1400,O,None,1514,20,1,2926.39999999851,893758.8999999985,7112,NTS,C,16
6,0,test,4,C,circle.png,0,m,Fri Apr 04 2025 14:09:41 GMT-0500 (Central Daylight Time),900119.5,1900,O,None,1516,5,1,3429.39999999851,896690.1000000015,7112,NTS,C,17
4,0,test,4,C,triangle.png,0,m,Fri Apr 04 2025 14:09:41 GMT-0500 (Central Daylight Time),903151.799999997,1500,O,None,1515,12,1,3028.39999999851,900123.3999999985,7112,NTS,C,18
7,0,test,4,C,triangle.png,0,z,Fri Apr 04 2025 14:09:41 GMT-0500 (Central Daylight Time),906383.8999999985,1700,O,None,1515,22,1,3226.7000000029802,903157.1999999955,7112,NTS,C,19
2,0,test,4,C,triangle.png,0,m,Fri Apr 04 2025 14:09:41 GMT-0500 (Central Daylight Time),909915.799999997,2000,O,None,1515,2,1,3523.0,906392.799999997,7112,NTS,C,20
1,0,test,4,C,triangle.png,0,z,Fri Apr 04 2025 14:09:41 GMT-0500 (Central Daylight Time),913347.6000000015,1900,O,None,1515,9,1,3425.0,909922.6000000015,7112,NTS,C,21
9,0,test,4,C,circle.png,0,m,Fri Apr 04 2025 14:09:41 GMT-0500 (Central Daylight Time),916381.299999997,1500,O,None,1516,8,1,3028.89999999851,913352.3999999985,7112,NTS,C,22
8,0,test,4,C,triangle.png,0,m,Fri Apr 04 2025 14:09:41 GMT-0500 (Central Daylight Time),919514.1000000015,1600,O,None,1517,23,1,3126.4000000059605,916387.6999999955,7112,NTS,C,23
1,0,test,4,C,circle.png,0,z,Fri Apr 04 2025 14:09:41 GMT-0500 (Central Daylight Time),922043.1999999955,1000,O,None,1512,1,1,2523.6999999955297,919519.5,7112,NTS,C,24
