acc_sum,block,block_c,change,condition,correct,correct_response,datetime,endtime,face,project,response,response_time,row_sel,session_number,start_end,starttime,subject_id,task,task_vers,trial
0,prac,1,,1-Back,,,Fri Apr 04 2025 13:17:57 GMT-0500 (Central Daylight Time),,097_m_f_n_a.png,O,space,5187,1,1,,,7098,NNB,B,0
1,prac,1,0.0,1-Back,1,m,Fri Apr 04 2025 13:17:57 GMT-0500 (Central Daylight Time),132744.1000000015,152_y_f_n_a.png,O,m,1428,2,1,2290.1999999955297,130453.90000000596,7098,NNB,B,1
1,prac,1,1.0,1-Back,0,z,Fri Apr 04 2025 13:17:57 GMT-0500 (Central Daylight Time),135526.5,152_y_f_n_a.png,O,None,2008,3,1,2775.1999999955297,132751.30000000447,7098,NNB,B,2
1,prac,1,0.0,1-Back,0,m,Fri Apr 04 2025 13:17:57 GMT-0500 (Central Daylight Time),138408.90000000596,176_o_m_n_a.png,O,None,2014,4,1,2876.8000000044703,135532.1000000015,7098,NNB,B,3
2,prac,1,0.0,1-Back,1,m,Fri Apr 04 2025 13:17:57 GMT-0500 (Central Daylight Time),141208.1000000015,126_m_m_n_a.png,O,m,1927,5,1,2792.10000000149,138416.0,7098,NNB,B,4
3,prac,1,1.0,1-Back,1,z,Fri Apr 04 2025 13:17:57 GMT-0500 (Central Daylight Time),143040.80000000447,126_m_m_n_a.png,O,z,1059,6,1,1826.6000000014901,141214.20000000298,7098,NNB,B,5
4,prac,1,0.0,1-Back,1,m,Fri Apr 04 2025 13:17:57 GMT-0500 (Central Daylight Time),145056.90000000596,086_o_f_n_a.png,O,m,1131,7,1,2010.4000000059605,143046.5,7098,NNB,B,6
5,prac,1,0.0,1-Back,1,m,Fri Apr 04 2025 13:17:57 GMT-0500 (Central Daylight Time),147272.90000000596,178_m_m_n_a.png,O,m,1351,8,1,2209.9000000059605,145063.0,7098,NNB,B,7
6,prac,1,0.0,1-Back,1,m,Fri Apr 04 2025 13:17:57 GMT-0500 (Central Daylight Time),149088.80000000447,097_m_f_n_a.png,O,m,1033,9,1,1809.0,147279.80000000447,7098,NNB,B,8
7,prac,1,1.0,1-Back,1,z,Fri Apr 04 2025 13:17:57 GMT-0500 (Central Daylight Time),150638.30000000447,097_m_f_n_a.png,O,z,763,10,1,1544.1000000014901,149094.20000000298,7098,NNB,B,9
8,prac,1,0.0,1-Back,1,m,Fri Apr 04 2025 13:17:57 GMT-0500 (Central Daylight Time),152138.20000000298,176_o_m_n_a.png,O,m,721,11,1,1489.2000000029802,150649.0,7098,NNB,B,10
9,prac,1,0.0,1-Back,1,m,Fri Apr 04 2025 13:17:57 GMT-0500 (Central Daylight Time),154004.20000000298,173_y_f_n_a.png,O,m,993,12,1,1859.2999999970198,152144.90000000596,7098,NNB,B,11
0,test,1,0.0,1-Back,,,Fri Apr 04 2025 13:17:57 GMT-0500 (Central Daylight Time),154004.20000000298,152_y_f_n_a.png,O,space,5114,1,1,1859.2999999970198,152144.90000000596,7098,NNB,B,0
1,test,1,0.0,1-Back,1,m,Fri Apr 04 2025 13:17:57 GMT-0500 (Central Daylight Time),170965.30000000447,029_m_f_n_a.png,O,m,1063,2,1,2079.7000000029802,168885.6000000015,7098,NNB,B,1
2,test,1,0.0,1-Back,1,m,Fri Apr 04 2025 13:17:57 GMT-0500 (Central Daylight Time),172698.40000000596,173_y_f_n_a.png,O,m,700,3,1,1728.6000000014901,170969.80000000447,7098,NNB,B,2
3,test,1,1.0,1-Back,1,z,Fri Apr 04 2025 13:17:57 GMT-0500 (Central Daylight Time),174414.20000000298,173_y_f_n_a.png,O,z,687,4,1,1710.7999999970198,172703.40000000596,7098,NNB,B,3
4,test,1,0.0,1-Back,1,m,Fri Apr 04 2025 13:17:57 GMT-0500 (Central Daylight Time),176063.80000000447,029_m_f_n_a.png,O,m,627,5,1,1645.8999999985099,174417.90000000596,7098,NNB,B,4
5,test,1,0.0,1-Back,1,m,Fri Apr 04 2025 13:17:57 GMT-0500 (Central Daylight Time),177763.1000000015,176_o_m_n_a.png,O,m,673,6,1,1694.6999999955297,176068.40000000596,7098,NNB,B,5
6,test,1,1.0,1-Back,1,z,Fri Apr 04 2025 13:17:57 GMT-0500 (Central Daylight Time),179396.0,176_o_m_n_a.png,O,z,614,7,1,1629.5,177766.5,7098,NNB,B,6
7,test,1,0.0,1-Back,1,m,Fri Apr 04 2025 13:17:57 GMT-0500 (Central Daylight Time),181112.20000000298,126_m_m_n_a.png,O,m,693,8,1,1711.7000000029802,179400.5,7098,NNB,B,7
8,test,1,0.0,1-Back,1,m,Fri Apr 04 2025 13:17:57 GMT-0500 (Central Daylight Time),182861.40000000596,086_o_f_n_a.png,O,m,720,9,1,1744.8000000044703,181116.6000000015,7098,NNB,B,8
9,test,1,0.0,1-Back,1,m,Fri Apr 04 2025 13:17:57 GMT-0500 (Central Daylight Time),184860.90000000596,126_m_m_n_a.png,O,m,980,10,1,1995.6000000014901,182865.30000000447,7098,NNB,B,9
10,test,1,0.0,1-Back,1,m,Fri Apr 04 2025 13:17:57 GMT-0500 (Central Daylight Time),186543.90000000596,153_y_m_n_a.png,O,m,652,11,1,1678.6000000014901,184865.30000000447,7098,NNB,B,10
11,test,1,1.0,1-Back,1,z,Fri Apr 04 2025 13:17:57 GMT-0500 (Central Daylight Time),188376.30000000447,153_y_m_n_a.png,O,z,810,12,1,1829.1000000014901,186547.20000000298,7098,NNB,B,11
12,test,1,0.0,1-Back,1,m,Fri Apr 04 2025 13:17:57 GMT-0500 (Central Daylight Time),190342.40000000596,110_o_f_n_a.png,O,m,937,13,1,1962.4000000059605,188380.0,7098,NNB,B,12
13,test,1,1.0,1-Back,1,z,Fri Apr 04 2025 13:17:57 GMT-0500 (Central Daylight Time),192093.40000000596,110_o_f_n_a.png,O,z,731,14,1,1747.1000000014901,190346.30000000447,7098,NNB,B,13
14,test,1,0.0,1-Back,1,m,Fri Apr 04 2025 13:17:57 GMT-0500 (Central Daylight Time),193724.90000000596,013_y_m_n_a.png,O,m,614,15,1,1628.0,192096.90000000596,7098,NNB,B,14
15,test,1,0.0,1-Back,1,m,Fri Apr 04 2025 13:17:57 GMT-0500 (Central Daylight Time),195407.5,097_m_f_n_a.png,O,m,652,16,1,1678.0999999940395,193729.40000000596,7098,NNB,B,15
16,test,1,0.0,1-Back,1,m,Fri Apr 04 2025 13:17:57 GMT-0500 (Central Daylight Time),197107.1000000015,065_o_m_n_a.png,O,m,674,17,1,1695.0,195412.1000000015,7098,NNB,B,16
17,test,1,0.0,1-Back,1,m,Fri Apr 04 2025 13:17:57 GMT-0500 (Central Daylight Time),198790.0,097_m_f_n_a.png,O,m,662,18,1,1677.8999999985099,197112.1000000015,7098,NNB,B,17
0,test,2,0.0,1-Back,,,Fri Apr 04 2025 13:17:57 GMT-0500 (Central Daylight Time),198790.0,126_m_m_n_a.png,O,space,7611,1,1,1677.8999999985099,197112.1000000015,7098,NNB,B,0
1,test,2,0.0,1-Back,1,m,Fri Apr 04 2025 13:17:57 GMT-0500 (Central Daylight Time),210086.5,029_m_f_n_a.png,O,m,645,2,1,1661.2999999970198,208425.20000000298,7098,NNB,B,1
2,test,2,1.0,1-Back,1,z,Fri Apr 04 2025 13:17:57 GMT-0500 (Central Daylight Time),211936.0,029_m_f_n_a.png,O,z,827,3,1,1846.2999999970198,210089.70000000298,7098,NNB,B,2
3,test,2,0.0,1-Back,1,m,Fri Apr 04 2025 13:17:57 GMT-0500 (Central Daylight Time),213518.70000000298,126_m_m_n_a.png,O,m,562,4,1,1578.5,211940.20000000298,7098,NNB,B,3
4,test,2,0.0,1-Back,1,m,Fri Apr 04 2025 13:17:57 GMT-0500 (Central Daylight Time),215251.30000000447,153_y_m_n_a.png,O,m,714,5,1,1728.3999999985099,213522.90000000596,7098,NNB,B,4
5,test,2,0.0,1-Back,1,m,Fri Apr 04 2025 13:17:57 GMT-0500 (Central Daylight Time),216934.20000000298,152_y_f_n_a.png,O,m,660,6,1,1679.7000000029802,215254.5,7098,NNB,B,5
6,test,2,1.0,1-Back,1,z,Fri Apr 04 2025 13:17:57 GMT-0500 (Central Daylight Time),218650.1000000015,152_y_f_n_a.png,O,z,691,7,1,1712.6000000014901,216937.5,7098,NNB,B,6
7,test,2,0.0,1-Back,1,m,Fri Apr 04 2025 13:17:57 GMT-0500 (Central Daylight Time),220216.5,153_y_m_n_a.png,O,m,543,8,1,1561.8999999985099,218654.6000000015,7098,NNB,B,7
8,test,2,0.0,1-Back,1,m,Fri Apr 04 2025 13:17:57 GMT-0500 (Central Daylight Time),221982.6000000015,110_o_f_n_a.png,O,m,745,9,1,1762.6999999955297,220219.90000000596,7098,NNB,B,8
9,test,2,0.0,1-Back,1,m,Fri Apr 04 2025 13:17:57 GMT-0500 (Central Daylight Time),223515.30000000447,178_m_m_n_a.png,O,m,515,10,1,1528.5,221986.80000000447,7098,NNB,B,9
10,test,2,1.0,1-Back,1,z,Fri Apr 04 2025 13:17:57 GMT-0500 (Central Daylight Time),225015.0,178_m_m_n_a.png,O,z,478,11,1,1496.1999999955297,223518.80000000447,7098,NNB,B,10
11,test,2,0.0,1-Back,1,m,Fri Apr 04 2025 13:17:57 GMT-0500 (Central Daylight Time),226597.80000000447,110_o_f_n_a.png,O,m,554,12,1,1578.7000000029802,225019.1000000015,7098,NNB,B,11
12,test,2,0.0,1-Back,1,m,Fri Apr 04 2025 13:17:57 GMT-0500 (Central Daylight Time),228280.5,086_o_f_n_a.png,O,m,659,13,1,1679.2999999970198,226601.20000000298,7098,NNB,B,12
13,test,2,0.0,1-Back,1,m,Fri Apr 04 2025 13:17:57 GMT-0500 (Central Daylight Time),229847.0,176_o_m_n_a.png,O,m,545,14,1,1562.0,228285.0,7098,NNB,B,13
14,test,2,0.0,1-Back,1,m,Fri Apr 04 2025 13:17:57 GMT-0500 (Central Daylight Time),231463.40000000596,065_o_m_n_a.png,O,m,594,15,1,1611.6000000014901,229851.80000000447,7098,NNB,B,14
15,test,2,1.0,1-Back,1,z,Fri Apr 04 2025 13:17:57 GMT-0500 (Central Daylight Time),232962.40000000596,065_o_m_n_a.png,O,z,474,16,1,1494.9000000059605,231467.5,7098,NNB,B,15
16,test,2,0.0,1-Back,1,m,Fri Apr 04 2025 13:17:57 GMT-0500 (Central Daylight Time),234612.0,013_y_m_n_a.png,O,m,631,17,1,1645.2999999970198,232966.70000000298,7098,NNB,B,16
17,test,2,1.0,1-Back,1,z,Fri Apr 04 2025 13:17:57 GMT-0500 (Central Daylight Time),236161.40000000596,013_y_m_n_a.png,O,z,525,18,1,1546.2000000029802,234615.20000000298,7098,NNB,B,17
0,test,3,1.0,1-Back,,,Fri Apr 04 2025 13:17:57 GMT-0500 (Central Daylight Time),236161.40000000596,173_y_f_n_a.png,O,space,6464,1,1,1546.2000000029802,234615.20000000298,7098,NNB,B,0
1,test,3,0.0,1-Back,1,m,Fri Apr 04 2025 13:17:57 GMT-0500 (Central Daylight Time),246358.6000000015,065_o_m_n_a.png,O,m,604,1,1,1627.5,244731.1000000015,7098,NNB,B,1
2,test,3,1.0,1-Back,1,z,Fri Apr 04 2025 13:17:57 GMT-0500 (Central Daylight Time),248107.80000000447,065_o_m_n_a.png,O,z,731,1,1,1746.1000000014901,246361.70000000298,7098,NNB,B,2
3,test,3,0.0,1-Back,1,m,Fri Apr 04 2025 13:17:57 GMT-0500 (Central Daylight Time),249640.5,097_m_f_n_a.png,O,m,502,1,1,1529.3999999985099,248111.1000000015,7098,NNB,B,3
4,test,3,1.0,1-Back,1,z,Fri Apr 04 2025 13:17:57 GMT-0500 (Central Daylight Time),251106.70000000298,097_m_f_n_a.png,O,z,449,1,1,1461.5,249645.20000000298,7098,NNB,B,4
5,test,3,0.0,1-Back,1,m,Fri Apr 04 2025 13:17:57 GMT-0500 (Central Daylight Time),252706.40000000596,110_o_f_n_a.png,O,m,582,1,1,1596.4000000059605,251110.0,7098,NNB,B,5
6,test,3,0.0,1-Back,1,m,Fri Apr 04 2025 13:17:57 GMT-0500 (Central Daylight Time),254189.20000000298,153_y_m_n_a.png,O,m,463,1,1,1479.6000000014901,252709.6000000015,7098,NNB,B,6
7,test,3,0.0,1-Back,1,m,Fri Apr 04 2025 13:17:57 GMT-0500 (Central Daylight Time),255855.5,110_o_f_n_a.png,O,m,644,1,1,1662.0999999940395,254193.40000000596,7098,NNB,B,7
8,test,3,0.0,1-Back,1,m,Fri Apr 04 2025 13:17:57 GMT-0500 (Central Daylight Time),257504.80000000447,013_y_m_n_a.png,O,m,618,1,1,1645.8999999985099,255858.90000000596,7098,NNB,B,8
9,test,3,1.0,1-Back,1,z,Fri Apr 04 2025 13:17:57 GMT-0500 (Central Daylight Time),259187.70000000298,013_y_m_n_a.png,O,z,664,1,1,1679.7000000029802,257508.0,7098,NNB,B,9
10,test,3,0.0,1-Back,1,m,Fri Apr 04 2025 13:17:57 GMT-0500 (Central Daylight Time),261103.70000000298,029_m_f_n_a.png,O,m,886,1,1,1911.7000000029802,259192.0,7098,NNB,B,10
11,test,3,0.0,1-Back,1,m,Fri Apr 04 2025 13:17:57 GMT-0500 (Central Daylight Time),262719.700000003,152_y_f_n_a.png,O,m,585,1,1,1611.7000000029802,261108.0,7098,NNB,B,11
12,test,3,1.0,1-Back,1,z,Fri Apr 04 2025 13:17:57 GMT-0500 (Central Daylight Time),264252.80000000447,152_y_f_n_a.png,O,z,513,1,1,1528.3999999985099,262724.40000000596,7098,NNB,B,12
13,test,3,0.0,1-Back,1,m,Fri Apr 04 2025 13:17:57 GMT-0500 (Central Daylight Time),265818.80000000447,029_m_f_n_a.png,O,m,541,1,1,1562.3999999985099,264256.40000000596,7098,NNB,B,13
14,test,3,0.0,1-Back,1,m,Fri Apr 04 2025 13:17:57 GMT-0500 (Central Daylight Time),267285.1000000015,126_m_m_n_a.png,O,m,445,1,1,1461.6999999955297,265823.40000000596,7098,NNB,B,14
15,test,3,1.0,1-Back,1,z,Fri Apr 04 2025 13:17:57 GMT-0500 (Central Daylight Time),268734.5,126_m_m_n_a.png,O,z,428,1,1,1446.0999999940395,267288.40000000596,7098,NNB,B,15
16,test,3,0.0,1-Back,1,m,Fri Apr 04 2025 13:17:57 GMT-0500 (Central Daylight Time),270284.200000003,086_o_f_n_a.png,O,m,523,1,1,1545.2000000029802,268739.0,7098,NNB,B,16
17,test,3,1.0,1-Back,1,z,Fri Apr 04 2025 13:17:57 GMT-0500 (Central Daylight Time),271767.0,086_o_f_n_a.png,O,z,453,1,1,1479.5999999940395,270287.40000000596,7098,NNB,B,17
0,test,4,1.0,1-Back,,,Fri Apr 04 2025 13:17:57 GMT-0500 (Central Daylight Time),271767.0,097_m_f_n_a.png,O,space,1026,1,1,1479.5999999940395,270287.40000000596,7098,NNB,B,0
1,test,4,0.0,1-Back,1,m,Fri Apr 04 2025 13:17:57 GMT-0500 (Central Daylight Time),276582.1000000015,065_o_m_n_a.png,O,m,662,2,1,1678.1999999955297,274903.90000000596,7098,NNB,B,1
2,test,4,0.0,1-Back,1,m,Fri Apr 04 2025 13:17:57 GMT-0500 (Central Daylight Time),278181.700000003,097_m_f_n_a.png,O,m,571,3,1,1595.8999999985099,276585.80000000447,7098,NNB,B,2
3,test,4,0.0,1-Back,1,m,Fri Apr 04 2025 13:17:57 GMT-0500 (Central Daylight Time),280530.80000000447,110_o_f_n_a.png,O,m,1332,4,1,2345.5,278185.30000000447,7098,NNB,B,3
4,test,4,1.0,1-Back,1,z,Fri Apr 04 2025 13:17:57 GMT-0500 (Central Daylight Time),282113.80000000447,110_o_f_n_a.png,O,z,558,5,1,1579.3999999985099,280534.40000000596,7098,NNB,B,4
5,test,4,0.0,1-Back,1,m,Fri Apr 04 2025 13:17:57 GMT-0500 (Central Daylight Time),283663.1000000015,152_y_f_n_a.png,O,m,527,6,1,1545.7999999970198,282117.30000000447,7098,NNB,B,5
6,test,4,0.0,1-Back,1,m,Fri Apr 04 2025 13:17:57 GMT-0500 (Central Daylight Time),285262.80000000447,153_y_m_n_a.png,O,m,578,7,1,1596.3999999985099,283666.40000000596,7098,NNB,B,6
7,test,4,1.0,1-Back,1,z,Fri Apr 04 2025 13:17:57 GMT-0500 (Central Daylight Time),286779.200000003,153_y_m_n_a.png,O,z,491,8,1,1512.5,285266.700000003,7098,NNB,B,7
8,test,4,0.0,1-Back,1,m,Fri Apr 04 2025 13:17:57 GMT-0500 (Central Daylight Time),288294.90000000596,152_y_f_n_a.png,O,m,494,9,1,1511.2000000029802,286783.700000003,7098,NNB,B,8
9,test,4,0.0,1-Back,1,m,Fri Apr 04 2025 13:17:57 GMT-0500 (Central Daylight Time),289794.80000000447,178_m_m_n_a.png,O,m,474,10,1,1496.5,288298.30000000447,7098,NNB,B,9
10,test,4,1.0,1-Back,1,z,Fri Apr 04 2025 13:17:57 GMT-0500 (Central Daylight Time),291210.700000003,178_m_m_n_a.png,O,z,398,11,1,1411.5,289799.200000003,7098,NNB,B,10
11,test,4,0.0,1-Back,1,m,Fri Apr 04 2025 13:17:57 GMT-0500 (Central Daylight Time),292777.0,086_o_f_n_a.png,O,m,542,12,1,1562.1999999955297,291214.80000000447,7098,NNB,B,11
12,test,4,0.0,1-Back,1,m,Fri Apr 04 2025 13:17:57 GMT-0500 (Central Daylight Time),294276.5,176_o_m_n_a.png,O,m,480,13,1,1494.8999999985099,292781.6000000015,7098,NNB,B,12
13,test,4,0.0,1-Back,1,m,Fri Apr 04 2025 13:17:57 GMT-0500 (Central Daylight Time),295992.6000000015,086_o_f_n_a.png,O,m,685,14,1,1711.3999999985099,294281.200000003,7098,NNB,B,13
14,test,4,0.0,1-Back,1,m,Fri Apr 04 2025 13:17:57 GMT-0500 (Central Daylight Time),297642.200000003,173_y_f_n_a.png,O,m,624,15,1,1645.5,295996.700000003,7098,NNB,B,14
15,test,4,1.0,1-Back,1,z,Fri Apr 04 2025 13:17:57 GMT-0500 (Central Daylight Time),299125.0,173_y_f_n_a.png,O,z,455,16,1,1479.6999999955297,297645.30000000447,7098,NNB,B,15
16,test,4,0.0,1-Back,1,m,Fri Apr 04 2025 13:17:57 GMT-0500 (Central Daylight Time),300908.0,029_m_f_n_a.png,O,m,756,17,1,1779.6999999955297,299128.30000000447,7098,NNB,B,16
17,test,4,1.0,1-Back,1,z,Fri Apr 04 2025 13:17:57 GMT-0500 (Central Daylight Time),302490.80000000447,029_m_f_n_a.png,O,z,557,18,1,1578.7000000029802,300912.1000000015,7098,NNB,B,17
0,test,5,1.0,1-Back,,,Fri Apr 04 2025 13:17:57 GMT-0500 (Central Daylight Time),302490.80000000447,176_o_m_n_a.png,O,space,1503,1,1,1578.7000000029802,300912.1000000015,7098,NNB,B,0
1,test,5,1.0,1-Back,1,z,Fri Apr 04 2025 13:17:57 GMT-0500 (Central Daylight Time),307689.1000000015,176_o_m_n_a.png,O,z,642,2,1,1661.7999999970198,306027.30000000447,7098,NNB,B,1
2,test,5,0.0,1-Back,1,m,Fri Apr 04 2025 13:17:57 GMT-0500 (Central Daylight Time),309272.0,152_y_f_n_a.png,O,m,560,3,1,1578.7999999970198,307693.200000003,7098,NNB,B,2
3,test,5,0.0,1-Back,1,m,Fri Apr 04 2025 13:17:57 GMT-0500 (Central Daylight Time),311021.200000003,153_y_m_n_a.png,O,m,701,4,1,1746.0,309275.200000003,7098,NNB,B,3
4,test,5,0.0,1-Back,1,m,Fri Apr 04 2025 13:17:57 GMT-0500 (Central Daylight Time),312604.30000000447,152_y_f_n_a.png,O,m,556,5,1,1578.8999999985099,311025.40000000596,7098,NNB,B,4
5,test,5,0.0,1-Back,1,m,Fri Apr 04 2025 13:17:57 GMT-0500 (Central Daylight Time),314287.1000000015,126_m_m_n_a.png,O,m,653,6,1,1678.6999999955297,312608.40000000596,7098,NNB,B,5
6,test,5,1.0,1-Back,1,z,Fri Apr 04 2025 13:17:57 GMT-0500 (Central Daylight Time),315903.30000000447,126_m_m_n_a.png,O,z,594,7,1,1613.1000000014901,314290.200000003,7098,NNB,B,6
7,test,5,0.0,1-Back,1,m,Fri Apr 04 2025 13:17:57 GMT-0500 (Central Daylight Time),317536.1000000015,173_y_f_n_a.png,O,m,602,8,1,1628.6000000014901,315907.5,7098,NNB,B,7
8,test,5,0.0,1-Back,1,m,Fri Apr 04 2025 13:17:57 GMT-0500 (Central Daylight Time),319618.6000000015,013_y_m_n_a.png,O,m,1057,9,1,2079.1999999955297,317539.40000000596,7098,NNB,B,8
9,test,5,0.0,1-Back,1,m,Fri Apr 04 2025 13:17:57 GMT-0500 (Central Daylight Time),322051.1000000015,173_y_f_n_a.png,O,m,1414,10,1,2428.2999999970198,319622.80000000447,7098,NNB,B,9
10,test,5,0.0,1-Back,1,m,Fri Apr 04 2025 13:17:57 GMT-0500 (Central Daylight Time),323934.1000000015,086_o_f_n_a.png,O,m,854,11,1,1879.7999999970198,322054.30000000447,7098,NNB,B,10
11,test,5,1.0,1-Back,1,z,Fri Apr 04 2025 13:17:57 GMT-0500 (Central Daylight Time),325566.80000000447,086_o_f_n_a.png,O,z,611,12,1,1629.6000000014901,323937.200000003,7098,NNB,B,11
12,test,5,0.0,1-Back,1,m,Fri Apr 04 2025 13:17:57 GMT-0500 (Central Daylight Time),327416.200000003,065_o_m_n_a.png,O,m,826,13,1,1845.2999999970198,325570.90000000596,7098,NNB,B,12
13,test,5,0.0,1-Back,1,m,Fri Apr 04 2025 13:17:57 GMT-0500 (Central Daylight Time),329115.700000003,097_m_f_n_a.png,O,m,673,14,1,1694.8999999985099,327420.80000000447,7098,NNB,B,13
14,test,5,1.0,1-Back,1,z,Fri Apr 04 2025 13:17:57 GMT-0500 (Central Daylight Time),330648.5,097_m_f_n_a.png,O,z,502,15,1,1528.6999999955297,329119.80000000447,7098,NNB,B,14
15,test,5,0.0,1-Back,1,m,Fri Apr 04 2025 13:17:57 GMT-0500 (Central Daylight Time),332314.40000000596,065_o_m_n_a.png,O,m,649,16,1,1661.9000000059605,330652.5,7098,NNB,B,15
16,test,5,0.0,1-Back,1,m,Fri Apr 04 2025 13:17:57 GMT-0500 (Central Daylight Time),333892.90000000596,029_m_f_n_a.png,O,m,545,17,1,1575.2000000029802,332317.700000003,7098,NNB,B,16
17,test,5,0.0,1-Back,1,m,Fri Apr 04 2025 13:17:57 GMT-0500 (Central Daylight Time),335413.700000003,178_m_m_n_a.png,O,m,504,18,1,1517.0,333896.700000003,7098,NNB,B,17
0,prac,1,0.0,2-Back,,,Fri Apr 04 2025 13:17:57 GMT-0500 (Central Daylight Time),335413.700000003,013_y_m_n_a.png,O,space,5253,1,1,1517.0,333896.700000003,7098,NNB,B,0
0,prac,1,0.0,2-Back,,,Fri Apr 04 2025 13:17:57 GMT-0500 (Central Daylight Time),335413.700000003,029_m_f_n_a.png,O,space,5253,2,1,1517.0,333896.700000003,7098,NNB,B,0
1,prac,1,1.0,2-Back,1,m,Fri Apr 04 2025 13:17:57 GMT-0500 (Central Daylight Time),466756.1000000015,065_o_m_n_a.png,O,m,887,3,1,1760.0,464996.1000000015,7098,NNB,B,1
2,prac,1,0.0,2-Back,1,m,Fri Apr 04 2025 13:17:57 GMT-0500 (Central Daylight Time),468772.0,086_o_f_n_a.png,O,m,1127,4,1,2009.0999999940395,466762.90000000596,7098,NNB,B,2
3,prac,1,0.0,2-Back,1,z,Fri Apr 04 2025 13:17:57 GMT-0500 (Central Daylight Time),470638.1000000015,065_o_m_n_a.png,O,z,1080,5,1,1860.1000000014901,468778.0,7098,NNB,B,3
4,prac,1,1.0,2-Back,1,z,Fri Apr 04 2025 13:17:57 GMT-0500 (Central Daylight Time),472670.700000003,086_o_f_n_a.png,O,z,1253,6,1,2026.1000000014901,470644.6000000015,7098,NNB,B,4
5,prac,1,0.0,2-Back,1,m,Fri Apr 04 2025 13:17:57 GMT-0500 (Central Daylight Time),475146.90000000596,178_m_m_n_a.png,O,m,1606,7,1,2471.10000000149,472675.80000000447,7098,NNB,B,5
6,prac,1,0.0,2-Back,1,m,Fri Apr 04 2025 13:17:57 GMT-0500 (Central Daylight Time),478035.80000000447,176_o_m_n_a.png,O,m,1975,8,1,2882.5,475153.30000000447,7098,NNB,B,6
7,prac,1,0.0,2-Back,1,m,Fri Apr 04 2025 13:17:57 GMT-0500 (Central Daylight Time),480568.200000003,173_y_f_n_a.png,O,m,1663,9,1,2525.7000000029802,478042.5,7098,NNB,B,7
8,prac,1,1.0,2-Back,1,z,Fri Apr 04 2025 13:17:57 GMT-0500 (Central Daylight Time),483017.5,176_o_m_n_a.png,O,z,1667,10,1,2442.89999999851,480574.6000000015,7098,NNB,B,8
9,prac,1,0.0,2-Back,1,m,Fri Apr 04 2025 13:17:57 GMT-0500 (Central Daylight Time),485100.200000003,152_y_f_n_a.png,O,m,1211,11,1,2077.89999999851,483022.30000000447,7098,NNB,B,9
10,prac,1,0.0,2-Back,1,m,Fri Apr 04 2025 13:17:57 GMT-0500 (Central Daylight Time),486999.6000000015,178_m_m_n_a.png,O,m,1119,12,1,1892.8999999985099,485106.700000003,7098,NNB,B,10
0,test,1,0.0,2-Back,,,Fri Apr 04 2025 13:17:57 GMT-0500 (Central Daylight Time),486999.6000000015,153_y_m_n_a.png,O,space,4653,1,1,1892.8999999985099,485106.700000003,7098,NNB,B,0
0,test,1,0.0,2-Back,,,Fri Apr 04 2025 13:17:57 GMT-0500 (Central Daylight Time),486999.6000000015,153_y_m_n_a.png,O,space,4653,2,1,1892.8999999985099,485106.700000003,7098,NNB,B,0
1,test,1,0.0,2-Back,1,m,Fri Apr 04 2025 13:17:57 GMT-0500 (Central Daylight Time),506476.80000000447,086_o_f_n_a.png,O,m,655,3,1,1678.7000000029802,504798.1000000015,7098,NNB,B,1
2,test,1,0.0,2-Back,1,m,Fri Apr 04 2025 13:17:57 GMT-0500 (Central Daylight Time),508376.0,126_m_m_n_a.png,O,m,877,4,1,1896.1999999955297,506479.80000000447,7098,NNB,B,2
3,test,1,1.0,2-Back,1,z,Fri Apr 04 2025 13:17:57 GMT-0500 (Central Daylight Time),510058.6000000015,086_o_f_n_a.png,O,z,665,5,1,1679.5,508379.1000000015,7098,NNB,B,3
4,test,1,0.0,2-Back,1,m,Fri Apr 04 2025 13:17:57 GMT-0500 (Central Daylight Time),512124.700000003,152_y_f_n_a.png,O,m,1038,6,1,2062.5,510062.200000003,7098,NNB,B,4
4,test,1,0.0,2-Back,0,m,Fri Apr 04 2025 13:17:57 GMT-0500 (Central Daylight Time),514141.1000000015,126_m_m_n_a.png,O,z,996,7,1,2013.1999999955297,512127.90000000596,7098,NNB,B,5
5,test,1,1.0,2-Back,1,z,Fri Apr 04 2025 13:17:57 GMT-0500 (Central Daylight Time),515956.90000000596,152_y_f_n_a.png,O,z,788,8,1,1811.5,514145.40000000596,7098,NNB,B,6
6,test,1,0.0,2-Back,1,m,Fri Apr 04 2025 13:17:57 GMT-0500 (Central Daylight Time),517706.40000000596,013_y_m_n_a.png,O,m,724,9,1,1745.3000000044703,515961.1000000015,7098,NNB,B,7
7,test,1,0.0,2-Back,1,m,Fri Apr 04 2025 13:17:57 GMT-0500 (Central Daylight Time),520005.90000000596,110_o_f_n_a.png,O,m,1279,10,1,2296.4000000059605,517709.5,7098,NNB,B,8
8,test,1,1.0,2-Back,1,z,Fri Apr 04 2025 13:17:57 GMT-0500 (Central Daylight Time),521605.200000003,013_y_m_n_a.png,O,z,571,11,1,1595.6000000014901,520009.6000000015,7098,NNB,B,9
9,test,1,0.0,2-Back,1,m,Fri Apr 04 2025 13:17:57 GMT-0500 (Central Daylight Time),523354.700000003,029_m_f_n_a.png,O,m,732,12,1,1745.6000000014901,521609.1000000015,7098,NNB,B,10
9,test,1,0.0,2-Back,0,m,Fri Apr 04 2025 13:17:57 GMT-0500 (Central Daylight Time),525437.1000000015,029_m_f_n_a.png,O,z,1063,13,1,2079.1999999955297,523357.90000000596,7098,NNB,B,11
9,test,1,0.0,2-Back,0,m,Fri Apr 04 2025 13:17:57 GMT-0500 (Central Daylight Time),528470.1000000015,065_o_m_n_a.png,O,None,2016,14,1,3029.1999999955297,525440.900000006,7098,NNB,B,12
10,test,1,0.0,2-Back,1,m,Fri Apr 04 2025 13:17:57 GMT-0500 (Central Daylight Time),530352.400000006,110_o_f_n_a.png,O,m,859,15,1,1878.7000000029802,528473.700000003,7098,NNB,B,13
11,test,1,1.0,2-Back,1,z,Fri Apr 04 2025 13:17:57 GMT-0500 (Central Daylight Time),532068.6000000015,065_o_m_n_a.png,O,z,697,16,1,1712.8999999985099,530355.700000003,7098,NNB,B,14
12,test,1,0.0,2-Back,1,m,Fri Apr 04 2025 13:17:57 GMT-0500 (Central Daylight Time),533868.1000000015,097_m_f_n_a.png,O,m,780,17,1,1795.3999999985099,532072.700000003,7098,NNB,B,15
13,test,1,0.0,2-Back,1,m,Fri Apr 04 2025 13:17:57 GMT-0500 (Central Daylight Time),535784.200000003,178_m_m_n_a.png,O,m,893,18,1,1913.0,533871.200000003,7098,NNB,B,16
0,test,2,0.0,2-Back,,,Fri Apr 04 2025 13:17:57 GMT-0500 (Central Daylight Time),535784.200000003,178_m_m_n_a.png,O,space,3369,1,1,1913.0,533871.200000003,7098,NNB,B,0
0,test,2,0.0,2-Back,,,Fri Apr 04 2025 13:17:57 GMT-0500 (Central Daylight Time),535784.200000003,173_y_f_n_a.png,O,space,3369,2,1,1913.0,533871.200000003,7098,NNB,B,0
1,test,2,1.0,2-Back,1,z,Fri Apr 04 2025 13:17:57 GMT-0500 (Central Daylight Time),546214.0,178_m_m_n_a.png,O,z,887,3,1,1912.7999999970198,544301.200000003,7098,NNB,B,1
2,test,2,0.0,2-Back,1,m,Fri Apr 04 2025 13:17:57 GMT-0500 (Central Daylight Time),547813.900000006,097_m_f_n_a.png,O,m,579,4,1,1596.2000000029802,546217.700000003,7098,NNB,B,2
3,test,2,0.0,2-Back,1,m,Fri Apr 04 2025 13:17:57 GMT-0500 (Central Daylight Time),550279.8000000045,173_y_f_n_a.png,O,m,1435,5,1,2461.7000000029802,547818.1000000015,7098,NNB,B,3
4,test,2,0.0,2-Back,1,m,Fri Apr 04 2025 13:17:57 GMT-0500 (Central Daylight Time),552429.0,065_o_m_n_a.png,O,m,1129,6,1,2146.2999999970198,550282.700000003,7098,NNB,B,4
5,test,2,0.0,2-Back,1,m,Fri Apr 04 2025 13:17:57 GMT-0500 (Central Daylight Time),554594.8000000045,152_y_f_n_a.png,O,m,1148,7,1,2162.7000000029802,552432.1000000015,7098,NNB,B,5
6,test,2,1.0,2-Back,1,z,Fri Apr 04 2025 13:17:57 GMT-0500 (Central Daylight Time),556244.400000006,065_o_m_n_a.png,O,z,630,8,1,1646.3000000044703,554598.1000000015,7098,NNB,B,6
7,test,2,0.0,2-Back,1,m,Fri Apr 04 2025 13:17:57 GMT-0500 (Central Daylight Time),558177.200000003,013_y_m_n_a.png,O,m,901,9,1,1928.6000000014901,556248.6000000015,7098,NNB,B,7
8,test,2,0.0,2-Back,1,m,Fri Apr 04 2025 13:17:57 GMT-0500 (Central Daylight Time),560276.200000003,013_y_m_n_a.png,O,m,1072,10,1,2096.0,558180.200000003,7098,NNB,B,8
9,test,2,0.0,2-Back,1,m,Fri Apr 04 2025 13:17:57 GMT-0500 (Central Daylight Time),563275.5,029_m_f_n_a.png,O,m,1973,11,1,2995.39999999851,560280.1000000015,7098,NNB,B,9
9,test,2,0.0,2-Back,0,m,Fri Apr 04 2025 13:17:57 GMT-0500 (Central Daylight Time),565174.900000006,173_y_f_n_a.png,O,z,878,12,1,1896.2000000029802,563278.700000003,7098,NNB,B,10
10,test,2,1.0,2-Back,1,z,Fri Apr 04 2025 13:17:57 GMT-0500 (Central Daylight Time),566924.400000006,029_m_f_n_a.png,O,z,730,13,1,1746.2000000029802,565178.200000003,7098,NNB,B,11
11,test,2,0.0,2-Back,1,m,Fri Apr 04 2025 13:17:57 GMT-0500 (Central Daylight Time),569406.8000000045,176_o_m_n_a.png,O,m,1453,14,1,2478.39999999851,566928.400000006,7098,NNB,B,12
12,test,2,0.0,2-Back,1,m,Fri Apr 04 2025 13:17:57 GMT-0500 (Central Daylight Time),571573.0,176_o_m_n_a.png,O,m,1145,15,1,2162.7999999970198,569410.200000003,7098,NNB,B,13
13,test,2,0.0,2-Back,1,m,Fri Apr 04 2025 13:17:57 GMT-0500 (Central Daylight Time),573838.8000000045,110_o_f_n_a.png,O,m,1244,16,1,2262.0,571576.8000000045,7098,NNB,B,14
14,test,2,0.0,2-Back,1,m,Fri Apr 04 2025 13:17:57 GMT-0500 (Central Daylight Time),576438.200000003,126_m_m_n_a.png,O,m,1578,17,1,2596.10000000149,573842.1000000015,7098,NNB,B,15
14,test,2,1.0,2-Back,0,z,Fri Apr 04 2025 13:17:57 GMT-0500 (Central Daylight Time),579470.6000000015,110_o_f_n_a.png,O,None,2015,18,1,3028.2999999970198,576442.3000000045,7098,NNB,B,16
0,test,3,1.0,2-Back,,,Fri Apr 04 2025 13:17:57 GMT-0500 (Central Daylight Time),579470.6000000015,153_y_m_n_a.png,O,space,4323,1,1,3028.2999999970198,576442.3000000045,7098,NNB,B,0
0,test,3,1.0,2-Back,,,Fri Apr 04 2025 13:17:57 GMT-0500 (Central Daylight Time),579470.6000000015,153_y_m_n_a.png,O,space,4323,2,1,3028.2999999970198,576442.3000000045,7098,NNB,B,0
1,test,3,0.0,2-Back,1,m,Fri Apr 04 2025 13:17:57 GMT-0500 (Central Daylight Time),591067.0,110_o_f_n_a.png,O,m,1107,3,1,2128.6999999955297,588938.3000000045,7098,NNB,B,1
2,test,3,0.0,2-Back,1,m,Fri Apr 04 2025 13:17:57 GMT-0500 (Central Daylight Time),593032.900000006,178_m_m_n_a.png,O,m,934,4,1,1962.2000000029802,591070.700000003,7098,NNB,B,2
3,test,3,1.0,2-Back,1,z,Fri Apr 04 2025 13:17:57 GMT-0500 (Central Daylight Time),594715.700000003,110_o_f_n_a.png,O,z,656,5,1,1679.2000000029802,593036.5,7098,NNB,B,3
4,test,3,0.0,2-Back,1,m,Fri Apr 04 2025 13:17:57 GMT-0500 (Central Daylight Time),596631.900000006,013_y_m_n_a.png,O,m,893,6,1,1913.0,594718.900000006,7098,NNB,B,4
4,test,3,0.0,2-Back,0,m,Fri Apr 04 2025 13:17:57 GMT-0500 (Central Daylight Time),599664.1000000015,178_m_m_n_a.png,O,None,2015,7,1,3028.89999999851,596635.200000003,7098,NNB,B,5
5,test,3,1.0,2-Back,1,z,Fri Apr 04 2025 13:17:57 GMT-0500 (Central Daylight Time),601297.1000000015,013_y_m_n_a.png,O,z,609,8,1,1629.5,599667.6000000015,7098,NNB,B,6
6,test,3,0.0,2-Back,1,m,Fri Apr 04 2025 13:17:57 GMT-0500 (Central Daylight Time),603146.200000003,173_y_f_n_a.png,O,m,824,9,1,1845.2999999970198,601300.900000006,7098,NNB,B,7
7,test,3,0.0,2-Back,1,m,Fri Apr 04 2025 13:17:57 GMT-0500 (Central Daylight Time),605063.700000003,126_m_m_n_a.png,O,m,895,10,1,1913.7999999970198,603149.900000006,7098,NNB,B,8
8,test,3,1.0,2-Back,1,z,Fri Apr 04 2025 13:17:57 GMT-0500 (Central Daylight Time),607078.6000000015,173_y_f_n_a.png,O,z,995,11,1,2010.6000000014901,605068.0,7098,NNB,B,9
9,test,3,1.0,2-Back,1,z,Fri Apr 04 2025 13:17:57 GMT-0500 (Central Daylight Time),608678.0,126_m_m_n_a.png,O,z,578,12,1,1595.5999999940395,607082.400000006,7098,NNB,B,10
10,test,3,0.0,2-Back,1,m,Fri Apr 04 2025 13:17:57 GMT-0500 (Central Daylight Time),610344.3000000045,110_o_f_n_a.png,O,m,635,13,1,1663.0,608681.3000000045,7098,NNB,B,11
11,test,3,0.0,2-Back,1,m,Fri Apr 04 2025 13:17:57 GMT-0500 (Central Daylight Time),612393.5,097_m_f_n_a.png,O,m,1016,14,1,2045.5,610348.0,7098,NNB,B,12
12,test,3,0.0,2-Back,1,m,Fri Apr 04 2025 13:17:57 GMT-0500 (Central Daylight Time),614926.1000000015,065_o_m_n_a.png,O,m,1504,15,1,2529.5,612396.6000000015,7098,NNB,B,13
13,test,3,1.0,2-Back,1,z,Fri Apr 04 2025 13:17:57 GMT-0500 (Central Daylight Time),617225.3000000045,097_m_f_n_a.png,O,z,1267,16,1,2295.8000000044703,614929.5,7098,NNB,B,14
14,test,3,0.0,2-Back,1,m,Fri Apr 04 2025 13:17:57 GMT-0500 (Central Daylight Time),619174.900000006,086_o_f_n_a.png,O,m,928,17,1,1945.8000000044703,617229.1000000015,7098,NNB,B,15
14,test,3,0.0,2-Back,0,m,Fri Apr 04 2025 13:17:57 GMT-0500 (Central Daylight Time),621874.0,086_o_f_n_a.png,O,z,1674,18,1,2696.0999999940395,619177.900000006,7098,NNB,B,16
0,test,4,0.0,2-Back,,,Fri Apr 04 2025 13:17:57 GMT-0500 (Central Daylight Time),621874.0,176_o_m_n_a.png,O,space,2167,1,1,2696.0999999940395,619177.900000006,7098,NNB,B,0
0,test,4,0.0,2-Back,,,Fri Apr 04 2025 13:17:57 GMT-0500 (Central Daylight Time),621874.0,152_y_f_n_a.png,O,space,2167,2,1,2696.0999999940395,619177.900000006,7098,NNB,B,0
1,test,4,1.0,2-Back,1,z,Fri Apr 04 2025 13:17:57 GMT-0500 (Central Daylight Time),631154.3000000045,176_o_m_n_a.png,O,z,841,3,1,1862.1000000014901,629292.200000003,7098,NNB,B,1
1,test,4,1.0,2-Back,0,z,Fri Apr 04 2025 13:17:57 GMT-0500 (Central Daylight Time),632903.900000006,152_y_f_n_a.png,O,m,727,4,1,1745.3000000044703,631158.6000000015,7098,NNB,B,2
2,test,4,0.0,2-Back,1,m,Fri Apr 04 2025 13:17:57 GMT-0500 (Central Daylight Time),634653.1000000015,110_o_f_n_a.png,O,m,729,5,1,1746.0,632907.1000000015,7098,NNB,B,3
3,test,4,0.0,2-Back,1,m,Fri Apr 04 2025 13:17:57 GMT-0500 (Central Daylight Time),636752.6000000015,110_o_f_n_a.png,O,m,1076,6,1,2095.1999999955297,634657.400000006,7098,NNB,B,4
4,test,4,0.0,2-Back,1,m,Fri Apr 04 2025 13:17:57 GMT-0500 (Central Daylight Time),638619.700000003,029_m_f_n_a.png,O,m,849,7,1,1864.0,636755.700000003,7098,NNB,B,5
5,test,4,0.0,2-Back,1,m,Fri Apr 04 2025 13:17:57 GMT-0500 (Central Daylight Time),640701.200000003,013_y_m_n_a.png,O,m,1063,8,1,2077.7999999970198,638623.400000006,7098,NNB,B,6
6,test,4,1.0,2-Back,1,z,Fri Apr 04 2025 13:17:57 GMT-0500 (Central Daylight Time),642167.400000006,029_m_f_n_a.png,O,z,444,9,1,1462.1000000014901,640705.3000000045,7098,NNB,B,7
7,test,4,0.0,2-Back,1,m,Fri Apr 04 2025 13:17:57 GMT-0500 (Central Daylight Time),643816.900000006,126_m_m_n_a.png,O,m,618,10,1,1646.3000000044703,642170.6000000015,7098,NNB,B,8
8,test,4,0.0,2-Back,1,m,Fri Apr 04 2025 13:17:57 GMT-0500 (Central Daylight Time),645899.6000000015,013_y_m_n_a.png,O,m,1063,11,1,2079.5,643820.1000000015,7098,NNB,B,9
9,test,4,0.0,2-Back,1,m,Fri Apr 04 2025 13:17:57 GMT-0500 (Central Daylight Time),647716.0,086_o_f_n_a.png,O,m,790,12,1,1812.7999999970198,645903.200000003,7098,NNB,B,10
10,test,4,0.0,2-Back,1,m,Fri Apr 04 2025 13:17:57 GMT-0500 (Central Daylight Time),649798.400000006,153_y_m_n_a.png,O,m,1053,13,1,2078.4000000059605,647720.0,7098,NNB,B,11
10,test,4,1.0,2-Back,0,z,Fri Apr 04 2025 13:17:57 GMT-0500 (Central Daylight Time),652831.0,086_o_f_n_a.png,O,None,2016,14,1,3028.6999999955297,649802.3000000045,7098,NNB,B,12
11,test,4,1.0,2-Back,1,z,Fri Apr 04 2025 13:17:57 GMT-0500 (Central Daylight Time),654380.400000006,153_y_m_n_a.png,O,z,522,15,1,1546.1000000014901,652834.3000000045,7098,NNB,B,13
12,test,4,0.0,2-Back,1,m,Fri Apr 04 2025 13:17:57 GMT-0500 (Central Daylight Time),656129.900000006,178_m_m_n_a.png,O,m,725,16,1,1746.4000000059605,654383.5,7098,NNB,B,14
13,test,4,0.0,2-Back,1,m,Fri Apr 04 2025 13:17:57 GMT-0500 (Central Daylight Time),657829.3000000045,097_m_f_n_a.png,O,m,671,17,1,1695.3000000044703,656134.0,7098,NNB,B,15
14,test,4,1.0,2-Back,1,z,Fri Apr 04 2025 13:17:57 GMT-0500 (Central Daylight Time),659512.1000000015,178_m_m_n_a.png,O,z,660,18,1,1678.8999999985099,657833.200000003,7098,NNB,B,16
0,test,5,1.0,2-Back,,,Fri Apr 04 2025 13:17:57 GMT-0500 (Central Daylight Time),659512.1000000015,153_y_m_n_a.png,O,space,1817,1,1,1678.8999999985099,657833.200000003,7098,NNB,B,0
0,test,5,1.0,2-Back,,,Fri Apr 04 2025 13:17:57 GMT-0500 (Central Daylight Time),659512.1000000015,097_m_f_n_a.png,O,space,1817,2,1,1678.8999999985099,657833.200000003,7098,NNB,B,0
1,test,5,1.0,2-Back,1,z,Fri Apr 04 2025 13:17:57 GMT-0500 (Central Daylight Time),668209.5,153_y_m_n_a.png,O,z,775,3,1,1796.5,666413.0,7098,NNB,B,1
2,test,5,1.0,2-Back,1,z,Fri Apr 04 2025 13:17:57 GMT-0500 (Central Daylight Time),669858.900000006,097_m_f_n_a.png,O,z,624,4,1,1646.1000000014901,668212.8000000045,7098,NNB,B,2
3,test,5,0.0,2-Back,1,m,Fri Apr 04 2025 13:17:57 GMT-0500 (Central Daylight Time),671724.900000006,086_o_f_n_a.png,O,m,838,5,1,1862.9000000059605,669862.0,7098,NNB,B,3
4,test,5,0.0,2-Back,1,m,Fri Apr 04 2025 13:17:57 GMT-0500 (Central Daylight Time),673607.8000000045,153_y_m_n_a.png,O,m,860,6,1,1879.1000000014901,671728.700000003,7098,NNB,B,4
5,test,5,0.0,2-Back,1,m,Fri Apr 04 2025 13:17:57 GMT-0500 (Central Daylight Time),676173.5,173_y_f_n_a.png,O,m,1546,7,1,2562.5999999940395,673610.900000006,7098,NNB,B,5
6,test,5,0.0,2-Back,1,m,Fri Apr 04 2025 13:17:57 GMT-0500 (Central Daylight Time),678272.8000000045,086_o_f_n_a.png,O,m,1076,8,1,2095.8000000044703,676177.0,7098,NNB,B,6
7,test,5,1.0,2-Back,1,z,Fri Apr 04 2025 13:17:57 GMT-0500 (Central Daylight Time),679822.5,173_y_f_n_a.png,O,z,521,9,1,1546.0,678276.5,7098,NNB,B,7
8,test,5,0.0,2-Back,1,m,Fri Apr 04 2025 13:17:57 GMT-0500 (Central Daylight Time),682038.200000003,065_o_m_n_a.png,O,m,1195,10,1,2212.7000000029802,679825.5,7098,NNB,B,8
9,test,5,0.0,2-Back,1,m,Fri Apr 04 2025 13:17:57 GMT-0500 (Central Daylight Time),683887.900000006,029_m_f_n_a.png,O,m,819,11,1,1846.6000000014901,682041.3000000045,7098,NNB,B,9
10,test,5,0.0,2-Back,1,m,Fri Apr 04 2025 13:17:57 GMT-0500 (Central Daylight Time),685670.700000003,126_m_m_n_a.png,O,m,762,12,1,1779.0,683891.700000003,7098,NNB,B,10
10,test,5,0.0,2-Back,0,m,Fri Apr 04 2025 13:17:57 GMT-0500 (Central Daylight Time),687620.1000000015,065_o_m_n_a.png,O,z,923,13,1,1945.2999999970198,685674.8000000045,7098,NNB,B,11
10,test,5,1.0,2-Back,0,z,Fri Apr 04 2025 13:17:57 GMT-0500 (Central Daylight Time),689752.900000006,126_m_m_n_a.png,O,m,1109,14,1,2129.3000000044703,687623.6000000015,7098,NNB,B,12
11,test,5,0.0,2-Back,1,m,Fri Apr 04 2025 13:17:57 GMT-0500 (Central Daylight Time),691768.700000003,152_y_f_n_a.png,O,m,984,15,1,2012.2999999970198,689756.400000006,7098,NNB,B,13
12,test,5,0.0,2-Back,1,m,Fri Apr 04 2025 13:17:57 GMT-0500 (Central Daylight Time),694051.0,176_o_m_n_a.png,O,m,1265,16,1,2278.5,691772.5,7098,NNB,B,14
13,test,5,0.0,2-Back,1,m,Fri Apr 04 2025 13:17:57 GMT-0500 (Central Daylight Time),695950.700000003,029_m_f_n_a.png,O,m,870,17,1,1896.7999999970198,694053.900000006,7098,NNB,B,15
14,test,5,1.0,2-Back,1,z,Fri Apr 04 2025 13:17:57 GMT-0500 (Central Daylight Time),697566.900000006,176_o_m_n_a.png,O,z,595,18,1,1612.9000000059605,695954.0,7098,NNB,B,16
