acc_sum,block,block_c,change,condition,correct,correct_response,datetime,endtime,face,project,response,response_time,row_sel,session_number,start_end,starttime,subject_id,task,task_vers,trial
0,prac,1,,1-Back,,,Fri May 02 2025 13:51:30 GMT-0500 (Central Daylight Time),,012_o_f_d_a.png,I,space,5095,1,2,,,8014,VNB,C,0
1,prac,1,0.0,1-Back,1,m,Fri May 02 2025 13:51:30 GMT-0500 (Central Daylight Time),154688.59999999404,022_y_f_n_a.png,I,m,1474,2,2,2371.699999988079,152316.90000000596,8014,VNB,C,1
2,prac,1,0.0,1-Back,1,m,Fri May 02 2025 13:51:30 GMT-0500 (Central Daylight Time),156754.19999998808,014_m_m_h_a.png,I,m,1179,3,2,2042.699999988079,154711.5,8014,VNB,C,2
3,prac,1,0.0,1-Back,1,m,Fri May 02 2025 13:51:30 GMT-0500 (Central Daylight Time),158720.40000000596,025_y_m_d_a.png,I,m,1077,4,2,1943.4000000059605,156777.0,8014,VNB,C,3
4,prac,1,0.0,1-Back,1,m,Fri May 02 2025 13:51:30 GMT-0500 (Central Daylight Time),161402.90000000596,012_o_f_n_a.png,I,m,1771,5,2,2659.4000000059605,158743.5,8014,VNB,C,4
5,prac,1,1.0,1-Back,1,z,Fri May 02 2025 13:51:30 GMT-0500 (Central Daylight Time),163535.5,025_y_m_n_a.png,I,z,1236,6,2,2109.4000000059605,161426.09999999404,8014,VNB,C,5
6,prac,1,0.0,1-Back,1,m,Fri May 02 2025 13:51:30 GMT-0500 (Central Daylight Time),165601.5,015_o_m_h_a.png,I,m,1153,7,2,2040.800000011921,163560.69999998808,8014,VNB,C,6
7,prac,1,0.0,1-Back,1,m,Fri May 02 2025 13:51:30 GMT-0500 (Central Daylight Time),167884.30000001192,019_m_f_d_a.png,I,m,1370,8,2,2259.600000023842,165624.69999998808,8014,VNB,C,7
8,prac,1,1.0,1-Back,1,z,Fri May 02 2025 13:51:30 GMT-0500 (Central Daylight Time),169983.59999999404,022_y_f_d_a.png,I,z,1185,9,2,2075.699999988079,167907.90000000596,8014,VNB,C,8
9,prac,1,0.0,1-Back,1,m,Fri May 02 2025 13:51:30 GMT-0500 (Central Daylight Time),172849.30000001192,014_m_m_n_a.png,I,m,1972,10,2,2842.2000000178814,170007.09999999404,8014,VNB,C,9
10,prac,1,0.0,1-Back,1,m,Fri May 02 2025 13:51:30 GMT-0500 (Central Daylight Time),174832.0,012_o_f_h_a.png,I,m,1074,11,2,1960.5,172871.5,8014,VNB,C,10
11,prac,1,0.0,1-Back,1,m,Fri May 02 2025 13:51:30 GMT-0500 (Central Daylight Time),176897.69999998808,025_y_m_d_a.png,I,m,1182,12,2,2042.5999999940395,174855.09999999404,8014,VNB,C,11
0,test,1,0.0,1-Back,,,Fri May 02 2025 13:51:30 GMT-0500 (Central Daylight Time),176897.69999998808,022_y_f_d_a.png,I,space,5414,1,2,2042.5999999940395,174855.09999999404,8014,VNB,C,0
1,test,1,0.0,1-Back,1,m,Fri May 02 2025 13:51:30 GMT-0500 (Central Daylight Time),194259.0,019_m_f_n_a.png,I,m,1198,2,2,2209.300000011921,192049.69999998808,8014,VNB,C,1
2,test,1,0.0,1-Back,1,m,Fri May 02 2025 13:51:30 GMT-0500 (Central Daylight Time),196275.30000001192,015_o_m_h_a.png,I,m,974,3,2,1990.1000000238419,194285.19999998808,8014,VNB,C,2
3,test,1,1.0,1-Back,1,z,Fri May 02 2025 13:51:30 GMT-0500 (Central Daylight Time),198274.40000000596,014_m_m_h_a.png,I,z,949,4,2,1978.0,196296.40000000596,8014,VNB,C,3
4,test,1,0.0,1-Back,1,m,Fri May 02 2025 13:51:30 GMT-0500 (Central Daylight Time),200307.30000001192,012_o_f_n_a.png,I,m,927,5,2,2010.9000000059605,198296.40000000596,8014,VNB,C,4
5,test,1,0.0,1-Back,1,m,Fri May 02 2025 13:51:30 GMT-0500 (Central Daylight Time),202306.59999999404,025_y_m_d_a.png,I,m,965,6,2,1978.0999999940395,200328.5,8014,VNB,C,5
6,test,1,1.0,1-Back,1,z,Fri May 02 2025 13:51:30 GMT-0500 (Central Daylight Time),204222.90000000596,019_m_f_d_a.png,I,z,878,7,2,1891.4000000059605,202331.5,8014,VNB,C,6
7,test,1,0.0,1-Back,1,m,Fri May 02 2025 13:51:30 GMT-0500 (Central Daylight Time),206288.69999998808,022_y_f_h_a.png,I,m,1018,8,2,2044.3999999761581,204244.30000001192,8014,VNB,C,7
8,test,1,0.0,1-Back,1,m,Fri May 02 2025 13:51:30 GMT-0500 (Central Daylight Time),208088.19999998808,015_o_m_n_a.png,I,m,751,9,2,1775.7999999821186,206312.40000000596,8014,VNB,C,8
9,test,1,0.0,1-Back,1,m,Fri May 02 2025 13:51:30 GMT-0500 (Central Daylight Time),210020.90000000596,025_y_m_h_a.png,I,m,896,10,2,1910.800000011921,208110.09999999404,8014,VNB,C,9
10,test,1,0.0,1-Back,1,m,Fri May 02 2025 13:51:30 GMT-0500 (Central Daylight Time),211903.59999999404,015_o_m_d_a.png,I,m,843,11,2,1858.4000000059605,210045.19999998808,8014,VNB,C,10
11,test,1,1.0,1-Back,1,z,Fri May 02 2025 13:51:30 GMT-0500 (Central Daylight Time),213903.19999998808,012_o_f_d_a.png,I,z,953,12,2,1977.8999999761581,211925.30000001192,8014,VNB,C,11
12,test,1,0.0,1-Back,1,m,Fri May 02 2025 13:51:30 GMT-0500 (Central Daylight Time),216119.0,014_m_m_n_a.png,I,m,1178,13,2,2193.199999988079,213925.80000001192,8014,VNB,C,12
13,test,1,1.0,1-Back,1,z,Fri May 02 2025 13:51:30 GMT-0500 (Central Daylight Time),218301.80000001192,022_y_f_n_a.png,I,z,1146,14,2,2161.4000000059605,216140.40000000596,8014,VNB,C,13
14,test,1,0.0,1-Back,1,m,Fri May 02 2025 13:51:30 GMT-0500 (Central Daylight Time),220300.80000001192,019_m_f_h_a.png,I,m,963,15,2,1976.9000000059605,218323.90000000596,8014,VNB,C,14
15,test,1,0.0,1-Back,1,m,Fri May 02 2025 13:51:30 GMT-0500 (Central Daylight Time),223097.19999998808,014_m_m_d_a.png,I,m,1617,16,2,2774.0999999940395,220323.09999999404,8014,VNB,C,15
16,test,1,0.0,1-Back,1,m,Fri May 02 2025 13:51:30 GMT-0500 (Central Daylight Time),225632.69999998808,025_y_m_n_a.png,I,m,1484,17,2,2507.899999976158,223124.80000001192,8014,VNB,C,16
17,test,1,0.0,1-Back,1,m,Fri May 02 2025 13:51:30 GMT-0500 (Central Daylight Time),227848.59999999404,012_o_f_h_a.png,I,m,1176,18,2,2193.4000000059605,225655.19999998808,8014,VNB,C,17
0,test,2,0.0,1-Back,,,Fri May 02 2025 13:51:30 GMT-0500 (Central Daylight Time),227848.59999999404,025_y_m_n_a.png,I,space,1289,1,2,2193.4000000059605,225655.19999998808,8014,VNB,C,0
1,test,2,0.0,1-Back,1,m,Fri May 02 2025 13:51:30 GMT-0500 (Central Daylight Time),233696.40000000596,022_y_f_h_a.png,I,m,1492,2,2,2510.300000011921,231186.09999999404,8014,VNB,C,1
2,test,2,1.0,1-Back,1,m,Fri May 02 2025 13:51:30 GMT-0500 (Central Daylight Time),235746.5,015_o_m_n_a.png,I,m,1000,3,2,2025.699999988079,233720.80000001192,8014,VNB,C,2
3,test,2,0.0,1-Back,1,m,Fri May 02 2025 13:51:30 GMT-0500 (Central Daylight Time),237662.19999998808,019_m_f_d_a.png,I,m,878,4,2,1893.8999999761581,235768.30000001192,8014,VNB,C,3
4,test,2,0.0,1-Back,1,z,Fri May 02 2025 13:51:30 GMT-0500 (Central Daylight Time),239594.69999998808,014_m_m_d_a.png,I,z,898,5,2,1910.199999988079,237684.5,8014,VNB,C,4
5,test,2,0.0,1-Back,1,m,Fri May 02 2025 13:51:30 GMT-0500 (Central Daylight Time),241612.0,025_y_m_h_a.png,I,m,982,6,2,1994.9000000059605,239617.09999999404,8014,VNB,C,5
6,test,2,1.0,1-Back,1,z,Fri May 02 2025 13:51:30 GMT-0500 (Central Daylight Time),243510.40000000596,012_o_f_h_a.png,I,z,862,7,2,1876.4000000059605,241634.0,8014,VNB,C,6
7,test,2,0.0,1-Back,1,m,Fri May 02 2025 13:51:30 GMT-0500 (Central Daylight Time),245393.30000001192,019_m_f_n_a.png,I,m,834,8,2,1863.4000000059605,243529.90000000596,8014,VNB,C,7
8,test,2,0.0,1-Back,1,m,Fri May 02 2025 13:51:30 GMT-0500 (Central Daylight Time),247642.40000000596,022_y_f_d_a.png,I,m,1110,9,2,2224.2000000178814,245418.19999998808,8014,VNB,C,8
9,test,2,0.0,1-Back,1,m,Fri May 02 2025 13:51:30 GMT-0500 (Central Daylight Time),249808.30000001192,014_m_m_n_a.png,I,m,1118,10,2,2142.9000000059605,247665.40000000596,8014,VNB,C,9
10,test,2,1.0,1-Back,1,m,Fri May 02 2025 13:51:30 GMT-0500 (Central Daylight Time),251858.09999999404,019_m_f_h_a.png,I,m,1008,11,2,2028.199999988079,249829.90000000596,8014,VNB,C,10
11,test,2,0.0,1-Back,1,z,Fri May 02 2025 13:51:30 GMT-0500 (Central Daylight Time),253757.09999999404,015_o_m_h_a.png,I,z,855,12,2,1877.5,251879.59999999404,8014,VNB,C,11
12,test,2,0.0,1-Back,1,m,Fri May 02 2025 13:51:30 GMT-0500 (Central Daylight Time),255556.5,025_y_m_d_a.png,I,m,755,13,2,1777.699999988079,253778.80000001192,8014,VNB,C,12
13,test,2,0.0,1-Back,1,m,Fri May 02 2025 13:51:30 GMT-0500 (Central Daylight Time),258189.0,012_o_f_n_a.png,I,m,1587,14,2,2611.0,255578.0,8014,VNB,C,13
14,test,2,0.0,1-Back,1,z,Fri May 02 2025 13:51:30 GMT-0500 (Central Daylight Time),260155.19999998808,022_y_f_n_a.png,I,z,924,15,2,1938.699999988079,258216.5,8014,VNB,C,14
15,test,2,1.0,1-Back,1,m,Fri May 02 2025 13:51:30 GMT-0500 (Central Daylight Time),262171.3000000119,014_m_m_h_a.png,I,m,973,16,2,1994.5,260176.80000001192,8014,VNB,C,15
16,test,2,0.0,1-Back,1,m,Fri May 02 2025 13:51:30 GMT-0500 (Central Daylight Time),264137.1999999881,012_o_f_d_a.png,I,m,917,17,2,1944.199999988079,262193.0,8014,VNB,C,16
17,test,2,1.0,1-Back,1,z,Fri May 02 2025 13:51:30 GMT-0500 (Central Daylight Time),266436.5,015_o_m_d_a.png,I,z,1255,18,2,2277.699999988079,264158.8000000119,8014,VNB,C,17
0,test,3,1.0,1-Back,,,Fri May 02 2025 13:51:30 GMT-0500 (Central Daylight Time),266436.5,012_o_f_h_a.png,I,space,1213,1,2,2277.699999988079,264158.8000000119,8014,VNB,C,0
1,test,3,0.0,1-Back,1,m,Fri May 02 2025 13:51:30 GMT-0500 (Central Daylight Time),271768.1999999881,019_m_f_d_a.png,I,m,935,2,2,1961.3999999761581,269806.8000000119,8014,VNB,C,1
2,test,3,1.0,1-Back,1,m,Fri May 02 2025 13:51:30 GMT-0500 (Central Daylight Time),273901.0,014_m_m_n_a.png,I,m,1088,3,2,2110.5999999940395,271790.40000000596,8014,VNB,C,2
3,test,3,0.0,1-Back,1,z,Fri May 02 2025 13:51:30 GMT-0500 (Central Daylight Time),275900.1999999881,012_o_f_n_a.png,I,z,964,4,2,1976.699999988079,273923.5,8014,VNB,C,3
4,test,3,1.0,1-Back,1,m,Fri May 02 2025 13:51:30 GMT-0500 (Central Daylight Time),277833.3000000119,015_o_m_d_a.png,I,m,884,5,2,1911.2000000178814,275922.09999999404,8014,VNB,C,4
5,test,3,0.0,1-Back,1,m,Fri May 02 2025 13:51:30 GMT-0500 (Central Daylight Time),279865.6999999881,022_y_f_h_a.png,I,m,992,6,2,2008.3999999761581,277857.3000000119,8014,VNB,C,5
6,test,3,0.0,1-Back,1,z,Fri May 02 2025 13:51:30 GMT-0500 (Central Daylight Time),281714.90000000596,025_y_m_h_a.png,I,z,816,7,2,1827.800000011921,279887.09999999404,8014,VNB,C,6
7,test,3,0.0,1-Back,1,m,Fri May 02 2025 13:51:30 GMT-0500 (Central Daylight Time),283547.8000000119,019_m_f_n_a.png,I,m,797,8,2,1810.6000000238419,281737.1999999881,8014,VNB,C,7
8,test,3,0.0,1-Back,1,m,Fri May 02 2025 13:51:30 GMT-0500 (Central Daylight Time),285580.5,022_y_f_d_a.png,I,m,989,9,2,2010.5,283570.0,8014,VNB,C,8
9,test,3,1.0,1-Back,1,m,Fri May 02 2025 13:51:30 GMT-0500 (Central Daylight Time),287396.59999999404,015_o_m_n_a.png,I,m,780,10,2,1794.199999988079,285602.40000000596,8014,VNB,C,9
10,test,3,0.0,1-Back,1,m,Fri May 02 2025 13:51:30 GMT-0500 (Central Daylight Time),289296.09999999404,014_m_m_h_a.png,I,m,852,11,2,1877.2999999821186,287418.8000000119,8014,VNB,C,10
11,test,3,0.0,1-Back,1,z,Fri May 02 2025 13:51:30 GMT-0500 (Central Daylight Time),291028.90000000596,019_m_f_h_a.png,I,z,697,12,2,1710.0999999940395,289318.8000000119,8014,VNB,C,11
12,test,3,1.0,1-Back,1,m,Fri May 02 2025 13:51:30 GMT-0500 (Central Daylight Time),292911.59999999404,012_o_f_d_a.png,I,m,843,13,2,1859.699999988079,291051.90000000596,8014,VNB,C,12
13,test,3,0.0,1-Back,1,z,Fri May 02 2025 13:51:30 GMT-0500 (Central Daylight Time),294894.3000000119,014_m_m_d_a.png,I,z,937,14,2,1961.6000000238419,292932.6999999881,8014,VNB,C,13
14,test,3,0.0,1-Back,1,m,Fri May 02 2025 13:51:30 GMT-0500 (Central Daylight Time),296860.6999999881,025_y_m_n_a.png,I,m,922,15,2,1944.2999999821186,294916.40000000596,8014,VNB,C,14
15,test,3,1.0,1-Back,1,m,Fri May 02 2025 13:51:30 GMT-0500 (Central Daylight Time),299193.90000000596,015_o_m_h_a.png,I,m,1284,16,2,2311.9000000059605,296882.0,8014,VNB,C,15
16,test,3,0.0,1-Back,1,m,Fri May 02 2025 13:51:30 GMT-0500 (Central Daylight Time),300992.40000000596,025_y_m_d_a.png,I,m,760,17,2,1776.2000000178814,299216.1999999881,8014,VNB,C,16
17,test,3,1.0,1-Back,1,m,Fri May 02 2025 13:51:30 GMT-0500 (Central Daylight Time),302891.8000000119,022_y_f_n_a.png,I,m,856,18,2,1878.300000011921,301013.5,8014,VNB,C,17
0,test,4,1.0,1-Back,,,Fri May 02 2025 13:51:30 GMT-0500 (Central Daylight Time),302891.8000000119,014_m_m_d_a.png,I,space,1061,1,2,1878.300000011921,301013.5,8014,VNB,C,0
1,test,4,0.0,1-Back,1,z,Fri May 02 2025 13:51:30 GMT-0500 (Central Daylight Time),308040.09999999404,015_o_m_d_a.png,I,z,1026,2,2,2045.5999999940395,305994.5,8014,VNB,C,1
2,test,4,0.0,1-Back,1,m,Fri May 02 2025 13:51:30 GMT-0500 (Central Daylight Time),309939.59999999404,025_y_m_h_a.png,I,m,864,3,2,1878.0999999940395,308061.5,8014,VNB,C,2
3,test,4,0.0,1-Back,1,m,Fri May 02 2025 13:51:30 GMT-0500 (Central Daylight Time),311872.3000000119,019_m_f_n_a.png,I,m,893,4,2,1910.1000000238419,309962.1999999881,8014,VNB,C,3
4,test,4,1.0,1-Back,1,m,Fri May 02 2025 13:51:30 GMT-0500 (Central Daylight Time),314171.6999999881,012_o_f_h_a.png,I,m,1256,5,2,2277.399999976158,311894.3000000119,8014,VNB,C,4
5,test,4,0.0,1-Back,1,m,Fri May 02 2025 13:51:30 GMT-0500 (Central Daylight Time),315954.90000000596,014_m_m_n_a.png,I,m,749,6,2,1761.5999999940395,314193.3000000119,8014,VNB,C,5
5,test,4,0.0,1-Back,0,m,Fri May 02 2025 13:51:30 GMT-0500 (Central Daylight Time),318353.6999999881,025_y_m_d_a.png,I,z,1350,7,2,2376.899999976158,315976.8000000119,8014,VNB,C,6
5,test,4,1.0,1-Back,0,z,Fri May 02 2025 13:51:30 GMT-0500 (Central Daylight Time),321319.3000000119,022_y_f_d_a.png,I,m,1927,8,2,2942.0,318377.3000000119,8014,VNB,C,7
6,test,4,0.0,1-Back,1,m,Fri May 02 2025 13:51:30 GMT-0500 (Central Daylight Time),323535.5,019_m_f_h_a.png,I,m,1169,9,2,2194.4000000059605,321341.09999999404,8014,VNB,C,8
7,test,4,0.0,1-Back,1,z,Fri May 02 2025 13:51:30 GMT-0500 (Central Daylight Time),325434.90000000596,015_o_m_h_a.png,I,z,857,10,2,1874.4000000059605,323560.5,8014,VNB,C,9
8,test,4,1.0,1-Back,1,m,Fri May 02 2025 13:51:30 GMT-0500 (Central Daylight Time),327567.59999999404,012_o_f_n_a.png,I,m,1094,11,2,2110.4000000059605,325457.1999999881,8014,VNB,C,10
9,test,4,0.0,1-Back,1,m,Fri May 02 2025 13:51:30 GMT-0500 (Central Daylight Time),329417.09999999404,019_m_f_d_a.png,I,m,809,12,2,1825.5,327591.59999999404,8014,VNB,C,11
9,test,4,0.0,1-Back,0,m,Fri May 02 2025 13:51:30 GMT-0500 (Central Daylight Time),331449.5,022_y_f_n_a.png,I,z,992,13,2,2010.0999999940395,329439.40000000596,8014,VNB,C,12
10,test,4,0.0,1-Back,1,m,Fri May 02 2025 13:51:30 GMT-0500 (Central Daylight Time),333515.5,012_o_f_d_a.png,I,m,1023,14,2,2043.0,331472.5,8014,VNB,C,13
11,test,4,0.0,1-Back,1,m,Fri May 02 2025 13:51:30 GMT-0500 (Central Daylight Time),335531.6999999881,022_y_f_h_a.png,I,m,981,15,2,1994.7999999821186,333536.90000000596,8014,VNB,C,14
12,test,4,1.0,1-Back,1,z,Fri May 02 2025 13:51:30 GMT-0500 (Central Daylight Time),337364.5,014_m_m_h_a.png,I,z,789,16,2,1811.0999999940395,335553.40000000596,8014,VNB,C,15
13,test,4,0.0,1-Back,1,m,Fri May 02 2025 13:51:30 GMT-0500 (Central Daylight Time),339247.09999999404,015_o_m_n_a.png,I,m,844,17,2,1861.0999999940395,337386.0,8014,VNB,C,16
14,test,4,1.0,1-Back,1,z,Fri May 02 2025 13:51:30 GMT-0500 (Central Daylight Time),341246.40000000596,025_y_m_n_a.png,I,z,954,18,2,1977.2000000178814,339269.1999999881,8014,VNB,C,17
0,test,5,1.0,1-Back,,,Fri May 02 2025 13:51:30 GMT-0500 (Central Daylight Time),341246.40000000596,015_o_m_n_a.png,I,space,947,1,2,1977.2000000178814,339269.1999999881,8014,VNB,C,0
1,test,5,1.0,1-Back,1,m,Fri May 02 2025 13:51:30 GMT-0500 (Central Daylight Time),346211.5,012_o_f_h_a.png,I,m,956,2,2,1978.800000011921,344232.6999999881,8014,VNB,C,1
2,test,5,0.0,1-Back,1,m,Fri May 02 2025 13:51:30 GMT-0500 (Central Daylight Time),348161.09999999404,025_y_m_d_a.png,I,m,901,3,2,1927.5999999940395,346233.5,8014,VNB,C,2
3,test,5,0.0,1-Back,1,z,Fri May 02 2025 13:51:30 GMT-0500 (Central Daylight Time),350177.0,015_o_m_d_a.png,I,z,968,4,2,1993.5,348183.5,8014,VNB,C,3
4,test,5,0.0,1-Back,1,m,Fri May 02 2025 13:51:30 GMT-0500 (Central Daylight Time),352126.6999999881,019_m_f_h_a.png,I,m,903,5,2,1927.2999999821186,350199.40000000596,8014,VNB,C,4
5,test,5,0.0,1-Back,1,m,Fri May 02 2025 13:51:30 GMT-0500 (Central Daylight Time),354059.0,022_y_f_n_a.png,I,m,898,6,2,1909.300000011921,352149.6999999881,8014,VNB,C,5
6,test,5,1.0,1-Back,1,z,Fri May 02 2025 13:51:30 GMT-0500 (Central Daylight Time),356142.0,012_o_f_n_a.png,I,z,1037,7,2,2056.800000011921,354085.1999999881,8014,VNB,C,6
7,test,5,0.0,1-Back,1,m,Fri May 02 2025 13:51:30 GMT-0500 (Central Daylight Time),358274.5,019_m_f_d_a.png,I,m,1083,8,2,2110.9000000059605,356163.59999999404,8014,VNB,C,7
8,test,5,0.0,1-Back,1,m,Fri May 02 2025 13:51:30 GMT-0500 (Central Daylight Time),360407.3000000119,025_y_m_h_a.png,I,m,1094,9,2,2109.600000023842,358297.6999999881,8014,VNB,C,8
9,test,5,0.0,1-Back,1,m,Fri May 02 2025 13:51:30 GMT-0500 (Central Daylight Time),362323.5,022_y_f_d_a.png,I,m,873,10,2,1892.0999999940395,360431.40000000596,8014,VNB,C,9
10,test,5,0.0,1-Back,1,m,Fri May 02 2025 13:51:30 GMT-0500 (Central Daylight Time),364576.5,014_m_m_n_a.png,I,m,1214,11,2,2230.9000000059605,362345.59999999404,8014,VNB,C,10
11,test,5,1.0,1-Back,1,z,Fri May 02 2025 13:51:30 GMT-0500 (Central Daylight Time),366888.5,019_m_f_n_a.png,I,z,1276,12,2,2289.5999999940395,364598.90000000596,8014,VNB,C,11
12,test,5,0.0,1-Back,1,m,Fri May 02 2025 13:51:30 GMT-0500 (Central Daylight Time),368787.90000000596,015_o_m_h_a.png,I,m,864,13,2,1878.2000000178814,366909.6999999881,8014,VNB,C,12
13,test,5,0.0,1-Back,1,z,Fri May 02 2025 13:51:30 GMT-0500 (Central Daylight Time),370653.90000000596,014_m_m_h_a.png,I,z,829,14,2,1841.5,368812.40000000596,8014,VNB,C,13
14,test,5,1.0,1-Back,1,m,Fri May 02 2025 13:51:30 GMT-0500 (Central Daylight Time),372503.1999999881,012_o_f_d_a.png,I,m,802,15,2,1826.8999999761581,370676.3000000119,8014,VNB,C,14
15,test,5,0.0,1-Back,1,m,Fri May 02 2025 13:51:30 GMT-0500 (Central Daylight Time),374702.6999999881,025_y_m_n_a.png,I,m,1153,16,2,2178.199999988079,372524.5,8014,VNB,C,15
16,test,5,0.0,1-Back,1,m,Fri May 02 2025 13:51:30 GMT-0500 (Central Daylight Time),377068.40000000596,022_y_f_h_a.png,I,m,1322,17,2,2343.800000011921,374724.59999999404,8014,VNB,C,16
17,test,5,0.0,1-Back,1,m,Fri May 02 2025 13:51:30 GMT-0500 (Central Daylight Time),378968.1999999881,014_m_m_d_a.png,I,m,860,18,2,1878.2999999821186,377089.90000000596,8014,VNB,C,17
0,prac,1,0.0,2-Back,,,Fri May 02 2025 13:51:30 GMT-0500 (Central Daylight Time),378968.1999999881,019_m_f_n_a.png,I,space,4616,1,2,1878.2999999821186,377089.90000000596,8014,VNB,C,0
0,prac,1,0.0,2-Back,,,Fri May 02 2025 13:51:30 GMT-0500 (Central Daylight Time),378968.1999999881,012_o_f_h_a.png,I,space,4616,2,2,1878.2999999821186,377089.90000000596,8014,VNB,C,0
0,prac,1,0.0,2-Back,0,m,Fri May 02 2025 13:51:30 GMT-0500 (Central Daylight Time),457726.6999999881,015_o_m_d_a.png,I,None,2008,3,2,2893.5999999940395,454833.09999999404,8014,VNB,C,1
0,prac,1,1.0,2-Back,0,z,Fri May 02 2025 13:51:30 GMT-0500 (Central Daylight Time),460625.90000000596,014_m_m_h_a.png,I,None,2012,4,2,2875.800000011921,457750.09999999404,8014,VNB,C,2
1,prac,1,0.0,2-Back,1,m,Fri May 02 2025 13:51:30 GMT-0500 (Central Daylight Time),462491.90000000596,022_y_f_n_a.png,I,m,954,5,2,1840.4000000059605,460651.5,8014,VNB,C,3
2,prac,1,1.0,2-Back,1,z,Fri May 02 2025 13:51:30 GMT-0500 (Central Daylight Time),464274.6999999881,015_o_m_h_a.png,I,z,872,6,2,1759.3999999761581,462515.3000000119,8014,VNB,C,4
2,prac,1,1.0,2-Back,0,z,Fri May 02 2025 13:51:30 GMT-0500 (Central Daylight Time),466124.09999999404,025_y_m_n_a.png,I,m,957,7,2,1826.199999988079,464297.90000000596,8014,VNB,C,5
2,prac,1,0.0,2-Back,0,m,Fri May 02 2025 13:51:30 GMT-0500 (Central Daylight Time),469039.6999999881,019_m_f_d_a.png,I,None,2008,8,2,2892.899999976158,466146.8000000119,8014,VNB,C,6
3,prac,1,0.0,2-Back,1,m,Fri May 02 2025 13:51:30 GMT-0500 (Central Daylight Time),471106.0,012_o_f_d_a.png,I,m,1163,9,2,2042.800000011921,469063.1999999881,8014,VNB,C,7
3,prac,1,0.0,2-Back,0,m,Fri May 02 2025 13:51:30 GMT-0500 (Central Daylight Time),472722.09999999404,014_m_m_h_a.png,I,z,825,10,2,1593.0,471129.09999999404,8014,VNB,C,8
3,prac,1,1.0,2-Back,0,z,Fri May 02 2025 13:51:30 GMT-0500 (Central Daylight Time),474638.09999999404,022_y_f_d_a.png,I,m,1004,11,2,1893.0999999940395,472745.0,8014,VNB,C,9
4,prac,1,0.0,2-Back,1,m,Fri May 02 2025 13:51:30 GMT-0500 (Central Daylight Time),476954.1999999881,015_o_m_n_a.png,I,m,1396,12,2,2292.2999999821186,474661.90000000596,8014,VNB,C,10
0,test,1,0.0,2-Back,,,Fri May 02 2025 13:51:30 GMT-0500 (Central Daylight Time),476954.1999999881,025_y_m_h_a.png,I,space,5899,1,2,2292.2999999821186,474661.90000000596,8014,VNB,C,0
0,test,1,0.0,2-Back,,,Fri May 02 2025 13:51:30 GMT-0500 (Central Daylight Time),476954.1999999881,012_o_f_n_a.png,I,space,5899,2,2,2292.2999999821186,474661.90000000596,8014,VNB,C,0
1,test,1,0.0,2-Back,1,z,Fri May 02 2025 13:51:30 GMT-0500 (Central Daylight Time),503062.40000000596,015_o_m_h_a.png,I,z,895,3,2,1910.300000011921,501152.09999999404,8014,VNB,C,1
2,test,1,0.0,2-Back,1,m,Fri May 02 2025 13:51:30 GMT-0500 (Central Daylight Time),505045.3000000119,019_m_f_d_a.png,I,m,938,4,2,1960.800000011921,503084.5,8014,VNB,C,2
3,test,1,1.0,2-Back,1,m,Fri May 02 2025 13:51:30 GMT-0500 (Central Daylight Time),506961.1999999881,025_y_m_n_a.png,I,m,867,5,2,1893.3999999761581,505067.8000000119,8014,VNB,C,3
3,test,1,0.0,2-Back,0,z,Fri May 02 2025 13:51:30 GMT-0500 (Central Daylight Time),509194.0,022_y_f_d_a.png,I,m,1183,6,2,2210.9000000059605,506983.09999999404,8014,VNB,C,4
3,test,1,0.0,2-Back,0,m,Fri May 02 2025 13:51:30 GMT-0500 (Central Daylight Time),510976.59999999404,014_m_m_h_a.png,I,z,743,7,2,1761.0,509215.59999999404,8014,VNB,C,5
4,test,1,1.0,2-Back,1,m,Fri May 02 2025 13:51:30 GMT-0500 (Central Daylight Time),513059.09999999404,022_y_f_n_a.png,I,m,1048,8,2,2063.0,510996.09999999404,8014,VNB,C,6
5,test,1,0.0,2-Back,1,z,Fri May 02 2025 13:51:30 GMT-0500 (Central Daylight Time),515475.1999999881,012_o_f_h_a.png,I,z,1373,9,2,2394.399999976158,513080.8000000119,8014,VNB,C,7
6,test,1,0.0,2-Back,1,m,Fri May 02 2025 13:51:30 GMT-0500 (Central Daylight Time),517974.40000000596,015_o_m_d_a.png,I,m,1454,10,2,2477.0999999940395,515497.3000000119,8014,VNB,C,8
7,test,1,1.0,2-Back,1,m,Fri May 02 2025 13:51:30 GMT-0500 (Central Daylight Time),520090.5,014_m_m_d_a.png,I,m,1082,11,2,2094.4000000059605,517996.09999999404,8014,VNB,C,9
7,test,1,0.0,2-Back,0,m,Fri May 02 2025 13:51:30 GMT-0500 (Central Daylight Time),522839.6999999881,019_m_f_n_a.png,I,z,1702,12,2,2727.2999999821186,520112.40000000596,8014,VNB,C,10
7,test,1,0.0,2-Back,0,m,Fri May 02 2025 13:51:30 GMT-0500 (Central Daylight Time),525022.3000000119,022_y_f_h_a.png,I,z,1145,13,2,2160.600000023842,522861.6999999881,8014,VNB,C,11
8,test,1,0.0,2-Back,1,z,Fri May 02 2025 13:51:30 GMT-0500 (Central Daylight Time),527454.8000000119,014_m_m_n_a.png,I,z,1394,14,2,2410.600000023842,525044.1999999881,8014,VNB,C,12
9,test,1,0.0,2-Back,1,m,Fri May 02 2025 13:51:30 GMT-0500 (Central Daylight Time),530037.3000000119,025_y_m_d_a.png,I,m,1538,15,2,2561.2000000178814,527476.099999994,8014,VNB,C,13
9,test,1,1.0,2-Back,0,m,Fri May 02 2025 13:51:30 GMT-0500 (Central Daylight Time),533086.5,019_m_f_h_a.png,I,None,2015,16,2,3026.699999988079,530059.8000000119,8014,VNB,C,14
9,test,1,0.0,2-Back,0,z,Fri May 02 2025 13:51:30 GMT-0500 (Central Daylight Time),535285.6999999881,012_o_f_d_a.png,I,m,1154,17,2,2176.899999976158,533108.8000000119,8014,VNB,C,15
9,test,1,0.0,2-Back,0,m,Fri May 02 2025 13:51:30 GMT-0500 (Central Daylight Time),538334.6999999881,015_o_m_n_a.png,I,None,2016,18,2,3026.5999999940395,535308.099999994,8014,VNB,C,16
0,test,2,0.0,2-Back,,,Fri May 02 2025 13:51:30 GMT-0500 (Central Daylight Time),538334.6999999881,014_m_m_h_a.png,I,space,1779,1,2,3026.5999999940395,535308.099999994,8014,VNB,C,0
0,test,2,0.0,2-Back,,,Fri May 02 2025 13:51:30 GMT-0500 (Central Daylight Time),538334.6999999881,022_y_f_n_a.png,I,space,1779,2,2,3026.5999999940395,535308.099999994,8014,VNB,C,0
1,test,2,1.0,2-Back,1,z,Fri May 02 2025 13:51:30 GMT-0500 (Central Daylight Time),547431.6999999881,012_o_f_h_a.png,I,z,1002,3,2,2026.699999988079,545405.0,8014,VNB,C,1
2,test,2,0.0,2-Back,1,m,Fri May 02 2025 13:51:30 GMT-0500 (Central Daylight Time),549664.5,015_o_m_d_a.png,I,m,1193,4,2,2208.9000000059605,547455.599999994,8014,VNB,C,2
3,test,2,0.0,2-Back,1,m,Fri May 02 2025 13:51:30 GMT-0500 (Central Daylight Time),551764.099999994,019_m_f_d_a.png,I,m,1056,5,2,2077.0,549687.099999994,8014,VNB,C,3
3,test,2,0.0,2-Back,0,m,Fri May 02 2025 13:51:30 GMT-0500 (Central Daylight Time),553663.099999994,025_y_m_h_a.png,I,z,850,6,2,1877.0,551786.099999994,8014,VNB,C,4
4,test,2,0.0,2-Back,1,m,Fri May 02 2025 13:51:30 GMT-0500 (Central Daylight Time),555829.3000000119,012_o_f_n_a.png,I,m,1121,7,2,2144.600000023842,553684.6999999881,8014,VNB,C,5
5,test,2,1.0,2-Back,1,z,Fri May 02 2025 13:51:30 GMT-0500 (Central Daylight Time),557662.1999999881,015_o_m_h_a.png,I,z,787,8,2,1807.5999999940395,555854.599999994,8014,VNB,C,6
6,test,2,0.0,2-Back,1,m,Fri May 02 2025 13:51:30 GMT-0500 (Central Daylight Time),559544.8000000119,022_y_f_d_a.png,I,m,833,9,2,1860.800000011921,557684.0,8014,VNB,C,7
6,test,2,0.0,2-Back,0,m,Fri May 02 2025 13:51:30 GMT-0500 (Central Daylight Time),561977.1999999881,025_y_m_d_a.png,I,z,1392,10,2,2409.899999976158,559567.3000000119,8014,VNB,C,8
7,test,2,0.0,2-Back,1,m,Fri May 02 2025 13:51:30 GMT-0500 (Central Daylight Time),564209.6999999881,014_m_m_n_a.png,I,m,1191,11,2,2210.5,561999.1999999881,8014,VNB,C,9
7,test,2,0.0,2-Back,0,m,Fri May 02 2025 13:51:30 GMT-0500 (Central Daylight Time),566642.5,019_m_f_h_a.png,I,z,1390,12,2,2409.5,564233.0,8014,VNB,C,10
8,test,2,1.0,2-Back,1,z,Fri May 02 2025 13:51:30 GMT-0500 (Central Daylight Time),568925.1999999881,015_o_m_n_a.png,I,z,1246,13,2,2261.0999999940395,566664.099999994,8014,VNB,C,11
9,test,2,0.0,2-Back,1,m,Fri May 02 2025 13:51:30 GMT-0500 (Central Daylight Time),570808.0,012_o_f_d_a.png,I,m,843,14,2,1860.199999988079,568947.8000000119,8014,VNB,C,12
9,test,2,0.0,2-Back,0,m,Fri May 02 2025 13:51:30 GMT-0500 (Central Daylight Time),572724.0,022_y_f_h_a.png,I,z,881,15,2,1894.4000000059605,570829.599999994,8014,VNB,C,13
9,test,2,0.0,2-Back,0,z,Fri May 02 2025 13:51:30 GMT-0500 (Central Daylight Time),574740.3000000119,014_m_m_d_a.png,I,m,972,16,2,1995.0,572745.3000000119,8014,VNB,C,14
10,test,2,0.0,2-Back,1,m,Fri May 02 2025 13:51:30 GMT-0500 (Central Daylight Time),577355.900000006,025_y_m_n_a.png,I,m,1573,17,2,2593.0999999940395,574762.8000000119,8014,VNB,C,15
10,test,2,1.0,2-Back,0,m,Fri May 02 2025 13:51:30 GMT-0500 (Central Daylight Time),579838.3000000119,019_m_f_n_a.png,I,z,1445,18,2,2460.100000023842,577378.1999999881,8014,VNB,C,16
0,test,3,1.0,2-Back,,,Fri May 02 2025 13:51:30 GMT-0500 (Central Daylight Time),579838.3000000119,015_o_m_n_a.png,I,space,1299,1,2,2460.100000023842,577378.1999999881,8014,VNB,C,0
0,test,3,1.0,2-Back,,,Fri May 02 2025 13:51:30 GMT-0500 (Central Daylight Time),579838.3000000119,012_o_f_d_a.png,I,space,1299,2,2,2460.100000023842,577378.1999999881,8014,VNB,C,0
1,test,3,0.0,2-Back,1,m,Fri May 02 2025 13:51:30 GMT-0500 (Central Daylight Time),588385.900000006,022_y_f_h_a.png,I,m,1158,3,2,2178.4000000059605,586207.5,8014,VNB,C,1
2,test,3,0.0,2-Back,1,z,Fri May 02 2025 13:51:30 GMT-0500 (Central Daylight Time),590451.8000000119,019_m_f_d_a.png,I,z,1023,4,2,2041.800000011921,588410.0,8014,VNB,C,2
3,test,3,1.0,2-Back,1,m,Fri May 02 2025 13:51:30 GMT-0500 (Central Daylight Time),592384.599999994,025_y_m_n_a.png,I,m,893,5,2,1909.0,590475.599999994,8014,VNB,C,3
4,test,3,0.0,2-Back,1,m,Fri May 02 2025 13:51:30 GMT-0500 (Central Daylight Time),594650.0,015_o_m_h_a.png,I,m,1232,6,2,2243.5999999940395,592406.400000006,8014,VNB,C,4
5,test,3,0.0,2-Back,1,z,Fri May 02 2025 13:51:30 GMT-0500 (Central Daylight Time),596533.1999999881,022_y_f_n_a.png,I,z,846,7,2,1855.7999999821186,594677.400000006,8014,VNB,C,5
6,test,3,1.0,2-Back,1,m,Fri May 02 2025 13:51:30 GMT-0500 (Central Daylight Time),598515.900000006,014_m_m_d_a.png,I,m,947,8,2,1962.300000011921,596553.599999994,8014,VNB,C,6
6,test,3,0.0,2-Back,0,m,Fri May 02 2025 13:51:30 GMT-0500 (Central Daylight Time),600748.5,025_y_m_d_a.png,I,z,1196,9,2,2209.800000011921,598538.6999999881,8014,VNB,C,7
6,test,3,0.0,2-Back,0,m,Fri May 02 2025 13:51:30 GMT-0500 (Central Daylight Time),602714.6999999881,012_o_f_h_a.png,I,z,916,10,2,1944.0,600770.6999999881,8014,VNB,C,8
7,test,3,1.0,2-Back,1,m,Fri May 02 2025 13:51:30 GMT-0500 (Central Daylight Time),604764.0,019_m_f_n_a.png,I,m,1014,11,2,2026.699999988079,602737.3000000119,8014,VNB,C,9
7,test,3,1.0,2-Back,0,z,Fri May 02 2025 13:51:30 GMT-0500 (Central Daylight Time),607030.0,014_m_m_h_a.png,I,m,1228,12,2,2243.800000011921,604786.1999999881,8014,VNB,C,10
7,test,3,0.0,2-Back,0,m,Fri May 02 2025 13:51:30 GMT-0500 (Central Daylight Time),609445.900000006,022_y_f_d_a.png,I,z,1378,13,2,2393.5999999940395,607052.3000000119,8014,VNB,C,11
7,test,3,0.0,2-Back,0,m,Fri May 02 2025 13:51:30 GMT-0500 (Central Daylight Time),612261.400000006,012_o_f_n_a.png,I,z,1778,14,2,2787.9000000059605,609473.5,8014,VNB,C,12
8,test,3,0.0,2-Back,1,z,Fri May 02 2025 13:51:30 GMT-0500 (Central Daylight Time),614944.1999999881,015_o_m_d_a.png,I,z,1635,15,2,2660.7999999821186,612283.400000006,8014,VNB,C,13
9,test,3,1.0,2-Back,1,m,Fri May 02 2025 13:51:30 GMT-0500 (Central Daylight Time),617543.1999999881,019_m_f_h_a.png,I,m,1560,16,2,2576.199999988079,614967.0,8014,VNB,C,14
9,test,3,0.0,2-Back,0,m,Fri May 02 2025 13:51:30 GMT-0500 (Central Daylight Time),619659.1999999881,014_m_m_n_a.png,I,z,1073,17,2,2093.899999976158,617565.3000000119,8014,VNB,C,15
9,test,3,0.0,2-Back,0,z,Fri May 02 2025 13:51:30 GMT-0500 (Central Daylight Time),622442.8000000119,025_y_m_h_a.png,I,m,1741,18,2,2761.4000000059605,619681.400000006,8014,VNB,C,16
0,test,4,0.0,2-Back,,,Fri May 02 2025 13:51:30 GMT-0500 (Central Daylight Time),622442.8000000119,019_m_f_n_a.png,I,space,1422,1,2,2761.4000000059605,619681.400000006,8014,VNB,C,0
0,test,4,0.0,2-Back,,,Fri May 02 2025 13:51:30 GMT-0500 (Central Daylight Time),622442.8000000119,015_o_m_n_a.png,I,space,1422,2,2,2761.4000000059605,619681.400000006,8014,VNB,C,0
1,test,4,1.0,2-Back,1,m,Fri May 02 2025 13:51:30 GMT-0500 (Central Daylight Time),631055.6999999881,025_y_m_h_a.png,I,m,852,3,2,1873.0999999940395,629182.599999994,8014,VNB,C,1
2,test,4,1.0,2-Back,1,m,Fri May 02 2025 13:51:30 GMT-0500 (Central Daylight Time),633188.3000000119,012_o_f_d_a.png,I,m,1097,4,2,2110.600000023842,631077.6999999881,8014,VNB,C,2
3,test,4,0.0,2-Back,1,z,Fri May 02 2025 13:51:30 GMT-0500 (Central Daylight Time),634921.099999994,015_o_m_h_a.png,I,z,684,5,2,1708.4000000059605,633212.6999999881,8014,VNB,C,3
3,test,4,0.0,2-Back,0,m,Fri May 02 2025 13:51:30 GMT-0500 (Central Daylight Time),637338.1999999881,014_m_m_n_a.png,I,z,1367,6,2,2395.199999988079,634943.0,8014,VNB,C,4
4,test,4,0.0,2-Back,1,m,Fri May 02 2025 13:51:30 GMT-0500 (Central Daylight Time),639369.8000000119,019_m_f_d_a.png,I,m,991,7,2,2007.9000000059605,637361.900000006,8014,VNB,C,5
4,test,4,0.0,2-Back,0,z,Fri May 02 2025 13:51:30 GMT-0500 (Central Daylight Time),641935.6999999881,022_y_f_n_a.png,I,m,1519,8,2,2539.0999999940395,639396.599999994,8014,VNB,C,6
4,test,4,1.0,2-Back,0,m,Fri May 02 2025 13:51:30 GMT-0500 (Central Daylight Time),644034.8000000119,012_o_f_h_a.png,I,z,1065,9,2,2076.600000023842,641958.1999999881,8014,VNB,C,7
5,test,4,0.0,2-Back,1,m,Fri May 02 2025 13:51:30 GMT-0500 (Central Daylight Time),646184.1999999881,014_m_m_h_a.png,I,m,1101,10,2,2127.5,644056.6999999881,8014,VNB,C,8
5,test,4,0.0,2-Back,0,m,Fri May 02 2025 13:51:30 GMT-0500 (Central Daylight Time),648466.900000006,022_y_f_d_a.png,I,z,1253,11,2,2258.0999999940395,646208.8000000119,8014,VNB,C,9
6,test,4,0.0,2-Back,1,m,Fri May 02 2025 13:51:30 GMT-0500 (Central Daylight Time),650549.599999994,025_y_m_n_a.png,I,m,1045,12,2,2057.9000000059605,648491.6999999881,8014,VNB,C,10
6,test,4,0.0,2-Back,0,z,Fri May 02 2025 13:51:30 GMT-0500 (Central Daylight Time),652915.400000006,015_o_m_d_a.png,I,m,1331,13,2,2341.300000011921,650574.099999994,8014,VNB,C,11
6,test,4,1.0,2-Back,0,m,Fri May 02 2025 13:51:30 GMT-0500 (Central Daylight Time),655064.8000000119,019_m_f_h_a.png,I,z,1101,14,2,2128.100000023842,652936.6999999881,8014,VNB,C,12
7,test,4,1.0,2-Back,1,m,Fri May 02 2025 13:51:30 GMT-0500 (Central Daylight Time),657180.8000000119,022_y_f_h_a.png,I,m,1072,15,2,2094.2000000178814,655086.599999994,8014,VNB,C,13
7,test,4,0.0,2-Back,0,m,Fri May 02 2025 13:51:30 GMT-0500 (Central Daylight Time),659380.099999994,012_o_f_n_a.png,I,z,1164,16,2,2176.5999999940395,657203.5,8014,VNB,C,14
8,test,4,0.0,2-Back,1,m,Fri May 02 2025 13:51:30 GMT-0500 (Central Daylight Time),661362.8000000119,025_y_m_d_a.png,I,m,948,17,2,1958.2000000178814,659404.599999994,8014,VNB,C,15
9,test,4,1.0,2-Back,1,m,Fri May 02 2025 13:51:30 GMT-0500 (Central Daylight Time),663445.5,014_m_m_d_a.png,I,m,1046,18,2,2061.0,661384.5,8014,VNB,C,16
0,test,5,1.0,2-Back,,,Fri May 02 2025 13:51:30 GMT-0500 (Central Daylight Time),663445.5,022_y_f_d_a.png,I,space,1364,1,2,2061.0,661384.5,8014,VNB,C,0
0,test,5,1.0,2-Back,,,Fri May 02 2025 13:51:30 GMT-0500 (Central Daylight Time),663445.5,012_o_f_h_a.png,I,space,1364,2,2,2061.0,661384.5,8014,VNB,C,0
0,test,5,1.0,2-Back,0,z,Fri May 02 2025 13:51:30 GMT-0500 (Central Daylight Time),672842.8000000119,015_o_m_d_a.png,I,m,1692,3,2,2706.800000011921,670136.0,8014,VNB,C,1
0,test,5,1.0,2-Back,0,m,Fri May 02 2025 13:51:30 GMT-0500 (Central Daylight Time),675375.1999999881,019_m_f_n_a.png,I,z,1494,4,2,2510.5,672864.6999999881,8014,VNB,C,2
0,test,5,0.0,2-Back,0,m,Fri May 02 2025 13:51:30 GMT-0500 (Central Daylight Time),677441.3000000119,014_m_m_h_a.png,I,z,1025,5,2,2044.1000000238419,675397.1999999881,8014,VNB,C,3
1,test,5,0.0,2-Back,1,z,Fri May 02 2025 13:51:30 GMT-0500 (Central Daylight Time),679523.8000000119,022_y_f_n_a.png,I,z,1047,6,2,2059.9000000059605,677463.900000006,8014,VNB,C,4
1,test,5,0.0,2-Back,0,m,Fri May 02 2025 13:51:30 GMT-0500 (Central Daylight Time),682006.1999999881,012_o_f_d_a.png,I,z,1445,7,2,2460.5999999940395,679545.599999994,8014,VNB,C,5
2,test,5,0.0,2-Back,1,m,Fri May 02 2025 13:51:30 GMT-0500 (Central Daylight Time),684155.8000000119,015_o_m_h_a.png,I,m,1106,8,2,2127.5,682028.3000000119,8014,VNB,C,6
3,test,5,1.0,2-Back,1,z,Fri May 02 2025 13:51:30 GMT-0500 (Central Daylight Time),686154.900000006,019_m_f_d_a.png,I,z,965,9,2,1977.5,684177.400000006,8014,VNB,C,7
4,test,5,0.0,2-Back,1,m,Fri May 02 2025 13:51:30 GMT-0500 (Central Daylight Time),688254.5,025_y_m_n_a.png,I,m,1062,10,2,2077.0999999940395,686177.400000006,8014,VNB,C,8
5,test,5,0.0,2-Back,1,m,Fri May 02 2025 13:51:30 GMT-0500 (Central Daylight Time),690220.400000006,014_m_m_n_a.png,I,m,922,11,2,1945.5999999940395,688274.8000000119,8014,VNB,C,9
5,test,5,0.0,2-Back,0,m,Fri May 02 2025 13:51:30 GMT-0500 (Central Daylight Time),691786.6999999881,022_y_f_h_a.png,I,z,523,12,2,1544.5999999940395,690242.099999994,8014,VNB,C,10
5,test,5,0.0,2-Back,0,m,Fri May 02 2025 13:51:30 GMT-0500 (Central Daylight Time),694353.0,025_y_m_d_a.png,I,z,1526,13,2,2544.4000000059605,691808.599999994,8014,VNB,C,11
5,test,5,1.0,2-Back,0,z,Fri May 02 2025 13:51:30 GMT-0500 (Central Daylight Time),696451.900000006,019_m_f_h_a.png,I,m,1064,14,2,2070.7000000178814,694381.1999999881,8014,VNB,C,12
6,test,5,0.0,2-Back,1,m,Fri May 02 2025 13:51:30 GMT-0500 (Central Daylight Time),698751.3000000119,015_o_m_n_a.png,I,m,1253,15,2,2276.0,696475.3000000119,8014,VNB,C,13
6,test,5,0.0,2-Back,0,m,Fri May 02 2025 13:51:30 GMT-0500 (Central Daylight Time),701350.599999994,014_m_m_d_a.png,I,z,1561,16,2,2577.199999988079,698773.400000006,8014,VNB,C,14
6,test,5,0.0,2-Back,0,z,Fri May 02 2025 13:51:30 GMT-0500 (Central Daylight Time),703749.599999994,012_o_f_n_a.png,I,m,1362,17,2,2372.5999999940395,701377.0,8014,VNB,C,15
6,test,5,1.0,2-Back,0,m,Fri May 02 2025 13:51:30 GMT-0500 (Central Daylight Time),706015.599999994,025_y_m_h_a.png,I,z,1227,18,2,2244.0,703771.599999994,8014,VNB,C,16
