acc_sum,block,block_c,change,condition,correct,correct_response,datetime,endtime,face,project,response,response_time,row_sel,session_number,start_end,starttime,subject_id,task,task_vers,trial
0,prac,1,,1-Back,,,Thu Apr 03 2025 18:58:53 GMT-0500 (Central Daylight Time),,005_o_f_d_a.png,I,space,3772,1,1,,,8037,VNB,B,0
0,prac,1,0.0,1-Back,0,m,Thu Apr 03 2025 18:58:53 GMT-0500 (Central Daylight Time),107575.29999999702,020_y_f_n_a.png,I,z,1252,2,1,2125.0,105450.29999999702,8037,VNB,B,1
1,prac,1,0.0,1-Back,1,m,Thu Apr 03 2025 18:58:53 GMT-0500 (Central Daylight Time),109657.59999999404,007_m_m_h_a.png,I,m,1189,3,1,2076.7000000029802,107580.89999999106,8037,VNB,B,2
2,prac,1,0.0,1-Back,1,m,Thu Apr 03 2025 18:58:53 GMT-0500 (Central Daylight Time),111473.70000000298,016_y_m_d_a.png,I,m,911,4,1,1809.800000011921,109663.89999999106,8037,VNB,B,3
3,prac,1,0.0,1-Back,1,m,Thu Apr 03 2025 18:58:53 GMT-0500 (Central Daylight Time),113289.79999999702,005_o_f_n_a.png,I,m,919,5,1,1809.0,111480.79999999702,8037,VNB,B,4
4,prac,1,1.0,1-Back,1,z,Thu Apr 03 2025 18:58:53 GMT-0500 (Central Daylight Time),115205.79999999702,016_y_m_n_a.png,I,z,1006,6,1,1908.9000000059605,113296.89999999106,8037,VNB,B,5
5,prac,1,0.0,1-Back,1,m,Thu Apr 03 2025 18:58:53 GMT-0500 (Central Daylight Time),116855.5,004_o_m_h_a.png,I,m,784,7,1,1643.7000000029802,115211.79999999702,8037,VNB,B,6
6,prac,1,0.0,1-Back,1,m,Thu Apr 03 2025 18:58:53 GMT-0500 (Central Daylight Time),119138.20000000298,011_m_f_d_a.png,I,m,1384,8,1,2275.1000000089407,116863.09999999404,8037,VNB,B,7
6,prac,1,1.0,1-Back,0,z,Thu Apr 03 2025 18:58:53 GMT-0500 (Central Daylight Time),121004.09999999404,020_y_f_d_a.png,I,m,989,9,1,1859.3999999910593,119144.70000000298,8037,VNB,B,8
7,prac,1,0.0,1-Back,1,m,Thu Apr 03 2025 18:58:53 GMT-0500 (Central Daylight Time),123020.20000000298,007_m_m_n_a.png,I,m,1109,10,1,2008.9000000059605,121011.29999999702,8037,VNB,B,9
7,prac,1,0.0,1-Back,0,m,Thu Apr 03 2025 18:58:53 GMT-0500 (Central Daylight Time),124952.79999999702,005_o_f_h_a.png,I,z,1034,11,1,1925.9000000059605,123026.89999999106,8037,VNB,B,10
8,prac,1,0.0,1-Back,1,m,Thu Apr 03 2025 18:58:53 GMT-0500 (Central Daylight Time),127169.0,016_y_m_d_a.png,I,m,1310,12,1,2208.9000000059605,124960.09999999404,8037,VNB,B,11
0,test,1,0.0,1-Back,,,Thu Apr 03 2025 18:58:53 GMT-0500 (Central Daylight Time),127169.0,020_y_f_d_a.png,I,space,8232,1,1,2208.9000000059605,124960.09999999404,8037,VNB,B,0
1,test,1,0.0,1-Back,1,m,Thu Apr 03 2025 18:58:53 GMT-0500 (Central Daylight Time),146545.89999999106,011_m_f_n_a.png,I,m,1015,2,1,2027.0999999940395,144518.79999999702,8037,VNB,B,1
2,test,1,0.0,1-Back,1,m,Thu Apr 03 2025 18:58:53 GMT-0500 (Central Daylight Time),148662.09999999404,004_o_m_h_a.png,I,m,1094,3,1,2112.2000000029802,146549.89999999106,8037,VNB,B,2
3,test,1,1.0,1-Back,1,z,Thu Apr 03 2025 18:58:53 GMT-0500 (Central Daylight Time),150561.5,007_m_m_h_a.png,I,z,882,4,1,1895.7000000029802,148665.79999999702,8037,VNB,B,3
4,test,1,0.0,1-Back,1,m,Thu Apr 03 2025 18:58:53 GMT-0500 (Central Daylight Time),152677.39999999106,005_o_f_n_a.png,I,m,1095,5,1,2111.699999988079,150565.70000000298,8037,VNB,B,4
5,test,1,0.0,1-Back,1,m,Thu Apr 03 2025 18:58:53 GMT-0500 (Central Daylight Time),154593.39999999106,016_y_m_d_a.png,I,m,891,6,1,1911.5,152681.89999999106,8037,VNB,B,5
6,test,1,1.0,1-Back,1,z,Thu Apr 03 2025 18:58:53 GMT-0500 (Central Daylight Time),156626.0,011_m_f_d_a.png,I,z,1015,7,1,2028.0,154598.0,8037,VNB,B,6
7,test,1,0.0,1-Back,1,m,Thu Apr 03 2025 18:58:53 GMT-0500 (Central Daylight Time),158592.20000000298,020_y_f_h_a.png,I,m,934,8,1,1961.6000000089407,156630.59999999404,8037,VNB,B,7
8,test,1,0.0,1-Back,1,m,Thu Apr 03 2025 18:58:53 GMT-0500 (Central Daylight Time),160458.29999999702,004_o_m_n_a.png,I,m,848,9,1,1862.4000000059605,158595.89999999106,8037,VNB,B,8
9,test,1,0.0,1-Back,1,m,Thu Apr 03 2025 18:58:53 GMT-0500 (Central Daylight Time),162241.39999999106,016_y_m_h_a.png,I,m,766,10,1,1779.199999988079,160462.20000000298,8037,VNB,B,9
10,test,1,0.0,1-Back,1,m,Thu Apr 03 2025 18:58:53 GMT-0500 (Central Daylight Time),163957.20000000298,004_o_m_d_a.png,I,m,695,11,1,1712.0,162245.20000000298,8037,VNB,B,10
11,test,1,1.0,1-Back,1,z,Thu Apr 03 2025 18:58:53 GMT-0500 (Central Daylight Time),165723.39999999106,005_o_f_d_a.png,I,z,739,12,1,1762.0,163961.39999999106,8037,VNB,B,11
12,test,1,0.0,1-Back,1,m,Thu Apr 03 2025 18:58:53 GMT-0500 (Central Daylight Time),167739.5,007_m_m_n_a.png,I,m,997,13,1,2011.7000000029802,165727.79999999702,8037,VNB,B,12
13,test,1,1.0,1-Back,1,z,Thu Apr 03 2025 18:58:53 GMT-0500 (Central Daylight Time),169772.09999999404,020_y_f_n_a.png,I,z,1012,14,1,2028.2000000029802,167743.89999999106,8037,VNB,B,13
14,test,1,0.0,1-Back,1,m,Thu Apr 03 2025 18:58:53 GMT-0500 (Central Daylight Time),171739.20000000298,011_m_f_h_a.png,I,m,948,15,1,1962.7000000029802,169776.5,8037,VNB,B,14
14,test,1,0.0,1-Back,0,m,Thu Apr 03 2025 18:58:53 GMT-0500 (Central Daylight Time),173654.09999999404,007_m_m_d_a.png,I,z,894,16,1,1909.0,171745.09999999404,8037,VNB,B,15
14,test,1,0.0,1-Back,0,m,Thu Apr 03 2025 18:58:53 GMT-0500 (Central Daylight Time),175687.09999999404,016_y_m_n_a.png,I,z,1002,17,1,2028.2999999970198,173658.79999999702,8037,VNB,B,16
14,test,1,0.0,1-Back,0,m,Thu Apr 03 2025 18:58:53 GMT-0500 (Central Daylight Time),177536.39999999106,005_o_f_h_a.png,I,z,816,18,1,1845.199999988079,175691.20000000298,8037,VNB,B,17
0,test,2,0.0,1-Back,,,Thu Apr 03 2025 18:58:53 GMT-0500 (Central Daylight Time),177536.39999999106,016_y_m_n_a.png,I,space,2808,1,1,1845.199999988079,175691.20000000298,8037,VNB,B,0
0,test,2,0.0,1-Back,0,m,Thu Apr 03 2025 18:58:53 GMT-0500 (Central Daylight Time),185400.59999999404,020_y_f_h_a.png,I,None,2015,2,1,3028.2000000029802,182372.39999999106,8037,VNB,B,1
1,test,2,1.0,1-Back,1,m,Thu Apr 03 2025 18:58:53 GMT-0500 (Central Daylight Time),187417.0,004_o_m_n_a.png,I,m,992,3,1,2012.0,185405.0,8037,VNB,B,2
2,test,2,0.0,1-Back,1,m,Thu Apr 03 2025 18:58:53 GMT-0500 (Central Daylight Time),189632.39999999106,011_m_f_d_a.png,I,m,1183,4,1,2211.8999999910593,187420.5,8037,VNB,B,3
3,test,2,0.0,1-Back,1,z,Thu Apr 03 2025 18:58:53 GMT-0500 (Central Daylight Time),191548.5,007_m_m_d_a.png,I,z,888,5,1,1911.7000000029802,189636.79999999702,8037,VNB,B,4
4,test,2,0.0,1-Back,1,m,Thu Apr 03 2025 18:58:53 GMT-0500 (Central Daylight Time),193298.09999999404,016_y_m_h_a.png,I,m,724,6,1,1745.5999999940395,191552.5,8037,VNB,B,5
5,test,2,1.0,1-Back,1,z,Thu Apr 03 2025 18:58:53 GMT-0500 (Central Daylight Time),195314.09999999404,005_o_f_h_a.png,I,z,990,7,1,2011.3999999910593,193302.70000000298,8037,VNB,B,6
6,test,2,0.0,1-Back,1,m,Thu Apr 03 2025 18:58:53 GMT-0500 (Central Daylight Time),197180.20000000298,011_m_f_n_a.png,I,m,838,8,1,1861.5,195318.70000000298,8037,VNB,B,7
7,test,2,0.0,1-Back,1,m,Thu Apr 03 2025 18:58:53 GMT-0500 (Central Daylight Time),199329.39999999106,020_y_f_d_a.png,I,m,1124,9,1,2145.0999999940395,197184.29999999702,8037,VNB,B,8
7,test,2,0.0,1-Back,0,m,Thu Apr 03 2025 18:58:53 GMT-0500 (Central Daylight Time),201312.39999999106,007_m_m_n_a.png,I,z,959,10,1,1978.699999988079,199333.70000000298,8037,VNB,B,9
8,test,2,1.0,1-Back,1,m,Thu Apr 03 2025 18:58:53 GMT-0500 (Central Daylight Time),203078.39999999106,011_m_f_h_a.png,I,m,736,11,1,1762.3999999910593,201316.0,8037,VNB,B,10
9,test,2,0.0,1-Back,1,z,Thu Apr 03 2025 18:58:53 GMT-0500 (Central Daylight Time),204994.29999999702,004_o_m_h_a.png,I,z,890,12,1,1911.7999999970198,203082.5,8037,VNB,B,11
10,test,2,0.0,1-Back,1,m,Thu Apr 03 2025 18:58:53 GMT-0500 (Central Daylight Time),206810.29999999702,016_y_m_d_a.png,I,m,798,13,1,1811.9000000059605,204998.39999999106,8037,VNB,B,12
11,test,2,0.0,1-Back,1,m,Thu Apr 03 2025 18:58:53 GMT-0500 (Central Daylight Time),208676.5,005_o_f_n_a.png,I,m,846,14,1,1862.0,206814.5,8037,VNB,B,13
12,test,2,0.0,1-Back,1,z,Thu Apr 03 2025 18:58:53 GMT-0500 (Central Daylight Time),210409.5,020_y_f_n_a.png,I,z,708,15,1,1728.1000000089407,208681.39999999106,8037,VNB,B,14
13,test,2,1.0,1-Back,1,m,Thu Apr 03 2025 18:58:53 GMT-0500 (Central Daylight Time),212225.59999999404,007_m_m_h_a.png,I,m,755,16,1,1812.7000000029802,210412.89999999106,8037,VNB,B,15
14,test,2,0.0,1-Back,1,m,Thu Apr 03 2025 18:58:53 GMT-0500 (Central Daylight Time),214025.09999999404,005_o_f_d_a.png,I,m,775,17,1,1795.2000000029802,212229.89999999106,8037,VNB,B,16
15,test,2,1.0,1-Back,1,z,Thu Apr 03 2025 18:58:53 GMT-0500 (Central Daylight Time),216290.89999999106,004_o_m_d_a.png,I,z,1246,18,1,2261.5999999940395,214029.29999999702,8037,VNB,B,17
0,test,3,1.0,1-Back,,,Thu Apr 03 2025 18:58:53 GMT-0500 (Central Daylight Time),216290.89999999106,005_o_f_h_a.png,I,space,1693,1,1,2261.5999999940395,214029.29999999702,8037,VNB,B,0
0,test,3,0.0,1-Back,0,m,Thu Apr 03 2025 18:58:53 GMT-0500 (Central Daylight Time),222039.09999999404,011_m_f_d_a.png,I,z,902,2,1,1928.2000000029802,220110.89999999106,8037,VNB,B,1
1,test,3,1.0,1-Back,1,m,Thu Apr 03 2025 18:58:53 GMT-0500 (Central Daylight Time),223688.59999999404,007_m_m_n_a.png,I,m,617,3,1,1645.2999999970198,222043.29999999702,8037,VNB,B,2
2,test,3,0.0,1-Back,1,z,Thu Apr 03 2025 18:58:53 GMT-0500 (Central Daylight Time),225771.39999999106,005_o_f_n_a.png,I,z,1056,4,1,2078.199999988079,223693.20000000298,8037,VNB,B,3
3,test,3,1.0,1-Back,1,m,Thu Apr 03 2025 18:58:53 GMT-0500 (Central Daylight Time),227687.5,004_o_m_d_a.png,I,m,884,5,1,1912.2999999970198,225775.20000000298,8037,VNB,B,4
4,test,3,0.0,1-Back,1,m,Thu Apr 03 2025 18:58:53 GMT-0500 (Central Daylight Time),229520.20000000298,020_y_f_h_a.png,I,m,809,6,1,1828.4000000059605,227691.79999999702,8037,VNB,B,5
5,test,3,0.0,1-Back,1,z,Thu Apr 03 2025 18:58:53 GMT-0500 (Central Daylight Time),231053.09999999404,016_y_m_h_a.png,I,z,512,7,1,1528.5999999940395,229524.5,8037,VNB,B,6
6,test,3,0.0,1-Back,1,m,Thu Apr 03 2025 18:58:53 GMT-0500 (Central Daylight Time),232769.09999999404,011_m_f_n_a.png,I,m,691,8,1,1711.5,231057.59999999404,8037,VNB,B,7
7,test,3,0.0,1-Back,1,m,Thu Apr 03 2025 18:58:53 GMT-0500 (Central Daylight Time),234585.0,020_y_f_d_a.png,I,m,783,9,1,1811.7999999970198,232773.20000000298,8037,VNB,B,8
8,test,3,1.0,1-Back,1,m,Thu Apr 03 2025 18:58:53 GMT-0500 (Central Daylight Time),236384.5,004_o_m_n_a.png,I,m,775,10,1,1795.2999999970198,234589.20000000298,8037,VNB,B,9
8,test,3,0.0,1-Back,0,m,Thu Apr 03 2025 18:58:53 GMT-0500 (Central Daylight Time),238217.5,007_m_m_h_a.png,I,z,808,11,1,1827.9000000059605,236389.59999999404,8037,VNB,B,10
9,test,3,0.0,1-Back,1,z,Thu Apr 03 2025 18:58:53 GMT-0500 (Central Daylight Time),240233.5,011_m_f_h_a.png,I,z,984,12,1,2011.9000000059605,238221.59999999404,8037,VNB,B,11
10,test,3,1.0,1-Back,1,m,Thu Apr 03 2025 18:58:53 GMT-0500 (Central Daylight Time),241882.89999999106,005_o_f_d_a.png,I,m,631,13,1,1645.5,240237.39999999106,8037,VNB,B,12
11,test,3,0.0,1-Back,1,z,Thu Apr 03 2025 18:58:53 GMT-0500 (Central Daylight Time),243732.39999999106,007_m_m_d_a.png,I,z,829,14,1,1844.8999999910593,241887.5,8037,VNB,B,13
12,test,3,0.0,1-Back,1,m,Thu Apr 03 2025 18:58:53 GMT-0500 (Central Daylight Time),245381.79999999702,016_y_m_n_a.png,I,m,628,15,1,1645.4000000059605,243736.39999999106,8037,VNB,B,14
13,test,3,1.0,1-Back,1,m,Thu Apr 03 2025 18:58:53 GMT-0500 (Central Daylight Time),247064.59999999404,004_o_m_h_a.png,I,m,650,16,1,1678.5999999940395,245386.0,8037,VNB,B,15
13,test,3,0.0,1-Back,0,m,Thu Apr 03 2025 18:58:53 GMT-0500 (Central Daylight Time),249147.20000000298,016_y_m_d_a.png,I,z,1055,17,1,2079.1000000089407,247068.09999999404,8037,VNB,B,16
14,test,3,1.0,1-Back,1,m,Thu Apr 03 2025 18:58:53 GMT-0500 (Central Daylight Time),251362.89999999106,020_y_f_n_a.png,I,m,1189,18,1,2211.5,249151.39999999106,8037,VNB,B,17
0,test,4,1.0,1-Back,,,Thu Apr 03 2025 18:58:53 GMT-0500 (Central Daylight Time),251362.89999999106,007_m_m_d_a.png,I,space,1622,1,1,2211.5,249151.39999999106,8037,VNB,B,0
1,test,4,0.0,1-Back,1,z,Thu Apr 03 2025 18:58:53 GMT-0500 (Central Daylight Time),257028.20000000298,004_o_m_d_a.png,I,z,996,2,1,2011.6000000089407,255016.59999999404,8037,VNB,B,1
2,test,4,0.0,1-Back,1,m,Thu Apr 03 2025 18:58:53 GMT-0500 (Central Daylight Time),258678.59999999404,016_y_m_h_a.png,I,m,628,3,1,1646.0999999940395,257032.5,8037,VNB,B,2
3,test,4,0.0,1-Back,1,m,Thu Apr 03 2025 18:58:53 GMT-0500 (Central Daylight Time),260726.89999999106,011_m_f_n_a.png,I,m,1027,4,1,2044.5999999940395,258682.29999999702,8037,VNB,B,3
4,test,4,1.0,1-Back,1,m,Thu Apr 03 2025 18:58:53 GMT-0500 (Central Daylight Time),262310.0,005_o_f_h_a.png,I,m,561,5,1,1579.0,260731.0,8037,VNB,B,4
4,test,4,0.0,1-Back,0,m,Thu Apr 03 2025 18:58:53 GMT-0500 (Central Daylight Time),264092.5,007_m_m_n_a.png,I,z,755,6,1,1779.2999999970198,262313.200000003,8037,VNB,B,5
5,test,4,0.0,1-Back,1,m,Thu Apr 03 2025 18:58:53 GMT-0500 (Central Daylight Time),266274.89999999106,016_y_m_d_a.png,I,m,1163,7,1,2178.0999999940395,264096.799999997,8037,VNB,B,6
6,test,4,1.0,1-Back,1,z,Thu Apr 03 2025 18:58:53 GMT-0500 (Central Daylight Time),267874.700000003,020_y_f_d_a.png,I,z,581,8,1,1596.0,266278.700000003,8037,VNB,B,7
7,test,4,0.0,1-Back,1,m,Thu Apr 03 2025 18:58:53 GMT-0500 (Central Daylight Time),269607.59999999404,011_m_f_h_a.png,I,m,709,9,1,1729.3999999910593,267878.200000003,8037,VNB,B,8
8,test,4,0.0,1-Back,1,z,Thu Apr 03 2025 18:58:53 GMT-0500 (Central Daylight Time),271423.700000003,004_o_m_h_a.png,I,z,785,10,1,1811.300000011921,269612.39999999106,8037,VNB,B,9
9,test,4,1.0,1-Back,1,m,Thu Apr 03 2025 18:58:53 GMT-0500 (Central Daylight Time),273206.299999997,005_o_f_n_a.png,I,m,760,11,1,1776.5,271429.799999997,8037,VNB,B,10
9,test,4,0.0,1-Back,0,m,Thu Apr 03 2025 18:58:53 GMT-0500 (Central Daylight Time),275089.0,011_m_f_d_a.png,I,z,850,12,1,1879.1000000089407,273209.89999999106,8037,VNB,B,11
10,test,4,0.0,1-Back,1,m,Thu Apr 03 2025 18:58:53 GMT-0500 (Central Daylight Time),277155.200000003,020_y_f_n_a.png,I,m,1047,13,1,2062.300000011921,275092.89999999106,8037,VNB,B,12
11,test,4,0.0,1-Back,1,m,Thu Apr 03 2025 18:58:53 GMT-0500 (Central Daylight Time),278921.299999997,005_o_f_d_a.png,I,m,749,14,1,1762.0,277159.299999997,8037,VNB,B,13
12,test,4,0.0,1-Back,1,m,Thu Apr 03 2025 18:58:53 GMT-0500 (Central Daylight Time),280520.89999999106,020_y_f_h_a.png,I,m,575,15,1,1595.8999999910593,278925.0,8037,VNB,B,14
13,test,4,1.0,1-Back,1,z,Thu Apr 03 2025 18:58:53 GMT-0500 (Central Daylight Time),282178.799999997,007_m_m_h_a.png,I,z,640,16,1,1654.7000000029802,280524.09999999404,8037,VNB,B,15
14,test,4,0.0,1-Back,1,m,Thu Apr 03 2025 18:58:53 GMT-0500 (Central Daylight Time),284236.09999999404,004_o_m_n_a.png,I,m,1038,17,1,2051.8999999910593,282184.200000003,8037,VNB,B,16
15,test,4,1.0,1-Back,1,z,Thu Apr 03 2025 18:58:53 GMT-0500 (Central Daylight Time),286002.200000003,016_y_m_n_a.png,I,z,748,18,1,1762.2000000029802,284240.0,8037,VNB,B,17
0,test,5,1.0,1-Back,,,Thu Apr 03 2025 18:58:53 GMT-0500 (Central Daylight Time),286002.200000003,004_o_m_n_a.png,I,space,1302,1,1,1762.2000000029802,284240.0,8037,VNB,B,0
1,test,5,1.0,1-Back,1,m,Thu Apr 03 2025 18:58:53 GMT-0500 (Central Daylight Time),291184.200000003,005_o_f_h_a.png,I,m,818,2,1,1844.7000000029802,289339.5,8037,VNB,B,1
2,test,5,0.0,1-Back,1,m,Thu Apr 03 2025 18:58:53 GMT-0500 (Central Daylight Time),293016.799999997,016_y_m_d_a.png,I,m,808,3,1,1828.4000000059605,291188.39999999106,8037,VNB,B,2
3,test,5,0.0,1-Back,1,z,Thu Apr 03 2025 18:58:53 GMT-0500 (Central Daylight Time),294633.0,004_o_m_d_a.png,I,z,591,4,1,1612.1000000089407,293020.89999999106,8037,VNB,B,3
4,test,5,0.0,1-Back,1,m,Thu Apr 03 2025 18:58:53 GMT-0500 (Central Daylight Time),296249.299999997,011_m_f_h_a.png,I,m,591,5,1,1612.2999999970198,294637.0,8037,VNB,B,4
5,test,5,0.0,1-Back,1,m,Thu Apr 03 2025 18:58:53 GMT-0500 (Central Daylight Time),297815.5,020_y_f_n_a.png,I,m,543,6,1,1561.9000000059605,296253.59999999404,8037,VNB,B,5
5,test,5,1.0,1-Back,0,z,Thu Apr 03 2025 18:58:53 GMT-0500 (Central Daylight Time),299581.299999997,005_o_f_n_a.png,I,m,737,7,1,1761.7999999970198,297819.5,8037,VNB,B,6
6,test,5,0.0,1-Back,1,m,Thu Apr 03 2025 18:58:53 GMT-0500 (Central Daylight Time),301414.299999997,011_m_f_d_a.png,I,m,803,8,1,1829.0,299585.299999997,8037,VNB,B,7
7,test,5,0.0,1-Back,1,m,Thu Apr 03 2025 18:58:53 GMT-0500 (Central Daylight Time),303280.299999997,016_y_m_h_a.png,I,m,842,9,1,1862.0,301418.299999997,8037,VNB,B,8
8,test,5,0.0,1-Back,1,m,Thu Apr 03 2025 18:58:53 GMT-0500 (Central Daylight Time),304929.799999997,020_y_f_d_a.png,I,m,624,10,1,1645.7999999970198,303284.0,8037,VNB,B,9
8,test,5,0.0,1-Back,0,m,Thu Apr 03 2025 18:58:53 GMT-0500 (Central Daylight Time),306579.39999999106,007_m_m_n_a.png,I,z,622,11,1,1645.0999999940395,304934.299999997,8037,VNB,B,10
9,test,5,1.0,1-Back,1,z,Thu Apr 03 2025 18:58:53 GMT-0500 (Central Daylight Time),308245.39999999106,011_m_f_n_a.png,I,z,637,12,1,1661.699999988079,306583.700000003,8037,VNB,B,11
10,test,5,0.0,1-Back,1,m,Thu Apr 03 2025 18:58:53 GMT-0500 (Central Daylight Time),309944.89999999106,004_o_m_h_a.png,I,m,667,13,1,1694.699999988079,308250.200000003,8037,VNB,B,12
11,test,5,0.0,1-Back,1,z,Thu Apr 03 2025 18:58:53 GMT-0500 (Central Daylight Time),311860.89999999106,007_m_m_h_a.png,I,z,895,14,1,1911.699999988079,309949.200000003,8037,VNB,B,13
12,test,5,1.0,1-Back,1,m,Thu Apr 03 2025 18:58:53 GMT-0500 (Central Daylight Time),313560.299999997,005_o_f_d_a.png,I,m,667,15,1,1696.2000000029802,311864.09999999404,8037,VNB,B,14
13,test,5,0.0,1-Back,1,m,Thu Apr 03 2025 18:58:53 GMT-0500 (Central Daylight Time),315226.5,016_y_m_n_a.png,I,m,640,16,1,1663.0,313563.5,8037,VNB,B,15
14,test,5,0.0,1-Back,1,m,Thu Apr 03 2025 18:58:53 GMT-0500 (Central Daylight Time),317109.39999999106,020_y_f_h_a.png,I,m,854,17,1,1878.8999999910593,315230.5,8037,VNB,B,16
15,test,5,0.0,1-Back,1,m,Thu Apr 03 2025 18:58:53 GMT-0500 (Central Daylight Time),318759.0,007_m_m_d_a.png,I,m,619,18,1,1645.2000000029802,317113.799999997,8037,VNB,B,17
0,prac,1,0.0,2-Back,,,Thu Apr 03 2025 18:58:53 GMT-0500 (Central Daylight Time),318759.0,011_m_f_n_a.png,I,space,4198,1,1,1645.2000000029802,317113.799999997,8037,VNB,B,0
0,prac,1,0.0,2-Back,,,Thu Apr 03 2025 18:58:53 GMT-0500 (Central Daylight Time),318759.0,005_o_f_h_a.png,I,space,4198,2,1,1645.2000000029802,317113.799999997,8037,VNB,B,0
1,prac,1,0.0,2-Back,1,m,Thu Apr 03 2025 18:58:53 GMT-0500 (Central Daylight Time),411196.59999999404,004_o_m_d_a.png,I,m,1200,3,1,2075.7000000029802,409120.89999999106,8037,VNB,B,1
1,prac,1,1.0,2-Back,0,z,Thu Apr 03 2025 18:58:53 GMT-0500 (Central Daylight Time),413229.299999997,007_m_m_h_a.png,I,m,1126,4,1,2026.5999999940395,411202.700000003,8037,VNB,B,2
1,prac,1,0.0,2-Back,0,m,Thu Apr 03 2025 18:58:53 GMT-0500 (Central Daylight Time),415145.299999997,020_y_f_n_a.png,I,z,1035,5,1,1909.0,413236.299999997,8037,VNB,B,3
2,prac,1,1.0,2-Back,1,z,Thu Apr 03 2025 18:58:53 GMT-0500 (Central Daylight Time),417078.0,004_o_m_h_a.png,I,z,1146,6,1,1927.5,415150.5,8037,VNB,B,4
2,prac,1,1.0,2-Back,0,z,Thu Apr 03 2025 18:58:53 GMT-0500 (Central Daylight Time),419027.200000003,016_y_m_n_a.png,I,m,1051,7,1,1942.1000000089407,417085.09999999404,8037,VNB,B,5
3,prac,1,0.0,2-Back,1,m,Thu Apr 03 2025 18:58:53 GMT-0500 (Central Daylight Time),421076.89999999106,011_m_f_d_a.png,I,m,1157,8,1,2042.5999999940395,419034.299999997,8037,VNB,B,6
4,prac,1,0.0,2-Back,1,m,Thu Apr 03 2025 18:58:53 GMT-0500 (Central Daylight Time),423520.200000003,005_o_f_d_a.png,I,m,1500,9,1,2437.1000000089407,421083.09999999404,8037,VNB,B,7
4,prac,1,0.0,2-Back,0,m,Thu Apr 03 2025 18:58:53 GMT-0500 (Central Daylight Time),425658.59999999404,007_m_m_h_a.png,I,z,1354,10,1,2131.8999999910593,423526.700000003,8037,VNB,B,8
4,prac,1,1.0,2-Back,0,z,Thu Apr 03 2025 18:58:53 GMT-0500 (Central Daylight Time),427858.299999997,020_y_f_d_a.png,I,m,1325,11,1,2193.9000000059605,425664.39999999106,8037,VNB,B,9
5,prac,1,0.0,2-Back,1,m,Thu Apr 03 2025 18:58:53 GMT-0500 (Central Daylight Time),430124.0,004_o_m_n_a.png,I,m,1386,12,1,2259.4000000059605,427864.59999999404,8037,VNB,B,10
0,prac,2,0.0,2-Back,,,Thu Apr 03 2025 18:58:53 GMT-0500 (Central Daylight Time),430124.0,011_m_f_n_a.png,I,a,4913,1,1,2259.4000000059605,427864.59999999404,8037,VNB,B,0
0,prac,2,0.0,2-Back,,,Thu Apr 03 2025 18:58:53 GMT-0500 (Central Daylight Time),430124.0,005_o_f_h_a.png,I,a,4913,2,1,2259.4000000059605,427864.59999999404,8037,VNB,B,0
1,prac,2,0.0,2-Back,1,m,Thu Apr 03 2025 18:58:53 GMT-0500 (Central Daylight Time),442586.799999997,004_o_m_d_a.png,I,m,1411,3,1,2275.7999999970198,440311.0,8037,VNB,B,1
1,prac,2,1.0,2-Back,0,z,Thu Apr 03 2025 18:58:53 GMT-0500 (Central Daylight Time),444486.200000003,007_m_m_h_a.png,I,m,1113,4,1,1894.5,442591.700000003,8037,VNB,B,2
1,prac,2,0.0,2-Back,0,m,Thu Apr 03 2025 18:58:53 GMT-0500 (Central Daylight Time),446552.299999997,020_y_f_n_a.png,I,z,1179,5,1,2059.7000000029802,444492.59999999404,8037,VNB,B,3
2,prac,2,1.0,2-Back,1,z,Thu Apr 03 2025 18:58:53 GMT-0500 (Central Daylight Time),448101.5,004_o_m_h_a.png,I,z,670,6,1,1543.4000000059605,446558.09999999404,8037,VNB,B,4
2,prac,2,1.0,2-Back,0,z,Thu Apr 03 2025 18:58:53 GMT-0500 (Central Daylight Time),450434.09999999404,016_y_m_n_a.png,I,m,1436,7,1,2326.2999999970198,448107.799999997,8037,VNB,B,5
3,prac,2,0.0,2-Back,1,m,Thu Apr 03 2025 18:58:53 GMT-0500 (Central Daylight Time),452833.39999999106,011_m_f_d_a.png,I,m,1509,8,1,2392.2999999970198,450441.09999999404,8037,VNB,B,6
4,prac,2,0.0,2-Back,1,m,Thu Apr 03 2025 18:58:53 GMT-0500 (Central Daylight Time),454866.299999997,005_o_f_d_a.png,I,m,1145,9,1,2027.0999999940395,452839.200000003,8037,VNB,B,7
5,prac,2,0.0,2-Back,1,m,Thu Apr 03 2025 18:58:53 GMT-0500 (Central Daylight Time),456615.59999999404,007_m_m_h_a.png,I,m,960,10,1,1743.0999999940395,454872.5,8037,VNB,B,8
5,prac,2,1.0,2-Back,0,z,Thu Apr 03 2025 18:58:53 GMT-0500 (Central Daylight Time),458465.200000003,020_y_f_d_a.png,I,m,973,11,1,1842.800000011921,456622.39999999106,8037,VNB,B,9
6,prac,2,0.0,2-Back,1,m,Thu Apr 03 2025 18:58:53 GMT-0500 (Central Daylight Time),460447.799999997,004_o_m_n_a.png,I,m,1102,12,1,1977.2000000029802,458470.59999999404,8037,VNB,B,10
0,test,1,0.0,2-Back,,,Thu Apr 03 2025 18:58:53 GMT-0500 (Central Daylight Time),460447.799999997,016_y_m_h_a.png,I,space,5741,1,1,1977.2000000029802,458470.59999999404,8037,VNB,B,0
0,test,1,0.0,2-Back,,,Thu Apr 03 2025 18:58:53 GMT-0500 (Central Daylight Time),460447.799999997,005_o_f_n_a.png,I,space,5741,2,1,1977.2000000029802,458470.59999999404,8037,VNB,B,0
1,test,1,0.0,2-Back,1,z,Thu Apr 03 2025 18:58:53 GMT-0500 (Central Daylight Time),479175.09999999404,004_o_m_h_a.png,I,z,951,3,1,1979.7000000029802,477195.39999999106,8037,VNB,B,1
1,test,1,0.0,2-Back,0,m,Thu Apr 03 2025 18:58:53 GMT-0500 (Central Daylight Time),481607.799999997,011_m_f_d_a.png,I,z,1409,4,1,2428.2999999970198,479179.5,8037,VNB,B,2
2,test,1,1.0,2-Back,1,m,Thu Apr 03 2025 18:58:53 GMT-0500 (Central Daylight Time),483840.39999999106,016_y_m_n_a.png,I,m,1201,5,1,2228.7999999970198,481611.59999999404,8037,VNB,B,3
2,test,1,0.0,2-Back,0,z,Thu Apr 03 2025 18:58:53 GMT-0500 (Central Daylight Time),486056.299999997,020_y_f_d_a.png,I,m,1184,6,1,2211.9000000059605,483844.39999999106,8037,VNB,B,4
3,test,1,0.0,2-Back,1,m,Thu Apr 03 2025 18:58:53 GMT-0500 (Central Daylight Time),488272.299999997,007_m_m_h_a.png,I,m,1184,7,1,2211.7999999970198,486060.5,8037,VNB,B,5
3,test,1,1.0,2-Back,0,m,Thu Apr 03 2025 18:58:53 GMT-0500 (Central Daylight Time),490321.700000003,020_y_f_n_a.png,I,z,1033,8,1,2045.6000000089407,488276.09999999404,8037,VNB,B,6
3,test,1,0.0,2-Back,0,z,Thu Apr 03 2025 18:58:53 GMT-0500 (Central Daylight Time),492587.89999999106,005_o_f_h_a.png,I,m,1247,9,1,2263.0999999940395,490324.799999997,8037,VNB,B,7
3,test,1,0.0,2-Back,0,m,Thu Apr 03 2025 18:58:53 GMT-0500 (Central Daylight Time),494770.5,004_o_m_d_a.png,I,z,1157,10,1,2178.4000000059605,492592.09999999404,8037,VNB,B,8
4,test,1,1.0,2-Back,1,m,Thu Apr 03 2025 18:58:53 GMT-0500 (Central Daylight Time),496936.59999999404,007_m_m_d_a.png,I,m,1142,11,1,2162.7999999970198,494773.799999997,8037,VNB,B,9
5,test,1,0.0,2-Back,1,m,Thu Apr 03 2025 18:58:53 GMT-0500 (Central Daylight Time),498719.09999999404,011_m_f_n_a.png,I,m,760,12,1,1778.2000000029802,496940.89999999106,8037,VNB,B,10
6,test,1,0.0,2-Back,1,m,Thu Apr 03 2025 18:58:53 GMT-0500 (Central Daylight Time),500635.09999999404,020_y_f_h_a.png,I,m,889,13,1,1912.7999999970198,498722.299999997,8037,VNB,B,11
6,test,1,0.0,2-Back,0,z,Thu Apr 03 2025 18:58:53 GMT-0500 (Central Daylight Time),503101.299999997,007_m_m_n_a.png,I,m,1445,14,1,2462.4000000059605,500638.89999999106,8037,VNB,B,12
7,test,1,0.0,2-Back,1,m,Thu Apr 03 2025 18:58:53 GMT-0500 (Central Daylight Time),505200.5,016_y_m_d_a.png,I,m,1075,15,1,2094.7999999970198,503105.700000003,8037,VNB,B,13
7,test,1,1.0,2-Back,0,m,Thu Apr 03 2025 18:58:53 GMT-0500 (Central Daylight Time),507199.799999997,011_m_f_h_a.png,I,z,976,16,1,1995.7000000029802,505204.09999999404,8037,VNB,B,14
7,test,1,0.0,2-Back,0,z,Thu Apr 03 2025 18:58:53 GMT-0500 (Central Daylight Time),509665.700000003,005_o_f_d_a.png,I,m,1432,17,1,2462.4000000059605,507203.299999997,8037,VNB,B,15
8,test,1,0.0,2-Back,1,m,Thu Apr 03 2025 18:58:53 GMT-0500 (Central Daylight Time),512131.5,004_o_m_n_a.png,I,m,1447,18,1,2461.9000000059605,509669.59999999404,8037,VNB,B,16
0,test,2,0.0,2-Back,,,Thu Apr 03 2025 18:58:53 GMT-0500 (Central Daylight Time),512131.5,007_m_m_h_a.png,I,space,2477,1,1,2461.9000000059605,509669.59999999404,8037,VNB,B,0
0,test,2,0.0,2-Back,,,Thu Apr 03 2025 18:58:53 GMT-0500 (Central Daylight Time),512131.5,020_y_f_n_a.png,I,space,2477,2,1,2461.9000000059605,509669.59999999404,8037,VNB,B,0
1,test,2,1.0,2-Back,1,z,Thu Apr 03 2025 18:58:53 GMT-0500 (Central Daylight Time),522261.39999999106,005_o_f_h_a.png,I,z,1353,3,1,2378.0999999940395,519883.299999997,8037,VNB,B,1
2,test,2,0.0,2-Back,1,m,Thu Apr 03 2025 18:58:53 GMT-0500 (Central Daylight Time),524227.39999999106,004_o_m_d_a.png,I,m,938,4,1,1962.199999988079,522265.200000003,8037,VNB,B,2
3,test,2,0.0,2-Back,1,m,Thu Apr 03 2025 18:58:53 GMT-0500 (Central Daylight Time),526410.299999997,011_m_f_d_a.png,I,m,1157,5,1,2178.9000000059605,524231.39999999106,8037,VNB,B,3
4,test,2,0.0,2-Back,1,m,Thu Apr 03 2025 18:58:53 GMT-0500 (Central Daylight Time),528642.599999994,016_y_m_h_a.png,I,m,1206,6,1,2228.7000000029802,526413.8999999911,8037,VNB,B,4
4,test,2,0.0,2-Back,0,m,Thu Apr 03 2025 18:58:53 GMT-0500 (Central Daylight Time),530558.799999997,005_o_f_n_a.png,I,z,886,7,1,1912.4000000059605,528646.3999999911,8037,VNB,B,5
5,test,2,1.0,2-Back,1,z,Thu Apr 03 2025 18:58:53 GMT-0500 (Central Daylight Time),532224.799999997,004_o_m_h_a.png,I,z,634,8,1,1662.2999999970198,530562.5,8037,VNB,B,6
6,test,2,0.0,2-Back,1,m,Thu Apr 03 2025 18:58:53 GMT-0500 (Central Daylight Time),534391.200000003,020_y_f_d_a.png,I,m,1135,9,1,2162.6000000089407,532228.599999994,8037,VNB,B,7
6,test,2,0.0,2-Back,0,m,Thu Apr 03 2025 18:58:53 GMT-0500 (Central Daylight Time),536090.8999999911,016_y_m_d_a.png,I,z,673,10,1,1695.699999988079,534395.200000003,8037,VNB,B,8
7,test,2,0.0,2-Back,1,m,Thu Apr 03 2025 18:58:53 GMT-0500 (Central Daylight Time),538406.700000003,007_m_m_n_a.png,I,m,1293,11,1,2312.1000000089407,536094.599999994,8037,VNB,B,9
8,test,2,0.0,2-Back,1,m,Thu Apr 03 2025 18:58:53 GMT-0500 (Central Daylight Time),540689.299999997,011_m_f_h_a.png,I,m,1249,12,1,2278.5999999940395,538410.700000003,8037,VNB,B,10
8,test,2,1.0,2-Back,0,z,Thu Apr 03 2025 18:58:53 GMT-0500 (Central Daylight Time),542905.200000003,004_o_m_n_a.png,I,m,1191,13,1,2211.800000011921,540693.3999999911,8037,VNB,B,11
9,test,2,0.0,2-Back,1,m,Thu Apr 03 2025 18:58:53 GMT-0500 (Central Daylight Time),544854.599999994,005_o_f_d_a.png,I,m,927,14,1,1945.3999999910593,542909.200000003,8037,VNB,B,12
9,test,2,0.0,2-Back,0,m,Thu Apr 03 2025 18:58:53 GMT-0500 (Central Daylight Time),546904.099999994,020_y_f_h_a.png,I,z,1018,15,1,2045.0999999940395,544859.0,8037,VNB,B,13
10,test,2,0.0,2-Back,1,z,Thu Apr 03 2025 18:58:53 GMT-0500 (Central Daylight Time),549220.0,007_m_m_d_a.png,I,z,1296,16,1,2311.9000000059605,546908.099999994,8037,VNB,B,14
11,test,2,0.0,2-Back,1,m,Thu Apr 03 2025 18:58:53 GMT-0500 (Central Daylight Time),551235.8999999911,016_y_m_n_a.png,I,m,989,17,1,2012.0999999940395,549223.799999997,8037,VNB,B,15
12,test,2,1.0,2-Back,1,m,Thu Apr 03 2025 18:58:53 GMT-0500 (Central Daylight Time),553635.099999994,011_m_f_n_a.png,I,m,1380,18,1,2395.5999999940395,551239.5,8037,VNB,B,16
0,test,3,1.0,2-Back,,,Thu Apr 03 2025 18:58:53 GMT-0500 (Central Daylight Time),553635.099999994,004_o_m_n_a.png,I,space,1205,1,1,2395.5999999940395,551239.5,8037,VNB,B,0
0,test,3,1.0,2-Back,,,Thu Apr 03 2025 18:58:53 GMT-0500 (Central Daylight Time),553635.099999994,005_o_f_d_a.png,I,space,1205,2,1,2395.5999999940395,551239.5,8037,VNB,B,0
1,test,3,0.0,2-Back,1,m,Thu Apr 03 2025 18:58:53 GMT-0500 (Central Daylight Time),561999.3999999911,020_y_f_h_a.png,I,m,1068,3,1,2096.0,559903.3999999911,8037,VNB,B,1
2,test,3,0.0,2-Back,1,z,Thu Apr 03 2025 18:58:53 GMT-0500 (Central Daylight Time),564149.700000003,011_m_f_d_a.png,I,z,1129,4,1,2147.0,562002.700000003,8037,VNB,B,2
3,test,3,1.0,2-Back,1,m,Thu Apr 03 2025 18:58:53 GMT-0500 (Central Daylight Time),566314.5,016_y_m_n_a.png,I,m,1139,5,1,2161.0,564153.5,8037,VNB,B,3
4,test,3,0.0,2-Back,1,m,Thu Apr 03 2025 18:58:53 GMT-0500 (Central Daylight Time),568913.599999994,004_o_m_h_a.png,I,m,1582,6,1,2595.0,566318.599999994,8037,VNB,B,4
4,test,3,0.0,2-Back,0,z,Thu Apr 03 2025 18:58:53 GMT-0500 (Central Daylight Time),571413.099999994,020_y_f_n_a.png,I,m,1470,7,1,2495.7999999970198,568917.299999997,8037,VNB,B,5
5,test,3,1.0,2-Back,1,m,Thu Apr 03 2025 18:58:53 GMT-0500 (Central Daylight Time),573145.5,007_m_m_d_a.png,I,m,715,8,1,1728.7999999970198,571416.700000003,8037,VNB,B,6
5,test,3,0.0,2-Back,0,m,Thu Apr 03 2025 18:58:53 GMT-0500 (Central Daylight Time),575961.3999999911,016_y_m_d_a.png,I,z,1790,9,1,2811.3999999910593,573150.0,8037,VNB,B,7
6,test,3,0.0,2-Back,1,m,Thu Apr 03 2025 18:58:53 GMT-0500 (Central Daylight Time),578410.799999997,005_o_f_h_a.png,I,m,1423,10,1,2445.5999999940395,575965.200000003,8037,VNB,B,8
6,test,3,1.0,2-Back,0,m,Thu Apr 03 2025 18:58:53 GMT-0500 (Central Daylight Time),581376.700000003,011_m_f_n_a.png,I,z,1934,11,1,2961.9000000059605,578414.799999997,8037,VNB,B,9
6,test,3,1.0,2-Back,0,z,Thu Apr 03 2025 18:58:53 GMT-0500 (Central Daylight Time),583142.599999994,007_m_m_h_a.png,I,m,736,12,1,1761.7999999970198,581380.799999997,8037,VNB,B,10
7,test,3,0.0,2-Back,1,m,Thu Apr 03 2025 18:58:53 GMT-0500 (Central Daylight Time),585292.099999994,020_y_f_d_a.png,I,m,1121,13,1,2146.0999999940395,583146.0,8037,VNB,B,11
8,test,3,0.0,2-Back,1,m,Thu Apr 03 2025 18:58:53 GMT-0500 (Central Daylight Time),587841.299999997,005_o_f_n_a.png,I,m,1532,14,1,2545.2999999970198,585296.0,8037,VNB,B,12
9,test,3,0.0,2-Back,1,z,Thu Apr 03 2025 18:58:53 GMT-0500 (Central Daylight Time),590007.200000003,004_o_m_d_a.png,I,z,1135,15,1,2162.2000000029802,587845.0,8037,VNB,B,13
10,test,3,1.0,2-Back,1,m,Thu Apr 03 2025 18:58:53 GMT-0500 (Central Daylight Time),591956.599999994,011_m_f_h_a.png,I,m,929,16,1,1945.2000000029802,590011.3999999911,8037,VNB,B,14
10,test,3,0.0,2-Back,0,m,Thu Apr 03 2025 18:58:53 GMT-0500 (Central Daylight Time),594472.3999999911,007_m_m_n_a.png,I,z,1484,17,1,2511.699999988079,591960.700000003,8037,VNB,B,15
11,test,3,0.0,2-Back,1,z,Thu Apr 03 2025 18:58:53 GMT-0500 (Central Daylight Time),595988.5,016_y_m_h_a.png,I,z,488,18,1,1512.1000000089407,594476.3999999911,8037,VNB,B,16
0,test,4,0.0,2-Back,,,Thu Apr 03 2025 18:58:53 GMT-0500 (Central Daylight Time),595988.5,011_m_f_n_a.png,I,space,1236,1,1,1512.1000000089407,594476.3999999911,8037,VNB,B,0
0,test,4,0.0,2-Back,,,Thu Apr 03 2025 18:58:53 GMT-0500 (Central Daylight Time),595988.5,004_o_m_n_a.png,I,space,1236,2,1,1512.1000000089407,594476.3999999911,8037,VNB,B,0
1,test,4,1.0,2-Back,1,m,Thu Apr 03 2025 18:58:53 GMT-0500 (Central Daylight Time),604319.099999994,016_y_m_h_a.png,I,m,826,3,1,1845.3999999910593,602473.700000003,8037,VNB,B,1
1,test,4,1.0,2-Back,0,m,Thu Apr 03 2025 18:58:53 GMT-0500 (Central Daylight Time),606285.3999999911,005_o_f_d_a.png,I,z,944,4,1,1961.8999999910593,604323.5,8037,VNB,B,2
2,test,4,0.0,2-Back,1,z,Thu Apr 03 2025 18:58:53 GMT-0500 (Central Daylight Time),608784.8999999911,004_o_m_h_a.png,I,z,1475,5,1,2495.5,606289.3999999911,8037,VNB,B,3
2,test,4,0.0,2-Back,0,m,Thu Apr 03 2025 18:58:53 GMT-0500 (Central Daylight Time),611051.700000003,007_m_m_n_a.png,I,z,1247,6,1,2263.2000000029802,608788.5,8037,VNB,B,4
3,test,4,0.0,2-Back,1,m,Thu Apr 03 2025 18:58:53 GMT-0500 (Central Daylight Time),612800.099999994,011_m_f_d_a.png,I,m,718,7,1,1744.0,611056.099999994,8037,VNB,B,5
4,test,4,0.0,2-Back,1,z,Thu Apr 03 2025 18:58:53 GMT-0500 (Central Daylight Time),614999.3999999911,020_y_f_n_a.png,I,z,1176,8,1,2195.0999999940395,612804.299999997,8037,VNB,B,6
5,test,4,1.0,2-Back,1,m,Thu Apr 03 2025 18:58:53 GMT-0500 (Central Daylight Time),617115.200000003,005_o_f_h_a.png,I,m,1097,9,1,2112.1000000089407,615003.099999994,8037,VNB,B,7
6,test,4,0.0,2-Back,1,m,Thu Apr 03 2025 18:58:53 GMT-0500 (Central Daylight Time),619181.599999994,007_m_m_h_a.png,I,m,1037,10,1,2062.7999999970198,617118.799999997,8037,VNB,B,8
6,test,4,0.0,2-Back,0,m,Thu Apr 03 2025 18:58:53 GMT-0500 (Central Daylight Time),621047.299999997,020_y_f_d_a.png,I,z,835,11,1,1861.9000000059605,619185.3999999911,8037,VNB,B,9
7,test,4,0.0,2-Back,1,m,Thu Apr 03 2025 18:58:53 GMT-0500 (Central Daylight Time),623480.0,016_y_m_n_a.png,I,m,1409,12,1,2429.0,621051.0,8037,VNB,B,10
8,test,4,0.0,2-Back,1,z,Thu Apr 03 2025 18:58:53 GMT-0500 (Central Daylight Time),625929.5,004_o_m_d_a.png,I,z,1416,13,1,2445.7999999970198,623483.700000003,8037,VNB,B,11
9,test,4,1.0,2-Back,1,m,Thu Apr 03 2025 18:58:53 GMT-0500 (Central Daylight Time),627895.299999997,011_m_f_h_a.png,I,m,935,14,1,1962.2999999970198,625933.0,8037,VNB,B,12
10,test,4,1.0,2-Back,1,m,Thu Apr 03 2025 18:58:53 GMT-0500 (Central Daylight Time),629711.299999997,020_y_f_h_a.png,I,m,785,15,1,1811.0999999940395,627900.200000003,8037,VNB,B,13
11,test,4,0.0,2-Back,1,m,Thu Apr 03 2025 18:58:53 GMT-0500 (Central Daylight Time),631944.099999994,005_o_f_n_a.png,I,m,1209,16,1,2228.5,629715.599999994,8037,VNB,B,14
12,test,4,0.0,2-Back,1,m,Thu Apr 03 2025 18:58:53 GMT-0500 (Central Daylight Time),633793.5,016_y_m_d_a.png,I,m,816,17,1,1845.5,631948.0,8037,VNB,B,15
13,test,4,1.0,2-Back,1,m,Thu Apr 03 2025 18:58:53 GMT-0500 (Central Daylight Time),636292.700000003,007_m_m_d_a.png,I,m,1479,18,1,2496.0,633796.700000003,8037,VNB,B,16
0,test,5,1.0,2-Back,,,Thu Apr 03 2025 18:58:53 GMT-0500 (Central Daylight Time),636292.700000003,020_y_f_d_a.png,I,space,1332,1,1,2496.0,633796.700000003,8037,VNB,B,0
0,test,5,1.0,2-Back,,,Thu Apr 03 2025 18:58:53 GMT-0500 (Central Daylight Time),636292.700000003,005_o_f_h_a.png,I,space,1332,2,1,2496.0,633796.700000003,8037,VNB,B,0
1,test,5,1.0,2-Back,1,z,Thu Apr 03 2025 18:58:53 GMT-0500 (Central Daylight Time),645273.200000003,004_o_m_d_a.png,I,z,1374,3,1,2394.6000000089407,642878.599999994,8037,VNB,B,1
1,test,5,1.0,2-Back,0,m,Thu Apr 03 2025 18:58:53 GMT-0500 (Central Daylight Time),647389.299999997,011_m_f_n_a.png,I,z,1095,4,1,2112.9000000059605,645276.3999999911,8037,VNB,B,2
2,test,5,0.0,2-Back,1,m,Thu Apr 03 2025 18:58:53 GMT-0500 (Central Daylight Time),649505.3999999911,007_m_m_h_a.png,I,m,1099,5,1,2111.7999999970198,647393.599999994,8037,VNB,B,3
2,test,5,0.0,2-Back,0,z,Thu Apr 03 2025 18:58:53 GMT-0500 (Central Daylight Time),651521.3999999911,020_y_f_n_a.png,I,m,999,6,1,2012.3999999910593,649509.0,8037,VNB,B,4
3,test,5,0.0,2-Back,1,m,Thu Apr 03 2025 18:58:53 GMT-0500 (Central Daylight Time),653720.5,005_o_f_d_a.png,I,m,1167,7,1,2195.7999999970198,651524.700000003,8037,VNB,B,5
3,test,5,0.0,2-Back,0,m,Thu Apr 03 2025 18:58:53 GMT-0500 (Central Daylight Time),655819.799999997,004_o_m_h_a.png,I,z,1072,8,1,2095.5999999940395,653724.200000003,8037,VNB,B,6
3,test,5,1.0,2-Back,0,z,Thu Apr 03 2025 18:58:53 GMT-0500 (Central Daylight Time),658519.099999994,011_m_f_d_a.png,I,m,1676,9,1,2696.0,655823.099999994,8037,VNB,B,7
4,test,5,0.0,2-Back,1,m,Thu Apr 03 2025 18:58:53 GMT-0500 (Central Daylight Time),660068.3999999911,016_y_m_n_a.png,I,m,521,10,1,1545.699999988079,658522.700000003,8037,VNB,B,8
5,test,5,0.0,2-Back,1,m,Thu Apr 03 2025 18:58:53 GMT-0500 (Central Daylight Time),662334.599999994,007_m_m_n_a.png,I,m,1245,11,1,2261.5999999940395,660073.0,8037,VNB,B,9
6,test,5,0.0,2-Back,1,m,Thu Apr 03 2025 18:58:53 GMT-0500 (Central Daylight Time),664433.799999997,020_y_f_h_a.png,I,m,1082,12,1,2095.9000000059605,662337.8999999911,8037,VNB,B,10
7,test,5,0.0,2-Back,1,m,Thu Apr 03 2025 18:58:53 GMT-0500 (Central Daylight Time),666450.0,016_y_m_d_a.png,I,m,990,13,1,2012.7000000029802,664437.299999997,8037,VNB,B,11
7,test,5,1.0,2-Back,0,z,Thu Apr 03 2025 18:58:53 GMT-0500 (Central Daylight Time),668565.8999999911,011_m_f_h_a.png,I,m,1086,14,1,2112.8999999910593,666453.0,8037,VNB,B,12
8,test,5,0.0,2-Back,1,m,Thu Apr 03 2025 18:58:53 GMT-0500 (Central Daylight Time),671015.0,004_o_m_n_a.png,I,m,1426,15,1,2445.2999999970198,668569.700000003,8037,VNB,B,13
9,test,5,0.0,2-Back,1,m,Thu Apr 03 2025 18:58:53 GMT-0500 (Central Daylight Time),673180.799999997,007_m_m_d_a.png,I,m,1137,16,1,2161.9000000059605,671018.8999999911,8037,VNB,B,14
10,test,5,0.0,2-Back,1,z,Thu Apr 03 2025 18:58:53 GMT-0500 (Central Daylight Time),675630.3999999911,005_o_f_n_a.png,I,z,1419,17,1,2445.5999999940395,673184.799999997,8037,VNB,B,15
11,test,5,1.0,2-Back,1,m,Thu Apr 03 2025 18:58:53 GMT-0500 (Central Daylight Time),677729.599999994,016_y_m_h_a.png,I,m,1074,18,1,2095.7000000029802,675633.8999999911,8037,VNB,B,16
