block_c,block_dur,condition,countdown,datetime,endtime,list,multichar_response,project,response,response_time,session_number,start_end,starttime,subject_id,task,task_vers,trial
,,,,Mon Jan 27 2025 10:41:36 GMT-0500 (Eastern Standard Time),,,,I,space,2230,1,,,9008,WL,C,
prac,,0,,Mon Jan 27 2025 10:41:36 GMT-0500 (Eastern Standard Time),,NA,b,I,b,5448,1,,,9008,WL,C,1.0
prac,,0,,Mon Jan 27 2025 10:41:36 GMT-0500 (Eastern Standard Time),,NA,bo,I,o,679,1,,,9008,WL,C,1.0
prac,,0,,Mon Jan 27 2025 10:41:36 GMT-0500 (Eastern Standard Time),,NA,bos,I,s,147,1,,,9008,WL,C,1.0
prac,,0,,Mon Jan 27 2025 10:41:36 GMT-0500 (Eastern Standard Time),,NA,bost,I,t,319,1,,,9008,WL,C,1.0
prac,,0,,Mon Jan 27 2025 10:41:36 GMT-0500 (Eastern Standard Time),,NA,bos,I,backspace,1246,1,,,9008,WL,C,1.0
prac,,0,,Mon Jan 27 2025 10:41:36 GMT-0500 (Eastern Standard Time),,NA,bo,I,backspace,181,1,,,9008,WL,C,1.0
prac,,0,,Mon Jan 27 2025 10:41:36 GMT-0500 (Eastern Standard Time),,NA,boo,I,o,916,1,,,9008,WL,C,1.0
prac,,0,,Mon Jan 27 2025 10:41:36 GMT-0500 (Eastern Standard Time),,NA,boos,I,s,272,1,,,9008,WL,C,1.0
prac,,0,,Mon Jan 27 2025 10:41:36 GMT-0500 (Eastern Standard Time),,NA,boost,I,t,389,1,,,9008,WL,C,1.0
prac,,0,,Mon Jan 27 2025 10:41:36 GMT-0500 (Eastern Standard Time),,NA,boostenter,I,enter,4741,1,,,9008,WL,C,1.0
1,1.4500000476837158,learn,58549.999952316284,Mon Jan 27 2025 10:41:36 GMT-0500 (Eastern Standard Time),940544.3999996185,A,t,I,t,1433,1,1449.3999996185303,939095.0,9008,WL,C,1.0
1,1.7999999523162842,learn,58200.000047683716,Mon Jan 27 2025 10:41:36 GMT-0500 (Eastern Standard Time),940894.5,A,to,I,o,335,1,1799.5,939095.0,9008,WL,C,1.0
1,2.6670000553131104,learn,57332.99994468689,Mon Jan 27 2025 10:41:36 GMT-0500 (Eastern Standard Time),941760.8999996185,A,tow,I,w,849,1,2665.8999996185303,939095.0,9008,WL,C,1.0
1,2.8999998569488525,learn,57100.00014305115,Mon Jan 27 2025 10:41:36 GMT-0500 (Eastern Standard Time),941994.0999984741,A,towe,I,e,197,1,2899.099998474121,939095.0,9008,WL,C,1.0
1,3.1670000553131104,learn,56832.99994468689,Mon Jan 27 2025 10:41:36 GMT-0500 (Eastern Standard Time),942260.8999996185,A,tower,I,r,243,1,3165.8999996185303,939095.0,9008,WL,C,1.0
1,5.766999959945679,learn,54233.00004005432,Mon Jan 27 2025 10:41:36 GMT-0500 (Eastern Standard Time),944861.3999996185,A,towerenter,I,enter,2574,1,5766.39999961853,939095.0,9008,WL,C,1.0
1,6.349999904632568,learn,53650.00009536743,Mon Jan 27 2025 10:41:36 GMT-0500 (Eastern Standard Time),945444.0999984741,A,w,I,w,565,1,582.0,944862.0999984741,9008,WL,C,2.0
1,6.700000047683716,learn,53299.999952316284,Mon Jan 27 2025 10:41:36 GMT-0500 (Eastern Standard Time),945793.6999988556,A,wh,I,h,330,1,931.6000003814697,944862.0999984741,9008,WL,C,2.0
1,6.8999998569488525,learn,53100.00014305115,Mon Jan 27 2025 10:41:36 GMT-0500 (Eastern Standard Time),945994.3999996185,A,whe,I,e,176,1,1132.3000011444092,944862.0999984741,9008,WL,C,2.0
1,7.200000047683716,learn,52799.999952316284,Mon Jan 27 2025 10:41:36 GMT-0500 (Eastern Standard Time),946293.6999988556,A,whea,I,a,276,1,1431.6000003814697,944862.0999984741,9008,WL,C,2.0
1,7.533999919891357,learn,52466.00008010864,Mon Jan 27 2025 10:41:36 GMT-0500 (Eastern Standard Time),946627.6999988556,A,wheat,I,t,317,1,1765.6000003814697,944862.0999984741,9008,WL,C,2.0
1,8.66599988937378,learn,51334.00011062622,Mon Jan 27 2025 10:41:36 GMT-0500 (Eastern Standard Time),947760.3999996185,A,wheatenter,I,enter,1115,1,2898.300001144409,944862.0999984741,9008,WL,C,2.0
1,9.899999856948853,learn,50100.00014305115,Mon Jan 27 2025 10:41:36 GMT-0500 (Eastern Standard Time),948994.2999992371,A,s,I,s,1218,1,1233.3999996185303,947760.8999996185,9008,WL,C,3.0
1,10.099999904632568,learn,49900.00009536743,Mon Jan 27 2025 10:41:36 GMT-0500 (Eastern Standard Time),949194.1999988556,A,st,I,t,174,1,1433.2999992370605,947760.8999996185,9008,WL,C,3.0
1,10.299999952316284,learn,49700.000047683716,Mon Jan 27 2025 10:41:36 GMT-0500 (Eastern Standard Time),949393.7999992371,A,str,I,r,180,1,1632.8999996185303,947760.8999996185,9008,WL,C,3.0
1,10.5,learn,49500.0,Mon Jan 27 2025 10:41:36 GMT-0500 (Eastern Standard Time),949594.0999984741,A,stre,I,e,175,1,1833.1999988555908,947760.8999996185,9008,WL,C,3.0
1,10.700000047683716,learn,49299.999952316284,Mon Jan 27 2025 10:41:36 GMT-0500 (Eastern Standard Time),949794.0,A,strea,I,a,172,1,2033.1000003814697,947760.8999996185,9008,WL,C,3.0
1,11.599999904632568,learn,48400.00009536743,Mon Jan 27 2025 10:41:36 GMT-0500 (Eastern Standard Time),950694.0999984741,A,stream,I,m,878,1,2933.199998855591,947760.8999996185,9008,WL,C,3.0
1,12.149999856948853,learn,47850.00014305115,Mon Jan 27 2025 10:41:36 GMT-0500 (Eastern Standard Time),951243.6999988556,A,streamenter,I,enter,518,1,3482.7999992370605,947760.8999996185,9008,WL,C,3.0
1,13.134000062942505,learn,46865.999937057495,Mon Jan 27 2025 10:41:36 GMT-0500 (Eastern Standard Time),952227.6999988556,A,q,I,q,967,1,983.5,951244.1999988556,9008,WL,C,4.0
1,13.399999856948853,learn,46600.00014305115,Mon Jan 27 2025 10:41:36 GMT-0500 (Eastern Standard Time),952493.5999984741,A,qu,I,u,249,1,1249.3999996185303,951244.1999988556,9008,WL,C,4.0
1,13.717000007629395,learn,46282.999992370605,Mon Jan 27 2025 10:41:36 GMT-0500 (Eastern Standard Time),952810.6999988556,A,que,I,e,291,1,1566.5,951244.1999988556,9008,WL,C,4.0
1,13.849999904632568,learn,46150.00009536743,Mon Jan 27 2025 10:41:36 GMT-0500 (Eastern Standard Time),952944.0999984741,A,quee,I,e,117,1,1699.8999996185303,951244.1999988556,9008,WL,C,4.0
1,14.149999856948853,learn,45850.00014305115,Mon Jan 27 2025 10:41:36 GMT-0500 (Eastern Standard Time),953244.0999984741,A,queen,I,n,269,1,1999.8999996185303,951244.1999988556,9008,WL,C,4.0
1,14.733000040054321,learn,45266.99995994568,Mon Jan 27 2025 10:41:36 GMT-0500 (Eastern Standard Time),953827.0,A,queenenter,I,enter,562,1,2582.800001144409,951244.1999988556,9008,WL,C,4.0
1,15.75,learn,44250.0,Mon Jan 27 2025 10:41:36 GMT-0500 (Eastern Standard Time),954844.2999992371,A,b,I,b,991,1,1016.7000007629395,953827.5999984741,9008,WL,C,5.0
1,16.183000087738037,learn,43816.99991226196,Mon Jan 27 2025 10:41:36 GMT-0500 (Eastern Standard Time),955277.2999992371,A,bo,I,o,420,1,1449.7000007629395,953827.5999984741,9008,WL,C,5.0
1,16.616999864578247,learn,43383.00013542175,Mon Jan 27 2025 10:41:36 GMT-0500 (Eastern Standard Time),955710.8999996185,A,boy,I,y,419,1,1883.3000011444092,953827.5999984741,9008,WL,C,5.0
1,17.149999856948853,learn,42850.00014305115,Mon Jan 27 2025 10:41:36 GMT-0500 (Eastern Standard Time),956243.6999988556,A,boyenter,I,enter,511,1,2416.1000003814697,953827.5999984741,9008,WL,C,5.0
1,18.499000072479248,learn,41500.99992752075,Mon Jan 27 2025 10:41:36 GMT-0500 (Eastern Standard Time),957593.3999996185,A,d,I,d,1326,1,1349.2000007629395,956244.1999988556,9008,WL,C,6.0
1,18.766000032424927,learn,41233.99996757507,Mon Jan 27 2025 10:41:36 GMT-0500 (Eastern Standard Time),957860.2999992371,A,do,I,o,249,1,1616.1000003814697,956244.1999988556,9008,WL,C,6.0
1,18.966000080108643,learn,41033.99991989136,Mon Jan 27 2025 10:41:36 GMT-0500 (Eastern Standard Time),958060.5,A,doc,I,c,184,1,1816.3000011444092,956244.1999988556,9008,WL,C,6.0
1,19.366999864578247,learn,40633.00013542175,Mon Jan 27 2025 10:41:36 GMT-0500 (Eastern Standard Time),958460.8999996185,A,doct,I,t,388,1,2216.7000007629395,956244.1999988556,9008,WL,C,6.0
1,19.56599998474121,learn,40434.00001525879,Mon Jan 27 2025 10:41:36 GMT-0500 (Eastern Standard Time),958660.3999996185,A,docto,I,o,179,1,2416.2000007629395,956244.1999988556,9008,WL,C,6.0
1,19.866999864578247,learn,40133.00013542175,Mon Jan 27 2025 10:41:36 GMT-0500 (Eastern Standard Time),958960.5999984741,A,doctor,I,r,285,1,2716.3999996185303,956244.1999988556,9008,WL,C,6.0
1,20.399999856948853,learn,39600.00014305115,Mon Jan 27 2025 10:41:36 GMT-0500 (Eastern Standard Time),959493.6999988556,A,doctorenter,I,enter,503,1,3249.5,956244.1999988556,9008,WL,C,6.0
1,20.866999864578247,learn,39133.00013542175,Mon Jan 27 2025 10:41:36 GMT-0500 (Eastern Standard Time),959960.7999992371,A,c,I,c,445,1,466.6000003814697,959494.1999988556,9008,WL,C,7.0
1,21.06599998474121,learn,38934.00001525879,Mon Jan 27 2025 10:41:36 GMT-0500 (Eastern Standard Time),960160.5,A,ca,I,a,182,1,666.3000011444092,959494.1999988556,9008,WL,C,7.0
1,21.399999856948853,learn,38600.00014305115,Mon Jan 27 2025 10:41:36 GMT-0500 (Eastern Standard Time),960494.0999984741,A,cam,I,m,323,1,999.8999996185303,959494.1999988556,9008,WL,C,7.0
1,21.967000007629395,learn,38032.999992370605,Mon Jan 27 2025 10:41:36 GMT-0500 (Eastern Standard Time),961061.0,A,camp,I,p,544,1,1566.8000011444092,959494.1999988556,9008,WL,C,7.0
1,23.032999992370605,learn,36967.000007629395,Mon Jan 27 2025 10:41:36 GMT-0500 (Eastern Standard Time),962127.0999984741,A,campenter,I,enter,1049,1,2632.8999996185303,959494.1999988556,9008,WL,C,7.0
1,31.33299994468689,learn,28667.00005531311,Mon Jan 27 2025 10:41:36 GMT-0500 (Eastern Standard Time),970427.5,A,c,I,c,8276,1,8300.0,962127.5,9008,WL,C,8.0
1,31.467000007629395,learn,28532.999992370605,Mon Jan 27 2025 10:41:36 GMT-0500 (Eastern Standard Time),970560.5,A,co,I,o,115,1,8433.0,962127.5,9008,WL,C,8.0
1,31.76699995994568,learn,28233.00004005432,Mon Jan 27 2025 10:41:36 GMT-0500 (Eastern Standard Time),970860.7999992371,A,cor,I,r,270,1,8733.29999923706,962127.5,9008,WL,C,8.0
1,32.11699986457825,learn,27883.000135421753,Mon Jan 27 2025 10:41:36 GMT-0500 (Eastern Standard Time),971210.7999992371,A,corn,I,n,323,1,9083.29999923706,962127.5,9008,WL,C,8.0
1,32.64999985694885,learn,27350.000143051147,Mon Jan 27 2025 10:41:36 GMT-0500 (Eastern Standard Time),971743.6999988556,A,cornenter,I,enter,517,1,9616.19999885559,962127.5,9008,WL,C,8.0
1,47.882999897003174,learn,12117.000102996826,Mon Jan 27 2025 10:41:36 GMT-0500 (Eastern Standard Time),986977.5,A,s,I,s,15219,1,15233.30000114441,971744.1999988556,9008,WL,C,9.0
1,48.217000007629395,learn,11782.999992370605,Mon Jan 27 2025 10:41:36 GMT-0500 (Eastern Standard Time),987310.7999992371,A,su,I,u,319,1,15566.60000038147,971744.1999988556,9008,WL,C,9.0
1,48.64999985694885,learn,11350.000143051147,Mon Jan 27 2025 10:41:36 GMT-0500 (Eastern Standard Time),987744.2999992371,A,sug,I,g,417,1,16000.10000038147,971744.1999988556,9008,WL,C,9.0
1,48.89999985694885,learn,11100.000143051147,Mon Jan 27 2025 10:41:36 GMT-0500 (Eastern Standard Time),987994.1999988556,A,suga,I,a,224,1,16250.0,971744.1999988556,9008,WL,C,9.0
1,49.134000062942505,learn,10865.999937057495,Mon Jan 27 2025 10:41:36 GMT-0500 (Eastern Standard Time),988227.5999984741,A,sugar,I,r,214,1,16483.39999961853,971744.1999988556,9008,WL,C,9.0
1,49.73300004005432,learn,10266.999959945679,Mon Jan 27 2025 10:41:36 GMT-0500 (Eastern Standard Time),988827.0,A,sugarenter,I,enter,570,1,17082.80000114441,971744.1999988556,9008,WL,C,9.0
1,60.01699995994568,learn,-16.99995994567871,Mon Jan 27 2025 10:41:36 GMT-0500 (Eastern Standard Time),999111.0999984741,A,None,I,None,10276,1,10283.69999885559,988827.3999996185,9008,WL,C,10.0
2,1.0,learn,59000.0,Mon Jan 27 2025 10:41:36 GMT-0500 (Eastern Standard Time),1074893.8999996185,A,n,I,n,986,1,999.3000011444092,1073894.5999984741,9008,WL,C,1.0
2,1.1500000953674316,learn,58849.99990463257,Mon Jan 27 2025 10:41:36 GMT-0500 (Eastern Standard Time),1075044.3999996185,A,na,I,a,132,1,1149.8000011444092,1073894.5999984741,9008,WL,C,1.0
2,1.5,learn,58500.0,Mon Jan 27 2025 10:41:36 GMT-0500 (Eastern Standard Time),1075393.799999237,A,nai,I,i,331,1,1499.2000007629395,1073894.5999984741,9008,WL,C,1.0
2,2.0,learn,58000.0,Mon Jan 27 2025 10:41:36 GMT-0500 (Eastern Standard Time),1075893.799999237,A,nail,I,l,480,1,1999.2000007629395,1073894.5999984741,9008,WL,C,1.0
2,2.7330000400543213,learn,57266.99995994568,Mon Jan 27 2025 10:41:36 GMT-0500 (Eastern Standard Time),1076627.0999984741,A,nailenter,I,enter,716,1,2732.5,1073894.5999984741,9008,WL,C,1.0
2,3.365999937057495,learn,56634.000062942505,Mon Jan 27 2025 10:41:36 GMT-0500 (Eastern Standard Time),1077260.0999984741,A,s,I,s,624,1,632.3999996185303,1076627.6999988556,9008,WL,C,2.0
2,3.867000102996826,learn,56132.999897003174,Mon Jan 27 2025 10:41:36 GMT-0500 (Eastern Standard Time),1077761.0,A,sh,I,h,487,1,1133.3000011444092,1076627.6999988556,9008,WL,C,2.0
2,4.150000095367432,learn,55849.99990463257,Mon Jan 27 2025 10:41:36 GMT-0500 (Eastern Standard Time),1078044.5999984741,A,sho,I,o,269,1,1416.8999996185303,1076627.6999988556,9008,WL,C,2.0
2,4.450000047683716,learn,55549.999952316284,Mon Jan 27 2025 10:41:36 GMT-0500 (Eastern Standard Time),1078344.3999996185,A,shor,I,r,275,1,1716.7000007629395,1076627.6999988556,9008,WL,C,2.0
2,4.650000095367432,learn,55349.99990463257,Mon Jan 27 2025 10:41:36 GMT-0500 (Eastern Standard Time),1078544.299999237,A,shore,I,e,182,1,1916.6000003814697,1076627.6999988556,9008,WL,C,2.0
2,5.133000135421753,learn,54866.99986457825,Mon Jan 27 2025 10:41:36 GMT-0500 (Eastern Standard Time),1079027.1999988556,A,shoreenter,I,enter,463,1,2399.5,1076627.6999988556,9008,WL,C,2.0
2,5.66700005531311,learn,54332.99994468689,Mon Jan 27 2025 10:41:36 GMT-0500 (Eastern Standard Time),1079561.0,A,c,I,c,512,1,533.4000015258789,1079027.5999984741,9008,WL,C,3.0
2,5.834000110626221,learn,54165.99988937378,Mon Jan 27 2025 10:41:36 GMT-0500 (Eastern Standard Time),1079727.799999237,A,ca,I,a,152,1,700.2000007629395,1079027.5999984741,9008,WL,C,3.0
2,6.349999904632568,learn,53650.00009536743,Mon Jan 27 2025 10:41:36 GMT-0500 (Eastern Standard Time),1080244.1999988556,A,cat,I,t,486,1,1216.6000003814697,1079027.5999984741,9008,WL,C,3.0
2,6.516999959945679,learn,53483.00004005432,Mon Jan 27 2025 10:41:36 GMT-0500 (Eastern Standard Time),1080410.8999996185,A,catt,I,t,138,1,1383.3000011444092,1079027.5999984741,9008,WL,C,3.0
2,6.733000040054321,learn,53266.99995994568,Mon Jan 27 2025 10:41:36 GMT-0500 (Eastern Standard Time),1080627.5,A,cattl,I,l,187,1,1599.900001525879,1079027.5999984741,9008,WL,C,3.0
2,6.9670000076293945,learn,53032.999992370605,Mon Jan 27 2025 10:41:36 GMT-0500 (Eastern Standard Time),1080860.799999237,A,cattle,I,e,220,1,1833.2000007629395,1079027.5999984741,9008,WL,C,3.0
2,7.549999952316284,learn,52450.000047683716,Mon Jan 27 2025 10:41:36 GMT-0500 (Eastern Standard Time),1081444.0,A,cattleenter,I,enter,564,1,2416.400001525879,1079027.5999984741,9008,WL,C,3.0
2,14.733999967575073,learn,45266.00003242493,Mon Jan 27 2025 10:41:36 GMT-0500 (Eastern Standard Time),1088627.5999984741,A,l,I,l,7168,1,7183.199998855591,1081444.3999996185,9008,WL,C,4.0
2,15.049999952316284,learn,44950.000047683716,Mon Jan 27 2025 10:41:36 GMT-0500 (Eastern Standard Time),1088944.1999988556,A,le,I,e,301,1,7499.799999237061,1081444.3999996185,9008,WL,C,4.0
2,15.400000095367432,learn,44599.99990463257,Mon Jan 27 2025 10:41:36 GMT-0500 (Eastern Standard Time),1089294.0999984741,A,let,I,t,336,1,7849.699998855591,1081444.3999996185,9008,WL,C,4.0
2,15.566999912261963,learn,44433.00008773804,Mon Jan 27 2025 10:41:36 GMT-0500 (Eastern Standard Time),1089461.0,A,lett,I,t,146,1,8016.60000038147,1081444.3999996185,9008,WL,C,4.0
2,15.75,learn,44250.0,Mon Jan 27 2025 10:41:36 GMT-0500 (Eastern Standard Time),1089644.3999996185,A,lette,I,e,155,1,8200.0,1081444.3999996185,9008,WL,C,4.0
2,15.966000080108643,learn,44033.99991989136,Mon Jan 27 2025 10:41:36 GMT-0500 (Eastern Standard Time),1089860.5,A,letter,I,r,195,1,8416.10000038147,1081444.3999996185,9008,WL,C,4.0
2,16.466000080108643,learn,43533.99991989136,Mon Jan 27 2025 10:41:36 GMT-0500 (Eastern Standard Time),1090360.299999237,A,letterenter,I,enter,478,1,8915.89999961853,1081444.3999996185,9008,WL,C,4.0
2,18.450000047683716,learn,41549.999952316284,Mon Jan 27 2025 10:41:36 GMT-0500 (Eastern Standard Time),1092344.299999237,A,c,I,c,1964,1,1983.6000003814697,1090360.6999988556,9008,WL,C,5.0
2,18.59999990463257,learn,41400.00009536743,Mon Jan 27 2025 10:41:36 GMT-0500 (Eastern Standard Time),1092494.0999984741,A,ca,I,a,137,1,2133.3999996185303,1090360.6999988556,9008,WL,C,5.0
2,18.967000007629395,learn,41032.999992370605,Mon Jan 27 2025 10:41:36 GMT-0500 (Eastern Standard Time),1092861.0999984741,A,cam,I,m,328,1,2500.3999996185303,1090360.6999988556,9008,WL,C,5.0
2,19.41700005531311,learn,40582.99994468689,Mon Jan 27 2025 10:41:36 GMT-0500 (Eastern Standard Time),1093311.0,A,camp,I,p,433,1,2950.300001144409,1090360.6999988556,9008,WL,C,5.0
2,20.0,learn,40000.0,Mon Jan 27 2025 10:41:36 GMT-0500 (Eastern Standard Time),1093893.799999237,A,campenter,I,enter,558,1,3533.1000003814697,1090360.6999988556,9008,WL,C,5.0
2,20.98300004005432,learn,39016.99995994568,Mon Jan 27 2025 10:41:36 GMT-0500 (Eastern Standard Time),1094877.5,A,b,I,b,973,1,983.4000015258789,1093894.0999984741,9008,WL,C,6.0
2,21.367000102996826,learn,38632.999897003174,Mon Jan 27 2025 10:41:36 GMT-0500 (Eastern Standard Time),1095260.8999996185,A,bo,I,o,370,1,1366.8000011444092,1093894.0999984741,9008,WL,C,6.0
2,22.367000102996826,learn,37632.999897003174,Mon Jan 27 2025 10:41:36 GMT-0500 (Eastern Standard Time),1096261.0999984741,A,boy,I,y,980,1,2367.0,1093894.0999984741,9008,WL,C,6.0
2,22.867000102996826,learn,37132.999897003174,Mon Jan 27 2025 10:41:36 GMT-0500 (Eastern Standard Time),1096760.5999984741,A,boyenter,I,enter,475,1,2866.5,1093894.0999984741,9008,WL,C,6.0
2,23.73300004005432,learn,36266.99995994568,Mon Jan 27 2025 10:41:36 GMT-0500 (Eastern Standard Time),1097627.1999988556,A,c,I,c,842,1,866.1999988555908,1096761.0,9008,WL,C,7.0
2,24.76699995994568,learn,35233.00004005432,Mon Jan 27 2025 10:41:36 GMT-0500 (Eastern Standard Time),1098660.799999237,A,,I,backspace,1014,1,1899.7999992370605,1096761.0,9008,WL,C,7.0
2,25.134000062942505,learn,34865.999937057495,Mon Jan 27 2025 10:41:36 GMT-0500 (Eastern Standard Time),1099027.799999237,A,d,I,d,348,1,2266.7999992370605,1096761.0,9008,WL,C,7.0
2,25.40000009536743,learn,34599.99990463257,Mon Jan 27 2025 10:41:36 GMT-0500 (Eastern Standard Time),1099294.1999988556,A,do,I,o,252,1,2533.199998855591,1096761.0,9008,WL,C,7.0
2,25.549999952316284,learn,34450.000047683716,Mon Jan 27 2025 10:41:36 GMT-0500 (Eastern Standard Time),1099444.299999237,A,doc,I,c,120,1,2683.2999992370605,1096761.0,9008,WL,C,7.0
2,25.93400001525879,learn,34065.99998474121,Mon Jan 27 2025 10:41:36 GMT-0500 (Eastern Standard Time),1099827.6999988556,A,doct,I,t,365,1,3066.699998855591,1096761.0,9008,WL,C,7.0
2,26.15000009536743,learn,33849.99990463257,Mon Jan 27 2025 10:41:36 GMT-0500 (Eastern Standard Time),1100044.3999996185,A,docto,I,o,189,1,3283.3999996185303,1096761.0,9008,WL,C,7.0
2,26.384000062942505,learn,33615.999937057495,Mon Jan 27 2025 10:41:36 GMT-0500 (Eastern Standard Time),1100277.799999237,A,doctor,I,r,211,1,3516.7999992370605,1096761.0,9008,WL,C,7.0
2,27.365999937057495,learn,32634.000062942505,Mon Jan 27 2025 10:41:36 GMT-0500 (Eastern Standard Time),1101260.3999996185,A,doctorenter,I,enter,970,1,4499.39999961853,1096761.0,9008,WL,C,7.0
2,32.76699995994568,learn,27233.00004005432,Mon Jan 27 2025 10:41:36 GMT-0500 (Eastern Standard Time),1106661.0,A,s,I,s,5383,1,5400.300001144409,1101260.6999988556,9008,WL,C,8.0
2,33.032999992370605,learn,26967.000007629395,Mon Jan 27 2025 10:41:36 GMT-0500 (Eastern Standard Time),1106927.1999988556,A,su,I,u,251,1,5666.5,1101260.6999988556,9008,WL,C,8.0
2,33.48300004005432,learn,26516.99995994568,Mon Jan 27 2025 10:41:36 GMT-0500 (Eastern Standard Time),1107376.799999237,A,sug,I,g,435,1,6116.10000038147,1101260.6999988556,9008,WL,C,8.0
2,33.700000047683716,learn,26299.999952316284,Mon Jan 27 2025 10:41:36 GMT-0500 (Eastern Standard Time),1107594.5,A,suga,I,a,193,1,6333.800001144409,1101260.6999988556,9008,WL,C,8.0
2,33.98399996757507,learn,26016.000032424927,Mon Jan 27 2025 10:41:36 GMT-0500 (Eastern Standard Time),1107877.799999237,A,sugar,I,r,260,1,6617.10000038147,1101260.6999988556,9008,WL,C,8.0
2,34.615999937057495,learn,25384.000062942505,Mon Jan 27 2025 10:41:36 GMT-0500 (Eastern Standard Time),1108510.5,A,sugarenter,I,enter,618,1,7249.800001144409,1101260.6999988556,9008,WL,C,8.0
2,35.782999992370605,learn,24217.000007629395,Mon Jan 27 2025 10:41:36 GMT-0500 (Eastern Standard Time),1109677.299999237,A,q,I,q,1157,1,1166.3999996185303,1108510.8999996185,9008,WL,C,9.0
2,36.115999937057495,learn,23884.000062942505,Mon Jan 27 2025 10:41:36 GMT-0500 (Eastern Standard Time),1110010.3999996185,A,qu,I,u,307,1,1499.5,1108510.8999996185,9008,WL,C,9.0
2,36.33400011062622,learn,23665.99988937378,Mon Jan 27 2025 10:41:36 GMT-0500 (Eastern Standard Time),1110227.799999237,A,que,I,e,200,1,1716.8999996185303,1108510.8999996185,9008,WL,C,9.0
2,36.5,learn,23500.0,Mon Jan 27 2025 10:41:36 GMT-0500 (Eastern Standard Time),1110394.3999996185,A,quee,I,e,132,1,1883.5,1108510.8999996185,9008,WL,C,9.0
2,36.799999952316284,learn,23200.000047683716,Mon Jan 27 2025 10:41:36 GMT-0500 (Eastern Standard Time),1110694.1999988556,A,queen,I,n,278,1,2183.2999992370605,1108510.8999996185,9008,WL,C,9.0
2,37.58299994468689,learn,22417.00005531311,Mon Jan 27 2025 10:41:36 GMT-0500 (Eastern Standard Time),1111477.299999237,A,queenenter,I,enter,762,1,2966.3999996185303,1108510.8999996185,9008,WL,C,9.0
2,41.76600003242493,learn,18233.999967575073,Mon Jan 27 2025 10:41:36 GMT-0500 (Eastern Standard Time),1115660.3999996185,A,f,I,f,4174,1,4182.800001144409,1111477.5999984741,9008,WL,C,10.0
2,42.08400011062622,learn,17915.99988937378,Mon Jan 27 2025 10:41:36 GMT-0500 (Eastern Standard Time),1115977.5999984741,A,fi,I,i,295,1,4500.0,1111477.5999984741,9008,WL,C,10.0
2,42.41700005531311,learn,17582.99994468689,Mon Jan 27 2025 10:41:36 GMT-0500 (Eastern Standard Time),1116311.0999984741,A,fie,I,e,310,1,4833.5,1111477.5999984741,9008,WL,C,10.0
2,42.56699991226196,learn,17433.000087738037,Mon Jan 27 2025 10:41:36 GMT-0500 (Eastern Standard Time),1116461.0,A,fiel,I,l,138,1,4983.400001525879,1111477.5999984741,9008,WL,C,10.0
2,42.799999952316284,learn,17200.000047683716,Mon Jan 27 2025 10:41:36 GMT-0500 (Eastern Standard Time),1116693.799999237,A,field,I,d,210,1,5216.200000762939,1111477.5999984741,9008,WL,C,10.0
2,43.26600003242493,learn,16733.999967575073,Mon Jan 27 2025 10:41:36 GMT-0500 (Eastern Standard Time),1117160.5,A,fieldenter,I,enter,446,1,5682.900001525879,1111477.5999984741,9008,WL,C,10.0
2,48.16700005531311,learn,11832.99994468689,Mon Jan 27 2025 10:41:36 GMT-0500 (Eastern Standard Time),1122061.0,A,c,I,c,4876,1,4900.200000762939,1117160.799999237,9008,WL,C,11.0
2,48.31699991226196,learn,11683.000087738037,Mon Jan 27 2025 10:41:36 GMT-0500 (Eastern Standard Time),1122211.1999988556,A,ca,I,a,129,1,5050.39999961853,1117160.799999237,9008,WL,C,11.0
2,48.43400001525879,learn,11565.999984741211,Mon Jan 27 2025 10:41:36 GMT-0500 (Eastern Standard Time),1122327.6999988556,A,cam,I,m,93,1,5166.89999961853,1117160.799999237,9008,WL,C,11.0
2,48.81699991226196,learn,11183.000087738037,Mon Jan 27 2025 10:41:36 GMT-0500 (Eastern Standard Time),1122711.0999984741,A,camp,I,p,361,1,5550.299999237061,1117160.799999237,9008,WL,C,11.0
2,49.5,learn,10500.0,Mon Jan 27 2025 10:41:36 GMT-0500 (Eastern Standard Time),1123394.0,A,campenter,I,enter,663,1,6233.200000762939,1117160.799999237,9008,WL,C,11.0
2,57.467000007629395,learn,2532.9999923706055,Mon Jan 27 2025 10:41:36 GMT-0500 (Eastern Standard Time),1131361.0999984741,A,w,I,w,7953,1,7966.799999237061,1123394.299999237,9008,WL,C,12.0
2,57.782999992370605,learn,2217.0000076293945,Mon Jan 27 2025 10:41:36 GMT-0500 (Eastern Standard Time),1131677.1999988556,A,wh,I,h,304,1,8282.89999961853,1123394.299999237,9008,WL,C,12.0
2,58.299999952316284,learn,1700.0000476837158,Mon Jan 27 2025 10:41:36 GMT-0500 (Eastern Standard Time),1132193.8999996185,A,whe,I,e,503,1,8799.60000038147,1123394.299999237,9008,WL,C,12.0
2,58.48399996757507,learn,1516.0000324249268,Mon Jan 27 2025 10:41:36 GMT-0500 (Eastern Standard Time),1132377.799999237,A,whea,I,a,162,1,8983.5,1123394.299999237,9008,WL,C,12.0
2,58.83299994468689,learn,1167.0000553131104,Mon Jan 27 2025 10:41:36 GMT-0500 (Eastern Standard Time),1132727.1999988556,A,wheat,I,t,327,1,9332.89999961853,1123394.299999237,9008,WL,C,12.0
2,59.33299994468689,learn,667.0000553131104,Mon Jan 27 2025 10:41:36 GMT-0500 (Eastern Standard Time),1133227.1999988556,A,wheatenter,I,enter,474,1,9832.89999961853,1123394.299999237,9008,WL,C,12.0
2,59.98399996757507,learn,16.000032424926758,Mon Jan 27 2025 10:41:36 GMT-0500 (Eastern Standard Time),1133877.8999996185,A,c,I,c,632,1,650.3000011444092,1133227.5999984741,9008,WL,C,13.0
2,60.01600003242493,learn,-16.000032424926758,Mon Jan 27 2025 10:41:36 GMT-0500 (Eastern Standard Time),1133910.5,A,cNone,I,None,20,1,682.9000015258789,1133227.5999984741,9008,WL,C,13.0
3,0.7000000476837158,learn,59299.999952316284,Mon Jan 27 2025 10:41:36 GMT-0500 (Eastern Standard Time),1208144.0,A,b,I,b,684,1,699.1000003814697,1207444.8999996185,9008,WL,C,1.0
3,0.9170000553131104,learn,59082.99994468689,Mon Jan 27 2025 10:41:36 GMT-0500 (Eastern Standard Time),1208361.1999988556,A,bo,I,o,194,1,916.2999992370605,1207444.8999996185,9008,WL,C,1.0
3,1.5,learn,58500.0,Mon Jan 27 2025 10:41:36 GMT-0500 (Eastern Standard Time),1208944.3999996185,A,bod,I,d,567,1,1499.5,1207444.8999996185,9008,WL,C,1.0
3,1.75,learn,58250.0,Mon Jan 27 2025 10:41:36 GMT-0500 (Eastern Standard Time),1209194.1999988556,A,body,I,y,223,1,1749.2999992370605,1207444.8999996185,9008,WL,C,1.0
3,2.383000135421753,learn,57616.99986457825,Mon Jan 27 2025 10:41:36 GMT-0500 (Eastern Standard Time),1209827.299999237,A,bodyenter,I,enter,605,1,2382.3999996185303,1207444.8999996185,9008,WL,C,1.0
3,3.2829999923706055,learn,56717.000007629395,Mon Jan 27 2025 10:41:36 GMT-0500 (Eastern Standard Time),1210727.1999988556,A,h,I,h,880,1,899.6000003814697,1209827.5999984741,9008,WL,C,2.0
3,3.4839999675750732,learn,56516.00003242493,Mon Jan 27 2025 10:41:36 GMT-0500 (Eastern Standard Time),1210927.799999237,A,ho,I,o,187,1,1100.2000007629395,1209827.5999984741,9008,WL,C,2.0
3,3.934000015258789,learn,56065.99998474121,Mon Jan 27 2025 10:41:36 GMT-0500 (Eastern Standard Time),1211377.8999996185,A,hom,I,m,432,1,1550.3000011444092,1209827.5999984741,9008,WL,C,2.0
3,4.184000015258789,learn,55815.99998474121,Mon Jan 27 2025 10:41:36 GMT-0500 (Eastern Standard Time),1211627.6999988556,A,home,I,e,222,1,1800.1000003814697,1209827.5999984741,9008,WL,C,2.0
3,5.317000150680542,learn,54682.99984931946,Mon Jan 27 2025 10:41:36 GMT-0500 (Eastern Standard Time),1212760.5999984741,A,homeenter,I,enter,1106,1,2933.0,1209827.5999984741,9008,WL,C,2.0
3,6.2170000076293945,learn,53782.999992370605,Mon Jan 27 2025 10:41:36 GMT-0500 (Eastern Standard Time),1213661.0,A,b,I,b,891,1,900.1000003814697,1212760.8999996185,9008,WL,C,3.0
3,6.5340001583099365,learn,53465.99984169006,Mon Jan 27 2025 10:41:36 GMT-0500 (Eastern Standard Time),1213978.0,A,bo,I,o,293,1,1217.1000003814697,1212760.8999996185,9008,WL,C,3.0
3,7.0350000858306885,learn,52964.99991416931,Mon Jan 27 2025 10:41:36 GMT-0500 (Eastern Standard Time),1214478.6999988556,A,bod,I,d,487,1,1717.7999992370605,1212760.8999996185,9008,WL,C,3.0
3,7.883000135421753,learn,52116.99986457825,Mon Jan 27 2025 10:41:36 GMT-0500 (Eastern Standard Time),1215327.5,A,bo,I,backspace,824,1,2566.6000003814697,1212760.8999996185,9008,WL,C,3.0
3,9.483000040054321,learn,50516.99995994568,Mon Jan 27 2025 10:41:36 GMT-0500 (Eastern Standard Time),1216927.3999996185,A,boy,I,y,1584,1,4166.5,1212760.8999996185,9008,WL,C,3.0
3,9.983000040054321,learn,50016.99995994568,Mon Jan 27 2025 10:41:36 GMT-0500 (Eastern Standard Time),1217427.1999988556,A,boyenter,I,enter,480,1,4666.299999237061,1212760.8999996185,9008,WL,C,3.0
3,10.549999952316284,learn,49450.000047683716,Mon Jan 27 2025 10:41:36 GMT-0500 (Eastern Standard Time),1217994.5,A,c,I,c,544,1,566.9000015258789,1217427.5999984741,9008,WL,C,4.0
3,10.733999967575073,learn,49266.00003242493,Mon Jan 27 2025 10:41:36 GMT-0500 (Eastern Standard Time),1218177.8999996185,A,ca,I,a,166,1,750.3000011444092,1217427.5999984741,9008,WL,C,4.0
3,11.117000102996826,learn,48882.999897003174,Mon Jan 27 2025 10:41:36 GMT-0500 (Eastern Standard Time),1218561.0,A,cat,I,t,367,1,1133.400001525879,1217427.5999984741,9008,WL,C,4.0
3,12.134000062942505,learn,47865.999937057495,Mon Jan 27 2025 10:41:36 GMT-0500 (Eastern Standard Time),1219577.6999988556,A,catt,I,t,982,1,2150.1000003814697,1217427.5999984741,9008,WL,C,4.0
3,12.41700005531311,learn,47582.99994468689,Mon Jan 27 2025 10:41:36 GMT-0500 (Eastern Standard Time),1219861.1999988556,A,cattl,I,l,263,1,2433.6000003814697,1217427.5999984741,9008,WL,C,4.0
3,12.600000143051147,learn,47399.99985694885,Mon Jan 27 2025 10:41:36 GMT-0500 (Eastern Standard Time),1220044.0999984741,A,cattle,I,e,172,1,2616.5,1217427.5999984741,9008,WL,C,4.0
3,13.100000143051147,learn,46899.99985694885,Mon Jan 27 2025 10:41:36 GMT-0500 (Eastern Standard Time),1220544.0,A,cattleenter,I,enter,484,1,3116.400001525879,1217427.5999984741,9008,WL,C,4.0
3,15.83400011062622,learn,44165.99988937378,Mon Jan 27 2025 10:41:36 GMT-0500 (Eastern Standard Time),1223277.5999984741,A,d,I,d,2724,1,2733.2999992370605,1220544.299999237,9008,WL,C,5.0
3,16.117000102996826,learn,43882.999897003174,Mon Jan 27 2025 10:41:36 GMT-0500 (Eastern Standard Time),1223561.0,A,do,I,o,258,1,3016.7000007629395,1220544.299999237,9008,WL,C,5.0
3,16.33400011062622,learn,43665.99988937378,Mon Jan 27 2025 10:41:36 GMT-0500 (Eastern Standard Time),1223778.0,A,doc,I,c,198,1,3233.7000007629395,1220544.299999237,9008,WL,C,5.0
3,16.784000158309937,learn,43215.99984169006,Mon Jan 27 2025 10:41:36 GMT-0500 (Eastern Standard Time),1224227.799999237,A,doct,I,t,431,1,3683.5,1220544.299999237,9008,WL,C,5.0
3,17.350000143051147,learn,42649.99985694885,Mon Jan 27 2025 10:41:36 GMT-0500 (Eastern Standard Time),1224794.5,A,docto,I,o,541,1,4250.200000762939,1220544.299999237,9008,WL,C,5.0
3,17.51699995994568,learn,42483.00004005432,Mon Jan 27 2025 10:41:36 GMT-0500 (Eastern Standard Time),1224961.1999988556,A,doctor,I,r,149,1,4416.89999961853,1220544.299999237,9008,WL,C,5.0
3,18.299999952316284,learn,41700.000047683716,Mon Jan 27 2025 10:41:36 GMT-0500 (Eastern Standard Time),1225743.8999996185,A,doctorenter,I,enter,767,1,5199.60000038147,1220544.299999237,9008,WL,C,5.0
3,19.049999952316284,learn,40950.000047683716,Mon Jan 27 2025 10:41:36 GMT-0500 (Eastern Standard Time),1226494.299999237,A,c,I,c,739,1,750.1000003814697,1225744.1999988556,9008,WL,C,6.0
3,19.217000007629395,learn,40782.999992370605,Mon Jan 27 2025 10:41:36 GMT-0500 (Eastern Standard Time),1226661.0999984741,A,ca,I,a,146,1,916.8999996185303,1225744.1999988556,9008,WL,C,6.0
3,19.450000047683716,learn,40549.999952316284,Mon Jan 27 2025 10:41:36 GMT-0500 (Eastern Standard Time),1226894.3999996185,A,cam,I,m,219,1,1150.2000007629395,1225744.1999988556,9008,WL,C,6.0
3,20.217000007629395,learn,39782.999992370605,Mon Jan 27 2025 10:41:36 GMT-0500 (Eastern Standard Time),1227661.1999988556,A,camp,I,p,740,1,1917.0,1225744.1999988556,9008,WL,C,6.0
3,20.90000009536743,learn,39099.99990463257,Mon Jan 27 2025 10:41:36 GMT-0500 (Eastern Standard Time),1228343.8999996185,A,campenter,I,enter,659,1,2599.7000007629395,1225744.1999988556,9008,WL,C,6.0
3,23.784000158309937,learn,36215.99984169006,Mon Jan 27 2025 10:41:36 GMT-0500 (Eastern Standard Time),1231227.799999237,A,f,I,f,2860,1,2883.6000003814697,1228344.1999988556,9008,WL,C,7.0
3,24.100000143051147,learn,35899.99985694885,Mon Jan 27 2025 10:41:36 GMT-0500 (Eastern Standard Time),1231544.299999237,A,fi,I,i,291,1,3200.1000003814697,1228344.1999988556,9008,WL,C,7.0
3,24.367000102996826,learn,35632.999897003174,Mon Jan 27 2025 10:41:36 GMT-0500 (Eastern Standard Time),1231811.1999988556,A,fie,I,e,248,1,3467.0,1228344.1999988556,9008,WL,C,7.0
3,24.567000150680542,learn,35432.99984931946,Mon Jan 27 2025 10:41:36 GMT-0500 (Eastern Standard Time),1232011.0999984741,A,fiel,I,l,173,1,3666.8999996185303,1228344.1999988556,9008,WL,C,7.0
3,24.68400001525879,learn,35315.99998474121,Mon Jan 27 2025 10:41:36 GMT-0500 (Eastern Standard Time),1232127.799999237,A,fiels,I,s,92,1,3783.6000003814697,1228344.1999988556,9008,WL,C,7.0
3,25.133000135421753,learn,34866.99986457825,Mon Jan 27 2025 10:41:36 GMT-0500 (Eastern Standard Time),1232577.3999996185,A,fielsenter,I,enter,433,1,4233.200000762939,1228344.1999988556,9008,WL,C,7.0
3,26.01699995994568,learn,33983.00004005432,Mon Jan 27 2025 10:41:36 GMT-0500 (Eastern Standard Time),1233461.0,A,s,I,s,866,1,883.3000011444092,1232577.6999988556,9008,WL,C,8.0
3,26.467000007629395,learn,33532.999992370605,Mon Jan 27 2025 10:41:36 GMT-0500 (Eastern Standard Time),1233911.1999988556,A,su,I,u,419,1,1333.5,1232577.6999988556,9008,WL,C,8.0
3,27.16700005531311,learn,32832.99994468689,Mon Jan 27 2025 10:41:36 GMT-0500 (Eastern Standard Time),1234611.1999988556,A,sug,I,g,681,1,2033.5,1232577.6999988556,9008,WL,C,8.0
3,27.41700005531311,learn,32582.99994468689,Mon Jan 27 2025 10:41:36 GMT-0500 (Eastern Standard Time),1234861.0999984741,A,suga,I,a,222,1,2283.3999996185303,1232577.6999988556,9008,WL,C,8.0
3,27.76699995994568,learn,32233.00004005432,Mon Jan 27 2025 10:41:36 GMT-0500 (Eastern Standard Time),1235211.0999984741,A,sugar,I,r,313,1,2633.3999996185303,1232577.6999988556,9008,WL,C,8.0
3,28.717000007629395,learn,31282.999992370605,Mon Jan 27 2025 10:41:36 GMT-0500 (Eastern Standard Time),1236160.5999984741,A,sugarenter,I,enter,932,1,3582.8999996185303,1232577.6999988556,9008,WL,C,8.0
3,29.75100016593933,learn,30248.99983406067,Mon Jan 27 2025 10:41:36 GMT-0500 (Eastern Standard Time),1237194.5999984741,A,s,I,s,1011,1,1033.599998474121,1236161.0,9008,WL,C,9.0
3,30.08300018310547,learn,29916.99981689453,Mon Jan 27 2025 10:41:36 GMT-0500 (Eastern Standard Time),1237527.299999237,A,sh,I,h,309,1,1366.2999992370605,1236161.0,9008,WL,C,9.0
3,30.534000158309937,learn,29465.999841690063,Mon Jan 27 2025 10:41:36 GMT-0500 (Eastern Standard Time),1237977.799999237,A,sho,I,o,427,1,1816.7999992370605,1236161.0,9008,WL,C,9.0
3,30.75,learn,29250.0,Mon Jan 27 2025 10:41:36 GMT-0500 (Eastern Standard Time),1238194.5,A,shor,I,r,197,1,2033.5,1236161.0,9008,WL,C,9.0
3,30.983999967575073,learn,29016.000032424927,Mon Jan 27 2025 10:41:36 GMT-0500 (Eastern Standard Time),1238427.799999237,A,shore,I,e,205,1,2266.7999992370605,1236161.0,9008,WL,C,9.0
3,31.48300004005432,learn,28516.99995994568,Mon Jan 27 2025 10:41:36 GMT-0500 (Eastern Standard Time),1238927.299999237,A,shoreenter,I,enter,485,1,2766.2999992370605,1236161.0,9008,WL,C,9.0
3,32.884000062942505,learn,27115.999937057495,Mon Jan 27 2025 10:41:36 GMT-0500 (Eastern Standard Time),1240327.8999996185,A,w,I,w,1380,1,1400.2000007629395,1238927.6999988556,9008,WL,C,10.0
3,33.51699995994568,learn,26483.00004005432,Mon Jan 27 2025 10:41:36 GMT-0500 (Eastern Standard Time),1240961.1999988556,A,wh,I,h,615,1,2033.5,1238927.6999988556,9008,WL,C,10.0
3,33.75,learn,26250.0,Mon Jan 27 2025 10:41:36 GMT-0500 (Eastern Standard Time),1241194.0,A,whe,I,e,206,1,2266.300001144409,1238927.6999988556,9008,WL,C,10.0
3,33.95099997520447,learn,26049.000024795532,Mon Jan 27 2025 10:41:36 GMT-0500 (Eastern Standard Time),1241394.6999988556,A,whea,I,a,184,1,2467.0,1238927.6999988556,9008,WL,C,10.0
3,34.25,learn,25750.0,Mon Jan 27 2025 10:41:36 GMT-0500 (Eastern Standard Time),1241693.8999996185,A,wheat,I,t,276,1,2766.2000007629395,1238927.6999988556,9008,WL,C,10.0
3,34.76699995994568,learn,25233.00004005432,Mon Jan 27 2025 10:41:36 GMT-0500 (Eastern Standard Time),1242210.6999988556,A,wheatenter,I,enter,501,1,3283.0,1238927.6999988556,9008,WL,C,10.0
3,37.75,learn,22250.0,Mon Jan 27 2025 10:41:36 GMT-0500 (Eastern Standard Time),1245194.299999237,A,c,I,c,2961,1,2983.2000007629395,1242211.0999984741,9008,WL,C,11.0
3,37.90000009536743,learn,22099.99990463257,Mon Jan 27 2025 10:41:36 GMT-0500 (Eastern Standard Time),1245344.3999996185,A,ca,I,a,132,1,3133.300001144409,1242211.0999984741,9008,WL,C,11.0
3,38.23300004005432,learn,21766.99995994568,Mon Jan 27 2025 10:41:36 GMT-0500 (Eastern Standard Time),1245677.5,A,cat,I,t,311,1,3466.400001525879,1242211.0999984741,9008,WL,C,11.0
3,38.41700005531311,learn,21582.99994468689,Mon Jan 27 2025 10:41:36 GMT-0500 (Eastern Standard Time),1245860.6999988556,A,catt,I,t,163,1,3649.6000003814697,1242211.0999984741,9008,WL,C,11.0
3,39.60000014305115,learn,20399.999856948853,Mon Jan 27 2025 10:41:36 GMT-0500 (Eastern Standard Time),1247044.3999996185,A,cat,I,backspace,1161,1,4833.300001144409,1242211.0999984741,9008,WL,C,11.0
3,40.134000062942505,learn,19865.999937057495,Mon Jan 27 2025 10:41:36 GMT-0500 (Eastern Standard Time),1247578.0,A,catl,I,l,500,1,5366.900001525879,1242211.0999984741,9008,WL,C,11.0
3,40.25,learn,19750.0,Mon Jan 27 2025 10:41:36 GMT-0500 (Eastern Standard Time),1247694.299999237,A,catle,I,e,103,1,5483.200000762939,1242211.0999984741,9008,WL,C,11.0
3,40.717000007629395,learn,19282.999992370605,Mon Jan 27 2025 10:41:36 GMT-0500 (Eastern Standard Time),1248160.6999988556,A,catleenter,I,enter,449,1,5949.60000038147,1242211.0999984741,9008,WL,C,11.0
3,46.367000102996826,learn,13632.999897003174,Mon Jan 27 2025 10:41:36 GMT-0500 (Eastern Standard Time),1253811.299999237,A,c,I,c,5636,1,5650.200000762939,1248161.0999984741,9008,WL,C,12.0
3,46.63300013542175,learn,13366.999864578247,Mon Jan 27 2025 10:41:36 GMT-0500 (Eastern Standard Time),1254077.5999984741,A,co,I,o,251,1,5916.5,1248161.0999984741,9008,WL,C,12.0
3,46.91700005531311,learn,13082.99994468689,Mon Jan 27 2025 10:41:36 GMT-0500 (Eastern Standard Time),1254361.0999984741,A,cor,I,r,260,1,6200.0,1248161.0999984741,9008,WL,C,12.0
3,47.35000014305115,learn,12649.999856948853,Mon Jan 27 2025 10:41:36 GMT-0500 (Eastern Standard Time),1254794.5,A,corn,I,n,405,1,6633.400001525879,1248161.0999984741,9008,WL,C,12.0
3,47.83300018310547,learn,12166.999816894531,Mon Jan 27 2025 10:41:36 GMT-0500 (Eastern Standard Time),1255277.299999237,A,cornenter,I,enter,470,1,7116.200000762939,1248161.0999984741,9008,WL,C,12.0
3,48.717000007629395,learn,11282.999992370605,Mon Jan 27 2025 10:41:36 GMT-0500 (Eastern Standard Time),1256160.6999988556,A,n,I,n,870,1,882.8999996185303,1255277.799999237,9008,WL,C,13.0
3,49.08400011062622,learn,10915.99988937378,Mon Jan 27 2025 10:41:36 GMT-0500 (Eastern Standard Time),1256527.8999996185,A,na,I,a,354,1,1250.1000003814697,1255277.799999237,9008,WL,C,13.0
3,49.31700015068054,learn,10682.999849319458,Mon Jan 27 2025 10:41:36 GMT-0500 (Eastern Standard Time),1256761.1999988556,A,nai,I,i,209,1,1483.3999996185303,1255277.799999237,9008,WL,C,13.0
3,49.83300018310547,learn,10166.999816894531,Mon Jan 27 2025 10:41:36 GMT-0500 (Eastern Standard Time),1257277.0,A,nail,I,l,502,1,1999.2000007629395,1255277.799999237,9008,WL,C,13.0
3,50.35000014305115,learn,9649.999856948853,Mon Jan 27 2025 10:41:36 GMT-0500 (Eastern Standard Time),1257794.0,A,nailenter,I,enter,503,1,2516.2000007629395,1255277.799999237,9008,WL,C,13.0
3,50.85000014305115,learn,9149.999856948853,Mon Jan 27 2025 10:41:36 GMT-0500 (Eastern Standard Time),1258294.1999988556,A,l,I,l,482,1,499.79999923706055,1257794.3999996185,9008,WL,C,14.0
3,51.032999992370605,learn,8967.000007629395,Mon Jan 27 2025 10:41:36 GMT-0500 (Eastern Standard Time),1258477.3999996185,A,le,I,e,162,1,683.0,1257794.3999996185,9008,WL,C,14.0
3,51.40000009536743,learn,8599.999904632568,Mon Jan 27 2025 10:41:36 GMT-0500 (Eastern Standard Time),1258844.5,A,let,I,t,334,1,1050.1000003814697,1257794.3999996185,9008,WL,C,14.0
3,51.549999952316284,learn,8450.000047683716,Mon Jan 27 2025 10:41:36 GMT-0500 (Eastern Standard Time),1258994.3999996185,A,lett,I,t,132,1,1200.0,1257794.3999996185,9008,WL,C,14.0
3,51.68400001525879,learn,8315.999984741211,Mon Jan 27 2025 10:41:36 GMT-0500 (Eastern Standard Time),1259127.8999996185,A,lette,I,e,110,1,1333.5,1257794.3999996185,9008,WL,C,14.0
3,51.91700005531311,learn,8082.99994468689,Mon Jan 27 2025 10:41:36 GMT-0500 (Eastern Standard Time),1259361.0999984741,A,letter,I,r,207,1,1566.6999988555908,1257794.3999996185,9008,WL,C,14.0
3,52.76699995994568,learn,7233.000040054321,Mon Jan 27 2025 10:41:36 GMT-0500 (Eastern Standard Time),1260210.6999988556,A,letterenter,I,enter,832,1,2416.2999992370605,1257794.3999996185,9008,WL,C,14.0
3,58.93300008773804,learn,1066.999912261963,Mon Jan 27 2025 10:41:36 GMT-0500 (Eastern Standard Time),1266377.5,A,s,I,s,6145,1,6166.400001525879,1260211.0999984741,9008,WL,C,15.0
3,59.25,learn,750.0,Mon Jan 27 2025 10:41:36 GMT-0500 (Eastern Standard Time),1266694.3999996185,A,sh,I,h,298,1,6483.300001144409,1260211.0999984741,9008,WL,C,15.0
3,59.63300013542175,learn,366.99986457824707,Mon Jan 27 2025 10:41:36 GMT-0500 (Eastern Standard Time),1267077.3999996185,A,sho,I,o,362,1,6866.300001144409,1260211.0999984741,9008,WL,C,15.0
3,59.81700015068054,learn,182.999849319458,Mon Jan 27 2025 10:41:36 GMT-0500 (Eastern Standard Time),1267261.0999984741,A,shor,I,r,170,1,7050.0,1260211.0999984741,9008,WL,C,15.0
3,60.01699995994568,learn,-16.99995994567871,Mon Jan 27 2025 10:41:36 GMT-0500 (Eastern Standard Time),1267461.1999988556,A,shorNone,I,None,188,1,7250.10000038147,1260211.0999984741,9008,WL,C,15.0
4,1.7000000476837158,learn,58299.999952316284,Mon Jan 27 2025 10:41:36 GMT-0500 (Eastern Standard Time),1339561.3999996185,A,d,I,d,1677,1,1699.3999996185303,1337862.0,9008,WL,C,1.0
4,2.0,learn,58000.0,Mon Jan 27 2025 10:41:36 GMT-0500 (Eastern Standard Time),1339860.799999237,A,do,I,o,278,1,1998.7999992370605,1337862.0,9008,WL,C,1.0
4,2.183000087738037,learn,57816.99991226196,Mon Jan 27 2025 10:41:36 GMT-0500 (Eastern Standard Time),1340044.1999988556,A,doc,I,c,173,1,2182.199998855591,1337862.0,9008,WL,C,1.0
4,2.617000102996826,learn,57382.999897003174,Mon Jan 27 2025 10:41:36 GMT-0500 (Eastern Standard Time),1340477.6999988556,A,doct,I,t,414,1,2615.699998855591,1337862.0,9008,WL,C,1.0
4,2.9000000953674316,learn,57099.99990463257,Mon Jan 27 2025 10:41:36 GMT-0500 (Eastern Standard Time),1340761.299999237,A,docto,I,o,259,1,2899.2999992370605,1337862.0,9008,WL,C,1.0
4,3.183000087738037,learn,56816.99991226196,Mon Jan 27 2025 10:41:36 GMT-0500 (Eastern Standard Time),1341044.5,A,doctor,I,r,263,1,3182.5,1337862.0,9008,WL,C,1.0
4,3.7339999675750732,learn,56266.00003242493,Mon Jan 27 2025 10:41:36 GMT-0500 (Eastern Standard Time),1341595.0999984741,A,doctorenter,I,enter,523,1,3733.099998474121,1337862.0,9008,WL,C,1.0
4,5.4670000076293945,learn,54532.999992370605,Mon Jan 27 2025 10:41:36 GMT-0500 (Eastern Standard Time),1343328.0,A,b,I,b,1720,1,1732.3000011444092,1341595.6999988556,9008,WL,C,2.0
4,6.033999919891357,learn,53966.00008010864,Mon Jan 27 2025 10:41:36 GMT-0500 (Eastern Standard Time),1343894.6999988556,A,bo,I,o,545,1,2299.0,1341595.6999988556,9008,WL,C,2.0
4,6.2829999923706055,learn,53717.000007629395,Mon Jan 27 2025 10:41:36 GMT-0500 (Eastern Standard Time),1344144.5,A,bod,I,d,235,1,2548.800001144409,1341595.6999988556,9008,WL,C,2.0
4,6.615999937057495,learn,53384.000062942505,Mon Jan 27 2025 10:41:36 GMT-0500 (Eastern Standard Time),1344477.3999996185,A,body,I,y,320,1,2881.7000007629395,1341595.6999988556,9008,WL,C,2.0
4,7.450000047683716,learn,52549.999952316284,Mon Jan 27 2025 10:41:36 GMT-0500 (Eastern Standard Time),1345310.799999237,A,bodyenter,I,enter,823,1,3715.1000003814697,1341595.6999988556,9008,WL,C,2.0
4,9.099999904632568,learn,50900.00009536743,Mon Jan 27 2025 10:41:36 GMT-0500 (Eastern Standard Time),1346961.1999988556,A,b,I,b,1637,1,1650.1000003814697,1345311.0999984741,9008,WL,C,3.0
4,9.400000095367432,learn,50599.99990463257,Mon Jan 27 2025 10:41:36 GMT-0500 (Eastern Standard Time),1347261.0999984741,A,bo,I,o,288,1,1950.0,1345311.0999984741,9008,WL,C,3.0
4,10.016999959945679,learn,49983.00004005432,Mon Jan 27 2025 10:41:36 GMT-0500 (Eastern Standard Time),1347877.799999237,A,boy,I,y,595,1,2566.7000007629395,1345311.0999984741,9008,WL,C,3.0
4,10.532999992370605,learn,49467.000007629395,Mon Jan 27 2025 10:41:36 GMT-0500 (Eastern Standard Time),1348394.0999984741,A,boyenter,I,enter,491,1,3083.0,1345311.0999984741,9008,WL,C,3.0
4,11.0,learn,49000.0,Mon Jan 27 2025 10:41:36 GMT-0500 (Eastern Standard Time),1348861.1999988556,A,s,I,s,458,1,466.79999923706055,1348394.3999996185,9008,WL,C,4.0
4,11.25,learn,48750.0,Mon Jan 27 2025 10:41:36 GMT-0500 (Eastern Standard Time),1349110.799999237,A,sh,I,h,229,1,716.3999996185303,1348394.3999996185,9008,WL,C,4.0
4,11.733999967575073,learn,48266.00003242493,Mon Jan 27 2025 10:41:36 GMT-0500 (Eastern Standard Time),1349594.5999984741,A,sho,I,o,461,1,1200.1999988555908,1348394.3999996185,9008,WL,C,4.0
4,11.967000007629395,learn,48032.999992370605,Mon Jan 27 2025 10:41:36 GMT-0500 (Eastern Standard Time),1349828.0999984741,A,shor,I,r,212,1,1433.6999988555908,1348394.3999996185,9008,WL,C,4.0
4,12.200000047683716,learn,47799.999952316284,Mon Jan 27 2025 10:41:36 GMT-0500 (Eastern Standard Time),1350061.1999988556,A,shore,I,e,196,1,1666.7999992370605,1348394.3999996185,9008,WL,C,4.0
4,13.150000095367432,learn,46849.99990463257,Mon Jan 27 2025 10:41:36 GMT-0500 (Eastern Standard Time),1351010.8999996185,A,shoreenter,I,enter,923,1,2616.5,1348394.3999996185,9008,WL,C,4.0
4,13.799999952316284,learn,46200.000047683716,Mon Jan 27 2025 10:41:36 GMT-0500 (Eastern Standard Time),1351661.0999984741,A,c,I,c,640,1,649.8999996185303,1351011.1999988556,9008,WL,C,5.0
4,13.983999967575073,learn,46016.00003242493,Mon Jan 27 2025 10:41:36 GMT-0500 (Eastern Standard Time),1351844.6999988556,A,ca,I,a,165,1,833.5,1351011.1999988556,9008,WL,C,5.0
4,14.5,learn,45500.0,Mon Jan 27 2025 10:41:36 GMT-0500 (Eastern Standard Time),1352361.3999996185,A,cat,I,t,493,1,1350.2000007629395,1351011.1999988556,9008,WL,C,5.0
4,14.683000087738037,learn,45316.99991226196,Mon Jan 27 2025 10:41:36 GMT-0500 (Eastern Standard Time),1352544.5999984741,A,catt,I,t,165,1,1533.3999996185303,1351011.1999988556,9008,WL,C,5.0
4,15.466000080108643,learn,44533.99991989136,Mon Jan 27 2025 10:41:36 GMT-0500 (Eastern Standard Time),1353327.5,A,cattl,I,l,767,1,2316.300001144409,1351011.1999988556,9008,WL,C,5.0
4,15.650000095367432,learn,44349.99990463257,Mon Jan 27 2025 10:41:36 GMT-0500 (Eastern Standard Time),1353511.1999988556,A,cattle,I,e,163,1,2500.0,1351011.1999988556,9008,WL,C,5.0
4,16.75,learn,43250.0,Mon Jan 27 2025 10:41:36 GMT-0500 (Eastern Standard Time),1354610.799999237,A,cattleenter,I,enter,1081,1,3599.6000003814697,1351011.1999988556,9008,WL,C,5.0
4,17.782999992370605,learn,42217.000007629395,Mon Jan 27 2025 10:41:36 GMT-0500 (Eastern Standard Time),1355644.3999996185,A,b,I,b,1009,1,1033.2000007629395,1354611.1999988556,9008,WL,C,6.0
4,18.382999897003174,learn,41617.000102996826,Mon Jan 27 2025 10:41:36 GMT-0500 (Eastern Standard Time),1356244.5999984741,A,,I,backspace,581,1,1633.3999996185303,1354611.1999988556,9008,WL,C,6.0
4,18.81599998474121,learn,41184.00001525879,Mon Jan 27 2025 10:41:36 GMT-0500 (Eastern Standard Time),1356677.1999988556,A,n,I,n,409,1,2066.0,1354611.1999988556,9008,WL,C,6.0
4,18.983999967575073,learn,41016.00003242493,Mon Jan 27 2025 10:41:36 GMT-0500 (Eastern Standard Time),1356844.6999988556,A,na,I,a,157,1,2233.5,1354611.1999988556,9008,WL,C,6.0
4,19.132999897003174,learn,40867.000102996826,Mon Jan 27 2025 10:41:36 GMT-0500 (Eastern Standard Time),1356994.0999984741,A,nai,I,i,126,1,2382.8999996185303,1354611.1999988556,9008,WL,C,6.0
4,19.615999937057495,learn,40384.000062942505,Mon Jan 27 2025 10:41:36 GMT-0500 (Eastern Standard Time),1357477.299999237,A,nail,I,l,466,1,2866.1000003814697,1354611.1999988556,9008,WL,C,6.0
4,20.0,learn,40000.0,Mon Jan 27 2025 10:41:36 GMT-0500 (Eastern Standard Time),1357860.5,A,nails,I,s,366,1,3249.300001144409,1354611.1999988556,9008,WL,C,6.0
4,20.91600012779236,learn,39083.99987220764,Mon Jan 27 2025 10:41:36 GMT-0500 (Eastern Standard Time),1358777.5,A,nailsenter,I,enter,895,1,4166.300001144409,1354611.1999988556,9008,WL,C,6.0
4,21.933000087738037,learn,38066.99991226196,Mon Jan 27 2025 10:41:36 GMT-0500 (Eastern Standard Time),1359793.8999996185,A,s,I,s,1001,1,1016.0,1358777.8999996185,9008,WL,C,7.0
4,22.216000080108643,learn,37783.99991989136,Mon Jan 27 2025 10:41:36 GMT-0500 (Eastern Standard Time),1360077.299999237,A,sh,I,h,272,1,1299.3999996185303,1358777.8999996185,9008,WL,C,7.0
4,22.58299994468689,learn,37417.00005531311,Mon Jan 27 2025 10:41:36 GMT-0500 (Eastern Standard Time),1360444.1999988556,A,sho,I,o,342,1,1666.2999992370605,1358777.8999996185,9008,WL,C,7.0
4,22.83299994468689,learn,37167.00005531311,Mon Jan 27 2025 10:41:36 GMT-0500 (Eastern Standard Time),1360694.0999984741,A,shor,I,r,231,1,1916.1999988555908,1358777.8999996185,9008,WL,C,7.0
4,23.032999992370605,learn,36967.000007629395,Mon Jan 27 2025 10:41:36 GMT-0500 (Eastern Standard Time),1360894.5999984741,A,shore,I,e,190,1,2116.699998855591,1358777.8999996185,9008,WL,C,7.0
4,23.450000047683716,learn,36549.999952316284,Mon Jan 27 2025 10:41:36 GMT-0500 (Eastern Standard Time),1361310.6999988556,A,shoreenter,I,enter,401,1,2532.7999992370605,1358777.8999996185,9008,WL,C,7.0
4,24.450000047683716,learn,35549.999952316284,Mon Jan 27 2025 10:41:36 GMT-0500 (Eastern Standard Time),1362311.299999237,A,q,I,q,981,1,1000.2999992370605,1361311.0,9008,WL,C,8.0
4,24.717000007629395,learn,35282.999992370605,Mon Jan 27 2025 10:41:36 GMT-0500 (Eastern Standard Time),1362577.799999237,A,qu,I,u,250,1,1266.7999992370605,1361311.0,9008,WL,C,8.0
4,24.967000007629395,learn,35032.999992370605,Mon Jan 27 2025 10:41:36 GMT-0500 (Eastern Standard Time),1362827.8999996185,A,que,I,e,219,1,1516.8999996185303,1361311.0,9008,WL,C,8.0
4,25.117000102996826,learn,34882.999897003174,Mon Jan 27 2025 10:41:36 GMT-0500 (Eastern Standard Time),1362978.0,A,quee,I,e,134,1,1667.0,1361311.0,9008,WL,C,8.0
4,25.41700005531311,learn,34582.99994468689,Mon Jan 27 2025 10:41:36 GMT-0500 (Eastern Standard Time),1363277.5999984741,A,queen,I,n,287,1,1966.599998474121,1361311.0,9008,WL,C,8.0
4,26.40000009536743,learn,33599.99990463257,Mon Jan 27 2025 10:41:36 GMT-0500 (Eastern Standard Time),1364260.8999996185,A,queenenter,I,enter,962,1,2949.8999996185303,1361311.0,9008,WL,C,8.0
4,27.651000022888184,learn,32348.999977111816,Mon Jan 27 2025 10:41:36 GMT-0500 (Eastern Standard Time),1365511.5999984741,A,s,I,s,1232,1,1250.3999996185303,1364261.1999988556,9008,WL,C,9.0
4,27.933000087738037,learn,32066.999912261963,Mon Jan 27 2025 10:41:36 GMT-0500 (Eastern Standard Time),1365794.5,A,su,I,u,266,1,1533.3000011444092,1364261.1999988556,9008,WL,C,9.0
4,28.433000087738037,learn,31566.999912261963,Mon Jan 27 2025 10:41:36 GMT-0500 (Eastern Standard Time),1366294.5,A,sug,I,g,478,1,2033.3000011444092,1364261.1999988556,9008,WL,C,9.0
4,28.59999990463257,learn,31400.00009536743,Mon Jan 27 2025 10:41:36 GMT-0500 (Eastern Standard Time),1366461.299999237,A,suga,I,a,129,1,2200.1000003814697,1364261.1999988556,9008,WL,C,9.0
4,29.717000007629395,learn,30282.999992370605,Mon Jan 27 2025 10:41:36 GMT-0500 (Eastern Standard Time),1367578.0999984741,A,sugar,I,r,1092,1,3316.8999996185303,1364261.1999988556,9008,WL,C,9.0
4,30.549999952316284,learn,29450.000047683716,Mon Jan 27 2025 10:41:36 GMT-0500 (Eastern Standard Time),1368410.6999988556,A,sugarenter,I,enter,806,1,4149.5,1364261.1999988556,9008,WL,C,9.0
4,32.40000009536743,learn,27599.99990463257,Mon Jan 27 2025 10:41:36 GMT-0500 (Eastern Standard Time),1370261.3999996185,A,t,I,t,1833,1,1850.2000007629395,1368411.1999988556,9008,WL,C,10.0
4,32.700000047683716,learn,27299.999952316284,Mon Jan 27 2025 10:41:36 GMT-0500 (Eastern Standard Time),1370561.3999996185,A,to,I,o,283,1,2150.2000007629395,1368411.1999988556,9008,WL,C,10.0
4,33.41799998283386,learn,26582.000017166138,Mon Jan 27 2025 10:41:36 GMT-0500 (Eastern Standard Time),1371278.8999996185,A,tow,I,w,704,1,2867.7000007629395,1368411.1999988556,9008,WL,C,10.0
4,33.65000009536743,learn,26349.99990463257,Mon Jan 27 2025 10:41:36 GMT-0500 (Eastern Standard Time),1371511.3999996185,A,towe,I,e,209,1,3100.2000007629395,1368411.1999988556,9008,WL,C,10.0
4,33.83299994468689,learn,26167.00005531311,Mon Jan 27 2025 10:41:36 GMT-0500 (Eastern Standard Time),1371694.3999996185,A,tower,I,r,160,1,3283.2000007629395,1368411.1999988556,9008,WL,C,10.0
4,34.782999992370605,learn,25217.000007629395,Mon Jan 27 2025 10:41:36 GMT-0500 (Eastern Standard Time),1372644.0999984741,A,towerenter,I,enter,929,1,4232.89999961853,1368411.1999988556,9008,WL,C,10.0
4,38.83400011062622,learn,21165.99988937378,Mon Jan 27 2025 10:41:36 GMT-0500 (Eastern Standard Time),1376694.5999984741,A,c,I,c,4031,1,4050.099998474121,1372644.5,9008,WL,C,11.0
4,39.117000102996826,learn,20882.999897003174,Mon Jan 27 2025 10:41:36 GMT-0500 (Eastern Standard Time),1376977.8999996185,A,co,I,o,266,1,4333.39999961853,1372644.5,9008,WL,C,11.0
4,39.348999977111816,learn,20651.000022888184,Mon Jan 27 2025 10:41:36 GMT-0500 (Eastern Standard Time),1377210.5,A,cor,I,r,205,1,4566.0,1372644.5,9008,WL,C,11.0
4,39.59999990463257,learn,20400.00009536743,Mon Jan 27 2025 10:41:36 GMT-0500 (Eastern Standard Time),1377460.5999984741,A,corn,I,n,232,1,4816.099998474121,1372644.5,9008,WL,C,11.0
4,40.299999952316284,learn,19700.000047683716,Mon Jan 27 2025 10:41:36 GMT-0500 (Eastern Standard Time),1378160.8999996185,A,cornenter,I,enter,688,1,5516.39999961853,1372644.5,9008,WL,C,11.0
4,44.450000047683716,learn,15549.999952316284,Mon Jan 27 2025 10:41:36 GMT-0500 (Eastern Standard Time),1382311.5,A,l,I,l,4131,1,4150.200000762939,1378161.299999237,9008,WL,C,12.0
4,44.700000047683716,learn,15299.999952316284,Mon Jan 27 2025 10:41:36 GMT-0500 (Eastern Standard Time),1382560.8999996185,A,lw,I,w,233,1,4399.60000038147,1378161.299999237,9008,WL,C,12.0
4,45.117000102996826,learn,14882.999897003174,Mon Jan 27 2025 10:41:36 GMT-0500 (Eastern Standard Time),1382978.0,A,lwt,I,t,403,1,4816.700000762939,1378161.299999237,9008,WL,C,12.0
4,45.28399991989136,learn,14716.000080108643,Mon Jan 27 2025 10:41:36 GMT-0500 (Eastern Standard Time),1383144.5999984741,A,lwtt,I,t,144,1,4983.299999237061,1378161.299999237,9008,WL,C,12.0
4,45.40000009536743,learn,14599.999904632568,Mon Jan 27 2025 10:41:36 GMT-0500 (Eastern Standard Time),1383260.8999996185,A,lwtte,I,e,101,1,5099.60000038147,1378161.299999237,9008,WL,C,12.0
4,45.617000102996826,learn,14382.999897003174,Mon Jan 27 2025 10:41:36 GMT-0500 (Eastern Standard Time),1383478.0999984741,A,lwtter,I,r,188,1,5316.799999237061,1378161.299999237,9008,WL,C,12.0
4,46.08299994468689,learn,13917.00005531311,Mon Jan 27 2025 10:41:36 GMT-0500 (Eastern Standard Time),1383944.1999988556,A,lwtterenter,I,enter,442,1,5782.89999961853,1378161.299999237,9008,WL,C,12.0
4,57.16700005531311,learn,2832.9999446868896,Mon Jan 27 2025 10:41:36 GMT-0500 (Eastern Standard Time),1395027.8999996185,A,t,I,t,11069,1,11083.20000076294,1383944.6999988556,9008,WL,C,13.0
4,57.384000062942505,learn,2615.999937057495,Mon Jan 27 2025 10:41:36 GMT-0500 (Eastern Standard Time),1395244.5999984741,A,to,I,o,186,1,11299.89999961853,1383944.6999988556,9008,WL,C,13.0
4,57.700000047683716,learn,2299.999952316284,Mon Jan 27 2025 10:41:36 GMT-0500 (Eastern Standard Time),1395561.299999237,A,tow,I,w,293,1,11616.60000038147,1383944.6999988556,9008,WL,C,13.0
4,57.91700005531311,learn,2082.9999446868896,Mon Jan 27 2025 10:41:36 GMT-0500 (Eastern Standard Time),1395778.0999984741,A,towe,I,e,199,1,11833.39999961853,1383944.6999988556,9008,WL,C,13.0
4,58.15000009536743,learn,1849.9999046325684,Mon Jan 27 2025 10:41:36 GMT-0500 (Eastern Standard Time),1396010.8999996185,A,tower,I,r,205,1,12066.20000076294,1383944.6999988556,9008,WL,C,13.0
4,58.532999992370605,learn,1467.0000076293945,Mon Jan 27 2025 10:41:36 GMT-0500 (Eastern Standard Time),1396394.0999984741,A,towerenter,I,enter,361,1,12449.39999961853,1383944.6999988556,9008,WL,C,13.0
4,60.01699995994568,learn,-16.99995994567871,Mon Jan 27 2025 10:41:36 GMT-0500 (Eastern Standard Time),1397878.0,A,None,I,None,1476,1,1483.6000003814697,1396394.3999996185,9008,WL,C,14.0
5,0.6169998645782471,learn,60000.0,Mon Jan 27 2025 10:41:36 GMT-0500 (Eastern Standard Time),1469677.8999996185,A,s,I,s,606,1,616.6000003814697,1469061.299999237,9008,WL,C,1.0
5,0.7000000476837158,learn,60000.0,Mon Jan 27 2025 10:41:36 GMT-0500 (Eastern Standard Time),1469761.1999988556,A,sh,I,h,56,1,699.8999996185303,1469061.299999237,9008,WL,C,1.0
5,1.0499999523162842,learn,60000.0,Mon Jan 27 2025 10:41:36 GMT-0500 (Eastern Standard Time),1470111.0,A,sho,I,o,338,1,1049.7000007629395,1469061.299999237,9008,WL,C,1.0
5,1.2999999523162842,learn,60000.0,Mon Jan 27 2025 10:41:36 GMT-0500 (Eastern Standard Time),1470361.5,A,shor,I,r,227,1,1300.2000007629395,1469061.299999237,9008,WL,C,1.0
5,1.4830000400543213,learn,60000.0,Mon Jan 27 2025 10:41:36 GMT-0500 (Eastern Standard Time),1470544.1999988556,A,shore,I,e,167,1,1482.8999996185303,1469061.299999237,9008,WL,C,1.0
5,2.0,learn,60000.0,Mon Jan 27 2025 10:41:36 GMT-0500 (Eastern Standard Time),1471060.8999996185,A,shoreenter,I,enter,500,1,1999.6000003814697,1469061.299999237,9008,WL,C,1.0
5,3.1670000553131104,learn,60000.0,Mon Jan 27 2025 10:41:36 GMT-0500 (Eastern Standard Time),1472228.1999988556,A,b,I,b,1152,1,1167.0,1471061.1999988556,9008,WL,C,2.0
5,3.450000047683716,learn,60000.0,Mon Jan 27 2025 10:41:36 GMT-0500 (Eastern Standard Time),1472511.0,A,bo,I,o,260,1,1449.8000011444092,1471061.1999988556,9008,WL,C,2.0
5,3.7669999599456787,learn,60000.0,Mon Jan 27 2025 10:41:36 GMT-0500 (Eastern Standard Time),1472828.0,A,bod,I,d,291,1,1766.8000011444092,1471061.1999988556,9008,WL,C,2.0
5,4.1499998569488525,learn,60000.0,Mon Jan 27 2025 10:41:36 GMT-0500 (Eastern Standard Time),1473211.1999988556,A,body,I,y,350,1,2150.0,1471061.1999988556,9008,WL,C,2.0
5,4.601000070571899,learn,60000.0,Mon Jan 27 2025 10:41:36 GMT-0500 (Eastern Standard Time),1473661.8999996185,A,bodyenter,I,enter,437,1,2600.7000007629395,1471061.1999988556,9008,WL,C,2.0
5,7.450000047683716,learn,60000.0,Mon Jan 27 2025 10:41:36 GMT-0500 (Eastern Standard Time),1476511.299999237,A,c,I,c,2839,1,2849.0,1473662.299999237,9008,WL,C,3.0
5,7.682999849319458,learn,60000.0,Mon Jan 27 2025 10:41:36 GMT-0500 (Eastern Standard Time),1476744.1999988556,A,ca,I,a,208,1,3081.8999996185303,1473662.299999237,9008,WL,C,3.0
5,8.033999919891357,learn,60000.0,Mon Jan 27 2025 10:41:36 GMT-0500 (Eastern Standard Time),1477094.799999237,A,cat,I,t,332,1,3432.5,1473662.299999237,9008,WL,C,3.0
5,8.200000047683716,learn,60000.0,Mon Jan 27 2025 10:41:36 GMT-0500 (Eastern Standard Time),1477261.1999988556,A,catt,I,t,139,1,3598.8999996185303,1473662.299999237,9008,WL,C,3.0
5,8.41700005531311,learn,60000.0,Mon Jan 27 2025 10:41:36 GMT-0500 (Eastern Standard Time),1477478.1999988556,A,cattl,I,l,187,1,3815.8999996185303,1473662.299999237,9008,WL,C,3.0
5,8.717000007629395,learn,60000.0,Mon Jan 27 2025 10:41:36 GMT-0500 (Eastern Standard Time),1477777.5999984741,A,cattle,I,e,281,1,4115.299999237061,1473662.299999237,9008,WL,C,3.0
5,9.016000032424927,learn,60000.0,Mon Jan 27 2025 10:41:36 GMT-0500 (Eastern Standard Time),1478077.5999984741,A,cattleenter,I,enter,290,1,4415.299999237061,1473662.299999237,9008,WL,C,3.0
5,10.967000007629395,learn,60000.0,Mon Jan 27 2025 10:41:36 GMT-0500 (Eastern Standard Time),1480028.0,A,n,I,n,1927,1,1950.1000003814697,1478077.8999996185,9008,WL,C,4.0
5,11.149999856948853,learn,60000.0,Mon Jan 27 2025 10:41:36 GMT-0500 (Eastern Standard Time),1480211.5,A,na,I,a,156,1,2133.6000003814697,1478077.8999996185,9008,WL,C,4.0
5,11.349999904632568,learn,60000.0,Mon Jan 27 2025 10:41:36 GMT-0500 (Eastern Standard Time),1480411.3999996185,A,nai,I,i,172,1,2333.5,1478077.8999996185,9008,WL,C,4.0
5,12.233999967575073,learn,60000.0,Mon Jan 27 2025 10:41:36 GMT-0500 (Eastern Standard Time),1481294.5999984741,A,nail,I,l,870,1,3216.699998855591,1478077.8999996185,9008,WL,C,4.0
5,12.615999937057495,learn,60000.0,Mon Jan 27 2025 10:41:36 GMT-0500 (Eastern Standard Time),1481677.5,A,nailenter,I,enter,368,1,3599.6000003814697,1478077.8999996185,9008,WL,C,4.0
5,16.200000047683716,learn,60000.0,Mon Jan 27 2025 10:41:36 GMT-0500 (Eastern Standard Time),1485261.299999237,A,b,I,b,3559,1,3583.3999996185303,1481677.8999996185,9008,WL,C,5.0
5,16.700000047683716,learn,60000.0,Mon Jan 27 2025 10:41:36 GMT-0500 (Eastern Standard Time),1485761.5,A,bo,I,o,484,1,4083.6000003814697,1481677.8999996185,9008,WL,C,5.0
5,17.399999856948853,learn,60000.0,Mon Jan 27 2025 10:41:36 GMT-0500 (Eastern Standard Time),1486461.3999996185,A,boy,I,y,673,1,4783.5,1481677.8999996185,9008,WL,C,5.0
5,18.81599998474121,learn,60000.0,Mon Jan 27 2025 10:41:36 GMT-0500 (Eastern Standard Time),1487877.3999996185,A,boyenter,I,enter,1395,1,6199.5,1481677.8999996185,9008,WL,C,5.0
5,19.76699995994568,learn,60000.0,Mon Jan 27 2025 10:41:36 GMT-0500 (Eastern Standard Time),1488828.0,A,b,I,b,926,1,950.1000003814697,1487877.8999996185,9008,WL,C,6.0
5,20.149999856948853,learn,60000.0,Mon Jan 27 2025 10:41:36 GMT-0500 (Eastern Standard Time),1489211.0999984741,A,bo,I,o,357,1,1333.1999988555908,1487877.8999996185,9008,WL,C,6.0
5,20.41700005531311,learn,60000.0,Mon Jan 27 2025 10:41:36 GMT-0500 (Eastern Standard Time),1489478.0,A,bod,I,d,247,1,1600.1000003814697,1487877.8999996185,9008,WL,C,6.0
5,20.700000047683716,learn,60000.0,Mon Jan 27 2025 10:41:36 GMT-0500 (Eastern Standard Time),1489761.1999988556,A,body,I,y,268,1,1883.2999992370605,1487877.8999996185,9008,WL,C,6.0
5,21.23300004005432,learn,60000.0,Mon Jan 27 2025 10:41:36 GMT-0500 (Eastern Standard Time),1490294.1999988556,A,bodyenter,I,enter,503,1,2416.2999992370605,1487877.8999996185,9008,WL,C,6.0
5,26.66700005531311,learn,60000.0,Mon Jan 27 2025 10:41:36 GMT-0500 (Eastern Standard Time),1495728.0,A,q,I,q,5422,1,5433.400001525879,1490294.5999984741,9008,WL,C,7.0
5,26.983999967575073,learn,60000.0,Mon Jan 27 2025 10:41:36 GMT-0500 (Eastern Standard Time),1496044.5999984741,A,qu,I,u,280,1,5750.0,1490294.5999984741,9008,WL,C,7.0
5,27.299999952316284,learn,60000.0,Mon Jan 27 2025 10:41:36 GMT-0500 (Eastern Standard Time),1496361.3999996185,A,que,I,e,292,1,6066.800001144409,1490294.5999984741,9008,WL,C,7.0
5,27.450000047683716,learn,60000.0,Mon Jan 27 2025 10:41:36 GMT-0500 (Eastern Standard Time),1496511.5,A,quee,I,e,134,1,6216.900001525879,1490294.5999984741,9008,WL,C,7.0
5,27.68400001525879,learn,60000.0,Mon Jan 27 2025 10:41:36 GMT-0500 (Eastern Standard Time),1496744.799999237,A,queen,I,n,204,1,6450.200000762939,1490294.5999984741,9008,WL,C,7.0
5,28.132999897003174,learn,60000.0,Mon Jan 27 2025 10:41:36 GMT-0500 (Eastern Standard Time),1497194.0999984741,A,queenenter,I,enter,423,1,6899.5,1490294.5999984741,9008,WL,C,7.0
5,28.76699995994568,learn,60000.0,Mon Jan 27 2025 10:41:36 GMT-0500 (Eastern Standard Time),1497828.0999984741,A,s,I,s,618,1,633.6999988555908,1497194.3999996185,9008,WL,C,8.0
5,29.0,learn,60000.0,Mon Jan 27 2025 10:41:36 GMT-0500 (Eastern Standard Time),1498061.5,A,su,I,u,196,1,867.1000003814697,1497194.3999996185,9008,WL,C,8.0
5,29.33299994468689,learn,60000.0,Mon Jan 27 2025 10:41:36 GMT-0500 (Eastern Standard Time),1498394.5,A,sug,I,g,308,1,1200.1000003814697,1497194.3999996185,9008,WL,C,8.0
5,29.533999919891357,learn,60000.0,Mon Jan 27 2025 10:41:36 GMT-0500 (Eastern Standard Time),1498594.5999984741,A,suga,I,a,181,1,1400.1999988555908,1497194.3999996185,9008,WL,C,8.0
5,29.884000062942505,learn,60000.0,Mon Jan 27 2025 10:41:36 GMT-0500 (Eastern Standard Time),1498944.5999984741,A,sugar,I,r,334,1,1750.1999988555908,1497194.3999996185,9008,WL,C,8.0
5,30.26699995994568,learn,60000.0,Mon Jan 27 2025 10:41:36 GMT-0500 (Eastern Standard Time),1499327.5999984741,A,sugarenter,I,enter,367,1,2133.199998855591,1497194.3999996185,9008,WL,C,8.0
5,33.91700005531311,learn,60000.0,Mon Jan 27 2025 10:41:36 GMT-0500 (Eastern Standard Time),1502978.0,A,l,I,l,3637,1,3650.0,1499328.0,9008,WL,C,9.0
5,34.14999985694885,learn,60000.0,Mon Jan 27 2025 10:41:36 GMT-0500 (Eastern Standard Time),1503211.3999996185,A,le,I,e,206,1,3883.3999996185303,1499328.0,9008,WL,C,9.0
5,34.75,learn,60000.0,Mon Jan 27 2025 10:41:36 GMT-0500 (Eastern Standard Time),1503811.5,A,let,I,t,581,1,4483.5,1499328.0,9008,WL,C,9.0
5,34.91700005531311,learn,60000.0,Mon Jan 27 2025 10:41:36 GMT-0500 (Eastern Standard Time),1503978.0,A,lett,I,t,133,1,4650.0,1499328.0,9008,WL,C,9.0
5,35.09999990463257,learn,60000.0,Mon Jan 27 2025 10:41:36 GMT-0500 (Eastern Standard Time),1504161.1999988556,A,lette,I,e,167,1,4833.199998855591,1499328.0,9008,WL,C,9.0
5,35.33399987220764,learn,60000.0,Mon Jan 27 2025 10:41:36 GMT-0500 (Eastern Standard Time),1504394.799999237,A,letter,I,r,211,1,5066.799999237061,1499328.0,9008,WL,C,9.0
5,35.700000047683716,learn,60000.0,Mon Jan 27 2025 10:41:36 GMT-0500 (Eastern Standard Time),1504760.8999996185,A,letterenter,I,enter,342,1,5432.89999961853,1499328.0,9008,WL,C,9.0
5,36.33399987220764,learn,60000.0,Mon Jan 27 2025 10:41:36 GMT-0500 (Eastern Standard Time),1505394.799999237,A,f,I,f,619,1,633.3999996185303,1504761.3999996185,9008,WL,C,10.0
5,36.61800003051758,learn,60000.0,Mon Jan 27 2025 10:41:36 GMT-0500 (Eastern Standard Time),1505679.0,A,fl,I,l,271,1,917.6000003814697,1504761.3999996185,9008,WL,C,10.0
5,36.799999952316284,learn,60000.0,Mon Jan 27 2025 10:41:36 GMT-0500 (Eastern Standard Time),1505861.5999984741,A,fla,I,a,162,1,1100.1999988555908,1504761.3999996185,9008,WL,C,10.0
5,37.39999985694885,learn,60000.0,Mon Jan 27 2025 10:41:36 GMT-0500 (Eastern Standard Time),1506461.3999996185,A,flag,I,g,579,1,1700.0,1504761.3999996185,9008,WL,C,10.0
5,37.91700005531311,learn,60000.0,Mon Jan 27 2025 10:41:36 GMT-0500 (Eastern Standard Time),1506977.5999984741,A,flagenter,I,enter,499,1,2216.199998855591,1504761.3999996185,9008,WL,C,10.0
5,38.634000062942505,learn,60000.0,Mon Jan 27 2025 10:41:36 GMT-0500 (Eastern Standard Time),1507694.6999988556,A,d,I,d,707,1,716.7999992370605,1506977.8999996185,9008,WL,C,11.0
5,39.0,learn,60000.0,Mon Jan 27 2025 10:41:36 GMT-0500 (Eastern Standard Time),1508061.299999237,A,do,I,o,355,1,1083.3999996185303,1506977.8999996185,9008,WL,C,11.0
5,39.23399996757507,learn,60000.0,Mon Jan 27 2025 10:41:36 GMT-0500 (Eastern Standard Time),1508294.5999984741,A,doc,I,c,213,1,1316.6999988555908,1506977.8999996185,9008,WL,C,11.0
5,39.59999990463257,learn,60000.0,Mon Jan 27 2025 10:41:36 GMT-0500 (Eastern Standard Time),1508661.3999996185,A,doct,I,t,345,1,1683.5,1506977.8999996185,9008,WL,C,11.0
5,39.884000062942505,learn,60000.0,Mon Jan 27 2025 10:41:36 GMT-0500 (Eastern Standard Time),1508944.6999988556,A,docto,I,o,268,1,1966.7999992370605,1506977.8999996185,9008,WL,C,11.0
5,40.39999985694885,learn,60000.0,Mon Jan 27 2025 10:41:36 GMT-0500 (Eastern Standard Time),1509461.5999984741,A,doctor,I,r,497,1,2483.699998855591,1506977.8999996185,9008,WL,C,11.0
5,40.81699991226196,learn,60000.0,Mon Jan 27 2025 10:41:36 GMT-0500 (Eastern Standard Time),1509877.5,A,doctorenter,I,enter,395,1,2899.6000003814697,1506977.8999996185,9008,WL,C,11.0
5,45.43299984931946,learn,60000.0,Mon Jan 27 2025 10:41:36 GMT-0500 (Eastern Standard Time),1514494.5,A,h,I,h,4607,1,4616.5,1509878.0,9008,WL,C,12.0
5,45.76699995994568,learn,60000.0,Mon Jan 27 2025 10:41:36 GMT-0500 (Eastern Standard Time),1514828.0999984741,A,ho,I,o,306,1,4950.099998474121,1509878.0,9008,WL,C,12.0
5,46.08399987220764,learn,60000.0,Mon Jan 27 2025 10:41:36 GMT-0500 (Eastern Standard Time),1515144.799999237,A,hou,I,u,294,1,5266.799999237061,1509878.0,9008,WL,C,12.0
5,46.299999952316284,learn,60000.0,Mon Jan 27 2025 10:41:36 GMT-0500 (Eastern Standard Time),1515361.5,A,hous,I,s,192,1,5483.5,1509878.0,9008,WL,C,12.0
5,46.532999992370605,learn,60000.0,Mon Jan 27 2025 10:41:36 GMT-0500 (Eastern Standard Time),1515594.3999996185,A,house,I,e,197,1,5716.39999961853,1509878.0,9008,WL,C,12.0
5,46.89999985694885,learn,60000.0,Mon Jan 27 2025 10:41:36 GMT-0500 (Eastern Standard Time),1515961.0,A,houseenter,I,enter,340,1,6083.0,1509878.0,9008,WL,C,12.0
5,53.56699991226196,learn,60000.0,Mon Jan 27 2025 10:41:36 GMT-0500 (Eastern Standard Time),1522628.1999988556,A,c,I,c,6653,1,6666.799999237061,1515961.3999996185,9008,WL,C,13.0
5,53.73300004005432,learn,60000.0,Mon Jan 27 2025 10:41:36 GMT-0500 (Eastern Standard Time),1522794.299999237,A,ca,I,a,139,1,6832.89999961853,1515961.3999996185,9008,WL,C,13.0
5,54.41700005531311,learn,60000.0,Mon Jan 27 2025 10:41:36 GMT-0500 (Eastern Standard Time),1523478.1999988556,A,cat,I,t,665,1,7516.799999237061,1515961.3999996185,9008,WL,C,13.0
5,54.59999990463257,learn,60000.0,Mon Jan 27 2025 10:41:36 GMT-0500 (Eastern Standard Time),1523661.3999996185,A,catt,I,t,146,1,7700.0,1515961.3999996185,9008,WL,C,13.0
5,54.782999992370605,learn,60000.0,Mon Jan 27 2025 10:41:36 GMT-0500 (Eastern Standard Time),1523844.0999984741,A,cattl,I,l,153,1,7882.699998855591,1515961.3999996185,9008,WL,C,13.0
5,55.03399991989136,learn,60000.0,Mon Jan 27 2025 10:41:36 GMT-0500 (Eastern Standard Time),1524094.799999237,A,cattle,I,e,238,1,8133.39999961853,1515961.3999996185,9008,WL,C,13.0
5,55.700000047683716,learn,60000.0,Mon Jan 27 2025 10:41:36 GMT-0500 (Eastern Standard Time),1524760.8999996185,A,cattleenter,I,enter,641,1,8799.5,1515961.3999996185,9008,WL,C,13.0
5,61.41599988937378,learn,60000.0,Mon Jan 27 2025 10:41:36 GMT-0500 (Eastern Standard Time),1530477.5999984741,A,t,I,t,5708,1,5716.299999237061,1524761.299999237,9008,WL,C,14.0
6,1.317000150680542,distr,58682.99984931946,Mon Jan 27 2025 10:41:36 GMT-0500 (Eastern Standard Time),1606011.3999996185,B,m,I,m,1293,1,1316.8000011444092,1604694.5999984741,9008,WL,C,1.0
6,1.4170000553131104,distr,58582.99994468689,Mon Jan 27 2025 10:41:36 GMT-0500 (Eastern Standard Time),1606111.3999996185,B,me,I,e,85,1,1416.8000011444092,1604694.5999984741,9008,WL,C,1.0
6,1.75,distr,58250.0,Mon Jan 27 2025 10:41:36 GMT-0500 (Eastern Standard Time),1606444.5999984741,B,mea,I,a,307,1,1750.0,1604694.5999984741,9008,WL,C,1.0
6,2.1670000553131104,distr,57832.99994468689,Mon Jan 27 2025 10:41:36 GMT-0500 (Eastern Standard Time),1606861.3999996185,B,meat,I,t,405,1,2166.800001144409,1604694.5999984741,9008,WL,C,1.0
6,2.6000001430511475,distr,57399.99985694885,Mon Jan 27 2025 10:41:36 GMT-0500 (Eastern Standard Time),1607294.299999237,B,meatenter,I,enter,419,1,2599.7000007629395,1604694.5999984741,9008,WL,C,1.0
6,3.1510000228881836,distr,56848.99997711182,Mon Jan 27 2025 10:41:36 GMT-0500 (Eastern Standard Time),1607844.799999237,B,m,I,m,534,1,550.2000007629395,1607294.5999984741,9008,WL,C,2.0
6,3.5340001583099365,distr,56465.99984169006,Mon Jan 27 2025 10:41:36 GMT-0500 (Eastern Standard Time),1608228.299999237,B,mo,I,o,365,1,933.7000007629395,1607294.5999984741,9008,WL,C,2.0
6,3.9170000553131104,distr,56082.99994468689,Mon Jan 27 2025 10:41:36 GMT-0500 (Eastern Standard Time),1608611.299999237,B,mon,I,n,363,1,1316.7000007629395,1607294.5999984741,9008,WL,C,2.0
6,4.184000015258789,distr,55815.99998474121,Mon Jan 27 2025 10:41:36 GMT-0500 (Eastern Standard Time),1608877.799999237,B,mone,I,e,245,1,1583.2000007629395,1607294.5999984741,9008,WL,C,2.0
6,4.4670000076293945,distr,55532.999992370605,Mon Jan 27 2025 10:41:36 GMT-0500 (Eastern Standard Time),1609161.299999237,B,money,I,y,260,1,1866.7000007629395,1607294.5999984741,9008,WL,C,2.0
6,4.950000047683716,distr,55049.999952316284,Mon Jan 27 2025 10:41:36 GMT-0500 (Eastern Standard Time),1609644.1999988556,B,moneyenter,I,enter,448,1,2349.6000003814697,1607294.5999984741,9008,WL,C,2.0
6,5.400000095367432,distr,54599.99990463257,Mon Jan 27 2025 10:41:36 GMT-0500 (Eastern Standard Time),1610094.3999996185,B,d,I,d,439,1,449.8999996185303,1609644.5,9008,WL,C,3.0
6,5.851000070571899,distr,54148.9999294281,Mon Jan 27 2025 10:41:36 GMT-0500 (Eastern Standard Time),1610544.799999237,B,di,I,i,438,1,900.2999992370605,1609644.5,9008,WL,C,3.0
6,6.001000165939331,distr,53998.99983406067,Mon Jan 27 2025 10:41:36 GMT-0500 (Eastern Standard Time),1610694.8999996185,B,dia,I,a,127,1,1050.3999996185303,1609644.5,9008,WL,C,3.0
6,6.501000165939331,distr,53498.99983406067,Mon Jan 27 2025 10:41:36 GMT-0500 (Eastern Standard Time),1611194.799999237,B,diam,I,m,475,1,1550.2999992370605,1609644.5,9008,WL,C,3.0
6,6.76800012588501,distr,53231.99987411499,Mon Jan 27 2025 10:41:36 GMT-0500 (Eastern Standard Time),1611461.5999984741,B,diamo,I,o,246,1,1817.099998474121,1609644.5,9008,WL,C,3.0
6,7.084000110626221,distr,52915.99988937378,Mon Jan 27 2025 10:41:36 GMT-0500 (Eastern Standard Time),1611778.5999984741,B,diamon,I,n,291,1,2134.099998474121,1609644.5,9008,WL,C,3.0
6,7.483999967575073,distr,52516.00003242493,Mon Jan 27 2025 10:41:36 GMT-0500 (Eastern Standard Time),1612177.8999996185,B,diamond,I,d,381,1,2533.3999996185303,1609644.5,9008,WL,C,3.0
6,7.883000135421753,distr,52116.99986457825,Mon Jan 27 2025 10:41:36 GMT-0500 (Eastern Standard Time),1612577.3999996185,B,diamondenter,I,enter,385,1,2932.8999996185303,1609644.5,9008,WL,C,3.0
6,8.567000150680542,distr,51432.99984931946,Mon Jan 27 2025 10:41:36 GMT-0500 (Eastern Standard Time),1613261.299999237,B,v,I,v,675,1,683.5,1612577.799999237,9008,WL,C,4.0
6,8.83400011062622,distr,51165.99988937378,Mon Jan 27 2025 10:41:36 GMT-0500 (Eastern Standard Time),1613528.299999237,B,va,I,a,238,1,950.5,1612577.799999237,9008,WL,C,4.0
6,9.151000022888184,distr,50848.99997711182,Mon Jan 27 2025 10:41:36 GMT-0500 (Eastern Standard Time),1613844.8999996185,B,val,I,l,297,1,1267.1000003814697,1612577.799999237,9008,WL,C,4.0
6,9.33400011062622,distr,50665.99988937378,Mon Jan 27 2025 10:41:36 GMT-0500 (Eastern Standard Time),1614028.299999237,B,vall,I,l,148,1,1450.5,1612577.799999237,9008,WL,C,4.0
6,9.717000007629395,distr,50282.999992370605,Mon Jan 27 2025 10:41:36 GMT-0500 (Eastern Standard Time),1614411.3999996185,B,valle,I,e,358,1,1833.6000003814697,1612577.799999237,9008,WL,C,4.0
6,10.233999967575073,distr,49766.00003242493,Mon Jan 27 2025 10:41:36 GMT-0500 (Eastern Standard Time),1614928.1999988556,B,valley,I,y,501,1,2350.3999996185303,1612577.799999237,9008,WL,C,4.0
6,11.400000095367432,distr,48599.99990463257,Mon Jan 27 2025 10:41:36 GMT-0500 (Eastern Standard Time),1616094.3999996185,B,valleyenter,I,enter,1142,1,3516.6000003814697,1612577.799999237,9008,WL,C,4.0
6,12.983999967575073,distr,47016.00003242493,Mon Jan 27 2025 10:41:36 GMT-0500 (Eastern Standard Time),1617677.5999984741,B,m,I,m,1573,1,1582.7999992370605,1616094.799999237,9008,WL,C,5.0
6,13.301000118255615,distr,46698.999881744385,Mon Jan 27 2025 10:41:36 GMT-0500 (Eastern Standard Time),1617994.6999988556,B,mo,I,o,295,1,1899.8999996185303,1616094.799999237,9008,WL,C,5.0
6,13.6010000705719,distr,46398.9999294281,Mon Jan 27 2025 10:41:36 GMT-0500 (Eastern Standard Time),1618294.799999237,B,mot,I,t,270,1,2200.0,1616094.799999237,9008,WL,C,5.0
6,13.766999959945679,distr,46233.00004005432,Mon Jan 27 2025 10:41:36 GMT-0500 (Eastern Standard Time),1618461.5,B,moth,I,h,138,1,2366.7000007629395,1616094.799999237,9008,WL,C,5.0
6,14.034000158309937,distr,45965.99984169006,Mon Jan 27 2025 10:41:36 GMT-0500 (Eastern Standard Time),1618728.1999988556,B,mothe,I,e,235,1,2633.3999996185303,1616094.799999237,9008,WL,C,5.0
6,14.233999967575073,distr,45766.00003242493,Mon Jan 27 2025 10:41:36 GMT-0500 (Eastern Standard Time),1618927.799999237,B,mother,I,r,184,1,2833.0,1616094.799999237,9008,WL,C,5.0
6,14.66700005531311,distr,45332.99994468689,Mon Jan 27 2025 10:41:36 GMT-0500 (Eastern Standard Time),1619361.0,B,motherenter,I,enter,416,1,3266.2000007629395,1616094.799999237,9008,WL,C,5.0
6,29.01699995994568,distr,30983.00004005432,Mon Jan 27 2025 10:41:36 GMT-0500 (Eastern Standard Time),1633711.5,B,v,I,v,14340,1,14350.20000076294,1619361.299999237,9008,WL,C,6.0
6,29.284000158309937,distr,30715.999841690063,Mon Jan 27 2025 10:41:36 GMT-0500 (Eastern Standard Time),1633978.0,B,va,I,a,243,1,14616.70000076294,1619361.299999237,9008,WL,C,6.0
6,29.567000150680542,distr,30432.999849319458,Mon Jan 27 2025 10:41:36 GMT-0500 (Eastern Standard Time),1634261.5,B,val,I,l,257,1,14900.20000076294,1619361.299999237,9008,WL,C,6.0
6,29.76699995994568,distr,30233.00004005432,Mon Jan 27 2025 10:41:36 GMT-0500 (Eastern Standard Time),1634461.5,B,vall,I,l,170,1,15100.20000076294,1619361.299999237,9008,WL,C,6.0
6,29.884000062942505,distr,30115.999937057495,Mon Jan 27 2025 10:41:36 GMT-0500 (Eastern Standard Time),1634578.3999996185,B,valle,I,e,101,1,15217.10000038147,1619361.299999237,9008,WL,C,6.0
6,30.217000007629395,distr,29782.999992370605,Mon Jan 27 2025 10:41:36 GMT-0500 (Eastern Standard Time),1634911.1999988556,B,valley,I,y,309,1,15549.89999961853,1619361.299999237,9008,WL,C,6.0
6,30.733999967575073,distr,29266.000032424927,Mon Jan 27 2025 10:41:36 GMT-0500 (Eastern Standard Time),1635427.6999988556,B,valleyenter,I,enter,501,1,16066.39999961853,1619361.299999237,9008,WL,C,6.0
6,32.901000022888184,distr,27098.999977111816,Mon Jan 27 2025 10:41:36 GMT-0500 (Eastern Standard Time),1637594.799999237,B,c,I,c,2146,1,2166.7000007629395,1635428.0999984741,9008,WL,C,7.0
6,33.134000062942505,distr,26865.999937057495,Mon Jan 27 2025 10:41:36 GMT-0500 (Eastern Standard Time),1637827.8999996185,B,ch,I,h,213,1,2399.800001144409,1635428.0999984741,9008,WL,C,7.0
6,33.568000078201294,distr,26431.999921798706,Mon Jan 27 2025 10:41:36 GMT-0500 (Eastern Standard Time),1638261.5999984741,B,chr,I,r,415,1,2833.5,1635428.0999984741,9008,WL,C,7.0
6,33.818000078201294,distr,26181.999921798706,Mon Jan 27 2025 10:41:36 GMT-0500 (Eastern Standard Time),1638511.5999984741,B,chri,I,i,236,1,3083.5,1635428.0999984741,9008,WL,C,7.0
6,34.051000118255615,distr,25948.999881744385,Mon Jan 27 2025 10:41:36 GMT-0500 (Eastern Standard Time),1638744.799999237,B,chris,I,s,210,1,3316.7000007629395,1635428.0999984741,9008,WL,C,7.0
6,34.38499999046326,distr,25615.000009536743,Mon Jan 27 2025 10:41:36 GMT-0500 (Eastern Standard Time),1639078.6999988556,B,christ,I,t,311,1,3650.6000003814697,1635428.0999984741,9008,WL,C,7.0
6,34.967000007629395,distr,25032.999992370605,Mon Jan 27 2025 10:41:36 GMT-0500 (Eastern Standard Time),1639661.299999237,B,christm,I,m,557,1,4233.200000762939,1635428.0999984741,9008,WL,C,7.0
6,35.1010000705719,distr,24898.9999294281,Mon Jan 27 2025 10:41:36 GMT-0500 (Eastern Standard Time),1639794.6999988556,B,christma,I,a,116,1,4366.60000038147,1635428.0999984741,9008,WL,C,7.0
6,35.28400015830994,distr,24715.999841690063,Mon Jan 27 2025 10:41:36 GMT-0500 (Eastern Standard Time),1639978.0999984741,B,christmas,I,s,150,1,4550.0,1635428.0999984741,9008,WL,C,7.0
6,35.68400001525879,distr,24315.99998474121,Mon Jan 27 2025 10:41:36 GMT-0500 (Eastern Standard Time),1640377.799999237,B,christmasenter,I,enter,375,1,4949.700000762939,1635428.0999984741,9008,WL,C,7.0
6,44.36800003051758,distr,15631.999969482422,Mon Jan 27 2025 10:41:36 GMT-0500 (Eastern Standard Time),1649061.5999984741,B,s,I,s,8667,1,8683.39999961853,1640378.1999988556,9008,WL,C,8.0
6,44.95099997520447,distr,15049.000024795532,Mon Jan 27 2025 10:41:36 GMT-0500 (Eastern Standard Time),1649644.6999988556,B,sk,I,k,556,1,9266.5,1640378.1999988556,9008,WL,C,8.0
6,45.301000118255615,distr,14698.999881744385,Mon Jan 27 2025 10:41:36 GMT-0500 (Eastern Standard Time),1649994.799999237,B,sky,I,y,324,1,9616.60000038147,1640378.1999988556,9008,WL,C,8.0
6,45.78400015830994,distr,14215.999841690063,Mon Jan 27 2025 10:41:36 GMT-0500 (Eastern Standard Time),1650477.6999988556,B,skyenter,I,enter,469,1,10099.5,1640378.1999988556,9008,WL,C,8.0
6,52.1010000705719,distr,7898.999929428101,Mon Jan 27 2025 10:41:36 GMT-0500 (Eastern Standard Time),1656794.8999996185,B,s,I,s,6295,1,6317.0,1650477.8999996185,9008,WL,C,9.0
6,52.36800003051758,distr,7631.999969482422,Mon Jan 27 2025 10:41:36 GMT-0500 (Eastern Standard Time),1657061.6999988556,B,st,I,t,241,1,6583.799999237061,1650477.8999996185,9008,WL,C,9.0
6,52.66799998283386,distr,7332.000017166138,Mon Jan 27 2025 10:41:36 GMT-0500 (Eastern Standard Time),1657361.6999988556,B,str,I,r,285,1,6883.799999237061,1650477.8999996185,9008,WL,C,9.0
6,52.78400015830994,distr,7215.9998416900635,Mon Jan 27 2025 10:41:36 GMT-0500 (Eastern Standard Time),1657478.1999988556,B,stre,I,e,96,1,7000.299999237061,1650477.8999996185,9008,WL,C,9.0
6,53.03400015830994,distr,6965.9998416900635,Mon Jan 27 2025 10:41:36 GMT-0500 (Eastern Standard Time),1657728.3999996185,B,strea,I,a,235,1,7250.5,1650477.8999996185,9008,WL,C,9.0
6,53.384000062942505,distr,6615.999937057495,Mon Jan 27 2025 10:41:36 GMT-0500 (Eastern Standard Time),1658077.8999996185,B,stream,I,m,328,1,7600.0,1650477.8999996185,9008,WL,C,9.0
6,53.884000062942505,distr,6115.999937057495,Mon Jan 27 2025 10:41:36 GMT-0500 (Eastern Standard Time),1658577.6999988556,B,streamenter,I,enter,483,1,8099.799999237061,1650477.8999996185,9008,WL,C,9.0
6,60.01699995994568,distr,-16.99995994567871,Mon Jan 27 2025 10:41:36 GMT-0500 (Eastern Standard Time),1664710.799999237,B,None,I,None,6125,1,6132.700000762939,1658578.0999984741,9008,WL,C,10.0
7,4.966000080108643,immed,55033.99991989136,Mon Jan 27 2025 10:41:36 GMT-0500 (Eastern Standard Time),1681028.0999984741,A,t,I,t,4949,1,4965.699998855591,1676062.3999996185,9008,WL,C,1.0
7,5.499000072479248,immed,54500.99992752075,Mon Jan 27 2025 10:41:36 GMT-0500 (Eastern Standard Time),1681560.6999988556,A,to,I,o,510,1,5498.299999237061,1676062.3999996185,9008,WL,C,1.0
7,5.949000120162964,immed,54050.999879837036,Mon Jan 27 2025 10:41:36 GMT-0500 (Eastern Standard Time),1682011.299999237,A,tow,I,w,427,1,5948.89999961853,1676062.3999996185,9008,WL,C,1.0
7,6.166000127792358,immed,53833.99987220764,Mon Jan 27 2025 10:41:36 GMT-0500 (Eastern Standard Time),1682227.6999988556,A,towe,I,e,193,1,6165.299999237061,1676062.3999996185,9008,WL,C,1.0
7,6.381999969482422,immed,53618.00003051758,Mon Jan 27 2025 10:41:36 GMT-0500 (Eastern Standard Time),1682444.299999237,A,tower,I,r,208,1,6381.89999961853,1676062.3999996185,9008,WL,C,1.0
7,6.7820000648498535,immed,53217.99993515015,Mon Jan 27 2025 10:41:36 GMT-0500 (Eastern Standard Time),1682844.299999237,A,towerenter,I,enter,373,1,6781.89999961853,1676062.3999996185,9008,WL,C,1.0
7,7.249000072479248,immed,52750.99992752075,Mon Jan 27 2025 10:41:36 GMT-0500 (Eastern Standard Time),1683310.6999988556,A,s,I,s,454,1,466.1000003814697,1682844.5999984741,9008,WL,C,2.0
7,7.615000009536743,immed,52384.99999046326,Mon Jan 27 2025 10:41:36 GMT-0500 (Eastern Standard Time),1683677.5,A,su,I,u,357,1,832.9000015258789,1682844.5999984741,9008,WL,C,2.0
7,7.865999937057495,immed,52134.000062942505,Mon Jan 27 2025 10:41:36 GMT-0500 (Eastern Standard Time),1683927.8999996185,A,sug,I,g,230,1,1083.3000011444092,1682844.5999984741,9008,WL,C,2.0
7,8.032999992370605,immed,51967.000007629395,Mon Jan 27 2025 10:41:36 GMT-0500 (Eastern Standard Time),1684094.5,A,suga,I,a,145,1,1249.900001525879,1682844.5999984741,9008,WL,C,2.0
7,8.299000024795532,immed,51700.99997520447,Mon Jan 27 2025 10:41:36 GMT-0500 (Eastern Standard Time),1684361.1999988556,A,sugar,I,r,240,1,1516.6000003814697,1682844.5999984741,9008,WL,C,2.0
7,8.766000032424927,immed,51233.99996757507,Mon Jan 27 2025 10:41:36 GMT-0500 (Eastern Standard Time),1684827.5999984741,A,sugarenter,I,enter,441,1,1983.0,1682844.5999984741,9008,WL,C,2.0
7,9.615999937057495,immed,50384.000062942505,Mon Jan 27 2025 10:41:36 GMT-0500 (Eastern Standard Time),1685677.8999996185,A,q,I,q,841,1,849.8999996185303,1684828.0,9008,WL,C,3.0
7,9.881999969482422,immed,50118.00003051758,Mon Jan 27 2025 10:41:36 GMT-0500 (Eastern Standard Time),1685944.299999237,A,qu,I,u,243,1,1116.2999992370605,1684828.0,9008,WL,C,3.0
7,10.098999977111816,immed,49901.00002288818,Mon Jan 27 2025 10:41:36 GMT-0500 (Eastern Standard Time),1686161.5,A,que,I,e,204,1,1333.5,1684828.0,9008,WL,C,3.0
7,10.266000032424927,immed,49733.99996757507,Mon Jan 27 2025 10:41:36 GMT-0500 (Eastern Standard Time),1686328.1999988556,A,quee,I,e,144,1,1500.1999988555908,1684828.0,9008,WL,C,3.0
7,10.615999937057495,immed,49384.000062942505,Mon Jan 27 2025 10:41:36 GMT-0500 (Eastern Standard Time),1686678.0,A,queen,I,n,328,1,1850.0,1684828.0,9008,WL,C,3.0
7,11.131999969482422,immed,48868.00003051758,Mon Jan 27 2025 10:41:36 GMT-0500 (Eastern Standard Time),1687194.1999988556,A,queenenter,I,enter,484,1,2366.199998855591,1684828.0,9008,WL,C,3.0
7,11.881999969482422,immed,48118.00003051758,Mon Jan 27 2025 10:41:36 GMT-0500 (Eastern Standard Time),1687944.0999984741,A,s,I,s,729,1,749.5999984741211,1687194.5,9008,WL,C,4.0
7,12.183000087738037,immed,47816.99991226196,Mon Jan 27 2025 10:41:36 GMT-0500 (Eastern Standard Time),1688244.6999988556,A,sh,I,h,284,1,1050.1999988555908,1687194.5,9008,WL,C,4.0
7,12.516000032424927,immed,47483.99996757507,Mon Jan 27 2025 10:41:36 GMT-0500 (Eastern Standard Time),1688577.799999237,A,sho,I,o,316,1,1383.2999992370605,1687194.5,9008,WL,C,4.0
7,12.766000032424927,immed,47233.99996757507,Mon Jan 27 2025 10:41:36 GMT-0500 (Eastern Standard Time),1688827.6999988556,A,shor,I,r,222,1,1633.1999988555908,1687194.5,9008,WL,C,4.0
7,12.933000087738037,immed,47066.99991226196,Mon Jan 27 2025 10:41:36 GMT-0500 (Eastern Standard Time),1688995.299999237,A,shore,I,e,152,1,1800.7999992370605,1687194.5,9008,WL,C,4.0
7,13.299000024795532,immed,46700.99997520447,Mon Jan 27 2025 10:41:36 GMT-0500 (Eastern Standard Time),1689360.799999237,A,shoreenter,I,enter,354,1,2166.2999992370605,1687194.5,9008,WL,C,4.0
7,14.049000024795532,immed,45950.99997520447,Mon Jan 27 2025 10:41:36 GMT-0500 (Eastern Standard Time),1690111.0999984741,A,b,I,b,739,1,750.0,1689361.0999984741,9008,WL,C,5.0
7,14.416000127792358,immed,45583.99987220764,Mon Jan 27 2025 10:41:36 GMT-0500 (Eastern Standard Time),1690477.8999996185,A,bo,I,o,356,1,1116.8000011444092,1689361.0999984741,9008,WL,C,5.0
7,15.216000080108643,immed,44783.99991989136,Mon Jan 27 2025 10:41:36 GMT-0500 (Eastern Standard Time),1691277.6999988556,A,boy,I,y,787,1,1916.6000003814697,1689361.0999984741,9008,WL,C,5.0
7,15.699000120162964,immed,44300.999879837036,Mon Jan 27 2025 10:41:36 GMT-0500 (Eastern Standard Time),1691761.1999988556,A,boyenter,I,enter,470,1,2400.1000003814697,1689361.0999984741,9008,WL,C,5.0
7,16.81500005722046,immed,43184.99994277954,Mon Jan 27 2025 10:41:36 GMT-0500 (Eastern Standard Time),1692877.5,A,b,I,b,1105,1,1116.0,1691761.5,9008,WL,C,6.0
7,17.401000022888184,immed,42598.99997711182,Mon Jan 27 2025 10:41:36 GMT-0500 (Eastern Standard Time),1693462.8999996185,A,bo,I,o,567,1,1701.3999996185303,1691761.5,9008,WL,C,6.0
7,17.681999921798706,immed,42318.000078201294,Mon Jan 27 2025 10:41:36 GMT-0500 (Eastern Standard Time),1693744.3999996185,A,bod,I,d,266,1,1982.8999996185303,1691761.5,9008,WL,C,6.0
7,17.98200011253357,immed,42017.99988746643,Mon Jan 27 2025 10:41:36 GMT-0500 (Eastern Standard Time),1694044.1999988556,A,body,I,y,288,1,2282.699998855591,1691761.5,9008,WL,C,6.0
7,18.431999921798706,immed,41568.000078201294,Mon Jan 27 2025 10:41:36 GMT-0500 (Eastern Standard Time),1694494.0999984741,A,bodyenter,I,enter,439,1,2732.599998474121,1691761.5,9008,WL,C,6.0
7,18.91600012779236,immed,41083.99987220764,Mon Jan 27 2025 10:41:36 GMT-0500 (Eastern Standard Time),1694977.8999996185,A,d,I,d,471,1,483.3999996185303,1694494.5,9008,WL,C,7.0
7,19.16600012779236,immed,40833.99987220764,Mon Jan 27 2025 10:41:36 GMT-0500 (Eastern Standard Time),1695227.6999988556,A,do,I,o,217,1,733.1999988555908,1694494.5,9008,WL,C,7.0
7,19.367000102996826,immed,40632.999897003174,Mon Jan 27 2025 10:41:36 GMT-0500 (Eastern Standard Time),1695429.3999996185,A,doc,I,c,181,1,934.8999996185303,1694494.5,9008,WL,C,7.0
7,19.782999992370605,immed,40217.000007629395,Mon Jan 27 2025 10:41:36 GMT-0500 (Eastern Standard Time),1695844.799999237,A,doct,I,t,399,1,1350.2999992370605,1694494.5,9008,WL,C,7.0
7,20.266000032424927,immed,39733.99996757507,Mon Jan 27 2025 10:41:36 GMT-0500 (Eastern Standard Time),1696327.6999988556,A,docto,I,o,455,1,1833.1999988555908,1694494.5,9008,WL,C,7.0
7,20.466000080108643,immed,39533.99991989136,Mon Jan 27 2025 10:41:36 GMT-0500 (Eastern Standard Time),1696528.0,A,doctor,I,r,186,1,2033.5,1694494.5,9008,WL,C,7.0
7,20.8989999294281,immed,39101.0000705719,Mon Jan 27 2025 10:41:36 GMT-0500 (Eastern Standard Time),1696961.1999988556,A,doctorenter,I,enter,416,1,2466.699998855591,1694494.5,9008,WL,C,7.0
7,23.365999937057495,immed,36634.000062942505,Mon Jan 27 2025 10:41:36 GMT-0500 (Eastern Standard Time),1699427.5999984741,A,s,I,s,2450,1,2466.0,1696961.5999984741,9008,WL,C,8.0
7,23.5,immed,36500.0,Mon Jan 27 2025 10:41:36 GMT-0500 (Eastern Standard Time),1699562.0999984741,A,sh,I,h,113,1,2600.5,1696961.5999984741,9008,WL,C,8.0
7,23.8989999294281,immed,36101.0000705719,Mon Jan 27 2025 10:41:36 GMT-0500 (Eastern Standard Time),1699960.799999237,A,sho,I,o,377,1,2999.2000007629395,1696961.5999984741,9008,WL,C,8.0
7,24.131999969482422,immed,35868.00003051758,Mon Jan 27 2025 10:41:36 GMT-0500 (Eastern Standard Time),1700194.1999988556,A,shor,I,r,219,1,3232.6000003814697,1696961.5999984741,9008,WL,C,8.0
7,24.348999977111816,immed,35651.00002288818,Mon Jan 27 2025 10:41:36 GMT-0500 (Eastern Standard Time),1700411.3999996185,A,shore,I,e,194,1,3449.800001144409,1696961.5999984741,9008,WL,C,8.0
7,24.71500015258789,immed,35284.99984741211,Mon Jan 27 2025 10:41:36 GMT-0500 (Eastern Standard Time),1700777.5,A,shoreenter,I,enter,339,1,3815.900001525879,1696961.5999984741,9008,WL,C,8.0
7,25.832000017166138,immed,34167.99998283386,Mon Jan 27 2025 10:41:36 GMT-0500 (Eastern Standard Time),1701894.0999984741,A,f,I,f,1098,1,1116.1999988555908,1700777.8999996185,9008,WL,C,9.0
7,26.049000024795532,immed,33950.99997520447,Mon Jan 27 2025 10:41:36 GMT-0500 (Eastern Standard Time),1702110.6999988556,A,fl,I,l,205,1,1332.7999992370605,1700777.8999996185,9008,WL,C,9.0
7,26.216000080108643,immed,33783.99991989136,Mon Jan 27 2025 10:41:36 GMT-0500 (Eastern Standard Time),1702277.5999984741,A,fla,I,a,150,1,1499.6999988555908,1700777.8999996185,9008,WL,C,9.0
7,26.799000024795532,immed,33200.99997520447,Mon Jan 27 2025 10:41:36 GMT-0500 (Eastern Standard Time),1702861.3999996185,A,flag,I,g,575,1,2083.5,1700777.8999996185,9008,WL,C,9.0
7,27.249000072479248,immed,32750.999927520752,Mon Jan 27 2025 10:41:36 GMT-0500 (Eastern Standard Time),1703311.0,A,flagenter,I,enter,427,1,2533.1000003814697,1700777.8999996185,9008,WL,C,9.0
7,32.13199996948242,immed,27868.000030517578,Mon Jan 27 2025 10:41:36 GMT-0500 (Eastern Standard Time),1708194.1999988556,A,w,I,w,4868,1,4882.699998855591,1703311.5,9008,WL,C,10.0
7,32.38199996948242,immed,27618.000030517578,Mon Jan 27 2025 10:41:36 GMT-0500 (Eastern Standard Time),1708444.5,A,wj,I,j,225,1,5133.0,1703311.5,9008,WL,C,10.0
7,33.08200001716614,immed,26917.999982833862,Mon Jan 27 2025 10:41:36 GMT-0500 (Eastern Standard Time),1709144.3999996185,A,w,I,backspace,676,1,5832.89999961853,1703311.5,9008,WL,C,10.0
7,33.58200001716614,immed,26417.999982833862,Mon Jan 27 2025 10:41:36 GMT-0500 (Eastern Standard Time),1709644.3999996185,A,wh,I,h,490,1,6332.89999961853,1703311.5,9008,WL,C,10.0
7,33.81599998474121,immed,26184.00001525879,Mon Jan 27 2025 10:41:36 GMT-0500 (Eastern Standard Time),1709877.5999984741,A,whe,I,e,216,1,6566.099998474121,1703311.5,9008,WL,C,10.0
7,33.99900007247925,immed,26000.999927520752,Mon Jan 27 2025 10:41:36 GMT-0500 (Eastern Standard Time),1710060.799999237,A,whea,I,a,173,1,6749.299999237061,1703311.5,9008,WL,C,10.0
7,34.24900007247925,immed,25750.999927520752,Mon Jan 27 2025 10:41:36 GMT-0500 (Eastern Standard Time),1710310.8999996185,A,wheat,I,t,232,1,6999.39999961853,1703311.5,9008,WL,C,10.0
7,35.38199996948242,immed,24618.000030517578,Mon Jan 27 2025 10:41:36 GMT-0500 (Eastern Standard Time),1711444.299999237,A,wheatenter,I,enter,1117,1,8132.799999237061,1703311.5,9008,WL,C,10.0
7,40.38199996948242,immed,19618.000030517578,Mon Jan 27 2025 10:41:36 GMT-0500 (Eastern Standard Time),1716444.299999237,A,c,I,c,4976,1,4999.700000762939,1711444.5999984741,9008,WL,C,11.0
7,40.54900002479553,immed,19450.999975204468,Mon Jan 27 2025 10:41:36 GMT-0500 (Eastern Standard Time),1716610.8999996185,A,ca,I,a,150,1,5166.300001144409,1711444.5999984741,9008,WL,C,11.0
7,41.16600012779236,immed,18833.99987220764,Mon Jan 27 2025 10:41:36 GMT-0500 (Eastern Standard Time),1717227.5999984741,A,cat,I,t,592,1,5783.0,1711444.5999984741,9008,WL,C,11.0
7,41.31599998474121,immed,18684.00001525879,Mon Jan 27 2025 10:41:36 GMT-0500 (Eastern Standard Time),1717378.299999237,A,catt,I,t,137,1,5933.700000762939,1711444.5999984741,9008,WL,C,11.0
7,41.56500005722046,immed,18434.99994277954,Mon Jan 27 2025 10:41:36 GMT-0500 (Eastern Standard Time),1717627.5,A,cattl,I,l,213,1,6182.900001525879,1711444.5999984741,9008,WL,C,11.0
7,41.78200006484985,immed,18217.999935150146,Mon Jan 27 2025 10:41:36 GMT-0500 (Eastern Standard Time),1717844.3999996185,A,cattle,I,e,201,1,6399.800001144409,1711444.5999984741,9008,WL,C,11.0
7,42.26600003242493,immed,17733.999967575073,Mon Jan 27 2025 10:41:36 GMT-0500 (Eastern Standard Time),1718327.6999988556,A,cattleenter,I,enter,462,1,6883.10000038147,1711444.5999984741,9008,WL,C,11.0
7,47.1489999294281,immed,12851.0000705719,Mon Jan 27 2025 10:41:36 GMT-0500 (Eastern Standard Time),1723211.0,A,l,I,l,4861,1,4883.0,1718328.0,9008,WL,C,12.0
7,47.33200001716614,immed,12667.999982833862,Mon Jan 27 2025 10:41:36 GMT-0500 (Eastern Standard Time),1723394.299999237,A,le,I,e,169,1,5066.299999237061,1718328.0,9008,WL,C,12.0
7,47.699000120162964,immed,12300.999879837036,Mon Jan 27 2025 10:41:36 GMT-0500 (Eastern Standard Time),1723760.8999996185,A,let,I,t,353,1,5432.89999961853,1718328.0,9008,WL,C,12.0
7,47.848999977111816,immed,12151.000022888184,Mon Jan 27 2025 10:41:36 GMT-0500 (Eastern Standard Time),1723911.0,A,lett,I,t,131,1,5583.0,1718328.0,9008,WL,C,12.0
7,47.949000120162964,immed,12050.999879837036,Mon Jan 27 2025 10:41:36 GMT-0500 (Eastern Standard Time),1724011.1999988556,A,lette,I,e,75,1,5683.199998855591,1718328.0,9008,WL,C,12.0
7,48.199000120162964,immed,11800.999879837036,Mon Jan 27 2025 10:41:36 GMT-0500 (Eastern Standard Time),1724261.299999237,A,letter,I,r,234,1,5933.299999237061,1718328.0,9008,WL,C,12.0
7,48.598999977111816,immed,11401.000022888184,Mon Jan 27 2025 10:41:36 GMT-0500 (Eastern Standard Time),1724661.0999984741,A,letterenter,I,enter,382,1,6333.099998474121,1718328.0,9008,WL,C,12.0
7,58.58200001716614,immed,1417.9999828338623,Mon Jan 27 2025 10:41:36 GMT-0500 (Eastern Standard Time),1734644.1999988556,A,h,I,h,9968,1,9982.79999923706,1724661.3999996185,9008,WL,C,13.0
7,58.931999921798706,immed,1068.000078201294,Mon Jan 27 2025 10:41:36 GMT-0500 (Eastern Standard Time),1734994.3999996185,A,ho,I,o,335,1,10333.0,1724661.3999996185,9008,WL,C,13.0
7,59.24900007247925,immed,750.999927520752,Mon Jan 27 2025 10:41:36 GMT-0500 (Eastern Standard Time),1735311.299999237,A,hou,I,u,306,1,10649.89999961853,1724661.3999996185,9008,WL,C,13.0
7,60.01600003242493,immed,-16.000032424926758,Mon Jan 27 2025 10:41:36 GMT-0500 (Eastern Standard Time),1736077.5999984741,A,houNone,I,None,758,1,11416.19999885559,1724661.3999996185,9008,WL,C,13.0
