acc_sum,block,block_c,change,condition,correct,correct_response,datetime,endtime,face,project,response,response_time,row_sel,session_number,start_end,starttime,subject_id,task,task_vers,trial
0,prac,1,,1-Back,,,Wed Mar 05 2025 17:47:11 GMT-0600 (Central Standard Time),,124_o_f_d_a.png,O,space,11151,1,1,,,7083,VNB,A,0
1,prac,1,0.0,1-Back,1,m,Wed Mar 05 2025 17:47:11 GMT-0600 (Central Standard Time),260909.89999997616,071_y_f_n_a.png,O,m,1169,2,1,1974.199999988079,258935.69999998808,7083,VNB,A,1
2,prac,1,0.0,1-Back,1,m,Wed Mar 05 2025 17:47:11 GMT-0600 (Central Standard Time),263042.1999999881,165_m_m_h_a.png,O,m,1331,3,1,2125.0999999940395,260917.09999999404,7083,VNB,A,2
3,prac,1,0.0,1-Back,1,m,Wed Mar 05 2025 17:47:11 GMT-0600 (Central Standard Time),265174.89999997616,109_y_m_d_a.png,O,m,1322,4,1,2124.899999976158,263050.0,7083,VNB,A,3
4,prac,1,0.0,1-Back,1,m,Wed Mar 05 2025 17:47:11 GMT-0600 (Central Standard Time),267457.59999999404,124_o_f_n_a.png,O,m,1445,5,1,2275.0999999940395,265182.5,7083,VNB,A,4
5,prac,1,1.0,1-Back,1,z,Wed Mar 05 2025 17:47:11 GMT-0600 (Central Standard Time),269423.6999999881,109_y_m_n_a.png,O,z,1146,6,1,1959.0,267464.6999999881,7083,VNB,A,5
6,prac,1,0.0,1-Back,1,m,Wed Mar 05 2025 17:47:11 GMT-0600 (Central Standard Time),271556.2999999821,039_o_m_h_a.png,O,m,1331,7,1,2125.0,269431.2999999821,7083,VNB,A,6
7,prac,1,0.0,1-Back,1,m,Wed Mar 05 2025 17:47:11 GMT-0600 (Central Standard Time),273622.1999999881,139_m_f_d_a.png,O,m,1262,8,1,2058.4000000059605,271563.7999999821,7083,VNB,A,7
8,prac,1,1.0,1-Back,1,z,Wed Mar 05 2025 17:47:11 GMT-0600 (Central Standard Time),275588.0,071_y_f_d_a.png,O,z,1164,9,1,1958.0,273630.0,7083,VNB,A,8
9,prac,1,0.0,1-Back,1,m,Wed Mar 05 2025 17:47:11 GMT-0600 (Central Standard Time),277521.0,165_m_m_n_a.png,O,m,1116,10,1,1925.5,275595.5,7083,VNB,A,9
10,prac,1,0.0,1-Back,1,m,Wed Mar 05 2025 17:47:11 GMT-0600 (Central Standard Time),279936.89999997616,124_o_f_h_a.png,O,m,1582,11,1,2408.399999976158,277528.5,7083,VNB,A,10
11,prac,1,0.0,1-Back,1,m,Wed Mar 05 2025 17:47:11 GMT-0600 (Central Standard Time),281919.59999999404,109_y_m_d_a.png,O,m,1201,12,1,1974.4000000059605,279945.1999999881,7083,VNB,A,11
0,test,1,0.0,1-Back,,,Wed Mar 05 2025 17:47:11 GMT-0600 (Central Standard Time),281919.59999999404,071_y_f_d_a.png,O,space,6616,1,1,1974.4000000059605,279945.1999999881,7083,VNB,A,0
1,test,1,0.0,1-Back,1,m,Wed Mar 05 2025 17:47:11 GMT-0600 (Central Standard Time),299564.09999999404,139_m_f_n_a.png,O,m,1040,2,1,2059.4000000059605,297504.6999999881,7083,VNB,A,1
2,test,1,0.0,1-Back,1,m,Wed Mar 05 2025 17:47:11 GMT-0600 (Central Standard Time),301513.5,039_o_m_h_a.png,O,m,917,3,1,1943.1000000238419,299570.39999997616,7083,VNB,A,2
3,test,1,1.0,1-Back,1,z,Wed Mar 05 2025 17:47:11 GMT-0600 (Central Standard Time),303663.0,165_m_m_h_a.png,O,z,1121,4,1,2142.7000000178814,301520.2999999821,7083,VNB,A,3
4,test,1,0.0,1-Back,1,m,Wed Mar 05 2025 17:47:11 GMT-0600 (Central Standard Time),305612.1999999881,124_o_f_n_a.png,O,m,930,5,1,1943.0,303669.1999999881,7083,VNB,A,4
5,test,1,0.0,1-Back,1,m,Wed Mar 05 2025 17:47:11 GMT-0600 (Central Standard Time),307844.6999999881,109_y_m_d_a.png,O,m,1206,6,1,2226.199999988079,305618.5,7083,VNB,A,5
6,test,1,1.0,1-Back,1,z,Wed Mar 05 2025 17:47:11 GMT-0600 (Central Standard Time),309827.5,139_m_f_d_a.png,O,z,957,7,1,1976.300000011921,307851.1999999881,7083,VNB,A,6
7,test,1,0.0,1-Back,1,m,Wed Mar 05 2025 17:47:11 GMT-0600 (Central Standard Time),312509.89999997616,071_y_f_h_a.png,O,m,1663,8,1,2676.199999988079,309833.6999999881,7083,VNB,A,7
8,test,1,0.0,1-Back,1,m,Wed Mar 05 2025 17:47:11 GMT-0600 (Central Standard Time),314692.5,039_o_m_n_a.png,O,m,1164,9,1,2175.9000000059605,312516.59999999404,7083,VNB,A,8
9,test,1,0.0,1-Back,1,m,Wed Mar 05 2025 17:47:11 GMT-0600 (Central Standard Time),316792.09999999404,109_y_m_h_a.png,O,m,1077,10,1,2093.0999999940395,314699.0,7083,VNB,A,9
10,test,1,0.0,1-Back,1,m,Wed Mar 05 2025 17:47:11 GMT-0600 (Central Standard Time),319774.39999997616,039_o_m_d_a.png,O,m,1962,11,1,2976.0,316798.39999997616,7083,VNB,A,10
11,test,1,1.0,1-Back,1,z,Wed Mar 05 2025 17:47:11 GMT-0600 (Central Standard Time),321990.2999999821,124_o_f_d_a.png,O,z,1196,12,1,2209.5,319780.7999999821,7083,VNB,A,11
12,test,1,0.0,1-Back,1,m,Wed Mar 05 2025 17:47:11 GMT-0600 (Central Standard Time),324156.39999997616,165_m_m_n_a.png,O,m,1148,13,1,2159.5999999940395,321996.7999999821,7083,VNB,A,12
13,test,1,1.0,1-Back,1,z,Wed Mar 05 2025 17:47:11 GMT-0600 (Central Standard Time),326505.6999999881,071_y_f_n_a.png,O,z,1326,14,1,2343.0999999940395,324162.59999999404,7083,VNB,A,13
14,test,1,0.0,1-Back,1,m,Wed Mar 05 2025 17:47:11 GMT-0600 (Central Standard Time),328454.89999997616,139_m_f_h_a.png,O,m,920,15,1,1942.699999988079,326512.1999999881,7083,VNB,A,14
15,test,1,0.0,1-Back,1,m,Wed Mar 05 2025 17:47:11 GMT-0600 (Central Standard Time),331087.5,165_m_m_d_a.png,O,m,1602,16,1,2626.300000011921,328461.1999999881,7083,VNB,A,15
16,test,1,0.0,1-Back,1,m,Wed Mar 05 2025 17:47:11 GMT-0600 (Central Standard Time),333403.59999999404,109_y_m_n_a.png,O,m,1291,17,1,2309.5,331094.09999999404,7083,VNB,A,16
17,test,1,0.0,1-Back,1,m,Wed Mar 05 2025 17:47:11 GMT-0600 (Central Standard Time),335803.0,124_o_f_h_a.png,O,m,1383,18,1,2393.300000011921,333409.6999999881,7083,VNB,A,17
0,test,2,0.0,1-Back,,,Wed Mar 05 2025 17:47:11 GMT-0600 (Central Standard Time),335803.0,109_y_m_n_a.png,O,space,1286,1,1,2393.300000011921,333409.6999999881,7083,VNB,A,0
1,test,2,0.0,1-Back,1,m,Wed Mar 05 2025 17:47:11 GMT-0600 (Central Standard Time),341351.09999999404,071_y_f_h_a.png,O,m,1212,2,1,2226.4000000059605,339124.6999999881,7083,VNB,A,1
2,test,2,1.0,1-Back,1,m,Wed Mar 05 2025 17:47:11 GMT-0600 (Central Standard Time),343566.89999997616,039_o_m_n_a.png,O,m,1194,3,1,2208.699999988079,341358.1999999881,7083,VNB,A,2
3,test,2,0.0,1-Back,1,m,Wed Mar 05 2025 17:47:11 GMT-0600 (Central Standard Time),345632.7999999821,139_m_f_d_a.png,O,m,1043,4,1,2059.4000000059605,343573.39999997616,7083,VNB,A,3
4,test,2,0.0,1-Back,1,z,Wed Mar 05 2025 17:47:11 GMT-0600 (Central Standard Time),347632.39999997616,165_m_m_d_a.png,O,z,977,5,1,1993.0,345639.39999997616,7083,VNB,A,4
5,test,2,0.0,1-Back,1,m,Wed Mar 05 2025 17:47:11 GMT-0600 (Central Standard Time),349598.39999997616,109_y_m_h_a.png,O,m,945,6,1,1959.699999988079,347638.6999999881,7083,VNB,A,5
6,test,2,1.0,1-Back,1,z,Wed Mar 05 2025 17:47:11 GMT-0600 (Central Standard Time),351664.59999999404,124_o_f_h_a.png,O,z,1036,7,1,2059.9000000059605,349604.6999999881,7083,VNB,A,6
7,test,2,0.0,1-Back,1,m,Wed Mar 05 2025 17:47:11 GMT-0600 (Central Standard Time),353463.5,139_m_f_n_a.png,O,m,777,8,1,1791.800000011921,351671.6999999881,7083,VNB,A,7
8,test,2,0.0,1-Back,1,m,Wed Mar 05 2025 17:47:11 GMT-0600 (Central Standard Time),355629.59999999404,071_y_f_d_a.png,O,m,1146,9,1,2159.0,353470.59999999404,7083,VNB,A,8
9,test,2,0.0,1-Back,1,m,Wed Mar 05 2025 17:47:11 GMT-0600 (Central Standard Time),357446.09999999404,165_m_m_n_a.png,O,m,796,10,1,1809.4000000059605,355636.6999999881,7083,VNB,A,9
10,test,2,1.0,1-Back,1,m,Wed Mar 05 2025 17:47:11 GMT-0600 (Central Standard Time),359595.39999997616,139_m_f_h_a.png,O,m,1132,11,1,2142.5999999940395,357452.7999999821,7083,VNB,A,10
11,test,2,0.0,1-Back,1,z,Wed Mar 05 2025 17:47:11 GMT-0600 (Central Standard Time),361944.59999999404,039_o_m_h_a.png,O,z,1317,12,1,2342.9000000059605,359601.6999999881,7083,VNB,A,11
12,test,2,0.0,1-Back,1,m,Wed Mar 05 2025 17:47:11 GMT-0600 (Central Standard Time),364076.6999999881,109_y_m_d_a.png,O,m,1104,13,1,2125.5,361951.1999999881,7083,VNB,A,12
13,test,2,0.0,1-Back,1,m,Wed Mar 05 2025 17:47:11 GMT-0600 (Central Standard Time),366076.59999999404,124_o_f_n_a.png,O,m,973,14,1,1993.0,364083.59999999404,7083,VNB,A,13
14,test,2,0.0,1-Back,1,z,Wed Mar 05 2025 17:47:11 GMT-0600 (Central Standard Time),368242.6999999881,071_y_f_n_a.png,O,z,1133,15,1,2159.5,366083.1999999881,7083,VNB,A,14
15,test,2,1.0,1-Back,1,m,Wed Mar 05 2025 17:47:11 GMT-0600 (Central Standard Time),370541.89999997616,165_m_m_h_a.png,O,m,1272,16,1,2292.5999999940395,368249.2999999821,7083,VNB,A,15
16,test,2,0.0,1-Back,1,m,Wed Mar 05 2025 17:47:11 GMT-0600 (Central Standard Time),372657.7999999821,124_o_f_d_a.png,O,m,1092,17,1,2109.4000000059605,370548.39999997616,7083,VNB,A,16
17,test,2,1.0,1-Back,1,z,Wed Mar 05 2025 17:47:11 GMT-0600 (Central Standard Time),374690.59999999404,039_o_m_d_a.png,O,z,1008,18,1,2026.5,372664.09999999404,7083,VNB,A,17
0,test,3,1.0,1-Back,,,Wed Mar 05 2025 17:47:11 GMT-0600 (Central Standard Time),374690.59999999404,124_o_f_h_a.png,O,space,1240,1,1,2026.5,372664.09999999404,7083,VNB,A,0
1,test,3,0.0,1-Back,1,m,Wed Mar 05 2025 17:47:11 GMT-0600 (Central Standard Time),379872.1999999881,139_m_f_d_a.png,O,m,853,2,1,1876.300000011921,377995.89999997616,7083,VNB,A,1
2,test,3,1.0,1-Back,1,m,Wed Mar 05 2025 17:47:11 GMT-0600 (Central Standard Time),381804.7999999821,165_m_m_n_a.png,O,m,914,3,1,1926.199999988079,379878.59999999404,7083,VNB,A,2
3,test,3,0.0,1-Back,1,z,Wed Mar 05 2025 17:47:11 GMT-0600 (Central Standard Time),384054.39999997616,124_o_f_n_a.png,O,z,1229,4,1,2243.0999999940395,381811.2999999821,7083,VNB,A,3
4,test,3,1.0,1-Back,1,m,Wed Mar 05 2025 17:47:11 GMT-0600 (Central Standard Time),386120.2999999821,039_o_m_d_a.png,O,m,1036,5,1,2059.2999999821186,384061.0,7083,VNB,A,4
5,test,3,0.0,1-Back,1,m,Wed Mar 05 2025 17:47:11 GMT-0600 (Central Standard Time),388036.5,071_y_f_h_a.png,O,m,890,6,1,1909.800000011921,386126.6999999881,7083,VNB,A,5
6,test,3,0.0,1-Back,1,z,Wed Mar 05 2025 17:47:11 GMT-0600 (Central Standard Time),390068.89999997616,109_y_m_h_a.png,O,z,1014,7,1,2026.0999999940395,388042.7999999821,7083,VNB,A,6
7,test,3,0.0,1-Back,1,m,Wed Mar 05 2025 17:47:11 GMT-0600 (Central Standard Time),391985.1999999881,139_m_f_n_a.png,O,m,893,8,1,1909.699999988079,390075.5,7083,VNB,A,7
7,test,3,0.0,1-Back,0,m,Wed Mar 05 2025 17:47:11 GMT-0600 (Central Standard Time),393984.59999999404,071_y_f_d_a.png,O,z,844,9,1,1992.9000000059605,391991.6999999881,7083,VNB,A,8
8,test,3,1.0,1-Back,1,m,Wed Mar 05 2025 17:47:11 GMT-0600 (Central Standard Time),396150.5,039_o_m_n_a.png,O,m,1138,10,1,2159.800000011921,393990.6999999881,7083,VNB,A,9
9,test,3,0.0,1-Back,1,m,Wed Mar 05 2025 17:47:11 GMT-0600 (Central Standard Time),398149.7999999821,165_m_m_h_a.png,O,m,980,11,1,1992.4000000059605,396157.39999997616,7083,VNB,A,10
10,test,3,0.0,1-Back,1,z,Wed Mar 05 2025 17:47:11 GMT-0600 (Central Standard Time),400082.6999999881,139_m_f_h_a.png,O,z,907,12,1,1926.5999999940395,398156.09999999404,7083,VNB,A,11
11,test,3,1.0,1-Back,1,m,Wed Mar 05 2025 17:47:11 GMT-0600 (Central Standard Time),402281.89999997616,124_o_f_d_a.png,O,m,1167,13,1,2193.0,400088.89999997616,7083,VNB,A,12
12,test,3,0.0,1-Back,1,z,Wed Mar 05 2025 17:47:11 GMT-0600 (Central Standard Time),404247.7999999821,165_m_m_d_a.png,O,z,936,14,1,1959.4000000059605,402288.39999997616,7083,VNB,A,13
13,test,3,0.0,1-Back,1,m,Wed Mar 05 2025 17:47:11 GMT-0600 (Central Standard Time),406297.2999999821,109_y_m_n_a.png,O,m,1026,15,1,2043.199999988079,404254.09999999404,7083,VNB,A,14
14,test,3,1.0,1-Back,1,m,Wed Mar 05 2025 17:47:11 GMT-0600 (Central Standard Time),408996.6999999881,039_o_m_h_a.png,O,m,1673,16,1,2692.699999988079,406304.0,7083,VNB,A,15
15,test,3,0.0,1-Back,1,m,Wed Mar 05 2025 17:47:11 GMT-0600 (Central Standard Time),411262.6999999881,109_y_m_d_a.png,O,m,1238,17,1,2259.9000000059605,409002.7999999821,7083,VNB,A,16
16,test,3,1.0,1-Back,1,m,Wed Mar 05 2025 17:47:11 GMT-0600 (Central Standard Time),413611.89999997616,071_y_f_n_a.png,O,m,1324,18,1,2343.0,411268.89999997616,7083,VNB,A,17
0,test,4,1.0,1-Back,,,Wed Mar 05 2025 17:47:11 GMT-0600 (Central Standard Time),413611.89999997616,165_m_m_d_a.png,O,space,1757,1,1,2343.0,411268.89999997616,7083,VNB,A,0
1,test,4,0.0,1-Back,1,z,Wed Mar 05 2025 17:47:11 GMT-0600 (Central Standard Time),419526.5,039_o_m_d_a.png,O,z,1096,2,1,2109.4000000059605,417417.09999999404,7083,VNB,A,1
2,test,4,0.0,1-Back,1,m,Wed Mar 05 2025 17:47:11 GMT-0600 (Central Standard Time),421559.1999999881,109_y_m_h_a.png,O,m,1003,3,1,2026.300000011921,419532.89999997616,7083,VNB,A,2
3,test,4,0.0,1-Back,1,m,Wed Mar 05 2025 17:47:11 GMT-0600 (Central Standard Time),423741.6999999881,139_m_f_n_a.png,O,m,1155,4,1,2176.0999999940395,421565.59999999404,7083,VNB,A,3
4,test,4,1.0,1-Back,1,m,Wed Mar 05 2025 17:47:11 GMT-0600 (Central Standard Time),425841.1999999881,124_o_f_h_a.png,O,m,1068,5,1,2093.0,423748.1999999881,7083,VNB,A,4
5,test,4,0.0,1-Back,1,m,Wed Mar 05 2025 17:47:11 GMT-0600 (Central Standard Time),428023.7999999821,165_m_m_n_a.png,O,m,1153,6,1,2176.2999999821186,425847.5,7083,VNB,A,5
6,test,4,0.0,1-Back,1,m,Wed Mar 05 2025 17:47:11 GMT-0600 (Central Standard Time),430206.5,109_y_m_d_a.png,O,m,1162,7,1,2176.100000023842,428030.39999997616,7083,VNB,A,6
7,test,4,1.0,1-Back,1,z,Wed Mar 05 2025 17:47:11 GMT-0600 (Central Standard Time),432189.2999999821,071_y_f_d_a.png,O,z,964,8,1,1976.5,430212.7999999821,7083,VNB,A,7
8,test,4,0.0,1-Back,1,m,Wed Mar 05 2025 17:47:11 GMT-0600 (Central Standard Time),434188.59999999404,139_m_f_h_a.png,O,m,973,9,1,1992.800000011921,432195.7999999821,7083,VNB,A,8
9,test,4,0.0,1-Back,1,z,Wed Mar 05 2025 17:47:11 GMT-0600 (Central Standard Time),436271.1999999881,039_o_m_h_a.png,O,z,1054,10,1,2075.9000000059605,434195.2999999821,7083,VNB,A,9
10,test,4,1.0,1-Back,1,m,Wed Mar 05 2025 17:47:11 GMT-0600 (Central Standard Time),438420.59999999404,124_o_f_n_a.png,O,m,1131,11,1,2142.0,436278.59999999404,7083,VNB,A,10
11,test,4,0.0,1-Back,1,m,Wed Mar 05 2025 17:47:11 GMT-0600 (Central Standard Time),440654.2999999821,139_m_f_d_a.png,O,m,1213,12,1,2227.5,438426.7999999821,7083,VNB,A,11
12,test,4,0.0,1-Back,1,m,Wed Mar 05 2025 17:47:11 GMT-0600 (Central Standard Time),442502.6999999881,071_y_f_n_a.png,O,m,828,13,1,1842.300000011921,440660.39999997616,7083,VNB,A,12
13,test,4,0.0,1-Back,1,m,Wed Mar 05 2025 17:47:11 GMT-0600 (Central Standard Time),445102.0,124_o_f_d_a.png,O,m,1580,14,1,2592.800000011921,442509.1999999881,7083,VNB,A,13
14,test,4,0.0,1-Back,1,m,Wed Mar 05 2025 17:47:11 GMT-0600 (Central Standard Time),447184.59999999404,071_y_f_h_a.png,O,m,1052,15,1,2076.2000000178814,445108.39999997616,7083,VNB,A,14
15,test,4,1.0,1-Back,1,z,Wed Mar 05 2025 17:47:11 GMT-0600 (Central Standard Time),449284.7999999821,165_m_m_h_a.png,O,z,1081,16,1,2093.9000000059605,447190.89999997616,7083,VNB,A,15
16,test,4,0.0,1-Back,1,m,Wed Mar 05 2025 17:47:11 GMT-0600 (Central Standard Time),451500.89999997616,039_o_m_n_a.png,O,m,1190,17,1,2209.699999988079,449291.1999999881,7083,VNB,A,16
17,test,4,1.0,1-Back,1,z,Wed Mar 05 2025 17:47:11 GMT-0600 (Central Standard Time),453632.59999999404,109_y_m_n_a.png,O,z,1101,18,1,2125.2000000178814,451507.39999997616,7083,VNB,A,17
0,test,5,1.0,1-Back,,,Wed Mar 05 2025 17:47:11 GMT-0600 (Central Standard Time),453632.59999999404,039_o_m_n_a.png,O,space,1090,1,1,2125.2000000178814,451507.39999997616,7083,VNB,A,0
1,test,5,1.0,1-Back,1,m,Wed Mar 05 2025 17:47:11 GMT-0600 (Central Standard Time),458864.09999999404,124_o_f_h_a.png,O,m,1094,2,1,2110.0,456754.09999999404,7083,VNB,A,1
2,test,5,0.0,1-Back,1,m,Wed Mar 05 2025 17:47:11 GMT-0600 (Central Standard Time),461297.0,109_y_m_d_a.png,O,m,1402,3,1,2426.4000000059605,458870.59999999404,7083,VNB,A,2
3,test,5,0.0,1-Back,1,z,Wed Mar 05 2025 17:47:11 GMT-0600 (Central Standard Time),463146.0,039_o_m_d_a.png,O,z,825,4,1,1842.800000011921,461303.1999999881,7083,VNB,A,3
4,test,5,0.0,1-Back,1,m,Wed Mar 05 2025 17:47:11 GMT-0600 (Central Standard Time),465078.7999999821,139_m_f_h_a.png,O,m,904,5,1,1926.199999988079,463152.59999999404,7083,VNB,A,4
5,test,5,0.0,1-Back,1,m,Wed Mar 05 2025 17:47:11 GMT-0600 (Central Standard Time),467628.1999999881,071_y_f_n_a.png,O,m,1523,6,1,2542.9000000059605,465085.2999999821,7083,VNB,A,5
6,test,5,1.0,1-Back,1,z,Wed Mar 05 2025 17:47:11 GMT-0600 (Central Standard Time),469727.5,124_o_f_n_a.png,O,z,1070,7,1,2092.9000000059605,467634.59999999404,7083,VNB,A,6
7,test,5,0.0,1-Back,1,m,Wed Mar 05 2025 17:47:11 GMT-0600 (Central Standard Time),471743.5,139_m_f_d_a.png,O,m,987,8,1,2009.4000000059605,469734.09999999404,7083,VNB,A,7
8,test,5,0.0,1-Back,1,m,Wed Mar 05 2025 17:47:11 GMT-0600 (Central Standard Time),473693.89999997616,109_y_m_h_a.png,O,m,923,9,1,1943.5999999940395,471750.2999999821,7083,VNB,A,8
9,test,5,0.0,1-Back,1,m,Wed Mar 05 2025 17:47:11 GMT-0600 (Central Standard Time),475692.0,071_y_f_d_a.png,O,m,981,10,1,1991.7000000178814,473700.2999999821,7083,VNB,A,9
10,test,5,0.0,1-Back,1,m,Wed Mar 05 2025 17:47:11 GMT-0600 (Central Standard Time),477724.89999997616,165_m_m_n_a.png,O,m,1014,11,1,2026.3999999761581,475698.5,7083,VNB,A,10
11,test,5,1.0,1-Back,1,z,Wed Mar 05 2025 17:47:11 GMT-0600 (Central Standard Time),479657.89999997616,139_m_f_n_a.png,O,z,909,12,1,1926.2999999821186,477731.59999999404,7083,VNB,A,11
12,test,5,0.0,1-Back,1,m,Wed Mar 05 2025 17:47:11 GMT-0600 (Central Standard Time),481657.0,039_o_m_h_a.png,O,m,968,13,1,1992.5,479664.5,7083,VNB,A,12
13,test,5,0.0,1-Back,1,z,Wed Mar 05 2025 17:47:11 GMT-0600 (Central Standard Time),484206.09999999404,165_m_m_h_a.png,O,z,1521,14,1,2542.5,481663.59999999404,7083,VNB,A,13
13,test,5,1.0,1-Back,0,m,Wed Mar 05 2025 17:47:11 GMT-0600 (Central Standard Time),487282.0,124_o_f_d_a.png,O,None,2059,15,1,3069.4000000059605,484212.59999999404,7083,VNB,A,14
14,test,5,0.0,1-Back,1,m,Wed Mar 05 2025 17:47:11 GMT-0600 (Central Standard Time),490087.7999999821,109_y_m_n_a.png,O,m,1768,16,1,2798.0999999940395,487289.6999999881,7083,VNB,A,15
15,test,5,0.0,1-Back,1,m,Wed Mar 05 2025 17:47:11 GMT-0600 (Central Standard Time),492736.5,071_y_f_h_a.png,O,m,1618,17,1,2642.100000023842,490094.39999997616,7083,VNB,A,16
16,test,5,0.0,1-Back,1,m,Wed Mar 05 2025 17:47:11 GMT-0600 (Central Standard Time),494869.2999999821,165_m_m_d_a.png,O,m,1105,18,1,2126.0,492743.2999999821,7083,VNB,A,17
0,prac,1,0.0,2-Back,,,Wed Mar 05 2025 17:47:11 GMT-0600 (Central Standard Time),494869.2999999821,139_m_f_n_a.png,O,space,9012,1,1,2126.0,492743.2999999821,7083,VNB,A,0
0,prac,1,0.0,2-Back,,,Wed Mar 05 2025 17:47:11 GMT-0600 (Central Standard Time),494869.2999999821,124_o_f_h_a.png,O,space,9012,2,1,2126.0,492743.2999999821,7083,VNB,A,0
1,prac,1,0.0,2-Back,1,m,Wed Mar 05 2025 17:47:11 GMT-0600 (Central Standard Time),601569.599999994,039_o_m_d_a.png,O,m,1268,3,1,2074.9000000059605,599494.6999999881,7083,VNB,A,1
1,prac,1,1.0,2-Back,0,z,Wed Mar 05 2025 17:47:11 GMT-0600 (Central Standard Time),604385.2999999821,165_m_m_h_a.png,O,None,2016,4,1,2807.9000000059605,601577.3999999762,7083,VNB,A,2
2,prac,1,0.0,2-Back,1,m,Wed Mar 05 2025 17:47:11 GMT-0600 (Central Standard Time),606351.2999999821,071_y_f_n_a.png,O,m,1151,5,1,1958.2999999821186,604393.0,7083,VNB,A,3
3,prac,1,1.0,2-Back,1,z,Wed Mar 05 2025 17:47:11 GMT-0600 (Central Standard Time),608550.599999994,039_o_m_h_a.png,O,z,1388,6,1,2191.9000000059605,606358.6999999881,7083,VNB,A,4
3,prac,1,1.0,2-Back,0,z,Wed Mar 05 2025 17:47:11 GMT-0600 (Central Standard Time),610749.6999999881,109_y_m_n_a.png,O,m,1389,7,1,2191.5,608558.1999999881,7083,VNB,A,5
4,prac,1,0.0,2-Back,1,m,Wed Mar 05 2025 17:47:11 GMT-0600 (Central Standard Time),612732.7999999821,139_m_f_d_a.png,O,m,1172,8,1,1975.4000000059605,610757.3999999762,7083,VNB,A,6
5,prac,1,0.0,2-Back,1,m,Wed Mar 05 2025 17:47:11 GMT-0600 (Central Standard Time),614715.5,124_o_f_d_a.png,O,m,1142,9,1,1974.9000000059605,612740.599999994,7083,VNB,A,7
5,prac,1,0.0,2-Back,0,m,Wed Mar 05 2025 17:47:11 GMT-0600 (Central Standard Time),616698.0,165_m_m_h_a.png,O,z,1208,10,1,1975.1000000238419,614722.8999999762,7083,VNB,A,8
5,prac,1,1.0,2-Back,0,z,Wed Mar 05 2025 17:47:11 GMT-0600 (Central Standard Time),618930.599999994,071_y_f_d_a.png,O,m,1425,11,1,2225.0999999940395,616705.5,7083,VNB,A,9
6,prac,1,0.0,2-Back,1,m,Wed Mar 05 2025 17:47:11 GMT-0600 (Central Standard Time),621579.8999999762,039_o_m_n_a.png,O,m,1848,12,1,2641.5999999940395,618938.2999999821,7083,VNB,A,10
0,prac,2,0.0,2-Back,,,Wed Mar 05 2025 17:47:11 GMT-0600 (Central Standard Time),621579.8999999762,139_m_f_n_a.png,O,a,4531,1,1,2641.5999999940395,618938.2999999821,7083,VNB,A,0
0,prac,2,0.0,2-Back,,,Wed Mar 05 2025 17:47:11 GMT-0600 (Central Standard Time),621579.8999999762,124_o_f_h_a.png,O,a,4531,2,1,2641.5999999940395,618938.2999999821,7083,VNB,A,0
1,prac,2,0.0,2-Back,1,m,Wed Mar 05 2025 17:47:11 GMT-0600 (Central Standard Time),633309.5,039_o_m_d_a.png,O,m,1139,3,1,1942.0,631367.5,7083,VNB,A,1
2,prac,2,1.0,2-Back,1,z,Wed Mar 05 2025 17:47:11 GMT-0600 (Central Standard Time),635408.6999999881,165_m_m_h_a.png,O,z,1318,4,1,2091.800000011921,633316.8999999762,7083,VNB,A,2
3,prac,2,0.0,2-Back,1,m,Wed Mar 05 2025 17:47:11 GMT-0600 (Central Standard Time),637175.2999999821,071_y_f_n_a.png,O,m,952,5,1,1759.0,635416.2999999821,7083,VNB,A,3
4,prac,2,1.0,2-Back,1,z,Wed Mar 05 2025 17:47:11 GMT-0600 (Central Standard Time),639291.0,039_o_m_h_a.png,O,z,1315,6,1,2107.800000011921,637183.1999999881,7083,VNB,A,4
5,prac,2,1.0,2-Back,1,z,Wed Mar 05 2025 17:47:11 GMT-0600 (Central Standard Time),641790.099999994,109_y_m_n_a.png,O,z,1681,7,1,2491.7000000178814,639298.3999999762,7083,VNB,A,5
6,prac,2,0.0,2-Back,1,m,Wed Mar 05 2025 17:47:11 GMT-0600 (Central Standard Time),643956.1999999881,139_m_f_d_a.png,O,m,1363,8,1,2158.4000000059605,641797.7999999821,7083,VNB,A,6
7,prac,2,0.0,2-Back,1,m,Wed Mar 05 2025 17:47:11 GMT-0600 (Central Standard Time),646372.2999999821,124_o_f_d_a.png,O,m,1575,9,1,2408.5999999940395,643963.6999999881,7083,VNB,A,7
8,prac,2,0.0,2-Back,1,m,Wed Mar 05 2025 17:47:11 GMT-0600 (Central Standard Time),648354.599999994,165_m_m_h_a.png,O,m,1207,10,1,1975.0999999940395,646379.5,7083,VNB,A,8
8,prac,2,1.0,2-Back,0,z,Wed Mar 05 2025 17:47:11 GMT-0600 (Central Standard Time),650754.0,071_y_f_d_a.png,O,m,1600,11,1,2391.300000011921,648362.6999999881,7083,VNB,A,9
9,prac,2,0.0,2-Back,1,m,Wed Mar 05 2025 17:47:11 GMT-0600 (Central Standard Time),652870.0,039_o_m_n_a.png,O,m,1313,12,1,2108.2000000178814,650761.7999999821,7083,VNB,A,10
0,test,1,0.0,2-Back,,,Wed Mar 05 2025 17:47:11 GMT-0600 (Central Standard Time),652870.0,109_y_m_h_a.png,O,space,7308,1,1,2108.2000000178814,650761.7999999821,7083,VNB,A,0
0,test,1,0.0,2-Back,,,Wed Mar 05 2025 17:47:11 GMT-0600 (Central Standard Time),652870.0,124_o_f_n_a.png,O,space,7308,2,1,2108.2000000178814,650761.7999999821,7083,VNB,A,0
1,test,1,0.0,2-Back,1,z,Wed Mar 05 2025 17:47:11 GMT-0600 (Central Standard Time),672730.099999994,039_o_m_h_a.png,O,z,1140,3,1,2159.2000000178814,670570.8999999762,7083,VNB,A,1
2,test,1,0.0,2-Back,1,m,Wed Mar 05 2025 17:47:11 GMT-0600 (Central Standard Time),674829.599999994,139_m_f_d_a.png,O,m,1080,4,1,2091.7000000178814,672737.8999999762,7083,VNB,A,2
3,test,1,1.0,2-Back,1,m,Wed Mar 05 2025 17:47:11 GMT-0600 (Central Standard Time),677445.6999999881,109_y_m_n_a.png,O,m,1588,5,1,2609.0999999940395,674836.599999994,7083,VNB,A,3
4,test,1,0.0,2-Back,1,z,Wed Mar 05 2025 17:47:11 GMT-0600 (Central Standard Time),679811.599999994,071_y_f_d_a.png,O,z,1341,6,1,2358.9000000059605,677452.6999999881,7083,VNB,A,4
5,test,1,0.0,2-Back,1,m,Wed Mar 05 2025 17:47:11 GMT-0600 (Central Standard Time),682294.0,165_m_m_h_a.png,O,m,1455,7,1,2475.9000000059605,679818.099999994,7083,VNB,A,5
5,test,1,1.0,2-Back,0,m,Wed Mar 05 2025 17:47:11 GMT-0600 (Central Standard Time),684694.7999999821,071_y_f_n_a.png,O,z,1380,8,1,2394.0999999940395,682300.6999999881,7083,VNB,A,6
6,test,1,0.0,2-Back,1,z,Wed Mar 05 2025 17:47:11 GMT-0600 (Central Standard Time),686842.5,124_o_f_h_a.png,O,z,1116,9,1,2140.7000000178814,684701.7999999821,7083,VNB,A,7
7,test,1,0.0,2-Back,1,m,Wed Mar 05 2025 17:47:11 GMT-0600 (Central Standard Time),688992.099999994,039_o_m_d_a.png,O,m,1127,10,1,2142.5999999940395,686849.5,7083,VNB,A,8
8,test,1,1.0,2-Back,1,m,Wed Mar 05 2025 17:47:11 GMT-0600 (Central Standard Time),691374.5,165_m_m_d_a.png,O,m,1361,11,1,2375.800000011921,688998.6999999881,7083,VNB,A,9
9,test,1,0.0,2-Back,1,m,Wed Mar 05 2025 17:47:11 GMT-0600 (Central Standard Time),693607.099999994,139_m_f_n_a.png,O,m,1212,12,1,2225.9000000059605,691381.1999999881,7083,VNB,A,10
10,test,1,0.0,2-Back,1,m,Wed Mar 05 2025 17:47:11 GMT-0600 (Central Standard Time),695923.099999994,071_y_f_h_a.png,O,m,1299,13,1,2309.300000011921,693613.7999999821,7083,VNB,A,11
11,test,1,0.0,2-Back,1,z,Wed Mar 05 2025 17:47:11 GMT-0600 (Central Standard Time),698055.6999999881,165_m_m_n_a.png,O,z,1110,14,1,2126.199999988079,695929.5,7083,VNB,A,12
12,test,1,0.0,2-Back,1,m,Wed Mar 05 2025 17:47:11 GMT-0600 (Central Standard Time),700138.3999999762,109_y_m_d_a.png,O,m,1058,15,1,2076.199999988079,698062.1999999881,7083,VNB,A,13
13,test,1,1.0,2-Back,1,m,Wed Mar 05 2025 17:47:11 GMT-0600 (Central Standard Time),702487.7999999821,139_m_f_h_a.png,O,m,1318,16,1,2343.0,700144.7999999821,7083,VNB,A,14
14,test,1,0.0,2-Back,1,z,Wed Mar 05 2025 17:47:11 GMT-0600 (Central Standard Time),704420.599999994,124_o_f_d_a.png,O,z,906,17,1,1926.300000011921,702494.2999999821,7083,VNB,A,15
15,test,1,0.0,2-Back,1,m,Wed Mar 05 2025 17:47:11 GMT-0600 (Central Standard Time),706886.5,039_o_m_n_a.png,O,m,1446,18,1,2459.2000000178814,704427.2999999821,7083,VNB,A,16
0,test,2,0.0,2-Back,,,Wed Mar 05 2025 17:47:11 GMT-0600 (Central Standard Time),706886.5,165_m_m_h_a.png,O,space,1732,1,1,2459.2000000178814,704427.2999999821,7083,VNB,A,0
0,test,2,0.0,2-Back,,,Wed Mar 05 2025 17:47:11 GMT-0600 (Central Standard Time),706886.5,071_y_f_n_a.png,O,space,1732,2,1,2459.2000000178814,704427.2999999821,7083,VNB,A,0
1,test,2,1.0,2-Back,1,z,Wed Mar 05 2025 17:47:11 GMT-0600 (Central Standard Time),716017.099999994,124_o_f_h_a.png,O,z,1293,3,1,2309.2000000178814,713707.8999999762,7083,VNB,A,1
2,test,2,0.0,2-Back,1,m,Wed Mar 05 2025 17:47:11 GMT-0600 (Central Standard Time),718116.1999999881,039_o_m_d_a.png,O,m,1073,4,1,2092.5,716023.6999999881,7083,VNB,A,2
3,test,2,0.0,2-Back,1,m,Wed Mar 05 2025 17:47:11 GMT-0600 (Central Standard Time),720415.599999994,139_m_f_d_a.png,O,m,1278,5,1,2292.7000000178814,718122.8999999762,7083,VNB,A,3
4,test,2,0.0,2-Back,1,m,Wed Mar 05 2025 17:47:11 GMT-0600 (Central Standard Time),722697.7999999821,109_y_m_h_a.png,O,m,1258,6,1,2275.0999999940395,720422.6999999881,7083,VNB,A,4
5,test,2,0.0,2-Back,1,m,Wed Mar 05 2025 17:47:11 GMT-0600 (Central Standard Time),724797.3999999762,124_o_f_n_a.png,O,m,1072,7,1,2092.699999988079,722704.6999999881,7083,VNB,A,5
6,test,2,1.0,2-Back,1,z,Wed Mar 05 2025 17:47:11 GMT-0600 (Central Standard Time),726996.6999999881,039_o_m_h_a.png,O,z,1173,8,1,2191.5,724805.1999999881,7083,VNB,A,6
7,test,2,0.0,2-Back,1,m,Wed Mar 05 2025 17:47:11 GMT-0600 (Central Standard Time),729146.099999994,071_y_f_d_a.png,O,m,1117,9,1,2142.9000000059605,727003.1999999881,7083,VNB,A,7
8,test,2,0.0,2-Back,1,m,Wed Mar 05 2025 17:47:11 GMT-0600 (Central Standard Time),731228.6999999881,109_y_m_d_a.png,O,m,1055,10,1,2075.800000011921,729152.8999999762,7083,VNB,A,8
9,test,2,0.0,2-Back,1,m,Wed Mar 05 2025 17:47:11 GMT-0600 (Central Standard Time),733261.5,165_m_m_n_a.png,O,m,1005,11,1,2025.300000011921,731236.1999999881,7083,VNB,A,9
10,test,2,0.0,2-Back,1,m,Wed Mar 05 2025 17:47:11 GMT-0600 (Central Standard Time),735344.0,139_m_f_h_a.png,O,m,1060,12,1,2076.0,733268.0,7083,VNB,A,10
11,test,2,1.0,2-Back,1,z,Wed Mar 05 2025 17:47:11 GMT-0600 (Central Standard Time),737310.1999999881,039_o_m_n_a.png,O,z,937,13,1,1959.5,735350.6999999881,7083,VNB,A,11
12,test,2,0.0,2-Back,1,m,Wed Mar 05 2025 17:47:11 GMT-0600 (Central Standard Time),739159.5,124_o_f_d_a.png,O,m,828,14,1,1843.1000000238419,737316.3999999762,7083,VNB,A,12
13,test,2,0.0,2-Back,1,m,Wed Mar 05 2025 17:47:11 GMT-0600 (Central Standard Time),741192.2999999821,071_y_f_h_a.png,O,m,1010,15,1,2026.0999999940395,739166.1999999881,7083,VNB,A,13
14,test,2,0.0,2-Back,1,z,Wed Mar 05 2025 17:47:11 GMT-0600 (Central Standard Time),743058.5,165_m_m_d_a.png,O,z,834,16,1,1859.5,741199.0,7083,VNB,A,14
15,test,2,0.0,2-Back,1,m,Wed Mar 05 2025 17:47:11 GMT-0600 (Central Standard Time),745008.0,109_y_m_n_a.png,O,m,928,17,1,1943.2000000178814,743064.7999999821,7083,VNB,A,15
16,test,2,1.0,2-Back,1,m,Wed Mar 05 2025 17:47:11 GMT-0600 (Central Standard Time),746990.599999994,139_m_f_n_a.png,O,m,878,18,1,1976.2000000178814,745014.3999999762,7083,VNB,A,16
0,test,3,1.0,2-Back,,,Wed Mar 05 2025 17:47:11 GMT-0600 (Central Standard Time),746990.599999994,039_o_m_n_a.png,O,space,1307,1,1,1976.2000000178814,745014.3999999762,7083,VNB,A,0
0,test,3,1.0,2-Back,,,Wed Mar 05 2025 17:47:11 GMT-0600 (Central Standard Time),746990.599999994,124_o_f_d_a.png,O,space,1307,2,1,1976.2000000178814,745014.3999999762,7083,VNB,A,0
1,test,3,0.0,2-Back,1,m,Wed Mar 05 2025 17:47:11 GMT-0600 (Central Standard Time),755704.2999999821,071_y_f_h_a.png,O,m,1236,3,1,2259.199999988079,753445.099999994,7083,VNB,A,1
1,test,3,0.0,2-Back,0,z,Wed Mar 05 2025 17:47:11 GMT-0600 (Central Standard Time),757970.5,139_m_f_d_a.png,O,m,1242,4,1,2259.600000023842,755710.8999999762,7083,VNB,A,2
1,test,3,1.0,2-Back,0,m,Wed Mar 05 2025 17:47:11 GMT-0600 (Central Standard Time),760152.8999999762,109_y_m_n_a.png,O,z,1152,5,1,2174.7999999821186,757978.099999994,7083,VNB,A,3
2,test,3,0.0,2-Back,1,m,Wed Mar 05 2025 17:47:11 GMT-0600 (Central Standard Time),762685.599999994,039_o_m_h_a.png,O,m,1512,6,1,2526.0999999940395,760159.5,7083,VNB,A,4
3,test,3,0.0,2-Back,1,z,Wed Mar 05 2025 17:47:11 GMT-0600 (Central Standard Time),765368.099999994,071_y_f_n_a.png,O,z,1652,7,1,2675.5,762692.599999994,7083,VNB,A,5
3,test,3,1.0,2-Back,0,m,Wed Mar 05 2025 17:47:11 GMT-0600 (Central Standard Time),767667.3999999762,165_m_m_d_a.png,O,z,1274,8,1,2292.5999999940395,765374.7999999821,7083,VNB,A,6
4,test,3,0.0,2-Back,1,m,Wed Mar 05 2025 17:47:11 GMT-0600 (Central Standard Time),769999.8999999762,109_y_m_d_a.png,O,m,1303,9,1,2325.699999988079,767674.1999999881,7083,VNB,A,7
5,test,3,0.0,2-Back,1,m,Wed Mar 05 2025 17:47:11 GMT-0600 (Central Standard Time),772099.1999999881,124_o_f_h_a.png,O,m,1081,10,1,2092.5999999940395,770006.599999994,7083,VNB,A,8
6,test,3,1.0,2-Back,1,m,Wed Mar 05 2025 17:47:11 GMT-0600 (Central Standard Time),774098.6999999881,139_m_f_n_a.png,O,m,975,11,1,1992.4000000059605,772106.2999999821,7083,VNB,A,9
7,test,3,1.0,2-Back,1,z,Wed Mar 05 2025 17:47:11 GMT-0600 (Central Standard Time),776231.2999999821,165_m_m_h_a.png,O,z,1103,12,1,2126.4000000059605,774104.8999999762,7083,VNB,A,10
7,test,3,0.0,2-Back,0,m,Wed Mar 05 2025 17:47:11 GMT-0600 (Central Standard Time),778447.2999999821,071_y_f_d_a.png,O,z,1187,13,1,2209.5,776237.7999999821,7083,VNB,A,11
8,test,3,0.0,2-Back,1,m,Wed Mar 05 2025 17:47:11 GMT-0600 (Central Standard Time),780546.3999999762,124_o_f_n_a.png,O,m,1082,14,1,2092.5999999940395,778453.7999999821,7083,VNB,A,12
9,test,3,0.0,2-Back,1,z,Wed Mar 05 2025 17:47:11 GMT-0600 (Central Standard Time),783330.2999999821,039_o_m_d_a.png,O,z,1751,15,1,2776.9000000059605,780553.3999999762,7083,VNB,A,13
9,test,3,1.0,2-Back,0,m,Wed Mar 05 2025 17:47:11 GMT-0600 (Central Standard Time),785695.0,139_m_f_h_a.png,O,z,1337,16,1,2358.2000000178814,783336.7999999821,7083,VNB,A,14
10,test,3,0.0,2-Back,1,m,Wed Mar 05 2025 17:47:11 GMT-0600 (Central Standard Time),787461.099999994,165_m_m_n_a.png,O,m,747,17,1,1759.800000011921,785701.2999999821,7083,VNB,A,15
11,test,3,0.0,2-Back,1,z,Wed Mar 05 2025 17:47:11 GMT-0600 (Central Standard Time),789443.6999999881,109_y_m_h_a.png,O,z,965,18,1,1976.0,787467.6999999881,7083,VNB,A,16
0,test,4,0.0,2-Back,,,Wed Mar 05 2025 17:47:11 GMT-0600 (Central Standard Time),789443.6999999881,139_m_f_n_a.png,O,space,1174,1,1,1976.0,787467.6999999881,7083,VNB,A,0
0,test,4,0.0,2-Back,,,Wed Mar 05 2025 17:47:11 GMT-0600 (Central Standard Time),789443.6999999881,039_o_m_n_a.png,O,space,1174,2,1,1976.0,787467.6999999881,7083,VNB,A,0
1,test,4,1.0,2-Back,1,m,Wed Mar 05 2025 17:47:11 GMT-0600 (Central Standard Time),797824.6999999881,109_y_m_h_a.png,O,m,1093,3,1,2109.699999988079,795715.0,7083,VNB,A,1
2,test,4,1.0,2-Back,1,m,Wed Mar 05 2025 17:47:11 GMT-0600 (Central Standard Time),800190.599999994,124_o_f_d_a.png,O,m,1346,4,1,2359.300000011921,797831.2999999821,7083,VNB,A,2
3,test,4,0.0,2-Back,1,z,Wed Mar 05 2025 17:47:11 GMT-0600 (Central Standard Time),802206.6999999881,039_o_m_h_a.png,O,z,996,5,1,2009.5,800197.1999999881,7083,VNB,A,3
4,test,4,0.0,2-Back,1,m,Wed Mar 05 2025 17:47:11 GMT-0600 (Central Standard Time),804172.599999994,165_m_m_n_a.png,O,m,939,6,1,1958.9000000059605,802213.6999999881,7083,VNB,A,4
5,test,4,0.0,2-Back,1,m,Wed Mar 05 2025 17:47:11 GMT-0600 (Central Standard Time),806188.599999994,139_m_f_d_a.png,O,m,990,7,1,2009.300000011921,804179.2999999821,7083,VNB,A,5
6,test,4,0.0,2-Back,1,z,Wed Mar 05 2025 17:47:11 GMT-0600 (Central Standard Time),808587.7999999821,071_y_f_n_a.png,O,z,1373,8,1,2392.5999999940395,806195.1999999881,7083,VNB,A,6
7,test,4,1.0,2-Back,1,m,Wed Mar 05 2025 17:47:11 GMT-0600 (Central Standard Time),810854.099999994,124_o_f_h_a.png,O,m,1246,9,1,2259.4000000059605,808594.6999999881,7083,VNB,A,7
7,test,4,0.0,2-Back,0,m,Wed Mar 05 2025 17:47:11 GMT-0600 (Central Standard Time),813886.2999999821,165_m_m_h_a.png,O,None,2015,10,1,3025.7999999821186,810860.5,7083,VNB,A,8
8,test,4,0.0,2-Back,1,m,Wed Mar 05 2025 17:47:11 GMT-0600 (Central Standard Time),816352.0,071_y_f_d_a.png,O,m,1444,11,1,2458.9000000059605,813893.099999994,7083,VNB,A,9
9,test,4,0.0,2-Back,1,m,Wed Mar 05 2025 17:47:11 GMT-0600 (Central Standard Time),818634.5,109_y_m_n_a.png,O,m,1258,12,1,2275.300000011921,816359.1999999881,7083,VNB,A,10
10,test,4,0.0,2-Back,1,z,Wed Mar 05 2025 17:47:11 GMT-0600 (Central Standard Time),820600.599999994,039_o_m_d_a.png,O,z,943,13,1,1959.5999999940395,818641.0,7083,VNB,A,11
11,test,4,1.0,2-Back,1,m,Wed Mar 05 2025 17:47:11 GMT-0600 (Central Standard Time),822501.2999999821,139_m_f_h_a.png,O,m,880,14,1,1893.5999999940395,820607.6999999881,7083,VNB,A,12
12,test,4,1.0,2-Back,1,m,Wed Mar 05 2025 17:47:11 GMT-0600 (Central Standard Time),824783.8999999762,071_y_f_h_a.png,O,m,1262,15,1,2275.7999999821186,822508.099999994,7083,VNB,A,13
13,test,4,0.0,2-Back,1,m,Wed Mar 05 2025 17:47:11 GMT-0600 (Central Standard Time),826915.3999999762,124_o_f_n_a.png,O,m,1099,16,1,2124.5999999940395,824790.7999999821,7083,VNB,A,14
14,test,4,0.0,2-Back,1,m,Wed Mar 05 2025 17:47:11 GMT-0600 (Central Standard Time),829231.5,109_y_m_d_a.png,O,m,1295,17,1,2309.300000011921,826922.1999999881,7083,VNB,A,15
15,test,4,1.0,2-Back,1,m,Wed Mar 05 2025 17:47:11 GMT-0600 (Central Standard Time),831380.6999999881,165_m_m_d_a.png,O,m,1122,18,1,2142.5999999940395,829238.099999994,7083,VNB,A,16
0,test,5,1.0,2-Back,,,Wed Mar 05 2025 17:47:11 GMT-0600 (Central Standard Time),831380.6999999881,071_y_f_d_a.png,O,space,1294,1,1,2142.5999999940395,829238.099999994,7083,VNB,A,0
0,test,5,1.0,2-Back,,,Wed Mar 05 2025 17:47:11 GMT-0600 (Central Standard Time),831380.6999999881,124_o_f_h_a.png,O,space,1294,2,1,2142.5999999940395,829238.099999994,7083,VNB,A,0
1,test,5,1.0,2-Back,1,z,Wed Mar 05 2025 17:47:11 GMT-0600 (Central Standard Time),839794.599999994,039_o_m_d_a.png,O,z,999,3,1,2025.300000011921,837769.2999999821,7083,VNB,A,1
2,test,5,1.0,2-Back,1,m,Wed Mar 05 2025 17:47:11 GMT-0600 (Central Standard Time),841710.6999999881,139_m_f_n_a.png,O,m,894,4,1,1909.300000011921,839801.3999999762,7083,VNB,A,2
3,test,5,0.0,2-Back,1,m,Wed Mar 05 2025 17:47:11 GMT-0600 (Central Standard Time),843927.0,165_m_m_h_a.png,O,m,1187,5,1,2210.100000023842,841716.8999999762,7083,VNB,A,3
4,test,5,0.0,2-Back,1,z,Wed Mar 05 2025 17:47:11 GMT-0600 (Central Standard Time),846309.5,071_y_f_n_a.png,O,z,1355,6,1,2375.600000023842,843933.8999999762,7083,VNB,A,4
5,test,5,0.0,2-Back,1,m,Wed Mar 05 2025 17:47:11 GMT-0600 (Central Standard Time),848642.0,124_o_f_d_a.png,O,m,1308,7,1,2325.9000000059605,846316.099999994,7083,VNB,A,5
6,test,5,0.0,2-Back,1,m,Wed Mar 05 2025 17:47:11 GMT-0600 (Central Standard Time),851091.1999999881,039_o_m_h_a.png,O,m,1424,8,1,2442.699999988079,848648.5,7083,VNB,A,6
7,test,5,1.0,2-Back,1,z,Wed Mar 05 2025 17:47:11 GMT-0600 (Central Standard Time),853157.2999999821,139_m_f_d_a.png,O,z,1047,9,1,2059.199999988079,851098.099999994,7083,VNB,A,7
8,test,5,0.0,2-Back,1,m,Wed Mar 05 2025 17:47:11 GMT-0600 (Central Standard Time),855506.599999994,109_y_m_n_a.png,O,m,1324,10,1,2342.7000000178814,853163.8999999762,7083,VNB,A,8
9,test,5,0.0,2-Back,1,m,Wed Mar 05 2025 17:47:11 GMT-0600 (Central Standard Time),857755.3999999762,165_m_m_n_a.png,O,m,1231,11,1,2242.5999999940395,855512.7999999821,7083,VNB,A,9
10,test,5,0.0,2-Back,1,m,Wed Mar 05 2025 17:47:11 GMT-0600 (Central Standard Time),859788.6999999881,071_y_f_h_a.png,O,m,1006,12,1,2026.699999988079,857762.0,7083,VNB,A,10
11,test,5,0.0,2-Back,1,m,Wed Mar 05 2025 17:47:11 GMT-0600 (Central Standard Time),861804.599999994,109_y_m_d_a.png,O,m,990,13,1,2009.0,859795.599999994,7083,VNB,A,11
12,test,5,1.0,2-Back,1,z,Wed Mar 05 2025 17:47:11 GMT-0600 (Central Standard Time),863864.1999999881,139_m_f_h_a.png,O,z,1043,14,1,2053.0,861811.1999999881,7083,VNB,A,12
13,test,5,0.0,2-Back,1,m,Wed Mar 05 2025 17:47:11 GMT-0600 (Central Standard Time),865736.7999999821,039_o_m_n_a.png,O,m,844,15,1,1862.5999999940395,863874.1999999881,7083,VNB,A,13
14,test,5,0.0,2-Back,1,m,Wed Mar 05 2025 17:47:11 GMT-0600 (Central Standard Time),867919.2999999821,165_m_m_d_a.png,O,m,1154,16,1,2175.9000000059605,865743.3999999762,7083,VNB,A,14
15,test,5,0.0,2-Back,1,z,Wed Mar 05 2025 17:47:11 GMT-0600 (Central Standard Time),870103.3999999762,124_o_f_n_a.png,O,z,1163,17,1,2177.0999999940395,867926.2999999821,7083,VNB,A,15
16,test,5,1.0,2-Back,1,m,Wed Mar 05 2025 17:47:11 GMT-0600 (Central Standard Time),872301.1999999881,109_y_m_h_a.png,O,m,1172,18,1,2191.300000011921,870109.8999999762,7083,VNB,A,16
