block_c,block_dur,condition,countdown,datetime,endtime,list,multichar_response,project,response,response_time,session_number,start_end,starttime,subject_id,task,task_vers,trial
,,,,Mon Feb 24 2025 15:51:36 GMT-0600 (Central Standard Time),,,,O,space,14744,1,,,7060,WL,C,
prac,,0,,Mon Feb 24 2025 15:51:36 GMT-0600 (Central Standard Time),,NA,b,O,b,8444,1,,,7060,WL,C,1.0
prac,,0,,Mon Feb 24 2025 15:51:36 GMT-0600 (Central Standard Time),,NA,bo,O,o,340,1,,,7060,WL,C,1.0
prac,,0,,Mon Feb 24 2025 15:51:36 GMT-0600 (Central Standard Time),,NA,boo,O,o,158,1,,,7060,WL,C,1.0
prac,,0,,Mon Feb 24 2025 15:51:36 GMT-0600 (Central Standard Time),,NA,boos,O,s,175,1,,,7060,WL,C,1.0
prac,,0,,Mon Feb 24 2025 15:51:36 GMT-0600 (Central Standard Time),,NA,boost,O,t,213,1,,,7060,WL,C,1.0
prac,,0,,Mon Feb 24 2025 15:51:36 GMT-0600 (Central Standard Time),,NA,boostenter,O,enter,4727,1,,,7060,WL,C,1.0
1,9.94700002670288,learn,50052.99997329712,Mon Feb 24 2025 15:51:36 GMT-0600 (Central Standard Time),247137.10000002384,A,enter,O,enter,9924,1,9946.0,237191.10000002384,7060,WL,C,1.0
1,12.66100001335144,learn,47338.99998664856,Mon Feb 24 2025 15:51:36 GMT-0600 (Central Standard Time),249851.5,A,enter,O,enter,2707,1,2713.7999999821186,247137.70000001788,7060,WL,C,2.0
1,12.84500002861023,learn,47154.99997138977,Mon Feb 24 2025 15:51:36 GMT-0600 (Central Standard Time),250035.70000001788,A,enter,O,enter,167,1,183.7000000178814,249852.0,7060,WL,C,3.0
1,12.979000091552734,learn,47020.999908447266,Mon Feb 24 2025 15:51:36 GMT-0600 (Central Standard Time),250169.70000001788,A,enter,O,enter,127,1,133.5,250036.20000001788,7060,WL,C,4.0
1,13.16100001335144,learn,46838.99998664856,Mon Feb 24 2025 15:51:36 GMT-0600 (Central Standard Time),250351.60000002384,A,enter,O,enter,160,1,181.40000000596046,250170.20000001788,7060,WL,C,5.0
1,13.311000108718872,learn,46688.99989128113,Mon Feb 24 2025 15:51:36 GMT-0600 (Central Standard Time),250501.20000001788,A,enter,O,enter,130,1,149.30000001192093,250351.90000000596,7060,WL,C,6.0
1,13.445000171661377,learn,46554.99982833862,Mon Feb 24 2025 15:51:36 GMT-0600 (Central Standard Time),250635.0,A,enter,O,enter,117,1,133.2999999821186,250501.70000001788,7060,WL,C,7.0
1,13.611999988555908,learn,46388.00001144409,Mon Feb 24 2025 15:51:36 GMT-0600 (Central Standard Time),250802.30000001192,A,enter,O,enter,162,1,166.90000000596046,250635.40000000596,7060,WL,C,8.0
1,13.759999990463257,learn,46240.00000953674,Mon Feb 24 2025 15:51:36 GMT-0600 (Central Standard Time),250950.90000000596,A,enter,O,enter,136,1,148.19999998807907,250802.70000001788,7060,WL,C,9.0
1,13.927000045776367,learn,46072.99995422363,Mon Feb 24 2025 15:51:36 GMT-0600 (Central Standard Time),251117.80000001192,A,enter,O,enter,157,1,166.59999999403954,250951.20000001788,7060,WL,C,10.0
1,14.09500002861023,learn,45904.99997138977,Mon Feb 24 2025 15:51:36 GMT-0600 (Central Standard Time),251285.5,A,enter,O,enter,149,1,167.39999997615814,251118.10000002384,7060,WL,C,11.0
1,14.26200008392334,learn,45737.99991607666,Mon Feb 24 2025 15:51:36 GMT-0600 (Central Standard Time),251451.90000000596,A,enter,O,enter,143,1,166.0,251285.90000000596,7060,WL,C,12.0
1,14.394000053405762,learn,45605.99994659424,Mon Feb 24 2025 15:51:36 GMT-0600 (Central Standard Time),251584.30000001192,A,enter,O,enter,119,1,132.0,251452.30000001192,7060,WL,C,13.0
1,14.56000018119812,learn,45439.99981880188,Mon Feb 24 2025 15:51:36 GMT-0600 (Central Standard Time),251750.5,A,enter,O,enter,156,1,165.69999998807907,251584.80000001192,7060,WL,C,14.0
1,14.710000038146973,learn,45289.99996185303,Mon Feb 24 2025 15:51:36 GMT-0600 (Central Standard Time),251900.70000001788,A,enter,O,enter,141,1,149.90000000596046,251750.80000001192,7060,WL,C,15.0
2,5.099999904632568,learn,54900.00009536743,Mon Feb 24 2025 15:51:36 GMT-0600 (Central Standard Time),332443.60000002384,A,t,O,t,5093,1,5099.5,327344.10000002384,7060,WL,C,1.0
2,5.448999881744385,learn,54551.000118255615,Mon Feb 24 2025 15:51:36 GMT-0600 (Central Standard Time),332792.40000000596,A,to,O,o,335,1,5448.299999982119,327344.10000002384,7060,WL,C,1.0
2,5.733999967575073,learn,54266.00003242493,Mon Feb 24 2025 15:51:36 GMT-0600 (Central Standard Time),333077.2000000179,A,tow,O,w,278,1,5733.0999999940395,327344.10000002384,7060,WL,C,1.0
2,5.947999954223633,learn,54052.00004577637,Mon Feb 24 2025 15:51:36 GMT-0600 (Central Standard Time),333292.10000002384,A,towe,O,e,207,1,5948.0,327344.10000002384,7060,WL,C,1.0
2,6.13100004196167,learn,53868.99995803833,Mon Feb 24 2025 15:51:36 GMT-0600 (Central Standard Time),333475.2000000179,A,tower,O,r,167,1,6131.0999999940395,327344.10000002384,7060,WL,C,1.0
2,8.562999963760376,learn,51437.000036239624,Mon Feb 24 2025 15:51:36 GMT-0600 (Central Standard Time),335907.0,A,towerenter,O,enter,2415,1,8562.899999976158,327344.10000002384,7060,WL,C,1.0
2,9.948999881744385,learn,50051.000118255615,Mon Feb 24 2025 15:51:36 GMT-0600 (Central Standard Time),337292.2000000179,A,q,O,q,1379,1,1384.9000000059605,335907.3000000119,7060,WL,C,2.0
2,10.115999937057495,learn,49884.000062942505,Mon Feb 24 2025 15:51:36 GMT-0600 (Central Standard Time),337459.8000000119,A,qu,O,u,162,1,1552.5,335907.3000000119,7060,WL,C,2.0
2,10.395999908447266,learn,49604.000091552734,Mon Feb 24 2025 15:51:36 GMT-0600 (Central Standard Time),337739.8000000119,A,que,O,e,263,1,1832.5,335907.3000000119,7060,WL,C,2.0
2,10.579999923706055,learn,49420.000076293945,Mon Feb 24 2025 15:51:36 GMT-0600 (Central Standard Time),337923.90000000596,A,quee,O,e,177,1,2016.5999999940395,335907.3000000119,7060,WL,C,2.0
2,11.364000082015991,learn,48635.99991798401,Mon Feb 24 2025 15:51:36 GMT-0600 (Central Standard Time),338708.10000002384,A,queen,O,n,768,1,2800.800000011921,335907.3000000119,7060,WL,C,2.0
2,11.94700002670288,learn,48052.99997329712,Mon Feb 24 2025 15:51:36 GMT-0600 (Central Standard Time),339291.0,A,queenenter,O,enter,567,1,3383.699999988079,335907.3000000119,7060,WL,C,2.0
2,12.296000003814697,learn,47703.9999961853,Mon Feb 24 2025 15:51:36 GMT-0600 (Central Standard Time),339639.5,A,w,O,w,328,1,348.19999998807907,339291.3000000119,7060,WL,C,3.0
2,12.463000059127808,learn,47536.99994087219,Mon Feb 24 2025 15:51:36 GMT-0600 (Central Standard Time),339806.90000000596,A,wh,O,h,147,1,515.5999999940395,339291.3000000119,7060,WL,C,3.0
2,12.746999979019165,learn,47253.000020980835,Mon Feb 24 2025 15:51:36 GMT-0600 (Central Standard Time),340090.5,A,whe,O,e,276,1,799.1999999880791,339291.3000000119,7060,WL,C,3.0
2,13.04699993133545,learn,46953.00006866455,Mon Feb 24 2025 15:51:36 GMT-0600 (Central Standard Time),340390.40000000596,A,whea,O,a,281,1,1099.0999999940395,339291.3000000119,7060,WL,C,3.0
2,13.213000059127808,learn,46786.99994087219,Mon Feb 24 2025 15:51:36 GMT-0600 (Central Standard Time),340557.10000002384,A,wheat,O,t,143,1,1265.800000011921,339291.3000000119,7060,WL,C,3.0
2,13.711999893188477,learn,46288.00010681152,Mon Feb 24 2025 15:51:36 GMT-0600 (Central Standard Time),341055.90000000596,A,wheatenter,O,enter,486,1,1764.5999999940395,339291.3000000119,7060,WL,C,3.0
2,20.89400005340576,learn,39105.99994659424,Mon Feb 24 2025 15:51:36 GMT-0600 (Central Standard Time),348237.5,A,c,O,c,7172,1,7181.299999982119,341056.2000000179,7060,WL,C,4.0
2,21.026000022888184,learn,38973.99997711182,Mon Feb 24 2025 15:51:36 GMT-0600 (Central Standard Time),348370.0,A,ca,O,a,118,1,7313.799999982119,341056.2000000179,7060,WL,C,4.0
2,21.644999980926514,learn,38355.000019073486,Mon Feb 24 2025 15:51:36 GMT-0600 (Central Standard Time),348988.40000000596,A,cam,O,m,601,1,7932.199999988079,341056.2000000179,7060,WL,C,4.0
2,22.509999990463257,learn,37490.00000953674,Mon Feb 24 2025 15:51:36 GMT-0600 (Central Standard Time),349853.8000000119,A,camp,O,p,856,1,8797.59999999404,341056.2000000179,7060,WL,C,4.0
2,23.842999935150146,learn,36157.00006484985,Mon Feb 24 2025 15:51:36 GMT-0600 (Central Standard Time),351187.0,A,campenter,O,enter,1317,1,10130.799999982119,341056.2000000179,7060,WL,C,4.0
2,25.14199995994568,learn,34858.00004005432,Mon Feb 24 2025 15:51:36 GMT-0600 (Central Standard Time),352485.40000000596,A,n,O,n,1280,1,1298.0999999940395,351187.3000000119,7060,WL,C,5.0
2,25.243000030517578,learn,34756.99996948242,Mon Feb 24 2025 15:51:36 GMT-0600 (Central Standard Time),352586.60000002384,A,na,O,a,85,1,1399.300000011921,351187.3000000119,7060,WL,C,5.0
2,25.39199995994568,learn,34608.00004005432,Mon Feb 24 2025 15:51:36 GMT-0600 (Central Standard Time),352735.90000000596,A,nai,O,i,128,1,1548.5999999940395,351187.3000000119,7060,WL,C,5.0
2,25.97499990463257,learn,34025.00009536743,Mon Feb 24 2025 15:51:36 GMT-0600 (Central Standard Time),353318.90000000596,A,nail,O,l,570,1,2131.5999999940395,351187.3000000119,7060,WL,C,5.0
2,26.891000032424927,learn,33108.99996757507,Mon Feb 24 2025 15:51:36 GMT-0600 (Central Standard Time),354235.2000000179,A,nailenter,O,enter,910,1,3047.9000000059605,351187.3000000119,7060,WL,C,5.0
2,27.375,learn,32625.0,Mon Feb 24 2025 15:51:36 GMT-0600 (Central Standard Time),354718.7000000179,A,c,O,c,473,1,483.09999999403954,354235.60000002384,7060,WL,C,6.0
2,27.575000047683716,learn,32424.999952316284,Mon Feb 24 2025 15:51:36 GMT-0600 (Central Standard Time),354918.5,A,co,O,o,188,1,682.8999999761581,354235.60000002384,7060,WL,C,6.0
2,27.825999975204468,learn,32174.000024795532,Mon Feb 24 2025 15:51:36 GMT-0600 (Central Standard Time),355169.7000000179,A,cor,O,r,238,1,934.0999999940395,354235.60000002384,7060,WL,C,6.0
2,28.141000032424927,learn,31858.999967575073,Mon Feb 24 2025 15:51:36 GMT-0600 (Central Standard Time),355484.8000000119,A,corn,O,n,299,1,1249.199999988079,354235.60000002384,7060,WL,C,6.0
2,28.94000005722046,learn,31059.99994277954,Mon Feb 24 2025 15:51:36 GMT-0600 (Central Standard Time),356284.40000000596,A,cornenter,O,enter,790,1,2048.7999999821186,354235.60000002384,7060,WL,C,6.0
2,36.605000019073486,learn,23394.999980926514,Mon Feb 24 2025 15:51:36 GMT-0600 (Central Standard Time),363949.0,A,b,O,b,7647,1,7664.299999982119,356284.7000000179,7060,WL,C,7.0
2,36.90499997138977,learn,23095.00002861023,Mon Feb 24 2025 15:51:36 GMT-0600 (Central Standard Time),364249.2000000179,A,bo,O,o,288,1,7964.5,356284.7000000179,7060,WL,C,7.0
2,37.18899989128113,learn,22811.000108718872,Mon Feb 24 2025 15:51:36 GMT-0600 (Central Standard Time),364532.5,A,boy,O,y,265,1,8247.799999982119,356284.7000000179,7060,WL,C,7.0
2,37.94099998474121,learn,22059.00001525879,Mon Feb 24 2025 15:51:36 GMT-0600 (Central Standard Time),365285.10000002384,A,boyenter,O,enter,725,1,9000.40000000596,356284.7000000179,7060,WL,C,7.0
2,38.3050000667572,learn,21694.999933242798,Mon Feb 24 2025 15:51:36 GMT-0600 (Central Standard Time),365649.2000000179,A,d,O,d,352,1,363.2000000178814,365286.0,7060,WL,C,8.0
2,38.437000036239624,learn,21562.999963760376,Mon Feb 24 2025 15:51:36 GMT-0600 (Central Standard Time),365781.40000000596,A,do,O,o,122,1,495.40000000596046,365286.0,7060,WL,C,8.0
2,38.67199993133545,learn,21328.00006866455,Mon Feb 24 2025 15:51:36 GMT-0600 (Central Standard Time),366015.5,A,doc,O,c,223,1,729.5,365286.0,7060,WL,C,8.0
2,38.88800001144409,learn,21111.99998855591,Mon Feb 24 2025 15:51:36 GMT-0600 (Central Standard Time),366231.8000000119,A,doct,O,t,204,1,945.8000000119209,365286.0,7060,WL,C,8.0
2,39.253000020980835,learn,20746.999979019165,Mon Feb 24 2025 15:51:36 GMT-0600 (Central Standard Time),366597.3000000119,A,docto,O,o,357,1,1311.300000011921,365286.0,7060,WL,C,8.0
2,39.40499997138977,learn,20595.00002861023,Mon Feb 24 2025 15:51:36 GMT-0600 (Central Standard Time),366748.60000002384,A,doctor,O,r,145,1,1462.6000000238419,365286.0,7060,WL,C,8.0
2,40.05399990081787,learn,19946.00009918213,Mon Feb 24 2025 15:51:36 GMT-0600 (Central Standard Time),367397.5,A,doctorenter,O,enter,630,1,2111.5,365286.0,7060,WL,C,8.0
2,45.90299987792969,learn,14097.000122070312,Mon Feb 24 2025 15:51:36 GMT-0600 (Central Standard Time),373246.8000000119,A,c,O,c,5838,1,5848.9000000059605,367397.90000000596,7060,WL,C,9.0
2,46.00399994850159,learn,13996.000051498413,Mon Feb 24 2025 15:51:36 GMT-0600 (Central Standard Time),373348.10000002384,A,ca,O,a,94,1,5950.200000017881,367397.90000000596,7060,WL,C,9.0
2,46.16799998283386,learn,13832.000017166138,Mon Feb 24 2025 15:51:36 GMT-0600 (Central Standard Time),373512.3000000119,A,cat,O,t,143,1,6114.4000000059605,367397.90000000596,7060,WL,C,9.0
2,46.30200004577637,learn,13697.999954223633,Mon Feb 24 2025 15:51:36 GMT-0600 (Central Standard Time),373646.2000000179,A,catt,O,t,115,1,6248.300000011921,367397.90000000596,7060,WL,C,9.0
2,46.920000076293945,learn,13079.999923706055,Mon Feb 24 2025 15:51:36 GMT-0600 (Central Standard Time),374264.40000000596,A,cattl,O,l,605,1,6866.5,367397.90000000596,7060,WL,C,9.0
2,47.03600001335144,learn,12963.99998664856,Mon Feb 24 2025 15:51:36 GMT-0600 (Central Standard Time),374379.90000000596,A,cattle,O,e,99,1,6982.0,367397.90000000596,7060,WL,C,9.0
2,47.30200004577637,learn,12697.999954223633,Mon Feb 24 2025 15:51:36 GMT-0600 (Central Standard Time),374645.5,A,cattleenter,O,enter,247,1,7247.5999999940395,367397.90000000596,7060,WL,C,9.0
2,47.88499999046326,learn,12115.000009536743,Mon Feb 24 2025 15:51:36 GMT-0600 (Central Standard Time),375229.10000002384,A,r,O,r,575,1,583.4000000059605,374645.7000000179,7060,WL,C,10.0
2,48.170000076293945,learn,11829.999923706055,Mon Feb 24 2025 15:51:36 GMT-0600 (Central Standard Time),375513.60000002384,A,ri,O,i,262,1,867.9000000059605,374645.7000000179,7060,WL,C,10.0
2,48.80299997329712,learn,11197.00002670288,Mon Feb 24 2025 15:51:36 GMT-0600 (Central Standard Time),376146.90000000596,A,riv,O,v,627,1,1501.199999988079,374645.7000000179,7060,WL,C,10.0
2,48.95099997520447,learn,11049.000024795532,Mon Feb 24 2025 15:51:36 GMT-0600 (Central Standard Time),376294.90000000596,A,rive,O,e,127,1,1649.199999988079,374645.7000000179,7060,WL,C,10.0
2,49.068000078201294,learn,10931.999921798706,Mon Feb 24 2025 15:51:36 GMT-0600 (Central Standard Time),376411.8000000119,A,river,O,r,108,1,1766.0999999940395,374645.7000000179,7060,WL,C,10.0
2,49.4689998626709,learn,10531.000137329102,Mon Feb 24 2025 15:51:36 GMT-0600 (Central Standard Time),376812.5,A,riverenter,O,enter,388,1,2166.7999999821186,374645.7000000179,7060,WL,C,10.0
2,50.03500008583069,learn,9964.999914169312,Mon Feb 24 2025 15:51:36 GMT-0600 (Central Standard Time),377378.5,A,h,O,h,552,1,565.6999999880791,376812.8000000119,7060,WL,C,11.0
2,50.25200009346008,learn,9747.999906539917,Mon Feb 24 2025 15:51:36 GMT-0600 (Central Standard Time),377595.5,A,ho,O,o,202,1,782.6999999880791,376812.8000000119,7060,WL,C,11.0
2,50.467000007629395,learn,9532.999992370605,Mon Feb 24 2025 15:51:36 GMT-0600 (Central Standard Time),377811.2000000179,A,hom,O,m,210,1,998.4000000059605,376812.8000000119,7060,WL,C,11.0
2,50.568000078201294,learn,9431.999921798706,Mon Feb 24 2025 15:51:36 GMT-0600 (Central Standard Time),377911.8000000119,A,home,O,e,78,1,1099.0,376812.8000000119,7060,WL,C,11.0
2,50.901999950408936,learn,9098.000049591064,Mon Feb 24 2025 15:51:36 GMT-0600 (Central Standard Time),378245.40000000596,A,homeenter,O,enter,322,1,1432.5999999940395,376812.8000000119,7060,WL,C,11.0
2,57.26799988746643,learn,2732.0001125335693,Mon Feb 24 2025 15:51:36 GMT-0600 (Central Standard Time),384611.5,A,s,O,s,6343,1,6365.799999982119,378245.7000000179,7060,WL,C,12.0
2,57.3989999294281,learn,2601.0000705718994,Mon Feb 24 2025 15:51:36 GMT-0600 (Central Standard Time),384742.60000002384,A,su,O,u,111,1,6496.9000000059605,378245.7000000179,7060,WL,C,12.0
2,57.632999897003174,learn,2367.000102996826,Mon Feb 24 2025 15:51:36 GMT-0600 (Central Standard Time),384976.7000000179,A,sug,O,g,211,1,6731.0,378245.7000000179,7060,WL,C,12.0
2,57.76600003242493,learn,2233.9999675750732,Mon Feb 24 2025 15:51:36 GMT-0600 (Central Standard Time),385109.90000000596,A,suga,O,a,113,1,6864.199999988079,378245.7000000179,7060,WL,C,12.0
2,57.8989999294281,learn,2101.0000705718994,Mon Feb 24 2025 15:51:36 GMT-0600 (Central Standard Time),385243.10000002384,A,sugar,O,r,118,1,6997.4000000059605,378245.7000000179,7060,WL,C,12.0
2,58.764999866485596,learn,1235.0001335144043,Mon Feb 24 2025 15:51:36 GMT-0600 (Central Standard Time),386108.5,A,sugarenter,O,enter,846,1,7862.799999982119,378245.7000000179,7060,WL,C,12.0
2,60.014999866485596,learn,-14.999866485595703,Mon Feb 24 2025 15:51:36 GMT-0600 (Central Standard Time),387358.7000000179,A,None,O,None,1244,1,1249.9000000059605,386108.8000000119,7060,WL,C,13.0
3,1.9180002212524414,learn,58081.99977874756,Mon Feb 24 2025 15:51:36 GMT-0600 (Central Standard Time),466868.60000002384,A,t,O,t,1910,1,1917.5,464951.10000002384,7060,WL,C,1.0
3,2.5820000171661377,learn,57417.99998283386,Mon Feb 24 2025 15:51:36 GMT-0600 (Central Standard Time),467533.0,A,to,O,o,646,1,2581.899999976158,464951.10000002384,7060,WL,C,1.0
3,2.7170000076293945,learn,57282.999992370605,Mon Feb 24 2025 15:51:36 GMT-0600 (Central Standard Time),467667.8000000119,A,tow,O,w,128,1,2716.699999988079,464951.10000002384,7060,WL,C,1.0
3,2.9000000953674316,learn,57099.99990463257,Mon Feb 24 2025 15:51:36 GMT-0600 (Central Standard Time),467851.5,A,towe,O,e,167,1,2900.399999976158,464951.10000002384,7060,WL,C,1.0
3,3.0830001831054688,learn,56916.99981689453,Mon Feb 24 2025 15:51:36 GMT-0600 (Central Standard Time),468034.8000000119,A,tower,O,r,177,1,3083.699999988079,464951.10000002384,7060,WL,C,1.0
3,3.814000129699707,learn,56185.99987030029,Mon Feb 24 2025 15:51:36 GMT-0600 (Central Standard Time),468764.8000000119,A,towerenter,O,enter,720,1,3813.699999988079,464951.10000002384,7060,WL,C,1.0
3,4.231000185012817,learn,55768.99981498718,Mon Feb 24 2025 15:51:36 GMT-0600 (Central Standard Time),469182.10000002384,A,q,O,q,400,1,417.10000002384186,468765.0,7060,WL,C,2.0
3,4.4150002002716064,learn,55584.99979972839,Mon Feb 24 2025 15:51:36 GMT-0600 (Central Standard Time),469365.7000000179,A,qu,O,u,166,1,600.7000000178814,468765.0,7060,WL,C,2.0
3,4.5980000495910645,learn,55401.999950408936,Mon Feb 24 2025 15:51:36 GMT-0600 (Central Standard Time),469549.10000002384,A,que,O,e,164,1,784.1000000238419,468765.0,7060,WL,C,2.0
3,4.797000169754028,learn,55202.99983024597,Mon Feb 24 2025 15:51:36 GMT-0600 (Central Standard Time),469748.7000000179,A,quee,O,e,190,1,983.7000000178814,468765.0,7060,WL,C,2.0
3,5.0980000495910645,learn,54901.999950408936,Mon Feb 24 2025 15:51:36 GMT-0600 (Central Standard Time),470049.3000000119,A,queen,O,n,286,1,1284.300000011921,468765.0,7060,WL,C,2.0
3,5.630000114440918,learn,54369.99988555908,Mon Feb 24 2025 15:51:36 GMT-0600 (Central Standard Time),470581.40000000596,A,queenenter,O,enter,521,1,1816.4000000059605,468765.0,7060,WL,C,2.0
3,6.015000104904175,learn,53984.999895095825,Mon Feb 24 2025 15:51:36 GMT-0600 (Central Standard Time),470966.3000000119,A,w,O,w,377,1,384.59999999403954,470581.7000000179,7060,WL,C,3.0
3,6.2829999923706055,learn,53717.000007629395,Mon Feb 24 2025 15:51:36 GMT-0600 (Central Standard Time),471233.7000000179,A,wh,O,h,244,1,652.0,470581.7000000179,7060,WL,C,3.0
3,6.89900016784668,learn,53100.99983215332,Mon Feb 24 2025 15:51:36 GMT-0600 (Central Standard Time),471850.10000002384,A,whe,O,e,610,1,1268.4000000059605,470581.7000000179,7060,WL,C,3.0
3,7.049000024795532,learn,52950.99997520447,Mon Feb 24 2025 15:51:36 GMT-0600 (Central Standard Time),472000.0,A,whea,O,a,128,1,1418.2999999821186,470581.7000000179,7060,WL,C,3.0
3,7.180999994277954,learn,52819.000005722046,Mon Feb 24 2025 15:51:36 GMT-0600 (Central Standard Time),472132.2000000179,A,wheat,O,t,126,1,1550.5,470581.7000000179,7060,WL,C,3.0
3,7.563000202178955,learn,52436.999797821045,Mon Feb 24 2025 15:51:36 GMT-0600 (Central Standard Time),472514.5,A,wheatenter,O,enter,375,1,1932.7999999821186,470581.7000000179,7060,WL,C,3.0
3,8.099000215530396,learn,51900.999784469604,Mon Feb 24 2025 15:51:36 GMT-0600 (Central Standard Time),473049.8000000119,A,c,O,c,513,1,535.0999999940395,472514.7000000179,7060,WL,C,4.0
3,8.497000217437744,learn,51502.999782562256,Mon Feb 24 2025 15:51:36 GMT-0600 (Central Standard Time),473447.8000000119,A,co,O,o,386,1,933.0999999940395,472514.7000000179,7060,WL,C,4.0
3,8.646000146865845,learn,51353.999853134155,Mon Feb 24 2025 15:51:36 GMT-0600 (Central Standard Time),473597.3000000119,A,cor,O,r,132,1,1082.5999999940395,472514.7000000179,7060,WL,C,4.0
3,8.913000106811523,learn,51086.99989318848,Mon Feb 24 2025 15:51:36 GMT-0600 (Central Standard Time),473864.0,A,corn,O,n,254,1,1349.2999999821186,472514.7000000179,7060,WL,C,4.0
3,9.364000082015991,learn,50635.99991798401,Mon Feb 24 2025 15:51:36 GMT-0600 (Central Standard Time),474315.0,A,cornenter,O,enter,443,1,1800.2999999821186,472514.7000000179,7060,WL,C,4.0
3,11.34600019454956,learn,48653.99980545044,Mon Feb 24 2025 15:51:36 GMT-0600 (Central Standard Time),476297.40000000596,A,b,O,b,1961,1,1982.199999988079,474315.2000000179,7060,WL,C,5.0
3,11.729000091552734,learn,48270.999908447266,Mon Feb 24 2025 15:51:36 GMT-0600 (Central Standard Time),476680.90000000596,A,bo,O,o,361,1,2365.699999988079,474315.2000000179,7060,WL,C,5.0
3,12.009999990463257,learn,47990.00000953674,Mon Feb 24 2025 15:51:36 GMT-0600 (Central Standard Time),476961.8000000119,A,boy,O,y,267,1,2646.5999999940395,474315.2000000179,7060,WL,C,5.0
3,12.361999988555908,learn,47638.00001144409,Mon Feb 24 2025 15:51:36 GMT-0600 (Central Standard Time),477313.7000000179,A,boyenter,O,enter,338,1,2998.5,474315.2000000179,7060,WL,C,5.0
3,12.997000217437744,learn,47002.999782562256,Mon Feb 24 2025 15:51:36 GMT-0600 (Central Standard Time),477948.2000000179,A,d,O,d,627,1,634.2000000178814,477314.0,7060,WL,C,6.0
3,13.162000179290771,learn,46837.99982070923,Mon Feb 24 2025 15:51:36 GMT-0600 (Central Standard Time),478113.7000000179,A,do,O,o,142,1,799.7000000178814,477314.0,7060,WL,C,6.0
3,13.396000146865845,learn,46603.999853134155,Mon Feb 24 2025 15:51:36 GMT-0600 (Central Standard Time),478347.90000000596,A,doc,O,c,226,1,1033.9000000059605,477314.0,7060,WL,C,6.0
3,13.627000093460083,learn,46372.99990653992,Mon Feb 24 2025 15:51:36 GMT-0600 (Central Standard Time),478578.2000000179,A,doct,O,t,214,1,1264.2000000178814,477314.0,7060,WL,C,6.0
3,13.962000131607056,learn,46037.999868392944,Mon Feb 24 2025 15:51:36 GMT-0600 (Central Standard Time),478913.10000002384,A,docto,O,o,313,1,1599.1000000238419,477314.0,7060,WL,C,6.0
3,14.128000020980835,learn,45871.999979019165,Mon Feb 24 2025 15:51:36 GMT-0600 (Central Standard Time),479079.5,A,doctor,O,r,155,1,1765.5,477314.0,7060,WL,C,6.0
3,14.495000123977661,learn,45504.99987602234,Mon Feb 24 2025 15:51:36 GMT-0600 (Central Standard Time),479446.2000000179,A,doctorenter,O,enter,348,1,2132.2000000178814,477314.0,7060,WL,C,6.0
3,18.444000005722046,learn,41555.999994277954,Mon Feb 24 2025 15:51:36 GMT-0600 (Central Standard Time),483395.40000000596,A,w,O,w,3934,1,3949.0,479446.40000000596,7060,WL,C,7.0
3,18.960000038146973,learn,41039.99996185303,Mon Feb 24 2025 15:51:36 GMT-0600 (Central Standard Time),483911.2000000179,A,wh,O,h,505,1,4464.800000011921,479446.40000000596,7060,WL,C,7.0
3,19.06000018119812,learn,40939.99981880188,Mon Feb 24 2025 15:51:36 GMT-0600 (Central Standard Time),484011.7000000179,A,whe,O,e,85,1,4565.300000011921,479446.40000000596,7060,WL,C,7.0
3,19.31000018119812,learn,40689.99981880188,Mon Feb 24 2025 15:51:36 GMT-0600 (Central Standard Time),484261.3000000119,A,whea,O,a,232,1,4814.9000000059605,479446.40000000596,7060,WL,C,7.0
3,19.492000102996826,learn,40507.999897003174,Mon Feb 24 2025 15:51:36 GMT-0600 (Central Standard Time),484443.8000000119,A,wheat,O,t,166,1,4997.4000000059605,479446.40000000596,7060,WL,C,7.0
3,19.99500012397766,learn,40004.99987602234,Mon Feb 24 2025 15:51:36 GMT-0600 (Central Standard Time),484946.2000000179,A,wheatenter,O,enter,489,1,5499.800000011921,479446.40000000596,7060,WL,C,7.0
3,20.54300022125244,learn,39456.99977874756,Mon Feb 24 2025 15:51:36 GMT-0600 (Central Standard Time),485494.0,A,c,O,c,530,1,547.5,484946.5,7060,WL,C,8.0
3,20.66000008583069,learn,39339.99991416931,Mon Feb 24 2025 15:51:36 GMT-0600 (Central Standard Time),485611.0,A,ca,O,a,109,1,664.5,484946.5,7060,WL,C,8.0
3,20.993000030517578,learn,39006.99996948242,Mon Feb 24 2025 15:51:36 GMT-0600 (Central Standard Time),485944.10000002384,A,cam,O,m,321,1,997.6000000238419,484946.5,7060,WL,C,8.0
3,21.342000007629395,learn,38657.999992370605,Mon Feb 24 2025 15:51:36 GMT-0600 (Central Standard Time),486293.8000000119,A,camp,O,p,340,1,1347.300000011921,484946.5,7060,WL,C,8.0
3,21.62600016593933,learn,38373.99983406067,Mon Feb 24 2025 15:51:36 GMT-0600 (Central Standard Time),486577.7000000179,A,campenter,O,enter,276,1,1631.2000000178814,484946.5,7060,WL,C,8.0
3,22.426000118255615,learn,37573.999881744385,Mon Feb 24 2025 15:51:36 GMT-0600 (Central Standard Time),487376.90000000596,A,f,O,f,778,1,799.0,486577.90000000596,7060,WL,C,9.0
3,22.7260000705719,learn,37273.9999294281,Mon Feb 24 2025 15:51:36 GMT-0600 (Central Standard Time),487677.2000000179,A,fl,O,l,292,1,1099.300000011921,486577.90000000596,7060,WL,C,9.0
3,22.875,learn,37125.0,Mon Feb 24 2025 15:51:36 GMT-0600 (Central Standard Time),487826.5,A,fla,O,a,133,1,1248.5999999940395,486577.90000000596,7060,WL,C,9.0
3,23.324000120162964,learn,36675.999879837036,Mon Feb 24 2025 15:51:36 GMT-0600 (Central Standard Time),488275.3000000119,A,flag,O,g,440,1,1697.4000000059605,486577.90000000596,7060,WL,C,9.0
3,26.35700011253357,learn,33642.99988746643,Mon Feb 24 2025 15:51:36 GMT-0600 (Central Standard Time),491308.8000000119,A,flagenter,O,enter,3010,1,4730.9000000059605,486577.90000000596,7060,WL,C,9.0
3,26.624000072479248,learn,33375.99992752075,Mon Feb 24 2025 15:51:36 GMT-0600 (Central Standard Time),491575.2000000179,A,d,O,d,255,1,266.09999999403954,491309.10000002384,7060,WL,C,10.0
3,26.807000160217285,learn,33192.999839782715,Mon Feb 24 2025 15:51:36 GMT-0600 (Central Standard Time),491758.60000002384,A,do,O,o,164,1,449.5,491309.10000002384,7060,WL,C,10.0
3,26.992000102996826,learn,33007.999897003174,Mon Feb 24 2025 15:51:36 GMT-0600 (Central Standard Time),491943.40000000596,A,doc,O,c,165,1,634.2999999821186,491309.10000002384,7060,WL,C,10.0
3,27.189000129699707,learn,32810.99987030029,Mon Feb 24 2025 15:51:36 GMT-0600 (Central Standard Time),492140.8000000119,A,doct,O,t,188,1,831.6999999880791,491309.10000002384,7060,WL,C,10.0
3,27.574000120162964,learn,32425.999879837036,Mon Feb 24 2025 15:51:36 GMT-0600 (Central Standard Time),492525.8000000119,A,docto,O,o,375,1,1216.699999988079,491309.10000002384,7060,WL,C,10.0
3,27.706000089645386,learn,32293.999910354614,Mon Feb 24 2025 15:51:36 GMT-0600 (Central Standard Time),492657.7000000179,A,doctor,O,r,118,1,1348.5999999940395,491309.10000002384,7060,WL,C,10.0
3,28.52300000190735,learn,31476.99999809265,Mon Feb 24 2025 15:51:36 GMT-0600 (Central Standard Time),493474.2000000179,A,doctorenter,O,enter,801,1,2165.0999999940395,491309.10000002384,7060,WL,C,10.0
3,34.004000186920166,learn,25995.999813079834,Mon Feb 24 2025 15:51:36 GMT-0600 (Central Standard Time),498955.90000000596,A,s,O,s,5474,1,5481.4000000059605,493474.5,7060,WL,C,11.0
3,34.1710000038147,learn,25828.999996185303,Mon Feb 24 2025 15:51:36 GMT-0600 (Central Standard Time),499122.5,A,sh,O,h,152,1,5648.0,493474.5,7060,WL,C,11.0
3,34.4210000038147,learn,25578.999996185303,Mon Feb 24 2025 15:51:36 GMT-0600 (Central Standard Time),499372.90000000596,A,sho,O,o,243,1,5898.4000000059605,493474.5,7060,WL,C,11.0
3,34.77300000190735,learn,25226.99999809265,Mon Feb 24 2025 15:51:36 GMT-0600 (Central Standard Time),499724.2000000179,A,shor,O,r,346,1,6249.700000017881,493474.5,7060,WL,C,11.0
3,34.87100005149841,learn,25128.999948501587,Mon Feb 24 2025 15:51:36 GMT-0600 (Central Standard Time),499822.60000002384,A,shore,O,e,78,1,6348.100000023842,493474.5,7060,WL,C,11.0
3,35.65500020980835,learn,24344.99979019165,Mon Feb 24 2025 15:51:36 GMT-0600 (Central Standard Time),500606.0,A,shoreenter,O,enter,764,1,7131.5,493474.5,7060,WL,C,11.0
3,39.07200002670288,learn,20927.99997329712,Mon Feb 24 2025 15:51:36 GMT-0600 (Central Standard Time),504023.10000002384,A,h,O,h,3407,1,3416.9000000059605,500606.2000000179,7060,WL,C,12.0
3,39.30400013923645,learn,20695.99986076355,Mon Feb 24 2025 15:51:36 GMT-0600 (Central Standard Time),504255.0,A,ho,O,o,213,1,3648.7999999821186,500606.2000000179,7060,WL,C,12.0
3,39.80400013923645,learn,20195.99986076355,Mon Feb 24 2025 15:51:36 GMT-0600 (Central Standard Time),504755.40000000596,A,hom,O,m,485,1,4149.199999988079,500606.2000000179,7060,WL,C,12.0
3,39.9210000038147,learn,20078.999996185303,Mon Feb 24 2025 15:51:36 GMT-0600 (Central Standard Time),504872.2000000179,A,home,O,e,96,1,4266.0,500606.2000000179,7060,WL,C,12.0
3,40.8030002117157,learn,19196.9997882843,Mon Feb 24 2025 15:51:36 GMT-0600 (Central Standard Time),505754.7000000179,A,homeenter,O,enter,876,1,5148.5,500606.2000000179,7060,WL,C,12.0
3,46.25100016593933,learn,13748.999834060669,Mon Feb 24 2025 15:51:36 GMT-0600 (Central Standard Time),511202.8000000119,A,c,O,c,5434,1,5447.800000011921,505755.0,7060,WL,C,13.0
3,46.33300018310547,learn,13666.999816894531,Mon Feb 24 2025 15:51:36 GMT-0600 (Central Standard Time),511284.60000002384,A,ca,O,a,73,1,5529.600000023842,505755.0,7060,WL,C,13.0
3,46.51700019836426,learn,13482.999801635742,Mon Feb 24 2025 15:51:36 GMT-0600 (Central Standard Time),511468.90000000596,A,cat,O,t,173,1,5713.9000000059605,505755.0,7060,WL,C,13.0
3,46.651000022888184,learn,13348.999977111816,Mon Feb 24 2025 15:51:36 GMT-0600 (Central Standard Time),511602.90000000596,A,catt,O,t,119,1,5847.9000000059605,505755.0,7060,WL,C,13.0
3,47.01800012588501,learn,12981.99987411499,Mon Feb 24 2025 15:51:36 GMT-0600 (Central Standard Time),511969.7000000179,A,cattl,O,l,359,1,6214.700000017881,505755.0,7060,WL,C,13.0
3,47.152000188827515,learn,12847.999811172485,Mon Feb 24 2025 15:51:36 GMT-0600 (Central Standard Time),512103.2000000179,A,cattle,O,e,115,1,6348.200000017881,505755.0,7060,WL,C,13.0
3,47.43600010871887,learn,12563.999891281128,Mon Feb 24 2025 15:51:36 GMT-0600 (Central Standard Time),512386.90000000596,A,cattleenter,O,enter,263,1,6631.9000000059605,505755.0,7060,WL,C,13.0
3,51.85000014305115,learn,8149.9998569488525,Mon Feb 24 2025 15:51:36 GMT-0600 (Central Standard Time),516801.40000000596,A,n,O,n,4402,1,4414.199999988079,512387.2000000179,7060,WL,C,14.0
3,51.915000200271606,learn,8084.999799728394,Mon Feb 24 2025 15:51:36 GMT-0600 (Central Standard Time),516866.3000000119,A,na,O,a,59,1,4479.0999999940395,512387.2000000179,7060,WL,C,14.0
3,52.08300018310547,learn,7916.999816894531,Mon Feb 24 2025 15:51:36 GMT-0600 (Central Standard Time),517034.5,A,nai,O,i,152,1,4647.299999982119,512387.2000000179,7060,WL,C,14.0
3,52.28400015830994,learn,7715.9998416900635,Mon Feb 24 2025 15:51:36 GMT-0600 (Central Standard Time),517235.2000000179,A,nail,O,l,184,1,4848.0,512387.2000000179,7060,WL,C,14.0
3,52.60000014305115,learn,7399.9998569488525,Mon Feb 24 2025 15:51:36 GMT-0600 (Central Standard Time),517551.40000000596,A,nailenter,O,enter,304,1,5164.199999988079,512387.2000000179,7060,WL,C,14.0
3,60.01300001144409,learn,-13.000011444091797,Mon Feb 24 2025 15:51:36 GMT-0600 (Central Standard Time),524964.8000000119,A,None,O,None,7409,1,7413.0999999940395,517551.7000000179,7060,WL,C,15.0
4,2.8999998569488525,learn,57100.00014305115,Mon Feb 24 2025 15:51:36 GMT-0600 (Central Standard Time),598359.3000000119,A,q,O,q,2887,1,2899.699999988079,595459.6000000238,7060,WL,C,1.0
4,3.0989999771118164,learn,56901.00002288818,Mon Feb 24 2025 15:51:36 GMT-0600 (Central Standard Time),598557.6000000238,A,qu,O,u,188,1,3098.0,595459.6000000238,7060,WL,C,1.0
4,3.2829999923706055,learn,56717.000007629395,Mon Feb 24 2025 15:51:36 GMT-0600 (Central Standard Time),598742.400000006,A,que,O,e,166,1,3282.7999999821186,595459.6000000238,7060,WL,C,1.0
4,3.4819998741149902,learn,56518.00012588501,Mon Feb 24 2025 15:51:36 GMT-0600 (Central Standard Time),598941.400000006,A,quee,O,e,191,1,3481.7999999821186,595459.6000000238,7060,WL,C,1.0
4,3.6999998092651367,learn,56300.00019073486,Mon Feb 24 2025 15:51:36 GMT-0600 (Central Standard Time),599158.5,A,queen,O,n,206,1,3698.899999976158,595459.6000000238,7060,WL,C,1.0
4,4.281999826431274,learn,55718.000173568726,Mon Feb 24 2025 15:51:36 GMT-0600 (Central Standard Time),599741.3000000119,A,queent,O,t,565,1,4281.699999988079,595459.6000000238,7060,WL,C,1.0
4,4.633999824523926,learn,55366.000175476074,Mon Feb 24 2025 15:51:36 GMT-0600 (Central Standard Time),600092.5,A,queento,O,o,333,1,4632.899999976158,595459.6000000238,7060,WL,C,1.0
4,4.796000003814697,learn,55203.9999961853,Mon Feb 24 2025 15:51:36 GMT-0600 (Central Standard Time),600255.1000000238,A,queentow,O,w,155,1,4795.5,595459.6000000238,7060,WL,C,1.0
4,5.048999786376953,learn,54951.00021362305,Mon Feb 24 2025 15:51:36 GMT-0600 (Central Standard Time),600508.2000000179,A,queentowe,O,e,249,1,5048.5999999940395,595459.6000000238,7060,WL,C,1.0
4,5.264999866485596,learn,54735.000133514404,Mon Feb 24 2025 15:51:36 GMT-0600 (Central Standard Time),600724.3000000119,A,queentower,O,r,200,1,5264.699999988079,595459.6000000238,7060,WL,C,1.0
4,8.547999858856201,learn,51452.0001411438,Mon Feb 24 2025 15:51:36 GMT-0600 (Central Standard Time),604006.7000000179,A,queentowe,O,backspace,3263,1,8547.09999999404,595459.6000000238,7060,WL,C,1.0
4,8.730999946594238,learn,51269.00005340576,Mon Feb 24 2025 15:51:36 GMT-0600 (Central Standard Time),604190.5,A,queentow,O,backspace,165,1,8730.899999976158,595459.6000000238,7060,WL,C,1.0
4,8.88099980354309,learn,51119.00019645691,Mon Feb 24 2025 15:51:36 GMT-0600 (Central Standard Time),604339.8000000119,A,queento,O,backspace,132,1,8880.199999988079,595459.6000000238,7060,WL,C,1.0
4,9.063999891281128,learn,50936.00010871887,Mon Feb 24 2025 15:51:36 GMT-0600 (Central Standard Time),604522.900000006,A,queent,O,backspace,168,1,9063.299999982119,595459.6000000238,7060,WL,C,1.0
4,9.396999835968018,learn,50603.00016403198,Mon Feb 24 2025 15:51:36 GMT-0600 (Central Standard Time),604856.0,A,queen,O,backspace,320,1,9396.399999976158,595459.6000000238,7060,WL,C,1.0
4,10.496999979019165,learn,49503.000020980835,Mon Feb 24 2025 15:51:36 GMT-0600 (Central Standard Time),605956.2000000179,A,queenenter,O,enter,1084,1,10496.59999999404,595459.6000000238,7060,WL,C,1.0
4,11.264999866485596,learn,48735.000133514404,Mon Feb 24 2025 15:51:36 GMT-0600 (Central Standard Time),606723.7000000179,A,t,O,t,761,1,767.2000000178814,605956.5,7060,WL,C,2.0
4,11.578999996185303,learn,48421.0000038147,Mon Feb 24 2025 15:51:36 GMT-0600 (Central Standard Time),607037.8000000119,A,to,O,o,303,1,1081.300000011921,605956.5,7060,WL,C,2.0
4,11.745999813079834,learn,48254.000186920166,Mon Feb 24 2025 15:51:36 GMT-0600 (Central Standard Time),607205.3000000119,A,tow,O,w,158,1,1248.800000011921,605956.5,7060,WL,C,2.0
4,11.946999788284302,learn,48053.0002117157,Mon Feb 24 2025 15:51:36 GMT-0600 (Central Standard Time),607406.400000006,A,towe,O,e,183,1,1449.9000000059605,605956.5,7060,WL,C,2.0
4,12.11299991607666,learn,47887.00008392334,Mon Feb 24 2025 15:51:36 GMT-0600 (Central Standard Time),607572.2000000179,A,tower,O,r,149,1,1615.7000000178814,605956.5,7060,WL,C,2.0
4,13.197999954223633,learn,46802.00004577637,Mon Feb 24 2025 15:51:36 GMT-0600 (Central Standard Time),608656.6000000238,A,towerenter,O,enter,1071,1,2700.100000023842,605956.5,7060,WL,C,2.0
4,15.26199984550476,learn,44738.00015449524,Mon Feb 24 2025 15:51:36 GMT-0600 (Central Standard Time),610721.2000000179,A,s,O,s,2052,1,2064.4000000059605,608656.8000000119,7060,WL,C,3.0
4,15.444999933242798,learn,44555.0000667572,Mon Feb 24 2025 15:51:36 GMT-0600 (Central Standard Time),610903.7000000179,A,su,O,u,163,1,2246.9000000059605,608656.8000000119,7060,WL,C,3.0
4,15.811999797821045,learn,44188.000202178955,Mon Feb 24 2025 15:51:36 GMT-0600 (Central Standard Time),611271.3000000119,A,sug,O,g,355,1,2614.5,608656.8000000119,7060,WL,C,3.0
4,15.944999933242798,learn,44055.0000667572,Mon Feb 24 2025 15:51:36 GMT-0600 (Central Standard Time),611403.7000000179,A,suga,O,a,125,1,2746.9000000059605,608656.8000000119,7060,WL,C,3.0
4,16.061999797821045,learn,43938.000202178955,Mon Feb 24 2025 15:51:36 GMT-0600 (Central Standard Time),611520.400000006,A,sugar,O,r,103,1,2863.5999999940395,608656.8000000119,7060,WL,C,3.0
4,16.42799997329712,learn,43572.00002670288,Mon Feb 24 2025 15:51:36 GMT-0600 (Central Standard Time),611887.1000000238,A,sugarenter,O,enter,356,1,3230.300000011921,608656.8000000119,7060,WL,C,3.0
4,17.111999988555908,learn,42888.00001144409,Mon Feb 24 2025 15:51:36 GMT-0600 (Central Standard Time),612570.900000006,A,w,O,w,678,1,683.5,611887.400000006,7060,WL,C,4.0
4,17.5939998626709,learn,42406.0001373291,Mon Feb 24 2025 15:51:36 GMT-0600 (Central Standard Time),613053.2000000179,A,wh,O,h,471,1,1165.800000011921,611887.400000006,7060,WL,C,4.0
4,17.728999853134155,learn,42271.000146865845,Mon Feb 24 2025 15:51:36 GMT-0600 (Central Standard Time),613188.1000000238,A,whe,O,e,128,1,1300.7000000178814,611887.400000006,7060,WL,C,4.0
4,17.960999965667725,learn,42039.000034332275,Mon Feb 24 2025 15:51:36 GMT-0600 (Central Standard Time),613419.400000006,A,whea,O,a,223,1,1532.0,611887.400000006,7060,WL,C,4.0
4,18.07799983024597,learn,41922.00016975403,Mon Feb 24 2025 15:51:36 GMT-0600 (Central Standard Time),613536.900000006,A,wheat,O,t,96,1,1649.5,611887.400000006,7060,WL,C,4.0
4,18.461999893188477,learn,41538.00010681152,Mon Feb 24 2025 15:51:36 GMT-0600 (Central Standard Time),613921.1000000238,A,wheatenter,O,enter,360,1,2033.7000000178814,611887.400000006,7060,WL,C,4.0
4,18.8439998626709,learn,41156.0001373291,Mon Feb 24 2025 15:51:36 GMT-0600 (Central Standard Time),614303.2000000179,A,c,O,c,363,1,381.80000001192093,613921.400000006,7060,WL,C,5.0
4,18.992999792099,learn,41007.000207901,Mon Feb 24 2025 15:51:36 GMT-0600 (Central Standard Time),614452.2000000179,A,co,O,o,133,1,530.8000000119209,613921.400000006,7060,WL,C,5.0
4,19.26099991798401,learn,40739.00008201599,Mon Feb 24 2025 15:51:36 GMT-0600 (Central Standard Time),614720.400000006,A,cor,O,r,246,1,799.0,613921.400000006,7060,WL,C,5.0
4,19.560999870300293,learn,40439.00012969971,Mon Feb 24 2025 15:51:36 GMT-0600 (Central Standard Time),615019.8000000119,A,corn,O,n,284,1,1098.4000000059605,613921.400000006,7060,WL,C,5.0
4,19.925999879837036,learn,40074.000120162964,Mon Feb 24 2025 15:51:36 GMT-0600 (Central Standard Time),615384.5,A,cornenter,O,enter,351,1,1463.0999999940395,613921.400000006,7060,WL,C,5.0
4,22.542999982833862,learn,37457.00001716614,Mon Feb 24 2025 15:51:36 GMT-0600 (Central Standard Time),618001.900000006,A,h,O,h,2612,1,2617.0999999940395,615384.8000000119,7060,WL,C,6.0
4,22.80900001525879,learn,37190.99998474121,Mon Feb 24 2025 15:51:36 GMT-0600 (Central Standard Time),618267.8000000119,A,ho,O,o,251,1,2883.0,615384.8000000119,7060,WL,C,6.0
4,24.042999982833862,learn,35957.00001716614,Mon Feb 24 2025 15:51:36 GMT-0600 (Central Standard Time),619501.900000006,A,hom,O,m,1224,1,4117.0999999940395,615384.8000000119,7060,WL,C,6.0
4,24.14299988746643,learn,35857.00011253357,Mon Feb 24 2025 15:51:36 GMT-0600 (Central Standard Time),619601.6000000238,A,home,O,e,85,1,4216.800000011921,615384.8000000119,7060,WL,C,6.0
4,24.959999799728394,learn,35040.00020027161,Mon Feb 24 2025 15:51:36 GMT-0600 (Central Standard Time),620418.8000000119,A,homeenter,O,enter,812,1,5034.0,615384.8000000119,7060,WL,C,6.0
4,26.691999912261963,learn,33308.00008773804,Mon Feb 24 2025 15:51:36 GMT-0600 (Central Standard Time),622150.6000000238,A,d,O,d,1713,1,1731.5,620419.1000000238,7060,WL,C,7.0
4,26.89199995994568,learn,33108.00004005432,Mon Feb 24 2025 15:51:36 GMT-0600 (Central Standard Time),622350.7000000179,A,do,O,o,180,1,1931.5999999940395,620419.1000000238,7060,WL,C,7.0
4,27.107999801635742,learn,32892.00019836426,Mon Feb 24 2025 15:51:36 GMT-0600 (Central Standard Time),622567.3000000119,A,doc,O,c,204,1,2148.199999988079,620419.1000000238,7060,WL,C,7.0
4,27.307999849319458,learn,32692.000150680542,Mon Feb 24 2025 15:51:36 GMT-0600 (Central Standard Time),622766.6000000238,A,doct,O,t,188,1,2347.5,620419.1000000238,7060,WL,C,7.0
4,27.640999794006348,learn,32359.000205993652,Mon Feb 24 2025 15:51:36 GMT-0600 (Central Standard Time),623100.3000000119,A,docto,O,o,318,1,2681.199999988079,620419.1000000238,7060,WL,C,7.0
4,27.79099988937378,learn,32209.00011062622,Mon Feb 24 2025 15:51:36 GMT-0600 (Central Standard Time),623250.2000000179,A,doctor,O,r,137,1,2831.0999999940395,620419.1000000238,7060,WL,C,7.0
4,28.21299982070923,learn,31787.00017929077,Mon Feb 24 2025 15:51:36 GMT-0600 (Central Standard Time),623671.5,A,doctorenter,O,enter,401,1,3252.399999976158,620419.1000000238,7060,WL,C,7.0
4,28.842000007629395,learn,31157.999992370605,Mon Feb 24 2025 15:51:36 GMT-0600 (Central Standard Time),624300.400000006,A,b,O,b,615,1,628.5999999940395,623671.8000000119,7060,WL,C,8.0
4,29.157999992370605,learn,30842.000007629395,Mon Feb 24 2025 15:51:36 GMT-0600 (Central Standard Time),624617.0,A,bo,O,o,295,1,945.1999999880791,623671.8000000119,7060,WL,C,8.0
4,29.60699987411499,learn,30393.00012588501,Mon Feb 24 2025 15:51:36 GMT-0600 (Central Standard Time),625066.3000000119,A,boy,O,y,435,1,1394.5,623671.8000000119,7060,WL,C,8.0
4,29.973999977111816,learn,30026.000022888184,Mon Feb 24 2025 15:51:36 GMT-0600 (Central Standard Time),625433.3000000119,A,boyenter,O,enter,353,1,1761.5,623671.8000000119,7060,WL,C,8.0
4,30.408999919891357,learn,29591.000080108643,Mon Feb 24 2025 15:51:36 GMT-0600 (Central Standard Time),625868.1000000238,A,l,O,l,430,1,434.5,625433.6000000238,7060,WL,C,9.0
4,30.573999881744385,learn,29426.000118255615,Mon Feb 24 2025 15:51:36 GMT-0600 (Central Standard Time),626033.1000000238,A,le,O,e,150,1,599.5,625433.6000000238,7060,WL,C,9.0
4,30.7739999294281,learn,29226.0000705719,Mon Feb 24 2025 15:51:36 GMT-0600 (Central Standard Time),626233.3000000119,A,let,O,t,179,1,799.6999999880791,625433.6000000238,7060,WL,C,9.0
4,30.907999992370605,learn,29092.000007629395,Mon Feb 24 2025 15:51:36 GMT-0600 (Central Standard Time),626366.5,A,lett,O,t,113,1,932.8999999761581,625433.6000000238,7060,WL,C,9.0
4,31.006999969482422,learn,28993.000030517578,Mon Feb 24 2025 15:51:36 GMT-0600 (Central Standard Time),626465.7000000179,A,lette,O,e,92,1,1032.0999999940395,625433.6000000238,7060,WL,C,9.0
4,31.139999866485596,learn,28860.000133514404,Mon Feb 24 2025 15:51:36 GMT-0600 (Central Standard Time),626599.0,A,letter,O,r,113,1,1165.3999999761581,625433.6000000238,7060,WL,C,9.0
4,32.03999996185303,learn,27960.000038146973,Mon Feb 24 2025 15:51:36 GMT-0600 (Central Standard Time),627498.900000006,A,letterenter,O,enter,883,1,2065.2999999821186,625433.6000000238,7060,WL,C,9.0
4,32.52300000190735,learn,27476.99999809265,Mon Feb 24 2025 15:51:36 GMT-0600 (Central Standard Time),627982.3000000119,A,n,O,n,473,1,483.19999998807907,627499.1000000238,7060,WL,C,10.0
4,32.625,learn,27375.0,Mon Feb 24 2025 15:51:36 GMT-0600 (Central Standard Time),628083.5,A,na,O,a,94,1,584.3999999761581,627499.1000000238,7060,WL,C,10.0
4,32.77300000190735,learn,27226.99999809265,Mon Feb 24 2025 15:51:36 GMT-0600 (Central Standard Time),628232.1000000238,A,nai,O,i,135,1,733.0,627499.1000000238,7060,WL,C,10.0
4,33.02499985694885,learn,26975.000143051147,Mon Feb 24 2025 15:51:36 GMT-0600 (Central Standard Time),628483.7000000179,A,nail,O,l,244,1,984.5999999940395,627499.1000000238,7060,WL,C,10.0
4,33.40599989891052,learn,26594.000101089478,Mon Feb 24 2025 15:51:36 GMT-0600 (Central Standard Time),628864.400000006,A,nailenter,O,enter,367,1,1365.2999999821186,627499.1000000238,7060,WL,C,10.0
4,33.806999921798706,learn,26193.000078201294,Mon Feb 24 2025 15:51:36 GMT-0600 (Central Standard Time),629266.2000000179,A,c,O,c,396,1,401.5,628864.7000000179,7060,WL,C,11.0
4,33.98899984359741,learn,26011.000156402588,Mon Feb 24 2025 15:51:36 GMT-0600 (Central Standard Time),629448.3000000119,A,ca,O,a,161,1,583.5999999940395,628864.7000000179,7060,WL,C,11.0
4,34.13800001144409,learn,25861.99998855591,Mon Feb 24 2025 15:51:36 GMT-0600 (Central Standard Time),629597.1000000238,A,can,O,n,129,1,732.4000000059605,628864.7000000179,7060,WL,C,11.0
4,34.43899989128113,learn,25561.000108718872,Mon Feb 24 2025 15:51:36 GMT-0600 (Central Standard Time),629898.3000000119,A,canp,O,p,287,1,1033.5999999940395,628864.7000000179,7060,WL,C,11.0
4,34.72099995613098,learn,25279.00004386902,Mon Feb 24 2025 15:51:36 GMT-0600 (Central Standard Time),630180.2000000179,A,canpenter,O,enter,274,1,1315.5,628864.7000000179,7060,WL,C,11.0
4,35.25599980354309,learn,24744.00019645691,Mon Feb 24 2025 15:51:36 GMT-0600 (Central Standard Time),630714.7000000179,A,f,O,f,520,1,534.2000000178814,630180.5,7060,WL,C,12.0
4,35.687999963760376,learn,24312.000036239624,Mon Feb 24 2025 15:51:36 GMT-0600 (Central Standard Time),631147.2000000179,A,fa,O,a,417,1,966.7000000178814,630180.5,7060,WL,C,12.0
4,37.038999795913696,learn,22961.000204086304,Mon Feb 24 2025 15:51:36 GMT-0600 (Central Standard Time),632497.8000000119,A,f,O,backspace,1328,1,2317.300000011921,630180.5,7060,WL,C,12.0
4,37.98799991607666,learn,22012.00008392334,Mon Feb 24 2025 15:51:36 GMT-0600 (Central Standard Time),633447.2000000179,A,fl,O,l,929,1,3266.7000000178814,630180.5,7060,WL,C,12.0
4,38.08799982070923,learn,21912.00017929077,Mon Feb 24 2025 15:51:36 GMT-0600 (Central Standard Time),633547.3000000119,A,fla,O,a,85,1,3366.800000011921,630180.5,7060,WL,C,12.0
4,38.42199993133545,learn,21578.00006866455,Mon Feb 24 2025 15:51:36 GMT-0600 (Central Standard Time),633881.1000000238,A,flag,O,g,319,1,3700.600000023842,630180.5,7060,WL,C,12.0
4,39.23799991607666,learn,20762.00008392334,Mon Feb 24 2025 15:51:36 GMT-0600 (Central Standard Time),634696.400000006,A,flagenter,O,enter,803,1,4515.9000000059605,630180.5,7060,WL,C,12.0
4,39.5719997882843,learn,20428.0002117157,Mon Feb 24 2025 15:51:36 GMT-0600 (Central Standard Time),635030.6000000238,A,s,O,s,316,1,333.90000000596046,634696.7000000179,7060,WL,C,13.0
4,39.75399994850159,learn,20246.000051498413,Mon Feb 24 2025 15:51:36 GMT-0600 (Central Standard Time),635213.1000000238,A,sh,O,h,164,1,516.4000000059605,634696.7000000179,7060,WL,C,13.0
4,39.9539999961853,learn,20046.000003814697,Mon Feb 24 2025 15:51:36 GMT-0600 (Central Standard Time),635412.5,A,sho,O,o,193,1,715.7999999821186,634696.7000000179,7060,WL,C,13.0
4,40.23899984359741,learn,19761.000156402588,Mon Feb 24 2025 15:51:36 GMT-0600 (Central Standard Time),635697.7000000179,A,shor,O,r,278,1,1001.0,634696.7000000179,7060,WL,C,13.0
4,40.3529999256134,learn,19647.000074386597,Mon Feb 24 2025 15:51:36 GMT-0600 (Central Standard Time),635812.3000000119,A,shore,O,e,94,1,1115.5999999940395,634696.7000000179,7060,WL,C,13.0
4,40.603999853134155,learn,19396.000146865845,Mon Feb 24 2025 15:51:36 GMT-0600 (Central Standard Time),636063.400000006,A,shoreenter,O,enter,232,1,1366.699999988079,634696.7000000179,7060,WL,C,13.0
4,41.00399994850159,learn,18996.000051498413,Mon Feb 24 2025 15:51:36 GMT-0600 (Central Standard Time),636462.7000000179,A,c,O,c,389,1,399.0,636063.7000000179,7060,WL,C,14.0
4,41.120999813079834,learn,18879.000186920166,Mon Feb 24 2025 15:51:36 GMT-0600 (Central Standard Time),636579.5,A,ca,O,a,109,1,515.7999999821186,636063.7000000179,7060,WL,C,14.0
4,41.28699994087219,learn,18713.000059127808,Mon Feb 24 2025 15:51:36 GMT-0600 (Central Standard Time),636746.3000000119,A,cat,O,t,151,1,682.5999999940395,636063.7000000179,7060,WL,C,14.0
4,41.4210000038147,learn,18578.999996185303,Mon Feb 24 2025 15:51:36 GMT-0600 (Central Standard Time),636879.6000000238,A,catt,O,t,121,1,815.9000000059605,636063.7000000179,7060,WL,C,14.0
4,41.9539999961853,learn,18046.000003814697,Mon Feb 24 2025 15:51:36 GMT-0600 (Central Standard Time),637413.3000000119,A,cattl,O,l,516,1,1349.5999999940395,636063.7000000179,7060,WL,C,14.0
4,42.07099986076355,learn,17929.00013923645,Mon Feb 24 2025 15:51:36 GMT-0600 (Central Standard Time),637529.6000000238,A,cattle,O,e,102,1,1465.9000000059605,636063.7000000179,7060,WL,C,14.0
4,46.651999950408936,learn,13348.000049591064,Mon Feb 24 2025 15:51:36 GMT-0600 (Central Standard Time),642110.6000000238,A,cattleenter,O,enter,4571,1,6046.9000000059605,636063.7000000179,7060,WL,C,14.0
4,47.05299997329712,learn,12947.00002670288,Mon Feb 24 2025 15:51:36 GMT-0600 (Central Standard Time),642512.0,A,s,O,s,381,1,401.09999999403954,642110.900000006,7060,WL,C,15.0
4,47.168999910354614,learn,12831.000089645386,Mon Feb 24 2025 15:51:36 GMT-0600 (Central Standard Time),642627.7000000179,A,si,O,i,110,1,516.8000000119209,642110.900000006,7060,WL,C,15.0
4,47.45099997520447,learn,12549.000024795532,Mon Feb 24 2025 15:51:36 GMT-0600 (Central Standard Time),642910.400000006,A,sic,O,c,271,1,799.5,642110.900000006,7060,WL,C,15.0
4,47.88499999046326,learn,12115.000009536743,Mon Feb 24 2025 15:51:36 GMT-0600 (Central Standard Time),643344.0,A,sick,O,k,417,1,1233.0999999940395,642110.900000006,7060,WL,C,15.0
4,48.01899981498718,learn,11981.000185012817,Mon Feb 24 2025 15:51:36 GMT-0600 (Central Standard Time),643477.7000000179,A,sicke,O,e,116,1,1366.800000011921,642110.900000006,7060,WL,C,15.0
4,49.86899995803833,learn,10131.00004196167,Mon Feb 24 2025 15:51:36 GMT-0600 (Central Standard Time),645328.2000000179,A,sick,O,backspace,1826,1,3217.300000011921,642110.900000006,7060,WL,C,15.0
4,50.06599998474121,learn,9934.000015258789,Mon Feb 24 2025 15:51:36 GMT-0600 (Central Standard Time),645525.3000000119,A,sic,O,backspace,180,1,3414.4000000059605,642110.900000006,7060,WL,C,15.0
4,50.23399996757507,learn,9766.000032424927,Mon Feb 24 2025 15:51:36 GMT-0600 (Central Standard Time),645692.6000000238,A,si,O,backspace,149,1,3581.7000000178814,642110.900000006,7060,WL,C,15.0
4,50.38699984550476,learn,9613.00015449524,Mon Feb 24 2025 15:51:36 GMT-0600 (Central Standard Time),645845.900000006,A,s,O,backspace,136,1,3735.0,642110.900000006,7060,WL,C,15.0
4,50.550999879837036,learn,9449.000120162964,Mon Feb 24 2025 15:51:36 GMT-0600 (Central Standard Time),646009.7000000179,A,,O,backspace,148,1,3898.800000011921,642110.900000006,7060,WL,C,15.0
4,51.35199999809265,learn,8648.000001907349,Mon Feb 24 2025 15:51:36 GMT-0600 (Central Standard Time),646811.2000000179,A,b,O,b,795,1,4700.300000011921,642110.900000006,7060,WL,C,15.0
4,51.6489999294281,learn,8351.0000705719,Mon Feb 24 2025 15:51:36 GMT-0600 (Central Standard Time),647108.900000006,A,bo,O,o,280,1,4998.0,642110.900000006,7060,WL,C,15.0
4,52.032999992370605,learn,7967.0000076293945,Mon Feb 24 2025 15:51:36 GMT-0600 (Central Standard Time),647492.3000000119,A,bod,O,d,369,1,5381.4000000059605,642110.900000006,7060,WL,C,15.0
4,52.23299980163574,learn,7767.000198364258,Mon Feb 24 2025 15:51:36 GMT-0600 (Central Standard Time),647692.3000000119,A,body,O,y,192,1,5581.4000000059605,642110.900000006,7060,WL,C,15.0
4,53.86699986457825,learn,6133.000135421753,Mon Feb 24 2025 15:51:36 GMT-0600 (Central Standard Time),649325.7000000179,A,bodyenter,O,enter,1613,1,7214.800000011921,642110.900000006,7060,WL,C,15.0
5,2.7179999351501465,learn,60000.0,Mon Feb 24 2025 15:51:36 GMT-0600 (Central Standard Time),726052.900000006,A,q,O,q,2703,1,2717.7999999821186,723335.1000000238,7060,WL,C,1.0
5,2.8489999771118164,learn,60000.0,Mon Feb 24 2025 15:51:36 GMT-0600 (Central Standard Time),726183.8000000119,A,qu,O,u,119,1,2848.699999988079,723335.1000000238,7060,WL,C,1.0
5,3.0329999923706055,learn,60000.0,Mon Feb 24 2025 15:51:36 GMT-0600 (Central Standard Time),726367.400000006,A,que,O,e,171,1,3032.2999999821186,723335.1000000238,7060,WL,C,1.0
5,3.8489999771118164,learn,60000.0,Mon Feb 24 2025 15:51:36 GMT-0600 (Central Standard Time),727183.8000000119,A,quee,O,e,803,1,3848.699999988079,723335.1000000238,7060,WL,C,1.0
5,4.048999786376953,learn,60000.0,Mon Feb 24 2025 15:51:36 GMT-0600 (Central Standard Time),727383.400000006,A,queen,O,n,188,1,4048.2999999821186,723335.1000000238,7060,WL,C,1.0
5,5.199999809265137,learn,60000.0,Mon Feb 24 2025 15:51:36 GMT-0600 (Central Standard Time),728533.900000006,A,queenenter,O,enter,1141,1,5198.799999982119,723335.1000000238,7060,WL,C,1.0
5,5.599999904632568,learn,60000.0,Mon Feb 24 2025 15:51:36 GMT-0600 (Central Standard Time),728934.0,A,t,O,t,382,1,399.7999999821186,728534.2000000179,7060,WL,C,2.0
5,5.882999897003174,learn,60000.0,Mon Feb 24 2025 15:51:36 GMT-0600 (Central Standard Time),729217.6000000238,A,to,O,o,276,1,683.4000000059605,728534.2000000179,7060,WL,C,2.0
5,6.06499981880188,learn,60000.0,Mon Feb 24 2025 15:51:36 GMT-0600 (Central Standard Time),729399.900000006,A,tow,O,w,169,1,865.6999999880791,728534.2000000179,7060,WL,C,2.0
5,6.264999866485596,learn,60000.0,Mon Feb 24 2025 15:51:36 GMT-0600 (Central Standard Time),729599.6000000238,A,towe,O,e,179,1,1065.4000000059605,728534.2000000179,7060,WL,C,2.0
5,6.448999881744385,learn,60000.0,Mon Feb 24 2025 15:51:36 GMT-0600 (Central Standard Time),729783.400000006,A,tower,O,r,164,1,1249.199999988079,728534.2000000179,7060,WL,C,2.0
5,6.879999876022339,learn,60000.0,Mon Feb 24 2025 15:51:36 GMT-0600 (Central Standard Time),730214.5,A,towerenter,O,enter,411,1,1680.2999999821186,728534.2000000179,7060,WL,C,2.0
5,7.283999919891357,learn,60000.0,Mon Feb 24 2025 15:51:36 GMT-0600 (Central Standard Time),730617.900000006,A,w,O,w,397,1,403.09999999403954,730214.8000000119,7060,WL,C,3.0
5,7.46399998664856,learn,60000.0,Mon Feb 24 2025 15:51:36 GMT-0600 (Central Standard Time),730798.8000000119,A,wh,O,h,169,1,584.0,730214.8000000119,7060,WL,C,3.0
5,7.631999969482422,learn,60000.0,Mon Feb 24 2025 15:51:36 GMT-0600 (Central Standard Time),730966.0,A,whe,O,e,157,1,751.1999999880791,730214.8000000119,7060,WL,C,3.0
5,7.915999889373779,learn,60000.0,Mon Feb 24 2025 15:51:36 GMT-0600 (Central Standard Time),731250.0,A,whea,O,a,278,1,1035.199999988079,730214.8000000119,7060,WL,C,3.0
5,8.097999811172485,learn,60000.0,Mon Feb 24 2025 15:51:36 GMT-0600 (Central Standard Time),731431.900000006,A,wheat,O,t,169,1,1217.0999999940395,730214.8000000119,7060,WL,C,3.0
5,8.547999858856201,learn,60000.0,Mon Feb 24 2025 15:51:36 GMT-0600 (Central Standard Time),731882.7000000179,A,wheatenter,O,enter,445,1,1667.9000000059605,730214.8000000119,7060,WL,C,3.0
5,8.88099980354309,learn,60000.0,Mon Feb 24 2025 15:51:36 GMT-0600 (Central Standard Time),732214.900000006,A,s,O,s,322,1,331.90000000596046,731883.0,7060,WL,C,4.0
5,9.132999897003174,learn,60000.0,Mon Feb 24 2025 15:51:36 GMT-0600 (Central Standard Time),732467.3000000119,A,su,O,u,237,1,584.3000000119209,731883.0,7060,WL,C,4.0
5,9.430999994277954,learn,60000.0,Mon Feb 24 2025 15:51:36 GMT-0600 (Central Standard Time),732765.400000006,A,sug,O,g,275,1,882.4000000059605,731883.0,7060,WL,C,4.0
5,9.598999977111816,learn,60000.0,Mon Feb 24 2025 15:51:36 GMT-0600 (Central Standard Time),732933.1000000238,A,suga,O,a,159,1,1050.1000000238419,731883.0,7060,WL,C,4.0
5,9.748999834060669,learn,60000.0,Mon Feb 24 2025 15:51:36 GMT-0600 (Central Standard Time),733083.2000000179,A,sugar,O,r,143,1,1200.2000000178814,731883.0,7060,WL,C,4.0
5,10.446999788284302,learn,60000.0,Mon Feb 24 2025 15:51:36 GMT-0600 (Central Standard Time),733781.400000006,A,sugarenter,O,enter,688,1,1898.4000000059605,731883.0,7060,WL,C,4.0
5,11.46399998664856,learn,60000.0,Mon Feb 24 2025 15:51:36 GMT-0600 (Central Standard Time),734798.1000000238,A,r,O,r,999,1,1016.4000000059605,733781.7000000179,7060,WL,C,5.0
5,12.462999820709229,learn,60000.0,Mon Feb 24 2025 15:51:36 GMT-0600 (Central Standard Time),735797.400000006,A,,O,backspace,990,1,2015.699999988079,733781.7000000179,7060,WL,C,5.0
5,13.580999851226807,learn,60000.0,Mon Feb 24 2025 15:51:36 GMT-0600 (Central Standard Time),736915.0,A,h,O,h,1103,1,3133.2999999821186,733781.7000000179,7060,WL,C,5.0
5,13.79699993133545,learn,60000.0,Mon Feb 24 2025 15:51:36 GMT-0600 (Central Standard Time),737131.1000000238,A,ho,O,o,202,1,3349.4000000059605,733781.7000000179,7060,WL,C,5.0
5,14.02899980545044,learn,60000.0,Mon Feb 24 2025 15:51:36 GMT-0600 (Central Standard Time),737363.8000000119,A,hom,O,m,217,1,3582.0999999940395,733781.7000000179,7060,WL,C,5.0
5,14.111999988555908,learn,60000.0,Mon Feb 24 2025 15:51:36 GMT-0600 (Central Standard Time),737446.5,A,home,O,e,72,1,3664.7999999821186,733781.7000000179,7060,WL,C,5.0
5,14.44599986076355,learn,60000.0,Mon Feb 24 2025 15:51:36 GMT-0600 (Central Standard Time),737780.1000000238,A,homeenter,O,enter,312,1,3998.4000000059605,733781.7000000179,7060,WL,C,5.0
5,15.495999813079834,learn,60000.0,Mon Feb 24 2025 15:51:36 GMT-0600 (Central Standard Time),738830.2000000179,A,b,O,b,1032,1,1049.9000000059605,737780.3000000119,7060,WL,C,6.0
5,15.763000011444092,learn,60000.0,Mon Feb 24 2025 15:51:36 GMT-0600 (Central Standard Time),739097.400000006,A,bo,O,o,253,1,1317.0999999940395,737780.3000000119,7060,WL,C,6.0
5,16.044999837875366,learn,60000.0,Mon Feb 24 2025 15:51:36 GMT-0600 (Central Standard Time),739379.7000000179,A,boy,O,y,266,1,1599.4000000059605,737780.3000000119,7060,WL,C,6.0
5,16.377999782562256,learn,60000.0,Mon Feb 24 2025 15:51:36 GMT-0600 (Central Standard Time),739712.8000000119,A,boyenter,O,enter,312,1,1932.5,737780.3000000119,7060,WL,C,6.0
5,16.763000011444092,learn,60000.0,Mon Feb 24 2025 15:51:36 GMT-0600 (Central Standard Time),740097.0,A,d,O,d,363,1,383.89999997615814,739713.1000000238,7060,WL,C,7.0
5,16.911999940872192,learn,60000.0,Mon Feb 24 2025 15:51:36 GMT-0600 (Central Standard Time),740246.900000006,A,do,O,o,139,1,533.7999999821186,739713.1000000238,7060,WL,C,7.0
5,17.111999988555908,learn,60000.0,Mon Feb 24 2025 15:51:36 GMT-0600 (Central Standard Time),740445.900000006,A,doc,O,c,189,1,732.7999999821186,739713.1000000238,7060,WL,C,7.0
5,17.34599995613098,learn,60000.0,Mon Feb 24 2025 15:51:36 GMT-0600 (Central Standard Time),740680.6000000238,A,doct,O,t,223,1,967.5,739713.1000000238,7060,WL,C,7.0
5,17.661999940872192,learn,60000.0,Mon Feb 24 2025 15:51:36 GMT-0600 (Central Standard Time),740996.0,A,docto,O,o,298,1,1282.8999999761581,739713.1000000238,7060,WL,C,7.0
5,17.77999997138977,learn,60000.0,Mon Feb 24 2025 15:51:36 GMT-0600 (Central Standard Time),741114.7000000179,A,doctor,O,r,103,1,1401.5999999940395,739713.1000000238,7060,WL,C,7.0
5,18.42799997329712,learn,60000.0,Mon Feb 24 2025 15:51:36 GMT-0600 (Central Standard Time),741762.3000000119,A,doctorenter,O,enter,643,1,2049.199999988079,739713.1000000238,7060,WL,C,7.0
5,20.161999940872192,learn,60000.0,Mon Feb 24 2025 15:51:36 GMT-0600 (Central Standard Time),743496.5,A,c,O,c,1722,1,1734.0,741762.5,7060,WL,C,8.0
5,20.311999797821045,learn,60000.0,Mon Feb 24 2025 15:51:36 GMT-0600 (Central Standard Time),743645.900000006,A,ca,O,a,127,1,1883.4000000059605,741762.5,7060,WL,C,8.0
5,20.527999877929688,learn,60000.0,Mon Feb 24 2025 15:51:36 GMT-0600 (Central Standard Time),743862.3000000119,A,cam,O,m,198,1,2099.800000011921,741762.5,7060,WL,C,8.0
5,20.89299988746643,learn,60000.0,Mon Feb 24 2025 15:51:36 GMT-0600 (Central Standard Time),744227.400000006,A,camp,O,p,344,1,2464.9000000059605,741762.5,7060,WL,C,8.0
5,21.5939998626709,learn,60000.0,Mon Feb 24 2025 15:51:36 GMT-0600 (Central Standard Time),744928.7000000179,A,campenter,O,enter,677,1,3166.2000000178814,741762.5,7060,WL,C,8.0
5,23.01099991798401,learn,60000.0,Mon Feb 24 2025 15:51:36 GMT-0600 (Central Standard Time),746345.900000006,A,k,O,k,1411,1,1416.9000000059605,744929.0,7060,WL,C,9.0
5,23.55900001525879,learn,60000.0,Mon Feb 24 2025 15:51:36 GMT-0600 (Central Standard Time),746893.7000000179,A,,O,backspace,537,1,1964.7000000178814,744929.0,7060,WL,C,9.0
5,24.060999870300293,learn,60000.0,Mon Feb 24 2025 15:51:36 GMT-0600 (Central Standard Time),747395.2000000179,A,l,O,l,489,1,2466.2000000178814,744929.0,7060,WL,C,9.0
5,24.209999799728394,learn,60000.0,Mon Feb 24 2025 15:51:36 GMT-0600 (Central Standard Time),747544.8000000119,A,le,O,e,128,1,2615.800000011921,744929.0,7060,WL,C,9.0
5,24.592999935150146,learn,60000.0,Mon Feb 24 2025 15:51:36 GMT-0600 (Central Standard Time),747927.0,A,let,O,t,372,1,2998.0,744929.0,7060,WL,C,9.0
5,24.742999792099,learn,60000.0,Mon Feb 24 2025 15:51:36 GMT-0600 (Central Standard Time),748077.0,A,lett,O,t,141,1,3148.0,744929.0,7060,WL,C,9.0
5,24.860999822616577,learn,60000.0,Mon Feb 24 2025 15:51:36 GMT-0600 (Central Standard Time),748195.6000000238,A,lette,O,e,103,1,3266.600000023842,744929.0,7060,WL,C,9.0
5,24.99399995803833,learn,60000.0,Mon Feb 24 2025 15:51:36 GMT-0600 (Central Standard Time),748328.5,A,letter,O,r,121,1,3399.5,744929.0,7060,WL,C,9.0
5,26.007999897003174,learn,60000.0,Mon Feb 24 2025 15:51:36 GMT-0600 (Central Standard Time),749342.3000000119,A,letterenter,O,enter,1004,1,4413.300000011921,744929.0,7060,WL,C,9.0
5,28.22599983215332,learn,60000.0,Mon Feb 24 2025 15:51:36 GMT-0600 (Central Standard Time),751560.0,A,f,O,f,2206,1,2217.399999976158,749342.6000000238,7060,WL,C,10.0
5,28.509999990463257,learn,60000.0,Mon Feb 24 2025 15:51:36 GMT-0600 (Central Standard Time),751843.900000006,A,fl,O,l,278,1,2501.2999999821186,749342.6000000238,7060,WL,C,10.0
5,28.592000007629395,learn,60000.0,Mon Feb 24 2025 15:51:36 GMT-0600 (Central Standard Time),751926.0,A,fla,O,a,61,1,2583.399999976158,749342.6000000238,7060,WL,C,10.0
5,28.859999895095825,learn,60000.0,Mon Feb 24 2025 15:51:36 GMT-0600 (Central Standard Time),752194.3000000119,A,flag,O,g,254,1,2851.699999988079,749342.6000000238,7060,WL,C,10.0
5,29.574999809265137,learn,60000.0,Mon Feb 24 2025 15:51:36 GMT-0600 (Central Standard Time),752909.5,A,flagenter,O,enter,706,1,3566.899999976158,749342.6000000238,7060,WL,C,10.0
5,36.5239999294281,learn,60000.0,Mon Feb 24 2025 15:51:36 GMT-0600 (Central Standard Time),759858.2000000179,A,n,O,n,6937,1,6948.4000000059605,752909.8000000119,7060,WL,C,11.0
5,36.63800001144409,learn,60000.0,Mon Feb 24 2025 15:51:36 GMT-0600 (Central Standard Time),759972.7000000179,A,na,O,a,94,1,7062.9000000059605,752909.8000000119,7060,WL,C,11.0
5,36.7739999294281,learn,60000.0,Mon Feb 24 2025 15:51:36 GMT-0600 (Central Standard Time),760108.1000000238,A,nai,O,i,127,1,7198.300000011921,752909.8000000119,7060,WL,C,11.0
5,37.02199983596802,learn,60000.0,Mon Feb 24 2025 15:51:36 GMT-0600 (Central Standard Time),760356.7000000179,A,nail,O,l,236,1,7446.9000000059605,752909.8000000119,7060,WL,C,11.0
5,37.62299990653992,learn,60000.0,Mon Feb 24 2025 15:51:36 GMT-0600 (Central Standard Time),760957.2000000179,A,nailenter,O,enter,579,1,8047.4000000059605,752909.8000000119,7060,WL,C,11.0
5,38.08899998664856,learn,60000.0,Mon Feb 24 2025 15:51:36 GMT-0600 (Central Standard Time),761423.2000000179,A,c,O,c,456,1,465.80000001192093,760957.400000006,7060,WL,C,12.0
5,38.23899984359741,learn,60000.0,Mon Feb 24 2025 15:51:36 GMT-0600 (Central Standard Time),761573.1000000238,A,ca,O,a,133,1,615.7000000178814,760957.400000006,7060,WL,C,12.0
5,38.371999979019165,learn,60000.0,Mon Feb 24 2025 15:51:36 GMT-0600 (Central Standard Time),761706.0,A,cat,O,t,118,1,748.5999999940395,760957.400000006,7060,WL,C,12.0
5,38.52199983596802,learn,60000.0,Mon Feb 24 2025 15:51:36 GMT-0600 (Central Standard Time),761856.2000000179,A,catt,O,t,127,1,898.8000000119209,760957.400000006,7060,WL,C,12.0
5,38.82099986076355,learn,60000.0,Mon Feb 24 2025 15:51:36 GMT-0600 (Central Standard Time),762155.900000006,A,cattl,O,l,287,1,1198.5,760957.400000006,7060,WL,C,12.0
5,38.93999981880188,learn,60000.0,Mon Feb 24 2025 15:51:36 GMT-0600 (Central Standard Time),762274.5,A,cattle,O,e,108,1,1317.0999999940395,760957.400000006,7060,WL,C,12.0
5,40.204999923706055,learn,60000.0,Mon Feb 24 2025 15:51:36 GMT-0600 (Central Standard Time),763539.3000000119,A,cattleenter,O,enter,1253,1,2581.9000000059605,760957.400000006,7060,WL,C,12.0
5,40.65499997138977,learn,60000.0,Mon Feb 24 2025 15:51:36 GMT-0600 (Central Standard Time),763989.7000000179,A,s,O,s,434,1,450.09999999403954,763539.6000000238,7060,WL,C,13.0
5,40.788999795913696,learn,60000.0,Mon Feb 24 2025 15:51:36 GMT-0600 (Central Standard Time),764123.2000000179,A,sh,O,h,114,1,583.5999999940395,763539.6000000238,7060,WL,C,13.0
5,41.02199983596802,learn,60000.0,Mon Feb 24 2025 15:51:36 GMT-0600 (Central Standard Time),764356.1000000238,A,sho,O,o,210,1,816.5,763539.6000000238,7060,WL,C,13.0
5,41.3529999256134,learn,60000.0,Mon Feb 24 2025 15:51:36 GMT-0600 (Central Standard Time),764687.8000000119,A,shor,O,r,309,1,1148.199999988079,763539.6000000238,7060,WL,C,13.0
5,41.472999811172485,learn,60000.0,Mon Feb 24 2025 15:51:36 GMT-0600 (Central Standard Time),764807.7000000179,A,shore,O,e,97,1,1268.0999999940395,763539.6000000238,7060,WL,C,13.0
5,44.98699998855591,learn,60000.0,Mon Feb 24 2025 15:51:36 GMT-0600 (Central Standard Time),768321.400000006,A,shoreenter,O,enter,3494,1,4781.799999982119,763539.6000000238,7060,WL,C,13.0
5,50.6029999256134,learn,60000.0,Mon Feb 24 2025 15:51:36 GMT-0600 (Central Standard Time),773937.5,A,c,O,c,5603,1,5615.699999988079,768321.8000000119,7060,WL,C,14.0
5,50.800999879837036,learn,60000.0,Mon Feb 24 2025 15:51:36 GMT-0600 (Central Standard Time),774135.900000006,A,co,O,o,183,1,5814.0999999940395,768321.8000000119,7060,WL,C,14.0
5,51.01899981498718,learn,60000.0,Mon Feb 24 2025 15:51:36 GMT-0600 (Central Standard Time),774353.400000006,A,cor,O,r,194,1,6031.5999999940395,768321.8000000119,7060,WL,C,14.0
5,51.31699991226196,learn,60000.0,Mon Feb 24 2025 15:51:36 GMT-0600 (Central Standard Time),774652.1000000238,A,corn,O,n,281,1,6330.300000011921,768321.8000000119,7060,WL,C,14.0
5,51.75,learn,60000.0,Mon Feb 24 2025 15:51:36 GMT-0600 (Central Standard Time),775084.400000006,A,cornenter,O,enter,422,1,6762.5999999940395,768321.8000000119,7060,WL,C,14.0
5,83.29099988937378,learn,60000.0,Mon Feb 24 2025 15:51:36 GMT-0600 (Central Standard Time),806625.400000006,A,enter,O,enter,31528,1,31540.69999998808,775084.7000000179,7060,WL,C,15.0
6,3.184999942779541,distr,56815.00005722046,Mon Feb 24 2025 15:51:36 GMT-0600 (Central Standard Time),882122.2000000179,B,f,O,f,3178,1,3184.9000000059605,878937.3000000119,7060,WL,C,1.0
6,3.300999879837036,distr,56699.000120162964,Mon Feb 24 2025 15:51:36 GMT-0600 (Central Standard Time),882237.3000000119,B,fo,O,o,108,1,3300.0,878937.3000000119,7060,WL,C,1.0
6,3.4649999141693115,distr,56535.00008583069,Mon Feb 24 2025 15:51:36 GMT-0600 (Central Standard Time),882402.3000000119,B,for,O,r,153,1,3465.0,878937.3000000119,7060,WL,C,1.0
6,3.815999984741211,distr,56184.00001525879,Mon Feb 24 2025 15:51:36 GMT-0600 (Central Standard Time),882752.5,B,fors,O,s,334,1,3815.199999988079,878937.3000000119,7060,WL,C,1.0
6,3.996999979019165,distr,56003.000020980835,Mon Feb 24 2025 15:51:36 GMT-0600 (Central Standard Time),882934.3000000119,B,forst,O,t,170,1,3997.0,878937.3000000119,7060,WL,C,1.0
6,5.19599986076355,distr,54804.00013923645,Mon Feb 24 2025 15:51:36 GMT-0600 (Central Standard Time),884133.3000000119,B,fors,O,backspace,1191,1,5196.0,878937.3000000119,7060,WL,C,1.0
6,5.613999843597412,distr,54386.00015640259,Mon Feb 24 2025 15:51:36 GMT-0600 (Central Standard Time),884550.900000006,B,for,O,backspace,406,1,5613.5999999940395,878937.3000000119,7060,WL,C,1.0
6,6.513000011444092,distr,53486.99998855591,Mon Feb 24 2025 15:51:36 GMT-0600 (Central Standard Time),885449.5,B,fore,O,e,884,1,6512.199999988079,878937.3000000119,7060,WL,C,1.0
6,6.648000001907349,distr,53351.99999809265,Mon Feb 24 2025 15:51:36 GMT-0600 (Central Standard Time),885585.3000000119,B,fores,O,s,121,1,6648.0,878937.3000000119,7060,WL,C,1.0
6,6.7799999713897705,distr,53220.00002861023,Mon Feb 24 2025 15:51:36 GMT-0600 (Central Standard Time),885716.900000006,B,forest,O,t,125,1,6779.5999999940395,878937.3000000119,7060,WL,C,1.0
6,7.696999788284302,distr,52303.0002117157,Mon Feb 24 2025 15:51:36 GMT-0600 (Central Standard Time),886633.8000000119,B,foresth,O,h,893,1,7696.5,878937.3000000119,7060,WL,C,1.0
6,7.896999835968018,distr,52103.00016403198,Mon Feb 24 2025 15:51:36 GMT-0600 (Central Standard Time),886834.3000000119,B,forestho,O,o,186,1,7897.0,878937.3000000119,7060,WL,C,1.0
6,8.561999797821045,distr,51438.000202178955,Mon Feb 24 2025 15:51:36 GMT-0600 (Central Standard Time),887499.400000006,B,foresthoo,O,o,658,1,8562.09999999404,878937.3000000119,7060,WL,C,1.0
6,8.896999835968018,distr,51103.00016403198,Mon Feb 24 2025 15:51:36 GMT-0600 (Central Standard Time),887833.7000000179,B,foresthoot,O,t,312,1,8896.40000000596,878937.3000000119,7060,WL,C,1.0
6,8.978999853134155,distr,51021.000146865845,Mon Feb 24 2025 15:51:36 GMT-0600 (Central Standard Time),887916.1000000238,B,foresthoote,O,e,74,1,8978.800000011921,878937.3000000119,7060,WL,C,1.0
6,9.263000011444092,distr,50736.99998855591,Mon Feb 24 2025 15:51:36 GMT-0600 (Central Standard Time),888199.900000006,B,foresthootel,O,l,269,1,9262.59999999404,878937.3000000119,7060,WL,C,1.0
6,10.345999956130981,distr,49654.00004386902,Mon Feb 24 2025 15:51:36 GMT-0600 (Central Standard Time),889283.3000000119,B,foresthoote,O,backspace,1068,1,10346.0,878937.3000000119,7060,WL,C,1.0
6,10.52999997138977,distr,49470.00002861023,Mon Feb 24 2025 15:51:36 GMT-0600 (Central Standard Time),889466.7000000179,B,foresthoot,O,backspace,173,1,10529.40000000596,878937.3000000119,7060,WL,C,1.0
6,10.71399998664856,distr,49286.00001335144,Mon Feb 24 2025 15:51:36 GMT-0600 (Central Standard Time),889651.2000000179,B,foresthoo,O,backspace,170,1,10713.90000000596,878937.3000000119,7060,WL,C,1.0
6,10.86299991607666,distr,49137.00008392334,Mon Feb 24 2025 15:51:36 GMT-0600 (Central Standard Time),889800.0,B,forestho,O,backspace,134,1,10862.699999988079,878937.3000000119,7060,WL,C,1.0
6,11.02899980545044,distr,48971.00019454956,Mon Feb 24 2025 15:51:36 GMT-0600 (Central Standard Time),889965.6000000238,B,foresth,O,backspace,155,1,11028.300000011921,878937.3000000119,7060,WL,C,1.0
6,11.345999956130981,distr,48654.00004386902,Mon Feb 24 2025 15:51:36 GMT-0600 (Central Standard Time),890283.2000000179,B,forest,O,backspace,294,1,11345.90000000596,878937.3000000119,7060,WL,C,1.0
6,12.41100001335144,distr,47588.99998664856,Mon Feb 24 2025 15:51:36 GMT-0600 (Central Standard Time),891347.6000000238,B,forestenter,O,enter,1057,1,12410.300000011921,878937.3000000119,7060,WL,C,1.0
6,13.043999910354614,distr,46956.000089645386,Mon Feb 24 2025 15:51:36 GMT-0600 (Central Standard Time),891981.3000000119,B,h,O,h,625,1,633.5,891347.8000000119,7060,WL,C,2.0
6,13.277999877929688,distr,46722.00012207031,Mon Feb 24 2025 15:51:36 GMT-0600 (Central Standard Time),892215.2000000179,B,ho,O,o,223,1,867.4000000059605,891347.8000000119,7060,WL,C,2.0
6,13.628999948501587,distr,46371.00005149841,Mon Feb 24 2025 15:51:36 GMT-0600 (Central Standard Time),892565.5,B,hot,O,t,334,1,1217.699999988079,891347.8000000119,7060,WL,C,2.0
6,13.728999853134155,distr,46271.000146865845,Mon Feb 24 2025 15:51:36 GMT-0600 (Central Standard Time),892666.2000000179,B,hote,O,e,80,1,1318.4000000059605,891347.8000000119,7060,WL,C,2.0
6,14.09499979019165,distr,45905.00020980835,Mon Feb 24 2025 15:51:36 GMT-0600 (Central Standard Time),893031.6000000238,B,hotel,O,l,350,1,1683.800000011921,891347.8000000119,7060,WL,C,2.0
6,14.644999980926514,distr,45355.000019073486,Mon Feb 24 2025 15:51:36 GMT-0600 (Central Standard Time),893581.8000000119,B,hotelenter,O,enter,540,1,2234.0,891347.8000000119,7060,WL,C,2.0
6,14.994999885559082,distr,45005.00011444092,Mon Feb 24 2025 15:51:36 GMT-0600 (Central Standard Time),893932.6000000238,B,v,O,v,345,1,350.40000000596046,893582.2000000179,7060,WL,C,3.0
6,15.110999822616577,distr,44889.00017738342,Mon Feb 24 2025 15:51:36 GMT-0600 (Central Standard Time),894048.1000000238,B,va,O,a,102,1,465.90000000596046,893582.2000000179,7060,WL,C,3.0
6,15.460999965667725,distr,44539.000034332275,Mon Feb 24 2025 15:51:36 GMT-0600 (Central Standard Time),894397.7000000179,B,val,O,l,339,1,815.5,893582.2000000179,7060,WL,C,3.0
6,15.609999895095825,distr,44390.000104904175,Mon Feb 24 2025 15:51:36 GMT-0600 (Central Standard Time),894547.1000000238,B,vale,O,e,132,1,964.9000000059605,893582.2000000179,7060,WL,C,3.0
6,15.86299991607666,distr,44137.00008392334,Mon Feb 24 2025 15:51:36 GMT-0600 (Central Standard Time),894799.900000006,B,valey,O,y,239,1,1217.699999988079,893582.2000000179,7060,WL,C,3.0
6,16.22699999809265,distr,43773.00000190735,Mon Feb 24 2025 15:51:36 GMT-0600 (Central Standard Time),895164.2000000179,B,valeyenter,O,enter,347,1,1582.0,893582.2000000179,7060,WL,C,3.0
6,16.526999950408936,distr,43473.000049591064,Mon Feb 24 2025 15:51:36 GMT-0600 (Central Standard Time),895463.900000006,B,s,O,s,280,1,299.5,895164.400000006,7060,WL,C,4.0
6,17.242999792099,distr,42757.000207901,Mon Feb 24 2025 15:51:36 GMT-0600 (Central Standard Time),896179.8000000119,B,sk,O,k,700,1,1015.4000000059605,895164.400000006,7060,WL,C,4.0
6,17.643999814987183,distr,42356.00018501282,Mon Feb 24 2025 15:51:36 GMT-0600 (Central Standard Time),896581.2000000179,B,sky,O,y,377,1,1416.800000011921,895164.400000006,7060,WL,C,4.0
6,17.991999864578247,distr,42008.00013542175,Mon Feb 24 2025 15:51:36 GMT-0600 (Central Standard Time),896929.400000006,B,skyenter,O,enter,332,1,1765.0,895164.400000006,7060,WL,C,4.0
6,19.777999877929688,distr,40222.00012207031,Mon Feb 24 2025 15:51:36 GMT-0600 (Central Standard Time),898715.400000006,B,d,O,d,1781,1,1785.7999999821186,896929.6000000238,7060,WL,C,5.0
6,19.91100001335144,distr,40088.99998664856,Mon Feb 24 2025 15:51:36 GMT-0600 (Central Standard Time),898847.6000000238,B,do,O,o,119,1,1918.0,896929.6000000238,7060,WL,C,5.0
6,20.126999855041504,distr,39873.000144958496,Mon Feb 24 2025 15:51:36 GMT-0600 (Central Standard Time),899064.3000000119,B,dol,O,l,203,1,2134.699999988079,896929.6000000238,7060,WL,C,5.0
6,20.257999897003174,distr,39742.000102996826,Mon Feb 24 2025 15:51:36 GMT-0600 (Central Standard Time),899195.2000000179,B,doll,O,l,116,1,2265.5999999940395,896929.6000000238,7060,WL,C,5.0
6,20.375999927520752,distr,39624.00007247925,Mon Feb 24 2025 15:51:36 GMT-0600 (Central Standard Time),899313.1000000238,B,dolla,O,a,106,1,2383.5,896929.6000000238,7060,WL,C,5.0
6,20.610999822616577,distr,39389.00017738342,Mon Feb 24 2025 15:51:36 GMT-0600 (Central Standard Time),899548.0,B,dollar,O,r,218,1,2618.399999976158,896929.6000000238,7060,WL,C,5.0
6,23.45799994468689,distr,36542.00005531311,Mon Feb 24 2025 15:51:36 GMT-0600 (Central Standard Time),902395.6000000238,B,dollarenter,O,enter,2826,1,5466.0,896929.6000000238,7060,WL,C,5.0
6,23.906999826431274,distr,36093.000173568726,Mon Feb 24 2025 15:51:36 GMT-0600 (Central Standard Time),902844.2000000179,B,b,O,b,440,1,448.30000001192093,902395.900000006,7060,WL,C,6.0
6,24.5239999294281,distr,35476.0000705719,Mon Feb 24 2025 15:51:36 GMT-0600 (Central Standard Time),903461.6000000238,B,bu,O,u,597,1,1065.7000000178814,902395.900000006,7060,WL,C,6.0
6,24.840999841690063,distr,35159.00015830994,Mon Feb 24 2025 15:51:36 GMT-0600 (Central Standard Time),903778.2000000179,B,but,O,t,304,1,1382.300000011921,902395.900000006,7060,WL,C,6.0
6,24.973999977111816,distr,35026.00002288818,Mon Feb 24 2025 15:51:36 GMT-0600 (Central Standard Time),903911.0,B,butt,O,t,123,1,1515.0999999940395,902395.900000006,7060,WL,C,6.0
6,25.05900001525879,distr,34940.99998474121,Mon Feb 24 2025 15:51:36 GMT-0600 (Central Standard Time),903995.900000006,B,butte,O,e,78,1,1600.0,902395.900000006,7060,WL,C,6.0
6,25.173999786376953,distr,34826.00021362305,Mon Feb 24 2025 15:51:36 GMT-0600 (Central Standard Time),904110.7000000179,B,butter,O,r,105,1,1714.800000011921,902395.900000006,7060,WL,C,6.0
6,25.5239999294281,distr,34476.0000705719,Mon Feb 24 2025 15:51:36 GMT-0600 (Central Standard Time),904460.7000000179,B,butterenter,O,enter,343,1,2064.800000011921,902395.900000006,7060,WL,C,6.0
6,25.93999981880188,distr,34060.00018119812,Mon Feb 24 2025 15:51:36 GMT-0600 (Central Standard Time),904877.3000000119,B,d,O,d,399,1,416.30000001192093,904461.0,7060,WL,C,7.0
6,26.090999841690063,distr,33909.00015830994,Mon Feb 24 2025 15:51:36 GMT-0600 (Central Standard Time),905027.8000000119,B,di,O,i,136,1,566.8000000119209,904461.0,7060,WL,C,7.0
6,26.240999937057495,distr,33759.000062942505,Mon Feb 24 2025 15:51:36 GMT-0600 (Central Standard Time),905178.1000000238,B,dia,O,a,146,1,717.1000000238419,904461.0,7060,WL,C,7.0
6,26.406999826431274,distr,33593.000173568726,Mon Feb 24 2025 15:51:36 GMT-0600 (Central Standard Time),905344.1000000238,B,diam,O,m,146,1,883.1000000238419,904461.0,7060,WL,C,7.0
6,26.607999801635742,distr,33392.00019836426,Mon Feb 24 2025 15:51:36 GMT-0600 (Central Standard Time),905545.2000000179,B,diamo,O,o,186,1,1084.2000000178814,904461.0,7060,WL,C,7.0
6,26.889999866485596,distr,33110.000133514404,Mon Feb 24 2025 15:51:36 GMT-0600 (Central Standard Time),905827.2000000179,B,diamon,O,n,261,1,1366.2000000178814,904461.0,7060,WL,C,7.0
6,27.2739999294281,distr,32726.0000705719,Mon Feb 24 2025 15:51:36 GMT-0600 (Central Standard Time),906211.2000000179,B,diamond,O,d,366,1,1750.2000000178814,904461.0,7060,WL,C,7.0
6,27.639999866485596,distr,32360.000133514404,Mon Feb 24 2025 15:51:36 GMT-0600 (Central Standard Time),906576.8000000119,B,diamondenter,O,enter,345,1,2115.800000011921,904461.0,7060,WL,C,7.0
6,31.789999961853027,distr,28210.000038146973,Mon Feb 24 2025 15:51:36 GMT-0600 (Central Standard Time),910726.7000000179,B,m,O,m,4144,1,4149.700000017881,906577.0,7060,WL,C,8.0
6,32.03699994087219,distr,27963.000059127808,Mon Feb 24 2025 15:51:36 GMT-0600 (Central Standard Time),910974.7000000179,B,mo,O,o,227,1,4397.700000017881,906577.0,7060,WL,C,8.0
6,32.32299995422363,distr,27677.000045776367,Mon Feb 24 2025 15:51:36 GMT-0600 (Central Standard Time),911260.6000000238,B,mot,O,t,276,1,4683.600000023842,906577.0,7060,WL,C,8.0
6,32.50599980354309,distr,27494.00019645691,Mon Feb 24 2025 15:51:36 GMT-0600 (Central Standard Time),911443.3000000119,B,moth,O,h,178,1,4866.300000011921,906577.0,7060,WL,C,8.0
6,32.638999938964844,distr,27361.000061035156,Mon Feb 24 2025 15:51:36 GMT-0600 (Central Standard Time),911575.6000000238,B,mothe,O,e,122,1,4998.600000023842,906577.0,7060,WL,C,8.0
6,32.80499982833862,distr,27195.000171661377,Mon Feb 24 2025 15:51:36 GMT-0600 (Central Standard Time),911741.900000006,B,mother,O,r,150,1,5164.9000000059605,906577.0,7060,WL,C,8.0
6,34.9539999961853,distr,25046.000003814697,Mon Feb 24 2025 15:51:36 GMT-0600 (Central Standard Time),913890.8000000119,B,motherenter,O,enter,2143,1,7313.800000011921,906577.0,7060,WL,C,8.0
6,36.9689998626709,distr,23031.0001373291,Mon Feb 24 2025 15:51:36 GMT-0600 (Central Standard Time),915906.5,B,h,O,h,2002,1,2015.5,913891.0,7060,WL,C,9.0
6,37.186999797821045,distr,22813.000202178955,Mon Feb 24 2025 15:51:36 GMT-0600 (Central Standard Time),916123.8000000119,B,ho,O,o,204,1,2232.800000011921,913891.0,7060,WL,C,9.0
6,37.45199990272522,distr,22548.00009727478,Mon Feb 24 2025 15:51:36 GMT-0600 (Central Standard Time),916389.400000006,B,hot,O,t,255,1,2498.4000000059605,913891.0,7060,WL,C,9.0
6,37.5699999332428,distr,22430.000066757202,Mon Feb 24 2025 15:51:36 GMT-0600 (Central Standard Time),916507.2000000179,B,hote,O,e,105,1,2616.2000000178814,913891.0,7060,WL,C,9.0
6,37.9689998626709,distr,22031.0001373291,Mon Feb 24 2025 15:51:36 GMT-0600 (Central Standard Time),916906.6000000238,B,hotel,O,l,386,1,3015.600000023842,913891.0,7060,WL,C,9.0
6,38.23699998855591,distr,21763.00001144409,Mon Feb 24 2025 15:51:36 GMT-0600 (Central Standard Time),917173.7000000179,B,hotelenter,O,enter,249,1,3282.7000000178814,913891.0,7060,WL,C,9.0
6,49.217000007629395,distr,10782.999992370605,Mon Feb 24 2025 15:51:36 GMT-0600 (Central Standard Time),928154.3000000119,B,enter,O,enter,10975,1,10980.40000000596,917173.900000006,7060,WL,C,10.0
6,51.579999923706055,distr,8420.000076293945,Mon Feb 24 2025 15:51:36 GMT-0600 (Central Standard Time),930517.5,B,enter,O,enter,2346,1,2362.7999999821186,928154.7000000179,7060,WL,C,11.0
6,51.91499996185303,distr,8085.000038146973,Mon Feb 24 2025 15:51:36 GMT-0600 (Central Standard Time),930851.8000000119,B,enter,O,enter,320,1,334.0,930517.8000000119,7060,WL,C,12.0
6,53.632999897003174,distr,6367.000102996826,Mon Feb 24 2025 15:51:36 GMT-0600 (Central Standard Time),932569.6000000238,B,enter,O,enter,1712,1,1717.4000000059605,930852.2000000179,7060,WL,C,13.0
6,53.931999921798706,distr,6068.000078201294,Mon Feb 24 2025 15:51:36 GMT-0600 (Central Standard Time),932868.6000000238,B,enter,O,enter,278,1,298.7000000178814,932569.900000006,7060,WL,C,14.0
6,54.413999795913696,distr,5586.000204086304,Mon Feb 24 2025 15:51:36 GMT-0600 (Central Standard Time),933351.400000006,B,enter,O,enter,472,1,482.5,932868.900000006,7060,WL,C,15.0
7,10.976999998092651,immed,49023.00000190735,Mon Feb 24 2025 15:51:36 GMT-0600 (Central Standard Time),949179.3000000119,A,enter,O,enter,10971,1,10976.90000000596,938202.400000006,7060,WL,C,1.0
7,12.194000005722046,immed,47805.999994277954,Mon Feb 24 2025 15:51:36 GMT-0600 (Central Standard Time),950396.2000000179,A,enter,O,enter,1201,1,1216.5999999940395,949179.6000000238,7060,WL,C,2.0
7,27.00600004196167,immed,32993.99995803833,Mon Feb 24 2025 15:51:36 GMT-0600 (Central Standard Time),965208.6000000238,A,,O,backspace,14801,1,14812.100000023842,950396.5,7060,WL,C,3.0
7,38.4520001411438,immed,21547.9998588562,Mon Feb 24 2025 15:51:36 GMT-0600 (Central Standard Time),976654.8000000119,A,,O,backspace,11436,1,26258.30000001192,950396.5,7060,WL,C,3.0
7,41.95300006866455,immed,18046.99993133545,Mon Feb 24 2025 15:51:36 GMT-0600 (Central Standard Time),980155.6000000238,A,t,O,t,3494,1,29759.100000023842,950396.5,7060,WL,C,3.0
7,42.28399991989136,immed,17716.000080108643,Mon Feb 24 2025 15:51:36 GMT-0600 (Central Standard Time),980486.3000000119,A,to,O,o,320,1,30089.80000001192,950396.5,7060,WL,C,3.0
7,42.55200004577637,immed,17447.999954223633,Mon Feb 24 2025 15:51:36 GMT-0600 (Central Standard Time),980754.8000000119,A,tow,O,w,251,1,30358.30000001192,950396.5,7060,WL,C,3.0
7,42.73399996757507,immed,17266.000032424927,Mon Feb 24 2025 15:51:36 GMT-0600 (Central Standard Time),980936.400000006,A,towe,O,e,169,1,30539.90000000596,950396.5,7060,WL,C,3.0
7,42.901000022888184,immed,17098.999977111816,Mon Feb 24 2025 15:51:36 GMT-0600 (Central Standard Time),981103.1000000238,A,tower,O,r,147,1,30706.600000023842,950396.5,7060,WL,C,3.0
7,43.51699995994568,immed,16483.00004005432,Mon Feb 24 2025 15:51:36 GMT-0600 (Central Standard Time),981719.3000000119,A,towerq,O,q,595,1,31322.80000001192,950396.5,7060,WL,C,3.0
7,43.66700005531311,immed,16332.99994468689,Mon Feb 24 2025 15:51:36 GMT-0600 (Central Standard Time),981869.6000000238,A,towerqu,O,u,130,1,31473.100000023842,950396.5,7060,WL,C,3.0
7,44.865999937057495,immed,15134.000062942505,Mon Feb 24 2025 15:51:36 GMT-0600 (Central Standard Time),983068.400000006,A,towerq,O,backspace,1182,1,32671.90000000596,950396.5,7060,WL,C,3.0
7,45.06599998474121,immed,14934.000015258789,Mon Feb 24 2025 15:51:36 GMT-0600 (Central Standard Time),983268.8000000119,A,tower,O,backspace,193,1,32872.30000001192,950396.5,7060,WL,C,3.0
7,46.60000014305115,immed,13399.999856948853,Mon Feb 24 2025 15:51:36 GMT-0600 (Central Standard Time),984802.1000000238,A,towerenter,O,enter,1525,1,34405.60000002384,950396.5,7060,WL,C,3.0
7,46.949000120162964,immed,13050.999879837036,Mon Feb 24 2025 15:51:36 GMT-0600 (Central Standard Time),985151.6000000238,A,q,O,q,339,1,349.2000000178814,984802.400000006,7060,WL,C,4.0
7,47.16600012779236,immed,12833.999872207642,Mon Feb 24 2025 15:51:36 GMT-0600 (Central Standard Time),985368.0,A,qu,O,u,205,1,565.5999999940395,984802.400000006,7060,WL,C,4.0
7,47.31599998474121,immed,12684.000015258789,Mon Feb 24 2025 15:51:36 GMT-0600 (Central Standard Time),985518.0,A,que,O,e,132,1,715.5999999940395,984802.400000006,7060,WL,C,4.0
7,47.56700015068054,immed,12432.999849319458,Mon Feb 24 2025 15:51:36 GMT-0600 (Central Standard Time),985769.7000000179,A,quee,O,e,237,1,967.3000000119209,984802.400000006,7060,WL,C,4.0
7,47.83200001716614,immed,12167.999982833862,Mon Feb 24 2025 15:51:36 GMT-0600 (Central Standard Time),986034.6000000238,A,queen,O,n,251,1,1232.2000000178814,984802.400000006,7060,WL,C,4.0
7,48.1489999294281,immed,11851.0000705719,Mon Feb 24 2025 15:51:36 GMT-0600 (Central Standard Time),986351.1000000238,A,queenenter,O,enter,305,1,1548.7000000178814,984802.400000006,7060,WL,C,4.0
7,52.746999979019165,immed,7253.000020980835,Mon Feb 24 2025 15:51:36 GMT-0600 (Central Standard Time),990949.6000000238,A,w,O,w,4590,1,4598.300000011921,986351.3000000119,7060,WL,C,5.0
7,52.99900007247925,immed,7000.999927520752,Mon Feb 24 2025 15:51:36 GMT-0600 (Central Standard Time),991201.0,A,wh,O,h,230,1,4849.699999988079,986351.3000000119,7060,WL,C,5.0
7,53.13000011444092,immed,6869.999885559082,Mon Feb 24 2025 15:51:36 GMT-0600 (Central Standard Time),991333.1000000238,A,whe,O,e,114,1,4981.800000011921,986351.3000000119,7060,WL,C,5.0
7,53.414000034332275,immed,6585.999965667725,Mon Feb 24 2025 15:51:36 GMT-0600 (Central Standard Time),991615.900000006,A,whea,O,a,260,1,5264.5999999940395,986351.3000000119,7060,WL,C,5.0
7,53.56400012969971,immed,6435.999870300293,Mon Feb 24 2025 15:51:36 GMT-0600 (Central Standard Time),991766.8000000119,A,wheat,O,t,141,1,5415.5,986351.3000000119,7060,WL,C,5.0
7,54.03200006484985,immed,5967.9999351501465,Mon Feb 24 2025 15:51:36 GMT-0600 (Central Standard Time),992234.5,A,wheatenter,O,enter,445,1,5883.199999988079,986351.3000000119,7060,WL,C,5.0
7,54.579999923706055,immed,5420.000076293945,Mon Feb 24 2025 15:51:36 GMT-0600 (Central Standard Time),992782.400000006,A,s,O,s,539,1,547.6999999880791,992234.7000000179,7060,WL,C,6.0
7,54.746999979019165,immed,5253.000020980835,Mon Feb 24 2025 15:51:36 GMT-0600 (Central Standard Time),992949.2000000179,A,su,O,u,157,1,714.5,992234.7000000179,7060,WL,C,6.0
7,55.1800000667572,immed,4819.999933242798,Mon Feb 24 2025 15:51:36 GMT-0600 (Central Standard Time),993382.8000000119,A,sug,O,g,414,1,1148.0999999940395,992234.7000000179,7060,WL,C,6.0
7,55.462000131607056,immed,4537.999868392944,Mon Feb 24 2025 15:51:36 GMT-0600 (Central Standard Time),993664.6000000238,A,sugr,O,r,264,1,1429.9000000059605,992234.7000000179,7060,WL,C,6.0
7,55.598999977111816,immed,4401.000022888184,Mon Feb 24 2025 15:51:36 GMT-0600 (Central Standard Time),993800.900000006,A,sugra,O,a,114,1,1566.199999988079,992234.7000000179,7060,WL,C,6.0
7,56.013999938964844,immed,3986.0000610351562,Mon Feb 24 2025 15:51:36 GMT-0600 (Central Standard Time),994216.5,A,sugraenter,O,enter,401,1,1981.7999999821186,992234.7000000179,7060,WL,C,6.0
7,58.19600009918213,immed,1803.999900817871,Mon Feb 24 2025 15:51:36 GMT-0600 (Central Standard Time),996398.8000000119,A,h,O,h,2164,1,2182.0,994216.8000000119,7060,WL,C,7.0
7,58.396000146865845,immed,1603.9998531341553,Mon Feb 24 2025 15:51:36 GMT-0600 (Central Standard Time),996598.1000000238,A,ho,O,o,180,1,2381.300000011921,994216.8000000119,7060,WL,C,7.0
7,58.73099994659424,immed,1269.0000534057617,Mon Feb 24 2025 15:51:36 GMT-0600 (Central Standard Time),996933.2000000179,A,hom,O,m,328,1,2716.4000000059605,994216.8000000119,7060,WL,C,7.0
7,59.01300001144409,immed,986.9999885559082,Mon Feb 24 2025 15:51:36 GMT-0600 (Central Standard Time),997215.2000000179,A,home,O,e,263,1,2998.4000000059605,994216.8000000119,7060,WL,C,7.0
7,59.24600005149841,immed,753.9999485015869,Mon Feb 24 2025 15:51:36 GMT-0600 (Central Standard Time),997448.3000000119,A,homeenter,O,enter,211,1,3231.5,994216.8000000119,7060,WL,C,7.0
7,59.646000146865845,immed,353.9998531341553,Mon Feb 24 2025 15:51:36 GMT-0600 (Central Standard Time),997848.0,A,b,O,b,388,1,399.39999997615814,997448.6000000238,7060,WL,C,8.0
7,59.980000019073486,immed,19.999980926513672,Mon Feb 24 2025 15:51:36 GMT-0600 (Central Standard Time),998182.0,A,bo,O,o,312,1,733.3999999761581,997448.6000000238,7060,WL,C,8.0
7,60.00999999046326,immed,-9.999990463256836,Mon Feb 24 2025 15:51:36 GMT-0600 (Central Standard Time),998212.1000000238,A,boNone,O,None,23,1,763.5,997448.6000000238,7060,WL,C,8.0
