acc_sum,block,block_c,condition,correct,correct_response,datetime,endtime,flanker,jitter,project,response,response_test_buffer_response,response_test_target_response,response_time,response_time_test_buffer_response,response_time_test_target_response,row_sel,session_number,start_end,starttime,subject_id,target,task,task_vers,time_test_buffer,time_test_buffer_response,time_test_constants,time_test_flanker,time_test_jitter,time_test_logger,time_test_target,time_test_target_response,time_test_variables,trial
0,prac,1,inc,0,z,Wed Jan 29 2025 11:07:19 GMT-0600 (Central Standard Time),117958.89999999851,film,900,I,None,,,1799,,,14,1,4977.29999999702,112981.60000000149,8021,hate,AF,B,,,,,,,,,,1
0,prac,1,con,0,z,Wed Jan 29 2025 11:07:19 GMT-0600 (Central Standard Time),120741.60000000149,elated,800,I,m,,,671,,,9,1,2777.7000000029802,117963.89999999851,8021,elated,AF,B,,,,,,,,,,2
0,prac,1,inc,0,z,Wed Jan 29 2025 11:07:19 GMT-0600 (Central Standard Time),125923.19999999553,window,1100,I,None,,,1799,,,16,1,5175.69999999553,120747.5,8021,temper,AF,B,,,,,,,,,,3
1,prac,1,inc,1,z,Wed Jan 29 2025 11:07:19 GMT-0600 (Central Standard Time),128856.29999999702,rock,900,I,z,,,631,,,10,1,2928.5,125927.79999999702,8021,kind,AF,B,,,,,,,,,,4
2,prac,1,con,1,m,Wed Jan 29 2025 11:07:19 GMT-0600 (Central Standard Time),131887.8999999985,remote,1000,I,m,,,718,,,7,1,3025.0,128862.89999999851,8021,remote,AF,B,,,,,,,,,,5
3,prac,1,inc,1,m,Wed Jan 29 2025 11:07:19 GMT-0600 (Central Standard Time),134770.29999999702,kind,900,I,m,,,666,,,2,1,2878.1999999955297,131892.1000000015,8021,rock,AF,B,,,,,,,,,,6
4,prac,1,inc,1,z,Wed Jan 29 2025 11:07:19 GMT-0600 (Central Standard Time),137752.79999999702,napkin,1100,I,z,,,576,,,12,1,2978.39999999851,134774.3999999985,8021,friend,AF,B,,,,,,,,,,7
5,prac,1,con,1,z,Wed Jan 29 2025 11:07:19 GMT-0600 (Central Standard Time),140701.8999999985,love,1000,I,z,,,645,,,11,1,2944.60000000149,137757.29999999702,8021,love,AF,B,,,,,,,,,,8
6,prac,1,inc,1,m,Wed Jan 29 2025 11:07:19 GMT-0600 (Central Standard Time),143534.29999999702,elated,900,I,m,,,620,,,6,1,2828.0,140706.29999999702,8021,napkin,AF,B,,,,,,,,,,9
7,prac,1,con,1,m,Wed Jan 29 2025 11:07:19 GMT-0600 (Central Standard Time),146250.19999999553,jacket,800,I,m,,,615,,,5,1,2711.2999999970198,143538.8999999985,8021,jacket,AF,B,,,,,,,,,,10
8,prac,1,con,1,m,Wed Jan 29 2025 11:07:19 GMT-0600 (Central Standard Time),148882.5,step,800,I,m,,,515,,,1,1,2627.7000000029802,146254.79999999702,8021,step,AF,B,,,,,,,,,,11
9,prac,1,inc,1,m,Wed Jan 29 2025 11:07:19 GMT-0600 (Central Standard Time),152031.79999999702,brutal,1100,I,m,,,743,,,8,1,3144.89999999851,148886.8999999985,8021,window,AF,B,,,,,,,,,,12
10,prac,1,con,1,m,Wed Jan 29 2025 11:07:19 GMT-0600 (Central Standard Time),155063.8999999985,bell,1000,I,m,,,718,,,3,1,3027.89999999851,152036.0,8021,bell,AF,B,,,,,,,,,,13
11,prac,1,con,1,z,Wed Jan 29 2025 11:07:19 GMT-0600 (Central Standard Time),158429.6000000015,rage,1000,I,z,,,1062,,,15,1,3361.3000000044703,155068.29999999702,8021,rage,AF,B,,,,,,,,,,14
12,prac,1,inc,1,m,Wed Jan 29 2025 11:07:19 GMT-0600 (Central Standard Time),161528.69999999553,hate,1100,I,m,,,692,,,4,1,3094.6999999955297,158434.0,8021,film,AF,B,,,,,,,,,,15
13,prac,1,con,1,z,Wed Jan 29 2025 11:07:19 GMT-0600 (Central Standard Time),164577.8999999985,brutal,800,I,z,,,932,,,13,1,3045.10000000149,161532.79999999702,8021,brutal,AF,B,,,,,,,,,,16
1,test,1,inc,1,z,Wed Jan 29 2025 11:07:19 GMT-0600 (Central Standard Time),180506.1000000015,jacket,800,I,z,z,None,734,519.0,215.0,37,1,2072.10000000149,178434.0,8021,brutal,AF,B,174608,174608,173069,173876,173070,175141,174392,174393,175141,1
2,test,1,inc,1,m,Wed Jan 29 2025 11:07:19 GMT-0600 (Central Standard Time),182922.0,temper,1000,I,m,m,None,867,652.0,215.0,119,1,2411.39999999851,180510.6000000015,8021,remote,AF,B,176891,176891,175146,176158,175147,177557,176676,176676,177557,2
3,test,1,con,1,m,Wed Jan 29 2025 11:07:19 GMT-0600 (Central Standard Time),185038.1000000015,rock,800,I,m,m,None,772,573.0,199.0,73,1,2111.8000000044703,182926.29999999702,8021,rock,AF,B,179090,179090,177561,178374,177563,179673,178891,178891,179673,3
4,test,1,con,1,m,Wed Jan 29 2025 11:07:19 GMT-0600 (Central Standard Time),186937.3999999985,napkin,800,I,m,m,None,552,353.0,199.0,105,1,1894.1000000014901,185043.29999999702,8021,napkin,AF,B,181206,181206,179678,180490,179680,181572,181007,181007,181572,4
5,test,1,inc,1,m,Wed Jan 29 2025 11:07:19 GMT-0600 (Central Standard Time),189136.69999999553,love,1000,I,m,m,None,660,461.0,199.0,95,1,2194.7999999970198,186941.8999999985,8021,film,AF,B,183306,183306,181577,182590,181578,183772,183106,183106,183772,5
6,test,1,con,1,z,Wed Jan 29 2025 11:07:19 GMT-0600 (Central Standard Time),191169.29999999702,brutal,800,I,z,z,None,685,486.0,199.0,33,1,2028.6999999955297,189140.6000000015,8021,brutal,AF,B,185305,185305,183776,184589,183777,185804,185106,185106,185804,6
7,test,1,inc,1,m,Wed Jan 29 2025 11:07:19 GMT-0600 (Central Standard Time),193419.79999999702,hate,1100,I,m,m,None,608,393.0,215.0,80,1,2246.2999999970198,191173.5,8021,rock,AF,B,187654,187654,185809,186922,185810,188055,187438,187439,188055,7
8,test,1,con,1,z,Wed Jan 29 2025 11:07:19 GMT-0600 (Central Standard Time),195717.8999999985,temper,1100,I,z,z,None,655,440.0,215.0,60,1,2293.7999999970198,193424.1000000015,8021,temper,AF,B,189903,189903,188059,189171,188061,190353,189688,189688,190353,8
9,test,1,inc,1,m,Wed Jan 29 2025 11:07:19 GMT-0600 (Central Standard Time),197817.19999999553,kind,900,I,m,m,None,652,453.0,199.0,86,1,2095.0999999940395,195722.1000000015,8021,bell,AF,B,191986,191986,190357,191270,190359,192452,191787,191787,192452,9
10,test,1,inc,1,z,Wed Jan 29 2025 11:07:19 GMT-0600 (Central Standard Time),200283.19999999553,napkin,900,I,z,z,None,1024,810.0,214.0,38,1,2462.0999999940395,197821.1000000015,8021,brutal,AF,B,194101,194101,192456,193370,192458,194918,193887,193887,194918,10
11,test,1,con,1,m,Wed Jan 29 2025 11:07:19 GMT-0600 (Central Standard Time),202432.3999999985,remote,900,I,m,m,None,703,504.0,199.0,114,1,2144.7999999970198,200287.6000000015,8021,remote,AF,B,196551,196551,194923,195836,194924,197068,196352,196352,197067,11
12,test,1,inc,1,z,Wed Jan 29 2025 11:07:19 GMT-0600 (Central Standard Time),204448.5,step,800,I,z,z,None,669,454.0,215.0,21,1,2011.7000000029802,202436.79999999702,8021,love,AF,B,198617,198617,197072,197886,197073,199084,198402,198402,199083,12
13,test,1,con,1,z,Wed Jan 29 2025 11:07:19 GMT-0600 (Central Standard Time),206648.0,hate,900,I,z,z,None,753,538.0,215.0,42,1,2195.8000000044703,204452.19999999553,8021,hate,AF,B,200733,200733,199087,200001,199089,201283,200518,200518,201283,13
14,test,1,con,1,z,Wed Jan 29 2025 11:07:19 GMT-0600 (Central Standard Time),208897.0,brutal,1100,I,z,z,None,602,403.0,199.0,36,1,2244.89999999851,206652.1000000015,8021,brutal,AF,B,203116,203116,201287,202400,201289,203532,202917,202917,203532,14
15,test,1,inc,1,m,Wed Jan 29 2025 11:07:19 GMT-0600 (Central Standard Time),210963.1000000015,rage,800,I,m,m,None,725,526.0,199.0,77,1,2061.8000000044703,208901.29999999702,8021,rock,AF,B,205065,205065,203536,204350,203538,205598,204866,204866,205598,15
16,test,1,inc,1,m,Wed Jan 29 2025 11:07:19 GMT-0600 (Central Standard Time),213162.5,temper,1000,I,m,m,None,659,460.0,199.0,111,1,2195.3000000044703,210967.19999999553,8021,napkin,AF,B,207331,207331,205602,206615,205604,207798,207132,207132,207798,16
17,test,1,inc,1,m,Wed Jan 29 2025 11:07:19 GMT-0600 (Central Standard Time),215644.8999999985,hate,1100,I,m,m,None,846,631.0,215.0,72,1,2478.2999999970198,213166.6000000015,8021,step,AF,B,209648,209648,207802,208915,207803,210280,209432,209432,210280,17
18,test,1,inc,1,z,Wed Jan 29 2025 11:07:19 GMT-0600 (Central Standard Time),217727.8999999985,rock,900,I,z,z,None,637,438.0,199.0,22,1,2079.2999999970198,215648.6000000015,8021,love,AF,B,211913,211913,210284,211198,210285,212363,211714,211714,212363,18
19,test,1,con,1,m,Wed Jan 29 2025 11:07:19 GMT-0600 (Central Standard Time),220011.5,jacket,1100,I,m,m,None,633,418.0,215.0,100,1,2279.5,217732.0,8021,jacket,AF,B,214212,214213,212367,213480,212369,214647,213997,213997,214646,19
20,test,1,inc,1,m,Wed Jan 29 2025 11:07:19 GMT-0600 (Central Standard Time),222159.69999999553,rage,800,I,m,m,None,811,596.0,215.0,93,1,2144.0,220015.69999999553,8021,film,AF,B,216195,216195,214651,215463,214652,216795,215979,215980,216795,20
21,test,1,con,1,z,Wed Jan 29 2025 11:07:19 GMT-0600 (Central Standard Time),224375.6000000015,kind,1000,I,z,z,None,687,488.0,199.0,11,1,2211.60000000149,222164.0,8021,kind,AF,B,218511,218511,216799,217805,216800,219011,218312,218312,219011,21
22,test,1,con,1,m,Wed Jan 29 2025 11:07:19 GMT-0600 (Central Standard Time),226541.6000000015,window,900,I,m,m,None,730,531.0,199.0,122,1,2160.4000000059605,224381.19999999553,8021,window,AF,B,220644,220644,219016,219928,219018,221177,220445,220445,221177,22
23,test,1,con,1,m,Wed Jan 29 2025 11:07:19 GMT-0600 (Central Standard Time),228640.8999999985,rock,1000,I,m,m,None,552,337.0,215.0,75,1,2095.0,226545.8999999985,8021,rock,AF,B,222926,222926,221181,222194,221182,223276,222711,222711,223276,23
24,test,1,con,1,z,Wed Jan 29 2025 11:07:19 GMT-0600 (Central Standard Time),230907.0,hate,1100,I,z,z,None,625,426.0,199.0,44,1,2261.8000000044703,228645.19999999553,8021,hate,AF,B,225109,225109,223280,224393,223282,225542,224910,224910,225542,24
25,test,1,con,1,z,Wed Jan 29 2025 11:07:19 GMT-0600 (Central Standard Time),233273.0,love,1100,I,z,z,None,719,520.0,199.0,20,1,2361.89999999851,230911.1000000015,8021,love,AF,B,227375,227375,225546,226659,225548,227908,227176,227176,227908,25
26,test,1,inc,1,m,Wed Jan 29 2025 11:07:19 GMT-0600 (Central Standard Time),235355.5,kind,900,I,m,m,None,633,433.0,200.0,78,1,2078.3000000044703,233277.19999999553,8021,rock,AF,B,229542,229542,227912,228825,227914,229991,229342,229342,229990,26
27,test,1,inc,1,m,Wed Jan 29 2025 11:07:19 GMT-0600 (Central Standard Time),237588.19999999553,temper,1000,I,m,m,None,690,475.0,215.0,103,1,2228.2999999970198,235359.8999999985,8021,jacket,AF,B,231740,231740,229995,231008,229996,232223,231525,231525,232223,27
28,test,1,con,1,z,Wed Jan 29 2025 11:07:19 GMT-0600 (Central Standard Time),239754.1000000015,kind,900,I,z,z,None,717,518.0,199.0,10,1,2162.10000000149,237592.0,8021,kind,AF,B,233856,233857,232227,233141,232228,234389,233657,233657,234389,28
29,test,1,con,1,m,Wed Jan 29 2025 11:07:19 GMT-0600 (Central Standard Time),241787.0,window,800,I,m,m,None,691,492.0,199.0,121,1,2028.8999999985099,239758.1000000015,8021,window,AF,B,235923,235923,234393,235208,234395,236422,235723,235723,236422,29
30,test,1,con,1,m,Wed Jan 29 2025 11:07:19 GMT-0600 (Central Standard Time),243969.5,rock,900,I,m,m,None,741,528.0,213.0,74,1,2178.7000000029802,241790.79999999702,8021,rock,AF,B,238071,238071,236426,237339,236427,238605,237858,237858,238605,30
31,test,1,inc,1,m,Wed Jan 29 2025 11:07:19 GMT-0600 (Central Standard Time),246252.19999999553,friend,1100,I,m,m,None,648,433.0,215.0,128,1,2278.7999999970198,243973.3999999985,8021,window,AF,B,240454,240454,238608,239722,238610,240887,240239,240239,240887,31
32,test,1,inc,1,m,Wed Jan 29 2025 11:07:19 GMT-0600 (Central Standard Time),248318.29999999702,temper,1000,I,m,m,None,530,331.0,199.0,127,1,2062.1999999955297,246256.1000000015,8021,window,AF,B,242620,242620,240891,241904,240892,242953,242421,242421,242953,32
33,test,1,con,1,m,Wed Jan 29 2025 11:07:19 GMT-0600 (Central Standard Time),250750.69999999553,film,1100,I,m,m,None,796,597.0,199.0,92,1,2428.5999999940395,248322.1000000015,8021,film,AF,B,244786,244786,242957,244070,242959,245386,244587,244587,245386,33
34,test,1,inc,1,m,Wed Jan 29 2025 11:07:19 GMT-0600 (Central Standard Time),253099.8999999985,hate,1100,I,m,m,None,699,500.0,199.0,88,1,2345.2999999970198,250754.6000000015,8021,bell,AF,B,247219,247219,245390,246503,245391,247735,247020,247020,247735,34
35,test,1,inc,1,m,Wed Jan 29 2025 11:07:19 GMT-0600 (Central Standard Time),255482.6000000015,hate,1100,I,m,m,None,742,543.0,199.0,96,1,2379.10000000149,253103.5,8021,film,AF,B,249568,249568,247739,248852,247740,250118,249369,249369,250118,35
36,test,1,inc,1,m,Wed Jan 29 2025 11:07:19 GMT-0600 (Central Standard Time),257831.6000000015,friend,1100,I,m,m,None,711,512.0,199.0,104,1,2345.3000000044703,255486.29999999702,8021,jacket,AF,B,251951,251951,250121,251235,250123,252467,251752,251752,252467,36
37,test,1,con,1,z,Wed Jan 29 2025 11:07:19 GMT-0600 (Central Standard Time),260264.29999999702,elated,1100,I,z,z,None,786,587.0,199.0,4,1,2428.1999999955297,257836.1000000015,8021,elated,AF,B,254300,254300,252471,253584,252473,254899,254101,254101,254899,37
38,test,1,con,1,z,Wed Jan 29 2025 11:07:19 GMT-0600 (Central Standard Time),262580.5,temper,1000,I,z,z,None,766,567.0,199.0,59,1,2312.0,260268.5,8021,temper,AF,B,256632,256632,254904,255916,254905,257216,256433,256433,257216,38
39,test,1,inc,1,m,Wed Jan 29 2025 11:07:19 GMT-0600 (Central Standard Time),264996.3999999985,love,1000,I,m,m,None,866,667.0,199.0,87,1,2412.2999999970198,262584.1000000015,8021,bell,AF,B,258948,258948,257219,258233,257221,259632,258749,258749,259631,39
40,test,1,con,1,m,Wed Jan 29 2025 11:07:19 GMT-0600 (Central Standard Time),267229.1000000015,film,1000,I,m,m,None,688,474.0,214.0,91,1,2228.4000000059605,265000.69999999553,8021,film,AF,B,261381,261381,259636,260649,259637,261864,261166,261166,261864,40
41,test,1,inc,1,m,Wed Jan 29 2025 11:07:19 GMT-0600 (Central Standard Time),269245.0,kind,900,I,m,m,None,573,374.0,199.0,94,1,2012.0,267233.0,8021,film,AF,B,263497,263497,261868,262781,261869,263880,263298,263298,263880,41
42,test,1,inc,1,z,Wed Jan 29 2025 11:07:19 GMT-0600 (Central Standard Time),271528.0,step,800,I,z,z,None,877,662.0,215.0,53,1,2278.89999999851,269249.1000000015,8021,rage,AF,B,265497,265497,263884,264764,263885,266163,265281,265281,266163,42
43,test,1,con,1,z,Wed Jan 29 2025 11:07:19 GMT-0600 (Central Standard Time),273660.299999997,love,900,I,z,z,None,698,483.0,215.0,18,1,2128.7999999970198,271531.5,8021,love,AF,B,267812,267812,266167,267080,266168,268295,267597,267597,268295,43
44,test,1,inc,1,z,Wed Jan 29 2025 11:07:19 GMT-0600 (Central Standard Time),275876.299999997,remote,1000,I,z,z,None,666,467.0,199.0,63,1,2211.89999999851,273664.3999999985,8021,temper,AF,B,270028,270028,268299,269313,268301,270511,269829,269829,270511,44
45,test,1,inc,1,z,Wed Jan 29 2025 11:07:19 GMT-0600 (Central Standard Time),277858.8999999985,step,800,I,z,z,None,634,435.0,199.0,45,1,1978.3999999985099,275880.5,8021,hate,AF,B,272044,272044,270516,271329,270517,272494,271845,271845,272494,45
46,test,1,con,1,z,Wed Jan 29 2025 11:07:19 GMT-0600 (Central Standard Time),280324.69999999553,kind,1100,I,z,z,None,831,632.0,199.0,12,1,2462.2999999970198,277862.3999999985,8021,kind,AF,B,274327,274327,272497,273611,272499,274960,274128,274128,274960,46
47,test,1,con,1,m,Wed Jan 29 2025 11:07:19 GMT-0600 (Central Standard Time),282374.299999997,jacket,900,I,m,m,None,605,406.0,199.0,98,1,2045.7999999970198,280328.5,8021,jacket,AF,B,276593,276593,274964,275877,274965,277009,276394,276394,277009,47
48,test,1,con,1,z,Wed Jan 29 2025 11:07:19 GMT-0600 (Central Standard Time),284506.8999999985,elated,900,I,z,z,None,684,485.0,199.0,2,1,2128.7999999970198,282378.1000000015,8021,elated,AF,B,278642,278642,277013,277927,277014,279142,278443,278443,279142,48
49,test,1,inc,1,m,Wed Jan 29 2025 11:07:19 GMT-0600 (Central Standard Time),286822.799999997,rage,800,I,m,m,None,970,755.0,215.0,69,1,2312.10000000149,284510.69999999553,8021,step,AF,B,280692,280692,279146,279959,279147,281458,280476,280476,281458,49
50,test,1,con,1,z,Wed Jan 29 2025 11:07:19 GMT-0600 (Central Standard Time),289105.299999997,rage,1000,I,z,z,None,743,544.0,199.0,51,1,2278.7999999970198,286826.5,8021,rage,AF,B,283191,283191,281462,282475,281463,283740,282992,282992,283740,50
51,test,1,inc,1,m,Wed Jan 29 2025 11:07:19 GMT-0600 (Central Standard Time),291205.8999999985,brutal,900,I,m,m,None,664,449.0,215.0,110,1,2096.7000000029802,289109.19999999553,8021,napkin,AF,B,285390,285390,283744,284658,283746,285841,285175,285175,285841,51
52,test,1,con,1,z,Wed Jan 29 2025 11:07:19 GMT-0600 (Central Standard Time),293304.0,elated,800,I,z,z,None,761,562.0,199.0,1,1,2094.0,291210.0,8021,elated,AF,B,287373,287373,285845,286657,285846,287939,287174,287174,287939,52
53,test,1,inc,1,z,Wed Jan 29 2025 11:07:19 GMT-0600 (Central Standard Time),295553.5,bell,1000,I,z,z,None,702,503.0,199.0,55,1,2245.7000000029802,293307.799999997,8021,rage,AF,B,289672,289672,287943,288956,287944,290189,289473,289473,290188,53
54,test,1,con,1,m,Wed Jan 29 2025 11:07:19 GMT-0600 (Central Standard Time),297787.1000000015,bell,1000,I,m,m,None,684,485.0,199.0,83,1,2229.8000000044703,295557.299999997,8021,bell,AF,B,291922,291922,290192,291206,290194,292422,291722,291722,292422,54
55,test,1,con,1,z,Wed Jan 29 2025 11:07:19 GMT-0600 (Central Standard Time),300002.1000000015,friend,1000,I,z,z,None,668,469.0,199.0,27,1,2210.8000000044703,297791.299999997,8021,friend,AF,B,294154,294154,292426,293438,292428,294637,293955,293955,294637,55
56,test,1,inc,1,m,Wed Jan 29 2025 11:07:19 GMT-0600 (Central Standard Time),302734.3999999985,friend,1100,I,m,m,None,1088,889.0,199.0,120,1,2728.5,300005.8999999985,8021,remote,AF,B,296470,296470,294641,295754,294642,297370,296271,296271,297369,56
57,test,1,con,1,z,Wed Jan 29 2025 11:07:19 GMT-0600 (Central Standard Time),304933.799999997,friend,900,I,z,z,None,755,540.0,215.0,26,1,2195.1999999955297,302738.6000000015,8021,friend,AF,B,299019,299019,297374,298287,297375,299569,298804,298804,299569,57
58,test,1,con,1,z,Wed Jan 29 2025 11:07:19 GMT-0600 (Central Standard Time),307033.0,rage,900,I,z,z,None,660,461.0,199.0,50,1,2095.39999999851,304937.6000000015,8021,rage,AF,B,301202,301202,299573,300486,299574,301668,301003,301003,301668,58
59,test,1,inc,1,z,Wed Jan 29 2025 11:07:19 GMT-0600 (Central Standard Time),309132.3999999985,jacket,800,I,z,z,None,765,566.0,199.0,5,1,2095.7999999970198,307036.6000000015,8021,elated,AF,B,303201,303201,301672,302485,301673,303767,303002,303002,303767,59
60,test,1,con,1,m,Wed Jan 29 2025 11:07:19 GMT-0600 (Central Standard Time),311265.19999999553,bell,900,I,m,m,None,693,478.0,215.0,82,1,2129.2999999970198,309135.8999999985,8021,bell,AF,B,305417,305417,303771,304685,303772,305900,305202,305202,305900,60
61,test,1,con,1,z,Wed Jan 29 2025 11:07:19 GMT-0600 (Central Standard Time),313331.1000000015,kind,800,I,z,z,None,725,526.0,199.0,9,1,2062.10000000149,311269.0,8021,kind,AF,B,307433,307433,305904,306718,305905,307966,307234,307234,307966,61
62,test,1,con,1,z,Wed Jan 29 2025 11:07:19 GMT-0600 (Central Standard Time),315397.0,temper,800,I,z,z,None,731,532.0,199.0,57,1,2061.89999999851,313335.1000000015,8021,temper,AF,B,309499,309499,307970,308784,307971,310032,309300,309300,310032,62
63,test,1,con,1,z,Wed Jan 29 2025 11:07:19 GMT-0600 (Central Standard Time),317396.8999999985,love,800,I,z,z,None,657,458.0,199.0,17,1,1996.2999999970198,315400.6000000015,8021,love,AF,B,311565,311565,310036,310850,310037,312032,311366,311366,312032,63
64,test,1,con,1,m,Wed Jan 29 2025 11:07:19 GMT-0600 (Central Standard Time),319679.1000000015,remote,1000,I,m,m,None,745,546.0,199.0,115,1,2278.5,317400.6000000015,8021,remote,AF,B,313765,313765,312036,313049,312037,314314,313565,313565,314314,64
65,test,1,inc,1,z,Wed Jan 29 2025 11:07:19 GMT-0600 (Central Standard Time),322078.299999997,napkin,900,I,z,z,None,955,756.0,199.0,30,1,2394.89999999851,319683.3999999985,8021,friend,AF,B,315947,315947,314318,315232,314320,316713,315748,315748,316713,65
66,test,1,con,1,m,Wed Jan 29 2025 11:07:19 GMT-0600 (Central Standard Time),324310.8999999985,window,1000,I,m,m,None,688,489.0,199.0,123,1,2228.89999999851,322082.0,8021,window,AF,B,318446,318446,316717,317731,316718,318946,318247,318247,318946,66
67,test,1,con,1,z,Wed Jan 29 2025 11:07:19 GMT-0600 (Central Standard Time),326510.5,brutal,900,I,z,z,None,763,564.0,199.0,34,1,2195.39999999851,324315.1000000015,8021,brutal,AF,B,320579,320579,318950,319863,318952,321146,320380,320380,321145,67
68,test,1,con,1,m,Wed Jan 29 2025 11:07:19 GMT-0600 (Central Standard Time),328526.3999999985,jacket,800,I,m,m,None,672,473.0,199.0,97,1,2012.3999999985099,326514.0,8021,jacket,AF,B,322678,322678,321149,321963,321150,323161,322479,322479,323161,68
69,test,1,inc,1,z,Wed Jan 29 2025 11:07:19 GMT-0600 (Central Standard Time),330775.8999999985,window,1100,I,z,z,None,603,388.0,215.0,8,1,2245.39999999851,328530.5,8021,elated,AF,B,325011,325011,323166,324279,323167,325411,324796,324796,325411,69
70,test,1,con,1,m,Wed Jan 29 2025 11:07:19 GMT-0600 (Central Standard Time),332791.799999997,film,900,I,m,m,None,570,371.0,199.0,90,1,2012.3999999985099,330779.3999999985,8021,film,AF,B,327044,327044,325414,326328,325416,327427,326845,326845,327427,70
71,test,1,con,1,m,Wed Jan 29 2025 11:07:19 GMT-0600 (Central Standard Time),335040.8999999985,step,1000,I,m,m,None,702,487.0,215.0,67,1,2245.2999999970198,332795.6000000015,8021,step,AF,B,329176,329176,327431,328444,327432,329676,328961,328961,329676,71
72,test,1,con,1,m,Wed Jan 29 2025 11:07:19 GMT-0600 (Central Standard Time),337740.1000000015,bell,1100,I,m,m,None,1057,858.0,199.0,84,1,2695.5,335044.6000000015,8021,bell,AF,B,331509,331509,329680,330793,329681,332375,331310,331310,332375,72
73,test,1,con,1,m,Wed Jan 29 2025 11:07:19 GMT-0600 (Central Standard Time),339939.5,napkin,900,I,m,m,None,749,534.0,215.0,106,1,2195.39999999851,337744.1000000015,8021,napkin,AF,B,334025,334025,332379,333293,332380,334575,333810,333810,334574,73
74,test,1,con,1,z,Wed Jan 29 2025 11:07:19 GMT-0600 (Central Standard Time),342188.69999999553,temper,900,I,z,z,None,790,590.0,200.0,58,1,2245.39999999851,339943.299999997,8021,temper,AF,B,336225,336225,334578,335522,334580,336824,336025,336025,336824,74
75,test,1,inc,1,m,Wed Jan 29 2025 11:07:19 GMT-0600 (Central Standard Time),344588.0,rage,800,I,m,m,None,1057,858.0,199.0,85,1,2395.5,342192.5,8021,bell,AF,B,338357,338357,336827,337641,336829,339223,338158,338158,339223,75
76,test,1,con,1,z,Wed Jan 29 2025 11:07:19 GMT-0600 (Central Standard Time),346570.8999999985,hate,800,I,z,z,None,634,435.0,199.0,41,1,1979.0,344591.8999999985,8021,hate,AF,B,340756,340756,339227,340040,339228,341206,340557,340557,341206,76
77,test,1,inc,1,m,Wed Jan 29 2025 11:07:19 GMT-0600 (Central Standard Time),349020.1000000015,brutal,900,I,m,m,None,999,800.0,199.0,118,1,2445.2000000029802,346574.8999999985,8021,remote,AF,B,342839,342839,341210,342123,341211,343655,342640,342640,343655,77
78,test,1,con,1,z,Wed Jan 29 2025 11:07:19 GMT-0600 (Central Standard Time),351236.0,rage,800,I,z,z,None,874,675.0,199.0,49,1,2212.3000000044703,349023.69999999553,8021,rage,AF,B,345188,345188,343659,344472,343660,345871,344989,344989,345871,78
79,test,1,inc,1,z,Wed Jan 29 2025 11:07:19 GMT-0600 (Central Standard Time),353468.5,bell,1000,I,z,z,None,690,491.0,199.0,23,1,2229.0,351239.5,8021,love,AF,B,347604,347604,345875,346888,345876,348104,347405,347405,348104,79
80,test,1,con,1,m,Wed Jan 29 2025 11:07:19 GMT-0600 (Central Standard Time),355518.0,remote,800,I,m,m,None,705,490.0,215.0,113,1,2045.6000000014901,353472.3999999985,8021,remote,AF,B,349653,349653,348107,348921,348109,350153,349438,349438,350153,80
81,test,1,inc,1,m,Wed Jan 29 2025 11:07:19 GMT-0600 (Central Standard Time),357600.8999999985,elated,800,I,m,m,None,741,528.0,213.0,109,1,2079.0,355521.8999999985,8021,napkin,AF,B,351703,351703,350157,350970,350158,352236,351488,351489,352236,81
82,test,1,inc,1,z,Wed Jan 29 2025 11:07:19 GMT-0600 (Central Standard Time),360300.1000000015,step,800,I,z,z,None,1364,1149.0,215.0,13,1,2695.4000000059605,357604.69999999553,8021,kind,AF,B,353786,353786,352240,353053,352241,354935,353570,353570,354935,82
83,test,1,con,1,m,Wed Jan 29 2025 11:07:19 GMT-0600 (Central Standard Time),362932.6000000015,window,1100,I,m,m,None,982,783.0,199.0,124,1,2629.0,360303.6000000015,8021,window,AF,B,356768,356768,354939,356052,354940,357568,356569,356569,357568,83
84,test,1,inc,1,z,Wed Jan 29 2025 11:07:19 GMT-0600 (Central Standard Time),365181.69999999553,window,1100,I,z,z,None,606,407.0,199.0,64,1,2245.0999999940395,362936.6000000015,8021,temper,AF,B,359400,359400,357572,358685,357573,359817,359201,359201,359817,84
85,test,1,inc,1,z,Wed Jan 29 2025 11:07:19 GMT-0600 (Central Standard Time),367564.0,film,1100,I,z,z,None,733,518.0,215.0,24,1,2378.10000000149,365185.8999999985,8021,love,AF,B,361666,361666,359821,360934,359822,362199,361451,361451,362199,85
86,test,1,con,1,m,Wed Jan 29 2025 11:07:19 GMT-0600 (Central Standard Time),369513.6000000015,bell,800,I,m,m,None,602,403.0,199.0,81,1,1946.0,367567.6000000015,8021,bell,AF,B,363732,363732,362203,363017,362204,364149,363533,363533,364149,86
87,test,1,inc,1,m,Wed Jan 29 2025 11:07:19 GMT-0600 (Central Standard Time),371746.19999999553,kind,900,I,m,m,None,784,569.0,215.0,70,1,2228.7999999970198,369517.3999999985,8021,step,AF,B,365798,365798,364152,365066,364154,366381,365583,365583,366381,87
88,test,1,inc,1,m,Wed Jan 29 2025 11:07:19 GMT-0600 (Central Standard Time),374278.799999997,brutal,900,I,m,m,None,1096,897.0,199.0,126,1,2528.89999999851,371749.8999999985,8021,window,AF,B,368014,368014,366385,367299,366386,368914,367815,367815,368914,88
89,test,1,inc,1,z,Wed Jan 29 2025 11:07:19 GMT-0600 (Central Standard Time),376428.1000000015,remote,1000,I,z,z,None,599,400.0,199.0,31,1,2145.7000000029802,374282.3999999985,8021,friend,AF,B,370647,370647,368917,369931,368919,371063,370448,370448,371063,89
90,test,1,inc,1,m,Wed Jan 29 2025 11:07:19 GMT-0600 (Central Standard Time),378727.299999997,friend,1100,I,m,m,None,662,463.0,199.0,112,1,2295.5,376431.799999997,8021,napkin,AF,B,372896,372896,371067,372181,371068,373362,372697,372697,373362,90
91,test,1,inc,1,z,Wed Jan 29 2025 11:07:19 GMT-0600 (Central Standard Time),381759.69999999553,window,1100,I,z,z,None,1387,1188.0,199.0,32,1,3028.5,378731.19999999553,8021,friend,AF,B,375195,375195,373366,374480,373368,376395,374996,374996,376395,91
92,test,1,con,1,z,Wed Jan 29 2025 11:07:19 GMT-0600 (Central Standard Time),383576.0,friend,800,I,z,z,None,478,279.0,199.0,25,1,1812.2000000029802,381763.799999997,8021,friend,AF,B,377928,377928,376399,377212,376400,378211,377729,377729,378211,92
93,test,1,inc,1,z,Wed Jan 29 2025 11:07:19 GMT-0600 (Central Standard Time),385674.8999999985,napkin,900,I,z,z,None,658,459.0,199.0,6,1,2095.39999999851,383579.5,8021,elated,AF,B,379844,379844,378215,379128,378216,380310,379645,379645,380310,93
94,test,1,con,1,z,Wed Jan 29 2025 11:07:19 GMT-0600 (Central Standard Time),387975.0,rage,1100,I,z,z,None,666,467.0,199.0,52,1,2296.2000000029802,385678.799999997,8021,rage,AF,B,382143,382143,380314,381428,380315,382610,381944,381944,382610,94
95,test,1,inc,1,m,Wed Jan 29 2025 11:07:19 GMT-0600 (Central Standard Time),390024.0,brutal,900,I,m,m,None,611,396.0,215.0,102,1,2044.1000000014901,387979.8999999985,8021,jacket,AF,B,384259,384259,382615,383527,382616,384659,384044,384044,384659,95
96,test,1,inc,1,z,Wed Jan 29 2025 11:07:19 GMT-0600 (Central Standard Time),392206.299999997,bell,1000,I,z,z,None,638,439.0,199.0,15,1,2178.7999999970198,390027.5,8021,kind,AF,B,386392,386392,384663,385676,384664,386841,386193,386193,386841,96
97,test,1,con,1,m,Wed Jan 29 2025 11:07:19 GMT-0600 (Central Standard Time),394672.1000000015,step,1100,I,m,m,None,827,628.0,199.0,68,1,2462.10000000149,392210.0,8021,step,AF,B,388675,388675,386845,387959,386847,389307,388476,388476,389307,97
98,test,1,inc,1,z,Wed Jan 29 2025 11:07:19 GMT-0600 (Central Standard Time),396755.1000000015,jacket,800,I,z,z,None,733,534.0,199.0,29,1,2078.9000000059605,394676.19999999553,8021,friend,AF,B,390841,390841,389311,390125,389313,391390,390641,390641,391390,98
99,test,1,inc,1,m,Wed Jan 29 2025 11:07:19 GMT-0600 (Central Standard Time),399054.299999997,elated,800,I,m,m,None,963,764.0,199.0,125,1,2295.60000000149,396758.69999999553,8021,window,AF,B,392923,392923,391394,392208,391395,393689,392724,392724,393689,99
100,test,1,inc,1,z,Wed Jan 29 2025 11:07:19 GMT-0600 (Central Standard Time),401370.299999997,window,1100,I,z,z,None,667,468.0,199.0,40,1,2312.2999999970198,399058.0,8021,brutal,AF,B,395523,395523,393693,394807,393694,396005,395323,395323,396005,100
101,test,1,inc,1,m,Wed Jan 29 2025 11:07:19 GMT-0600 (Central Standard Time),403319.8999999985,elated,800,I,m,m,None,603,388.0,215.0,117,1,1946.0,401373.8999999985,8021,remote,AF,B,397555,397555,396009,396823,396010,397955,397340,397340,397955,101
102,test,1,inc,1,z,Wed Jan 29 2025 11:07:19 GMT-0600 (Central Standard Time),405968.799999997,film,1100,I,z,z,None,1010,795.0,215.0,16,1,2645.10000000149,403323.69999999553,8021,kind,AF,B,399804,399804,397959,399072,397960,400604,399589,399589,400604,102
103,test,1,con,1,m,Wed Jan 29 2025 11:07:19 GMT-0600 (Central Standard Time),408251.3999999985,step,800,I,m,m,None,941,742.0,199.0,65,1,2278.89999999851,405972.5,8021,step,AF,B,402137,402137,400608,401422,400609,402886,401938,401938,402886,103
104,test,1,con,1,m,Wed Jan 29 2025 11:07:19 GMT-0600 (Central Standard Time),410984.1000000015,jacket,1000,I,m,m,None,1194,979.0,215.0,99,1,2728.8000000044703,408255.299999997,8021,jacket,AF,B,404636,404636,402890,403904,402892,405619,404421,404421,405619,104
105,test,1,inc,1,z,Wed Jan 29 2025 11:07:19 GMT-0600 (Central Standard Time),413199.69999999553,remote,1000,I,z,z,None,678,479.0,199.0,39,1,2211.7999999970198,410987.8999999985,8021,brutal,AF,B,407352,407352,405623,406636,405624,407835,407153,407153,407835,105
106,test,1,inc,1,z,Wed Jan 29 2025 11:07:19 GMT-0600 (Central Standard Time),415282.69999999553,rock,900,I,z,z,None,634,435.0,199.0,14,1,2079.2999999970198,413203.3999999985,8021,kind,AF,B,409468,409468,407838,408752,407840,409918,409269,409269,409918,106
107,test,1,inc,1,z,Wed Jan 29 2025 11:07:19 GMT-0600 (Central Standard Time),417265.299999997,rock,900,I,z,z,None,534,319.0,215.0,46,1,1978.6000000014901,415286.69999999553,8021,hate,AF,B,411568,411568,409922,410835,409923,411900,411352,411352,411900,107
108,test,1,con,1,z,Wed Jan 29 2025 11:07:19 GMT-0600 (Central Standard Time),419448.0,elated,1000,I,z,z,None,637,437.0,200.0,3,1,2179.0,417269.0,8021,elated,AF,B,413634,413634,411904,412918,411905,414083,413434,413434,414083,108
109,test,1,inc,1,m,Wed Jan 29 2025 11:07:19 GMT-0600 (Central Standard Time),421480.799999997,elated,800,I,m,m,None,686,487.0,199.0,101,1,2028.8999999985099,419451.8999999985,8021,jacket,AF,B,415616,415616,414087,414901,414088,416116,415417,415417,416116,109
110,test,1,inc,1,z,Wed Jan 29 2025 11:07:19 GMT-0600 (Central Standard Time),424013.299999997,bell,1000,I,z,z,None,989,789.0,200.0,47,1,2528.7999999970198,421484.5,8021,hate,AF,B,417850,417850,416120,417133,416121,418648,417650,417650,418648,110
111,test,1,inc,1,m,Wed Jan 29 2025 11:07:19 GMT-0600 (Central Standard Time),426245.8999999985,love,1000,I,m,m,None,696,481.0,215.0,79,1,2228.2000000029802,424017.69999999553,8021,rock,AF,B,420398,420398,418653,419665,418654,420881,420182,420183,420881,111
112,test,1,con,1,z,Wed Jan 29 2025 11:07:19 GMT-0600 (Central Standard Time),428461.799999997,brutal,1000,I,z,z,None,672,473.0,199.0,35,1,2212.10000000149,426249.69999999553,8021,brutal,AF,B,422614,422614,420885,421898,420886,423097,422415,422415,423097,112
113,test,1,con,1,m,Wed Jan 29 2025 11:07:19 GMT-0600 (Central Standard Time),431260.8999999985,napkin,1000,I,m,m,None,1256,1057.0,199.0,107,1,2795.2999999970198,428465.6000000015,8021,napkin,AF,B,424830,424830,423101,424114,423102,425896,424631,424631,425896,113
114,test,1,inc,1,m,Wed Jan 29 2025 11:07:19 GMT-0600 (Central Standard Time),433610.1000000015,love,1000,I,m,m,None,809,610.0,199.0,71,1,2345.60000000149,431264.5,8021,step,AF,B,427629,427629,425900,426913,425901,428245,427430,427430,428245,114
115,test,1,inc,1,z,Wed Jan 29 2025 11:07:19 GMT-0600 (Central Standard Time),436076.0,rock,900,I,z,z,None,1024,825.0,199.0,54,1,2462.0,433614.0,8021,rage,AF,B,429878,429878,428249,429162,428250,430711,429679,429679,430711,115
116,test,1,inc,1,z,Wed Jan 29 2025 11:07:19 GMT-0600 (Central Standard Time),438409.1000000015,film,1100,I,z,z,None,694,495.0,199.0,56,1,2329.2000000029802,436079.8999999985,8021,rage,AF,B,432544,432544,430715,431830,430716,433044,432345,432345,433044,116
117,test,1,inc,1,z,Wed Jan 29 2025 11:07:19 GMT-0600 (Central Standard Time),440391.299999997,jacket,800,I,z,z,None,645,430.0,215.0,61,1,1978.1999999955297,438413.1000000015,8021,temper,AF,B,434593,434593,433048,433861,433049,435026,434378,434378,435026,117
118,test,1,con,1,z,Wed Jan 29 2025 11:07:19 GMT-0600 (Central Standard Time),442724.0,hate,1000,I,z,z,None,782,567.0,215.0,43,1,2329.0,440395.0,8021,hate,AF,B,436776,436776,435030,436044,435031,437359,436561,436561,437359,118
119,test,1,con,1,m,Wed Jan 29 2025 11:07:19 GMT-0600 (Central Standard Time),445323.19999999553,napkin,1100,I,m,m,None,958,759.0,199.0,108,1,2595.5,442727.69999999553,8021,napkin,AF,B,439192,439192,437363,438476,437364,439958,438993,438993,439958,119
120,test,1,con,1,z,Wed Jan 29 2025 11:07:19 GMT-0600 (Central Standard Time),447489.1000000015,love,1000,I,z,z,None,627,428.0,199.0,19,1,2162.10000000149,445327.0,8021,love,AF,B,441691,441691,439962,440976,439963,442124,441492,441492,442124,120
121,test,1,inc,1,z,Wed Jan 29 2025 11:07:19 GMT-0600 (Central Standard Time),449705.5,remote,1000,I,z,z,None,669,470.0,199.0,7,1,2212.60000000149,447492.8999999985,8021,elated,AF,B,443857,443857,442128,443141,442129,444341,443658,443658,444340,121
122,test,1,con,1,m,Wed Jan 29 2025 11:07:19 GMT-0600 (Central Standard Time),451837.8999999985,film,800,I,m,m,None,797,598.0,199.0,89,1,2128.89999999851,449709.0,8021,film,AF,B,445873,445873,444344,445158,444345,446473,445674,445674,446473,122
123,test,1,con,1,m,Wed Jan 29 2025 11:07:19 GMT-0600 (Central Standard Time),454187.1000000015,rock,1100,I,m,m,None,700,485.0,215.0,76,1,2345.4000000059605,451841.69999999553,8021,rock,AF,B,448322,448322,446477,447590,446478,448822,448107,448107,448822,123
124,test,1,con,1,m,Wed Jan 29 2025 11:07:19 GMT-0600 (Central Standard Time),456486.5,remote,1100,I,m,m,None,663,464.0,199.0,116,1,2295.5,454191.0,8021,remote,AF,B,450655,450655,448826,449939,448827,451122,450456,450456,451121,124
125,test,1,inc,1,z,Wed Jan 29 2025 11:07:19 GMT-0600 (Central Standard Time),459102.5,film,1100,I,z,z,None,971,676.0,295.0,48,1,2612.39999999851,456490.1000000015,8021,hate,AF,B,453051,453051,451125,452238,451126,453738,452756,452756,453737,125
126,test,1,con,1,m,Wed Jan 29 2025 11:07:19 GMT-0600 (Central Standard Time),461401.3999999985,step,900,I,m,m,None,851,652.0,199.0,66,1,2295.2000000029802,459106.19999999553,8021,step,AF,B,455371,455371,453741,454655,453743,456036,455171,455171,456036,126
127,test,1,inc,1,z,Wed Jan 29 2025 11:07:19 GMT-0600 (Central Standard Time),464050.799999997,napkin,900,I,z,z,None,1200,1001.0,199.0,62,1,2645.60000000149,461405.19999999553,8021,temper,AF,B,457670,457670,456040,456954,456041,458686,457470,457470,458686,127
128,test,1,con,1,z,Wed Jan 29 2025 11:07:19 GMT-0600 (Central Standard Time),466200.0,friend,1100,I,z,z,None,502,303.0,199.0,28,1,2145.60000000149,464054.3999999985,8021,friend,AF,B,460520,460520,458689,459803,458691,460835,460320,460320,460835,128
