block_c,block_dur,condition,countdown,datetime,endtime,list,multichar_response,project,response,response_time,session_number,start_end,starttime,subject_id,task,task_vers,trial
,,,,Thu Oct 24 2024 15:36:52 GMT-0500 (Central Daylight Time),,,,O,space,738,1,,,7030,WL,B,
prac,,0,,Thu Oct 24 2024 15:36:52 GMT-0500 (Central Daylight Time),,NA,b,O,b,6603,1,,,7030,WL,B,1.0
prac,,0,,Thu Oct 24 2024 15:36:52 GMT-0500 (Central Daylight Time),,NA,bo,O,o,1132,1,,,7030,WL,B,1.0
prac,,0,,Thu Oct 24 2024 15:36:52 GMT-0500 (Central Daylight Time),,NA,boo,O,o,144,1,,,7030,WL,B,1.0
prac,,0,,Thu Oct 24 2024 15:36:52 GMT-0500 (Central Daylight Time),,NA,boos,O,s,152,1,,,7030,WL,B,1.0
prac,,0,,Thu Oct 24 2024 15:36:52 GMT-0500 (Central Daylight Time),,NA,boost,O,t,234,1,,,7030,WL,B,1.0
prac,,0,,Thu Oct 24 2024 15:36:52 GMT-0500 (Central Daylight Time),,NA,boostenter,O,enter,1413,1,,,7030,WL,B,1.0
1,3.7829999923706055,learn,56217.000007629395,Thu Oct 24 2024 15:36:52 GMT-0500 (Central Daylight Time),163671.89999997616,A,s,O,s,3739,1,3781.2999999523163,159890.60000002384,7030,WL,B,1.0
1,4.049000024795532,learn,55950.99997520447,Thu Oct 24 2024 15:36:52 GMT-0500 (Central Daylight Time),163938.5,A,st,O,t,231,1,4047.899999976158,159890.60000002384,7030,WL,B,1.0
1,4.366000175476074,learn,55633.999824523926,Thu Oct 24 2024 15:36:52 GMT-0500 (Central Daylight Time),164254.60000002384,A,str,O,r,277,1,4364.0,159890.60000002384,7030,WL,B,1.0
1,4.499000072479248,learn,55500.99992752075,Thu Oct 24 2024 15:36:52 GMT-0500 (Central Daylight Time),164388.10000002384,A,stre,O,e,91,1,4497.5,159890.60000002384,7030,WL,B,1.0
1,5.365000009536743,learn,54634.99999046326,Thu Oct 24 2024 15:36:52 GMT-0500 (Central Daylight Time),165254.30000001192,A,stree,O,e,837,1,5363.699999988079,159890.60000002384,7030,WL,B,1.0
1,5.598999977111816,learn,54401.00002288818,Thu Oct 24 2024 15:36:52 GMT-0500 (Central Daylight Time),165487.60000002384,A,street,O,t,194,1,5597.0,159890.60000002384,7030,WL,B,1.0
1,9.246999979019165,learn,50753.000020980835,Thu Oct 24 2024 15:36:52 GMT-0500 (Central Daylight Time),169135.39999997616,A,streetenter,O,enter,3617,1,9244.799999952316,159890.60000002384,7030,WL,B,1.0
1,10.397000074386597,learn,49602.9999256134,Thu Oct 24 2024 15:36:52 GMT-0500 (Central Daylight Time),170285.69999998808,A,c,O,c,1141,1,1149.699999988079,169136.0,7030,WL,B,2.0
1,10.564000129699707,learn,49435.99987030029,Thu Oct 24 2024 15:36:52 GMT-0500 (Central Daylight Time),170452.60000002384,A,ca,O,a,123,1,1316.6000000238419,169136.0,7030,WL,B,2.0
1,10.748000144958496,learn,49251.999855041504,Thu Oct 24 2024 15:36:52 GMT-0500 (Central Daylight Time),170636.10000002384,A,cab,O,b,144,1,1500.1000000238419,169136.0,7030,WL,B,2.0
1,11.014000177383423,learn,48985.99982261658,Thu Oct 24 2024 15:36:52 GMT-0500 (Central Daylight Time),170902.5,A,cabi,O,i,226,1,1766.5,169136.0,7030,WL,B,2.0
1,11.230000019073486,learn,48769.999980926514,Thu Oct 24 2024 15:36:52 GMT-0500 (Central Daylight Time),171119.0,A,cabin,O,n,182,1,1983.0,169136.0,7030,WL,B,2.0
1,11.580000162124634,learn,48419.999837875366,Thu Oct 24 2024 15:36:52 GMT-0500 (Central Daylight Time),171468.0,A,cabinenter,O,enter,314,1,2332.0,169136.0,7030,WL,B,2.0
1,12.330000162124634,learn,47669.999837875366,Thu Oct 24 2024 15:36:52 GMT-0500 (Central Daylight Time),172218.5,A,d,O,d,737,1,750.1000000238419,171468.39999997616,7030,WL,B,3.0
1,12.480000019073486,learn,47519.999980926514,Thu Oct 24 2024 15:36:52 GMT-0500 (Central Daylight Time),172368.39999997616,A,do,O,o,121,1,900.0,171468.39999997616,7030,WL,B,3.0
1,12.78000020980835,learn,47219.99979019165,Thu Oct 24 2024 15:36:52 GMT-0500 (Central Daylight Time),172668.39999997616,A,doo,O,o,259,1,1200.0,171468.39999997616,7030,WL,B,3.0
1,13.11300015449524,learn,46886.99984550476,Thu Oct 24 2024 15:36:52 GMT-0500 (Central Daylight Time),173001.89999997616,A,door,O,r,295,1,1533.5,171468.39999997616,7030,WL,B,3.0
1,13.496000051498413,learn,46503.99994850159,Thu Oct 24 2024 15:36:52 GMT-0500 (Central Daylight Time),173384.0,A,doorenter,O,enter,355,1,1915.6000000238419,171468.39999997616,7030,WL,B,3.0
1,15.296000003814697,learn,44703.9999961853,Thu Oct 24 2024 15:36:52 GMT-0500 (Central Daylight Time),175184.39999997616,A,g,O,g,1782,1,1800.0999999642372,173384.30000001192,7030,WL,B,4.0
1,15.513000011444092,learn,44486.99998855591,Thu Oct 24 2024 15:36:52 GMT-0500 (Central Daylight Time),175401.10000002384,A,gr,O,r,177,1,2016.800000011921,173384.30000001192,7030,WL,B,4.0
1,15.67900013923645,learn,44320.99986076355,Thu Oct 24 2024 15:36:52 GMT-0500 (Central Daylight Time),175567.30000001192,A,gra,O,a,139,1,2183.0,173384.30000001192,7030,WL,B,4.0
1,15.962000131607056,learn,44037.999868392944,Thu Oct 24 2024 15:36:52 GMT-0500 (Central Daylight Time),175850.80000001192,A,gras,O,s,243,1,2466.5,173384.30000001192,7030,WL,B,4.0
1,16.129000186920166,learn,43870.999813079834,Thu Oct 24 2024 15:36:52 GMT-0500 (Central Daylight Time),176017.5,A,grass,O,s,139,1,2633.199999988079,173384.30000001192,7030,WL,B,4.0
1,17.195000171661377,learn,42804.99982833862,Thu Oct 24 2024 15:36:52 GMT-0500 (Central Daylight Time),177083.10000002384,A,grassenter,O,enter,1040,1,3698.800000011921,173384.30000001192,7030,WL,B,4.0
1,18.144999980926514,learn,41855.000019073486,Thu Oct 24 2024 15:36:52 GMT-0500 (Central Daylight Time),178033.19999998808,A,w,O,w,938,1,949.8999999761581,177083.30000001192,7030,WL,B,5.0
1,18.278000116348267,learn,41721.99988365173,Thu Oct 24 2024 15:36:52 GMT-0500 (Central Daylight Time),178166.69999998808,A,wi,O,i,97,1,1083.3999999761581,177083.30000001192,7030,WL,B,5.0
1,18.478000164031982,learn,41521.99983596802,Thu Oct 24 2024 15:36:52 GMT-0500 (Central Daylight Time),178366.39999997616,A,win,O,n,170,1,1283.0999999642372,177083.30000001192,7030,WL,B,5.0
1,18.611000061035156,learn,41388.999938964844,Thu Oct 24 2024 15:36:52 GMT-0500 (Central Daylight Time),178499.80000001192,A,wind,O,d,91,1,1416.5,177083.30000001192,7030,WL,B,5.0
1,18.811000108718872,learn,41188.99989128113,Thu Oct 24 2024 15:36:52 GMT-0500 (Central Daylight Time),178699.80000001192,A,windo,O,o,166,1,1616.5,177083.30000001192,7030,WL,B,5.0
1,19.094000101089478,learn,40905.99989891052,Thu Oct 24 2024 15:36:52 GMT-0500 (Central Daylight Time),178982.89999997616,A,window,O,w,253,1,1899.5999999642372,177083.30000001192,7030,WL,B,5.0
1,19.960000038146973,learn,40039.99996185303,Thu Oct 24 2024 15:36:52 GMT-0500 (Central Daylight Time),179848.5,A,windowenter,O,enter,836,1,2765.199999988079,177083.30000001192,7030,WL,B,5.0
1,20.74400019645691,learn,39255.99980354309,Thu Oct 24 2024 15:36:52 GMT-0500 (Central Daylight Time),180632.5,A,w,O,w,773,1,783.6999999880791,179848.80000001192,7030,WL,B,6.0
1,20.877000093460083,learn,39122.99990653992,Thu Oct 24 2024 15:36:52 GMT-0500 (Central Daylight Time),180765.5,A,wi,O,i,106,1,916.6999999880791,179848.80000001192,7030,WL,B,6.0
1,21.0770001411438,learn,38922.9998588562,Thu Oct 24 2024 15:36:52 GMT-0500 (Central Daylight Time),180965.39999997616,A,wif,O,f,172,1,1116.5999999642372,179848.80000001192,7030,WL,B,6.0
1,21.277000188827515,learn,38722.999811172485,Thu Oct 24 2024 15:36:52 GMT-0500 (Central Daylight Time),181165.69999998808,A,wife,O,e,165,1,1316.8999999761581,179848.80000001192,7030,WL,B,6.0
1,21.443000078201294,learn,38556.999921798706,Thu Oct 24 2024 15:36:52 GMT-0500 (Central Daylight Time),181331.30000001192,A,wifeenter,O,enter,139,1,1482.5,179848.80000001192,7030,WL,B,6.0
1,22.7260000705719,learn,37273.9999294281,Thu Oct 24 2024 15:36:52 GMT-0500 (Central Daylight Time),182614.89999997616,A,p,O,p,1275,1,1283.199999988079,181331.69999998808,7030,WL,B,7.0
1,23.06000018119812,learn,36939.99981880188,Thu Oct 24 2024 15:36:52 GMT-0500 (Central Daylight Time),182948.39999997616,A,pu,O,u,302,1,1616.699999988079,181331.69999998808,7030,WL,B,7.0
1,23.24400019645691,learn,36755.99980354309,Thu Oct 24 2024 15:36:52 GMT-0500 (Central Daylight Time),183132.10000002384,A,pup,O,p,142,1,1800.4000000357628,181331.69999998808,7030,WL,B,7.0
1,23.993000030517578,learn,36006.99996948242,Thu Oct 24 2024 15:36:52 GMT-0500 (Central Daylight Time),183881.69999998808,A,pupi,O,i,710,1,2550.0,181331.69999998808,7030,WL,B,7.0
1,24.12600016593933,learn,35873.99983406067,Thu Oct 24 2024 15:36:52 GMT-0500 (Central Daylight Time),184014.80000001192,A,pupil,O,l,97,1,2683.100000023842,181331.69999998808,7030,WL,B,7.0
1,24.975000143051147,learn,35024.99985694885,Thu Oct 24 2024 15:36:52 GMT-0500 (Central Daylight Time),184863.60000002384,A,pupilenter,O,enter,809,1,3531.900000035763,181331.69999998808,7030,WL,B,7.0
1,25.759000062942505,learn,34240.999937057495,Thu Oct 24 2024 15:36:52 GMT-0500 (Central Daylight Time),185647.5,A,f,O,f,774,1,783.6000000238419,184863.89999997616,7030,WL,B,8.0
1,25.875,learn,34125.0,Thu Oct 24 2024 15:36:52 GMT-0500 (Central Daylight Time),185763.60000002384,A,fi,O,i,85,1,899.7000000476837,184863.89999997616,7030,WL,B,8.0
1,26.02500009536743,learn,33974.99990463257,Thu Oct 24 2024 15:36:52 GMT-0500 (Central Daylight Time),185913.89999997616,A,fir,O,r,130,1,1050.0,184863.89999997616,7030,WL,B,8.0
1,26.159000158309937,learn,33840.99984169006,Thu Oct 24 2024 15:36:52 GMT-0500 (Central Daylight Time),186047.39999997616,A,fire,O,e,98,1,1183.5,184863.89999997616,7030,WL,B,8.0
1,26.892000198364258,learn,33107.99980163574,Thu Oct 24 2024 15:36:52 GMT-0500 (Central Daylight Time),186780.69999998808,A,fireenter,O,enter,707,1,1916.800000011921,184863.89999997616,7030,WL,B,8.0
1,27.575000047683716,learn,32424.999952316284,Thu Oct 24 2024 15:36:52 GMT-0500 (Central Daylight Time),187463.60000002384,A,c,O,c,673,1,682.6000000238419,186781.0,7030,WL,B,9.0
1,27.742000102996826,learn,32257.999897003174,Thu Oct 24 2024 15:36:52 GMT-0500 (Central Daylight Time),187630.10000002384,A,cl,O,l,132,1,849.1000000238419,186781.0,7030,WL,B,9.0
1,27.95800018310547,learn,32041.99981689453,Thu Oct 24 2024 15:36:52 GMT-0500 (Central Daylight Time),187846.80000001192,A,clo,O,o,184,1,1065.800000011921,186781.0,7030,WL,B,9.0
1,28.109000205993652,learn,31890.999794006348,Thu Oct 24 2024 15:36:52 GMT-0500 (Central Daylight Time),187997.30000001192,A,cloc,O,c,125,1,1216.300000011921,186781.0,7030,WL,B,9.0
1,28.225000143051147,learn,31774.999856948853,Thu Oct 24 2024 15:36:52 GMT-0500 (Central Daylight Time),188113.39999997616,A,clock,O,k,85,1,1332.3999999761581,186781.0,7030,WL,B,9.0
1,28.957000017166138,learn,31042.999982833862,Thu Oct 24 2024 15:36:52 GMT-0500 (Central Daylight Time),188845.60000002384,A,clockenter,O,enter,705,1,2064.600000023842,186781.0,7030,WL,B,9.0
1,35.105000019073486,learn,24894.999980926514,Thu Oct 24 2024 15:36:52 GMT-0500 (Central Daylight Time),194993.39999997616,A,p,O,p,6128,1,6147.599999964237,188845.80000001192,7030,WL,B,10.0
1,35.32200002670288,learn,24677.99997329712,Thu Oct 24 2024 15:36:52 GMT-0500 (Central Daylight Time),195210.69999998808,A,pi,O,i,193,1,6364.899999976158,188845.80000001192,7030,WL,B,10.0
1,35.555999994277954,learn,24444.000005722046,Thu Oct 24 2024 15:36:52 GMT-0500 (Central Daylight Time),195444.19999998808,A,pip,O,p,192,1,6598.399999976158,188845.80000001192,7030,WL,B,10.0
1,36.039000034332275,learn,23960.999965667725,Thu Oct 24 2024 15:36:52 GMT-0500 (Central Daylight Time),195927.60000002384,A,pipe,O,e,447,1,7081.800000011921,188845.80000001192,7030,WL,B,10.0
1,36.22100019454956,learn,23778.99980545044,Thu Oct 24 2024 15:36:52 GMT-0500 (Central Daylight Time),196109.89999997616,A,pipeenter,O,enter,155,1,7264.099999964237,188845.80000001192,7030,WL,B,10.0
1,39.87100005149841,learn,20128.999948501587,Thu Oct 24 2024 15:36:52 GMT-0500 (Central Daylight Time),199759.60000002384,A,a,O,a,3640,1,3649.400000035763,196110.19999998808,7030,WL,B,11.0
1,40.05400013923645,learn,19945.99986076355,Thu Oct 24 2024 15:36:52 GMT-0500 (Central Daylight Time),199942.89999997616,A,ar,O,r,148,1,3832.699999988079,196110.19999998808,7030,WL,B,11.0
1,40.269999980926514,learn,19730.000019073486,Thu Oct 24 2024 15:36:52 GMT-0500 (Central Daylight Time),200158.69999998808,A,arm,O,m,179,1,4048.5,196110.19999998808,7030,WL,B,11.0
1,41.90300011634827,learn,18096.999883651733,Thu Oct 24 2024 15:36:52 GMT-0500 (Central Daylight Time),201791.39999997616,A,armenter,O,enter,1614,1,5681.199999988079,196110.19999998808,7030,WL,B,11.0
1,54.41600012779236,learn,5583.999872207642,Thu Oct 24 2024 15:36:52 GMT-0500 (Central Daylight Time),214304.69999998808,A,l,O,l,12494,1,12513.099999964237,201791.60000002384,7030,WL,B,12.0
1,54.58300018310547,learn,5416.999816894531,Thu Oct 24 2024 15:36:52 GMT-0500 (Central Daylight Time),214471.39999997616,A,la,O,a,138,1,12679.799999952316,201791.60000002384,7030,WL,B,12.0
1,54.866000175476074,learn,5133.999824523926,Thu Oct 24 2024 15:36:52 GMT-0500 (Central Daylight Time),214754.69999998808,A,lak,O,k,243,1,12963.099999964237,201791.60000002384,7030,WL,B,12.0
1,55.06599998474121,learn,4934.000015258789,Thu Oct 24 2024 15:36:52 GMT-0500 (Central Daylight Time),214954.39999997616,A,lake,O,e,169,1,13162.799999952316,201791.60000002384,7030,WL,B,12.0
1,55.71500015258789,learn,4284.999847412109,Thu Oct 24 2024 15:36:52 GMT-0500 (Central Daylight Time),215603.39999997616,A,lakeenter,O,enter,617,1,13811.799999952316,201791.60000002384,7030,WL,B,12.0
1,60.015000104904175,learn,-15.000104904174805,Thu Oct 24 2024 15:36:52 GMT-0500 (Central Daylight Time),219903.30000001192,A,None,O,None,4294,1,4299.600000023842,215603.69999998808,7030,WL,B,13.0
2,2.683000087738037,learn,57316.99991226196,Thu Oct 24 2024 15:36:52 GMT-0500 (Central Daylight Time),291662.60000002384,A,f,O,f,2649,1,2682.0,288980.60000002384,7030,WL,B,1.0
2,3.7829999923706055,learn,56217.000007629395,Thu Oct 24 2024 15:36:52 GMT-0500 (Central Daylight Time),292762.39999997616,A,fi,O,i,1065,1,3781.7999999523163,288980.60000002384,7030,WL,B,1.0
2,3.883000135421753,learn,56116.99986457825,Thu Oct 24 2024 15:36:52 GMT-0500 (Central Daylight Time),292862.3000000119,A,fir,O,r,65,1,3881.699999988079,288980.60000002384,7030,WL,B,1.0
2,3.949000120162964,learn,56050.999879837036,Thu Oct 24 2024 15:36:52 GMT-0500 (Central Daylight Time),292928.10000002384,A,fire,O,e,36,1,3947.5,288980.60000002384,7030,WL,B,1.0
2,4.13100004196167,learn,55868.99995803833,Thu Oct 24 2024 15:36:52 GMT-0500 (Central Daylight Time),293111.10000002384,A,fireenter,O,enter,167,1,4130.5,288980.60000002384,7030,WL,B,1.0
2,5.065000057220459,learn,54934.99994277954,Thu Oct 24 2024 15:36:52 GMT-0500 (Central Daylight Time),294044.6999999881,A,c,O,c,927,1,933.3999999761581,293111.3000000119,7030,WL,B,2.0
2,5.232000112533569,learn,54767.99988746643,Thu Oct 24 2024 15:36:52 GMT-0500 (Central Daylight Time),294211.8000000119,A,ca,O,a,125,1,1100.5,293111.3000000119,7030,WL,B,2.0
2,5.7820000648498535,learn,54217.99993515015,Thu Oct 24 2024 15:36:52 GMT-0500 (Central Daylight Time),294761.60000002384,A,cai,O,i,518,1,1650.300000011921,293111.3000000119,7030,WL,B,2.0
2,5.999000072479248,learn,54000.99992752075,Thu Oct 24 2024 15:36:52 GMT-0500 (Central Daylight Time),294978.1999999881,A,cain,O,n,178,1,1866.8999999761581,293111.3000000119,7030,WL,B,2.0
2,6.348999977111816,learn,53651.00002288818,Thu Oct 24 2024 15:36:52 GMT-0500 (Central Daylight Time),295328.1999999881,A,cai,O,backspace,325,1,2216.899999976158,293111.3000000119,7030,WL,B,2.0
2,6.515000104904175,learn,53484.999895095825,Thu Oct 24 2024 15:36:52 GMT-0500 (Central Daylight Time),295494.8000000119,A,ca,O,backspace,130,1,2383.5,293111.3000000119,7030,WL,B,2.0
2,7.198000192642212,learn,52801.99980735779,Thu Oct 24 2024 15:36:52 GMT-0500 (Central Daylight Time),296177.8000000119,A,cab,O,b,646,1,3066.5,293111.3000000119,7030,WL,B,2.0
2,7.430999994277954,learn,52569.000005722046,Thu Oct 24 2024 15:36:52 GMT-0500 (Central Daylight Time),296411.10000002384,A,cabi,O,i,195,1,3299.800000011921,293111.3000000119,7030,WL,B,2.0
2,7.648000001907349,learn,52351.99999809265,Thu Oct 24 2024 15:36:52 GMT-0500 (Central Daylight Time),296627.8000000119,A,cabin,O,n,183,1,3516.5,293111.3000000119,7030,WL,B,2.0
2,8.297000169754028,learn,51702.99983024597,Thu Oct 24 2024 15:36:52 GMT-0500 (Central Daylight Time),297276.60000002384,A,cabinenter,O,enter,615,1,4165.300000011921,293111.3000000119,7030,WL,B,2.0
2,9.414000034332275,learn,50585.999965667725,Thu Oct 24 2024 15:36:52 GMT-0500 (Central Daylight Time),298393.8000000119,A,d,O,d,1097,1,1116.9000000357628,297276.89999997616,7030,WL,B,3.0
2,9.581000089645386,learn,50418.999910354614,Thu Oct 24 2024 15:36:52 GMT-0500 (Central Daylight Time),298560.3000000119,A,do,O,o,130,1,1283.4000000357628,297276.89999997616,7030,WL,B,3.0
2,9.746999979019165,learn,50253.000020980835,Thu Oct 24 2024 15:36:52 GMT-0500 (Central Daylight Time),298727.0,A,doo,O,o,139,1,1450.1000000238419,297276.89999997616,7030,WL,B,3.0
2,9.88100004196167,learn,50118.99995803833,Thu Oct 24 2024 15:36:52 GMT-0500 (Central Daylight Time),298860.39999997616,A,door,O,r,93,1,1583.5,297276.89999997616,7030,WL,B,3.0
2,10.263000011444092,learn,49736.99998855591,Thu Oct 24 2024 15:36:52 GMT-0500 (Central Daylight Time),299242.60000002384,A,doorenter,O,enter,347,1,1965.7000000476837,297276.89999997616,7030,WL,B,3.0
2,11.330000162124634,learn,48669.999837875366,Thu Oct 24 2024 15:36:52 GMT-0500 (Central Daylight Time),300309.5,A,p,O,p,1059,1,1066.6000000238419,299242.89999997616,7030,WL,B,4.0
2,11.580000162124634,learn,48419.999837875366,Thu Oct 24 2024 15:36:52 GMT-0500 (Central Daylight Time),300559.60000002384,A,pi,O,i,214,1,1316.7000000476837,299242.89999997616,7030,WL,B,4.0
2,11.730000019073486,learn,48269.999980926514,Thu Oct 24 2024 15:36:52 GMT-0500 (Central Daylight Time),300709.3000000119,A,pip,O,p,124,1,1466.4000000357628,299242.89999997616,7030,WL,B,4.0
2,11.996999979019165,learn,48003.000020980835,Thu Oct 24 2024 15:36:52 GMT-0500 (Central Daylight Time),300976.1999999881,A,pipe,O,e,229,1,1733.300000011921,299242.89999997616,7030,WL,B,4.0
2,12.296000003814697,learn,47703.9999961853,Thu Oct 24 2024 15:36:52 GMT-0500 (Central Daylight Time),301275.1999999881,A,pipeenter,O,enter,257,1,2032.300000011921,299242.89999997616,7030,WL,B,4.0
2,12.713000059127808,learn,47286.99994087219,Thu Oct 24 2024 15:36:52 GMT-0500 (Central Daylight Time),301692.6999999881,A,w,O,w,395,1,417.19999998807907,301275.5,7030,WL,B,5.0
2,12.830000162124634,learn,47169.999837875366,Thu Oct 24 2024 15:36:52 GMT-0500 (Central Daylight Time),301809.3000000119,A,wi,O,i,86,1,533.8000000119209,301275.5,7030,WL,B,5.0
2,13.063000202178955,learn,46936.999797821045,Thu Oct 24 2024 15:36:52 GMT-0500 (Central Daylight Time),302042.60000002384,A,wif,O,f,203,1,767.1000000238419,301275.5,7030,WL,B,5.0
2,13.230000019073486,learn,46769.999980926514,Thu Oct 24 2024 15:36:52 GMT-0500 (Central Daylight Time),302209.39999997616,A,wife,O,e,139,1,933.8999999761581,301275.5,7030,WL,B,5.0
2,13.495000123977661,learn,46504.99987602234,Thu Oct 24 2024 15:36:52 GMT-0500 (Central Daylight Time),302475.0,A,wifeenter,O,enter,225,1,1199.5,301275.5,7030,WL,B,5.0
2,14.11300015449524,learn,45886.99984550476,Thu Oct 24 2024 15:36:52 GMT-0500 (Central Daylight Time),303092.1999999881,A,w,O,w,603,1,617.0,302475.1999999881,7030,WL,B,6.0
2,14.246000051498413,learn,45753.99994850159,Thu Oct 24 2024 15:36:52 GMT-0500 (Central Daylight Time),303225.3000000119,A,wi,O,i,108,1,750.1000000238419,302475.1999999881,7030,WL,B,6.0
2,14.462000131607056,learn,45537.999868392944,Thu Oct 24 2024 15:36:52 GMT-0500 (Central Daylight Time),303442.0,A,win,O,n,178,1,966.8000000119209,302475.1999999881,7030,WL,B,6.0
2,14.59600019454956,learn,45403.99980545044,Thu Oct 24 2024 15:36:52 GMT-0500 (Central Daylight Time),303575.3000000119,A,wind,O,d,98,1,1100.1000000238419,302475.1999999881,7030,WL,B,6.0
2,15.34500002861023,learn,44654.99997138977,Thu Oct 24 2024 15:36:52 GMT-0500 (Central Daylight Time),304325.0,A,windo,O,o,725,1,1849.800000011921,302475.1999999881,7030,WL,B,6.0
2,15.495000123977661,learn,44504.99987602234,Thu Oct 24 2024 15:36:52 GMT-0500 (Central Daylight Time),304475.10000002384,A,window,O,w,119,1,1999.9000000357628,302475.1999999881,7030,WL,B,6.0
2,15.711000204086304,learn,44288.999795913696,Thu Oct 24 2024 15:36:52 GMT-0500 (Central Daylight Time),304690.8000000119,A,windowenter,O,enter,176,1,2215.600000023842,302475.1999999881,7030,WL,B,6.0
2,16.961000204086304,learn,43038.999795913696,Thu Oct 24 2024 15:36:52 GMT-0500 (Central Daylight Time),305940.60000002384,A,d,O,d,1234,1,1249.6000000238419,304691.0,7030,WL,B,7.0
2,17.111999988555908,learn,42888.00001144409,Thu Oct 24 2024 15:36:52 GMT-0500 (Central Daylight Time),306091.1999999881,A,do,O,o,132,1,1400.199999988079,304691.0,7030,WL,B,7.0
2,17.26200008392334,learn,42737.99991607666,Thu Oct 24 2024 15:36:52 GMT-0500 (Central Daylight Time),306241.3000000119,A,doo,O,o,116,1,1550.300000011921,304691.0,7030,WL,B,7.0
2,17.32800006866455,learn,42671.99993133545,Thu Oct 24 2024 15:36:52 GMT-0500 (Central Daylight Time),306307.3000000119,A,door,O,r,34,1,1616.300000011921,304691.0,7030,WL,B,7.0
2,17.47699999809265,learn,42523.00000190735,Thu Oct 24 2024 15:36:52 GMT-0500 (Central Daylight Time),306456.8000000119,A,doorenter,O,enter,131,1,1765.800000011921,304691.0,7030,WL,B,7.0
2,19.361000061035156,learn,40638.999938964844,Thu Oct 24 2024 15:36:52 GMT-0500 (Central Daylight Time),308340.39999997616,A,g,O,g,1868,1,1883.3999999761581,306457.0,7030,WL,B,8.0
2,19.561000108718872,learn,40438.99989128113,Thu Oct 24 2024 15:36:52 GMT-0500 (Central Daylight Time),308540.8000000119,A,gr,O,r,176,1,2083.800000011921,306457.0,7030,WL,B,8.0
2,19.72699999809265,learn,40273.00000190735,Thu Oct 24 2024 15:36:52 GMT-0500 (Central Daylight Time),308706.89999997616,A,gra,O,a,135,1,2249.899999976158,306457.0,7030,WL,B,8.0
2,19.961000204086304,learn,40038.999795913696,Thu Oct 24 2024 15:36:52 GMT-0500 (Central Daylight Time),308940.89999997616,A,gras,O,s,209,1,2483.899999976158,306457.0,7030,WL,B,8.0
2,20.16100001335144,learn,39838.99998664856,Thu Oct 24 2024 15:36:52 GMT-0500 (Central Daylight Time),309140.89999997616,A,grass,O,s,175,1,2683.899999976158,306457.0,7030,WL,B,8.0
2,20.37600016593933,learn,39623.99983406067,Thu Oct 24 2024 15:36:52 GMT-0500 (Central Daylight Time),309355.89999997616,A,grassenter,O,enter,181,1,2898.899999976158,306457.0,7030,WL,B,8.0
2,20.89400005340576,learn,39105.99994659424,Thu Oct 24 2024 15:36:52 GMT-0500 (Central Daylight Time),309873.1999999881,A,s,O,s,498,1,517.0,309356.1999999881,7030,WL,B,9.0
2,21.17799997329712,learn,38822.00002670288,Thu Oct 24 2024 15:36:52 GMT-0500 (Central Daylight Time),310157.10000002384,A,st,O,t,242,1,800.9000000357628,309356.1999999881,7030,WL,B,9.0
2,21.377000093460083,learn,38622.99990653992,Thu Oct 24 2024 15:36:52 GMT-0500 (Central Daylight Time),310357.0,A,str,O,r,176,1,1000.8000000119209,309356.1999999881,7030,WL,B,9.0
2,21.64300012588501,learn,38356.99987411499,Thu Oct 24 2024 15:36:52 GMT-0500 (Central Daylight Time),310623.0,A,stre,O,e,232,1,1266.800000011921,309356.1999999881,7030,WL,B,9.0
2,21.81000018119812,learn,38189.99981880188,Thu Oct 24 2024 15:36:52 GMT-0500 (Central Daylight Time),310790.0,A,stree,O,e,133,1,1433.800000011921,309356.1999999881,7030,WL,B,9.0
2,21.960000038146973,learn,38039.99996185303,Thu Oct 24 2024 15:36:52 GMT-0500 (Central Daylight Time),310939.5,A,street,O,t,118,1,1583.300000011921,309356.1999999881,7030,WL,B,9.0
2,22.39300012588501,learn,37606.99987411499,Thu Oct 24 2024 15:36:52 GMT-0500 (Central Daylight Time),311373.0,A,streetc,O,c,409,1,2016.800000011921,309356.1999999881,7030,WL,B,9.0
2,22.526000022888184,learn,37473.99997711182,Thu Oct 24 2024 15:36:52 GMT-0500 (Central Daylight Time),311506.0,A,streetci,O,i,102,1,2149.800000011921,309356.1999999881,7030,WL,B,9.0
2,22.943000078201294,learn,37056.999921798706,Thu Oct 24 2024 15:36:52 GMT-0500 (Central Daylight Time),311922.39999997616,A,streetc,O,backspace,377,1,2566.199999988079,309356.1999999881,7030,WL,B,9.0
2,23.12600016593933,learn,36873.99983406067,Thu Oct 24 2024 15:36:52 GMT-0500 (Central Daylight Time),312105.8000000119,A,street,O,backspace,145,1,2749.600000023842,309356.1999999881,7030,WL,B,9.0
2,23.31000018119812,learn,36689.99981880188,Thu Oct 24 2024 15:36:52 GMT-0500 (Central Daylight Time),312289.1999999881,A,stree,O,backspace,154,1,2933.0,309356.1999999881,7030,WL,B,9.0
2,24.360000133514404,learn,35639.999866485596,Thu Oct 24 2024 15:36:52 GMT-0500 (Central Daylight Time),313339.3000000119,A,street,O,t,1011,1,3983.100000023842,309356.1999999881,7030,WL,B,9.0
2,24.492000102996826,learn,35507.999897003174,Thu Oct 24 2024 15:36:52 GMT-0500 (Central Daylight Time),313471.1999999881,A,streetenter,O,enter,103,1,4115.0,309356.1999999881,7030,WL,B,9.0
2,25.509000062942505,learn,34490.999937057495,Thu Oct 24 2024 15:36:52 GMT-0500 (Central Daylight Time),314488.39999997616,A,c,O,c,1007,1,1016.8999999761581,313471.5,7030,WL,B,10.0
2,25.659000158309937,learn,34340.99984169006,Thu Oct 24 2024 15:36:52 GMT-0500 (Central Daylight Time),314638.3000000119,A,ci,O,i,114,1,1166.800000011921,313471.5,7030,WL,B,10.0
2,25.825000047683716,learn,34174.999952316284,Thu Oct 24 2024 15:36:52 GMT-0500 (Central Daylight Time),314805.0,A,cit,O,t,142,1,1333.5,313471.5,7030,WL,B,10.0
2,25.95900011062622,learn,34040.99988937378,Thu Oct 24 2024 15:36:52 GMT-0500 (Central Daylight Time),314938.8000000119,A,city,O,y,95,1,1467.300000011921,313471.5,7030,WL,B,10.0
2,26.44099998474121,learn,33559.00001525879,Thu Oct 24 2024 15:36:52 GMT-0500 (Central Daylight Time),315420.5,A,cityenter,O,enter,459,1,1949.0,313471.5,7030,WL,B,10.0
2,27.141000032424927,learn,32858.99996757507,Thu Oct 24 2024 15:36:52 GMT-0500 (Central Daylight Time),316120.89999997616,A,l,O,l,690,1,700.0999999642372,315420.8000000119,7030,WL,B,11.0
2,27.27400016784668,learn,32725.99983215332,Thu Oct 24 2024 15:36:52 GMT-0500 (Central Daylight Time),316253.60000002384,A,la,O,a,105,1,832.8000000119209,315420.8000000119,7030,WL,B,11.0
2,27.407000064849854,learn,32592.999935150146,Thu Oct 24 2024 15:36:52 GMT-0500 (Central Daylight Time),316386.89999997616,A,lak,O,k,118,1,966.0999999642372,315420.8000000119,7030,WL,B,11.0
2,27.54100012779236,learn,32458.99987220764,Thu Oct 24 2024 15:36:52 GMT-0500 (Central Daylight Time),316521.10000002384,A,lake,O,e,115,1,1100.300000011921,315420.8000000119,7030,WL,B,11.0
2,28.02400016784668,learn,31975.99983215332,Thu Oct 24 2024 15:36:52 GMT-0500 (Central Daylight Time),317003.39999997616,A,lakeenter,O,enter,450,1,1582.5999999642372,315420.8000000119,7030,WL,B,11.0
2,28.991000175476074,learn,31008.999824523926,Thu Oct 24 2024 15:36:52 GMT-0500 (Central Daylight Time),317970.60000002384,A,s,O,s,947,1,966.9000000357628,317003.6999999881,7030,WL,B,12.0
2,29.124000072479248,learn,30875.999927520752,Thu Oct 24 2024 15:36:52 GMT-0500 (Central Daylight Time),318103.89999997616,A,sk,O,k,109,1,1100.199999988079,317003.6999999881,7030,WL,B,12.0
2,29.308000087738037,learn,30691.999912261963,Thu Oct 24 2024 15:36:52 GMT-0500 (Central Daylight Time),318287.6999999881,A,ski,O,i,157,1,1284.0,317003.6999999881,7030,WL,B,12.0
2,29.756999969482422,learn,30243.000030517578,Thu Oct 24 2024 15:36:52 GMT-0500 (Central Daylight Time),318737.0,A,skin,O,n,419,1,1733.300000011921,317003.6999999881,7030,WL,B,12.0
2,30.223000049591064,learn,29776.999950408936,Thu Oct 24 2024 15:36:52 GMT-0500 (Central Daylight Time),319202.60000002384,A,skinenter,O,enter,435,1,2198.900000035763,317003.6999999881,7030,WL,B,12.0
2,36.205000162124634,learn,23794.999837875366,Thu Oct 24 2024 15:36:52 GMT-0500 (Central Daylight Time),325185.0,A,w,O,w,5964,1,5982.100000023842,319202.89999997616,7030,WL,B,13.0
2,36.355000019073486,learn,23644.999980926514,Thu Oct 24 2024 15:36:52 GMT-0500 (Central Daylight Time),325335.0,A,wi,O,i,115,1,6132.100000023842,319202.89999997616,7030,WL,B,13.0
2,36.57200002670288,learn,23427.99997329712,Thu Oct 24 2024 15:36:52 GMT-0500 (Central Daylight Time),325551.60000002384,A,win,O,n,192,1,6348.700000047684,319202.89999997616,7030,WL,B,13.0
2,36.855000019073486,learn,23144.999980926514,Thu Oct 24 2024 15:36:52 GMT-0500 (Central Daylight Time),325834.6999999881,A,wind,O,d,253,1,6631.800000011921,319202.89999997616,7030,WL,B,13.0
2,37.07200002670288,learn,22927.99997329712,Thu Oct 24 2024 15:36:52 GMT-0500 (Central Daylight Time),326051.60000002384,A,windo,O,o,186,1,6848.700000047684,319202.89999997616,7030,WL,B,13.0
2,37.57200002670288,learn,22427.99997329712,Thu Oct 24 2024 15:36:52 GMT-0500 (Central Daylight Time),326551.10000002384,A,window,O,w,473,1,7348.200000047684,319202.89999997616,7030,WL,B,13.0
2,38.03700017929077,learn,21962.99982070923,Thu Oct 24 2024 15:36:52 GMT-0500 (Central Daylight Time),327016.6999999881,A,windowenter,O,enter,429,1,7813.800000011921,319202.89999997616,7030,WL,B,13.0
2,38.53800010681152,learn,21461.999893188477,Thu Oct 24 2024 15:36:52 GMT-0500 (Central Daylight Time),327517.1999999881,A,a,O,a,494,1,500.30000001192093,327016.89999997616,7030,WL,B,14.0
2,38.771000146865845,learn,21228.999853134155,Thu Oct 24 2024 15:36:52 GMT-0500 (Central Daylight Time),327750.6999999881,A,au,O,u,205,1,733.8000000119209,327016.89999997616,7030,WL,B,14.0
2,38.88800001144409,learn,21111.99998855591,Thu Oct 24 2024 15:36:52 GMT-0500 (Central Daylight Time),327867.39999997616,A,aur,O,r,77,1,850.5,327016.89999997616,7030,WL,B,14.0
2,38.98699998855591,learn,21013.00001144409,Thu Oct 24 2024 15:36:52 GMT-0500 (Central Daylight Time),327966.89999997616,A,aure,O,e,74,1,950.0,327016.89999997616,7030,WL,B,14.0
2,39.37100005149841,learn,20628.999948501587,Thu Oct 24 2024 15:36:52 GMT-0500 (Central Daylight Time),328350.60000002384,A,aur,O,backspace,349,1,1333.7000000476837,327016.89999997616,7030,WL,B,14.0
2,39.55400013923645,learn,20445.99986076355,Thu Oct 24 2024 15:36:52 GMT-0500 (Central Daylight Time),328533.8000000119,A,au,O,backspace,147,1,1516.9000000357628,327016.89999997616,7030,WL,B,14.0
2,39.771000146865845,learn,20228.999853134155,Thu Oct 24 2024 15:36:52 GMT-0500 (Central Daylight Time),328750.5,A,a,O,backspace,191,1,1733.6000000238419,327016.89999997616,7030,WL,B,14.0
2,40.604000091552734,learn,19395.999908447266,Thu Oct 24 2024 15:36:52 GMT-0500 (Central Daylight Time),329583.60000002384,A,ar,O,r,798,1,2566.7000000476837,327016.89999997616,7030,WL,B,14.0
2,40.920000076293945,learn,19079.999923706055,Thu Oct 24 2024 15:36:52 GMT-0500 (Central Daylight Time),329900.0,A,arm,O,m,285,1,2883.100000023842,327016.89999997616,7030,WL,B,14.0
2,41.45300006866455,learn,18546.99993133545,Thu Oct 24 2024 15:36:52 GMT-0500 (Central Daylight Time),330432.39999997616,A,armenter,O,enter,504,1,3415.5,327016.89999997616,7030,WL,B,14.0
2,52.76700019836426,learn,7232.999801635742,Thu Oct 24 2024 15:36:52 GMT-0500 (Central Daylight Time),341746.3000000119,A,c,O,c,11302,1,11313.699999988079,330432.60000002384,7030,WL,B,15.0
2,52.950000047683716,learn,7049.999952316284,Thu Oct 24 2024 15:36:52 GMT-0500 (Central Daylight Time),341929.39999997616,A,cl,O,l,153,1,11496.799999952316,330432.60000002384,7030,WL,B,15.0
2,53.200000047683716,learn,6799.999952316284,Thu Oct 24 2024 15:36:52 GMT-0500 (Central Daylight Time),342179.39999997616,A,clo,O,o,219,1,11746.799999952316,330432.60000002384,7030,WL,B,15.0
2,54.0,learn,6000.0,Thu Oct 24 2024 15:36:52 GMT-0500 (Central Daylight Time),342979.1999999881,A,cloc,O,c,762,1,12546.599999964237,330432.60000002384,7030,WL,B,15.0
2,54.116000175476074,learn,5883.999824523926,Thu Oct 24 2024 15:36:52 GMT-0500 (Central Daylight Time),343095.8000000119,A,clock,O,k,81,1,12663.199999988079,330432.60000002384,7030,WL,B,15.0
2,54.49900007247925,learn,5500.999927520752,Thu Oct 24 2024 15:36:52 GMT-0500 (Central Daylight Time),343478.10000002384,A,clockenter,O,enter,355,1,13045.5,330432.60000002384,7030,WL,B,15.0
3,2.9489998817443848,learn,57051.000118255615,Thu Oct 24 2024 15:36:52 GMT-0500 (Central Daylight Time),415922.0,A,c,O,c,2925,1,2948.5,412973.5,7030,WL,B,1.0
3,3.2659997940063477,learn,56734.00020599365,Thu Oct 24 2024 15:36:52 GMT-0500 (Central Daylight Time),416238.3000000119,A,ca,O,a,279,1,3264.800000011921,412973.5,7030,WL,B,1.0
3,3.7319998741149902,learn,56268.00012588501,Thu Oct 24 2024 15:36:52 GMT-0500 (Central Daylight Time),416704.5,A,cab,O,b,438,1,3731.0,412973.5,7030,WL,B,1.0
3,4.014999866485596,learn,55985.000133514404,Thu Oct 24 2024 15:36:52 GMT-0500 (Central Daylight Time),416988.0,A,cabi,O,i,244,1,4014.5,412973.5,7030,WL,B,1.0
3,4.281999826431274,learn,55718.000173568726,Thu Oct 24 2024 15:36:52 GMT-0500 (Central Daylight Time),417254.8000000119,A,cabin,O,n,242,1,4281.300000011921,412973.5,7030,WL,B,1.0
3,5.180999994277954,learn,54819.000005722046,Thu Oct 24 2024 15:36:52 GMT-0500 (Central Daylight Time),418153.5,A,cabinenter,O,enter,862,1,5180.0,412973.5,7030,WL,B,1.0
3,5.914999961853027,learn,54085.00003814697,Thu Oct 24 2024 15:36:52 GMT-0500 (Central Daylight Time),418887.5,A,s,O,s,725,1,733.8000000119209,418153.6999999881,7030,WL,B,2.0
3,6.197999954223633,learn,53802.00004577637,Thu Oct 24 2024 15:36:52 GMT-0500 (Central Daylight Time),419170.6999999881,A,st,O,t,244,1,1017.0,418153.6999999881,7030,WL,B,2.0
3,6.430999994277954,learn,53569.000005722046,Thu Oct 24 2024 15:36:52 GMT-0500 (Central Daylight Time),419403.89999997616,A,str,O,r,193,1,1250.199999988079,418153.6999999881,7030,WL,B,2.0
3,6.614999771118164,learn,53385.000228881836,Thu Oct 24 2024 15:36:52 GMT-0500 (Central Daylight Time),419587.1999999881,A,stre,O,e,143,1,1433.5,418153.6999999881,7030,WL,B,2.0
3,6.830999851226807,learn,53169.00014877319,Thu Oct 24 2024 15:36:52 GMT-0500 (Central Daylight Time),419803.89999997616,A,stree,O,e,184,1,1650.199999988079,418153.6999999881,7030,WL,B,2.0
3,7.013999938964844,learn,52986.000061035156,Thu Oct 24 2024 15:36:52 GMT-0500 (Central Daylight Time),419987.10000002384,A,street,O,t,153,1,1833.4000000357628,418153.6999999881,7030,WL,B,2.0
3,7.346999883651733,learn,52653.00011634827,Thu Oct 24 2024 15:36:52 GMT-0500 (Central Daylight Time),420319.60000002384,A,streetenter,O,enter,306,1,2165.900000035763,418153.6999999881,7030,WL,B,2.0
3,7.7809998989105225,learn,52219.00010108948,Thu Oct 24 2024 15:36:52 GMT-0500 (Central Daylight Time),420753.60000002384,A,g,O,g,422,1,433.80000001192093,420319.8000000119,7030,WL,B,3.0
3,8.030999898910522,learn,51969.00010108948,Thu Oct 24 2024 15:36:52 GMT-0500 (Central Daylight Time),421003.39999997616,A,gr,O,r,211,1,683.5999999642372,420319.8000000119,7030,WL,B,3.0
3,8.180999994277954,learn,51819.000005722046,Thu Oct 24 2024 15:36:52 GMT-0500 (Central Daylight Time),421153.3000000119,A,gra,O,a,113,1,833.5,420319.8000000119,7030,WL,B,3.0
3,8.205999851226807,learn,51794.00014877319,Thu Oct 24 2024 15:36:52 GMT-0500 (Central Daylight Time),421179.10000002384,A,graq,O,q,0,1,859.3000000119209,420319.8000000119,7030,WL,B,3.0
3,8.54699993133545,learn,51453.00006866455,Thu Oct 24 2024 15:36:52 GMT-0500 (Central Daylight Time),421519.89999997616,A,graqs,O,s,324,1,1200.0999999642372,420319.8000000119,7030,WL,B,3.0
3,8.763999938964844,learn,51236.000061035156,Thu Oct 24 2024 15:36:52 GMT-0500 (Central Daylight Time),421736.39999997616,A,graqss,O,s,184,1,1416.5999999642372,420319.8000000119,7030,WL,B,3.0
3,9.645999908447266,learn,50354.000091552734,Thu Oct 24 2024 15:36:52 GMT-0500 (Central Daylight Time),422618.6999999881,A,graqssenter,O,enter,850,1,2298.899999976158,420319.8000000119,7030,WL,B,3.0
3,11.845999956130981,learn,48154.00004386902,Thu Oct 24 2024 15:36:52 GMT-0500 (Central Daylight Time),424818.6999999881,A,d,O,d,2187,1,2199.699999988079,422619.0,7030,WL,B,4.0
3,12.095999956130981,learn,47904.00004386902,Thu Oct 24 2024 15:36:52 GMT-0500 (Central Daylight Time),425068.6999999881,A,do,O,o,216,1,2449.699999988079,422619.0,7030,WL,B,4.0
3,12.262999773025513,learn,47737.00022697449,Thu Oct 24 2024 15:36:52 GMT-0500 (Central Daylight Time),425235.60000002384,A,doo,O,o,134,1,2616.600000023842,422619.0,7030,WL,B,4.0
3,12.411999940872192,learn,47588.00005912781,Thu Oct 24 2024 15:36:52 GMT-0500 (Central Daylight Time),425385.10000002384,A,door,O,r,120,1,2766.100000023842,422619.0,7030,WL,B,4.0
3,12.777999877929688,learn,47222.00012207031,Thu Oct 24 2024 15:36:52 GMT-0500 (Central Daylight Time),425751.0,A,doorenter,O,enter,338,1,3132.0,422619.0,7030,WL,B,4.0
3,13.44599986076355,learn,46554.00013923645,Thu Oct 24 2024 15:36:52 GMT-0500 (Central Daylight Time),426418.3000000119,A,w,O,w,647,1,667.0,425751.3000000119,7030,WL,B,5.0
3,13.611999988555908,learn,46388.00001144409,Thu Oct 24 2024 15:36:52 GMT-0500 (Central Daylight Time),426585.0,A,wi,O,i,137,1,833.6999999880791,425751.3000000119,7030,WL,B,5.0
3,13.811999797821045,learn,46188.000202178955,Thu Oct 24 2024 15:36:52 GMT-0500 (Central Daylight Time),426784.60000002384,A,win,O,n,172,1,1033.300000011921,425751.3000000119,7030,WL,B,5.0
3,13.961999893188477,learn,46038.00010681152,Thu Oct 24 2024 15:36:52 GMT-0500 (Central Daylight Time),426934.6999999881,A,wind,O,d,126,1,1183.3999999761581,425751.3000000119,7030,WL,B,5.0
3,14.111999988555908,learn,45888.00001144409,Thu Oct 24 2024 15:36:52 GMT-0500 (Central Daylight Time),427084.89999997616,A,windo,O,o,128,1,1333.5999999642372,425751.3000000119,7030,WL,B,5.0
3,14.228999853134155,learn,45771.000146865845,Thu Oct 24 2024 15:36:52 GMT-0500 (Central Daylight Time),427201.3000000119,A,window,O,w,91,1,1450.0,425751.3000000119,7030,WL,B,5.0
3,15.360999822616577,learn,44639.00017738342,Thu Oct 24 2024 15:36:52 GMT-0500 (Central Daylight Time),428333.39999997616,A,windowenter,O,enter,1098,1,2582.099999964237,425751.3000000119,7030,WL,B,5.0
3,15.777999877929688,learn,44222.00012207031,Thu Oct 24 2024 15:36:52 GMT-0500 (Central Daylight Time),428750.89999997616,A,a,O,a,409,1,417.2999999523163,428333.60000002384,7030,WL,B,6.0
3,15.960999965667725,learn,44039.000034332275,Thu Oct 24 2024 15:36:52 GMT-0500 (Central Daylight Time),428933.89999997616,A,ar,O,r,159,1,600.2999999523163,428333.60000002384,7030,WL,B,6.0
3,16.194999933242798,learn,43805.0000667572,Thu Oct 24 2024 15:36:52 GMT-0500 (Central Daylight Time),429167.39999997616,A,arm,O,m,198,1,833.7999999523163,428333.60000002384,7030,WL,B,6.0
3,16.676999807357788,learn,43323.00019264221,Thu Oct 24 2024 15:36:52 GMT-0500 (Central Daylight Time),429649.6999999881,A,armenter,O,enter,443,1,1316.0999999642372,428333.60000002384,7030,WL,B,6.0
3,17.01099991798401,learn,42989.00008201599,Thu Oct 24 2024 15:36:52 GMT-0500 (Central Daylight Time),429983.8000000119,A,s,O,s,316,1,333.80000001192093,429650.0,7030,WL,B,7.0
3,17.16099977493286,learn,42839.00022506714,Thu Oct 24 2024 15:36:52 GMT-0500 (Central Daylight Time),430133.8000000119,A,st,O,t,116,1,483.80000001192093,429650.0,7030,WL,B,7.0
3,17.377999782562256,learn,42622.000217437744,Thu Oct 24 2024 15:36:52 GMT-0500 (Central Daylight Time),430350.3000000119,A,sta,O,a,182,1,700.3000000119209,429650.0,7030,WL,B,7.0
3,17.51099991798401,learn,42489.00008201599,Thu Oct 24 2024 15:36:52 GMT-0500 (Central Daylight Time),430484.1999999881,A,star,O,r,95,1,834.1999999880791,429650.0,7030,WL,B,7.0
3,17.744999885559082,learn,42255.00011444092,Thu Oct 24 2024 15:36:52 GMT-0500 (Central Daylight Time),430717.1999999881,A,start,O,t,200,1,1067.199999988079,429650.0,7030,WL,B,7.0
3,18.675999879837036,learn,41324.000120162964,Thu Oct 24 2024 15:36:52 GMT-0500 (Central Daylight Time),431649.0,A,startenter,O,enter,904,1,1999.0,429650.0,7030,WL,B,7.0
3,19.32699990272522,learn,40673.00009727478,Thu Oct 24 2024 15:36:52 GMT-0500 (Central Daylight Time),432299.6999999881,A,c,O,c,637,1,650.5,431649.1999999881,7030,WL,B,8.0
3,19.459999799728394,learn,40540.00020027161,Thu Oct 24 2024 15:36:52 GMT-0500 (Central Daylight Time),432432.89999997616,A,ci,O,i,104,1,783.6999999880791,431649.1999999881,7030,WL,B,8.0
3,19.609999895095825,learn,40390.000104904175,Thu Oct 24 2024 15:36:52 GMT-0500 (Central Daylight Time),432583.0,A,cit,O,t,116,1,933.8000000119209,431649.1999999881,7030,WL,B,8.0
3,19.74399995803833,learn,40256.00004196167,Thu Oct 24 2024 15:36:52 GMT-0500 (Central Daylight Time),432716.89999997616,A,city,O,y,108,1,1067.699999988079,431649.1999999881,7030,WL,B,8.0
3,20.24399995803833,learn,39756.00004196167,Thu Oct 24 2024 15:36:52 GMT-0500 (Central Daylight Time),433216.3000000119,A,cityenter,O,enter,471,1,1567.1000000238419,431649.1999999881,7030,WL,B,8.0
3,20.842999935150146,learn,39157.00006484985,Thu Oct 24 2024 15:36:52 GMT-0500 (Central Daylight Time),433815.8000000119,A,w,O,w,590,1,599.1999999880791,433216.60000002384,7030,WL,B,9.0
3,21.009999990463257,learn,38990.00000953674,Thu Oct 24 2024 15:36:52 GMT-0500 (Central Daylight Time),433982.39999997616,A,wi,O,i,138,1,765.7999999523163,433216.60000002384,7030,WL,B,9.0
3,21.174999952316284,learn,38825.000047683716,Thu Oct 24 2024 15:36:52 GMT-0500 (Central Daylight Time),434148.10000002384,A,wif,O,f,142,1,931.5,433216.60000002384,7030,WL,B,9.0
3,21.358999967575073,learn,38641.00003242493,Thu Oct 24 2024 15:36:52 GMT-0500 (Central Daylight Time),434331.3000000119,A,wife,O,e,176,1,1114.699999988079,433216.60000002384,7030,WL,B,9.0
3,21.691999912261963,learn,38308.00008773804,Thu Oct 24 2024 15:36:52 GMT-0500 (Central Daylight Time),434664.60000002384,A,wifeenter,O,enter,320,1,1448.0,433216.60000002384,7030,WL,B,9.0
3,21.97499990463257,learn,38025.00009536743,Thu Oct 24 2024 15:36:52 GMT-0500 (Central Daylight Time),434947.8000000119,A,c,O,c,276,1,283.0,434664.8000000119,7030,WL,B,10.0
3,22.158999919891357,learn,37841.00008010864,Thu Oct 24 2024 15:36:52 GMT-0500 (Central Daylight Time),435131.1999999881,A,ca,O,a,176,1,466.39999997615814,434664.8000000119,7030,WL,B,10.0
3,22.97499990463257,learn,37025.00009536743,Thu Oct 24 2024 15:36:52 GMT-0500 (Central Daylight Time),435947.39999997616,A,cab,O,b,809,1,1282.5999999642372,434664.8000000119,7030,WL,B,10.0
3,23.20799994468689,learn,36792.00005531311,Thu Oct 24 2024 15:36:52 GMT-0500 (Central Daylight Time),436180.89999997616,A,cabi,O,i,222,1,1516.0999999642372,434664.8000000119,7030,WL,B,10.0
3,23.424999952316284,learn,36575.000047683716,Thu Oct 24 2024 15:36:52 GMT-0500 (Central Daylight Time),436397.3000000119,A,cabin,O,n,207,1,1732.5,434664.8000000119,7030,WL,B,10.0
3,23.973999977111816,learn,36026.00002288818,Thu Oct 24 2024 15:36:52 GMT-0500 (Central Daylight Time),436947.10000002384,A,cabinenter,O,enter,527,1,2282.300000011921,434664.8000000119,7030,WL,B,10.0
3,24.524999856948853,learn,35475.00014305115,Thu Oct 24 2024 15:36:52 GMT-0500 (Central Daylight Time),437497.89999997616,A,c,O,c,538,1,550.5,436947.39999997616,7030,WL,B,11.0
3,24.625,learn,35375.0,Thu Oct 24 2024 15:36:52 GMT-0500 (Central Daylight Time),437597.60000002384,A,cl,O,l,74,1,650.2000000476837,436947.39999997616,7030,WL,B,11.0
3,24.908999919891357,learn,35091.00008010864,Thu Oct 24 2024 15:36:52 GMT-0500 (Central Daylight Time),437881.1999999881,A,clo,O,o,247,1,933.8000000119209,436947.39999997616,7030,WL,B,11.0
3,25.191999912261963,learn,34808.00008773804,Thu Oct 24 2024 15:36:52 GMT-0500 (Central Daylight Time),438164.39999997616,A,cloc,O,c,243,1,1217.0,436947.39999997616,7030,WL,B,11.0
3,25.324999809265137,learn,34675.00019073486,Thu Oct 24 2024 15:36:52 GMT-0500 (Central Daylight Time),438297.6999999881,A,clock,O,k,96,1,1350.300000011921,436947.39999997616,7030,WL,B,11.0
3,25.858999967575073,learn,34141.00003242493,Thu Oct 24 2024 15:36:52 GMT-0500 (Central Daylight Time),438831.1999999881,A,clockenter,O,enter,497,1,1883.800000011921,436947.39999997616,7030,WL,B,11.0
3,26.72499990463257,learn,33275.00009536743,Thu Oct 24 2024 15:36:52 GMT-0500 (Central Daylight Time),439697.3000000119,A,p,O,p,847,1,865.8000000119209,438831.5,7030,WL,B,12.0
3,26.973999977111816,learn,33026.00002288818,Thu Oct 24 2024 15:36:52 GMT-0500 (Central Daylight Time),439947.10000002384,A,pi,O,i,211,1,1115.6000000238419,438831.5,7030,WL,B,12.0
3,27.19099998474121,learn,32809.00001525879,Thu Oct 24 2024 15:36:52 GMT-0500 (Central Daylight Time),440163.6999999881,A,pip,O,p,177,1,1332.199999988079,438831.5,7030,WL,B,12.0
3,27.62399983406067,learn,32376.00016593933,Thu Oct 24 2024 15:36:52 GMT-0500 (Central Daylight Time),440597.10000002384,A,pipe,O,e,410,1,1765.6000000238419,438831.5,7030,WL,B,12.0
3,28.889999866485596,learn,31110.000133514404,Thu Oct 24 2024 15:36:52 GMT-0500 (Central Daylight Time),441862.39999997616,A,pipeenter,O,enter,1238,1,3030.899999976158,438831.5,7030,WL,B,12.0
3,29.823999881744385,learn,30176.000118255615,Thu Oct 24 2024 15:36:52 GMT-0500 (Central Daylight Time),442796.3000000119,A,s,O,s,920,1,933.6000000238419,441862.6999999881,7030,WL,B,13.0
3,30.18999981880188,learn,29810.00018119812,Thu Oct 24 2024 15:36:52 GMT-0500 (Central Daylight Time),443162.8000000119,A,sk,O,k,328,1,1300.1000000238419,441862.6999999881,7030,WL,B,13.0
3,30.389999866485596,learn,29610.000133514404,Thu Oct 24 2024 15:36:52 GMT-0500 (Central Daylight Time),443362.6999999881,A,ski,O,i,171,1,1500.0,441862.6999999881,7030,WL,B,13.0
3,30.622999906539917,learn,29377.000093460083,Thu Oct 24 2024 15:36:52 GMT-0500 (Central Daylight Time),443596.0,A,skin,O,n,194,1,1733.300000011921,441862.6999999881,7030,WL,B,13.0
3,30.988999843597412,learn,29011.000156402588,Thu Oct 24 2024 15:36:52 GMT-0500 (Central Daylight Time),443961.60000002384,A,skinenter,O,enter,336,1,2098.900000035763,441862.6999999881,7030,WL,B,13.0
3,31.789999961853027,learn,28210.000038146973,Thu Oct 24 2024 15:36:52 GMT-0500 (Central Daylight Time),444762.89999997616,A,f,O,f,781,1,801.0,443961.89999997616,7030,WL,B,14.0
3,31.938999891281128,learn,28061.000108718872,Thu Oct 24 2024 15:36:52 GMT-0500 (Central Daylight Time),444912.10000002384,A,fi,O,i,121,1,950.2000000476837,443961.89999997616,7030,WL,B,14.0
3,32.0719997882843,learn,27928.0002117157,Thu Oct 24 2024 15:36:52 GMT-0500 (Central Daylight Time),445044.8000000119,A,fir,O,r,99,1,1082.9000000357628,443961.89999997616,7030,WL,B,14.0
3,32.18899989128113,learn,27811.000108718872,Thu Oct 24 2024 15:36:52 GMT-0500 (Central Daylight Time),445162.0,A,fire,O,e,92,1,1200.1000000238419,443961.89999997616,7030,WL,B,14.0
3,33.037999868392944,learn,26962.000131607056,Thu Oct 24 2024 15:36:52 GMT-0500 (Central Daylight Time),446011.0,A,fireenter,O,enter,818,1,2049.100000023842,443961.89999997616,7030,WL,B,14.0
3,37.55399990081787,learn,22446.00009918213,Thu Oct 24 2024 15:36:52 GMT-0500 (Central Daylight Time),450527.1999999881,A,p,O,p,4499,1,4516.0,446011.1999999881,7030,WL,B,15.0
3,38.90399980545044,learn,21096.00019454956,Thu Oct 24 2024 15:36:52 GMT-0500 (Central Daylight Time),451876.6999999881,A,pu,O,u,1317,1,5865.5,446011.1999999881,7030,WL,B,15.0
3,39.603999853134155,learn,20396.000146865845,Thu Oct 24 2024 15:36:52 GMT-0500 (Central Daylight Time),452576.3000000119,A,pup,O,p,664,1,6565.100000023842,446011.1999999881,7030,WL,B,15.0
3,39.88699984550476,learn,20113.00015449524,Thu Oct 24 2024 15:36:52 GMT-0500 (Central Daylight Time),452859.5,A,pupi,O,i,244,1,6848.300000011921,446011.1999999881,7030,WL,B,15.0
3,40.002999782562256,learn,19997.000217437744,Thu Oct 24 2024 15:36:52 GMT-0500 (Central Daylight Time),452976.1999999881,A,pupil,O,l,88,1,6965.0,446011.1999999881,7030,WL,B,15.0
3,40.40299987792969,learn,19597.000122070312,Thu Oct 24 2024 15:36:52 GMT-0500 (Central Daylight Time),453375.1999999881,A,pupilenter,O,enter,366,1,7364.0,446011.1999999881,7030,WL,B,15.0
4,1.8829998970031738,learn,58117.000102996826,Thu Oct 24 2024 15:36:52 GMT-0500 (Central Daylight Time),526185.5,A,s,O,s,1856,1,1882.1000000238419,524303.3999999762,7030,WL,B,1.0
4,2.132999897003174,learn,57867.000102996826,Thu Oct 24 2024 15:36:52 GMT-0500 (Central Daylight Time),526435.3999999762,A,st,O,t,211,1,2132.0,524303.3999999762,7030,WL,B,1.0
4,2.365999937057495,learn,57634.000062942505,Thu Oct 24 2024 15:36:52 GMT-0500 (Central Daylight Time),526668.6000000238,A,str,O,r,192,1,2365.2000000476837,524303.3999999762,7030,WL,B,1.0
4,2.549999952316284,learn,57450.000047683716,Thu Oct 24 2024 15:36:52 GMT-0500 (Central Daylight Time),526852.0,A,stre,O,e,145,1,2548.600000023842,524303.3999999762,7030,WL,B,1.0
4,2.7330000400543213,learn,57266.99995994568,Thu Oct 24 2024 15:36:52 GMT-0500 (Central Daylight Time),527035.1000000238,A,stree,O,e,150,1,2731.7000000476837,524303.3999999762,7030,WL,B,1.0
4,2.8999998569488525,learn,57100.00014305115,Thu Oct 24 2024 15:36:52 GMT-0500 (Central Daylight Time),527201.8000000119,A,street,O,t,136,1,2898.400000035763,524303.3999999762,7030,WL,B,1.0
4,3.365999937057495,learn,56634.000062942505,Thu Oct 24 2024 15:36:52 GMT-0500 (Central Daylight Time),527668.3999999762,A,streetg,O,g,437,1,3365.0,524303.3999999762,7030,WL,B,1.0
4,4.182999849319458,learn,55817.00015068054,Thu Oct 24 2024 15:36:52 GMT-0500 (Central Daylight Time),528484.6000000238,A,street,O,backspace,776,1,4181.200000047684,524303.3999999762,7030,WL,B,1.0
4,4.7149999141693115,learn,55285.00008583069,Thu Oct 24 2024 15:36:52 GMT-0500 (Central Daylight Time),529017.0,A,streetenter,O,enter,494,1,4713.600000023842,524303.3999999762,7030,WL,B,1.0
4,5.332000017166138,learn,54667.99998283386,Thu Oct 24 2024 15:36:52 GMT-0500 (Central Daylight Time),529634.1999999881,A,g,O,g,597,1,617.0,529017.1999999881,7030,WL,B,2.0
4,5.549000024795532,learn,54450.99997520447,Thu Oct 24 2024 15:36:52 GMT-0500 (Central Daylight Time),529850.8999999762,A,gr,O,r,186,1,833.6999999880791,529017.1999999881,7030,WL,B,2.0
4,5.716000080108643,learn,54283.99991989136,Thu Oct 24 2024 15:36:52 GMT-0500 (Central Daylight Time),530017.3999999762,A,gre,O,e,130,1,1000.1999999880791,529017.1999999881,7030,WL,B,2.0
4,6.5320000648498535,learn,53467.99993515015,Thu Oct 24 2024 15:36:52 GMT-0500 (Central Daylight Time),530834.1000000238,A,gr,O,backspace,788,1,1816.9000000357628,529017.1999999881,7030,WL,B,2.0
4,6.682999849319458,learn,53317.00015068054,Thu Oct 24 2024 15:36:52 GMT-0500 (Central Daylight Time),530984.6000000238,A,gra,O,a,125,1,1967.4000000357628,529017.1999999881,7030,WL,B,2.0
4,6.931999921798706,learn,53068.000078201294,Thu Oct 24 2024 15:36:52 GMT-0500 (Central Daylight Time),531233.8000000119,A,gras,O,s,217,1,2216.600000023842,529017.1999999881,7030,WL,B,2.0
4,7.115000009536743,learn,52884.99999046326,Thu Oct 24 2024 15:36:52 GMT-0500 (Central Daylight Time),531417.1000000238,A,grass,O,s,155,1,2399.900000035763,529017.1999999881,7030,WL,B,2.0
4,7.7809998989105225,learn,52219.00010108948,Thu Oct 24 2024 15:36:52 GMT-0500 (Central Daylight Time),532082.6000000238,A,grassenter,O,enter,634,1,3065.400000035763,529017.1999999881,7030,WL,B,2.0
4,8.497999906539917,learn,51502.00009346008,Thu Oct 24 2024 15:36:52 GMT-0500 (Central Daylight Time),532800.1000000238,A,d,O,d,700,1,717.1000000238419,532083.0,7030,WL,B,3.0
4,8.648000001907349,learn,51351.99999809265,Thu Oct 24 2024 15:36:52 GMT-0500 (Central Daylight Time),532950.0,A,do,O,o,115,1,867.0,532083.0,7030,WL,B,3.0
4,8.815000057220459,learn,51184.99994277954,Thu Oct 24 2024 15:36:52 GMT-0500 (Central Daylight Time),533116.6999999881,A,doo,O,o,135,1,1033.699999988079,532083.0,7030,WL,B,3.0
4,8.947999954223633,learn,51052.00004577637,Thu Oct 24 2024 15:36:52 GMT-0500 (Central Daylight Time),533249.8000000119,A,door,O,r,96,1,1166.800000011921,532083.0,7030,WL,B,3.0
4,9.914000034332275,learn,50085.999965667725,Thu Oct 24 2024 15:36:52 GMT-0500 (Central Daylight Time),534215.3000000119,A,doorenter,O,enter,929,1,2132.300000011921,532083.0,7030,WL,B,3.0
4,11.263999938964844,learn,48736.000061035156,Thu Oct 24 2024 15:36:52 GMT-0500 (Central Daylight Time),535565.6999999881,A,a,O,a,1335,1,1350.0999999642372,534215.6000000238,7030,WL,B,4.0
4,11.480999946594238,learn,48519.00005340576,Thu Oct 24 2024 15:36:52 GMT-0500 (Central Daylight Time),535782.3999999762,A,ar,O,r,183,1,1566.7999999523163,534215.6000000238,7030,WL,B,4.0
4,11.730000019073486,learn,48269.999980926514,Thu Oct 24 2024 15:36:52 GMT-0500 (Central Daylight Time),536032.1999999881,A,arm,O,m,225,1,1816.5999999642372,534215.6000000238,7030,WL,B,4.0
4,12.513000011444092,learn,47486.99998855591,Thu Oct 24 2024 15:36:52 GMT-0500 (Central Daylight Time),536814.5,A,armenter,O,enter,746,1,2598.899999976158,534215.6000000238,7030,WL,B,4.0
4,13.312999963760376,learn,46687.000036239624,Thu Oct 24 2024 15:36:52 GMT-0500 (Central Daylight Time),537615.0,A,w,O,w,792,1,800.3000000119209,536814.6999999881,7030,WL,B,5.0
4,13.44700002670288,learn,46552.99997329712,Thu Oct 24 2024 15:36:52 GMT-0500 (Central Daylight Time),537748.8000000119,A,wi,O,i,115,1,934.1000000238419,536814.6999999881,7030,WL,B,5.0
4,13.647000074386597,learn,46352.9999256134,Thu Oct 24 2024 15:36:52 GMT-0500 (Central Daylight Time),537948.6000000238,A,win,O,n,176,1,1133.9000000357628,536814.6999999881,7030,WL,B,5.0
4,13.829999923706055,learn,46170.000076293945,Thu Oct 24 2024 15:36:52 GMT-0500 (Central Daylight Time),538131.5,A,wind,O,d,144,1,1316.800000011921,536814.6999999881,7030,WL,B,5.0
4,13.963000059127808,learn,46036.99994087219,Thu Oct 24 2024 15:36:52 GMT-0500 (Central Daylight Time),538265.0,A,windo,O,o,97,1,1450.300000011921,536814.6999999881,7030,WL,B,5.0
4,14.11299991607666,learn,45887.00008392334,Thu Oct 24 2024 15:36:52 GMT-0500 (Central Daylight Time),538414.8000000119,A,window,O,w,123,1,1600.1000000238419,536814.6999999881,7030,WL,B,5.0
4,14.529000043869019,learn,45470.99995613098,Thu Oct 24 2024 15:36:52 GMT-0500 (Central Daylight Time),538830.5,A,windowenter,O,enter,388,1,2015.800000011921,536814.6999999881,7030,WL,B,5.0
4,15.062999963760376,learn,44937.000036239624,Thu Oct 24 2024 15:36:52 GMT-0500 (Central Daylight Time),539364.8999999762,A,w,O,w,528,1,534.1999999880791,538830.6999999881,7030,WL,B,6.0
4,15.19599986076355,learn,44804.00013923645,Thu Oct 24 2024 15:36:52 GMT-0500 (Central Daylight Time),539497.6999999881,A,wi,O,i,103,1,667.0,538830.6999999881,7030,WL,B,6.0
4,15.395999908447266,learn,44604.000091552734,Thu Oct 24 2024 15:36:52 GMT-0500 (Central Daylight Time),539697.5,A,wif,O,f,164,1,866.8000000119209,538830.6999999881,7030,WL,B,6.0
4,15.546000003814697,learn,44453.9999961853,Thu Oct 24 2024 15:36:52 GMT-0500 (Central Daylight Time),539847.8000000119,A,wife,O,e,116,1,1017.1000000238419,538830.6999999881,7030,WL,B,6.0
4,15.861999988555908,learn,44138.00001144409,Thu Oct 24 2024 15:36:52 GMT-0500 (Central Daylight Time),540163.3000000119,A,wifeenter,O,enter,275,1,1332.6000000238419,538830.6999999881,7030,WL,B,6.0
4,16.711999893188477,learn,43288.00010681152,Thu Oct 24 2024 15:36:52 GMT-0500 (Central Daylight Time),541013.3999999762,A,s,O,s,834,1,849.7999999523163,540163.6000000238,7030,WL,B,7.0
4,16.944999933242798,learn,43055.0000667572,Thu Oct 24 2024 15:36:52 GMT-0500 (Central Daylight Time),541247.1999999881,A,st,O,t,209,1,1083.5999999642372,540163.6000000238,7030,WL,B,7.0
4,17.128000020980835,learn,42871.999979019165,Thu Oct 24 2024 15:36:52 GMT-0500 (Central Daylight Time),541430.3000000119,A,sta,O,a,157,1,1266.699999988079,540163.6000000238,7030,WL,B,7.0
4,17.444999933242798,learn,42555.0000667572,Thu Oct 24 2024 15:36:52 GMT-0500 (Central Daylight Time),541747.1000000238,A,star,O,r,278,1,1583.5,540163.6000000238,7030,WL,B,7.0
4,18.66100001335144,learn,41338.99998664856,Thu Oct 24 2024 15:36:52 GMT-0500 (Central Daylight Time),542962.3999999762,A,starenter,O,enter,1185,1,2798.7999999523163,540163.6000000238,7030,WL,B,7.0
4,20.177000045776367,learn,39822.99995422363,Thu Oct 24 2024 15:36:52 GMT-0500 (Central Daylight Time),544479.3999999762,A,p,O,p,1508,1,1516.7999999523163,542962.6000000238,7030,WL,B,8.0
4,20.477999925613403,learn,39522.0000743866,Thu Oct 24 2024 15:36:52 GMT-0500 (Central Daylight Time),544779.5,A,pi,O,i,270,1,1816.8999999761581,542962.6000000238,7030,WL,B,8.0
4,20.694000005722046,learn,39305.999994277954,Thu Oct 24 2024 15:36:52 GMT-0500 (Central Daylight Time),544995.8999999762,A,pip,O,p,187,1,2033.2999999523163,542962.6000000238,7030,WL,B,8.0
4,21.043999910354614,learn,38956.000089645386,Thu Oct 24 2024 15:36:52 GMT-0500 (Central Daylight Time),545346.0,A,pipe,O,e,313,1,2383.399999976158,542962.6000000238,7030,WL,B,8.0
4,21.175999879837036,learn,38824.000120162964,Thu Oct 24 2024 15:36:52 GMT-0500 (Central Daylight Time),545478.1999999881,A,pipeenter,O,enter,106,1,2515.599999964237,542962.6000000238,7030,WL,B,8.0
4,21.80999994277954,learn,38190.00005722046,Thu Oct 24 2024 15:36:52 GMT-0500 (Central Daylight Time),546112.1999999881,A,c,O,c,616,1,633.6999999880791,545478.5,7030,WL,B,9.0
4,21.97699999809265,learn,38023.00000190735,Thu Oct 24 2024 15:36:52 GMT-0500 (Central Daylight Time),546278.6999999881,A,ca,O,a,133,1,800.1999999880791,545478.5,7030,WL,B,9.0
4,22.194000005722046,learn,37805.999994277954,Thu Oct 24 2024 15:36:52 GMT-0500 (Central Daylight Time),546495.3999999762,A,cab,O,b,183,1,1016.8999999761581,545478.5,7030,WL,B,9.0
4,22.65999984741211,learn,37340.00015258789,Thu Oct 24 2024 15:36:52 GMT-0500 (Central Daylight Time),546962.1000000238,A,cabi,O,i,430,1,1483.6000000238419,545478.5,7030,WL,B,9.0
4,22.8439998626709,learn,37156.0001373291,Thu Oct 24 2024 15:36:52 GMT-0500 (Central Daylight Time),547145.3000000119,A,cabin,O,n,147,1,1666.800000011921,545478.5,7030,WL,B,9.0
4,23.191999912261963,learn,36808.00008773804,Thu Oct 24 2024 15:36:52 GMT-0500 (Central Daylight Time),547494.3000000119,A,cabinenter,O,enter,321,1,2015.800000011921,545478.5,7030,WL,B,9.0
4,25.14299988746643,learn,34857.00011253357,Thu Oct 24 2024 15:36:52 GMT-0500 (Central Daylight Time),549444.5,A,s,O,s,1928,1,1950.0,547494.5,7030,WL,B,10.0
4,25.276000022888184,learn,34723.99997711182,Thu Oct 24 2024 15:36:52 GMT-0500 (Central Daylight Time),549577.6999999881,A,sk,O,k,96,1,2083.199999988079,547494.5,7030,WL,B,10.0
4,25.491999864578247,learn,34508.00013542175,Thu Oct 24 2024 15:36:52 GMT-0500 (Central Daylight Time),549794.3000000119,A,ski,O,i,186,1,2299.800000011921,547494.5,7030,WL,B,10.0
4,25.7260000705719,learn,34273.9999294281,Thu Oct 24 2024 15:36:52 GMT-0500 (Central Daylight Time),550027.8000000119,A,skin,O,n,198,1,2533.300000011921,547494.5,7030,WL,B,10.0
4,26.307999849319458,learn,33692.00015068054,Thu Oct 24 2024 15:36:52 GMT-0500 (Central Daylight Time),550610.0,A,skinenter,O,enter,545,1,3115.5,547494.5,7030,WL,B,10.0
4,27.441999912261963,learn,32558.000087738037,Thu Oct 24 2024 15:36:52 GMT-0500 (Central Daylight Time),551743.8000000119,A,d,O,d,1124,1,1133.5,550610.3000000119,7030,WL,B,11.0
4,27.85800004005432,learn,32141.99995994568,Thu Oct 24 2024 15:36:52 GMT-0500 (Central Daylight Time),552160.1000000238,A,,O,backspace,385,1,1549.800000011921,550610.3000000119,7030,WL,B,11.0
4,28.04200005531311,learn,31957.99994468689,Thu Oct 24 2024 15:36:52 GMT-0500 (Central Daylight Time),552343.3999999762,A,f,O,f,150,1,1733.0999999642372,550610.3000000119,7030,WL,B,11.0
4,28.191999912261963,learn,31808.000087738037,Thu Oct 24 2024 15:36:52 GMT-0500 (Central Daylight Time),552493.6000000238,A,fi,O,i,121,1,1883.300000011921,550610.3000000119,7030,WL,B,11.0
4,28.35800004005432,learn,31641.99995994568,Thu Oct 24 2024 15:36:52 GMT-0500 (Central Daylight Time),552660.1999999881,A,fir,O,r,130,1,2049.899999976158,550610.3000000119,7030,WL,B,11.0
4,28.424000024795532,learn,31575.999975204468,Thu Oct 24 2024 15:36:52 GMT-0500 (Central Daylight Time),552726.1999999881,A,fire,O,e,40,1,2115.899999976158,550610.3000000119,7030,WL,B,11.0
4,29.223999977111816,learn,30776.000022888184,Thu Oct 24 2024 15:36:52 GMT-0500 (Central Daylight Time),553525.6000000238,A,fireenter,O,enter,776,1,2915.300000011921,550610.3000000119,7030,WL,B,11.0
4,30.60699987411499,learn,29393.00012588501,Thu Oct 24 2024 15:36:52 GMT-0500 (Central Daylight Time),554908.6000000238,A,c,O,c,1367,1,1382.7000000476837,553525.8999999762,7030,WL,B,12.0
4,30.756999969482422,learn,29243.000030517578,Thu Oct 24 2024 15:36:52 GMT-0500 (Central Daylight Time),555059.3000000119,A,cl,O,l,127,1,1533.4000000357628,553525.8999999762,7030,WL,B,12.0
4,30.973999977111816,learn,29026.000022888184,Thu Oct 24 2024 15:36:52 GMT-0500 (Central Daylight Time),555275.5,A,clo,O,o,185,1,1749.6000000238419,553525.8999999762,7030,WL,B,12.0
4,31.10699987411499,learn,28893.00012588501,Thu Oct 24 2024 15:36:52 GMT-0500 (Central Daylight Time),555409.1999999881,A,cloc,O,c,102,1,1883.300000011921,553525.8999999762,7030,WL,B,12.0
4,31.240999937057495,learn,28759.000062942505,Thu Oct 24 2024 15:36:52 GMT-0500 (Central Daylight Time),555542.3999999762,A,clock,O,k,98,1,2016.5,553525.8999999762,7030,WL,B,12.0
4,31.6729998588562,learn,28327.0001411438,Thu Oct 24 2024 15:36:52 GMT-0500 (Central Daylight Time),555974.8999999762,A,clockenter,O,enter,397,1,2449.0,553525.8999999762,7030,WL,B,12.0
4,32.40700006484985,learn,27592.999935150146,Thu Oct 24 2024 15:36:52 GMT-0500 (Central Daylight Time),556708.5,A,p,O,p,720,1,733.5,555975.0,7030,WL,B,13.0
4,32.73900008201599,learn,27260.99991798401,Thu Oct 24 2024 15:36:52 GMT-0500 (Central Daylight Time),557041.0,A,pu,O,u,309,1,1066.0,555975.0,7030,WL,B,13.0
4,32.9229998588562,learn,27077.0001411438,Thu Oct 24 2024 15:36:52 GMT-0500 (Central Daylight Time),557224.3000000119,A,pup,O,p,172,1,1249.300000011921,555975.0,7030,WL,B,13.0
4,34.40599989891052,learn,25594.000101089478,Thu Oct 24 2024 15:36:52 GMT-0500 (Central Daylight Time),558707.8999999762,A,pupi,O,i,1469,1,2732.899999976158,555975.0,7030,WL,B,13.0
4,34.573999881744385,learn,25426.000118255615,Thu Oct 24 2024 15:36:52 GMT-0500 (Central Daylight Time),558875.3999999762,A,pupil,O,l,127,1,2900.399999976158,555975.0,7030,WL,B,13.0
4,35.2720000743866,learn,24727.999925613403,Thu Oct 24 2024 15:36:52 GMT-0500 (Central Daylight Time),559573.6000000238,A,pupilenter,O,enter,663,1,3598.600000023842,555975.0,7030,WL,B,13.0
4,45.819000005722046,learn,14180.999994277954,Thu Oct 24 2024 15:36:52 GMT-0500 (Central Daylight Time),570121.0,A,c,O,c,10537,1,10547.199999988079,559573.8000000119,7030,WL,B,14.0
4,46.001999855041504,learn,13998.000144958496,Thu Oct 24 2024 15:36:52 GMT-0500 (Central Daylight Time),570303.8000000119,A,ci,O,i,154,1,10730.0,559573.8000000119,7030,WL,B,14.0
4,46.11899995803833,learn,13881.00004196167,Thu Oct 24 2024 15:36:52 GMT-0500 (Central Daylight Time),570420.8999999762,A,cit,O,t,103,1,10847.099999964237,559573.8000000119,7030,WL,B,14.0
4,46.236000061035156,learn,13763.999938964844,Thu Oct 24 2024 15:36:52 GMT-0500 (Central Daylight Time),570537.3999999762,A,city,O,y,94,1,10963.599999964237,559573.8000000119,7030,WL,B,14.0
4,46.484999895095825,learn,13515.000104904175,Thu Oct 24 2024 15:36:52 GMT-0500 (Central Daylight Time),570786.6000000238,A,cityenter,O,enter,212,1,11212.800000011921,559573.8000000119,7030,WL,B,14.0
4,58.31500005722046,learn,1684.999942779541,Thu Oct 24 2024 15:36:52 GMT-0500 (Central Daylight Time),582617.1000000238,A,s,O,s,11820,1,11830.300000011921,570786.8000000119,7030,WL,B,15.0
4,60.03099989891052,learn,-30.99989891052246,Thu Oct 24 2024 15:36:52 GMT-0500 (Central Daylight Time),584333.3000000119,A,sNone,O,None,1691,1,13546.5,570786.8000000119,7030,WL,B,15.0
5,0.7170000076293945,learn,60000.0,Thu Oct 24 2024 15:36:52 GMT-0500 (Central Daylight Time),655293.6000000238,A,s,O,s,687,1,716.9000000357628,654576.6999999881,7030,WL,B,1.0
5,1.1010000705718994,learn,60000.0,Thu Oct 24 2024 15:36:52 GMT-0500 (Central Daylight Time),655677.0,A,st,O,t,358,1,1100.300000011921,654576.6999999881,7030,WL,B,1.0
5,1.5,learn,60000.0,Thu Oct 24 2024 15:36:52 GMT-0500 (Central Daylight Time),656076.1000000238,A,str,O,r,368,1,1499.4000000357628,654576.6999999881,7030,WL,B,1.0
5,1.7170000076293945,learn,60000.0,Thu Oct 24 2024 15:36:52 GMT-0500 (Central Daylight Time),656292.6999999881,A,stre,O,e,184,1,1716.0,654576.6999999881,7030,WL,B,1.0
5,1.9170000553131104,learn,60000.0,Thu Oct 24 2024 15:36:52 GMT-0500 (Central Daylight Time),656492.8000000119,A,stree,O,e,176,1,1916.1000000238419,654576.6999999881,7030,WL,B,1.0
5,2.117000102996826,learn,60000.0,Thu Oct 24 2024 15:36:52 GMT-0500 (Central Daylight Time),656692.8999999762,A,street,O,t,179,1,2116.199999988079,654576.6999999881,7030,WL,B,1.0
5,2.7320001125335693,learn,60000.0,Thu Oct 24 2024 15:36:52 GMT-0500 (Central Daylight Time),657308.1000000238,A,streetenter,O,enter,591,1,2731.400000035763,654576.6999999881,7030,WL,B,1.0
5,3.366000175476074,learn,60000.0,Thu Oct 24 2024 15:36:52 GMT-0500 (Central Daylight Time),657942.1999999881,A,g,O,g,626,1,633.8000000119209,657308.3999999762,7030,WL,B,2.0
5,3.616000175476074,learn,60000.0,Thu Oct 24 2024 15:36:52 GMT-0500 (Central Daylight Time),658192.1000000238,A,gr,O,r,214,1,883.7000000476837,657308.3999999762,7030,WL,B,2.0
5,3.8330001831054688,learn,60000.0,Thu Oct 24 2024 15:36:52 GMT-0500 (Central Daylight Time),658408.6999999881,A,gra,O,a,181,1,1100.300000011921,657308.3999999762,7030,WL,B,2.0
5,4.0990002155303955,learn,60000.0,Thu Oct 24 2024 15:36:52 GMT-0500 (Central Daylight Time),658675.1000000238,A,gras,O,s,238,1,1366.7000000476837,657308.3999999762,7030,WL,B,2.0
5,4.31600022315979,learn,60000.0,Thu Oct 24 2024 15:36:52 GMT-0500 (Central Daylight Time),658891.8000000119,A,grass,O,s,186,1,1583.4000000357628,657308.3999999762,7030,WL,B,2.0
5,4.8480000495910645,learn,60000.0,Thu Oct 24 2024 15:36:52 GMT-0500 (Central Daylight Time),659424.1999999881,A,grassenter,O,enter,499,1,2115.800000011921,657308.3999999762,7030,WL,B,2.0
5,5.182000160217285,learn,60000.0,Thu Oct 24 2024 15:36:52 GMT-0500 (Central Daylight Time),659758.1999999881,A,d,O,d,318,1,333.69999998807907,659424.5,7030,WL,B,3.0
5,5.449000120162964,learn,60000.0,Thu Oct 24 2024 15:36:52 GMT-0500 (Central Daylight Time),660024.6999999881,A,do,O,o,238,1,600.1999999880791,659424.5,7030,WL,B,3.0
5,5.64900016784668,learn,60000.0,Thu Oct 24 2024 15:36:52 GMT-0500 (Central Daylight Time),660224.8999999762,A,doo,O,o,164,1,800.3999999761581,659424.5,7030,WL,B,3.0
5,5.8490002155303955,learn,60000.0,Thu Oct 24 2024 15:36:52 GMT-0500 (Central Daylight Time),660424.8999999762,A,door,O,r,166,1,1000.3999999761581,659424.5,7030,WL,B,3.0
5,6.214000225067139,learn,60000.0,Thu Oct 24 2024 15:36:52 GMT-0500 (Central Daylight Time),660790.3000000119,A,doorenter,O,enter,338,1,1365.800000011921,659424.5,7030,WL,B,3.0
5,6.565000057220459,learn,60000.0,Thu Oct 24 2024 15:36:52 GMT-0500 (Central Daylight Time),661141.1000000238,A,a,O,a,343,1,350.60000002384186,660790.5,7030,WL,B,4.0
5,6.7820000648498535,learn,60000.0,Thu Oct 24 2024 15:36:52 GMT-0500 (Central Daylight Time),661357.6999999881,A,ar,O,r,184,1,567.1999999880791,660790.5,7030,WL,B,4.0
5,7.04800009727478,learn,60000.0,Thu Oct 24 2024 15:36:52 GMT-0500 (Central Daylight Time),661624.1000000238,A,arm,O,m,231,1,833.6000000238419,660790.5,7030,WL,B,4.0
5,7.647000074386597,learn,60000.0,Thu Oct 24 2024 15:36:52 GMT-0500 (Central Daylight Time),662223.1999999881,A,armenter,O,enter,563,1,1432.699999988079,660790.5,7030,WL,B,4.0
5,8.115000009536743,learn,60000.0,Thu Oct 24 2024 15:36:52 GMT-0500 (Central Daylight Time),662690.6000000238,A,s,O,s,447,1,467.2000000476837,662223.3999999762,7030,WL,B,5.0
5,8.281000137329102,learn,60000.0,Thu Oct 24 2024 15:36:52 GMT-0500 (Central Daylight Time),662857.3999999762,A,st,O,t,127,1,634.0,662223.3999999762,7030,WL,B,5.0
5,8.481000185012817,learn,60000.0,Thu Oct 24 2024 15:36:52 GMT-0500 (Central Daylight Time),663057.1000000238,A,sta,O,a,169,1,833.7000000476837,662223.3999999762,7030,WL,B,5.0
5,8.614000082015991,learn,60000.0,Thu Oct 24 2024 15:36:52 GMT-0500 (Central Daylight Time),663190.3999999762,A,star,O,r,107,1,967.0,662223.3999999762,7030,WL,B,5.0
5,9.380000114440918,learn,60000.0,Thu Oct 24 2024 15:36:52 GMT-0500 (Central Daylight Time),663955.8999999762,A,starenter,O,enter,742,1,1732.5,662223.3999999762,7030,WL,B,5.0
5,10.364000082015991,learn,60000.0,Thu Oct 24 2024 15:36:52 GMT-0500 (Central Daylight Time),664939.8999999762,A,w,O,w,962,1,983.6999999880791,663956.1999999881,7030,WL,B,6.0
5,10.53000020980835,learn,60000.0,Thu Oct 24 2024 15:36:52 GMT-0500 (Central Daylight Time),665106.3999999762,A,wi,O,i,137,1,1150.199999988079,663956.1999999881,7030,WL,B,6.0
5,10.747000217437744,learn,60000.0,Thu Oct 24 2024 15:36:52 GMT-0500 (Central Daylight Time),665323.1000000238,A,wif,O,f,186,1,1366.9000000357628,663956.1999999881,7030,WL,B,6.0
5,10.897000074386597,learn,60000.0,Thu Oct 24 2024 15:36:52 GMT-0500 (Central Daylight Time),665472.8999999762,A,wife,O,e,113,1,1516.699999988079,663956.1999999881,7030,WL,B,6.0
5,11.496000051498413,learn,60000.0,Thu Oct 24 2024 15:36:52 GMT-0500 (Central Daylight Time),666071.8000000119,A,wifeenter,O,enter,572,1,2115.600000023842,663956.1999999881,7030,WL,B,6.0
5,11.980000019073486,learn,60000.0,Thu Oct 24 2024 15:36:52 GMT-0500 (Central Daylight Time),666556.1000000238,A,c,O,c,471,1,484.0,666072.1000000238,7030,WL,B,7.0
5,12.130000114440918,learn,60000.0,Thu Oct 24 2024 15:36:52 GMT-0500 (Central Daylight Time),666706.1000000238,A,ci,O,i,123,1,634.0,666072.1000000238,7030,WL,B,7.0
5,12.28000020980835,learn,60000.0,Thu Oct 24 2024 15:36:52 GMT-0500 (Central Daylight Time),666855.6999999881,A,cit,O,t,115,1,783.5999999642372,666072.1000000238,7030,WL,B,7.0
5,12.413000106811523,learn,60000.0,Thu Oct 24 2024 15:36:52 GMT-0500 (Central Daylight Time),666989.0,A,city,O,y,111,1,916.8999999761581,666072.1000000238,7030,WL,B,7.0
5,13.146000146865845,learn,60000.0,Thu Oct 24 2024 15:36:52 GMT-0500 (Central Daylight Time),667721.3999999762,A,cityenter,O,enter,695,1,1649.2999999523163,666072.1000000238,7030,WL,B,7.0
5,15.01200008392334,learn,60000.0,Thu Oct 24 2024 15:36:52 GMT-0500 (Central Daylight Time),669588.1999999881,A,c,O,c,1845,1,1866.5,667721.6999999881,7030,WL,B,8.0
5,15.17900013923645,learn,60000.0,Thu Oct 24 2024 15:36:52 GMT-0500 (Central Daylight Time),669755.0,A,ca,O,a,140,1,2033.300000011921,667721.6999999881,7030,WL,B,8.0
5,15.795000076293945,learn,60000.0,Thu Oct 24 2024 15:36:52 GMT-0500 (Central Daylight Time),670371.3000000119,A,cab,O,b,586,1,2649.600000023842,667721.6999999881,7030,WL,B,8.0
5,16.01200008392334,learn,60000.0,Thu Oct 24 2024 15:36:52 GMT-0500 (Central Daylight Time),670587.8999999762,A,cabi,O,i,177,1,2866.199999988079,667721.6999999881,7030,WL,B,8.0
5,16.195000171661377,learn,60000.0,Thu Oct 24 2024 15:36:52 GMT-0500 (Central Daylight Time),670771.1000000238,A,cabin,O,n,145,1,3049.400000035763,667721.6999999881,7030,WL,B,8.0
5,16.511000156402588,learn,60000.0,Thu Oct 24 2024 15:36:52 GMT-0500 (Central Daylight Time),671087.0,A,cabinenter,O,enter,289,1,3365.300000011921,667721.6999999881,7030,WL,B,8.0
5,17.09500002861023,learn,60000.0,Thu Oct 24 2024 15:36:52 GMT-0500 (Central Daylight Time),671671.1000000238,A,l,O,l,575,1,583.9000000357628,671087.1999999881,7030,WL,B,9.0
5,17.312000036239624,learn,60000.0,Thu Oct 24 2024 15:36:52 GMT-0500 (Central Daylight Time),671887.5,A,la,O,a,191,1,800.3000000119209,671087.1999999881,7030,WL,B,9.0
5,17.445000171661377,learn,60000.0,Thu Oct 24 2024 15:36:52 GMT-0500 (Central Daylight Time),672021.1000000238,A,lak,O,k,101,1,933.9000000357628,671087.1999999881,7030,WL,B,9.0
5,17.545000076293945,learn,60000.0,Thu Oct 24 2024 15:36:52 GMT-0500 (Central Daylight Time),672120.8000000119,A,lake,O,e,71,1,1033.6000000238419,671087.1999999881,7030,WL,B,9.0
5,18.24400019645691,learn,60000.0,Thu Oct 24 2024 15:36:52 GMT-0500 (Central Daylight Time),672819.6999999881,A,lakeenter,O,enter,666,1,1732.5,671087.1999999881,7030,WL,B,9.0
5,18.944000005722046,learn,60000.0,Thu Oct 24 2024 15:36:52 GMT-0500 (Central Daylight Time),673520.3999999762,A,p,O,p,691,1,700.5,672819.8999999762,7030,WL,B,10.0
5,19.16100001335144,learn,60000.0,Thu Oct 24 2024 15:36:52 GMT-0500 (Central Daylight Time),673737.1000000238,A,pi,O,i,181,1,917.2000000476837,672819.8999999762,7030,WL,B,10.0
5,19.344000101089478,learn,60000.0,Thu Oct 24 2024 15:36:52 GMT-0500 (Central Daylight Time),673920.3000000119,A,pip,O,p,148,1,1100.4000000357628,672819.8999999762,7030,WL,B,10.0
5,20.061000108718872,learn,60000.0,Thu Oct 24 2024 15:36:52 GMT-0500 (Central Daylight Time),674636.8000000119,A,pipe,O,e,686,1,1816.9000000357628,672819.8999999762,7030,WL,B,10.0
5,20.243000030517578,learn,60000.0,Thu Oct 24 2024 15:36:52 GMT-0500 (Central Daylight Time),674819.0,A,pipeenter,O,enter,160,1,1999.1000000238419,672819.8999999762,7030,WL,B,10.0
5,21.927000045776367,learn,60000.0,Thu Oct 24 2024 15:36:52 GMT-0500 (Central Daylight Time),676502.6999999881,A,s,O,s,1675,1,1683.5,674819.1999999881,7030,WL,B,11.0
5,22.110000133514404,learn,60000.0,Thu Oct 24 2024 15:36:52 GMT-0500 (Central Daylight Time),676685.6000000238,A,sk,O,k,156,1,1866.4000000357628,674819.1999999881,7030,WL,B,11.0
5,22.31000018119812,learn,60000.0,Thu Oct 24 2024 15:36:52 GMT-0500 (Central Daylight Time),676885.6000000238,A,ski,O,i,180,1,2066.400000035763,674819.1999999881,7030,WL,B,11.0
5,22.509999990463257,learn,60000.0,Thu Oct 24 2024 15:36:52 GMT-0500 (Central Daylight Time),677085.8999999762,A,skin,O,n,168,1,2266.699999988079,674819.1999999881,7030,WL,B,11.0
5,23.009000062942505,learn,60000.0,Thu Oct 24 2024 15:36:52 GMT-0500 (Central Daylight Time),677584.6000000238,A,skinenter,O,enter,459,1,2765.400000035763,674819.1999999881,7030,WL,B,11.0
5,23.843000173568726,learn,60000.0,Thu Oct 24 2024 15:36:52 GMT-0500 (Central Daylight Time),678418.8999999762,A,f,O,f,813,1,834.0,677584.8999999762,7030,WL,B,12.0
5,24.009000062942505,learn,60000.0,Thu Oct 24 2024 15:36:52 GMT-0500 (Central Daylight Time),678585.3000000119,A,fi,O,i,139,1,1000.4000000357628,677584.8999999762,7030,WL,B,12.0
5,24.12600016593933,learn,60000.0,Thu Oct 24 2024 15:36:52 GMT-0500 (Central Daylight Time),678701.6999999881,A,fir,O,r,92,1,1116.800000011921,677584.8999999762,7030,WL,B,12.0
5,24.359000205993652,learn,60000.0,Thu Oct 24 2024 15:36:52 GMT-0500 (Central Daylight Time),678935.1999999881,A,fire,O,e,199,1,1350.300000011921,677584.8999999762,7030,WL,B,12.0
5,24.9760000705719,learn,60000.0,Thu Oct 24 2024 15:36:52 GMT-0500 (Central Daylight Time),679551.8999999762,A,fireenter,O,enter,589,1,1967.0,677584.8999999762,7030,WL,B,12.0
5,25.442000150680542,learn,60000.0,Thu Oct 24 2024 15:36:52 GMT-0500 (Central Daylight Time),680018.0,A,c,O,c,447,1,465.89999997615814,679552.1000000238,7030,WL,B,13.0
5,25.592000007629395,learn,60000.0,Thu Oct 24 2024 15:36:52 GMT-0500 (Central Daylight Time),680168.1999999881,A,cl,O,l,125,1,616.0999999642372,679552.1000000238,7030,WL,B,13.0
5,25.825000047683716,learn,60000.0,Thu Oct 24 2024 15:36:52 GMT-0500 (Central Daylight Time),680401.3000000119,A,clo,O,o,197,1,849.1999999880791,679552.1000000238,7030,WL,B,13.0
5,25.942000150680542,learn,60000.0,Thu Oct 24 2024 15:36:52 GMT-0500 (Central Daylight Time),680517.6999999881,A,cloc,O,c,93,1,965.5999999642372,679552.1000000238,7030,WL,B,13.0
5,26.075000047683716,learn,60000.0,Thu Oct 24 2024 15:36:52 GMT-0500 (Central Daylight Time),680651.5,A,clock,O,k,102,1,1099.3999999761581,679552.1000000238,7030,WL,B,13.0
5,26.841000080108643,learn,60000.0,Thu Oct 24 2024 15:36:52 GMT-0500 (Central Daylight Time),681417.0,A,clockenter,O,enter,736,1,1864.8999999761581,679552.1000000238,7030,WL,B,13.0
5,29.591000080108643,learn,60000.0,Thu Oct 24 2024 15:36:52 GMT-0500 (Central Daylight Time),684166.8000000119,A,p,O,p,2742,1,2749.5,681417.3000000119,7030,WL,B,14.0
5,29.974000215530396,learn,60000.0,Thu Oct 24 2024 15:36:52 GMT-0500 (Central Daylight Time),684550.1000000238,A,pu,O,u,349,1,3132.800000011921,681417.3000000119,7030,WL,B,14.0
5,30.224000215530396,learn,60000.0,Thu Oct 24 2024 15:36:52 GMT-0500 (Central Daylight Time),684800.0,A,pup,O,p,215,1,3382.699999988079,681417.3000000119,7030,WL,B,14.0
5,30.640000104904175,learn,60000.0,Thu Oct 24 2024 15:36:52 GMT-0500 (Central Daylight Time),685216.3000000119,A,pupi,O,i,389,1,3799.0,681417.3000000119,7030,WL,B,14.0
5,30.807000160217285,learn,60000.0,Thu Oct 24 2024 15:36:52 GMT-0500 (Central Daylight Time),685383.0,A,pupil,O,l,142,1,3965.699999988079,681417.3000000119,7030,WL,B,14.0
5,31.50600004196167,learn,60000.0,Thu Oct 24 2024 15:36:52 GMT-0500 (Central Daylight Time),686081.8999999762,A,pupilenter,O,enter,669,1,4664.599999964237,681417.3000000119,7030,WL,B,14.0
5,39.771000146865845,learn,60000.0,Thu Oct 24 2024 15:36:52 GMT-0500 (Central Daylight Time),694346.8999999762,A,w,O,w,8245,1,8264.599999964237,686082.3000000119,7030,WL,B,15.0
5,39.90400004386902,learn,60000.0,Thu Oct 24 2024 15:36:52 GMT-0500 (Central Daylight Time),694479.6000000238,A,wi,O,i,104,1,8397.300000011921,686082.3000000119,7030,WL,B,15.0
5,40.12100005149841,learn,60000.0,Thu Oct 24 2024 15:36:52 GMT-0500 (Central Daylight Time),694696.8000000119,A,win,O,n,199,1,8614.5,686082.3000000119,7030,WL,B,15.0
5,40.22000002861023,learn,60000.0,Thu Oct 24 2024 15:36:52 GMT-0500 (Central Daylight Time),694796.0,A,wind,O,d,77,1,8713.699999988079,686082.3000000119,7030,WL,B,15.0
5,40.4210000038147,learn,60000.0,Thu Oct 24 2024 15:36:52 GMT-0500 (Central Daylight Time),694996.8999999762,A,windo,O,o,187,1,8914.599999964237,686082.3000000119,7030,WL,B,15.0
5,40.604000091552734,learn,60000.0,Thu Oct 24 2024 15:36:52 GMT-0500 (Central Daylight Time),695179.6999999881,A,windoe,O,e,146,1,9097.399999976158,686082.3000000119,7030,WL,B,15.0
5,41.337000131607056,learn,60000.0,Thu Oct 24 2024 15:36:52 GMT-0500 (Central Daylight Time),695913.0,A,windo,O,backspace,695,1,9830.699999988079,686082.3000000119,7030,WL,B,15.0
5,41.48700022697449,learn,60000.0,Thu Oct 24 2024 15:36:52 GMT-0500 (Central Daylight Time),696062.8000000119,A,window,O,w,116,1,9980.5,686082.3000000119,7030,WL,B,15.0
5,41.6710000038147,learn,60000.0,Thu Oct 24 2024 15:36:52 GMT-0500 (Central Daylight Time),696246.5,A,windowenter,O,enter,156,1,10164.199999988079,686082.3000000119,7030,WL,B,15.0
6,0.8670001029968262,distr,59132.999897003174,Thu Oct 24 2024 15:36:52 GMT-0500 (Central Daylight Time),775537.1999999881,B,b,O,b,841,1,866.6999999880791,774670.5,7030,WL,B,1.0
6,1.4170000553131104,distr,58582.99994468689,Thu Oct 24 2024 15:36:52 GMT-0500 (Central Daylight Time),776087.0,B,ba,O,a,515,1,1416.5,774670.5,7030,WL,B,1.0
6,1.567000150680542,distr,58432.99984931946,Thu Oct 24 2024 15:36:52 GMT-0500 (Central Daylight Time),776236.8000000119,B,bab,O,b,126,1,1566.300000011921,774670.5,7030,WL,B,1.0
6,2.2660000324249268,distr,57733.99996757507,Thu Oct 24 2024 15:36:52 GMT-0500 (Central Daylight Time),776936.3000000119,B,baby,O,y,665,1,2265.800000011921,774670.5,7030,WL,B,1.0
6,2.765000104904175,distr,57234.999895095825,Thu Oct 24 2024 15:36:52 GMT-0500 (Central Daylight Time),777435.3000000119,B,babyenter,O,enter,470,1,2764.800000011921,774670.5,7030,WL,B,1.0
6,4.965000152587891,distr,55034.99984741211,Thu Oct 24 2024 15:36:52 GMT-0500 (Central Daylight Time),779635.5,B,o,O,o,2179,1,2200.0,777435.5,7030,WL,B,2.0
6,5.082000017166138,distr,54917.99998283386,Thu Oct 24 2024 15:36:52 GMT-0500 (Central Daylight Time),779752.1999999881,B,oc,O,c,91,1,2316.699999988079,777435.5,7030,WL,B,2.0
6,5.365000009536743,distr,54634.99999046326,Thu Oct 24 2024 15:36:52 GMT-0500 (Central Daylight Time),780035.1999999881,B,oce,O,e,246,1,2599.699999988079,777435.5,7030,WL,B,2.0
6,5.515000104904175,distr,54484.999895095825,Thu Oct 24 2024 15:36:52 GMT-0500 (Central Daylight Time),780185.3000000119,B,ocea,O,a,114,1,2749.800000011921,777435.5,7030,WL,B,2.0
6,6.715000152587891,distr,53284.99984741211,Thu Oct 24 2024 15:36:52 GMT-0500 (Central Daylight Time),781384.8999999762,B,ocean,O,n,1162,1,3949.399999976158,777435.5,7030,WL,B,2.0
6,6.996999979019165,distr,53003.000020980835,Thu Oct 24 2024 15:36:52 GMT-0500 (Central Daylight Time),781667.3000000119,B,oceanenter,O,enter,243,1,4231.800000011921,777435.5,7030,WL,B,2.0
6,7.781000137329102,distr,52218.9998626709,Thu Oct 24 2024 15:36:52 GMT-0500 (Central Daylight Time),782451.1000000238,B,p,O,p,771,1,783.6000000238419,781667.5,7030,WL,B,3.0
6,8.031000137329102,distr,51968.9998626709,Thu Oct 24 2024 15:36:52 GMT-0500 (Central Daylight Time),782700.8999999762,B,pa,O,a,225,1,1033.3999999761581,781667.5,7030,WL,B,3.0
6,8.231000185012817,distr,51768.99981498718,Thu Oct 24 2024 15:36:52 GMT-0500 (Central Daylight Time),782900.8999999762,B,pal,O,l,176,1,1233.3999999761581,781667.5,7030,WL,B,3.0
6,8.531000137329102,distr,51468.9998626709,Thu Oct 24 2024 15:36:52 GMT-0500 (Central Daylight Time),783200.8999999762,B,pala,O,a,272,1,1533.3999999761581,781667.5,7030,WL,B,3.0
6,8.814000129699707,distr,51185.99987030029,Thu Oct 24 2024 15:36:52 GMT-0500 (Central Daylight Time),783484.0,B,palac,O,c,251,1,1816.5,781667.5,7030,WL,B,3.0
6,9.015000104904175,distr,50984.999895095825,Thu Oct 24 2024 15:36:52 GMT-0500 (Central Daylight Time),783684.6000000238,B,palace,O,e,177,1,2017.1000000238419,781667.5,7030,WL,B,3.0
6,9.213000059127808,distr,50786.99994087219,Thu Oct 24 2024 15:36:52 GMT-0500 (Central Daylight Time),783883.1000000238,B,palaceenter,O,enter,167,1,2215.600000023842,781667.5,7030,WL,B,3.0
6,10.047000169754028,distr,49952.99983024597,Thu Oct 24 2024 15:36:52 GMT-0500 (Central Daylight Time),784717.1000000238,B,b,O,b,811,1,833.6000000238419,783883.5,7030,WL,B,4.0
6,10.180000066757202,distr,49819.9999332428,Thu Oct 24 2024 15:36:52 GMT-0500 (Central Daylight Time),784850.3000000119,B,ba,O,a,96,1,966.8000000119209,783883.5,7030,WL,B,4.0
6,10.397000074386597,distr,49602.9999256134,Thu Oct 24 2024 15:36:52 GMT-0500 (Central Daylight Time),785067.0,B,bar,O,r,179,1,1183.5,783883.5,7030,WL,B,4.0
6,10.963000059127808,distr,49036.99994087219,Thu Oct 24 2024 15:36:52 GMT-0500 (Central Daylight Time),785632.6000000238,B,barenter,O,enter,529,1,1749.1000000238419,783883.5,7030,WL,B,4.0
6,12.647000074386597,distr,47352.9999256134,Thu Oct 24 2024 15:36:52 GMT-0500 (Central Daylight Time),787316.6000000238,B,r,O,r,1677,1,1683.800000011921,785632.8000000119,7030,WL,B,5.0
6,12.830000162124634,distr,47169.999837875366,Thu Oct 24 2024 15:36:52 GMT-0500 (Central Daylight Time),787499.6000000238,B,ro,O,o,144,1,1866.800000011921,785632.8000000119,7030,WL,B,5.0
6,13.046000003814697,distr,46953.9999961853,Thu Oct 24 2024 15:36:52 GMT-0500 (Central Daylight Time),787716.3000000119,B,roc,O,c,193,1,2083.5,785632.8000000119,7030,WL,B,5.0
6,13.162000179290771,distr,46837.99982070923,Thu Oct 24 2024 15:36:52 GMT-0500 (Central Daylight Time),787832.5,B,rock,O,k,87,1,2199.699999988079,785632.8000000119,7030,WL,B,5.0
6,13.796000003814697,distr,46203.9999961853,Thu Oct 24 2024 15:36:52 GMT-0500 (Central Daylight Time),788466.1000000238,B,rockenter,O,enter,596,1,2833.300000011921,785632.8000000119,7030,WL,B,5.0
6,15.82800006866455,distr,44171.99993133545,Thu Oct 24 2024 15:36:52 GMT-0500 (Central Daylight Time),790498.5,B,c,O,c,2020,1,2032.1000000238419,788466.3999999762,7030,WL,B,6.0
6,16.07800006866455,distr,43921.99993133545,Thu Oct 24 2024 15:36:52 GMT-0500 (Central Daylight Time),790748.1999999881,B,ce,O,e,219,1,2281.800000011921,788466.3999999762,7030,WL,B,6.0
6,16.278000116348267,distr,43721.99988365173,Thu Oct 24 2024 15:36:52 GMT-0500 (Central Daylight Time),790948.3999999762,B,cel,O,l,161,1,2482.0,788466.3999999762,7030,WL,B,6.0
6,16.728000164031982,distr,43271.99983596802,Thu Oct 24 2024 15:36:52 GMT-0500 (Central Daylight Time),791398.1999999881,B,cell,O,l,425,1,2931.800000011921,788466.3999999762,7030,WL,B,6.0
6,17.294000148773193,distr,42705.99985122681,Thu Oct 24 2024 15:36:52 GMT-0500 (Central Daylight Time),791963.6999999881,B,cellenter,O,enter,533,1,3497.300000011921,788466.3999999762,7030,WL,B,6.0
6,17.710999965667725,distr,42289.000034332275,Thu Oct 24 2024 15:36:52 GMT-0500 (Central Daylight Time),792380.8999999762,B,a,O,a,403,1,416.89999997615814,791964.0,7030,WL,B,7.0
6,17.91100001335144,distr,42088.99998664856,Thu Oct 24 2024 15:36:52 GMT-0500 (Central Daylight Time),792581.3000000119,B,ar,O,r,161,1,617.3000000119209,791964.0,7030,WL,B,7.0
6,18.07800006866455,distr,41921.99993133545,Thu Oct 24 2024 15:36:52 GMT-0500 (Central Daylight Time),792748.0,B,arm,O,m,131,1,784.0,791964.0,7030,WL,B,7.0
6,18.694000005722046,distr,41305.999994277954,Thu Oct 24 2024 15:36:52 GMT-0500 (Central Daylight Time),793364.3999999762,B,army,O,y,577,1,1400.3999999761581,791964.0,7030,WL,B,7.0
6,19.16000008583069,distr,40839.99991416931,Thu Oct 24 2024 15:36:52 GMT-0500 (Central Daylight Time),793829.8999999762,B,armyenter,O,enter,431,1,1865.8999999761581,791964.0,7030,WL,B,7.0
6,27.558000087738037,distr,32441.999912261963,Thu Oct 24 2024 15:36:52 GMT-0500 (Central Daylight Time),802228.1999999881,B,v,O,v,8376,1,8398.099999964237,793830.1000000238,7030,WL,B,8.0
6,27.758000135421753,distr,32241.999864578247,Thu Oct 24 2024 15:36:52 GMT-0500 (Central Daylight Time),802427.8999999762,B,vi,O,i,164,1,8597.799999952316,793830.1000000238,7030,WL,B,8.0
6,27.907999992370605,distr,32092.000007629395,Thu Oct 24 2024 15:36:52 GMT-0500 (Central Daylight Time),802577.6999999881,B,vil,O,l,114,1,8747.599999964237,793830.1000000238,7030,WL,B,8.0
6,28.058000087738037,distr,31941.999912261963,Thu Oct 24 2024 15:36:52 GMT-0500 (Central Daylight Time),802727.8999999762,B,vill,O,l,116,1,8897.799999952316,793830.1000000238,7030,WL,B,8.0
6,28.223999977111816,distr,31776.000022888184,Thu Oct 24 2024 15:36:52 GMT-0500 (Central Daylight Time),802894.3000000119,B,villa,O,a,132,1,9064.199999988079,793830.1000000238,7030,WL,B,8.0
6,28.508000135421753,distr,31491.999864578247,Thu Oct 24 2024 15:36:52 GMT-0500 (Central Daylight Time),803177.8000000119,B,villag,O,g,247,1,9347.699999988079,793830.1000000238,7030,WL,B,8.0
6,28.624000072479248,distr,31375.999927520752,Thu Oct 24 2024 15:36:52 GMT-0500 (Central Daylight Time),803294.1000000238,B,village,O,e,91,1,9464.0,793830.1000000238,7030,WL,B,8.0
6,29.10700011253357,distr,30892.99988746643,Thu Oct 24 2024 15:36:52 GMT-0500 (Central Daylight Time),803776.6000000238,B,villageenter,O,enter,454,1,9946.5,793830.1000000238,7030,WL,B,8.0
6,35.25500011444092,distr,24744.999885559082,Thu Oct 24 2024 15:36:52 GMT-0500 (Central Daylight Time),809925.6000000238,B,l,O,l,6134,1,6148.700000047684,803776.8999999762,7030,WL,B,9.0
6,35.5220000743866,distr,24477.999925613403,Thu Oct 24 2024 15:36:52 GMT-0500 (Central Daylight Time),810192.0,B,li,O,i,231,1,6415.100000023842,803776.8999999762,7030,WL,B,9.0
6,35.75500011444092,distr,24244.999885559082,Thu Oct 24 2024 15:36:52 GMT-0500 (Central Daylight Time),810425.0,B,lip,O,p,205,1,6648.100000023842,803776.8999999762,7030,WL,B,9.0
6,36.021000146865845,distr,23978.999853134155,Thu Oct 24 2024 15:36:52 GMT-0500 (Central Daylight Time),810691.1000000238,B,lipenter,O,enter,243,1,6914.200000047684,803776.8999999762,7030,WL,B,9.0
6,46.652000188827515,distr,13347.999811172485,Thu Oct 24 2024 15:36:52 GMT-0500 (Central Daylight Time),821321.6999999881,B,c,O,c,10611,1,10630.399999976158,810691.3000000119,7030,WL,B,10.0
6,46.83500003814697,distr,13164.999961853027,Thu Oct 24 2024 15:36:52 GMT-0500 (Central Daylight Time),821505.0,B,co,O,o,153,1,10813.699999988079,810691.3000000119,7030,WL,B,10.0
6,47.03500008583069,distr,12964.999914169312,Thu Oct 24 2024 15:36:52 GMT-0500 (Central Daylight Time),821705.0,B,coi,O,i,171,1,11013.699999988079,810691.3000000119,7030,WL,B,10.0
6,47.301000118255615,distr,12698.999881744385,Thu Oct 24 2024 15:36:52 GMT-0500 (Central Daylight Time),821971.5,B,coin,O,n,228,1,11280.199999988079,810691.3000000119,7030,WL,B,10.0
6,47.718000173568726,distr,12281.999826431274,Thu Oct 24 2024 15:36:52 GMT-0500 (Central Daylight Time),822388.3000000119,B,coinenter,O,enter,376,1,11697.0,810691.3000000119,7030,WL,B,10.0
6,60.015000104904175,distr,-15.000104904174805,Thu Oct 24 2024 15:36:52 GMT-0500 (Central Daylight Time),834684.1999999881,B,None,O,None,12289,1,12295.699999988079,822388.5,7030,WL,B,11.0
7,1.1000001430511475,immed,58899.99985694885,Thu Oct 24 2024 15:36:52 GMT-0500 (Central Daylight Time),848813.0,A,s,O,s,1078,1,1099.300000011921,847713.6999999881,7030,WL,B,1.0
7,1.4000000953674316,immed,58599.99990463257,Thu Oct 24 2024 15:36:52 GMT-0500 (Central Daylight Time),849112.6000000238,A,st,O,t,272,1,1398.9000000357628,847713.6999999881,7030,WL,B,1.0
7,1.75,immed,58250.0,Thu Oct 24 2024 15:36:52 GMT-0500 (Central Daylight Time),849462.3000000119,A,str,O,r,317,1,1748.6000000238419,847713.6999999881,7030,WL,B,1.0
7,1.9670000076293945,immed,58032.999992370605,Thu Oct 24 2024 15:36:52 GMT-0500 (Central Daylight Time),849679.3999999762,A,stre,O,e,189,1,1965.699999988079,847713.6999999881,7030,WL,B,1.0
7,2.200000047683716,immed,57799.999952316284,Thu Oct 24 2024 15:36:52 GMT-0500 (Central Daylight Time),849912.3999999762,A,stree,O,e,205,1,2198.699999988079,847713.6999999881,7030,WL,B,1.0
7,2.4160001277923584,immed,57583.99987220764,Thu Oct 24 2024 15:36:52 GMT-0500 (Central Daylight Time),850129.0,A,street,O,t,181,1,2415.300000011921,847713.6999999881,7030,WL,B,1.0
7,3.265000104904175,immed,56734.999895095825,Thu Oct 24 2024 15:36:52 GMT-0500 (Central Daylight Time),850977.8000000119,A,streetenter,O,enter,818,1,3264.100000023842,847713.6999999881,7030,WL,B,1.0
7,4.0990002155303955,immed,55900.999784469604,Thu Oct 24 2024 15:36:52 GMT-0500 (Central Daylight Time),851811.6999999881,A,g,O,g,821,1,833.6999999880791,850978.0,7030,WL,B,2.0
7,4.366000175476074,immed,55633.999824523926,Thu Oct 24 2024 15:36:52 GMT-0500 (Central Daylight Time),852078.1999999881,A,gr,O,r,234,1,1100.199999988079,850978.0,7030,WL,B,2.0
7,4.565999984741211,immed,55434.00001525879,Thu Oct 24 2024 15:36:52 GMT-0500 (Central Daylight Time),852278.1999999881,A,gre,O,e,166,1,1300.199999988079,850978.0,7030,WL,B,2.0
7,5.14900016784668,immed,54850.99983215332,Thu Oct 24 2024 15:36:52 GMT-0500 (Central Daylight Time),852861.3999999762,A,gr,O,backspace,550,1,1883.3999999761581,850978.0,7030,WL,B,2.0
7,5.2820000648498535,immed,54717.99993515015,Thu Oct 24 2024 15:36:52 GMT-0500 (Central Daylight Time),852994.6999999881,A,gra,O,a,104,1,2016.699999988079,850978.0,7030,WL,B,2.0
7,5.5320000648498535,immed,54467.99993515015,Thu Oct 24 2024 15:36:52 GMT-0500 (Central Daylight Time),853244.3000000119,A,gras,O,s,209,1,2266.300000011921,850978.0,7030,WL,B,2.0
7,5.732000112533569,immed,54267.99988746643,Thu Oct 24 2024 15:36:52 GMT-0500 (Central Daylight Time),853444.3999999762,A,grass,O,s,161,1,2466.399999976158,850978.0,7030,WL,B,2.0
7,6.13100004196167,immed,53868.99995803833,Thu Oct 24 2024 15:36:52 GMT-0500 (Central Daylight Time),853843.3999999762,A,grassenter,O,enter,365,1,2865.399999976158,850978.0,7030,WL,B,2.0
7,6.8480000495910645,immed,53151.999950408936,Thu Oct 24 2024 15:36:52 GMT-0500 (Central Daylight Time),854560.8999999762,A,d,O,d,699,1,717.1999999880791,853843.6999999881,7030,WL,B,3.0
7,7.414000034332275,immed,52585.999965667725,Thu Oct 24 2024 15:36:52 GMT-0500 (Central Daylight Time),855127.1000000238,A,do,O,o,531,1,1283.4000000357628,853843.6999999881,7030,WL,B,3.0
7,7.581000089645386,immed,52418.999910354614,Thu Oct 24 2024 15:36:52 GMT-0500 (Central Daylight Time),855294.0,A,doo,O,o,134,1,1450.300000011921,853843.6999999881,7030,WL,B,3.0
7,7.715000152587891,immed,52284.99984741211,Thu Oct 24 2024 15:36:52 GMT-0500 (Central Daylight Time),855427.3000000119,A,door,O,r,104,1,1583.6000000238419,853843.6999999881,7030,WL,B,3.0
7,7.96399998664856,immed,52036.00001335144,Thu Oct 24 2024 15:36:52 GMT-0500 (Central Daylight Time),855676.1999999881,A,doorenter,O,enter,217,1,1832.5,853843.6999999881,7030,WL,B,3.0
7,8.331000089645386,immed,51668.999910354614,Thu Oct 24 2024 15:36:52 GMT-0500 (Central Daylight Time),856043.6999999881,A,a,O,a,355,1,367.30000001192093,855676.3999999762,7030,WL,B,4.0
7,8.54800009727478,immed,51451.99990272522,Thu Oct 24 2024 15:36:52 GMT-0500 (Central Daylight Time),856260.5,A,ar,O,r,178,1,584.1000000238419,855676.3999999762,7030,WL,B,4.0
7,8.848000049591064,immed,51151.999950408936,Thu Oct 24 2024 15:36:52 GMT-0500 (Central Daylight Time),856560.1999999881,A,arm,O,m,264,1,883.8000000119209,855676.3999999762,7030,WL,B,4.0
7,9.180000066757202,immed,50819.9999332428,Thu Oct 24 2024 15:36:52 GMT-0500 (Central Daylight Time),856892.5,A,armenter,O,enter,308,1,1216.1000000238419,855676.3999999762,7030,WL,B,4.0
7,9.781000137329102,immed,50218.9998626709,Thu Oct 24 2024 15:36:52 GMT-0500 (Central Daylight Time),857493.3000000119,A,w,O,w,586,1,600.6000000238419,856892.6999999881,7030,WL,B,5.0
7,9.914000034332275,immed,50085.999965667725,Thu Oct 24 2024 15:36:52 GMT-0500 (Central Daylight Time),857626.6000000238,A,wi,O,i,95,1,733.9000000357628,856892.6999999881,7030,WL,B,5.0
7,10.164000034332275,immed,49835.999965667725,Thu Oct 24 2024 15:36:52 GMT-0500 (Central Daylight Time),857876.5,A,win,O,n,209,1,983.8000000119209,856892.6999999881,7030,WL,B,5.0
7,10.347000122070312,immed,49652.99987792969,Thu Oct 24 2024 15:36:52 GMT-0500 (Central Daylight Time),858059.8000000119,A,wind,O,d,153,1,1167.1000000238419,856892.6999999881,7030,WL,B,5.0
7,10.496999979019165,immed,49503.000020980835,Thu Oct 24 2024 15:36:52 GMT-0500 (Central Daylight Time),858209.6999999881,A,windo,O,o,120,1,1317.0,856892.6999999881,7030,WL,B,5.0
7,10.696000099182129,immed,49303.99990081787,Thu Oct 24 2024 15:36:52 GMT-0500 (Central Daylight Time),858408.5,A,window,O,w,169,1,1515.800000011921,856892.6999999881,7030,WL,B,5.0
7,11.046000003814697,immed,48953.9999961853,Thu Oct 24 2024 15:36:52 GMT-0500 (Central Daylight Time),858758.5,A,windowenter,O,enter,340,1,1865.800000011921,856892.6999999881,7030,WL,B,5.0
7,11.580000162124634,immed,48419.999837875366,Thu Oct 24 2024 15:36:52 GMT-0500 (Central Daylight Time),859292.3999999762,A,w,O,w,512,1,533.5999999642372,858758.8000000119,7030,WL,B,6.0
7,11.730000019073486,immed,48269.999980926514,Thu Oct 24 2024 15:36:52 GMT-0500 (Central Daylight Time),859442.5,A,wi,O,i,120,1,683.6999999880791,858758.8000000119,7030,WL,B,6.0
7,12.313000202178955,immed,47686.999797821045,Thu Oct 24 2024 15:36:52 GMT-0500 (Central Daylight Time),860025.3999999762,A,wif,O,f,547,1,1266.5999999642372,858758.8000000119,7030,WL,B,6.0
7,12.513000011444092,immed,47486.99998855591,Thu Oct 24 2024 15:36:52 GMT-0500 (Central Daylight Time),860225.6000000238,A,wife,O,e,177,1,1466.800000011921,858758.8000000119,7030,WL,B,6.0
7,12.729000091552734,immed,47270.999908447266,Thu Oct 24 2024 15:36:52 GMT-0500 (Central Daylight Time),860441.3000000119,A,wifeenter,O,enter,185,1,1682.5,858758.8000000119,7030,WL,B,6.0
7,13.213000059127808,immed,46786.99994087219,Thu Oct 24 2024 15:36:52 GMT-0500 (Central Daylight Time),860925.3000000119,A,s,O,s,469,1,483.80000001192093,860441.5,7030,WL,B,7.0
7,13.462000131607056,immed,46537.999868392944,Thu Oct 24 2024 15:36:52 GMT-0500 (Central Daylight Time),861175.0,A,st,O,t,224,1,733.5,860441.5,7030,WL,B,7.0
7,13.646000146865845,immed,46353.999853134155,Thu Oct 24 2024 15:36:52 GMT-0500 (Central Daylight Time),861358.6000000238,A,sta,O,a,159,1,917.1000000238419,860441.5,7030,WL,B,7.0
7,13.796000003814697,immed,46203.9999961853,Thu Oct 24 2024 15:36:52 GMT-0500 (Central Daylight Time),861508.5,A,star,O,r,121,1,1067.0,860441.5,7030,WL,B,7.0
7,15.394000053405762,immed,44605.99994659424,Thu Oct 24 2024 15:36:52 GMT-0500 (Central Daylight Time),863107.1000000238,A,starenter,O,enter,1568,1,2665.600000023842,860441.5,7030,WL,B,7.0
7,17.9280002117157,immed,42071.9997882843,Thu Oct 24 2024 15:36:52 GMT-0500 (Central Daylight Time),865640.5,A,c,O,c,2523,1,2533.100000023842,863107.3999999762,7030,WL,B,8.0
7,18.144999980926514,immed,41855.000019073486,Thu Oct 24 2024 15:36:52 GMT-0500 (Central Daylight Time),865857.1999999881,A,ca,O,a,179,1,2749.800000011921,863107.3999999762,7030,WL,B,8.0
7,18.378000020980835,immed,41621.999979019165,Thu Oct 24 2024 15:36:52 GMT-0500 (Central Daylight Time),866090.3999999762,A,cab,O,b,199,1,2983.0,863107.3999999762,7030,WL,B,8.0
7,18.728000164031982,immed,41271.99983596802,Thu Oct 24 2024 15:36:52 GMT-0500 (Central Daylight Time),866440.1999999881,A,cabi,O,i,323,1,3332.800000011921,863107.3999999762,7030,WL,B,8.0
7,18.944000005722046,immed,41055.999994277954,Thu Oct 24 2024 15:36:52 GMT-0500 (Central Daylight Time),866656.8999999762,A,cabin,O,n,180,1,3549.5,863107.3999999762,7030,WL,B,8.0
7,19.460000038146973,immed,40539.99996185303,Thu Oct 24 2024 15:36:52 GMT-0500 (Central Daylight Time),867172.3999999762,A,cabinenter,O,enter,491,1,4065.0,863107.3999999762,7030,WL,B,8.0
7,20.127000093460083,immed,39872.99990653992,Thu Oct 24 2024 15:36:52 GMT-0500 (Central Daylight Time),867839.8000000119,A,l,O,l,658,1,667.1000000238419,867172.6999999881,7030,WL,B,9.0
7,20.3270001411438,immed,39672.9998588562,Thu Oct 24 2024 15:36:52 GMT-0500 (Central Daylight Time),868039.8000000119,A,la,O,a,177,1,867.1000000238419,867172.6999999881,7030,WL,B,9.0
7,20.47699999809265,immed,39523.00000190735,Thu Oct 24 2024 15:36:52 GMT-0500 (Central Daylight Time),868189.3999999762,A,lak,O,k,125,1,1016.6999999880791,867172.6999999881,7030,WL,B,9.0
7,20.627000093460083,immed,39372.99990653992,Thu Oct 24 2024 15:36:52 GMT-0500 (Central Daylight Time),868339.6000000238,A,lake,O,e,112,1,1166.9000000357628,867172.6999999881,7030,WL,B,9.0
7,20.859000205993652,immed,39140.99979400635,Thu Oct 24 2024 15:36:52 GMT-0500 (Central Daylight Time),868571.8999999762,A,lakeenter,O,enter,208,1,1399.199999988079,867172.6999999881,7030,WL,B,9.0
7,21.5770001411438,immed,38422.9998588562,Thu Oct 24 2024 15:36:52 GMT-0500 (Central Daylight Time),869289.3000000119,A,p,O,p,707,1,717.1999999880791,868572.1000000238,7030,WL,B,10.0
7,22.2260000705719,immed,37773.9999294281,Thu Oct 24 2024 15:36:52 GMT-0500 (Central Daylight Time),869939.1000000238,A,pi,O,i,619,1,1367.0,868572.1000000238,7030,WL,B,10.0
7,22.443000078201294,immed,37556.999921798706,Thu Oct 24 2024 15:36:52 GMT-0500 (Central Daylight Time),870155.6000000238,A,pip,O,p,181,1,1583.5,868572.1000000238,7030,WL,B,10.0
7,23.16000008583069,immed,36839.99991416931,Thu Oct 24 2024 15:36:52 GMT-0500 (Central Daylight Time),870872.1999999881,A,pipe,O,e,682,1,2300.099999964237,868572.1000000238,7030,WL,B,10.0
7,23.325000047683716,immed,36674.999952316284,Thu Oct 24 2024 15:36:52 GMT-0500 (Central Daylight Time),871037.8000000119,A,pipeenter,O,enter,139,1,2465.699999988079,868572.1000000238,7030,WL,B,10.0
7,23.826000213623047,immed,36173.99978637695,Thu Oct 24 2024 15:36:52 GMT-0500 (Central Daylight Time),871538.6999999881,A,s,O,s,488,1,500.5999999642372,871038.1000000238,7030,WL,B,11.0
7,24.04200005531311,immed,35957.99994468689,Thu Oct 24 2024 15:36:52 GMT-0500 (Central Daylight Time),871755.1000000238,A,sk,O,k,186,1,717.0,871038.1000000238,7030,WL,B,11.0
7,24.20900011062622,immed,35790.99988937378,Thu Oct 24 2024 15:36:52 GMT-0500 (Central Daylight Time),871921.6999999881,A,ski,O,i,141,1,883.5999999642372,871038.1000000238,7030,WL,B,11.0
7,24.442000150680542,immed,35557.99984931946,Thu Oct 24 2024 15:36:52 GMT-0500 (Central Daylight Time),872154.8999999762,A,skin,O,n,195,1,1116.7999999523163,871038.1000000238,7030,WL,B,11.0
7,24.95800018310547,immed,35041.99981689453,Thu Oct 24 2024 15:36:52 GMT-0500 (Central Daylight Time),872670.6000000238,A,skinenter,O,enter,480,1,1632.5,871038.1000000238,7030,WL,B,11.0
7,26.508000135421753,immed,33491.99986457825,Thu Oct 24 2024 15:36:52 GMT-0500 (Central Daylight Time),874221.1999999881,A,c,O,c,1544,1,1550.3999999761581,872670.8000000119,7030,WL,B,12.0
7,26.675000190734863,immed,33324.99980926514,Thu Oct 24 2024 15:36:52 GMT-0500 (Central Daylight Time),874387.6999999881,A,cl,O,l,127,1,1716.8999999761581,872670.8000000119,7030,WL,B,12.0
7,26.892000198364258,immed,33107.99980163574,Thu Oct 24 2024 15:36:52 GMT-0500 (Central Daylight Time),874604.6999999881,A,clo,O,o,192,1,1933.8999999761581,872670.8000000119,7030,WL,B,12.0
7,27.092000007629395,immed,32907.999992370605,Thu Oct 24 2024 15:36:52 GMT-0500 (Central Daylight Time),874804.8000000119,A,cloc,O,c,180,1,2134.0,872670.8000000119,7030,WL,B,12.0
7,27.225000143051147,immed,32774.99985694885,Thu Oct 24 2024 15:36:52 GMT-0500 (Central Daylight Time),874937.5,A,clock,O,k,104,1,2266.699999988079,872670.8000000119,7030,WL,B,12.0
7,28.407000064849854,immed,31592.999935150146,Thu Oct 24 2024 15:36:52 GMT-0500 (Central Daylight Time),876119.5,A,clockenter,O,enter,1146,1,3448.699999988079,872670.8000000119,7030,WL,B,12.0
