acc_sum,block,block_c,change,condition,correct,correct_response,datetime,endtime,face,project,response,response_time,row_sel,session_number,start_end,starttime,subject_id,task,task_vers,trial
0,prac,1,,1-Back,,,Fri Oct 11 2024 16:18:01 GMT-0500 (Central Daylight Time),,124_o_f_d_a.png,O,space,14873,1,1,,,7025,VNB,A,0
1,prac,1,0.0,1-Back,1,m,Fri Oct 11 2024 16:18:01 GMT-0500 (Central Daylight Time),170749.5,071_y_f_n_a.png,O,m,1360,2,1,2157.5,168592.0,7025,VNB,A,1
2,prac,1,0.0,1-Back,1,m,Fri Oct 11 2024 16:18:01 GMT-0500 (Central Daylight Time),172998.80000000447,165_m_m_h_a.png,O,m,1454,3,1,2240.8000000044703,170758.0,7025,VNB,A,2
2,prac,1,0.0,1-Back,0,m,Fri Oct 11 2024 16:18:01 GMT-0500 (Central Daylight Time),174531.70000000298,109_y_m_d_a.png,O,z,725,4,1,1524.3000000044703,173007.3999999985,7025,VNB,A,3
3,prac,1,0.0,1-Back,1,m,Fri Oct 11 2024 16:18:01 GMT-0500 (Central Daylight Time),176781.8999999985,124_o_f_n_a.png,O,m,1423,5,1,2242.0999999940395,174539.80000000447,7025,VNB,A,4
3,prac,1,1.0,1-Back,0,z,Fri Oct 11 2024 16:18:01 GMT-0500 (Central Daylight Time),178313.70000000298,109_y_m_n_a.png,O,m,716,6,1,1522.8000000044703,176790.8999999985,7025,VNB,A,5
4,prac,1,0.0,1-Back,1,m,Fri Oct 11 2024 16:18:01 GMT-0500 (Central Daylight Time),180229.80000000447,039_o_m_h_a.png,O,m,1112,7,1,1907.7000000029802,178322.1000000015,7025,VNB,A,6
5,prac,1,0.0,1-Back,1,m,Fri Oct 11 2024 16:18:01 GMT-0500 (Central Daylight Time),181812.70000000298,139_m_f_d_a.png,O,m,779,8,1,1574.6000000014901,180238.1000000015,7025,VNB,A,7
6,prac,1,1.0,1-Back,1,z,Fri Oct 11 2024 16:18:01 GMT-0500 (Central Daylight Time),183362.30000000447,071_y_f_d_a.png,O,z,731,9,1,1541.5,181820.80000000447,7025,VNB,A,8
7,prac,1,0.0,1-Back,1,m,Fri Oct 11 2024 16:18:01 GMT-0500 (Central Daylight Time),185078.5,165_m_m_n_a.png,O,m,907,10,1,1706.0,183372.5,7025,VNB,A,9
8,prac,1,0.0,1-Back,1,m,Fri Oct 11 2024 16:18:01 GMT-0500 (Central Daylight Time),186694.30000000447,124_o_f_h_a.png,O,m,792,11,1,1607.9000000059605,185086.3999999985,7025,VNB,A,10
9,prac,1,0.0,1-Back,1,m,Fri Oct 11 2024 16:18:01 GMT-0500 (Central Daylight Time),188527.0,109_y_m_d_a.png,O,m,1051,12,1,1824.6000000014901,186702.3999999985,7025,VNB,A,11
0,test,1,0.0,1-Back,,,Fri Oct 11 2024 16:18:01 GMT-0500 (Central Daylight Time),188527.0,071_y_f_d_a.png,O,space,13993,1,1,1824.6000000014901,186702.3999999985,7025,VNB,A,0
1,test,1,0.0,1-Back,1,m,Fri Oct 11 2024 16:18:01 GMT-0500 (Central Daylight Time),212353.0,139_m_f_n_a.png,O,m,884,2,1,1908.8999999985099,210444.1000000015,7025,VNB,A,1
2,test,1,0.0,1-Back,1,m,Fri Oct 11 2024 16:18:01 GMT-0500 (Central Daylight Time),214120.20000000298,039_o_m_h_a.png,O,m,744,3,1,1759.8999999985099,212360.30000000447,7025,VNB,A,2
3,test,1,1.0,1-Back,1,z,Fri Oct 11 2024 16:18:01 GMT-0500 (Central Daylight Time),215951.8999999985,165_m_m_h_a.png,O,z,802,4,1,1824.7999999970198,214127.1000000015,7025,VNB,A,3
4,test,1,0.0,1-Back,1,m,Fri Oct 11 2024 16:18:01 GMT-0500 (Central Daylight Time),217652.3999999985,124_o_f_n_a.png,O,m,682,5,1,1693.3999999985099,215959.0,7025,VNB,A,4
5,test,1,0.0,1-Back,1,m,Fri Oct 11 2024 16:18:01 GMT-0500 (Central Daylight Time),219750.70000000298,109_y_m_d_a.png,O,m,1070,6,1,2090.89999999851,217659.80000000447,7025,VNB,A,5
6,test,1,1.0,1-Back,1,z,Fri Oct 11 2024 16:18:01 GMT-0500 (Central Daylight Time),221400.1000000015,139_m_f_d_a.png,O,z,627,7,1,1642.2000000029802,219757.8999999985,7025,VNB,A,6
7,test,1,0.0,1-Back,1,m,Fri Oct 11 2024 16:18:01 GMT-0500 (Central Daylight Time),223182.80000000447,071_y_f_h_a.png,O,m,753,8,1,1775.4000000059605,221407.3999999985,7025,VNB,A,7
8,test,1,0.0,1-Back,1,m,Fri Oct 11 2024 16:18:01 GMT-0500 (Central Daylight Time),225032.30000000447,039_o_m_n_a.png,O,m,818,9,1,1842.4000000059605,223189.8999999985,7025,VNB,A,8
9,test,1,0.0,1-Back,1,m,Fri Oct 11 2024 16:18:01 GMT-0500 (Central Daylight Time),227048.30000000447,109_y_m_h_a.png,O,m,984,10,1,2008.7000000029802,225039.6000000015,7025,VNB,A,9
10,test,1,0.0,1-Back,1,m,Fri Oct 11 2024 16:18:01 GMT-0500 (Central Daylight Time),228764.5,039_o_m_d_a.png,O,m,689,11,1,1708.8999999985099,227055.6000000015,7025,VNB,A,10
11,test,1,1.0,1-Back,1,z,Fri Oct 11 2024 16:18:01 GMT-0500 (Central Daylight Time),230380.70000000298,124_o_f_d_a.png,O,z,589,12,1,1608.7000000029802,228772.0,7025,VNB,A,11
12,test,1,0.0,1-Back,1,m,Fri Oct 11 2024 16:18:01 GMT-0500 (Central Daylight Time),232363.30000000447,165_m_m_n_a.png,O,m,957,13,1,1975.8000000044703,230387.5,7025,VNB,A,12
13,test,1,1.0,1-Back,1,z,Fri Oct 11 2024 16:18:01 GMT-0500 (Central Daylight Time),234079.5,071_y_f_n_a.png,O,z,694,14,1,1708.7999999970198,232370.70000000298,7025,VNB,A,13
14,test,1,0.0,1-Back,1,m,Fri Oct 11 2024 16:18:01 GMT-0500 (Central Daylight Time),235728.80000000447,139_m_f_h_a.png,O,m,618,15,1,1642.1000000014901,234086.70000000298,7025,VNB,A,14
14,test,1,0.0,1-Back,0,m,Fri Oct 11 2024 16:18:01 GMT-0500 (Central Daylight Time),237445.20000000298,165_m_m_d_a.png,O,z,696,16,1,1709.3000000044703,235735.8999999985,7025,VNB,A,15
15,test,1,0.0,1-Back,1,m,Fri Oct 11 2024 16:18:01 GMT-0500 (Central Daylight Time),239477.8999999985,109_y_m_n_a.png,O,m,1004,17,1,2025.5999999940395,237452.30000000447,7025,VNB,A,16
16,test,1,0.0,1-Back,1,m,Fri Oct 11 2024 16:18:01 GMT-0500 (Central Daylight Time),241143.8999999985,124_o_f_h_a.png,O,m,644,18,1,1657.1999999955297,239486.70000000298,7025,VNB,A,17
0,test,2,0.0,1-Back,,,Fri Oct 11 2024 16:18:01 GMT-0500 (Central Daylight Time),241143.8999999985,109_y_m_n_a.png,O,space,1757,1,1,1657.1999999955297,239486.70000000298,7025,VNB,A,0
1,test,2,0.0,1-Back,1,m,Fri Oct 11 2024 16:18:01 GMT-0500 (Central Daylight Time),246558.8999999985,071_y_f_h_a.png,O,m,628,2,1,1640.5999999940395,244918.30000000447,7025,VNB,A,1
2,test,2,1.0,1-Back,1,m,Fri Oct 11 2024 16:18:01 GMT-0500 (Central Daylight Time),248258.5,039_o_m_n_a.png,O,m,675,3,1,1692.3999999985099,246566.1000000015,7025,VNB,A,2
3,test,2,0.0,1-Back,1,m,Fri Oct 11 2024 16:18:01 GMT-0500 (Central Daylight Time),250091.0,139_m_f_d_a.png,O,m,807,4,1,1825.2999999970198,248265.70000000298,7025,VNB,A,3
4,test,2,0.0,1-Back,1,z,Fri Oct 11 2024 16:18:01 GMT-0500 (Central Daylight Time),251557.6000000015,165_m_m_d_a.png,O,z,438,5,1,1459.0,250098.6000000015,7025,VNB,A,4
5,test,2,0.0,1-Back,1,m,Fri Oct 11 2024 16:18:01 GMT-0500 (Central Daylight Time),253206.80000000447,109_y_m_h_a.png,O,m,628,6,1,1642.3000000044703,251564.5,7025,VNB,A,5
5,test,2,1.0,1-Back,0,z,Fri Oct 11 2024 16:18:01 GMT-0500 (Central Daylight Time),254823.20000000298,124_o_f_h_a.png,O,m,594,7,1,1609.2000000029802,253214.0,7025,VNB,A,6
6,test,2,0.0,1-Back,1,m,Fri Oct 11 2024 16:18:01 GMT-0500 (Central Daylight Time),256722.3999999985,139_m_f_n_a.png,O,m,882,8,1,1891.5999999940395,254830.80000000447,7025,VNB,A,7
7,test,2,0.0,1-Back,1,m,Fri Oct 11 2024 16:18:01 GMT-0500 (Central Daylight Time),258739.6000000015,071_y_f_d_a.png,O,m,991,9,1,2010.2000000029802,256729.3999999985,7025,VNB,A,8
8,test,2,0.0,1-Back,1,m,Fri Oct 11 2024 16:18:01 GMT-0500 (Central Daylight Time),260555.70000000298,165_m_m_n_a.png,O,m,799,10,1,1808.3999999985099,258747.30000000447,7025,VNB,A,9
9,test,2,1.0,1-Back,1,m,Fri Oct 11 2024 16:18:01 GMT-0500 (Central Daylight Time),262104.1000000015,139_m_f_h_a.png,O,m,527,11,1,1540.7999999970198,260563.30000000447,7025,VNB,A,10
10,test,2,0.0,1-Back,1,z,Fri Oct 11 2024 16:18:01 GMT-0500 (Central Daylight Time),263654.8999999985,039_o_m_h_a.png,O,z,529,12,1,1543.5999999940395,262111.30000000447,7025,VNB,A,11
11,test,2,0.0,1-Back,1,m,Fri Oct 11 2024 16:18:01 GMT-0500 (Central Daylight Time),265303.0,109_y_m_d_a.png,O,m,628,13,1,1640.8999999985099,263662.1000000015,7025,VNB,A,12
12,test,2,0.0,1-Back,1,m,Fri Oct 11 2024 16:18:01 GMT-0500 (Central Daylight Time),267219.200000003,124_o_f_n_a.png,O,m,782,14,1,1909.2000000029802,265310.0,7025,VNB,A,13
13,test,2,0.0,1-Back,1,z,Fri Oct 11 2024 16:18:01 GMT-0500 (Central Daylight Time),269168.3999999985,071_y_f_n_a.png,O,z,926,15,1,1941.8999999985099,267226.5,7025,VNB,A,14
14,test,2,1.0,1-Back,1,m,Fri Oct 11 2024 16:18:01 GMT-0500 (Central Daylight Time),270951.6000000015,165_m_m_h_a.png,O,m,761,16,1,1775.7999999970198,269175.80000000447,7025,VNB,A,15
15,test,2,0.0,1-Back,1,m,Fri Oct 11 2024 16:18:01 GMT-0500 (Central Daylight Time),272834.0,124_o_f_d_a.png,O,m,858,17,1,1875.3999999985099,270958.6000000015,7025,VNB,A,16
16,test,2,1.0,1-Back,1,z,Fri Oct 11 2024 16:18:01 GMT-0500 (Central Daylight Time),274650.200000003,039_o_m_d_a.png,O,z,799,18,1,1808.8000000044703,272841.3999999985,7025,VNB,A,17
0,test,3,1.0,1-Back,,,Fri Oct 11 2024 16:18:01 GMT-0500 (Central Daylight Time),274650.200000003,124_o_f_h_a.png,O,space,1823,1,1,1808.8000000044703,272841.3999999985,7025,VNB,A,0
1,test,3,0.0,1-Back,1,m,Fri Oct 11 2024 16:18:01 GMT-0500 (Central Daylight Time),280448.30000000447,139_m_f_d_a.png,O,m,893,2,1,1909.5,278538.80000000447,7025,VNB,A,1
2,test,3,1.0,1-Back,1,m,Fri Oct 11 2024 16:18:01 GMT-0500 (Central Daylight Time),282114.3999999985,165_m_m_n_a.png,O,m,649,3,1,1658.1999999955297,280456.200000003,7025,VNB,A,2
3,test,3,0.0,1-Back,1,z,Fri Oct 11 2024 16:18:01 GMT-0500 (Central Daylight Time),283780.5,124_o_f_n_a.png,O,z,639,4,1,1659.0,282121.5,7025,VNB,A,3
4,test,3,1.0,1-Back,1,m,Fri Oct 11 2024 16:18:01 GMT-0500 (Central Daylight Time),286046.700000003,039_o_m_d_a.png,O,m,1245,5,1,2259.10000000149,283787.6000000015,7025,VNB,A,4
5,test,3,0.0,1-Back,1,m,Fri Oct 11 2024 16:18:01 GMT-0500 (Central Daylight Time),287746.1000000015,071_y_f_h_a.png,O,m,675,6,1,1691.7999999970198,286054.30000000447,7025,VNB,A,5
5,test,3,0.0,1-Back,0,z,Fri Oct 11 2024 16:18:01 GMT-0500 (Central Daylight Time),289362.200000003,109_y_m_h_a.png,O,m,583,7,1,1609.3999999985099,287752.80000000447,7025,VNB,A,6
6,test,3,0.0,1-Back,1,m,Fri Oct 11 2024 16:18:01 GMT-0500 (Central Daylight Time),291028.30000000447,139_m_f_n_a.png,O,m,639,8,1,1659.1000000014901,289369.200000003,7025,VNB,A,7
7,test,3,0.0,1-Back,1,m,Fri Oct 11 2024 16:18:01 GMT-0500 (Central Daylight Time),292827.80000000447,071_y_f_d_a.png,O,m,773,9,1,1792.5,291035.30000000447,7025,VNB,A,8
8,test,3,1.0,1-Back,1,m,Fri Oct 11 2024 16:18:01 GMT-0500 (Central Daylight Time),294610.700000003,039_o_m_n_a.png,O,m,758,10,1,1774.8000000044703,292835.8999999985,7025,VNB,A,9
9,test,3,0.0,1-Back,1,m,Fri Oct 11 2024 16:18:01 GMT-0500 (Central Daylight Time),296243.3999999985,165_m_m_h_a.png,O,m,615,11,1,1625.7999999970198,294617.6000000015,7025,VNB,A,10
10,test,3,0.0,1-Back,1,z,Fri Oct 11 2024 16:18:01 GMT-0500 (Central Daylight Time),297792.80000000447,139_m_f_h_a.png,O,z,525,12,1,1542.3000000044703,296250.5,7025,VNB,A,11
11,test,3,1.0,1-Back,1,m,Fri Oct 11 2024 16:18:01 GMT-0500 (Central Daylight Time),299925.5,124_o_f_d_a.png,O,m,1104,13,1,2125.5,297800.0,7025,VNB,A,12
12,test,3,0.0,1-Back,1,z,Fri Oct 11 2024 16:18:01 GMT-0500 (Central Daylight Time),301709.3999999985,165_m_m_d_a.png,O,z,756,14,1,1776.7999999970198,299932.6000000015,7025,VNB,A,13
13,test,3,0.0,1-Back,1,m,Fri Oct 11 2024 16:18:01 GMT-0500 (Central Daylight Time),303674.6000000015,109_y_m_n_a.png,O,m,949,15,1,1958.0,301716.6000000015,7025,VNB,A,14
14,test,3,1.0,1-Back,1,m,Fri Oct 11 2024 16:18:01 GMT-0500 (Central Daylight Time),305340.30000000447,039_o_m_h_a.png,O,m,646,16,1,1658.3000000044703,303682.0,7025,VNB,A,15
15,test,3,0.0,1-Back,1,m,Fri Oct 11 2024 16:18:01 GMT-0500 (Central Daylight Time),307422.700000003,109_y_m_d_a.png,O,m,1060,17,1,2074.8000000044703,305347.8999999985,7025,VNB,A,16
15,test,3,1.0,1-Back,0,m,Fri Oct 11 2024 16:18:01 GMT-0500 (Central Daylight Time),309272.3999999985,071_y_f_n_a.png,O,z,826,18,1,1842.1999999955297,307430.200000003,7025,VNB,A,17
0,test,4,1.0,1-Back,,,Fri Oct 11 2024 16:18:01 GMT-0500 (Central Daylight Time),309272.3999999985,165_m_m_d_a.png,O,space,977,1,1,1842.1999999955297,307430.200000003,7025,VNB,A,0
1,test,4,0.0,1-Back,1,z,Fri Oct 11 2024 16:18:01 GMT-0500 (Central Daylight Time),314120.6000000015,039_o_m_d_a.png,O,z,770,2,1,1841.6000000014901,312279.0,7025,VNB,A,1
2,test,4,0.0,1-Back,1,m,Fri Oct 11 2024 16:18:01 GMT-0500 (Central Daylight Time),316103.5,109_y_m_h_a.png,O,m,953,3,1,1975.7999999970198,314127.700000003,7025,VNB,A,2
3,test,4,0.0,1-Back,1,m,Fri Oct 11 2024 16:18:01 GMT-0500 (Central Daylight Time),318002.8999999985,139_m_f_n_a.png,O,m,882,4,1,1891.2999999970198,316111.6000000015,7025,VNB,A,3
4,test,4,1.0,1-Back,1,m,Fri Oct 11 2024 16:18:01 GMT-0500 (Central Daylight Time),319869.1000000015,124_o_f_h_a.png,O,m,838,5,1,1857.8999999985099,318011.200000003,7025,VNB,A,4
5,test,4,0.0,1-Back,1,m,Fri Oct 11 2024 16:18:01 GMT-0500 (Central Daylight Time),321618.700000003,165_m_m_n_a.png,O,m,724,6,1,1740.3999999985099,319878.30000000447,7025,VNB,A,5
6,test,4,0.0,1-Back,1,m,Fri Oct 11 2024 16:18:01 GMT-0500 (Central Daylight Time),323651.1000000015,109_y_m_d_a.png,O,m,1015,7,1,2024.8999999985099,321626.200000003,7025,VNB,A,6
7,test,4,1.0,1-Back,1,z,Fri Oct 11 2024 16:18:01 GMT-0500 (Central Daylight Time),325134.1000000015,071_y_f_d_a.png,O,z,454,8,1,1475.2999999970198,323658.80000000447,7025,VNB,A,7
8,test,4,0.0,1-Back,1,m,Fri Oct 11 2024 16:18:01 GMT-0500 (Central Daylight Time),326683.700000003,139_m_f_h_a.png,O,m,531,9,1,1541.2000000029802,325142.5,7025,VNB,A,8
9,test,4,0.0,1-Back,1,z,Fri Oct 11 2024 16:18:01 GMT-0500 (Central Daylight Time),328166.30000000447,039_o_m_h_a.png,O,z,452,10,1,1474.2000000029802,326692.1000000015,7025,VNB,A,9
10,test,4,1.0,1-Back,1,m,Fri Oct 11 2024 16:18:01 GMT-0500 (Central Daylight Time),329749.200000003,124_o_f_n_a.png,O,m,563,11,1,1575.5,328173.700000003,7025,VNB,A,10
11,test,4,0.0,1-Back,1,m,Fri Oct 11 2024 16:18:01 GMT-0500 (Central Daylight Time),331515.5,139_m_f_d_a.png,O,m,740,12,1,1758.6000000014901,329756.8999999985,7025,VNB,A,11
12,test,4,0.0,1-Back,1,m,Fri Oct 11 2024 16:18:01 GMT-0500 (Central Daylight Time),333264.80000000447,071_y_f_n_a.png,O,m,718,13,1,1741.4000000059605,331523.3999999985,7025,VNB,A,12
13,test,4,0.0,1-Back,1,m,Fri Oct 11 2024 16:18:01 GMT-0500 (Central Daylight Time),335114.30000000447,124_o_f_d_a.png,O,m,816,14,1,1842.2000000029802,333272.1000000015,7025,VNB,A,13
14,test,4,0.0,1-Back,1,m,Fri Oct 11 2024 16:18:01 GMT-0500 (Central Daylight Time),336911.6000000015,071_y_f_h_a.png,O,m,780,15,1,1789.2999999970198,335122.30000000447,7025,VNB,A,14
15,test,4,1.0,1-Back,1,z,Fri Oct 11 2024 16:18:01 GMT-0500 (Central Daylight Time),338613.200000003,165_m_m_h_a.png,O,z,672,16,1,1693.8999999985099,336919.30000000447,7025,VNB,A,15
16,test,4,0.0,1-Back,1,m,Fri Oct 11 2024 16:18:01 GMT-0500 (Central Daylight Time),340296.1000000015,039_o_m_n_a.png,O,m,660,17,1,1675.2999999970198,338620.80000000447,7025,VNB,A,16
16,test,4,1.0,1-Back,0,z,Fri Oct 11 2024 16:18:01 GMT-0500 (Central Daylight Time),343328.6000000015,109_y_m_n_a.png,O,None,2015,18,1,3024.7999999970198,340303.80000000447,7025,VNB,A,17
0,test,5,1.0,1-Back,,,Fri Oct 11 2024 16:18:01 GMT-0500 (Central Daylight Time),343328.6000000015,039_o_m_n_a.png,O,space,1153,1,1,3024.7999999970198,340303.80000000447,7025,VNB,A,0
1,test,5,1.0,1-Back,1,m,Fri Oct 11 2024 16:18:01 GMT-0500 (Central Daylight Time),348193.8999999985,124_o_f_h_a.png,O,m,658,2,1,1674.7999999970198,346519.1000000015,7025,VNB,A,1
2,test,5,0.0,1-Back,1,m,Fri Oct 11 2024 16:18:01 GMT-0500 (Central Daylight Time),349993.200000003,109_y_m_d_a.png,O,m,768,3,1,1792.1000000014901,348201.1000000015,7025,VNB,A,2
3,test,5,0.0,1-Back,1,z,Fri Oct 11 2024 16:18:01 GMT-0500 (Central Daylight Time),351642.5,039_o_m_d_a.png,O,z,632,4,1,1642.1000000014901,350000.3999999985,7025,VNB,A,3
4,test,5,0.0,1-Back,1,m,Fri Oct 11 2024 16:18:01 GMT-0500 (Central Daylight Time),353475.1000000015,139_m_f_h_a.png,O,m,815,5,1,1825.6000000014901,351649.5,7025,VNB,A,4
5,test,5,0.0,1-Back,1,m,Fri Oct 11 2024 16:18:01 GMT-0500 (Central Daylight Time),355224.6000000015,071_y_f_n_a.png,O,m,718,6,1,1742.1000000014901,353482.5,7025,VNB,A,5
6,test,5,1.0,1-Back,1,z,Fri Oct 11 2024 16:18:01 GMT-0500 (Central Daylight Time),356940.700000003,124_o_f_n_a.png,O,z,689,7,1,1708.2000000029802,355232.5,7025,VNB,A,6
7,test,5,0.0,1-Back,1,m,Fri Oct 11 2024 16:18:01 GMT-0500 (Central Daylight Time),358656.8999999985,139_m_f_d_a.png,O,m,693,8,1,1708.6999999955297,356948.200000003,7025,VNB,A,7
8,test,5,0.0,1-Back,1,m,Fri Oct 11 2024 16:18:01 GMT-0500 (Central Daylight Time),360437.700000003,109_y_m_h_a.png,O,m,765,9,1,1773.2000000029802,358664.5,7025,VNB,A,8
9,test,5,0.0,1-Back,1,m,Fri Oct 11 2024 16:18:01 GMT-0500 (Central Daylight Time),362155.8999999985,071_y_f_d_a.png,O,m,698,10,1,1710.5999999940395,360445.30000000447,7025,VNB,A,9
10,test,5,0.0,1-Back,1,m,Fri Oct 11 2024 16:18:01 GMT-0500 (Central Daylight Time),363805.30000000447,165_m_m_n_a.png,O,m,630,11,1,1640.5,362164.80000000447,7025,VNB,A,10
11,test,5,1.0,1-Back,1,z,Fri Oct 11 2024 16:18:01 GMT-0500 (Central Daylight Time),365538.0,139_m_f_n_a.png,O,z,700,12,1,1724.1000000014901,363813.8999999985,7025,VNB,A,11
12,test,5,0.0,1-Back,1,m,Fri Oct 11 2024 16:18:01 GMT-0500 (Central Daylight Time),367171.0,039_o_m_h_a.png,O,m,607,13,1,1623.6000000014901,365547.3999999985,7025,VNB,A,12
13,test,5,0.0,1-Back,1,z,Fri Oct 11 2024 16:18:01 GMT-0500 (Central Daylight Time),368903.6000000015,165_m_m_h_a.png,O,z,710,14,1,1725.3999999985099,367178.200000003,7025,VNB,A,13
14,test,5,1.0,1-Back,1,m,Fri Oct 11 2024 16:18:01 GMT-0500 (Central Daylight Time),370703.1000000015,124_o_f_d_a.png,O,m,778,15,1,1790.8999999985099,368912.200000003,7025,VNB,A,14
15,test,5,0.0,1-Back,1,m,Fri Oct 11 2024 16:18:01 GMT-0500 (Central Daylight Time),372885.8999999985,109_y_m_n_a.png,O,m,1154,16,1,2174.5,370711.3999999985,7025,VNB,A,15
16,test,5,0.0,1-Back,1,m,Fri Oct 11 2024 16:18:01 GMT-0500 (Central Daylight Time),374602.0,071_y_f_h_a.png,O,m,700,17,1,1708.8999999985099,372893.1000000015,7025,VNB,A,16
17,test,5,0.0,1-Back,1,m,Fri Oct 11 2024 16:18:01 GMT-0500 (Central Daylight Time),376284.700000003,165_m_m_d_a.png,O,m,663,18,1,1674.7000000029802,374610.0,7025,VNB,A,17
0,prac,1,0.0,2-Back,,,Fri Oct 11 2024 16:18:01 GMT-0500 (Central Daylight Time),376284.700000003,139_m_f_n_a.png,O,space,11075,1,1,1674.7000000029802,374610.0,7025,VNB,A,0
0,prac,1,0.0,2-Back,,,Fri Oct 11 2024 16:18:01 GMT-0500 (Central Daylight Time),376284.700000003,124_o_f_h_a.png,O,space,11075,2,1,1674.7000000029802,374610.0,7025,VNB,A,0
1,prac,1,0.0,2-Back,1,m,Fri Oct 11 2024 16:18:01 GMT-0500 (Central Daylight Time),477271.1000000015,039_o_m_d_a.png,O,m,945,3,1,1742.2999999970198,475528.80000000447,7025,VNB,A,1
2,prac,1,1.0,2-Back,1,z,Fri Oct 11 2024 16:18:01 GMT-0500 (Central Daylight Time),479586.200000003,165_m_m_h_a.png,O,z,1505,4,1,2307.0,477279.200000003,7025,VNB,A,2
3,prac,1,0.0,2-Back,1,m,Fri Oct 11 2024 16:18:01 GMT-0500 (Central Daylight Time),482085.30000000447,071_y_f_n_a.png,O,m,1694,5,1,2490.7000000029802,479594.6000000015,7025,VNB,A,3
3,prac,1,1.0,2-Back,0,z,Fri Oct 11 2024 16:18:01 GMT-0500 (Central Daylight Time),483868.0,039_o_m_h_a.png,O,m,972,6,1,1774.1999999955297,482093.80000000447,7025,VNB,A,4
3,prac,1,1.0,2-Back,0,z,Fri Oct 11 2024 16:18:01 GMT-0500 (Central Daylight Time),486683.6000000015,109_y_m_n_a.png,O,None,2010,7,1,2807.10000000149,483876.5,7025,VNB,A,5
4,prac,1,0.0,2-Back,1,m,Fri Oct 11 2024 16:18:01 GMT-0500 (Central Daylight Time),489233.0,139_m_f_d_a.png,O,m,1748,8,1,2540.5,486692.5,7025,VNB,A,6
4,prac,1,0.0,2-Back,0,m,Fri Oct 11 2024 16:18:01 GMT-0500 (Central Daylight Time),491449.0,124_o_f_d_a.png,O,z,1368,9,1,2207.5,489241.5,7025,VNB,A,7
5,prac,1,0.0,2-Back,1,m,Fri Oct 11 2024 16:18:01 GMT-0500 (Central Daylight Time),493931.3999999985,165_m_m_h_a.png,O,m,1704,10,1,2474.1999999955297,491457.200000003,7025,VNB,A,8
5,prac,1,1.0,2-Back,0,z,Fri Oct 11 2024 16:18:01 GMT-0500 (Central Daylight Time),495931.0,071_y_f_d_a.png,O,m,1181,11,1,1991.3999999985099,493939.6000000015,7025,VNB,A,9
6,prac,1,0.0,2-Back,1,m,Fri Oct 11 2024 16:18:01 GMT-0500 (Central Daylight Time),498446.6000000015,039_o_m_n_a.png,O,m,1710,12,1,2507.60000000149,495939.0,7025,VNB,A,10
0,prac,2,0.0,2-Back,,,Fri Oct 11 2024 16:18:01 GMT-0500 (Central Daylight Time),498446.6000000015,139_m_f_n_a.png,O,a,3952,1,1,2507.60000000149,495939.0,7025,VNB,A,0
0,prac,2,0.0,2-Back,,,Fri Oct 11 2024 16:18:01 GMT-0500 (Central Daylight Time),498446.6000000015,124_o_f_h_a.png,O,a,3952,2,1,2507.60000000149,495939.0,7025,VNB,A,0
1,prac,2,0.0,2-Back,1,m,Fri Oct 11 2024 16:18:01 GMT-0500 (Central Daylight Time),509160.1000000015,039_o_m_d_a.png,O,m,843,3,1,1641.5,507518.6000000015,7025,VNB,A,1
2,prac,2,1.0,2-Back,1,z,Fri Oct 11 2024 16:18:01 GMT-0500 (Central Daylight Time),510709.6000000015,165_m_m_h_a.png,O,z,770,4,1,1541.5,509168.1000000015,7025,VNB,A,2
3,prac,2,0.0,2-Back,1,m,Fri Oct 11 2024 16:18:01 GMT-0500 (Central Daylight Time),513175.3999999985,071_y_f_n_a.png,O,m,1650,5,1,2458.1999999955297,510717.200000003,7025,VNB,A,3
3,prac,2,1.0,2-Back,0,z,Fri Oct 11 2024 16:18:01 GMT-0500 (Central Daylight Time),514926.200000003,039_o_m_h_a.png,O,m,946,6,1,1743.1000000014901,513183.1000000015,7025,VNB,A,4
3,prac,2,1.0,2-Back,0,z,Fri Oct 11 2024 16:18:01 GMT-0500 (Central Daylight Time),517740.700000003,109_y_m_n_a.png,O,None,2006,7,1,2806.0,514934.700000003,7025,VNB,A,5
4,prac,2,0.0,2-Back,1,m,Fri Oct 11 2024 16:18:01 GMT-0500 (Central Daylight Time),520456.30000000447,139_m_f_d_a.png,O,m,1899,8,1,2707.10000000149,517749.200000003,7025,VNB,A,6
5,prac,2,0.0,2-Back,1,m,Fri Oct 11 2024 16:18:01 GMT-0500 (Central Daylight Time),522072.6000000015,124_o_f_d_a.png,O,m,784,9,1,1608.1000000014901,520464.5,7025,VNB,A,7
5,prac,2,0.0,2-Back,0,m,Fri Oct 11 2024 16:18:01 GMT-0500 (Central Daylight Time),523572.1000000015,165_m_m_h_a.png,O,z,721,10,1,1491.2000000029802,522080.8999999985,7025,VNB,A,8
5,prac,2,1.0,2-Back,0,z,Fri Oct 11 2024 16:18:01 GMT-0500 (Central Daylight Time),525323.5,071_y_f_d_a.png,O,m,956,11,1,1742.3999999985099,523581.1000000015,7025,VNB,A,9
6,prac,2,0.0,2-Back,1,m,Fri Oct 11 2024 16:18:01 GMT-0500 (Central Daylight Time),528070.8000000045,039_o_m_n_a.png,O,m,1921,12,1,2737.7000000029802,525333.1000000015,7025,VNB,A,10
0,test,1,0.0,2-Back,,,Fri Oct 11 2024 16:18:01 GMT-0500 (Central Daylight Time),528070.8000000045,109_y_m_h_a.png,O,space,15331,1,1,2737.7000000029802,525333.1000000015,7025,VNB,A,0
0,test,1,0.0,2-Back,,,Fri Oct 11 2024 16:18:01 GMT-0500 (Central Daylight Time),528070.8000000045,124_o_f_n_a.png,O,space,15331,2,1,2737.7000000029802,525333.1000000015,7025,VNB,A,0
1,test,1,0.0,2-Back,1,z,Fri Oct 11 2024 16:18:01 GMT-0500 (Central Daylight Time),567092.0,039_o_m_h_a.png,O,z,998,3,1,2008.5,565083.5,7025,VNB,A,1
2,test,1,0.0,2-Back,1,m,Fri Oct 11 2024 16:18:01 GMT-0500 (Central Daylight Time),568774.5,139_m_f_d_a.png,O,m,661,4,1,1675.0,567099.5,7025,VNB,A,2
3,test,1,1.0,2-Back,1,m,Fri Oct 11 2024 16:18:01 GMT-0500 (Central Daylight Time),570890.700000003,109_y_m_n_a.png,O,m,1090,5,1,2108.89999999851,568781.8000000045,7025,VNB,A,3
3,test,1,0.0,2-Back,0,z,Fri Oct 11 2024 16:18:01 GMT-0500 (Central Daylight Time),572873.5,071_y_f_d_a.png,O,m,951,6,1,1975.6000000014901,570897.8999999985,7025,VNB,A,4
4,test,1,0.0,2-Back,1,m,Fri Oct 11 2024 16:18:01 GMT-0500 (Central Daylight Time),574955.8000000045,165_m_m_h_a.png,O,m,1063,7,1,2074.4000000059605,572881.3999999985,7025,VNB,A,5
5,test,1,1.0,2-Back,1,m,Fri Oct 11 2024 16:18:01 GMT-0500 (Central Daylight Time),576905.3000000045,071_y_f_n_a.png,O,m,925,8,1,1942.2000000029802,574963.1000000015,7025,VNB,A,6
6,test,1,0.0,2-Back,1,z,Fri Oct 11 2024 16:18:01 GMT-0500 (Central Daylight Time),578488.3000000045,124_o_f_h_a.png,O,z,560,9,1,1575.1000000014901,576913.200000003,7025,VNB,A,7
6,test,1,0.0,2-Back,0,m,Fri Oct 11 2024 16:18:01 GMT-0500 (Central Daylight Time),580720.8999999985,039_o_m_d_a.png,O,z,1201,10,1,2222.7999999970198,578498.1000000015,7025,VNB,A,8
7,test,1,1.0,2-Back,1,m,Fri Oct 11 2024 16:18:01 GMT-0500 (Central Daylight Time),582620.5,165_m_m_d_a.png,O,m,872,11,1,1891.8999999985099,580728.6000000015,7025,VNB,A,9
8,test,1,0.0,2-Back,1,m,Fri Oct 11 2024 16:18:01 GMT-0500 (Central Daylight Time),584887.3000000045,139_m_f_n_a.png,O,m,1236,12,1,2259.10000000149,582628.200000003,7025,VNB,A,10
9,test,1,0.0,2-Back,1,m,Fri Oct 11 2024 16:18:01 GMT-0500 (Central Daylight Time),586935.5,071_y_f_h_a.png,O,m,1027,13,1,2040.8999999985099,584894.6000000015,7025,VNB,A,11
10,test,1,0.0,2-Back,1,z,Fri Oct 11 2024 16:18:01 GMT-0500 (Central Daylight Time),588501.700000003,165_m_m_n_a.png,O,z,538,14,1,1558.3999999985099,586943.3000000045,7025,VNB,A,12
11,test,1,0.0,2-Back,1,m,Fri Oct 11 2024 16:18:01 GMT-0500 (Central Daylight Time),590435.8000000045,109_y_m_d_a.png,O,m,916,15,1,1926.5,588509.3000000045,7025,VNB,A,13
12,test,1,1.0,2-Back,1,m,Fri Oct 11 2024 16:18:01 GMT-0500 (Central Daylight Time),592433.8999999985,139_m_f_h_a.png,O,m,975,16,1,1990.5,590443.3999999985,7025,VNB,A,14
13,test,1,0.0,2-Back,1,z,Fri Oct 11 2024 16:18:01 GMT-0500 (Central Daylight Time),593933.3000000045,124_o_f_d_a.png,O,z,471,17,1,1491.8000000044703,592441.5,7025,VNB,A,15
14,test,1,0.0,2-Back,1,m,Fri Oct 11 2024 16:18:01 GMT-0500 (Central Daylight Time),596082.700000003,039_o_m_n_a.png,O,m,1124,18,1,2141.5,593941.200000003,7025,VNB,A,16
0,test,2,0.0,2-Back,,,Fri Oct 11 2024 16:18:01 GMT-0500 (Central Daylight Time),596082.700000003,165_m_m_h_a.png,O,space,1631,1,1,2141.5,593941.200000003,7025,VNB,A,0
0,test,2,0.0,2-Back,,,Fri Oct 11 2024 16:18:01 GMT-0500 (Central Daylight Time),596082.700000003,071_y_f_n_a.png,O,space,1631,2,1,2141.5,593941.200000003,7025,VNB,A,0
1,test,2,1.0,2-Back,1,z,Fri Oct 11 2024 16:18:01 GMT-0500 (Central Daylight Time),604846.700000003,124_o_f_h_a.png,O,z,1020,3,1,2041.8000000044703,602804.8999999985,7025,VNB,A,1
2,test,2,0.0,2-Back,1,m,Fri Oct 11 2024 16:18:01 GMT-0500 (Central Daylight Time),606745.8999999985,039_o_m_d_a.png,O,m,867,4,1,1891.2999999970198,604854.6000000015,7025,VNB,A,2
3,test,2,0.0,2-Back,1,m,Fri Oct 11 2024 16:18:01 GMT-0500 (Central Daylight Time),608578.8000000045,139_m_f_d_a.png,O,m,807,5,1,1826.1000000014901,606752.700000003,7025,VNB,A,3
4,test,2,0.0,2-Back,1,m,Fri Oct 11 2024 16:18:01 GMT-0500 (Central Daylight Time),610594.8000000045,109_y_m_h_a.png,O,m,990,6,1,2009.1000000014901,608585.700000003,7025,VNB,A,4
5,test,2,0.0,2-Back,1,m,Fri Oct 11 2024 16:18:01 GMT-0500 (Central Daylight Time),612560.8000000045,124_o_f_n_a.png,O,m,935,7,1,1958.3000000044703,610602.5,7025,VNB,A,5
6,test,2,1.0,2-Back,1,z,Fri Oct 11 2024 16:18:01 GMT-0500 (Central Daylight Time),613977.1000000015,039_o_m_h_a.png,O,z,385,8,1,1408.6000000014901,612568.5,7025,VNB,A,6
6,test,2,0.0,2-Back,0,m,Fri Oct 11 2024 16:18:01 GMT-0500 (Central Daylight Time),616409.8999999985,071_y_f_d_a.png,O,z,1400,9,1,2425.2999999970198,613984.6000000015,7025,VNB,A,7
7,test,2,0.0,2-Back,1,m,Fri Oct 11 2024 16:18:01 GMT-0500 (Central Daylight Time),618992.1000000015,109_y_m_d_a.png,O,m,1560,10,1,2574.5,616417.6000000015,7025,VNB,A,8
7,test,2,0.0,2-Back,0,m,Fri Oct 11 2024 16:18:01 GMT-0500 (Central Daylight Time),620758.200000003,165_m_m_n_a.png,O,z,736,11,1,1758.6000000014901,618999.6000000015,7025,VNB,A,9
8,test,2,0.0,2-Back,1,m,Fri Oct 11 2024 16:18:01 GMT-0500 (Central Daylight Time),622392.3999999985,139_m_f_h_a.png,O,m,603,12,1,1626.8999999985099,620765.5,7025,VNB,A,10
9,test,2,1.0,2-Back,1,z,Fri Oct 11 2024 16:18:01 GMT-0500 (Central Daylight Time),624024.1000000015,039_o_m_n_a.png,O,z,610,13,1,1624.5,622399.6000000015,7025,VNB,A,11
10,test,2,0.0,2-Back,1,m,Fri Oct 11 2024 16:18:01 GMT-0500 (Central Daylight Time),625973.200000003,124_o_f_d_a.png,O,m,929,14,1,1941.3999999985099,624031.8000000045,7025,VNB,A,12
11,test,2,0.0,2-Back,1,m,Fri Oct 11 2024 16:18:01 GMT-0500 (Central Daylight Time),628939.1000000015,071_y_f_h_a.png,O,m,1940,15,1,2957.39999999851,625981.700000003,7025,VNB,A,13
11,test,2,0.0,2-Back,0,z,Fri Oct 11 2024 16:18:01 GMT-0500 (Central Daylight Time),630838.5,165_m_m_d_a.png,O,m,878,16,1,1891.8999999985099,628946.6000000015,7025,VNB,A,14
12,test,2,0.0,2-Back,1,m,Fri Oct 11 2024 16:18:01 GMT-0500 (Central Daylight Time),633738.200000003,109_y_m_n_a.png,O,m,1883,17,1,2891.7000000029802,630846.5,7025,VNB,A,15
13,test,2,1.0,2-Back,1,m,Fri Oct 11 2024 16:18:01 GMT-0500 (Central Daylight Time),635370.3999999985,139_m_f_n_a.png,O,m,608,18,1,1624.5999999940395,633745.8000000045,7025,VNB,A,16
0,test,3,1.0,2-Back,,,Fri Oct 11 2024 16:18:01 GMT-0500 (Central Daylight Time),635370.3999999985,039_o_m_n_a.png,O,space,999,1,1,1624.5999999940395,633745.8000000045,7025,VNB,A,0
0,test,3,1.0,2-Back,,,Fri Oct 11 2024 16:18:01 GMT-0500 (Central Daylight Time),635370.3999999985,124_o_f_d_a.png,O,space,999,2,1,1624.5999999940395,633745.8000000045,7025,VNB,A,0
1,test,3,0.0,2-Back,1,m,Fri Oct 11 2024 16:18:01 GMT-0500 (Central Daylight Time),643701.200000003,071_y_f_h_a.png,O,m,1263,3,1,2275.10000000149,641426.1000000015,7025,VNB,A,1
1,test,3,0.0,2-Back,0,z,Fri Oct 11 2024 16:18:01 GMT-0500 (Central Daylight Time),646017.3000000045,139_m_f_d_a.png,O,m,1292,4,1,2309.2000000029802,643708.1000000015,7025,VNB,A,2
2,test,3,1.0,2-Back,1,m,Fri Oct 11 2024 16:18:01 GMT-0500 (Central Daylight Time),647749.8999999985,109_y_m_n_a.png,O,m,704,5,1,1724.5,646025.3999999985,7025,VNB,A,3
3,test,3,0.0,2-Back,1,m,Fri Oct 11 2024 16:18:01 GMT-0500 (Central Daylight Time),649615.8999999985,039_o_m_h_a.png,O,m,844,6,1,1858.1999999955297,647757.700000003,7025,VNB,A,4
4,test,3,0.0,2-Back,1,z,Fri Oct 11 2024 16:18:01 GMT-0500 (Central Daylight Time),651082.1000000015,071_y_f_n_a.png,O,z,441,7,1,1459.0,649623.1000000015,7025,VNB,A,5
5,test,3,1.0,2-Back,1,m,Fri Oct 11 2024 16:18:01 GMT-0500 (Central Daylight Time),652815.0,165_m_m_d_a.png,O,m,703,8,1,1725.6999999955297,651089.3000000045,7025,VNB,A,6
6,test,3,0.0,2-Back,1,m,Fri Oct 11 2024 16:18:01 GMT-0500 (Central Daylight Time),654930.8000000045,109_y_m_d_a.png,O,m,1099,9,1,2107.10000000149,652823.700000003,7025,VNB,A,7
6,test,3,0.0,2-Back,0,m,Fri Oct 11 2024 16:18:01 GMT-0500 (Central Daylight Time),656330.700000003,124_o_f_h_a.png,O,z,382,10,1,1392.7000000029802,654938.0,7025,VNB,A,8
7,test,3,1.0,2-Back,1,m,Fri Oct 11 2024 16:18:01 GMT-0500 (Central Daylight Time),658596.3999999985,139_m_f_n_a.png,O,m,1247,11,1,2258.2999999970198,656338.1000000015,7025,VNB,A,9
8,test,3,1.0,2-Back,1,z,Fri Oct 11 2024 16:18:01 GMT-0500 (Central Daylight Time),660146.0,165_m_m_h_a.png,O,z,517,12,1,1542.1000000014901,658603.8999999985,7025,VNB,A,10
9,test,3,0.0,2-Back,1,m,Fri Oct 11 2024 16:18:01 GMT-0500 (Central Daylight Time),662028.8999999985,071_y_f_d_a.png,O,m,855,13,1,1875.3999999985099,660153.5,7025,VNB,A,11
9,test,3,0.0,2-Back,0,m,Fri Oct 11 2024 16:18:01 GMT-0500 (Central Daylight Time),663511.5,124_o_f_n_a.png,O,z,453,14,1,1475.0,662036.5,7025,VNB,A,12
9,test,3,0.0,2-Back,0,z,Fri Oct 11 2024 16:18:01 GMT-0500 (Central Daylight Time),665027.8999999985,039_o_m_d_a.png,O,m,498,15,1,1508.5999999940395,663519.3000000045,7025,VNB,A,13
10,test,3,1.0,2-Back,1,m,Fri Oct 11 2024 16:18:01 GMT-0500 (Central Daylight Time),667127.200000003,139_m_f_h_a.png,O,m,1070,16,1,2091.89999999851,665035.3000000045,7025,VNB,A,14
11,test,3,0.0,2-Back,1,m,Fri Oct 11 2024 16:18:01 GMT-0500 (Central Daylight Time),669059.8999999985,165_m_m_n_a.png,O,m,914,17,1,1925.2999999970198,667134.6000000015,7025,VNB,A,15
11,test,3,0.0,2-Back,0,z,Fri Oct 11 2024 16:18:01 GMT-0500 (Central Daylight Time),670826.0,109_y_m_h_a.png,O,m,742,18,1,1758.3999999985099,669067.6000000015,7025,VNB,A,16
0,test,4,0.0,2-Back,,,Fri Oct 11 2024 16:18:01 GMT-0500 (Central Daylight Time),670826.0,139_m_f_n_a.png,O,space,959,1,1,1758.3999999985099,669067.6000000015,7025,VNB,A,0
0,test,4,0.0,2-Back,,,Fri Oct 11 2024 16:18:01 GMT-0500 (Central Daylight Time),670826.0,039_o_m_n_a.png,O,space,959,2,1,1758.3999999985099,669067.6000000015,7025,VNB,A,0
1,test,4,1.0,2-Back,1,m,Fri Oct 11 2024 16:18:01 GMT-0500 (Central Daylight Time),678723.3999999985,109_y_m_h_a.png,O,m,840,3,1,1858.5999999940395,676864.8000000045,7025,VNB,A,1
2,test,4,1.0,2-Back,1,m,Fri Oct 11 2024 16:18:01 GMT-0500 (Central Daylight Time),680489.6000000015,124_o_f_d_a.png,O,m,742,4,1,1758.7000000029802,678730.8999999985,7025,VNB,A,2
2,test,4,0.0,2-Back,0,z,Fri Oct 11 2024 16:18:01 GMT-0500 (Central Daylight Time),682172.5,039_o_m_h_a.png,O,m,656,5,1,1674.8999999985099,680497.6000000015,7025,VNB,A,3
2,test,4,0.0,2-Back,0,m,Fri Oct 11 2024 16:18:01 GMT-0500 (Central Daylight Time),684088.5,165_m_m_n_a.png,O,z,885,6,1,1908.0,682180.5,7025,VNB,A,4
3,test,4,0.0,2-Back,1,m,Fri Oct 11 2024 16:18:01 GMT-0500 (Central Daylight Time),685788.0,139_m_f_d_a.png,O,m,681,7,1,1691.0,684097.0,7025,VNB,A,5
3,test,4,0.0,2-Back,0,z,Fri Oct 11 2024 16:18:01 GMT-0500 (Central Daylight Time),687554.5,071_y_f_n_a.png,O,m,750,8,1,1758.6000000014901,685795.8999999985,7025,VNB,A,6
3,test,4,1.0,2-Back,0,m,Fri Oct 11 2024 16:18:01 GMT-0500 (Central Daylight Time),689153.700000003,124_o_f_h_a.png,O,z,567,9,1,1592.3999999985099,687561.3000000045,7025,VNB,A,7
4,test,4,0.0,2-Back,1,m,Fri Oct 11 2024 16:18:01 GMT-0500 (Central Daylight Time),690952.8000000045,165_m_m_h_a.png,O,m,768,10,1,1791.3000000044703,689161.5,7025,VNB,A,8
5,test,4,0.0,2-Back,1,m,Fri Oct 11 2024 16:18:01 GMT-0500 (Central Daylight Time),692885.5,071_y_f_d_a.png,O,m,905,11,1,1924.6999999955297,690960.8000000045,7025,VNB,A,9
5,test,4,0.0,2-Back,0,m,Fri Oct 11 2024 16:18:01 GMT-0500 (Central Daylight Time),695417.8000000045,109_y_m_n_a.png,O,z,1508,12,1,2524.2000000029802,692893.6000000015,7025,VNB,A,10
5,test,4,0.0,2-Back,0,z,Fri Oct 11 2024 16:18:01 GMT-0500 (Central Daylight Time),697450.8000000045,039_o_m_d_a.png,O,m,1007,13,1,2023.4000000059605,695427.3999999985,7025,VNB,A,11
6,test,4,1.0,2-Back,1,m,Fri Oct 11 2024 16:18:01 GMT-0500 (Central Daylight Time),699200.3999999985,139_m_f_h_a.png,O,m,719,14,1,1741.1999999955297,697459.200000003,7025,VNB,A,12
7,test,4,1.0,2-Back,1,m,Fri Oct 11 2024 16:18:01 GMT-0500 (Central Daylight Time),701233.1000000015,071_y_f_h_a.png,O,m,1001,15,1,2025.2000000029802,699207.8999999985,7025,VNB,A,13
7,test,4,0.0,2-Back,0,m,Fri Oct 11 2024 16:18:01 GMT-0500 (Central Daylight Time),703415.8000000045,124_o_f_n_a.png,O,z,1152,16,1,2174.7000000029802,701241.1000000015,7025,VNB,A,14
8,test,4,0.0,2-Back,1,m,Fri Oct 11 2024 16:18:01 GMT-0500 (Central Daylight Time),705198.5,109_y_m_d_a.png,O,m,761,17,1,1774.2999999970198,703424.200000003,7025,VNB,A,15
8,test,4,1.0,2-Back,0,m,Fri Oct 11 2024 16:18:01 GMT-0500 (Central Daylight Time),707130.8999999985,165_m_m_d_a.png,O,z,915,18,1,1924.8999999985099,705206.0,7025,VNB,A,16
0,test,5,1.0,2-Back,,,Fri Oct 11 2024 16:18:01 GMT-0500 (Central Daylight Time),707130.8999999985,071_y_f_d_a.png,O,space,1184,1,1,1924.8999999985099,705206.0,7025,VNB,A,0
0,test,5,1.0,2-Back,,,Fri Oct 11 2024 16:18:01 GMT-0500 (Central Daylight Time),707130.8999999985,124_o_f_h_a.png,O,space,1184,2,1,1924.8999999985099,705206.0,7025,VNB,A,0
0,test,5,1.0,2-Back,0,z,Fri Oct 11 2024 16:18:01 GMT-0500 (Central Daylight Time),715745.3000000045,039_o_m_d_a.png,O,m,1284,3,1,2308.5,713436.8000000045,7025,VNB,A,1
1,test,5,1.0,2-Back,1,m,Fri Oct 11 2024 16:18:01 GMT-0500 (Central Daylight Time),718227.700000003,139_m_f_n_a.png,O,m,1464,4,1,2475.0,715752.700000003,7025,VNB,A,2
1,test,5,0.0,2-Back,0,m,Fri Oct 11 2024 16:18:01 GMT-0500 (Central Daylight Time),720510.6000000015,165_m_m_h_a.png,O,z,1254,5,1,2274.89999999851,718235.700000003,7025,VNB,A,3
1,test,5,0.0,2-Back,0,z,Fri Oct 11 2024 16:18:01 GMT-0500 (Central Daylight Time),722076.3999999985,071_y_f_n_a.png,O,m,547,6,1,1558.0999999940395,720518.3000000045,7025,VNB,A,4
2,test,5,0.0,2-Back,1,m,Fri Oct 11 2024 16:18:01 GMT-0500 (Central Daylight Time),724525.700000003,124_o_f_d_a.png,O,m,1429,7,1,2441.3000000044703,722084.3999999985,7025,VNB,A,5
3,test,5,0.0,2-Back,1,m,Fri Oct 11 2024 16:18:01 GMT-0500 (Central Daylight Time),726442.0,039_o_m_h_a.png,O,m,891,8,1,1908.6999999955297,724533.3000000045,7025,VNB,A,6
4,test,5,1.0,2-Back,1,z,Fri Oct 11 2024 16:18:01 GMT-0500 (Central Daylight Time),728458.200000003,139_m_f_d_a.png,O,z,983,9,1,2008.3999999985099,726449.8000000045,7025,VNB,A,7
4,test,5,0.0,2-Back,0,m,Fri Oct 11 2024 16:18:01 GMT-0500 (Central Daylight Time),730257.200000003,109_y_m_n_a.png,O,z,767,10,1,1791.5,728465.700000003,7025,VNB,A,8
5,test,5,0.0,2-Back,1,m,Fri Oct 11 2024 16:18:01 GMT-0500 (Central Daylight Time),732223.6000000015,165_m_m_n_a.png,O,m,945,11,1,1958.6000000014901,730265.0,7025,VNB,A,9
5,test,5,0.0,2-Back,0,m,Fri Oct 11 2024 16:18:01 GMT-0500 (Central Daylight Time),734772.5,071_y_f_h_a.png,O,z,1530,12,1,2541.5,732231.0,7025,VNB,A,10
6,test,5,0.0,2-Back,1,m,Fri Oct 11 2024 16:18:01 GMT-0500 (Central Daylight Time),736405.3000000045,109_y_m_d_a.png,O,m,613,13,1,1625.5,734779.8000000045,7025,VNB,A,11
7,test,5,1.0,2-Back,1,z,Fri Oct 11 2024 16:18:01 GMT-0500 (Central Daylight Time),738322.5,139_m_f_h_a.png,O,z,892,14,1,1909.7999999970198,736412.700000003,7025,VNB,A,12
8,test,5,0.0,2-Back,1,m,Fri Oct 11 2024 16:18:01 GMT-0500 (Central Daylight Time),740470.8000000045,039_o_m_n_a.png,O,m,1128,15,1,2140.3000000044703,738330.5,7025,VNB,A,13
8,test,5,0.0,2-Back,0,m,Fri Oct 11 2024 16:18:01 GMT-0500 (Central Daylight Time),742854.5,165_m_m_d_a.png,O,z,1363,16,1,2375.7999999970198,740478.700000003,7025,VNB,A,14
8,test,5,0.0,2-Back,0,z,Fri Oct 11 2024 16:18:01 GMT-0500 (Central Daylight Time),744419.6000000015,124_o_f_n_a.png,O,m,548,17,1,1557.6000000014901,742862.0,7025,VNB,A,15
9,test,5,1.0,2-Back,1,m,Fri Oct 11 2024 16:18:01 GMT-0500 (Central Daylight Time),746902.200000003,109_y_m_h_a.png,O,m,1462,18,1,2474.8000000044703,744427.3999999985,7025,VNB,A,16
