acc_sum,block,block_c,change,condition,correct,correct_response,datetime,endtime,face,project,response,response_time,row_sel,session_number,start_end,starttime,subject_id,task,task_vers,trial
0,prac,1,,1-Back,,,Thu Mar 27 2025 09:26:13 GMT-0500 (Central Daylight Time),,050_m_f_n_a.png,O,space,6360,1,1,,,7102,NNB,A,0
1,prac,1,0.0,1-Back,1,m,Thu Mar 27 2025 09:26:13 GMT-0500 (Central Daylight Time),182390.3999999985,063_y_f_n_a.png,O,m,1192,2,1,2008.0,180382.3999999985,7102,NNB,A,1
2,prac,1,1.0,1-Back,1,z,Thu Mar 27 2025 09:26:13 GMT-0500 (Central Daylight Time),184573.19999999553,063_y_f_n_a.png,O,z,1394,3,1,2173.5999999940395,182399.6000000015,7102,NNB,A,2
2,prac,1,0.0,1-Back,0,m,Thu Mar 27 2025 09:26:13 GMT-0500 (Central Daylight Time),187422.19999999553,053_o_m_n_a.png,O,None,2052,4,1,2842.0999999940395,184580.1000000015,7102,NNB,A,3
3,prac,1,0.0,1-Back,1,m,Thu Mar 27 2025 09:26:13 GMT-0500 (Central Daylight Time),189638.29999999702,058_m_m_n_a.png,O,m,1403,5,1,2207.39999999851,187430.8999999985,7102,NNB,A,4
4,prac,1,1.0,1-Back,1,z,Thu Mar 27 2025 09:26:13 GMT-0500 (Central Daylight Time),191571.0,058_m_m_n_a.png,O,z,1147,6,1,1924.8999999985099,189646.1000000015,7102,NNB,A,5
5,prac,1,0.0,1-Back,1,m,Thu Mar 27 2025 09:26:13 GMT-0500 (Central Daylight Time),193836.8999999985,047_o_f_n_a.png,O,m,1426,7,1,2258.0,191578.8999999985,7102,NNB,A,6
6,prac,1,0.0,1-Back,1,m,Thu Mar 27 2025 09:26:13 GMT-0500 (Central Daylight Time),195902.79999999702,045_m_m_n_a.png,O,m,1252,8,1,2057.6999999955297,193845.1000000015,7102,NNB,A,7
7,prac,1,0.0,1-Back,1,m,Thu Mar 27 2025 09:26:13 GMT-0500 (Central Daylight Time),197352.19999999553,050_m_f_n_a.png,O,m,667,9,1,1441.6999999955297,195910.5,7102,NNB,A,8
8,prac,1,1.0,1-Back,1,z,Thu Mar 27 2025 09:26:13 GMT-0500 (Central Daylight Time),199435.0,050_m_f_n_a.png,O,z,1298,10,1,2075.39999999851,197359.6000000015,7102,NNB,A,9
9,prac,1,0.0,1-Back,1,m,Thu Mar 27 2025 09:26:13 GMT-0500 (Central Daylight Time),201284.5,053_o_m_n_a.png,O,m,1063,11,1,1841.8000000044703,199442.69999999553,7102,NNB,A,10
9,prac,1,0.0,1-Back,0,m,Thu Mar 27 2025 09:26:13 GMT-0500 (Central Daylight Time),203867.0,010_y_f_n_a.png,O,z,1740,12,1,2574.8000000044703,201292.19999999553,7102,NNB,A,11
0,test,1,0.0,1-Back,,,Thu Mar 27 2025 09:26:13 GMT-0500 (Central Daylight Time),203867.0,063_y_f_n_a.png,O,space,9433,1,1,2574.8000000044703,201292.19999999553,7102,NNB,A,0
1,test,1,0.0,1-Back,1,m,Thu Mar 27 2025 09:26:13 GMT-0500 (Central Daylight Time),222677.79999999702,043_m_f_n_a.png,O,m,762,2,1,1776.6000000014901,220901.19999999553,7102,NNB,A,1
1,test,1,0.0,1-Back,0,m,Thu Mar 27 2025 09:26:13 GMT-0500 (Central Daylight Time),225410.3999999985,010_y_f_n_a.png,O,z,1699,3,1,2726.2000000029802,222684.19999999553,7102,NNB,A,2
2,test,1,1.0,1-Back,1,z,Thu Mar 27 2025 09:26:13 GMT-0500 (Central Daylight Time),227109.69999999553,010_y_f_n_a.png,O,z,671,4,1,1693.3999999985099,225416.29999999702,7102,NNB,A,3
3,test,1,0.0,1-Back,1,m,Thu Mar 27 2025 09:26:13 GMT-0500 (Central Daylight Time),229475.69999999553,043_m_f_n_a.png,O,m,1347,5,1,2359.7999999970198,227115.8999999985,7102,NNB,A,4
3,test,1,0.0,1-Back,0,m,Thu Mar 27 2025 09:26:13 GMT-0500 (Central Daylight Time),231241.79999999702,053_o_m_n_a.png,O,z,734,6,1,1759.8999999985099,229481.8999999985,7102,NNB,A,5
4,test,1,1.0,1-Back,1,z,Thu Mar 27 2025 09:26:13 GMT-0500 (Central Daylight Time),233607.69999999553,053_o_m_n_a.png,O,z,1344,7,1,2359.5,231248.19999999553,7102,NNB,A,6
5,test,1,0.0,1-Back,1,m,Thu Mar 27 2025 09:26:13 GMT-0500 (Central Daylight Time),235773.79999999702,058_m_m_n_a.png,O,m,1137,8,1,2159.89999999851,233613.8999999985,7102,NNB,A,7
6,test,1,0.0,1-Back,1,m,Thu Mar 27 2025 09:26:13 GMT-0500 (Central Daylight Time),237806.29999999702,047_o_f_n_a.png,O,m,1012,9,1,2026.6000000014901,235779.69999999553,7102,NNB,A,8
7,test,1,0.0,1-Back,1,m,Thu Mar 27 2025 09:26:13 GMT-0500 (Central Daylight Time),239955.79999999702,058_m_m_n_a.png,O,m,1123,10,1,2143.1999999955297,237812.6000000015,7102,NNB,A,9
8,test,1,0.0,1-Back,1,m,Thu Mar 27 2025 09:26:13 GMT-0500 (Central Daylight Time),241921.8999999985,041_y_m_n_a.png,O,m,942,11,1,1960.1000000014901,239961.79999999702,7102,NNB,A,10
9,test,1,1.0,1-Back,1,z,Thu Mar 27 2025 09:26:13 GMT-0500 (Central Daylight Time),243904.3999999985,041_y_m_n_a.png,O,z,951,12,1,1976.2999999970198,241928.1000000015,7102,NNB,A,11
10,test,1,0.0,1-Back,1,m,Thu Mar 27 2025 09:26:13 GMT-0500 (Central Daylight Time),246303.69999999553,044_o_f_n_a.png,O,m,1368,13,1,2393.0,243910.69999999553,7102,NNB,A,12
11,test,1,1.0,1-Back,1,z,Thu Mar 27 2025 09:26:13 GMT-0500 (Central Daylight Time),248303.0,044_o_f_n_a.png,O,z,970,14,1,1993.2000000029802,246309.79999999702,7102,NNB,A,13
12,test,1,0.0,1-Back,1,m,Thu Mar 27 2025 09:26:13 GMT-0500 (Central Daylight Time),250452.29999999702,008_y_m_n_a.png,O,m,1130,15,1,2143.60000000149,248308.69999999553,7102,NNB,A,14
13,test,1,0.0,1-Back,1,m,Thu Mar 27 2025 09:26:13 GMT-0500 (Central Daylight Time),252268.6000000015,050_m_f_n_a.png,O,m,789,16,1,1810.1000000014901,250458.5,7102,NNB,A,15
14,test,1,0.0,1-Back,1,m,Thu Mar 27 2025 09:26:13 GMT-0500 (Central Daylight Time),254234.6000000015,046_o_m_n_a.png,O,m,949,17,1,1959.6000000014901,252275.0,7102,NNB,A,16
15,test,1,0.0,1-Back,1,m,Thu Mar 27 2025 09:26:13 GMT-0500 (Central Daylight Time),256567.1000000015,050_m_f_n_a.png,O,m,1311,18,1,2326.2000000029802,254240.8999999985,7102,NNB,A,17
0,test,2,0.0,1-Back,,,Thu Mar 27 2025 09:26:13 GMT-0500 (Central Daylight Time),256567.1000000015,058_m_m_n_a.png,O,space,2346,1,1,2326.2000000029802,254240.8999999985,7102,NNB,A,0
1,test,2,0.0,1-Back,1,m,Thu Mar 27 2025 09:26:13 GMT-0500 (Central Daylight Time),262732.0,043_m_f_n_a.png,O,m,772,2,1,1793.6000000014901,260938.3999999985,7102,NNB,A,1
2,test,2,1.0,1-Back,1,z,Thu Mar 27 2025 09:26:13 GMT-0500 (Central Daylight Time),265664.299999997,043_m_f_n_a.png,O,z,1909,3,1,2926.10000000149,262738.19999999553,7102,NNB,A,2
3,test,2,0.0,1-Back,1,m,Thu Mar 27 2025 09:26:13 GMT-0500 (Central Daylight Time),267463.8999999985,058_m_m_n_a.png,O,m,769,4,1,1792.8999999985099,265671.0,7102,NNB,A,3
4,test,2,0.0,1-Back,1,m,Thu Mar 27 2025 09:26:13 GMT-0500 (Central Daylight Time),269546.5,041_y_m_n_a.png,O,m,1065,5,1,2076.10000000149,267470.3999999985,7102,NNB,A,4
5,test,2,0.0,1-Back,1,m,Thu Mar 27 2025 09:26:13 GMT-0500 (Central Daylight Time),271479.19999999553,063_y_f_n_a.png,O,m,902,6,1,1925.7999999970198,269553.3999999985,7102,NNB,A,5
6,test,2,1.0,1-Back,1,z,Thu Mar 27 2025 09:26:13 GMT-0500 (Central Daylight Time),273428.6000000015,063_y_f_n_a.png,O,z,922,7,1,1942.5,271486.1000000015,7102,NNB,A,6
7,test,2,0.0,1-Back,1,m,Thu Mar 27 2025 09:26:13 GMT-0500 (Central Daylight Time),275428.0,041_y_m_n_a.png,O,m,973,8,1,1993.0,273435.0,7102,NNB,A,7
8,test,2,0.0,1-Back,1,m,Thu Mar 27 2025 09:26:13 GMT-0500 (Central Daylight Time),277277.3999999985,044_o_f_n_a.png,O,m,829,9,1,1843.3999999985099,275434.0,7102,NNB,A,8
9,test,2,0.0,1-Back,1,m,Thu Mar 27 2025 09:26:13 GMT-0500 (Central Daylight Time),279293.299999997,045_m_m_n_a.png,O,m,996,10,1,2009.2999999970198,277284.0,7102,NNB,A,9
10,test,2,1.0,1-Back,1,z,Thu Mar 27 2025 09:26:13 GMT-0500 (Central Daylight Time),281192.799999997,045_m_m_n_a.png,O,z,876,11,1,1893.1000000014901,279299.69999999553,7102,NNB,A,10
11,test,2,0.0,1-Back,1,m,Thu Mar 27 2025 09:26:13 GMT-0500 (Central Daylight Time),283008.799999997,044_o_f_n_a.png,O,m,793,12,1,1810.1000000014901,281198.69999999553,7102,NNB,A,11
12,test,2,0.0,1-Back,1,m,Thu Mar 27 2025 09:26:13 GMT-0500 (Central Daylight Time),284858.19999999553,047_o_f_n_a.png,O,m,816,13,1,1843.1999999955297,283015.0,7102,NNB,A,12
13,test,2,0.0,1-Back,1,m,Thu Mar 27 2025 09:26:13 GMT-0500 (Central Daylight Time),286607.69999999553,053_o_m_n_a.png,O,m,719,14,1,1743.1999999955297,284864.5,7102,NNB,A,13
14,test,2,0.0,1-Back,1,m,Thu Mar 27 2025 09:26:13 GMT-0500 (Central Daylight Time),288473.8999999985,046_o_m_n_a.png,O,m,833,15,1,1860.1000000014901,286613.799999997,7102,NNB,A,14
15,test,2,1.0,1-Back,1,z,Thu Mar 27 2025 09:26:13 GMT-0500 (Central Daylight Time),290606.5,046_o_m_n_a.png,O,z,1112,16,1,2126.39999999851,288480.1000000015,7102,NNB,A,15
16,test,2,0.0,1-Back,1,m,Thu Mar 27 2025 09:26:13 GMT-0500 (Central Daylight Time),292489.3999999985,008_y_m_n_a.png,O,m,851,17,1,1876.6000000014901,290612.799999997,7102,NNB,A,16
17,test,2,1.0,1-Back,1,z,Thu Mar 27 2025 09:26:13 GMT-0500 (Central Daylight Time),294455.299999997,008_y_m_n_a.png,O,z,944,18,1,1960.0,292495.299999997,7102,NNB,A,17
0,test,3,1.0,1-Back,,,Thu Mar 27 2025 09:26:13 GMT-0500 (Central Daylight Time),294455.299999997,010_y_f_n_a.png,O,space,1514,1,1,1960.0,292495.299999997,7102,NNB,A,0
1,test,3,0.0,1-Back,1,m,Thu Mar 27 2025 09:26:13 GMT-0500 (Central Daylight Time),299770.299999997,046_o_m_n_a.png,O,m,700,2,1,1726.3999999985099,298043.8999999985,7102,NNB,A,1
2,test,3,1.0,1-Back,1,z,Thu Mar 27 2025 09:26:13 GMT-0500 (Central Daylight Time),302102.8999999985,046_o_m_n_a.png,O,z,1311,3,1,2326.5,299776.3999999985,7102,NNB,A,2
3,test,3,0.0,1-Back,1,m,Thu Mar 27 2025 09:26:13 GMT-0500 (Central Daylight Time),303885.69999999553,050_m_f_n_a.png,O,m,754,4,1,1776.0,302109.69999999553,7102,NNB,A,3
4,test,3,1.0,1-Back,1,z,Thu Mar 27 2025 09:26:13 GMT-0500 (Central Daylight Time),305535.1000000015,050_m_f_n_a.png,O,z,619,5,1,1643.0,303892.1000000015,7102,NNB,A,4
5,test,3,0.0,1-Back,1,m,Thu Mar 27 2025 09:26:13 GMT-0500 (Central Daylight Time),307367.799999997,044_o_f_n_a.png,O,m,810,6,1,1826.5,305541.299999997,7102,NNB,A,5
6,test,3,0.0,1-Back,1,m,Thu Mar 27 2025 09:26:13 GMT-0500 (Central Daylight Time),309400.5,041_y_m_n_a.png,O,m,1009,7,1,2026.6000000014901,307373.8999999985,7102,NNB,A,6
7,test,3,0.0,1-Back,1,m,Thu Mar 27 2025 09:26:13 GMT-0500 (Central Daylight Time),311233.299999997,044_o_f_n_a.png,O,m,809,8,1,1826.5,309406.799999997,7102,NNB,A,7
8,test,3,0.0,1-Back,1,m,Thu Mar 27 2025 09:26:13 GMT-0500 (Central Daylight Time),312882.799999997,008_y_m_n_a.png,O,m,632,9,1,1643.5,311239.299999997,7102,NNB,A,8
9,test,3,1.0,1-Back,1,z,Thu Mar 27 2025 09:26:13 GMT-0500 (Central Daylight Time),314432.3999999985,008_y_m_n_a.png,O,z,526,10,1,1543.5,312888.8999999985,7102,NNB,A,9
10,test,3,0.0,1-Back,1,m,Thu Mar 27 2025 09:26:13 GMT-0500 (Central Daylight Time),316231.69999999553,043_m_f_n_a.png,O,m,777,11,1,1792.8999999985099,314438.799999997,7102,NNB,A,10
11,test,3,0.0,1-Back,1,m,Thu Mar 27 2025 09:26:13 GMT-0500 (Central Daylight Time),317797.8999999985,063_y_f_n_a.png,O,m,537,12,1,1559.7999999970198,316238.1000000015,7102,NNB,A,11
12,test,3,1.0,1-Back,1,z,Thu Mar 27 2025 09:26:13 GMT-0500 (Central Daylight Time),319364.0,063_y_f_n_a.png,O,z,547,13,1,1559.8999999985099,317804.1000000015,7102,NNB,A,12
13,test,3,0.0,1-Back,1,m,Thu Mar 27 2025 09:26:13 GMT-0500 (Central Daylight Time),321180.299999997,043_m_f_n_a.png,O,m,789,14,1,1810.2999999970198,319370.0,7102,NNB,A,13
14,test,3,0.0,1-Back,1,m,Thu Mar 27 2025 09:26:13 GMT-0500 (Central Daylight Time),323412.8999999985,058_m_m_n_a.png,O,m,1205,15,1,2226.2000000029802,321186.69999999553,7102,NNB,A,14
15,test,3,1.0,1-Back,1,z,Thu Mar 27 2025 09:26:13 GMT-0500 (Central Daylight Time),325279.1000000015,058_m_m_n_a.png,O,z,844,16,1,1859.7000000029802,323419.3999999985,7102,NNB,A,15
16,test,3,0.0,1-Back,1,m,Thu Mar 27 2025 09:26:13 GMT-0500 (Central Daylight Time),327578.299999997,047_o_f_n_a.png,O,m,1274,17,1,2292.89999999851,325285.3999999985,7102,NNB,A,16
17,test,3,1.0,1-Back,1,z,Thu Mar 27 2025 09:26:13 GMT-0500 (Central Daylight Time),329744.19999999553,047_o_f_n_a.png,O,z,1143,18,1,2160.0,327584.19999999553,7102,NNB,A,17
0,test,4,1.0,1-Back,,,Thu Mar 27 2025 09:26:13 GMT-0500 (Central Daylight Time),329744.19999999553,050_m_f_n_a.png,O,space,1457,1,1,2160.0,327584.19999999553,7102,NNB,A,0
1,test,4,0.0,1-Back,1,m,Thu Mar 27 2025 09:26:13 GMT-0500 (Central Daylight Time),334942.69999999553,046_o_m_n_a.png,O,m,687,2,1,1709.5999999940395,333233.1000000015,7102,NNB,A,1
2,test,4,0.0,1-Back,1,m,Thu Mar 27 2025 09:26:13 GMT-0500 (Central Daylight Time),336991.8999999985,050_m_f_n_a.png,O,m,1018,3,1,2043.3999999985099,334948.5,7102,NNB,A,2
3,test,4,0.0,1-Back,1,m,Thu Mar 27 2025 09:26:13 GMT-0500 (Central Daylight Time),338741.3999999985,044_o_f_n_a.png,O,m,729,4,1,1743.5,336997.8999999985,7102,NNB,A,3
4,test,4,1.0,1-Back,1,z,Thu Mar 27 2025 09:26:13 GMT-0500 (Central Daylight Time),341140.6000000015,044_o_f_n_a.png,O,z,1380,5,1,2393.10000000149,338747.5,7102,NNB,A,4
5,test,4,0.0,1-Back,1,m,Thu Mar 27 2025 09:26:13 GMT-0500 (Central Daylight Time),343290.0,063_y_f_n_a.png,O,m,1125,6,1,2143.0,341147.0,7102,NNB,A,5
6,test,4,0.0,1-Back,1,m,Thu Mar 27 2025 09:26:13 GMT-0500 (Central Daylight Time),345106.1000000015,041_y_m_n_a.png,O,m,783,7,1,1809.9000000059605,343296.19999999553,7102,NNB,A,6
7,test,4,1.0,1-Back,1,z,Thu Mar 27 2025 09:26:13 GMT-0500 (Central Daylight Time),347188.69999999553,041_y_m_n_a.png,O,z,1063,8,1,2075.6999999955297,345113.0,7102,NNB,A,7
8,test,4,0.0,1-Back,1,m,Thu Mar 27 2025 09:26:13 GMT-0500 (Central Daylight Time),349221.3999999985,063_y_f_n_a.png,O,m,1013,9,1,2026.0,347195.3999999985,7102,NNB,A,8
9,test,4,0.0,1-Back,1,m,Thu Mar 27 2025 09:26:13 GMT-0500 (Central Daylight Time),350904.299999997,045_m_m_n_a.png,O,m,652,10,1,1676.2999999970198,349228.0,7102,NNB,A,9
10,test,4,1.0,1-Back,1,z,Thu Mar 27 2025 09:26:13 GMT-0500 (Central Daylight Time),352420.3999999985,045_m_m_n_a.png,O,z,497,11,1,1509.3999999985099,350911.0,7102,NNB,A,10
11,test,4,0.0,1-Back,1,m,Thu Mar 27 2025 09:26:13 GMT-0500 (Central Daylight Time),354303.1000000015,047_o_f_n_a.png,O,m,861,12,1,1875.9000000059605,352427.19999999553,7102,NNB,A,11
12,test,4,0.0,1-Back,1,m,Thu Mar 27 2025 09:26:13 GMT-0500 (Central Daylight Time),356035.8999999985,053_o_m_n_a.png,O,m,706,13,1,1726.5,354309.3999999985,7102,NNB,A,12
13,test,4,0.0,1-Back,1,m,Thu Mar 27 2025 09:26:13 GMT-0500 (Central Daylight Time),357735.5,047_o_f_n_a.png,O,m,677,14,1,1693.3000000044703,356042.19999999553,7102,NNB,A,13
14,test,4,0.0,1-Back,1,m,Thu Mar 27 2025 09:26:13 GMT-0500 (Central Daylight Time),359551.6000000015,010_y_f_n_a.png,O,m,786,15,1,1809.6000000014901,357742.0,7102,NNB,A,14
15,test,4,1.0,1-Back,1,z,Thu Mar 27 2025 09:26:13 GMT-0500 (Central Daylight Time),361484.3999999985,010_y_f_n_a.png,O,z,914,16,1,1926.8999999985099,359557.5,7102,NNB,A,15
16,test,4,0.0,1-Back,1,m,Thu Mar 27 2025 09:26:13 GMT-0500 (Central Daylight Time),363383.5,043_m_f_n_a.png,O,m,877,17,1,1893.2000000029802,361490.299999997,7102,NNB,A,16
17,test,4,1.0,1-Back,1,z,Thu Mar 27 2025 09:26:13 GMT-0500 (Central Daylight Time),364999.8999999985,043_m_f_n_a.png,O,z,594,18,1,1610.1000000014901,363389.799999997,7102,NNB,A,17
0,test,5,1.0,1-Back,,,Thu Mar 27 2025 09:26:13 GMT-0500 (Central Daylight Time),364999.8999999985,053_o_m_n_a.png,O,space,1169,1,1,1610.1000000014901,363389.799999997,7102,NNB,A,0
1,test,5,1.0,1-Back,1,z,Thu Mar 27 2025 09:26:13 GMT-0500 (Central Daylight Time),370748.0,053_o_m_n_a.png,O,z,1530,2,1,2542.0,368206.0,7102,NNB,A,1
2,test,5,0.0,1-Back,1,m,Thu Mar 27 2025 09:26:13 GMT-0500 (Central Daylight Time),372447.3999999985,063_y_f_n_a.png,O,m,669,3,1,1693.6000000014901,370753.799999997,7102,NNB,A,2
3,test,5,0.0,1-Back,1,m,Thu Mar 27 2025 09:26:13 GMT-0500 (Central Daylight Time),374213.69999999553,041_y_m_n_a.png,O,m,738,4,1,1760.0999999940395,372453.6000000015,7102,NNB,A,3
4,test,5,0.0,1-Back,1,m,Thu Mar 27 2025 09:26:13 GMT-0500 (Central Daylight Time),375813.19999999553,063_y_f_n_a.png,O,m,559,5,1,1592.8999999985099,374220.299999997,7102,NNB,A,4
5,test,5,0.0,1-Back,1,m,Thu Mar 27 2025 09:26:13 GMT-0500 (Central Daylight Time),377579.299999997,058_m_m_n_a.png,O,m,748,6,1,1759.8999999985099,375819.3999999985,7102,NNB,A,5
6,test,5,1.0,1-Back,1,z,Thu Mar 27 2025 09:26:13 GMT-0500 (Central Daylight Time),379095.299999997,058_m_m_n_a.png,O,z,494,7,1,1509.3999999985099,377585.8999999985,7102,NNB,A,6
7,test,5,0.0,1-Back,1,m,Thu Mar 27 2025 09:26:13 GMT-0500 (Central Daylight Time),380861.5,010_y_f_n_a.png,O,m,746,8,1,1759.5,379102.0,7102,NNB,A,7
8,test,5,0.0,1-Back,1,m,Thu Mar 27 2025 09:26:13 GMT-0500 (Central Daylight Time),382427.6000000015,008_y_m_n_a.png,O,m,548,9,1,1560.0,380867.6000000015,7102,NNB,A,8
9,test,5,0.0,1-Back,1,m,Thu Mar 27 2025 09:26:13 GMT-0500 (Central Daylight Time),384293.8999999985,010_y_f_n_a.png,O,m,846,10,1,1859.2999999970198,382434.6000000015,7102,NNB,A,9
10,test,5,0.0,1-Back,1,m,Thu Mar 27 2025 09:26:13 GMT-0500 (Central Daylight Time),386476.3999999985,047_o_f_n_a.png,O,m,1164,11,1,2176.0,384300.3999999985,7102,NNB,A,10
11,test,5,1.0,1-Back,1,z,Thu Mar 27 2025 09:26:13 GMT-0500 (Central Daylight Time),388375.799999997,047_o_f_n_a.png,O,z,869,12,1,1893.1999999955297,386482.6000000015,7102,NNB,A,11
12,test,5,0.0,1-Back,1,m,Thu Mar 27 2025 09:26:13 GMT-0500 (Central Daylight Time),390192.299999997,046_o_m_n_a.png,O,m,785,13,1,1810.5,388381.799999997,7102,NNB,A,12
13,test,5,0.0,1-Back,1,m,Thu Mar 27 2025 09:26:13 GMT-0500 (Central Daylight Time),392091.299999997,050_m_f_n_a.png,O,m,881,14,1,1891.1999999955297,390200.1000000015,7102,NNB,A,13
13,test,5,1.0,1-Back,0,z,Thu Mar 27 2025 09:26:13 GMT-0500 (Central Daylight Time),394307.299999997,050_m_f_n_a.png,O,m,1190,15,1,2209.10000000149,392098.19999999553,7102,NNB,A,14
14,test,5,0.0,1-Back,1,m,Thu Mar 27 2025 09:26:13 GMT-0500 (Central Daylight Time),396006.69999999553,046_o_m_n_a.png,O,m,670,16,1,1693.0999999940395,394313.6000000015,7102,NNB,A,15
15,test,5,0.0,1-Back,1,m,Thu Mar 27 2025 09:26:13 GMT-0500 (Central Daylight Time),398222.799999997,043_m_f_n_a.png,O,m,1186,17,1,2209.89999999851,396012.8999999985,7102,NNB,A,16
16,test,5,0.0,1-Back,1,m,Thu Mar 27 2025 09:26:13 GMT-0500 (Central Daylight Time),399905.6000000015,045_m_m_n_a.png,O,m,650,18,1,1676.6000000014901,398229.0,7102,NNB,A,17
0,prac,1,0.0,2-Back,,,Thu Mar 27 2025 09:26:13 GMT-0500 (Central Daylight Time),399905.6000000015,008_y_m_n_a.png,O,space,9864,1,1,1676.6000000014901,398229.0,7102,NNB,A,0
0,prac,1,0.0,2-Back,,,Thu Mar 27 2025 09:26:13 GMT-0500 (Central Daylight Time),399905.6000000015,043_m_f_n_a.png,O,space,9864,2,1,1676.6000000014901,398229.0,7102,NNB,A,0
1,prac,1,1.0,2-Back,1,m,Thu Mar 27 2025 09:26:13 GMT-0500 (Central Daylight Time),564254.1000000015,046_o_m_n_a.png,O,m,1826,3,1,2607.60000000149,561646.5,7102,NNB,A,1
2,prac,1,0.0,2-Back,1,m,Thu Mar 27 2025 09:26:13 GMT-0500 (Central Daylight Time),566020.3999999985,047_o_f_n_a.png,O,m,931,4,1,1759.1000000014901,564261.299999997,7102,NNB,A,2
3,prac,1,0.0,2-Back,1,z,Thu Mar 27 2025 09:26:13 GMT-0500 (Central Daylight Time),567969.3999999985,046_o_m_n_a.png,O,z,1166,5,1,1941.3999999985099,566028.0,7102,NNB,A,3
4,prac,1,1.0,2-Back,1,z,Thu Mar 27 2025 09:26:13 GMT-0500 (Central Daylight Time),570202.299999997,047_o_f_n_a.png,O,z,1449,6,1,2225.60000000149,567976.6999999955,7102,NNB,A,4
5,prac,1,0.0,2-Back,1,m,Thu Mar 27 2025 09:26:13 GMT-0500 (Central Daylight Time),572618.1000000015,045_m_m_n_a.png,O,m,1616,7,1,2408.10000000149,570210.0,7102,NNB,A,5
6,prac,1,0.0,2-Back,1,m,Thu Mar 27 2025 09:26:13 GMT-0500 (Central Daylight Time),574717.6000000015,053_o_m_n_a.png,O,m,1293,8,1,2091.60000000149,572626.0,7102,NNB,A,6
7,prac,1,0.0,2-Back,1,m,Thu Mar 27 2025 09:26:13 GMT-0500 (Central Daylight Time),576883.6000000015,010_y_f_n_a.png,O,m,1335,9,1,2158.7000000029802,574724.8999999985,7102,NNB,A,7
8,prac,1,1.0,2-Back,1,z,Thu Mar 27 2025 09:26:13 GMT-0500 (Central Daylight Time),578932.799999997,053_o_m_n_a.png,O,z,1271,10,1,2041.8999999985099,576890.8999999985,7102,NNB,A,8
9,prac,1,0.0,2-Back,1,m,Thu Mar 27 2025 09:26:13 GMT-0500 (Central Daylight Time),581098.799999997,063_y_f_n_a.png,O,m,1356,11,1,2158.5,578940.299999997,7102,NNB,A,9
10,prac,1,0.0,2-Back,1,m,Thu Mar 27 2025 09:26:13 GMT-0500 (Central Daylight Time),583014.799999997,045_m_m_n_a.png,O,m,1135,12,1,1908.2999999970198,581106.5,7102,NNB,A,10
0,test,1,0.0,2-Back,,,Thu Mar 27 2025 09:26:13 GMT-0500 (Central Daylight Time),583014.799999997,041_y_m_n_a.png,O,space,8673,1,1,1908.2999999970198,581106.5,7102,NNB,A,0
0,test,1,0.0,2-Back,,,Thu Mar 27 2025 09:26:13 GMT-0500 (Central Daylight Time),583014.799999997,041_y_m_n_a.png,O,space,8673,2,1,1908.2999999970198,581106.5,7102,NNB,A,0
1,test,1,0.0,2-Back,1,m,Thu Mar 27 2025 09:26:13 GMT-0500 (Central Daylight Time),608973.299999997,047_o_f_n_a.png,O,m,1013,3,1,2025.8999999985099,606947.3999999985,7102,NNB,A,1
2,test,1,0.0,2-Back,1,m,Thu Mar 27 2025 09:26:13 GMT-0500 (Central Daylight Time),611289.3999999985,058_m_m_n_a.png,O,m,1292,4,1,2307.7999999970198,608981.6000000015,7102,NNB,A,2
3,test,1,1.0,2-Back,1,z,Thu Mar 27 2025 09:26:13 GMT-0500 (Central Daylight Time),613321.799999997,047_o_f_n_a.png,O,z,1008,5,1,2025.8999999985099,611295.8999999985,7102,NNB,A,3
4,test,1,0.0,2-Back,1,m,Thu Mar 27 2025 09:26:13 GMT-0500 (Central Daylight Time),615288.1000000015,063_y_f_n_a.png,O,m,935,6,1,1959.9000000059605,613328.1999999955,7102,NNB,A,4
4,test,1,0.0,2-Back,0,m,Thu Mar 27 2025 09:26:13 GMT-0500 (Central Daylight Time),617587.299999997,058_m_m_n_a.png,O,z,1281,7,1,2292.5,615294.799999997,7102,NNB,A,5
5,test,1,1.0,2-Back,1,z,Thu Mar 27 2025 09:26:13 GMT-0500 (Central Daylight Time),619519.8999999985,063_y_f_n_a.png,O,z,910,8,1,1926.2999999970198,617593.6000000015,7102,NNB,A,6
6,test,1,0.0,2-Back,1,m,Thu Mar 27 2025 09:26:13 GMT-0500 (Central Daylight Time),621502.6999999955,008_y_m_n_a.png,O,m,961,9,1,1976.3999999985099,619526.299999997,7102,NNB,A,7
7,test,1,0.0,2-Back,1,m,Thu Mar 27 2025 09:26:13 GMT-0500 (Central Daylight Time),623602.1000000015,044_o_f_n_a.png,O,m,1067,10,1,2092.7000000029802,621509.3999999985,7102,NNB,A,8
8,test,1,1.0,2-Back,1,z,Thu Mar 27 2025 09:26:13 GMT-0500 (Central Daylight Time),625451.5,008_y_m_n_a.png,O,z,831,11,1,1842.7000000029802,623608.799999997,7102,NNB,A,9
9,test,1,0.0,2-Back,1,m,Thu Mar 27 2025 09:26:13 GMT-0500 (Central Daylight Time),627517.6000000015,043_m_f_n_a.png,O,m,1038,12,1,2060.0,625457.6000000015,7102,NNB,A,10
9,test,1,0.0,2-Back,0,m,Thu Mar 27 2025 09:26:13 GMT-0500 (Central Daylight Time),629883.5,043_m_f_n_a.png,O,z,1348,13,1,2359.60000000149,627523.8999999985,7102,NNB,A,11
10,test,1,0.0,2-Back,1,m,Thu Mar 27 2025 09:26:13 GMT-0500 (Central Daylight Time),632132.799999997,046_o_m_n_a.png,O,m,1230,14,1,2243.0,629889.799999997,7102,NNB,A,12
11,test,1,0.0,2-Back,1,m,Thu Mar 27 2025 09:26:13 GMT-0500 (Central Daylight Time),634293.6000000015,044_o_f_n_a.png,O,m,1127,15,1,2154.4000000059605,632139.1999999955,7102,NNB,A,13
12,test,1,1.0,2-Back,1,z,Thu Mar 27 2025 09:26:13 GMT-0500 (Central Daylight Time),636098.299999997,046_o_m_n_a.png,O,z,767,16,1,1796.8999999985099,634301.3999999985,7102,NNB,A,14
13,test,1,0.0,2-Back,1,m,Thu Mar 27 2025 09:26:13 GMT-0500 (Central Daylight Time),637997.6000000015,050_m_f_n_a.png,O,m,879,17,1,1892.7000000029802,636104.8999999985,7102,NNB,A,15
14,test,1,0.0,2-Back,1,m,Thu Mar 27 2025 09:26:13 GMT-0500 (Central Daylight Time),639980.299999997,045_m_m_n_a.png,O,m,964,18,1,1976.5,638003.799999997,7102,NNB,A,16
0,test,2,0.0,2-Back,,,Thu Mar 27 2025 09:26:13 GMT-0500 (Central Daylight Time),639980.299999997,045_m_m_n_a.png,O,space,2181,1,1,1976.5,638003.799999997,7102,NNB,A,0
0,test,2,0.0,2-Back,,,Thu Mar 27 2025 09:26:13 GMT-0500 (Central Daylight Time),639980.299999997,010_y_f_n_a.png,O,space,2181,2,1,1976.5,638003.799999997,7102,NNB,A,0
1,test,2,1.0,2-Back,1,z,Thu Mar 27 2025 09:26:13 GMT-0500 (Central Daylight Time),648911.0,045_m_m_n_a.png,O,z,628,3,1,1643.3000000044703,647267.6999999955,7102,NNB,A,1
2,test,2,0.0,2-Back,1,m,Thu Mar 27 2025 09:26:13 GMT-0500 (Central Daylight Time),651043.5,050_m_f_n_a.png,O,m,1106,4,1,2125.8000000044703,648917.6999999955,7102,NNB,A,2
2,test,2,0.0,2-Back,0,m,Thu Mar 27 2025 09:26:13 GMT-0500 (Central Daylight Time),653326.0,010_y_f_n_a.png,O,z,1254,5,1,2276.60000000149,651049.3999999985,7102,NNB,A,3
3,test,2,0.0,2-Back,1,m,Thu Mar 27 2025 09:26:13 GMT-0500 (Central Daylight Time),655158.6999999955,046_o_m_n_a.png,O,m,803,6,1,1826.1999999955297,653332.5,7102,NNB,A,4
3,test,2,0.0,2-Back,0,m,Thu Mar 27 2025 09:26:13 GMT-0500 (Central Daylight Time),657274.8999999985,063_y_f_n_a.png,O,z,1098,7,1,2109.2000000029802,655165.6999999955,7102,NNB,A,5
3,test,2,1.0,2-Back,0,z,Thu Mar 27 2025 09:26:13 GMT-0500 (Central Daylight Time),658940.8999999985,046_o_m_n_a.png,O,m,638,8,1,1659.7000000029802,657281.1999999955,7102,NNB,A,6
4,test,2,0.0,2-Back,1,m,Thu Mar 27 2025 09:26:13 GMT-0500 (Central Daylight Time),661023.799999997,008_y_m_n_a.png,O,m,1060,9,1,2076.39999999851,658947.3999999985,7102,NNB,A,7
5,test,2,0.0,2-Back,1,m,Thu Mar 27 2025 09:26:13 GMT-0500 (Central Daylight Time),663972.799999997,008_y_m_n_a.png,O,m,1921,10,1,2942.60000000149,661030.1999999955,7102,NNB,A,8
6,test,2,0.0,2-Back,1,m,Thu Mar 27 2025 09:26:13 GMT-0500 (Central Daylight Time),665855.6000000015,043_m_f_n_a.png,O,m,853,11,1,1876.0,663979.6000000015,7102,NNB,A,9
7,test,2,0.0,2-Back,1,m,Thu Mar 27 2025 09:26:13 GMT-0500 (Central Daylight Time),667788.1999999955,010_y_f_n_a.png,O,m,914,12,1,1925.6999999955297,665862.5,7102,NNB,A,10
8,test,2,1.0,2-Back,1,z,Thu Mar 27 2025 09:26:13 GMT-0500 (Central Daylight Time),669354.6000000015,043_m_f_n_a.png,O,z,542,13,1,1559.8000000044703,667794.799999997,7102,NNB,A,11
9,test,2,0.0,2-Back,1,m,Thu Mar 27 2025 09:26:13 GMT-0500 (Central Daylight Time),671387.1000000015,053_o_m_n_a.png,O,m,1015,14,1,2024.7000000029802,669362.3999999985,7102,NNB,A,12
10,test,2,0.0,2-Back,1,m,Thu Mar 27 2025 09:26:13 GMT-0500 (Central Daylight Time),673553.0,053_o_m_n_a.png,O,m,1142,15,1,2159.60000000149,671393.3999999985,7102,NNB,A,13
11,test,2,0.0,2-Back,1,m,Thu Mar 27 2025 09:26:13 GMT-0500 (Central Daylight Time),675585.799999997,044_o_f_n_a.png,O,m,1000,16,1,2026.1999999955297,673559.6000000015,7102,NNB,A,14
12,test,2,0.0,2-Back,1,m,Thu Mar 27 2025 09:26:13 GMT-0500 (Central Daylight Time),677635.1999999955,058_m_m_n_a.png,O,m,1031,17,1,2043.2999999970198,675591.8999999985,7102,NNB,A,15
13,test,2,1.0,2-Back,1,z,Thu Mar 27 2025 09:26:13 GMT-0500 (Central Daylight Time),680134.3999999985,044_o_f_n_a.png,O,z,1470,18,1,2492.39999999851,677642.0,7102,NNB,A,16
0,test,3,1.0,2-Back,,,Thu Mar 27 2025 09:26:13 GMT-0500 (Central Daylight Time),680134.3999999985,041_y_m_n_a.png,O,space,1191,1,1,2492.39999999851,677642.0,7102,NNB,A,0
0,test,3,1.0,2-Back,,,Thu Mar 27 2025 09:26:13 GMT-0500 (Central Daylight Time),680134.3999999985,041_y_m_n_a.png,O,space,1191,2,1,2492.39999999851,677642.0,7102,NNB,A,0
1,test,3,0.0,2-Back,1,m,Thu Mar 27 2025 09:26:13 GMT-0500 (Central Daylight Time),688265.299999997,044_o_f_n_a.png,O,m,826,3,1,1843.1000000014901,686422.1999999955,7102,NNB,A,1
2,test,3,0.0,2-Back,1,m,Thu Mar 27 2025 09:26:13 GMT-0500 (Central Daylight Time),690014.6999999955,045_m_m_n_a.png,O,m,720,4,1,1743.0999999940395,688271.6000000015,7102,NNB,A,2
3,test,3,1.0,2-Back,1,z,Thu Mar 27 2025 09:26:13 GMT-0500 (Central Daylight Time),691797.3999999985,044_o_f_n_a.png,O,z,755,5,1,1776.1000000014901,690021.299999997,7102,NNB,A,3
3,test,3,0.0,2-Back,0,m,Thu Mar 27 2025 09:26:13 GMT-0500 (Central Daylight Time),693796.6999999955,008_y_m_n_a.png,O,z,980,6,1,1992.8999999985099,691803.799999997,7102,NNB,A,4
3,test,3,0.0,2-Back,0,m,Thu Mar 27 2025 09:26:13 GMT-0500 (Central Daylight Time),696029.299999997,045_m_m_n_a.png,O,z,1213,7,1,2226.1999999955297,693803.1000000015,7102,NNB,A,5
3,test,3,1.0,2-Back,0,z,Thu Mar 27 2025 09:26:13 GMT-0500 (Central Daylight Time),698095.1999999955,008_y_m_n_a.png,O,m,1044,8,1,2059.6999999955297,696035.5,7102,NNB,A,6
4,test,3,0.0,2-Back,1,m,Thu Mar 27 2025 09:26:13 GMT-0500 (Central Daylight Time),700178.1000000015,010_y_f_n_a.png,O,m,1050,9,1,2075.4000000059605,698102.6999999955,7102,NNB,A,7
5,test,3,0.0,2-Back,1,m,Thu Mar 27 2025 09:26:13 GMT-0500 (Central Daylight Time),702327.5,058_m_m_n_a.png,O,m,1127,10,1,2142.89999999851,700184.6000000015,7102,NNB,A,8
6,test,3,1.0,2-Back,1,z,Thu Mar 27 2025 09:26:13 GMT-0500 (Central Daylight Time),704343.3999999985,010_y_f_n_a.png,O,z,986,11,1,2009.0,702334.3999999985,7102,NNB,A,9
7,test,3,1.0,2-Back,1,z,Thu Mar 27 2025 09:26:13 GMT-0500 (Central Daylight Time),706359.5,058_m_m_n_a.png,O,z,986,12,1,2009.5,704350.0,7102,NNB,A,10
8,test,3,0.0,2-Back,1,m,Thu Mar 27 2025 09:26:13 GMT-0500 (Central Daylight Time),708258.799999997,044_o_f_n_a.png,O,m,882,13,1,1892.6000000014901,706366.1999999955,7102,NNB,A,11
9,test,3,0.0,2-Back,1,m,Thu Mar 27 2025 09:26:13 GMT-0500 (Central Daylight Time),710175.1000000015,050_m_f_n_a.png,O,m,886,14,1,1909.7000000029802,708265.3999999985,7102,NNB,A,12
10,test,3,0.0,2-Back,1,m,Thu Mar 27 2025 09:26:13 GMT-0500 (Central Daylight Time),711841.1000000015,046_o_m_n_a.png,O,m,642,15,1,1659.5,710181.6000000015,7102,NNB,A,13
11,test,3,1.0,2-Back,1,z,Thu Mar 27 2025 09:26:13 GMT-0500 (Central Daylight Time),713623.8999999985,050_m_f_n_a.png,O,z,760,16,1,1776.2999999970198,711847.6000000015,7102,NNB,A,14
12,test,3,0.0,2-Back,1,m,Thu Mar 27 2025 09:26:13 GMT-0500 (Central Daylight Time),715590.0,047_o_f_n_a.png,O,m,937,17,1,1959.6000000014901,713630.3999999985,7102,NNB,A,15
12,test,3,0.0,2-Back,0,m,Thu Mar 27 2025 09:26:13 GMT-0500 (Central Daylight Time),717822.5,047_o_f_n_a.png,O,z,1211,18,1,2226.0,715596.5,7102,NNB,A,16
0,test,4,0.0,2-Back,,,Thu Mar 27 2025 09:26:13 GMT-0500 (Central Daylight Time),717822.5,053_o_m_n_a.png,O,space,1067,1,1,2226.0,715596.5,7102,NNB,A,0
0,test,4,0.0,2-Back,,,Thu Mar 27 2025 09:26:13 GMT-0500 (Central Daylight Time),717822.5,063_y_f_n_a.png,O,space,1067,2,1,2226.0,715596.5,7102,NNB,A,0
0,test,4,1.0,2-Back,0,z,Thu Mar 27 2025 09:26:13 GMT-0500 (Central Daylight Time),725853.3999999985,053_o_m_n_a.png,O,m,830,3,1,1842.5,724010.8999999985,7102,NNB,A,1
1,test,4,1.0,2-Back,1,z,Thu Mar 27 2025 09:26:13 GMT-0500 (Central Daylight Time),728036.0,063_y_f_n_a.png,O,z,1156,4,1,2176.3000000044703,725859.6999999955,7102,NNB,A,2
1,test,4,0.0,2-Back,0,m,Thu Mar 27 2025 09:26:13 GMT-0500 (Central Daylight Time),730135.299999997,044_o_f_n_a.png,O,z,1069,5,1,2092.7999999970198,728042.5,7102,NNB,A,3
1,test,4,0.0,2-Back,0,m,Thu Mar 27 2025 09:26:13 GMT-0500 (Central Daylight Time),732584.5,044_o_f_n_a.png,O,z,1418,6,1,2442.7000000029802,730141.799999997,7102,NNB,A,4
2,test,4,0.0,2-Back,1,m,Thu Mar 27 2025 09:26:13 GMT-0500 (Central Daylight Time),734484.1000000015,043_m_f_n_a.png,O,m,873,7,1,1892.6000000014901,732591.5,7102,NNB,A,5
3,test,4,0.0,2-Back,1,m,Thu Mar 27 2025 09:26:13 GMT-0500 (Central Daylight Time),736583.5,008_y_m_n_a.png,O,m,1077,8,1,2093.10000000149,734490.3999999985,7102,NNB,A,6
3,test,4,1.0,2-Back,0,z,Thu Mar 27 2025 09:26:13 GMT-0500 (Central Daylight Time),739615.799999997,043_m_f_n_a.png,O,None,2016,9,1,3025.89999999851,736589.8999999985,7102,NNB,A,7
4,test,4,0.0,2-Back,1,m,Thu Mar 27 2025 09:26:13 GMT-0500 (Central Daylight Time),741631.8999999985,058_m_m_n_a.png,O,m,986,10,1,2009.2000000029802,739622.6999999955,7102,NNB,A,8
4,test,4,0.0,2-Back,0,m,Thu Mar 27 2025 09:26:13 GMT-0500 (Central Daylight Time),744014.5,008_y_m_n_a.png,O,z,1353,11,1,2375.5,741639.0,7102,NNB,A,9
5,test,4,0.0,2-Back,1,m,Thu Mar 27 2025 09:26:13 GMT-0500 (Central Daylight Time),745880.5,047_o_f_n_a.png,O,m,835,12,1,1859.2000000029802,744021.299999997,7102,NNB,A,10
6,test,4,0.0,2-Back,1,m,Thu Mar 27 2025 09:26:13 GMT-0500 (Central Daylight Time),747779.799999997,041_y_m_n_a.png,O,m,881,13,1,1892.5,745887.299999997,7102,NNB,A,11
7,test,4,1.0,2-Back,1,z,Thu Mar 27 2025 09:26:13 GMT-0500 (Central Daylight Time),749962.5,047_o_f_n_a.png,O,z,1157,14,1,2176.2000000029802,747786.299999997,7102,NNB,A,12
8,test,4,1.0,2-Back,1,z,Thu Mar 27 2025 09:26:13 GMT-0500 (Central Daylight Time),752007.0,041_y_m_n_a.png,O,z,1028,15,1,2037.7000000029802,749969.299999997,7102,NNB,A,13
8,test,4,0.0,2-Back,0,m,Thu Mar 27 2025 09:26:13 GMT-0500 (Central Daylight Time),755044.5,045_m_m_n_a.png,O,None,2015,16,1,3030.2000000029802,752014.299999997,7102,NNB,A,14
9,test,4,0.0,2-Back,1,m,Thu Mar 27 2025 09:26:13 GMT-0500 (Central Daylight Time),756943.799999997,050_m_f_n_a.png,O,m,869,17,1,1892.2999999970198,755051.5,7102,NNB,A,15
10,test,4,1.0,2-Back,1,z,Thu Mar 27 2025 09:26:13 GMT-0500 (Central Daylight Time),759392.8999999985,045_m_m_n_a.png,O,z,1418,18,1,2442.89999999851,756950.0,7102,NNB,A,16
0,test,5,1.0,2-Back,,,Thu Mar 27 2025 09:26:13 GMT-0500 (Central Daylight Time),759392.8999999985,041_y_m_n_a.png,O,space,1184,1,1,2442.89999999851,756950.0,7102,NNB,A,0
0,test,5,1.0,2-Back,,,Thu Mar 27 2025 09:26:13 GMT-0500 (Central Daylight Time),759392.8999999985,050_m_f_n_a.png,O,space,1184,2,1,2442.89999999851,756950.0,7102,NNB,A,0
0,test,5,1.0,2-Back,0,z,Thu Mar 27 2025 09:26:13 GMT-0500 (Central Daylight Time),768673.3999999985,041_y_m_n_a.png,O,None,2015,3,1,3026.2000000029802,765647.1999999955,7102,NNB,A,1
1,test,5,1.0,2-Back,1,z,Thu Mar 27 2025 09:26:13 GMT-0500 (Central Daylight Time),770739.1999999955,050_m_f_n_a.png,O,z,1040,4,1,2059.0999999940395,768680.1000000015,7102,NNB,A,2
2,test,5,0.0,2-Back,1,m,Thu Mar 27 2025 09:26:13 GMT-0500 (Central Daylight Time),772838.6999999955,047_o_f_n_a.png,O,m,1078,5,1,2092.7999999970198,770745.8999999985,7102,NNB,A,3
2,test,5,0.0,2-Back,0,m,Thu Mar 27 2025 09:26:13 GMT-0500 (Central Daylight Time),775188.0,041_y_m_n_a.png,O,z,1331,6,1,2342.5,772845.5,7102,NNB,A,4
3,test,5,0.0,2-Back,1,m,Thu Mar 27 2025 09:26:13 GMT-0500 (Central Daylight Time),777070.799999997,010_y_f_n_a.png,O,m,862,7,1,1876.0,775194.799999997,7102,NNB,A,5
3,test,5,0.0,2-Back,0,m,Thu Mar 27 2025 09:26:13 GMT-0500 (Central Daylight Time),779153.6999999955,047_o_f_n_a.png,O,z,1050,8,1,2076.0999999940395,777077.6000000015,7102,NNB,A,6
4,test,5,1.0,2-Back,1,z,Thu Mar 27 2025 09:26:13 GMT-0500 (Central Daylight Time),781202.6000000015,010_y_f_n_a.png,O,z,1024,9,1,2042.1000000014901,779160.5,7102,NNB,A,7
5,test,5,0.0,2-Back,1,m,Thu Mar 27 2025 09:26:13 GMT-0500 (Central Daylight Time),783102.1000000015,046_o_m_n_a.png,O,m,878,10,1,1892.2000000029802,781209.8999999985,7102,NNB,A,8
6,test,5,0.0,2-Back,1,m,Thu Mar 27 2025 09:26:13 GMT-0500 (Central Daylight Time),785235.0,043_m_f_n_a.png,O,m,1100,11,1,2126.10000000149,783108.8999999985,7102,NNB,A,9
7,test,5,0.0,2-Back,1,m,Thu Mar 27 2025 09:26:13 GMT-0500 (Central Daylight Time),787151.0,058_m_m_n_a.png,O,m,887,12,1,1909.5,785241.5,7102,NNB,A,10
8,test,5,0.0,2-Back,1,m,Thu Mar 27 2025 09:26:13 GMT-0500 (Central Daylight Time),789266.799999997,046_o_m_n_a.png,O,m,1091,13,1,2108.89999999851,787157.8999999985,7102,NNB,A,11
9,test,5,1.0,2-Back,1,z,Thu Mar 27 2025 09:26:13 GMT-0500 (Central Daylight Time),791349.799999997,058_m_m_n_a.png,O,z,1054,14,1,2076.1999999955297,789273.6000000015,7102,NNB,A,12
10,test,5,0.0,2-Back,1,m,Thu Mar 27 2025 09:26:13 GMT-0500 (Central Daylight Time),793315.799999997,063_y_f_n_a.png,O,m,948,15,1,1958.8999999985099,791356.8999999985,7102,NNB,A,13
11,test,5,0.0,2-Back,1,m,Thu Mar 27 2025 09:26:13 GMT-0500 (Central Daylight Time),795298.799999997,053_o_m_n_a.png,O,m,967,16,1,1976.3999999985099,793322.3999999985,7102,NNB,A,14
11,test,5,0.0,2-Back,0,m,Thu Mar 27 2025 09:26:13 GMT-0500 (Central Daylight Time),797514.1999999955,043_m_f_n_a.png,O,z,1184,17,1,2208.7999999970198,795305.3999999985,7102,NNB,A,15
12,test,5,1.0,2-Back,1,z,Thu Mar 27 2025 09:26:13 GMT-0500 (Central Daylight Time),799846.799999997,053_o_m_n_a.png,O,z,1311,18,1,2326.2999999970198,797520.5,7102,NNB,A,16
