acc_sum,block,block_c,change,condition,correct,correct_response,datetime,endtime,face,project,response,response_time,row_sel,session_number,start_end,starttime,subject_id,task,task_vers,trial
0,prac,1,,1-Back,,,Thu Apr 17 2025 10:52:46 GMT-0500 (Central Daylight Time),,124_o_f_d_a.png,O,space,7821,1,1,,,7128,VNB,A,0
1,prac,1,0.0,1-Back,1,m,Thu Apr 17 2025 10:52:46 GMT-0500 (Central Daylight Time),140035.8999999985,071_y_f_n_a.png,O,m,1217,2,1,2024.0,138011.8999999985,7128,VNB,A,1
1,prac,1,0.0,1-Back,0,m,Thu Apr 17 2025 10:52:46 GMT-0500 (Central Daylight Time),142884.8999999985,165_m_m_h_a.png,O,None,2049,3,1,2840.89999999851,140044.0,7128,VNB,A,2
2,prac,1,0.0,1-Back,1,m,Thu Apr 17 2025 10:52:46 GMT-0500 (Central Daylight Time),145284.20000000298,109_y_m_d_a.png,O,m,1590,4,1,2391.7000000029802,142892.5,7128,VNB,A,3
3,prac,1,0.0,1-Back,1,m,Thu Apr 17 2025 10:52:46 GMT-0500 (Central Daylight Time),147250.1000000015,124_o_f_n_a.png,O,m,1125,5,1,1958.3999999985099,145291.70000000298,7128,VNB,A,4
3,prac,1,1.0,1-Back,0,z,Thu Apr 17 2025 10:52:46 GMT-0500 (Central Daylight Time),149232.80000000447,109_y_m_n_a.png,O,m,1168,6,1,1975.3000000044703,147257.5,7128,VNB,A,5
4,prac,1,0.0,1-Back,1,m,Thu Apr 17 2025 10:52:46 GMT-0500 (Central Daylight Time),151132.30000000447,039_o_m_h_a.png,O,m,1093,7,1,1891.4000000059605,149240.8999999985,7128,VNB,A,6
5,prac,1,0.0,1-Back,1,m,Thu Apr 17 2025 10:52:46 GMT-0500 (Central Daylight Time),153131.5,139_m_f_d_a.png,O,m,1193,8,1,1991.5,151140.0,7128,VNB,A,7
5,prac,1,1.0,1-Back,0,z,Thu Apr 17 2025 10:52:46 GMT-0500 (Central Daylight Time),155397.6000000015,071_y_f_d_a.png,O,m,1457,9,1,2257.39999999851,153140.20000000298,7128,VNB,A,8
5,prac,1,0.0,1-Back,0,m,Thu Apr 17 2025 10:52:46 GMT-0500 (Central Daylight Time),158213.3999999985,165_m_m_n_a.png,O,None,2015,10,1,2808.1999999955297,155405.20000000298,7128,VNB,A,9
5,prac,1,0.0,1-Back,0,m,Thu Apr 17 2025 10:52:46 GMT-0500 (Central Daylight Time),161045.80000000447,124_o_f_h_a.png,O,None,2010,11,1,2824.8000000044703,158221.0,7128,VNB,A,10
6,prac,1,0.0,1-Back,1,m,Thu Apr 17 2025 10:52:46 GMT-0500 (Central Daylight Time),162895.30000000447,109_y_m_d_a.png,O,m,1060,12,1,1842.4000000059605,161052.8999999985,7128,VNB,A,11
0,prac,2,0.0,1-Back,,,Thu Apr 17 2025 10:52:46 GMT-0500 (Central Daylight Time),162895.30000000447,124_o_f_d_a.png,O,a,6189,1,1,1842.4000000059605,161052.8999999985,7128,VNB,A,0
1,prac,2,0.0,1-Back,1,m,Thu Apr 17 2025 10:52:46 GMT-0500 (Central Daylight Time),173891.70000000298,071_y_f_n_a.png,O,m,960,2,1,1758.2000000029802,172133.5,7128,VNB,A,1
1,prac,2,0.0,1-Back,0,m,Thu Apr 17 2025 10:52:46 GMT-0500 (Central Daylight Time),176041.30000000447,165_m_m_h_a.png,O,z,1338,3,1,2141.8000000044703,173899.5,7128,VNB,A,2
2,prac,2,0.0,1-Back,1,m,Thu Apr 17 2025 10:52:46 GMT-0500 (Central Daylight Time),178340.20000000298,109_y_m_d_a.png,O,m,1520,4,1,2290.8000000044703,176049.3999999985,7128,VNB,A,3
3,prac,2,0.0,1-Back,1,m,Thu Apr 17 2025 10:52:46 GMT-0500 (Central Daylight Time),181072.80000000447,124_o_f_n_a.png,O,m,1889,5,1,2724.2000000029802,178348.6000000015,7128,VNB,A,4
4,prac,2,1.0,1-Back,1,z,Thu Apr 17 2025 10:52:46 GMT-0500 (Central Daylight Time),183072.0,109_y_m_n_a.png,O,z,1183,6,1,1991.5,181080.5,7128,VNB,A,5
5,prac,2,0.0,1-Back,1,m,Thu Apr 17 2025 10:52:46 GMT-0500 (Central Daylight Time),184905.0,039_o_m_h_a.png,O,m,1022,7,1,1823.8999999985099,183081.1000000015,7128,VNB,A,6
6,prac,2,0.0,1-Back,1,m,Thu Apr 17 2025 10:52:46 GMT-0500 (Central Daylight Time),186821.0,139_m_f_d_a.png,O,m,1110,8,1,1908.5,184912.5,7128,VNB,A,7
6,prac,2,1.0,1-Back,0,z,Thu Apr 17 2025 10:52:46 GMT-0500 (Central Daylight Time),188886.8999999985,071_y_f_d_a.png,O,m,1251,9,1,2058.5999999940395,186828.30000000447,7128,VNB,A,8
6,prac,2,0.0,1-Back,0,m,Thu Apr 17 2025 10:52:46 GMT-0500 (Central Daylight Time),191369.3999999985,165_m_m_n_a.png,O,z,1674,10,1,2475.2999999970198,188894.1000000015,7128,VNB,A,9
7,prac,2,0.0,1-Back,1,m,Thu Apr 17 2025 10:52:46 GMT-0500 (Central Daylight Time),193752.30000000447,124_o_f_h_a.png,O,m,1563,11,1,2375.4000000059605,191376.8999999985,7128,VNB,A,10
8,prac,2,0.0,1-Back,1,m,Thu Apr 17 2025 10:52:46 GMT-0500 (Central Daylight Time),196084.6000000015,109_y_m_d_a.png,O,m,1553,12,1,2324.39999999851,193760.20000000298,7128,VNB,A,11
0,test,1,0.0,1-Back,,,Thu Apr 17 2025 10:52:46 GMT-0500 (Central Daylight Time),196084.6000000015,071_y_f_d_a.png,O,space,5701,1,1,2324.39999999851,193760.20000000298,7128,VNB,A,0
0,test,1,0.0,1-Back,0,m,Thu Apr 17 2025 10:52:46 GMT-0500 (Central Daylight Time),213329.6000000015,139_m_f_n_a.png,O,z,1833,2,1,2859.2000000029802,210470.3999999985,7128,VNB,A,1
1,test,1,0.0,1-Back,1,m,Thu Apr 17 2025 10:52:46 GMT-0500 (Central Daylight Time),215028.70000000298,039_o_m_h_a.png,O,m,680,3,1,1692.3999999985099,213336.30000000447,7128,VNB,A,2
2,test,1,1.0,1-Back,1,z,Thu Apr 17 2025 10:52:46 GMT-0500 (Central Daylight Time),217361.5,165_m_m_h_a.png,O,z,1300,4,1,2326.10000000149,215035.3999999985,7128,VNB,A,3
3,test,1,0.0,1-Back,1,m,Thu Apr 17 2025 10:52:46 GMT-0500 (Central Daylight Time),219077.5,124_o_f_n_a.png,O,m,696,5,1,1709.8999999985099,217367.6000000015,7128,VNB,A,4
3,test,1,0.0,1-Back,0,m,Thu Apr 17 2025 10:52:46 GMT-0500 (Central Daylight Time),221326.80000000447,109_y_m_d_a.png,O,z,1227,6,1,2242.4000000059605,219084.3999999985,7128,VNB,A,5
4,test,1,1.0,1-Back,1,z,Thu Apr 17 2025 10:52:46 GMT-0500 (Central Daylight Time),223342.80000000447,139_m_f_d_a.png,O,z,994,7,1,2009.6000000014901,221333.20000000298,7128,VNB,A,6
5,test,1,0.0,1-Back,1,m,Thu Apr 17 2025 10:52:46 GMT-0500 (Central Daylight Time),224859.20000000298,071_y_f_h_a.png,O,m,498,8,1,1509.8999999985099,223349.30000000447,7128,VNB,A,7
6,test,1,0.0,1-Back,1,m,Thu Apr 17 2025 10:52:46 GMT-0500 (Central Daylight Time),227124.8999999985,039_o_m_n_a.png,O,m,1245,9,1,2259.0,224865.8999999985,7128,VNB,A,8
7,test,1,0.0,1-Back,1,m,Thu Apr 17 2025 10:52:46 GMT-0500 (Central Daylight Time),228957.70000000298,109_y_m_h_a.png,O,m,803,10,1,1826.2000000029802,227131.5,7128,VNB,A,9
8,test,1,0.0,1-Back,1,m,Thu Apr 17 2025 10:52:46 GMT-0500 (Central Daylight Time),230790.6000000015,039_o_m_d_a.png,O,m,812,11,1,1826.7999999970198,228963.80000000447,7128,VNB,A,10
9,test,1,1.0,1-Back,1,z,Thu Apr 17 2025 10:52:46 GMT-0500 (Central Daylight Time),233489.70000000298,124_o_f_d_a.png,O,z,1675,12,1,2692.10000000149,230797.6000000015,7128,VNB,A,11
9,test,1,0.0,1-Back,0,m,Thu Apr 17 2025 10:52:46 GMT-0500 (Central Daylight Time),235738.8999999985,165_m_m_n_a.png,O,z,1230,13,1,2242.89999999851,233496.0,7128,VNB,A,12
9,test,1,1.0,1-Back,0,z,Thu Apr 17 2025 10:52:46 GMT-0500 (Central Daylight Time),238771.6000000015,071_y_f_n_a.png,O,None,2015,14,1,3026.39999999851,235745.20000000298,7128,VNB,A,13
10,test,1,0.0,1-Back,1,m,Thu Apr 17 2025 10:52:46 GMT-0500 (Central Daylight Time),241137.30000000447,139_m_f_h_a.png,O,m,1342,15,1,2359.0,238778.30000000447,7128,VNB,A,14
10,test,1,0.0,1-Back,0,m,Thu Apr 17 2025 10:52:46 GMT-0500 (Central Daylight Time),244169.6000000015,165_m_m_d_a.png,O,None,2016,16,1,3025.10000000149,241144.5,7128,VNB,A,15
11,test,1,0.0,1-Back,1,m,Thu Apr 17 2025 10:52:46 GMT-0500 (Central Daylight Time),246735.6000000015,109_y_m_n_a.png,O,m,1535,17,1,2559.7999999970198,244175.80000000447,7128,VNB,A,16
12,test,1,0.0,1-Back,1,m,Thu Apr 17 2025 10:52:46 GMT-0500 (Central Daylight Time),248551.5,124_o_f_h_a.png,O,m,793,18,1,1810.0,246741.5,7128,VNB,A,17
0,test,2,0.0,1-Back,,,Thu Apr 17 2025 10:52:46 GMT-0500 (Central Daylight Time),248551.5,109_y_m_n_a.png,O,space,2890,1,1,1810.0,246741.5,7128,VNB,A,0
1,test,2,0.0,1-Back,1,m,Thu Apr 17 2025 10:52:46 GMT-0500 (Central Daylight Time),255899.3999999985,071_y_f_h_a.png,O,m,1414,2,1,2426.39999999851,253473.0,7128,VNB,A,1
2,test,2,1.0,1-Back,1,m,Thu Apr 17 2025 10:52:46 GMT-0500 (Central Daylight Time),258348.6000000015,039_o_m_n_a.png,O,m,1421,3,1,2443.0,255905.6000000015,7128,VNB,A,2
3,test,2,0.0,1-Back,1,m,Thu Apr 17 2025 10:52:46 GMT-0500 (Central Daylight Time),260897.6000000015,139_m_f_d_a.png,O,m,1525,4,1,2542.89999999851,258354.70000000298,7128,VNB,A,3
4,test,2,0.0,1-Back,1,z,Thu Apr 17 2025 10:52:46 GMT-0500 (Central Daylight Time),262797.200000003,165_m_m_d_a.png,O,z,879,5,1,1893.2000000029802,260904.0,7128,VNB,A,4
5,test,2,0.0,1-Back,1,m,Thu Apr 17 2025 10:52:46 GMT-0500 (Central Daylight Time),264480.0,109_y_m_h_a.png,O,m,660,6,1,1676.1999999955297,262803.80000000447,7128,VNB,A,5
6,test,2,1.0,1-Back,1,z,Thu Apr 17 2025 10:52:46 GMT-0500 (Central Daylight Time),266479.30000000447,124_o_f_h_a.png,O,z,969,7,1,1992.9000000059605,264486.3999999985,7128,VNB,A,6
7,test,2,0.0,1-Back,1,m,Thu Apr 17 2025 10:52:46 GMT-0500 (Central Daylight Time),268911.8999999985,139_m_f_n_a.png,O,m,1401,8,1,2425.6999999955297,266486.200000003,7128,VNB,A,7
8,test,2,0.0,1-Back,1,m,Thu Apr 17 2025 10:52:46 GMT-0500 (Central Daylight Time),271377.80000000447,071_y_f_d_a.png,O,m,1449,9,1,2459.10000000149,268918.700000003,7128,VNB,A,8
9,test,2,0.0,1-Back,1,m,Thu Apr 17 2025 10:52:46 GMT-0500 (Central Daylight Time),273494.0,165_m_m_n_a.png,O,m,1087,10,1,2109.1999999955297,271384.80000000447,7128,VNB,A,9
10,test,2,1.0,1-Back,1,m,Thu Apr 17 2025 10:52:46 GMT-0500 (Central Daylight Time),275259.8999999985,139_m_f_h_a.png,O,m,738,11,1,1759.6999999955297,273500.200000003,7128,VNB,A,10
10,test,2,0.0,1-Back,0,z,Thu Apr 17 2025 10:52:46 GMT-0500 (Central Daylight Time),277225.8999999985,039_o_m_h_a.png,O,m,940,12,1,1959.7999999970198,275266.1000000015,7128,VNB,A,11
11,test,2,0.0,1-Back,1,m,Thu Apr 17 2025 10:52:46 GMT-0500 (Central Daylight Time),278892.200000003,109_y_m_d_a.png,O,m,639,13,1,1659.8999999985099,277232.30000000447,7128,VNB,A,12
12,test,2,0.0,1-Back,1,m,Thu Apr 17 2025 10:52:46 GMT-0500 (Central Daylight Time),280925.0,124_o_f_n_a.png,O,m,1013,14,1,2026.3999999985099,278898.6000000015,7128,VNB,A,13
13,test,2,0.0,1-Back,1,z,Thu Apr 17 2025 10:52:46 GMT-0500 (Central Daylight Time),282890.80000000447,071_y_f_n_a.png,O,z,939,15,1,1959.2000000029802,280931.6000000015,7128,VNB,A,14
14,test,2,1.0,1-Back,1,m,Thu Apr 17 2025 10:52:46 GMT-0500 (Central Daylight Time),284607.0,165_m_m_h_a.png,O,m,694,16,1,1709.6999999955297,282897.30000000447,7128,VNB,A,15
15,test,2,0.0,1-Back,1,m,Thu Apr 17 2025 10:52:46 GMT-0500 (Central Daylight Time),286339.80000000447,124_o_f_d_a.png,O,m,706,17,1,1725.9000000059605,284613.8999999985,7128,VNB,A,16
15,test,2,1.0,1-Back,0,z,Thu Apr 17 2025 10:52:46 GMT-0500 (Central Daylight Time),288422.30000000447,039_o_m_d_a.png,O,m,1062,18,1,2076.3000000044703,286346.0,7128,VNB,A,17
0,test,3,1.0,1-Back,,,Thu Apr 17 2025 10:52:46 GMT-0500 (Central Daylight Time),288422.30000000447,124_o_f_h_a.png,O,space,1874,1,1,2076.3000000044703,286346.0,7128,VNB,A,0
1,test,3,0.0,1-Back,1,m,Thu Apr 17 2025 10:52:46 GMT-0500 (Central Daylight Time),294487.1000000015,139_m_f_d_a.png,O,m,1109,2,1,2126.10000000149,292361.0,7128,VNB,A,1
2,test,3,1.0,1-Back,1,m,Thu Apr 17 2025 10:52:46 GMT-0500 (Central Daylight Time),297086.3999999985,165_m_m_n_a.png,O,m,1578,3,1,2593.0999999940395,294493.30000000447,7128,VNB,A,2
3,test,3,0.0,1-Back,1,z,Thu Apr 17 2025 10:52:46 GMT-0500 (Central Daylight Time),298852.3999999985,124_o_f_n_a.png,O,z,746,4,1,1758.7999999970198,297093.6000000015,7128,VNB,A,3
4,test,3,1.0,1-Back,1,m,Thu Apr 17 2025 10:52:46 GMT-0500 (Central Daylight Time),301118.6000000015,039_o_m_d_a.png,O,m,1245,5,1,2259.2999999970198,298859.30000000447,7128,VNB,A,4
5,test,3,0.0,1-Back,1,m,Thu Apr 17 2025 10:52:46 GMT-0500 (Central Daylight Time),303201.1000000015,071_y_f_h_a.png,O,m,1058,6,1,2075.7999999970198,301125.30000000447,7128,VNB,A,5
6,test,3,0.0,1-Back,1,z,Thu Apr 17 2025 10:52:46 GMT-0500 (Central Daylight Time),305017.30000000447,109_y_m_h_a.png,O,z,784,7,1,1808.6000000014901,303208.700000003,7128,VNB,A,6
7,test,3,0.0,1-Back,1,m,Thu Apr 17 2025 10:52:46 GMT-0500 (Central Daylight Time),307064.1000000015,139_m_f_n_a.png,O,m,888,8,1,2040.3999999985099,305023.700000003,7128,VNB,A,7
8,test,3,0.0,1-Back,1,m,Thu Apr 17 2025 10:52:46 GMT-0500 (Central Daylight Time),308799.30000000447,071_y_f_d_a.png,O,m,710,9,1,1728.2000000029802,307071.1000000015,7128,VNB,A,8
9,test,3,1.0,1-Back,1,m,Thu Apr 17 2025 10:52:46 GMT-0500 (Central Daylight Time),310515.6000000015,039_o_m_n_a.png,O,m,689,10,1,1709.7000000029802,308805.8999999985,7128,VNB,A,9
10,test,3,0.0,1-Back,1,m,Thu Apr 17 2025 10:52:46 GMT-0500 (Central Daylight Time),312248.3999999985,165_m_m_h_a.png,O,m,701,11,1,1726.1999999955297,310522.200000003,7128,VNB,A,10
10,test,3,0.0,1-Back,0,z,Thu Apr 17 2025 10:52:46 GMT-0500 (Central Daylight Time),314397.6000000015,139_m_f_h_a.png,O,m,1129,12,1,2142.7999999970198,312254.80000000447,7128,VNB,A,11
11,test,3,1.0,1-Back,1,m,Thu Apr 17 2025 10:52:46 GMT-0500 (Central Daylight Time),315998.30000000447,124_o_f_d_a.png,O,m,572,13,1,1594.2000000029802,314404.1000000015,7128,VNB,A,12
12,test,3,0.0,1-Back,1,z,Thu Apr 17 2025 10:52:46 GMT-0500 (Central Daylight Time),317679.8999999985,165_m_m_d_a.png,O,z,652,14,1,1675.0999999940395,316004.80000000447,7128,VNB,A,13
13,test,3,0.0,1-Back,1,m,Thu Apr 17 2025 10:52:46 GMT-0500 (Central Daylight Time),319346.0,109_y_m_n_a.png,O,m,649,15,1,1659.0,317687.0,7128,VNB,A,14
14,test,3,1.0,1-Back,1,m,Thu Apr 17 2025 10:52:46 GMT-0500 (Central Daylight Time),321145.6000000015,039_o_m_h_a.png,O,m,775,16,1,1793.2999999970198,319352.30000000447,7128,VNB,A,15
15,test,3,0.0,1-Back,1,m,Thu Apr 17 2025 10:52:46 GMT-0500 (Central Daylight Time),323128.1000000015,109_y_m_d_a.png,O,m,959,17,1,1975.8999999985099,321152.200000003,7128,VNB,A,16
16,test,3,1.0,1-Back,1,m,Thu Apr 17 2025 10:52:46 GMT-0500 (Central Daylight Time),325211.0,071_y_f_n_a.png,O,m,1056,18,1,2076.2999999970198,323134.700000003,7128,VNB,A,17
0,test,4,1.0,1-Back,,,Thu Apr 17 2025 10:52:46 GMT-0500 (Central Daylight Time),325211.0,165_m_m_d_a.png,O,space,1990,1,1,2076.2999999970198,323134.700000003,7128,VNB,A,0
1,test,4,0.0,1-Back,1,z,Thu Apr 17 2025 10:52:46 GMT-0500 (Central Daylight Time),331542.200000003,039_o_m_d_a.png,O,z,1295,2,1,2309.8000000044703,329232.3999999985,7128,VNB,A,1
2,test,4,0.0,1-Back,1,m,Thu Apr 17 2025 10:52:46 GMT-0500 (Central Daylight Time),333425.0,109_y_m_h_a.png,O,m,859,3,1,1876.1999999955297,331548.80000000447,7128,VNB,A,2
3,test,4,0.0,1-Back,1,m,Thu Apr 17 2025 10:52:46 GMT-0500 (Central Daylight Time),335474.5,139_m_f_n_a.png,O,m,1032,4,1,2043.2999999970198,333431.200000003,7128,VNB,A,3
3,test,4,1.0,1-Back,0,m,Thu Apr 17 2025 10:52:46 GMT-0500 (Central Daylight Time),337190.3999999985,124_o_f_h_a.png,O,z,687,5,1,1710.0,335480.3999999985,7128,VNB,A,4
4,test,4,0.0,1-Back,1,m,Thu Apr 17 2025 10:52:46 GMT-0500 (Central Daylight Time),338889.8999999985,165_m_m_n_a.png,O,m,682,6,1,1692.8999999985099,337197.0,7128,VNB,A,5
5,test,4,0.0,1-Back,1,m,Thu Apr 17 2025 10:52:46 GMT-0500 (Central Daylight Time),340872.700000003,109_y_m_d_a.png,O,m,959,7,1,1976.3999999985099,338896.30000000447,7128,VNB,A,6
6,test,4,1.0,1-Back,1,z,Thu Apr 17 2025 10:52:46 GMT-0500 (Central Daylight Time),343422.0,071_y_f_d_a.png,O,z,1520,8,1,2541.60000000149,340880.3999999985,7128,VNB,A,7
7,test,4,0.0,1-Back,1,m,Thu Apr 17 2025 10:52:46 GMT-0500 (Central Daylight Time),345021.30000000447,139_m_f_h_a.png,O,m,570,9,1,1592.8000000044703,343428.5,7128,VNB,A,8
8,test,4,0.0,1-Back,1,z,Thu Apr 17 2025 10:52:46 GMT-0500 (Central Daylight Time),347070.700000003,039_o_m_h_a.png,O,z,1019,10,1,2043.2000000029802,345027.5,7128,VNB,A,9
9,test,4,1.0,1-Back,1,m,Thu Apr 17 2025 10:52:46 GMT-0500 (Central Daylight Time),349386.6000000015,124_o_f_n_a.png,O,m,1290,11,1,2308.89999999851,347077.700000003,7128,VNB,A,10
10,test,4,0.0,1-Back,1,m,Thu Apr 17 2025 10:52:46 GMT-0500 (Central Daylight Time),351319.5,139_m_f_d_a.png,O,m,911,12,1,1926.6000000014901,349392.8999999985,7128,VNB,A,11
11,test,4,0.0,1-Back,1,m,Thu Apr 17 2025 10:52:46 GMT-0500 (Central Daylight Time),353285.30000000447,071_y_f_n_a.png,O,m,946,13,1,1958.8000000044703,351326.5,7128,VNB,A,12
12,test,4,0.0,1-Back,1,m,Thu Apr 17 2025 10:52:46 GMT-0500 (Central Daylight Time),355268.200000003,124_o_f_d_a.png,O,m,956,14,1,1976.5,353291.700000003,7128,VNB,A,13
13,test,4,0.0,1-Back,1,m,Thu Apr 17 2025 10:52:46 GMT-0500 (Central Daylight Time),357234.3999999985,071_y_f_h_a.png,O,m,941,15,1,1958.2999999970198,355276.1000000015,7128,VNB,A,14
14,test,4,1.0,1-Back,1,z,Thu Apr 17 2025 10:52:46 GMT-0500 (Central Daylight Time),358783.8999999985,165_m_m_h_a.png,O,z,526,16,1,1543.2999999970198,357240.6000000015,7128,VNB,A,15
15,test,4,0.0,1-Back,1,m,Thu Apr 17 2025 10:52:46 GMT-0500 (Central Daylight Time),360566.3999999985,039_o_m_n_a.png,O,m,762,17,1,1775.7999999970198,358790.6000000015,7128,VNB,A,16
16,test,4,1.0,1-Back,1,z,Thu Apr 17 2025 10:52:46 GMT-0500 (Central Daylight Time),362549.30000000447,109_y_m_n_a.png,O,z,963,18,1,1975.5,360573.80000000447,7128,VNB,A,17
0,test,5,1.0,1-Back,,,Thu Apr 17 2025 10:52:46 GMT-0500 (Central Daylight Time),362549.30000000447,039_o_m_n_a.png,O,space,2188,1,1,1975.5,360573.80000000447,7128,VNB,A,0
1,test,5,1.0,1-Back,1,m,Thu Apr 17 2025 10:52:46 GMT-0500 (Central Daylight Time),368863.8999999985,124_o_f_h_a.png,O,m,1069,2,1,2093.0,366770.8999999985,7128,VNB,A,1
2,test,5,0.0,1-Back,1,m,Thu Apr 17 2025 10:52:46 GMT-0500 (Central Daylight Time),370713.5,109_y_m_d_a.png,O,m,825,3,1,1842.8999999985099,368870.6000000015,7128,VNB,A,2
2,test,5,0.0,1-Back,0,z,Thu Apr 17 2025 10:52:46 GMT-0500 (Central Daylight Time),372696.200000003,039_o_m_d_a.png,O,m,960,4,1,1975.3999999985099,370720.80000000447,7128,VNB,A,3
3,test,5,0.0,1-Back,1,m,Thu Apr 17 2025 10:52:46 GMT-0500 (Central Daylight Time),374428.80000000447,139_m_f_h_a.png,O,m,712,5,1,1726.0,372702.80000000447,7128,VNB,A,4
4,test,5,0.0,1-Back,1,m,Thu Apr 17 2025 10:52:46 GMT-0500 (Central Daylight Time),376061.80000000447,071_y_f_n_a.png,O,m,604,6,1,1625.3000000044703,374436.5,7128,VNB,A,5
4,test,5,1.0,1-Back,0,z,Thu Apr 17 2025 10:52:46 GMT-0500 (Central Daylight Time),378077.80000000447,124_o_f_n_a.png,O,m,986,7,1,2009.1000000014901,376068.700000003,7128,VNB,A,6
5,test,5,0.0,1-Back,1,m,Thu Apr 17 2025 10:52:46 GMT-0500 (Central Daylight Time),379943.80000000447,139_m_f_d_a.png,O,m,843,8,1,1859.2000000029802,378084.6000000015,7128,VNB,A,7
6,test,5,0.0,1-Back,1,m,Thu Apr 17 2025 10:52:46 GMT-0500 (Central Daylight Time),381659.80000000447,109_y_m_h_a.png,O,m,697,9,1,1708.8000000044703,379951.0,7128,VNB,A,8
7,test,5,0.0,1-Back,1,m,Thu Apr 17 2025 10:52:46 GMT-0500 (Central Daylight Time),383909.200000003,071_y_f_d_a.png,O,m,1229,10,1,2243.0,381666.200000003,7128,VNB,A,9
8,test,5,0.0,1-Back,1,m,Thu Apr 17 2025 10:52:46 GMT-0500 (Central Daylight Time),385542.1000000015,165_m_m_n_a.png,O,m,612,11,1,1626.6000000014901,383915.5,7128,VNB,A,10
8,test,5,1.0,1-Back,0,z,Thu Apr 17 2025 10:52:46 GMT-0500 (Central Daylight Time),387508.0,139_m_f_n_a.png,O,m,947,12,1,1958.7999999970198,385549.200000003,7128,VNB,A,11
9,test,5,0.0,1-Back,1,m,Thu Apr 17 2025 10:52:46 GMT-0500 (Central Daylight Time),389241.0,039_o_m_h_a.png,O,m,701,13,1,1726.0,387515.0,7128,VNB,A,12
9,test,5,0.0,1-Back,0,z,Thu Apr 17 2025 10:52:46 GMT-0500 (Central Daylight Time),391523.6000000015,165_m_m_h_a.png,O,m,1264,14,1,2275.7999999970198,389247.80000000447,7128,VNB,A,13
10,test,5,1.0,1-Back,1,m,Thu Apr 17 2025 10:52:46 GMT-0500 (Central Daylight Time),393139.6000000015,124_o_f_d_a.png,O,m,598,15,1,1609.1000000014901,391530.5,7128,VNB,A,14
11,test,5,0.0,1-Back,1,m,Thu Apr 17 2025 10:52:46 GMT-0500 (Central Daylight Time),395189.0,109_y_m_n_a.png,O,m,1029,16,1,2043.1000000014901,393145.8999999985,7128,VNB,A,15
12,test,5,0.0,1-Back,1,m,Thu Apr 17 2025 10:52:46 GMT-0500 (Central Daylight Time),397421.6000000015,071_y_f_h_a.png,O,m,1211,17,1,2225.60000000149,395196.0,7128,VNB,A,16
13,test,5,0.0,1-Back,1,m,Thu Apr 17 2025 10:52:46 GMT-0500 (Central Daylight Time),399404.30000000447,165_m_m_d_a.png,O,m,962,18,1,1976.2000000029802,397428.1000000015,7128,VNB,A,17
0,prac,1,0.0,2-Back,,,Thu Apr 17 2025 10:52:46 GMT-0500 (Central Daylight Time),399404.30000000447,139_m_f_n_a.png,O,space,17631,1,1,1976.2000000029802,397428.1000000015,7128,VNB,A,0
0,prac,1,0.0,2-Back,,,Thu Apr 17 2025 10:52:46 GMT-0500 (Central Daylight Time),399404.30000000447,124_o_f_h_a.png,O,space,17631,2,1,1976.2000000029802,397428.1000000015,7128,VNB,A,0
1,prac,1,0.0,2-Back,1,m,Thu Apr 17 2025 10:52:46 GMT-0500 (Central Daylight Time),510036.3999999985,039_o_m_d_a.png,O,m,1477,3,1,2273.89999999851,507762.5,7128,VNB,A,1
2,prac,1,1.0,2-Back,1,z,Thu Apr 17 2025 10:52:46 GMT-0500 (Central Daylight Time),512135.8999999985,165_m_m_h_a.png,O,z,1280,4,1,2090.7999999970198,510045.1000000015,7128,VNB,A,2
2,prac,1,0.0,2-Back,0,m,Thu Apr 17 2025 10:52:46 GMT-0500 (Central Daylight Time),514435.0,071_y_f_n_a.png,O,z,1486,5,1,2291.2999999970198,512143.700000003,7128,VNB,A,3
3,prac,1,1.0,2-Back,1,z,Thu Apr 17 2025 10:52:46 GMT-0500 (Central Daylight Time),516117.80000000447,039_o_m_h_a.png,O,z,859,6,1,1675.0,514442.80000000447,7128,VNB,A,4
4,prac,1,1.0,2-Back,1,z,Thu Apr 17 2025 10:52:46 GMT-0500 (Central Daylight Time),518963.5,109_y_m_n_a.png,O,z,1938,7,1,2838.0,516125.5,7128,VNB,A,5
4,prac,1,0.0,2-Back,0,m,Thu Apr 17 2025 10:52:46 GMT-0500 (Central Daylight Time),521799.30000000447,139_m_f_d_a.png,O,None,2015,8,1,2823.3000000044703,518976.0,7128,VNB,A,6
5,prac,1,0.0,2-Back,1,m,Thu Apr 17 2025 10:52:46 GMT-0500 (Central Daylight Time),524032.0,124_o_f_d_a.png,O,m,1391,9,1,2225.2999999970198,521806.700000003,7128,VNB,A,7
5,prac,1,0.0,2-Back,0,m,Thu Apr 17 2025 10:52:46 GMT-0500 (Central Daylight Time),526114.8000000045,165_m_m_h_a.png,O,z,1305,10,1,2074.5,524040.30000000447,7128,VNB,A,8
6,prac,1,1.0,2-Back,1,z,Thu Apr 17 2025 10:52:46 GMT-0500 (Central Daylight Time),528047.5,071_y_f_d_a.png,O,z,1117,11,1,1924.6000000014901,526122.8999999985,7128,VNB,A,9
6,prac,1,0.0,2-Back,0,m,Thu Apr 17 2025 10:52:46 GMT-0500 (Central Daylight Time),530863.1000000015,039_o_m_n_a.png,O,None,2016,12,1,2807.5,528055.6000000015,7128,VNB,A,10
0,prac,2,0.0,2-Back,,,Thu Apr 17 2025 10:52:46 GMT-0500 (Central Daylight Time),530863.1000000015,139_m_f_n_a.png,O,a,5583,1,1,2807.5,528055.6000000015,7128,VNB,A,0
0,prac,2,0.0,2-Back,,,Thu Apr 17 2025 10:52:46 GMT-0500 (Central Daylight Time),530863.1000000015,124_o_f_h_a.png,O,a,5583,2,1,2807.5,528055.6000000015,7128,VNB,A,0
1,prac,2,0.0,2-Back,1,m,Thu Apr 17 2025 10:52:46 GMT-0500 (Central Daylight Time),543475.8999999985,039_o_m_d_a.png,O,m,1089,3,1,1891.6999999955297,541584.200000003,7128,VNB,A,1
2,prac,2,1.0,2-Back,1,z,Thu Apr 17 2025 10:52:46 GMT-0500 (Central Daylight Time),545458.700000003,165_m_m_h_a.png,O,z,1206,4,1,1975.2000000029802,543483.5,7128,VNB,A,2
3,prac,2,0.0,2-Back,1,m,Thu Apr 17 2025 10:52:46 GMT-0500 (Central Daylight Time),547224.8999999985,071_y_f_n_a.png,O,m,957,5,1,1758.1999999955297,545466.700000003,7128,VNB,A,3
4,prac,2,1.0,2-Back,1,z,Thu Apr 17 2025 10:52:46 GMT-0500 (Central Daylight Time),549174.3999999985,039_o_m_h_a.png,O,z,1136,6,1,1941.7999999970198,547232.6000000015,7128,VNB,A,4
4,prac,2,1.0,2-Back,0,z,Thu Apr 17 2025 10:52:46 GMT-0500 (Central Daylight Time),551090.1000000015,109_y_m_n_a.png,O,m,1099,7,1,1908.1000000014901,549182.0,7128,VNB,A,5
5,prac,2,0.0,2-Back,1,m,Thu Apr 17 2025 10:52:46 GMT-0500 (Central Daylight Time),552856.3000000045,139_m_f_d_a.png,O,m,964,8,1,1756.7000000029802,551099.6000000015,7128,VNB,A,6
6,prac,2,0.0,2-Back,1,m,Thu Apr 17 2025 10:52:46 GMT-0500 (Central Daylight Time),555322.3000000045,124_o_f_d_a.png,O,m,1631,9,1,2458.3000000044703,552864.0,7128,VNB,A,7
6,prac,2,0.0,2-Back,0,m,Thu Apr 17 2025 10:52:46 GMT-0500 (Central Daylight Time),556888.200000003,165_m_m_h_a.png,O,z,774,10,1,1557.0,555331.200000003,7128,VNB,A,8
7,prac,2,1.0,2-Back,1,z,Thu Apr 17 2025 10:52:46 GMT-0500 (Central Daylight Time),559637.5,071_y_f_d_a.png,O,z,1935,11,1,2741.2999999970198,556896.200000003,7128,VNB,A,9
8,prac,2,0.0,2-Back,1,m,Thu Apr 17 2025 10:52:46 GMT-0500 (Central Daylight Time),561803.6000000015,039_o_m_n_a.png,O,m,1356,12,1,2158.89999999851,559644.700000003,7128,VNB,A,10
0,test,1,0.0,2-Back,,,Thu Apr 17 2025 10:52:46 GMT-0500 (Central Daylight Time),561803.6000000015,109_y_m_h_a.png,O,space,7392,1,1,2158.89999999851,559644.700000003,7128,VNB,A,0
0,test,1,0.0,2-Back,,,Thu Apr 17 2025 10:52:46 GMT-0500 (Central Daylight Time),561803.6000000015,124_o_f_n_a.png,O,space,7392,2,1,2158.89999999851,559644.700000003,7128,VNB,A,0
1,test,1,0.0,2-Back,1,z,Thu Apr 17 2025 10:52:46 GMT-0500 (Central Daylight Time),583729.8999999985,039_o_m_h_a.png,O,z,1149,3,1,2158.6999999955297,581571.200000003,7128,VNB,A,1
2,test,1,0.0,2-Back,1,m,Thu Apr 17 2025 10:52:46 GMT-0500 (Central Daylight Time),586346.0,139_m_f_d_a.png,O,m,1599,4,1,2609.6999999955297,583736.3000000045,7128,VNB,A,2
3,test,1,1.0,2-Back,1,m,Thu Apr 17 2025 10:52:46 GMT-0500 (Central Daylight Time),588745.1000000015,109_y_m_n_a.png,O,m,1375,5,1,2392.2999999970198,586352.8000000045,7128,VNB,A,3
3,test,1,0.0,2-Back,0,z,Thu Apr 17 2025 10:52:46 GMT-0500 (Central Daylight Time),591227.6000000015,071_y_f_d_a.png,O,m,1464,6,1,2476.0,588751.6000000015,7128,VNB,A,4
4,test,1,0.0,2-Back,1,m,Thu Apr 17 2025 10:52:46 GMT-0500 (Central Daylight Time),593810.200000003,165_m_m_h_a.png,O,m,1565,7,1,2575.5,591234.700000003,7128,VNB,A,5
4,test,1,1.0,2-Back,0,m,Thu Apr 17 2025 10:52:46 GMT-0500 (Central Daylight Time),595626.3000000045,071_y_f_n_a.png,O,z,791,8,1,1809.4000000059605,593816.8999999985,7128,VNB,A,6
5,test,1,0.0,2-Back,1,z,Thu Apr 17 2025 10:52:46 GMT-0500 (Central Daylight Time),598275.3999999985,124_o_f_h_a.png,O,z,1623,9,1,2642.5,595632.8999999985,7128,VNB,A,7
6,test,1,0.0,2-Back,1,m,Thu Apr 17 2025 10:52:46 GMT-0500 (Central Daylight Time),600841.3000000045,039_o_m_d_a.png,O,m,1542,10,1,2558.60000000149,598282.700000003,7128,VNB,A,8
7,test,1,1.0,2-Back,1,m,Thu Apr 17 2025 10:52:46 GMT-0500 (Central Daylight Time),603623.6000000015,165_m_m_d_a.png,O,m,1752,11,1,2775.7000000029802,600847.8999999985,7128,VNB,A,9
7,test,1,0.0,2-Back,0,m,Thu Apr 17 2025 10:52:46 GMT-0500 (Central Daylight Time),606122.8000000045,139_m_f_n_a.png,O,z,1482,12,1,2492.5,603630.3000000045,7128,VNB,A,10
8,test,1,0.0,2-Back,1,m,Thu Apr 17 2025 10:52:46 GMT-0500 (Central Daylight Time),608922.0,071_y_f_h_a.png,O,m,1766,13,1,2792.39999999851,606129.6000000015,7128,VNB,A,11
8,test,1,0.0,2-Back,0,z,Thu Apr 17 2025 10:52:46 GMT-0500 (Central Daylight Time),611038.200000003,165_m_m_n_a.png,O,m,1087,14,1,2109.5,608928.700000003,7128,VNB,A,12
9,test,1,0.0,2-Back,1,m,Thu Apr 17 2025 10:52:46 GMT-0500 (Central Daylight Time),613854.0,109_y_m_d_a.png,O,m,1787,15,1,2808.39999999851,611045.6000000015,7128,VNB,A,13
10,test,1,1.0,2-Back,1,m,Thu Apr 17 2025 10:52:46 GMT-0500 (Central Daylight Time),616386.5,139_m_f_h_a.png,O,m,1515,16,1,2526.0,613860.5,7128,VNB,A,14
10,test,1,0.0,2-Back,0,z,Thu Apr 17 2025 10:52:46 GMT-0500 (Central Daylight Time),618652.3999999985,124_o_f_d_a.png,O,m,1247,17,1,2259.5,616392.8999999985,7128,VNB,A,15
10,test,1,0.0,2-Back,0,m,Thu Apr 17 2025 10:52:46 GMT-0500 (Central Daylight Time),621368.200000003,039_o_m_n_a.png,O,z,1693,18,1,2708.8000000044703,618659.3999999985,7128,VNB,A,16
0,test,2,0.0,2-Back,,,Thu Apr 17 2025 10:52:46 GMT-0500 (Central Daylight Time),621368.200000003,165_m_m_h_a.png,O,space,2041,1,1,2708.8000000044703,618659.3999999985,7128,VNB,A,0
0,test,2,0.0,2-Back,,,Thu Apr 17 2025 10:52:46 GMT-0500 (Central Daylight Time),621368.200000003,071_y_f_n_a.png,O,space,2041,2,1,2708.8000000044703,618659.3999999985,7128,VNB,A,0
1,test,2,1.0,2-Back,1,z,Thu Apr 17 2025 10:52:46 GMT-0500 (Central Daylight Time),630548.6000000015,124_o_f_h_a.png,O,z,1013,3,1,2025.8999999985099,628522.700000003,7128,VNB,A,1
2,test,2,0.0,2-Back,1,m,Thu Apr 17 2025 10:52:46 GMT-0500 (Central Daylight Time),632781.200000003,039_o_m_d_a.png,O,m,1205,4,1,2226.10000000149,630555.1000000015,7128,VNB,A,2
3,test,2,0.0,2-Back,1,m,Thu Apr 17 2025 10:52:46 GMT-0500 (Central Daylight Time),635463.8000000045,139_m_f_d_a.png,O,m,1652,5,1,2675.8000000044703,632788.0,7128,VNB,A,3
4,test,2,0.0,2-Back,1,m,Thu Apr 17 2025 10:52:46 GMT-0500 (Central Daylight Time),638213.0,109_y_m_h_a.png,O,m,1671,6,1,2742.1999999955297,635470.8000000045,7128,VNB,A,4
4,test,2,0.0,2-Back,0,m,Thu Apr 17 2025 10:52:46 GMT-0500 (Central Daylight Time),640612.0,124_o_f_n_a.png,O,z,1380,7,1,2391.6999999955297,638220.3000000045,7128,VNB,A,5
5,test,2,1.0,2-Back,1,z,Thu Apr 17 2025 10:52:46 GMT-0500 (Central Daylight Time),643511.3999999985,039_o_m_h_a.png,O,z,1877,8,1,2892.89999999851,640618.5,7128,VNB,A,6
6,test,2,0.0,2-Back,1,m,Thu Apr 17 2025 10:52:46 GMT-0500 (Central Daylight Time),646293.700000003,071_y_f_d_a.png,O,m,1762,9,1,2775.10000000149,643518.6000000015,7128,VNB,A,7
6,test,2,0.0,2-Back,0,m,Thu Apr 17 2025 10:52:46 GMT-0500 (Central Daylight Time),648759.6000000015,109_y_m_d_a.png,O,z,1435,10,1,2459.2000000029802,646300.3999999985,7128,VNB,A,8
7,test,2,0.0,2-Back,1,m,Thu Apr 17 2025 10:52:46 GMT-0500 (Central Daylight Time),651758.5,165_m_m_n_a.png,O,m,1970,11,1,2992.1999999955297,648766.3000000045,7128,VNB,A,9
8,test,2,0.0,2-Back,1,m,Thu Apr 17 2025 10:52:46 GMT-0500 (Central Daylight Time),654174.6000000015,139_m_f_h_a.png,O,m,1395,12,1,2409.2999999970198,651765.3000000045,7128,VNB,A,10
8,test,2,1.0,2-Back,0,z,Thu Apr 17 2025 10:52:46 GMT-0500 (Central Daylight Time),656940.200000003,039_o_m_n_a.png,O,m,1747,13,1,2758.5,654181.700000003,7128,VNB,A,11
9,test,2,0.0,2-Back,1,m,Thu Apr 17 2025 10:52:46 GMT-0500 (Central Daylight Time),659905.8999999985,124_o_f_d_a.png,O,m,1949,14,1,2959.1999999955297,656946.700000003,7128,VNB,A,12
10,test,2,0.0,2-Back,1,m,Thu Apr 17 2025 10:52:46 GMT-0500 (Central Daylight Time),662738.3999999985,071_y_f_h_a.png,O,m,1807,15,1,2825.5999999940395,659912.8000000045,7128,VNB,A,13
11,test,2,0.0,2-Back,1,z,Thu Apr 17 2025 10:52:46 GMT-0500 (Central Daylight Time),665087.700000003,165_m_m_d_a.png,O,z,1327,16,1,2342.60000000149,662745.1000000015,7128,VNB,A,14
11,test,2,0.0,2-Back,0,m,Thu Apr 17 2025 10:52:46 GMT-0500 (Central Daylight Time),668120.3000000045,109_y_m_n_a.png,O,None,2016,17,1,3025.0,665095.3000000045,7128,VNB,A,15
11,test,2,1.0,2-Back,0,m,Thu Apr 17 2025 10:52:46 GMT-0500 (Central Daylight Time),670852.700000003,139_m_f_n_a.png,O,z,1713,18,1,2725.7000000029802,668127.0,7128,VNB,A,16
0,test,3,1.0,2-Back,,,Thu Apr 17 2025 10:52:46 GMT-0500 (Central Daylight Time),670852.700000003,039_o_m_n_a.png,O,space,2421,1,1,2725.7000000029802,668127.0,7128,VNB,A,0
0,test,3,1.0,2-Back,,,Thu Apr 17 2025 10:52:46 GMT-0500 (Central Daylight Time),670852.700000003,124_o_f_d_a.png,O,space,2421,2,1,2725.7000000029802,668127.0,7128,VNB,A,0
1,test,3,0.0,2-Back,1,m,Thu Apr 17 2025 10:52:46 GMT-0500 (Central Daylight Time),680466.3000000045,071_y_f_h_a.png,O,m,1107,3,1,2125.8000000044703,678340.5,7128,VNB,A,1
2,test,3,0.0,2-Back,1,z,Thu Apr 17 2025 10:52:46 GMT-0500 (Central Daylight Time),682582.6000000015,139_m_f_d_a.png,O,z,1095,4,1,2109.39999999851,680473.200000003,7128,VNB,A,2
3,test,3,1.0,2-Back,1,m,Thu Apr 17 2025 10:52:46 GMT-0500 (Central Daylight Time),685597.8999999985,109_y_m_n_a.png,O,m,1974,5,1,3008.5999999940395,682589.3000000045,7128,VNB,A,3
4,test,3,0.0,2-Back,1,m,Thu Apr 17 2025 10:52:46 GMT-0500 (Central Daylight Time),687830.8000000045,039_o_m_h_a.png,O,m,1203,6,1,2226.3000000044703,685604.5,7128,VNB,A,4
5,test,3,0.0,2-Back,1,z,Thu Apr 17 2025 10:52:46 GMT-0500 (Central Daylight Time),690030.0,071_y_f_n_a.png,O,z,1171,7,1,2192.60000000149,687837.3999999985,7128,VNB,A,5
5,test,3,1.0,2-Back,0,m,Thu Apr 17 2025 10:52:46 GMT-0500 (Central Daylight Time),693062.700000003,165_m_m_d_a.png,O,None,2016,8,1,3025.60000000149,690037.1000000015,7128,VNB,A,6
6,test,3,0.0,2-Back,1,m,Thu Apr 17 2025 10:52:46 GMT-0500 (Central Daylight Time),694878.6000000015,109_y_m_d_a.png,O,m,787,9,1,1809.0,693069.6000000015,7128,VNB,A,7
6,test,3,0.0,2-Back,0,m,Thu Apr 17 2025 10:52:46 GMT-0500 (Central Daylight Time),697694.200000003,124_o_f_h_a.png,O,z,1795,10,1,2809.3000000044703,694884.8999999985,7128,VNB,A,8
7,test,3,1.0,2-Back,1,m,Thu Apr 17 2025 10:52:46 GMT-0500 (Central Daylight Time),699743.6000000015,139_m_f_n_a.png,O,m,1027,11,1,2042.2000000029802,697701.3999999985,7128,VNB,A,9
8,test,3,1.0,2-Back,1,z,Thu Apr 17 2025 10:52:46 GMT-0500 (Central Daylight Time),701343.1000000015,165_m_m_h_a.png,O,z,578,12,1,1592.3999999985099,699750.700000003,7128,VNB,A,10
8,test,3,0.0,2-Back,0,m,Thu Apr 17 2025 10:52:46 GMT-0500 (Central Daylight Time),704375.6000000015,071_y_f_d_a.png,O,None,2015,13,1,3025.10000000149,701350.5,7128,VNB,A,11
9,test,3,0.0,2-Back,1,m,Thu Apr 17 2025 10:52:46 GMT-0500 (Central Daylight Time),705991.700000003,124_o_f_n_a.png,O,m,586,14,1,1609.2000000029802,704382.5,7128,VNB,A,12
9,test,3,0.0,2-Back,0,z,Thu Apr 17 2025 10:52:46 GMT-0500 (Central Daylight Time),709024.1000000015,039_o_m_d_a.png,O,None,2016,15,1,3024.60000000149,705999.5,7128,VNB,A,13
10,test,3,1.0,2-Back,1,m,Thu Apr 17 2025 10:52:46 GMT-0500 (Central Daylight Time),711090.1000000015,139_m_f_h_a.png,O,m,1033,16,1,2059.39999999851,709030.700000003,7128,VNB,A,14
11,test,3,0.0,2-Back,1,m,Thu Apr 17 2025 10:52:46 GMT-0500 (Central Daylight Time),713889.1000000015,165_m_m_n_a.png,O,m,1767,17,1,2792.39999999851,711096.700000003,7128,VNB,A,15
12,test,3,0.0,2-Back,1,z,Thu Apr 17 2025 10:52:46 GMT-0500 (Central Daylight Time),716071.8000000045,109_y_m_h_a.png,O,z,1160,18,1,2176.2000000029802,713895.6000000015,7128,VNB,A,16
0,test,4,0.0,2-Back,,,Thu Apr 17 2025 10:52:46 GMT-0500 (Central Daylight Time),716071.8000000045,139_m_f_n_a.png,O,space,2873,1,1,2176.2000000029802,713895.6000000015,7128,VNB,A,0
0,test,4,0.0,2-Back,,,Thu Apr 17 2025 10:52:46 GMT-0500 (Central Daylight Time),716071.8000000045,039_o_m_n_a.png,O,space,2873,2,1,2176.2000000029802,713895.6000000015,7128,VNB,A,0
1,test,4,1.0,2-Back,1,m,Thu Apr 17 2025 10:52:46 GMT-0500 (Central Daylight Time),726418.700000003,109_y_m_h_a.png,O,m,1374,3,1,2392.5,724026.200000003,7128,VNB,A,1
2,test,4,1.0,2-Back,1,m,Thu Apr 17 2025 10:52:46 GMT-0500 (Central Daylight Time),728501.3000000045,124_o_f_d_a.png,O,m,1055,4,1,2075.3000000044703,726426.0,7128,VNB,A,2
3,test,4,0.0,2-Back,1,z,Thu Apr 17 2025 10:52:46 GMT-0500 (Central Daylight Time),730894.3000000045,039_o_m_h_a.png,O,z,1376,5,1,2386.2000000029802,728508.1000000015,7128,VNB,A,3
4,test,4,0.0,2-Back,1,m,Thu Apr 17 2025 10:52:46 GMT-0500 (Central Daylight Time),732883.200000003,165_m_m_n_a.png,O,m,965,6,1,1977.8000000044703,730905.3999999985,7128,VNB,A,4
5,test,4,0.0,2-Back,1,m,Thu Apr 17 2025 10:52:46 GMT-0500 (Central Daylight Time),734915.8000000045,139_m_f_d_a.png,O,m,1005,7,1,2026.2000000029802,732889.6000000015,7128,VNB,A,5
5,test,4,0.0,2-Back,0,z,Thu Apr 17 2025 10:52:46 GMT-0500 (Central Daylight Time),737082.0,071_y_f_n_a.png,O,m,1133,8,1,2159.1999999955297,734922.8000000045,7128,VNB,A,6
5,test,4,1.0,2-Back,0,m,Thu Apr 17 2025 10:52:46 GMT-0500 (Central Daylight Time),739131.200000003,124_o_f_h_a.png,O,z,1031,9,1,2042.5,737088.700000003,7128,VNB,A,7
5,test,4,0.0,2-Back,0,m,Thu Apr 17 2025 10:52:46 GMT-0500 (Central Daylight Time),741313.8000000045,165_m_m_h_a.png,O,z,1150,10,1,2174.60000000149,739139.200000003,7128,VNB,A,8
6,test,4,0.0,2-Back,1,m,Thu Apr 17 2025 10:52:46 GMT-0500 (Central Daylight Time),743463.200000003,071_y_f_d_a.png,O,m,1119,11,1,2142.3000000044703,741320.8999999985,7128,VNB,A,9
7,test,4,0.0,2-Back,1,m,Thu Apr 17 2025 10:52:46 GMT-0500 (Central Daylight Time),745412.8000000045,109_y_m_n_a.png,O,m,930,12,1,1942.8000000044703,743470.0,7128,VNB,A,10
7,test,4,0.0,2-Back,0,z,Thu Apr 17 2025 10:52:46 GMT-0500 (Central Daylight Time),747562.0,039_o_m_d_a.png,O,m,1117,13,1,2142.6999999955297,745419.3000000045,7128,VNB,A,11
8,test,4,1.0,2-Back,1,m,Thu Apr 17 2025 10:52:46 GMT-0500 (Central Daylight Time),749911.200000003,139_m_f_h_a.png,O,m,1327,14,1,2342.60000000149,747568.6000000015,7128,VNB,A,12
9,test,4,1.0,2-Back,1,m,Thu Apr 17 2025 10:52:46 GMT-0500 (Central Daylight Time),751977.3000000045,071_y_f_h_a.png,O,m,1042,15,1,2059.7000000029802,749917.6000000015,7128,VNB,A,13
9,test,4,0.0,2-Back,0,m,Thu Apr 17 2025 10:52:46 GMT-0500 (Central Daylight Time),754126.700000003,124_o_f_n_a.png,O,z,1128,16,1,2143.0,751983.700000003,7128,VNB,A,14
9,test,4,0.0,2-Back,0,m,Thu Apr 17 2025 10:52:46 GMT-0500 (Central Daylight Time),756359.200000003,109_y_m_d_a.png,O,z,1211,17,1,2225.60000000149,754133.6000000015,7128,VNB,A,15
10,test,4,1.0,2-Back,1,m,Thu Apr 17 2025 10:52:46 GMT-0500 (Central Daylight Time),759191.6000000015,165_m_m_d_a.png,O,m,1810,18,1,2825.2999999970198,756366.3000000045,7128,VNB,A,16
0,test,5,1.0,2-Back,,,Thu Apr 17 2025 10:52:46 GMT-0500 (Central Daylight Time),759191.6000000015,071_y_f_d_a.png,O,space,1914,1,1,2825.2999999970198,756366.3000000045,7128,VNB,A,0
0,test,5,1.0,2-Back,,,Thu Apr 17 2025 10:52:46 GMT-0500 (Central Daylight Time),759191.6000000015,124_o_f_h_a.png,O,space,1914,2,1,2825.2999999970198,756366.3000000045,7128,VNB,A,0
1,test,5,1.0,2-Back,1,z,Thu Apr 17 2025 10:52:46 GMT-0500 (Central Daylight Time),767888.8000000045,039_o_m_d_a.png,O,z,659,3,1,1675.6000000014901,766213.200000003,7128,VNB,A,1
2,test,5,1.0,2-Back,1,m,Thu Apr 17 2025 10:52:46 GMT-0500 (Central Daylight Time),769855.0,139_m_f_n_a.png,O,m,936,4,1,1959.5,767895.5,7128,VNB,A,2
2,test,5,0.0,2-Back,0,m,Thu Apr 17 2025 10:52:46 GMT-0500 (Central Daylight Time),772237.5,165_m_m_h_a.png,O,z,1362,5,1,2375.89999999851,769861.6000000015,7128,VNB,A,3
2,test,5,0.0,2-Back,0,z,Thu Apr 17 2025 10:52:46 GMT-0500 (Central Daylight Time),774420.200000003,071_y_f_n_a.png,O,m,1155,6,1,2176.0,772244.200000003,7128,VNB,A,4
2,test,5,0.0,2-Back,0,m,Thu Apr 17 2025 10:52:46 GMT-0500 (Central Daylight Time),776619.6000000015,124_o_f_d_a.png,O,z,1173,7,1,2192.7999999970198,774426.8000000045,7128,VNB,A,5
2,test,5,0.0,2-Back,0,m,Thu Apr 17 2025 10:52:46 GMT-0500 (Central Daylight Time),779035.3999999985,039_o_m_h_a.png,O,z,1390,8,1,2409.1999999955297,776626.200000003,7128,VNB,A,6
3,test,5,1.0,2-Back,1,z,Thu Apr 17 2025 10:52:46 GMT-0500 (Central Daylight Time),781734.6000000015,139_m_f_d_a.png,O,z,1678,9,1,2692.60000000149,779042.0,7128,VNB,A,7
3,test,5,0.0,2-Back,0,m,Thu Apr 17 2025 10:52:46 GMT-0500 (Central Daylight Time),783700.5,109_y_m_n_a.png,O,z,946,10,1,1958.8999999985099,781741.6000000015,7128,VNB,A,8
4,test,5,0.0,2-Back,1,m,Thu Apr 17 2025 10:52:46 GMT-0500 (Central Daylight Time),786033.200000003,165_m_m_n_a.png,O,m,1309,11,1,2326.2000000029802,783707.0,7128,VNB,A,9
4,test,5,0.0,2-Back,0,m,Thu Apr 17 2025 10:52:46 GMT-0500 (Central Daylight Time),788299.1000000015,071_y_f_h_a.png,O,z,1248,12,1,2258.89999999851,786040.200000003,7128,VNB,A,10
4,test,5,0.0,2-Back,0,m,Thu Apr 17 2025 10:52:46 GMT-0500 (Central Daylight Time),790682.1000000015,109_y_m_d_a.png,O,z,1366,13,1,2376.2999999970198,788305.8000000045,7128,VNB,A,11
5,test,5,1.0,2-Back,1,z,Thu Apr 17 2025 10:52:46 GMT-0500 (Central Daylight Time),792764.3999999985,139_m_f_h_a.png,O,z,1063,14,1,2075.89999999851,790688.5,7128,VNB,A,12
6,test,5,0.0,2-Back,1,m,Thu Apr 17 2025 10:52:46 GMT-0500 (Central Daylight Time),794763.700000003,039_o_m_n_a.png,O,m,971,15,1,1992.0,792771.700000003,7128,VNB,A,13
7,test,5,0.0,2-Back,1,m,Thu Apr 17 2025 10:52:46 GMT-0500 (Central Daylight Time),797513.0,165_m_m_d_a.png,O,m,1718,16,1,2742.2999999970198,794770.700000003,7128,VNB,A,14
7,test,5,0.0,2-Back,0,z,Thu Apr 17 2025 10:52:46 GMT-0500 (Central Daylight Time),799712.5,124_o_f_n_a.png,O,m,1176,17,1,2192.7999999970198,797519.700000003,7128,VNB,A,15
7,test,5,1.0,2-Back,0,m,Thu Apr 17 2025 10:52:46 GMT-0500 (Central Daylight Time),801406.3000000045,109_y_m_h_a.png,O,z,677,18,1,1685.7000000029802,799720.6000000015,7128,VNB,A,16
