Q,Q1,Q2,Q3,Q4,acc_sum,block,block_c,correct,correct_response,datetime,endtime,project,response,response_time,row_sel,session_number,squiggle1,squiggle1x,squiggle1y,squiggle2,squiggle2x,squiggle2y,squiggle3,squiggle3x,squiggle3y,squiggle4,squiggle4x,squiggle4y,start_end,starttime,subject_id,target_congruent,task,task_vers,testsquiggle,testsquigglex,testsquiggley,time_practice_delay,time_practice_fixation,time_practice_stimuli,time_practice_study,time_test_delay,time_test_fixation,time_test_stimuli,time_test_study,trial
1,1,0,0,0,1,prac,1,1,z,Mon Jan 20 2025 16:37:16 GMT-0600 (Central Standard Time),105518.90000000596,O,z,1910,1,1,66.bmp,-120,-120,67.bmp,120,-120,68.bmp,-120,120,69.bmp,120,120,10727.09999999404,94791.80000001192,7039,yes,SM,C,66.bmp,-120,-120,93775,87747,95793,89761,,,,,1
3,0,0,1,0,2,prac,1,1,m,Mon Jan 20 2025 16:37:16 GMT-0600 (Central Standard Time),115732.30000001192,O,m,1388,2,1,70.bmp,-120,-120,71.bmp,120,-120,72.bmp,-120,120,73.bmp,120,120,10209.200000017881,105523.09999999404,7039,no,SM,C,73.bmp,-120,120,104505,98478,106523,100491,,,,,2
4,0,0,0,1,2,prac,1,0,m,Mon Jan 20 2025 16:37:16 GMT-0600 (Central Standard Time),126562.20000001788,O,None,2015,3,1,74.bmp,-120,-120,75.bmp,120,-120,76.bmp,-120,120,77.bmp,120,120,10826.100000023842,115736.09999999404,7039,no,SM,C,74.bmp,120,120,114719,108691,116736,110705,,,,,3
2,0,1,0,0,2,prac,1,0,z,Mon Jan 20 2025 16:37:16 GMT-0600 (Central Standard Time),137392.0,O,None,2015,4,1,78.bmp,-120,-120,79.bmp,120,-120,80.bmp,-120,120,81.bmp,120,120,10826.0,126566.0,7039,yes,SM,C,79.bmp,120,-120,125549,119521,127566,121534,,,,,4
3,0,0,1,0,3,prac,1,1,z,Mon Jan 20 2025 16:37:16 GMT-0600 (Central Standard Time),147422.20000001788,O,z,1210,5,1,82.bmp,-120,-120,83.bmp,120,-120,84.bmp,-120,120,85.bmp,120,120,10026.700000017881,137395.5,7039,yes,SM,C,84.bmp,-120,120,136379,130351,138396,132365,,,,,5
1,1,0,0,0,4,prac,1,1,m,Mon Jan 20 2025 16:37:16 GMT-0600 (Central Standard Time),158168.90000000596,O,m,1924,6,1,86.bmp,-120,-120,87.bmp,120,-120,88.bmp,-120,120,89.bmp,120,120,10743.0,147425.90000000596,7039,no,SM,C,89.bmp,-120,-120,146409,140381,148426,142395,,,,,6
2,0,1,0,0,5,prac,1,1,m,Mon Jan 20 2025 16:37:16 GMT-0600 (Central Standard Time),168399.20000001788,O,m,1401,7,1,90.bmp,-120,-120,91.bmp,120,-120,92.bmp,-120,120,93.bmp,120,120,10226.5,158172.70000001788,7039,no,SM,C,90.bmp,120,-120,157155,151128,159173,153141,,,,,7
4,0,0,0,1,5,prac,1,0,z,Mon Jan 20 2025 16:37:16 GMT-0600 (Central Standard Time),178446.0,O,m,1220,8,1,94.bmp,-120,-120,95.bmp,120,-120,96.bmp,-120,120,97.bmp,120,120,10041.59999999404,168404.40000000596,7039,yes,SM,C,97.bmp,120,120,167385,161360,169403,163371,,,,,8
4,0,0,0,1,0,test,1,0,m,Mon Jan 20 2025 16:37:16 GMT-0600 (Central Standard Time),208403.5,O,z,1948,1,1,98.bmp,-120,-120,99.bmp,120,-120,100.bmp,-120,120,93.bmp,120,120,10011.299999982119,198392.20000001788,7039,yes,SM,C,100.bmp,120,120,167385,161360,169403,163371,197376.0,191347.0,199394.0,193362.0,1
2,0,1,0,0,1,test,1,1,m,Mon Jan 20 2025 16:37:16 GMT-0600 (Central Standard Time),217966.80000001192,O,m,1512,2,1,51.bmp,-120,-120,52.bmp,120,-120,53.bmp,-120,120,54.bmp,120,120,9559.300000011921,208407.5,7039,yes,SM,C,53.bmp,120,-120,167385,161360,169403,163371,207390.0,201363.0,209407.0,203376.0,2
1,1,0,0,0,2,test,1,1,z,Mon Jan 20 2025 16:37:16 GMT-0600 (Central Standard Time),227380.20000001788,O,z,1364,3,1,55.bmp,-120,-120,56.bmp,120,-120,57.bmp,-120,120,58.bmp,120,120,9409.90000000596,217970.30000001192,7039,yes,SM,C,55.bmp,-120,-120,167385,161360,169403,163371,216953.0,210926.0,218971.0,212940.0,3
3,0,0,1,0,2,test,1,0,m,Mon Jan 20 2025 16:37:16 GMT-0600 (Central Standard Time),236960.80000001192,O,z,1518,4,1,59.bmp,-120,-120,60.bmp,120,-120,61.bmp,-120,120,62.bmp,120,120,9577.0,227383.80000001192,7039,yes,SM,C,59.bmp,-120,120,167385,161360,169403,163371,226367.0,220339.0,228385.0,222353.0,4
2,0,1,0,0,3,test,1,1,z,Mon Jan 20 2025 16:37:16 GMT-0600 (Central Standard Time),246874.40000000596,O,z,1858,5,1,63.bmp,-120,-120,64.bmp,120,-120,65.bmp,-120,120,66.bmp,120,120,9910.300000011921,236964.09999999404,7039,yes,SM,C,64.bmp,120,-120,167385,161360,169403,163371,235947.0,229919.0,237965.0,231933.0,5
3,0,0,1,0,4,test,1,1,z,Mon Jan 20 2025 16:37:16 GMT-0600 (Central Standard Time),256821.30000001192,O,z,1888,6,1,67.bmp,-120,-120,68.bmp,120,-120,69.bmp,-120,120,70.bmp,120,120,9943.800000011921,246877.5,7039,yes,SM,C,69.bmp,-120,120,167385,161360,169403,163371,245861.0,239833.0,247879.0,241847.0,6
4,0,0,0,1,5,test,1,1,z,Mon Jan 20 2025 16:37:16 GMT-0600 (Central Standard Time),266351.59999999404,O,z,1469,7,1,71.bmp,-120,-120,72.bmp,120,-120,73.bmp,-120,120,74.bmp,120,120,9526.799999982119,256824.80000001192,7039,yes,SM,C,74.bmp,120,120,167385,161360,169403,163371,255808.0,249780.0,257826.0,251794.0,7
2,0,1,0,0,5,test,1,0,m,Mon Jan 20 2025 16:37:16 GMT-0600 (Central Standard Time),276148.40000000596,O,z,1747,8,1,75.bmp,-120,-120,76.bmp,120,-120,77.bmp,-120,120,78.bmp,120,120,9793.59999999404,266354.8000000119,7039,yes,SM,C,75.bmp,120,-120,167385,161360,169403,163371,265338.0,259310.0,267356.0,261324.0,8
3,0,0,1,0,5,test,1,0,m,Mon Jan 20 2025 16:37:16 GMT-0600 (Central Standard Time),285895.5,O,z,1694,9,1,79.bmp,-120,-120,80.bmp,120,-120,81.bmp,-120,120,82.bmp,120,120,9744.09999999404,276151.40000000596,7039,yes,SM,C,80.bmp,-120,120,167385,161360,169403,163371,275135.0,269107.0,277153.0,271121.0,9
4,0,0,0,1,6,test,1,1,z,Mon Jan 20 2025 16:37:16 GMT-0600 (Central Standard Time),295509.09999999404,O,z,1563,10,1,87.bmp,-120,-120,88.bmp,120,-120,89.bmp,-120,120,90.bmp,120,120,9610.199999988079,285898.90000000596,7039,yes,SM,C,90.bmp,120,120,167385,161360,169403,163371,284882.0,278854.0,286899.0,280868.0,10
3,0,0,1,0,7,test,1,1,z,Mon Jan 20 2025 16:37:16 GMT-0600 (Central Standard Time),305522.90000000596,O,z,1949,11,1,83.bmp,-120,-120,84.bmp,120,-120,85.bmp,-120,120,86.bmp,120,120,10005.699999988079,295517.2000000179,7039,yes,SM,C,85.bmp,-120,120,167385,161360,169403,163371,294496.0,288473.0,296514.0,290482.0,11
2,0,1,0,0,7,test,1,0,m,Mon Jan 20 2025 16:37:16 GMT-0600 (Central Standard Time),315586.40000000596,O,None,2014,12,1,91.bmp,-120,-120,92.bmp,120,-120,93.bmp,-120,120,94.bmp,120,120,10060.199999988079,305526.2000000179,7039,yes,SM,C,91.bmp,120,-120,167385,161360,169403,163371,304509.0,298481.0,306527.0,300495.0,12
3,0,0,1,0,7,test,1,0,m,Mon Jan 20 2025 16:37:16 GMT-0600 (Central Standard Time),325116.90000000596,O,z,1473,13,1,95.bmp,-120,-120,96.bmp,120,-120,97.bmp,-120,120,98.bmp,120,120,9527.09999999404,315589.8000000119,7039,yes,SM,C,96.bmp,-120,120,167385,161360,169403,163371,314573.0,308545.0,316590.0,310560.0,13
1,1,0,0,0,8,test,1,1,z,Mon Jan 20 2025 16:37:16 GMT-0600 (Central Standard Time),334430.3000000119,O,z,1262,14,1,99.bmp,-120,-120,100.bmp,120,-120,54.bmp,-120,120,51.bmp,120,120,9309.800000011921,325120.5,7039,yes,SM,C,99.bmp,-120,-120,167385,161360,169403,163371,324103.0,318076.0,326121.0,320089.0,14
4,0,0,0,1,8,test,1,0,m,Mon Jan 20 2025 16:37:16 GMT-0600 (Central Standard Time),344027.40000000596,O,z,1540,15,1,60.bmp,-120,-120,61.bmp,120,-120,62.bmp,-120,120,63.bmp,120,120,9593.40000000596,334434.0,7039,yes,SM,C,61.bmp,120,120,167385,161360,169403,163371,333417.0,327389.0,335435.0,329403.0,15
1,1,0,0,0,9,test,1,1,m,Mon Jan 20 2025 16:37:16 GMT-0600 (Central Standard Time),353557.7000000179,O,m,1461,16,1,52.bmp,-120,-120,53.bmp,120,-120,54.bmp,-120,120,55.bmp,120,120,9527.100000023842,344030.59999999404,7039,yes,SM,C,55.bmp,-120,-120,167385,161360,169403,163371,343014.0,336986.0,345042.0,339000.0,16
3,0,0,1,0,9,test,1,0,m,Mon Jan 20 2025 16:37:16 GMT-0600 (Central Standard Time),363622.3000000119,O,None,2015,17,1,72.bmp,-120,-120,73.bmp,120,-120,74.bmp,-120,120,75.bmp,120,120,10061.300000011921,353561.0,7039,yes,SM,C,72.bmp,-120,120,167385,161360,169403,163371,352544.0,346516.0,354562.0,348530.0,17
1,1,0,0,0,10,test,1,1,z,Mon Jan 20 2025 16:37:16 GMT-0600 (Central Standard Time),373484.7000000179,O,z,1805,18,1,56.bmp,-120,-120,57.bmp,120,-120,58.bmp,-120,120,59.bmp,120,120,9859.200000017881,363625.5,7039,yes,SM,C,56.bmp,-120,-120,167385,161360,169403,163371,362608.0,356581.0,364626.0,358594.0,18
2,0,1,0,0,11,test,1,1,z,Mon Jan 20 2025 16:37:16 GMT-0600 (Central Standard Time),382981.90000000596,O,z,1321,19,1,76.bmp,-120,-120,77.bmp,120,-120,78.bmp,-120,120,79.bmp,120,120,9493.699999988079,373488.2000000179,7039,yes,SM,C,77.bmp,120,-120,167385,161360,169403,163371,372588.0,366443.0,374606.0,368584.0,19
3,0,0,1,0,12,test,1,1,z,Mon Jan 20 2025 16:37:16 GMT-0600 (Central Standard Time),392362.2000000179,O,z,1317,20,1,80.bmp,-120,-120,81.bmp,120,-120,82.bmp,-120,120,83.bmp,120,120,9373.200000017881,382989.0,7039,yes,SM,C,82.bmp,-120,120,167385,161360,169403,163371,381969.0,375944.0,383986.0,377954.0,20
1,1,0,0,0,13,test,1,1,m,Mon Jan 20 2025 16:37:16 GMT-0600 (Central Standard Time),401659.09999999404,O,m,1241,21,1,64.bmp,-120,-120,65.bmp,120,-120,66.bmp,-120,120,67.bmp,120,120,9293.59999999404,392365.5,7039,yes,SM,C,66.bmp,-120,-120,167385,161360,169403,163371,391349.0,385321.0,393366.0,387335.0,21
4,0,0,0,1,14,test,1,1,z,Mon Jan 20 2025 16:37:16 GMT-0600 (Central Standard Time),411091.5,O,z,1367,22,1,68.bmp,-120,-120,69.bmp,120,-120,70.bmp,-120,120,71.bmp,120,120,9429.5,401662.0,7039,yes,SM,C,71.bmp,120,120,167385,161360,169403,163371,400646.0,394617.0,402664.0,396632.0,22
1,1,0,0,0,15,test,1,1,m,Mon Jan 20 2025 16:37:16 GMT-0600 (Central Standard Time),420553.5,O,m,1401,23,1,84.bmp,-120,-120,85.bmp,120,-120,86.bmp,-120,120,87.bmp,120,120,9458.299999982119,411095.2000000179,7039,yes,SM,C,87.bmp,-120,-120,167385,161360,169403,163371,410076.0,404050.0,412094.0,406062.0,23
2,0,1,0,0,16,test,1,1,z,Mon Jan 20 2025 16:37:16 GMT-0600 (Central Standard Time),430100.5,O,z,1448,24,1,92.bmp,-120,-120,93.bmp,120,-120,94.bmp,-120,120,95.bmp,120,120,9543.699999988079,420556.8000000119,7039,yes,SM,C,93.bmp,120,-120,167385,161360,169403,163371,419573.0,413512.0,421591.0,415572.0,24
4,0,0,0,1,17,test,1,1,m,Mon Jan 20 2025 16:37:16 GMT-0600 (Central Standard Time),439364.3000000119,O,m,1198,25,1,96.bmp,-120,-120,97.bmp,120,-120,98.bmp,-120,120,99.bmp,120,120,9260.200000017881,430104.09999999404,7039,yes,SM,C,98.bmp,120,120,167385,161360,169403,163371,429087.0,423059.0,431105.0,425073.0,25
1,1,0,0,0,18,test,1,1,z,Mon Jan 20 2025 16:37:16 GMT-0600 (Central Standard Time),449344.59999999404,O,z,1926,26,1,88.bmp,-120,-120,89.bmp,120,-120,90.bmp,-120,120,91.bmp,120,120,9977.299999982119,439367.3000000119,7039,yes,SM,C,88.bmp,-120,-120,167385,161360,169403,163371,438351.0,432323.0,440369.0,434337.0,26
4,0,0,0,1,19,test,1,1,z,Mon Jan 20 2025 16:37:16 GMT-0600 (Central Standard Time),458874.8000000119,O,z,1467,27,1,100.bmp,-120,-120,61.bmp,120,-120,51.bmp,-120,120,52.bmp,120,120,9524.59999999404,449350.2000000179,7039,yes,SM,C,52.bmp,120,120,167385,161360,169403,163371,448331.0,442306.0,450348.0,444317.0,27
3,0,0,1,0,19,test,1,0,m,Mon Jan 20 2025 16:37:16 GMT-0600 (Central Standard Time),468505.0,O,z,1567,28,1,53.bmp,-120,-120,54.bmp,120,-120,55.bmp,-120,120,56.bmp,120,120,9626.799999982119,458878.2000000179,7039,yes,SM,C,53.bmp,-120,120,167385,161360,169403,163371,457861.0,451833.0,459880.0,453847.0,28
2,0,1,0,0,19,test,1,0,z,Mon Jan 20 2025 16:37:16 GMT-0600 (Central Standard Time),478568.7000000179,O,None,2014,29,1,57.bmp,-120,-120,58.bmp,120,-120,59.bmp,-120,120,60.bmp,120,120,10060.0,468508.7000000179,7039,yes,SM,C,58.bmp,120,-120,167385,161360,169403,163371,467492.0,461464.0,469510.0,463478.0,29
3,0,0,1,0,19,test,1,0,z,Mon Jan 20 2025 16:37:16 GMT-0600 (Central Standard Time),488515.40000000596,O,m,1882,30,1,61.bmp,-120,-120,62.bmp,120,-120,63.bmp,-120,120,64.bmp,120,120,9943.09999999404,478572.3000000119,7039,yes,SM,C,63.bmp,-120,120,167385,161360,169403,163371,477555.0,471528.0,479573.0,473541.0,30
1,1,0,0,0,19,test,1,0,z,Mon Jan 20 2025 16:37:16 GMT-0600 (Central Standard Time),498578.90000000596,O,None,2014,31,1,65.bmp,-120,-120,66.bmp,120,-120,67.bmp,-120,120,68.bmp,120,120,10060.59999999404,488518.3000000119,7039,yes,SM,C,65.bmp,-120,-120,167385,161360,169403,163371,487502.0,481474.0,489520.0,483488.0,31
2,0,1,0,0,20,test,1,1,m,Mon Jan 20 2025 16:37:16 GMT-0600 (Central Standard Time),508075.90000000596,O,m,1440,32,1,69.bmp,-120,-120,70.bmp,120,-120,71.bmp,-120,120,72.bmp,120,120,9493.59999999404,498582.3000000119,7039,yes,SM,C,69.bmp,120,-120,167385,161360,169403,163371,497566.0,491538.0,499583.0,493552.0,32
4,0,0,0,1,21,test,1,1,z,Mon Jan 20 2025 16:37:16 GMT-0600 (Central Standard Time),517406.40000000596,O,z,1271,33,1,81.bmp,-120,-120,82.bmp,120,-120,83.bmp,-120,120,84.bmp,120,120,9327.40000000596,508079.0,7039,yes,SM,C,84.bmp,120,120,167385,161360,169403,163371,507063.0,501034.0,509080.0,503049.0,33
2,0,1,0,0,22,test,1,1,z,Mon Jan 20 2025 16:37:16 GMT-0600 (Central Standard Time),527103.3000000119,O,z,1636,34,1,73.bmp,-120,-120,74.bmp,120,-120,75.bmp,-120,120,76.bmp,120,120,9693.800000011921,517409.5,7039,yes,SM,C,74.bmp,120,-120,167385,161360,169403,163371,516393.0,510365.0,518411.0,512379.0,34
4,0,0,0,1,22,test,1,0,m,Mon Jan 20 2025 16:37:16 GMT-0600 (Central Standard Time),536767.099999994,O,z,1611,35,1,77.bmp,-120,-120,78.bmp,120,-120,79.bmp,-120,120,80.bmp,120,120,9660.299999982119,527106.8000000119,7039,yes,SM,C,79.bmp,120,120,167385,161360,169403,163371,526090.0,520062.0,528108.0,522075.0,35
3,0,0,1,0,23,test,1,1,m,Mon Jan 20 2025 16:37:16 GMT-0600 (Central Standard Time),546580.5,O,m,1764,36,1,85.bmp,-120,-120,86.bmp,120,-120,87.bmp,-120,120,88.bmp,120,120,9810.5,536770.0,7039,yes,SM,C,85.bmp,-120,120,167385,161360,169403,163371,535754.0,529725.0,537771.0,531739.0,36
1,1,0,0,0,24,test,1,1,m,Mon Jan 20 2025 16:37:16 GMT-0600 (Central Standard Time),556060.8000000119,O,m,1422,37,1,89.bmp,-120,-120,90.bmp,120,-120,91.bmp,-120,120,92.bmp,120,120,9477.200000017881,546583.599999994,7039,yes,SM,C,90.bmp,-120,-120,167385,161360,169403,163371,545567.0,539539.0,547585.0,541553.0,37
2,0,1,0,0,25,test,1,1,m,Mon Jan 20 2025 16:37:16 GMT-0600 (Central Standard Time),565624.7000000179,O,m,1500,38,1,93.bmp,-120,-120,94.bmp,120,-120,95.bmp,-120,120,96.bmp,120,120,9560.90000000596,556063.8000000119,7039,yes,SM,C,95.bmp,120,-120,167385,161360,169403,163371,555048.0,549019.0,557067.0,551033.0,38
4,0,0,0,1,26,test,1,1,z,Mon Jan 20 2025 16:37:16 GMT-0600 (Central Standard Time),575255.0,O,z,1578,39,1,97.bmp,-120,-120,98.bmp,120,-120,99.bmp,-120,120,100.bmp,120,120,9626.90000000596,565628.099999994,7039,yes,SM,C,100.bmp,120,120,167385,161360,169403,163371,564611.0,558583.0,566629.0,560597.0,39
3,0,0,1,0,27,test,1,1,m,Mon Jan 20 2025 16:37:16 GMT-0600 (Central Standard Time),584718.7000000179,O,m,1404,40,1,54.bmp,-120,-120,55.bmp,120,-120,56.bmp,-120,120,57.bmp,120,120,9460.300000011921,575258.400000006,7039,yes,SM,C,55.bmp,-120,120,167385,161360,169403,163371,574242.0,568214.0,576259.0,570228.0,40
1,1,0,0,0,28,test,1,1,z,Mon Jan 20 2025 16:37:16 GMT-0600 (Central Standard Time),594099.0,O,z,1316,41,1,58.bmp,-120,-120,59.bmp,120,-120,60.bmp,-120,120,61.bmp,120,120,9376.40000000596,584722.599999994,7039,yes,SM,C,58.bmp,-120,-120,167385,161360,169403,163371,583705.0,577678.0,585723.0,579691.0,41
4,0,0,0,1,29,test,1,1,z,Mon Jan 20 2025 16:37:16 GMT-0600 (Central Standard Time),603629.400000006,O,z,1480,42,1,62.bmp,-120,-120,63.bmp,120,-120,64.bmp,-120,120,65.bmp,120,120,9527.300000011921,594102.099999994,7039,yes,SM,C,65.bmp,120,120,167385,161360,169403,163371,593086.0,587057.0,595103.0,589072.0,42
1,1,0,0,0,30,test,1,1,z,Mon Jan 20 2025 16:37:16 GMT-0600 (Central Standard Time),613243.0,O,z,1549,43,1,66.bmp,-120,-120,67.bmp,120,-120,68.bmp,-120,120,69.bmp,120,120,9611.199999988079,603631.8000000119,7039,yes,SM,C,66.bmp,-120,-120,167385,161360,169403,163371,602616.0,596587.0,604634.0,598602.0,43
4,0,0,0,1,31,test,1,1,m,Mon Jan 20 2025 16:37:16 GMT-0600 (Central Standard Time),623256.900000006,O,m,1952,44,1,54.bmp,-120,-120,51.bmp,120,-120,52.bmp,-120,120,53.bmp,120,120,10010.800000011921,613246.099999994,7039,yes,SM,C,54.bmp,120,120,167385,161360,169403,163371,612230.0,606201.0,614247.0,608215.0,44
1,1,0,0,0,31,test,1,0,m,Mon Jan 20 2025 16:37:16 GMT-0600 (Central Standard Time),632753.7000000179,O,z,1434,45,1,78.bmp,-120,-120,79.bmp,120,-120,80.bmp,-120,120,81.bmp,120,120,9493.300000011921,623260.400000006,7039,yes,SM,C,81.bmp,-120,-120,167385,161360,169403,163371,622243.0,616216.0,624261.0,618229.0,45
1,1,0,0,0,32,test,1,1,m,Mon Jan 20 2025 16:37:16 GMT-0600 (Central Standard Time),642550.599999994,O,m,1737,46,1,70.bmp,-120,-120,71.bmp,120,-120,72.bmp,-120,120,73.bmp,120,120,9794.0,632756.599999994,7039,yes,SM,C,71.bmp,-120,-120,167385,161360,169403,163371,631741.0,625712.0,633758.0,627726.0,46
3,0,0,1,0,33,test,1,1,z,Mon Jan 20 2025 16:37:16 GMT-0600 (Central Standard Time),651814.2000000179,O,z,1204,47,1,74.bmp,-120,-120,75.bmp,120,-120,76.bmp,-120,120,77.bmp,120,120,9260.200000017881,642554.0,7039,yes,SM,C,76.bmp,-120,120,167385,161360,169403,163371,641537.0,635509.0,643555.0,637523.0,47
3,0,0,1,0,33,test,1,0,z,Mon Jan 20 2025 16:37:16 GMT-0600 (Central Standard Time),661394.8000000119,O,m,1516,48,1,90.bmp,-120,-120,91.bmp,120,-120,92.bmp,-120,120,93.bmp,120,120,9577.90000000596,651816.900000006,7039,yes,SM,C,92.bmp,-120,120,167385,161360,169403,163371,650801.0,644772.0,652819.0,646787.0,48
2,0,1,0,0,33,test,1,0,z,Mon Jan 20 2025 16:37:16 GMT-0600 (Central Standard Time),670691.7000000179,O,m,1247,49,1,86.bmp,-120,-120,87.bmp,120,-120,88.bmp,-120,120,89.bmp,120,120,9293.600000023842,661398.099999994,7039,yes,SM,C,87.bmp,120,-120,167385,161360,169403,163371,660381.0,654353.0,662399.0,656367.0,49
3,0,0,1,0,34,test,1,1,m,Mon Jan 20 2025 16:37:16 GMT-0600 (Central Standard Time),680155.599999994,O,m,1407,50,1,82.bmp,-120,-120,83.bmp,120,-120,84.bmp,-120,120,85.bmp,120,120,9460.799999982119,670694.8000000119,7039,yes,SM,C,82.bmp,-120,120,167385,161360,169403,163371,669678.0,663650.0,671696.0,665664.0,50
2,0,1,0,0,35,test,1,1,z,Mon Jan 20 2025 16:37:16 GMT-0600 (Central Standard Time),689952.5,O,z,1743,51,1,94.bmp,-120,-120,95.bmp,120,-120,96.bmp,-120,120,97.bmp,120,120,9793.90000000596,680158.599999994,7039,yes,SM,C,95.bmp,120,-120,167385,161360,169403,163371,679142.0,673114.0,681160.0,675128.0,51
4,0,0,0,1,36,test,1,1,m,Mon Jan 20 2025 16:37:16 GMT-0600 (Central Standard Time),699649.400000006,O,m,1642,52,1,98.bmp,-120,-120,99.bmp,120,-120,100.bmp,-120,120,81.bmp,120,120,9693.90000000596,689955.5,7039,yes,SM,C,98.bmp,120,120,167385,161360,169403,163371,688939.0,682911.0,690957.0,684925.0,52
3,0,0,1,0,36,test,1,0,z,Mon Jan 20 2025 16:37:16 GMT-0600 (Central Standard Time),709313.2000000179,O,m,1601,53,1,51.bmp,-120,-120,52.bmp,120,-120,53.bmp,-120,120,54.bmp,120,120,9660.5,699652.7000000179,7039,yes,SM,C,53.bmp,-120,120,167385,161360,169403,163371,698636.0,692608.0,700654.0,694622.0,53
1,1,0,0,0,36,test,1,0,m,Mon Jan 20 2025 16:37:16 GMT-0600 (Central Standard Time),719044.400000006,O,z,1674,54,1,55.bmp,-120,-120,56.bmp,120,-120,57.bmp,-120,120,58.bmp,120,120,9728.0,709316.400000006,7039,yes,SM,C,57.bmp,-120,-120,167385,161360,169403,163371,708300.0,702272.0,710317.0,704285.0,54
4,0,0,0,1,36,test,1,0,z,Mon Jan 20 2025 16:37:16 GMT-0600 (Central Standard Time),728670.599999994,O,m,1577,55,1,59.bmp,-120,-120,60.bmp,120,-120,61.bmp,-120,120,62.bmp,120,120,9622.59999999404,719048.0,7039,yes,SM,C,62.bmp,120,120,167385,161360,169403,163371,718030.0,712003.0,720048.0,714016.0,55
2,0,1,0,0,37,test,1,1,m,Mon Jan 20 2025 16:37:16 GMT-0600 (Central Standard Time),738004.0,O,m,1265,56,1,63.bmp,-120,-120,64.bmp,120,-120,65.bmp,-120,120,66.bmp,120,120,9329.90000000596,728674.099999994,7039,yes,SM,C,63.bmp,120,-120,167385,161360,169403,163371,727660.0,721629.0,729678.0,723646.0,56
4,0,0,0,1,38,test,1,1,m,Mon Jan 20 2025 16:37:16 GMT-0600 (Central Standard Time),747317.8000000119,O,m,1263,57,1,67.bmp,-120,-120,68.bmp,120,-120,69.bmp,-120,120,70.bmp,120,120,9310.5,738007.3000000119,7039,yes,SM,C,68.bmp,120,120,167385,161360,169403,163371,736992.0,730963.0,739008.0,732976.0,57
3,0,0,1,0,38,test,1,0,z,Mon Jan 20 2025 16:37:16 GMT-0600 (Central Standard Time),757381.3000000119,O,None,2013,58,1,71.bmp,-120,-120,72.bmp,120,-120,73.bmp,-120,120,74.bmp,120,120,10060.300000011921,747321.0,7039,yes,SM,C,73.bmp,-120,120,167385,161360,169403,163371,746304.0,740276.0,748323.0,742290.0,58
2,0,1,0,0,39,test,1,1,m,Mon Jan 20 2025 16:37:16 GMT-0600 (Central Standard Time),766512.0,O,m,1077,59,1,75.bmp,-120,-120,76.bmp,120,-120,77.bmp,-120,120,78.bmp,120,120,9127.59999999404,757384.400000006,7039,yes,SM,C,78.bmp,120,-120,167385,161360,169403,163371,756368.0,750340.0,758385.0,752354.0,59
1,1,0,0,0,39,test,1,0,z,Mon Jan 20 2025 16:37:16 GMT-0600 (Central Standard Time),775935.5,O,m,1374,60,1,79.bmp,-120,-120,80.bmp,120,-120,81.bmp,-120,120,82.bmp,120,120,9420.09999999404,766515.400000006,7039,yes,SM,C,79.bmp,-120,-120,167385,161360,169403,163371,765498.0,759471.0,767516.0,761484.0,60
2,0,1,0,0,40,test,1,1,z,Mon Jan 20 2025 16:37:16 GMT-0600 (Central Standard Time),785339.5,O,z,1348,61,1,83.bmp,-120,-120,84.bmp,120,-120,85.bmp,-120,120,86.bmp,120,120,9400.59999999404,775938.900000006,7039,yes,SM,C,84.bmp,120,-120,167385,161360,169403,163371,774912.0,768894.0,776931.0,770898.0,61
4,0,0,0,1,40,test,1,0,z,Mon Jan 20 2025 16:37:16 GMT-0600 (Central Standard Time),794786.2000000179,O,m,1384,62,1,91.bmp,-120,-120,92.bmp,120,-120,93.bmp,-120,120,94.bmp,120,120,9443.700000017881,785342.5,7039,yes,SM,C,94.bmp,120,120,167385,161360,169403,163371,784326.0,778298.0,786343.0,780312.0,62
1,1,0,0,0,41,test,1,1,m,Mon Jan 20 2025 16:37:16 GMT-0600 (Central Standard Time),804083.3000000119,O,m,1241,63,1,95.bmp,-120,-120,96.bmp,120,-120,97.bmp,-120,120,98.bmp,120,120,9294.0,794789.3000000119,7039,yes,SM,C,95.bmp,-120,120,167385,161360,169403,163371,793773.0,787744.0,795790.0,789759.0,63
2,0,1,0,0,41,test,1,0,z,Mon Jan 20 2025 16:37:16 GMT-0600 (Central Standard Time),813513.599999994,O,m,1367,64,1,99.bmp,-120,-120,100.bmp,120,-120,62.bmp,-120,120,51.bmp,120,120,9427.399999976158,804086.2000000179,7039,yes,SM,C,100.bmp,120,-120,167385,161360,169403,163371,803070.0,797041.0,805088.0,799056.0,64
4,0,0,0,1,42,test,1,1,m,Mon Jan 20 2025 16:37:16 GMT-0600 (Central Standard Time),823477.3000000119,O,m,1905,65,1,52.bmp,-120,-120,53.bmp,120,-120,54.bmp,-120,120,55.bmp,120,120,9960.5,813516.8000000119,7039,yes,SM,C,54.bmp,120,120,167385,161360,169403,163371,812501.0,806472.0,814518.0,808486.0,65
3,0,0,1,0,43,test,1,1,m,Mon Jan 20 2025 16:37:16 GMT-0600 (Central Standard Time),833507.5,O,m,1973,66,1,56.bmp,-120,-120,57.bmp,120,-120,58.bmp,-120,120,59.bmp,120,120,10027.199999988079,823480.3000000119,7039,yes,SM,C,59.bmp,-120,120,167385,161360,169403,163371,822464.0,816435.0,824481.0,818450.0,66
2,0,1,0,0,44,test,1,1,m,Mon Jan 20 2025 16:37:16 GMT-0600 (Central Standard Time),843404.3000000119,O,m,1839,67,1,87.bmp,-120,-120,88.bmp,120,-120,89.bmp,-120,120,90.bmp,120,120,9892.800000011921,833511.5,7039,yes,SM,C,89.bmp,120,-120,167385,161360,169403,163371,832494.0,826467.0,834512.0,828480.0,67
3,0,0,1,0,44,test,1,0,z,Mon Jan 20 2025 16:37:16 GMT-0600 (Central Standard Time),853184.900000006,O,m,1719,68,1,60.bmp,-120,-120,61.bmp,120,-120,62.bmp,-120,120,63.bmp,120,120,9777.800000011921,843407.099999994,7039,yes,SM,C,62.bmp,-120,120,167385,161360,169403,163371,842391.0,836362.0,844408.0,838377.0,68
1,1,0,0,0,45,test,1,1,m,Mon Jan 20 2025 16:37:16 GMT-0600 (Central Standard Time),862398.400000006,O,m,1162,69,1,64.bmp,-120,-120,65.bmp,120,-120,66.bmp,-120,120,67.bmp,120,120,9209.90000000596,853188.5,7039,yes,SM,C,65.bmp,-120,-120,167385,161360,169403,163371,852171.0,846144.0,854189.0,848157.0,69
2,0,1,0,0,46,test,1,1,m,Mon Jan 20 2025 16:37:16 GMT-0600 (Central Standard Time),871962.099999994,O,m,1508,70,1,68.bmp,-120,-120,69.bmp,120,-120,70.bmp,-120,120,71.bmp,120,120,9560.299999982119,862401.8000000119,7039,yes,SM,C,70.bmp,120,-120,167385,161360,169403,163371,861385.0,855357.0,863403.0,857371.0,70
4,0,0,0,1,46,test,1,0,z,Mon Jan 20 2025 16:37:16 GMT-0600 (Central Standard Time),881642.5,O,m,1625,71,1,72.bmp,-120,-120,73.bmp,120,-120,74.bmp,-120,120,75.bmp,120,120,9676.90000000596,871965.599999994,7039,yes,SM,C,75.bmp,120,120,167385,161360,169403,163371,870949.0,864921.0,872966.0,866934.0,71
1,1,0,0,0,47,test,1,1,z,Mon Jan 20 2025 16:37:16 GMT-0600 (Central Standard Time),890939.599999994,O,z,1240,72,1,76.bmp,-120,-120,77.bmp,120,-120,78.bmp,-120,120,79.bmp,120,120,9294.09999999404,881645.5,7039,yes,SM,C,76.bmp,-120,-120,167385,161360,169403,163371,880629.0,874601.0,882647.0,876615.0,72
2,0,1,0,0,47,test,1,0,z,Mon Jan 20 2025 16:37:16 GMT-0600 (Central Standard Time),900586.400000006,O,m,1591,73,1,80.bmp,-120,-120,81.bmp,120,-120,82.bmp,-120,120,83.bmp,120,120,9643.59999999404,890942.8000000119,7039,yes,SM,C,81.bmp,120,-120,167385,161360,169403,163371,889926.0,883898.0,891944.0,885912.0,73
4,0,0,0,1,48,test,1,1,m,Mon Jan 20 2025 16:37:16 GMT-0600 (Central Standard Time),910466.8000000119,O,m,1824,74,1,84.bmp,-120,-120,85.bmp,120,-120,86.bmp,-120,120,87.bmp,120,120,9877.40000000596,900589.400000006,7039,yes,SM,C,86.bmp,120,120,167385,161360,169403,163371,899573.0,893545.0,901591.0,895559.0,74
2,0,1,0,0,49,test,1,1,m,Mon Jan 20 2025 16:37:16 GMT-0600 (Central Standard Time),919813.900000006,O,m,1288,75,1,88.bmp,-120,-120,89.bmp,120,-120,90.bmp,-120,120,91.bmp,120,120,9344.0,910469.900000006,7039,yes,SM,C,91.bmp,120,-120,167385,161360,169403,163371,909453.0,903425.0,911471.0,905439.0,75
1,1,0,0,0,50,test,1,1,z,Mon Jan 20 2025 16:37:16 GMT-0600 (Central Standard Time),929194.3000000119,O,z,1317,76,1,92.bmp,-120,-120,93.bmp,120,-120,94.bmp,-120,120,95.bmp,120,120,9376.800000011921,919817.5,7039,yes,SM,C,92.bmp,-120,-120,167385,161360,169403,163371,918801.0,912773.0,920818.0,914786.0,76
3,0,0,1,0,51,test,1,1,z,Mon Jan 20 2025 16:37:16 GMT-0600 (Central Standard Time),939224.400000006,O,z,1969,77,1,100.bmp,-120,-120,61.bmp,120,-120,51.bmp,-120,120,52.bmp,120,120,10026.199999988079,929198.2000000179,7039,yes,SM,C,51.bmp,-120,120,167385,161360,169403,163371,928181.0,922153.0,930198.0,924167.0,77
1,1,0,0,0,52,test,1,1,m,Mon Jan 20 2025 16:37:16 GMT-0600 (Central Standard Time),948871.3000000119,O,m,1594,78,1,96.bmp,-120,-120,97.bmp,120,-120,98.bmp,-120,120,99.bmp,120,120,9643.200000017881,939228.099999994,7039,yes,SM,C,97.bmp,-120,-120,167385,161360,169403,163371,938211.0,932183.0,940229.0,934197.0,78
4,0,0,0,1,52,test,1,0,m,Mon Jan 20 2025 16:37:16 GMT-0600 (Central Standard Time),958801.7000000179,O,z,1875,79,1,57.bmp,-120,-120,58.bmp,120,-120,59.bmp,-120,120,60.bmp,120,120,9922.200000017881,948879.5,7039,yes,SM,C,57.bmp,120,120,167385,161360,169403,163371,947858.0,941835.0,949876.0,943844.0,79
3,0,0,1,0,53,test,1,1,m,Mon Jan 20 2025 16:37:16 GMT-0600 (Central Standard Time),968298.7000000179,O,m,1441,80,1,53.bmp,-120,-120,54.bmp,120,-120,55.bmp,-120,120,56.bmp,120,120,9493.200000017881,958805.5,7039,yes,SM,C,56.bmp,-120,120,167385,161360,169403,163371,957788.0,951761.0,959806.0,953774.0,80
