acc_sum,block,block_c,change,condition,correct,correct_response,datetime,endtime,face,project,response,response_time,row_sel,session_number,start_end,starttime,subject_id,task,task_vers,trial
0,prac,1,,1-Back,,,Thu Apr 03 2025 15:57:22 GMT-0500 (Central Daylight Time),,012_o_f_d_a.png,O,space,6291,1,1,,,7110,VNB,C,0
1,prac,1,0.0,1-Back,1,m,Thu Apr 03 2025 15:57:22 GMT-0500 (Central Daylight Time),129315.5,022_y_f_n_a.png,O,m,1679,2,1,2572.0,126743.5,7110,VNB,C,1
2,prac,1,0.0,1-Back,1,m,Thu Apr 03 2025 15:57:22 GMT-0500 (Central Daylight Time),131582.19999999553,014_m_m_h_a.png,O,m,1407,3,1,2256.89999999851,129325.29999999702,7110,VNB,C,2
3,prac,1,0.0,1-Back,1,m,Thu Apr 03 2025 15:57:22 GMT-0500 (Central Daylight Time),133529.09999999404,025_y_m_d_a.png,O,m,1070,4,1,1936.7999999970198,131592.29999999702,7110,VNB,C,3
4,prac,1,0.0,1-Back,1,m,Thu Apr 03 2025 15:57:22 GMT-0500 (Central Daylight Time),135545.8999999985,012_o_f_n_a.png,O,m,1138,5,1,2007.3999999985099,133538.5,7110,VNB,C,4
5,prac,1,1.0,1-Back,1,z,Thu Apr 03 2025 15:57:22 GMT-0500 (Central Daylight Time),137246.19999999553,025_y_m_n_a.png,O,z,839,6,1,1692.7999999970198,135553.3999999985,7110,VNB,C,5
6,prac,1,0.0,1-Back,1,m,Thu Apr 03 2025 15:57:22 GMT-0500 (Central Daylight Time),139213.59999999404,015_o_m_h_a.png,O,m,1078,7,1,1957.3999999985099,137256.19999999553,7110,VNB,C,6
7,prac,1,0.0,1-Back,1,m,Thu Apr 03 2025 15:57:22 GMT-0500 (Central Daylight Time),141146.69999999553,019_m_f_d_a.png,O,m,1047,8,1,1924.2999999970198,139222.3999999985,7110,VNB,C,7
8,prac,1,1.0,1-Back,1,z,Thu Apr 03 2025 15:57:22 GMT-0500 (Central Daylight Time),143359.0,022_y_f_d_a.png,O,z,1308,9,1,2208.3000000044703,141150.69999999553,7110,VNB,C,8
9,prac,1,0.0,1-Back,1,m,Thu Apr 03 2025 15:57:22 GMT-0500 (Central Daylight Time),145292.0,014_m_m_n_a.png,O,m,1070,10,1,1924.0,143368.0,7110,VNB,C,9
10,prac,1,0.0,1-Back,1,m,Thu Apr 03 2025 15:57:22 GMT-0500 (Central Daylight Time),147241.69999999553,012_o_f_h_a.png,O,m,1074,11,1,1941.8999999985099,145299.79999999702,7110,VNB,C,10
11,prac,1,0.0,1-Back,1,m,Thu Apr 03 2025 15:57:22 GMT-0500 (Central Daylight Time),149108.79999999702,025_y_m_d_a.png,O,m,997,12,1,1856.2999999970198,147252.5,7110,VNB,C,11
0,test,1,0.0,1-Back,,,Thu Apr 03 2025 15:57:22 GMT-0500 (Central Daylight Time),149108.79999999702,022_y_f_d_a.png,O,space,8075,1,1,1856.2999999970198,147252.5,7110,VNB,C,0
1,test,1,0.0,1-Back,1,m,Thu Apr 03 2025 15:57:22 GMT-0500 (Central Daylight Time),166237.79999999702,019_m_f_n_a.png,O,m,884,2,1,1893.3999999985099,164344.3999999985,7110,VNB,C,1
2,test,1,0.0,1-Back,1,m,Thu Apr 03 2025 15:57:22 GMT-0500 (Central Daylight Time),168068.8999999985,015_o_m_h_a.png,O,m,807,3,1,1824.0,166244.8999999985,7110,VNB,C,2
3,test,1,1.0,1-Back,1,z,Thu Apr 03 2025 15:57:22 GMT-0500 (Central Daylight Time),169735.0,014_m_m_h_a.png,O,z,648,4,1,1658.6000000014901,168076.3999999985,7110,VNB,C,3
4,test,1,0.0,1-Back,1,m,Thu Apr 03 2025 15:57:22 GMT-0500 (Central Daylight Time),171518.09999999404,012_o_f_n_a.png,O,m,767,5,1,1775.5,169742.59999999404,7110,VNB,C,4
5,test,1,0.0,1-Back,1,m,Thu Apr 03 2025 15:57:22 GMT-0500 (Central Daylight Time),173502.69999999553,025_y_m_d_a.png,O,m,969,6,1,1976.6999999955297,171526.0,7110,VNB,C,5
6,test,1,1.0,1-Back,1,z,Thu Apr 03 2025 15:57:22 GMT-0500 (Central Daylight Time),175183.59999999404,019_m_f_d_a.png,O,z,654,7,1,1673.3999999985099,173510.19999999553,7110,VNB,C,6
7,test,1,0.0,1-Back,1,m,Thu Apr 03 2025 15:57:22 GMT-0500 (Central Daylight Time),176881.79999999702,022_y_f_h_a.png,O,m,676,8,1,1688.7000000029802,175193.09999999404,7110,VNB,C,7
8,test,1,0.0,1-Back,1,m,Thu Apr 03 2025 15:57:22 GMT-0500 (Central Daylight Time),178949.8999999985,015_o_m_n_a.png,O,m,1032,9,1,2061.7000000029802,176888.19999999553,7110,VNB,C,8
9,test,1,0.0,1-Back,1,m,Thu Apr 03 2025 15:57:22 GMT-0500 (Central Daylight Time),180948.19999999553,025_y_m_h_a.png,O,m,965,10,1,1989.7999999970198,178958.3999999985,7110,VNB,C,9
10,test,1,0.0,1-Back,1,m,Thu Apr 03 2025 15:57:22 GMT-0500 (Central Daylight Time),182797.19999999553,015_o_m_d_a.png,O,m,822,11,1,1841.0,180956.19999999553,7110,VNB,C,10
11,test,1,1.0,1-Back,1,z,Thu Apr 03 2025 15:57:22 GMT-0500 (Central Daylight Time),184631.19999999553,012_o_f_d_a.png,O,z,816,12,1,1824.2999999970198,182806.8999999985,7110,VNB,C,11
12,test,1,0.0,1-Back,1,m,Thu Apr 03 2025 15:57:22 GMT-0500 (Central Daylight Time),186380.09999999404,014_m_m_n_a.png,O,m,725,13,1,1740.2999999970198,184639.79999999702,7110,VNB,C,12
12,test,1,1.0,1-Back,0,z,Thu Apr 03 2025 15:57:22 GMT-0500 (Central Daylight Time),188213.19999999553,022_y_f_n_a.png,O,m,815,14,1,1825.8999999985099,186387.29999999702,7110,VNB,C,13
13,test,1,0.0,1-Back,1,m,Thu Apr 03 2025 15:57:22 GMT-0500 (Central Daylight Time),190228.09999999404,019_m_f_h_a.png,O,m,992,15,1,2011.6999999955297,188216.3999999985,7110,VNB,C,14
14,test,1,0.0,1-Back,1,m,Thu Apr 03 2025 15:57:22 GMT-0500 (Central Daylight Time),192194.0,014_m_m_d_a.png,O,m,933,16,1,1960.3000000044703,190233.69999999553,7110,VNB,C,15
15,test,1,0.0,1-Back,1,m,Thu Apr 03 2025 15:57:22 GMT-0500 (Central Daylight Time),194510.8999999985,025_y_m_n_a.png,O,m,1297,17,1,2311.10000000149,192199.79999999702,7110,VNB,C,16
16,test,1,0.0,1-Back,1,m,Thu Apr 03 2025 15:57:22 GMT-0500 (Central Daylight Time),196558.5,012_o_f_h_a.png,O,m,1020,18,1,2041.5,194517.0,7110,VNB,C,17
0,test,2,0.0,1-Back,,,Thu Apr 03 2025 15:57:22 GMT-0500 (Central Daylight Time),196558.5,025_y_m_n_a.png,O,space,2093,1,1,2041.5,194517.0,7110,VNB,C,0
1,test,2,0.0,1-Back,1,m,Thu Apr 03 2025 15:57:22 GMT-0500 (Central Daylight Time),202573.79999999702,022_y_f_h_a.png,O,m,881,2,1,1891.8999999985099,200681.8999999985,7110,VNB,C,1
2,test,2,1.0,1-Back,1,m,Thu Apr 03 2025 15:57:22 GMT-0500 (Central Daylight Time),204474.29999999702,015_o_m_n_a.png,O,m,876,3,1,1893.7999999970198,202580.5,7110,VNB,C,2
3,test,2,0.0,1-Back,1,m,Thu Apr 03 2025 15:57:22 GMT-0500 (Central Daylight Time),206622.8999999985,019_m_f_d_a.png,O,m,1121,4,1,2140.7000000029802,204482.19999999553,7110,VNB,C,3
4,test,2,0.0,1-Back,1,z,Thu Apr 03 2025 15:57:22 GMT-0500 (Central Daylight Time),208688.8999999985,014_m_m_d_a.png,O,z,1043,5,1,2057.3000000044703,206631.59999999404,7110,VNB,C,4
5,test,2,0.0,1-Back,1,m,Thu Apr 03 2025 15:57:22 GMT-0500 (Central Daylight Time),210454.8999999985,025_y_m_h_a.png,O,m,736,6,1,1756.8999999985099,208698.0,7110,VNB,C,5
6,test,2,1.0,1-Back,1,z,Thu Apr 03 2025 15:57:22 GMT-0500 (Central Daylight Time),212404.19999999553,012_o_f_h_a.png,O,z,931,7,1,1941.5,210462.69999999553,7110,VNB,C,6
7,test,2,0.0,1-Back,1,m,Thu Apr 03 2025 15:57:22 GMT-0500 (Central Daylight Time),214303.3999999985,019_m_f_n_a.png,O,m,871,8,1,1893.1000000014901,212410.29999999702,7110,VNB,C,7
8,test,2,0.0,1-Back,1,m,Thu Apr 03 2025 15:57:22 GMT-0500 (Central Daylight Time),216204.59999999404,022_y_f_d_a.png,O,m,883,9,1,1892.0999999940395,214312.5,7110,VNB,C,8
9,test,2,0.0,1-Back,1,m,Thu Apr 03 2025 15:57:22 GMT-0500 (Central Daylight Time),218052.0,014_m_m_n_a.png,O,m,823,10,1,1841.6000000014901,216210.3999999985,7110,VNB,C,9
9,test,2,1.0,1-Back,0,m,Thu Apr 03 2025 15:57:22 GMT-0500 (Central Daylight Time),220136.5,019_m_f_h_a.png,O,z,1054,11,1,2078.5,218058.0,7110,VNB,C,10
10,test,2,0.0,1-Back,1,z,Thu Apr 03 2025 15:57:22 GMT-0500 (Central Daylight Time),222135.0,015_o_m_h_a.png,O,z,970,12,1,1983.1000000014901,220151.8999999985,7110,VNB,C,11
11,test,2,0.0,1-Back,1,m,Thu Apr 03 2025 15:57:22 GMT-0500 (Central Daylight Time),223867.79999999702,025_y_m_d_a.png,O,m,700,13,1,1725.1000000014901,222142.69999999553,7110,VNB,C,12
12,test,2,0.0,1-Back,1,m,Thu Apr 03 2025 15:57:22 GMT-0500 (Central Daylight Time),225666.69999999553,012_o_f_n_a.png,O,m,775,14,1,1793.2999999970198,223873.3999999985,7110,VNB,C,13
13,test,2,0.0,1-Back,1,z,Thu Apr 03 2025 15:57:22 GMT-0500 (Central Daylight Time),227864.59999999404,022_y_f_n_a.png,O,z,1176,15,1,2190.0999999940395,225674.5,7110,VNB,C,14
14,test,2,1.0,1-Back,1,m,Thu Apr 03 2025 15:57:22 GMT-0500 (Central Daylight Time),229882.09999999404,014_m_m_h_a.png,O,m,992,16,1,2010.8999999985099,227871.19999999553,7110,VNB,C,15
15,test,2,0.0,1-Back,1,m,Thu Apr 03 2025 15:57:22 GMT-0500 (Central Daylight Time),231948.19999999553,012_o_f_d_a.png,O,m,1040,17,1,2058.6999999955297,229889.5,7110,VNB,C,16
15,test,2,1.0,1-Back,0,z,Thu Apr 03 2025 15:57:22 GMT-0500 (Central Daylight Time),233932.09999999404,015_o_m_d_a.png,O,m,952,18,1,1976.7999999970198,231955.29999999702,7110,VNB,C,17
0,test,3,1.0,1-Back,,,Thu Apr 03 2025 15:57:22 GMT-0500 (Central Daylight Time),233932.09999999404,012_o_f_h_a.png,O,space,1222,1,1,1976.7999999970198,231955.29999999702,7110,VNB,C,0
1,test,3,0.0,1-Back,1,m,Thu Apr 03 2025 15:57:22 GMT-0500 (Central Daylight Time),239279.5,019_m_f_d_a.png,O,m,939,2,1,1958.0,237321.5,7110,VNB,C,1
2,test,3,1.0,1-Back,1,m,Thu Apr 03 2025 15:57:22 GMT-0500 (Central Daylight Time),241195.59999999404,014_m_m_n_a.png,O,m,891,3,1,1908.6999999955297,239286.8999999985,7110,VNB,C,2
3,test,3,0.0,1-Back,1,z,Thu Apr 03 2025 15:57:22 GMT-0500 (Central Daylight Time),242795.19999999553,012_o_f_n_a.png,O,z,575,4,1,1592.7999999970198,241202.3999999985,7110,VNB,C,3
4,test,3,1.0,1-Back,1,m,Thu Apr 03 2025 15:57:22 GMT-0500 (Central Daylight Time),244494.69999999553,015_o_m_d_a.png,O,m,680,5,1,1694.2999999970198,242800.3999999985,7110,VNB,C,4
5,test,3,0.0,1-Back,1,m,Thu Apr 03 2025 15:57:22 GMT-0500 (Central Daylight Time),246461.29999999702,022_y_f_h_a.png,O,m,941,6,1,1959.7000000029802,244501.59999999404,7110,VNB,C,5
6,test,3,0.0,1-Back,1,z,Thu Apr 03 2025 15:57:22 GMT-0500 (Central Daylight Time),248461.09999999404,025_y_m_h_a.png,O,z,984,7,1,1993.0,246468.09999999404,7110,VNB,C,6
7,test,3,0.0,1-Back,1,m,Thu Apr 03 2025 15:57:22 GMT-0500 (Central Daylight Time),250009.09999999404,019_m_f_n_a.png,O,m,528,8,1,1541.1999999955297,248467.8999999985,7110,VNB,C,7
8,test,3,0.0,1-Back,1,m,Thu Apr 03 2025 15:57:22 GMT-0500 (Central Daylight Time),251924.69999999553,022_y_f_d_a.png,O,m,881,9,1,1908.0,250016.69999999553,7110,VNB,C,8
9,test,3,1.0,1-Back,1,m,Thu Apr 03 2025 15:57:22 GMT-0500 (Central Daylight Time),253875.0,015_o_m_n_a.png,O,m,923,10,1,1941.5,251933.5,7110,VNB,C,9
10,test,3,0.0,1-Back,1,m,Thu Apr 03 2025 15:57:22 GMT-0500 (Central Daylight Time),255893.0,014_m_m_h_a.png,O,m,983,11,1,2009.9000000059605,253883.09999999404,7110,VNB,C,10
11,test,3,0.0,1-Back,1,z,Thu Apr 03 2025 15:57:22 GMT-0500 (Central Daylight Time),257456.3999999985,019_m_f_h_a.png,O,z,536,12,1,1555.1000000014901,255901.29999999702,7110,VNB,C,11
12,test,3,1.0,1-Back,1,m,Thu Apr 03 2025 15:57:22 GMT-0500 (Central Daylight Time),259022.0,012_o_f_d_a.png,O,m,537,13,1,1558.9000000059605,257463.09999999404,7110,VNB,C,12
12,test,3,0.0,1-Back,0,z,Thu Apr 03 2025 15:57:22 GMT-0500 (Central Daylight Time),260990.3999999985,014_m_m_d_a.png,O,m,939,14,1,1960.8999999985099,259029.5,7110,VNB,C,13
13,test,3,0.0,1-Back,1,m,Thu Apr 03 2025 15:57:22 GMT-0500 (Central Daylight Time),263222.19999999553,025_y_m_n_a.png,O,m,1206,15,1,2225.5,260996.69999999553,7110,VNB,C,14
14,test,3,1.0,1-Back,1,m,Thu Apr 03 2025 15:57:22 GMT-0500 (Central Daylight Time),265137.799999997,015_o_m_h_a.png,O,m,885,16,1,1908.2000000029802,263229.59999999404,7110,VNB,C,15
15,test,3,0.0,1-Back,1,m,Thu Apr 03 2025 15:57:22 GMT-0500 (Central Daylight Time),267153.3999999985,025_y_m_d_a.png,O,m,993,17,1,2007.1000000014901,265146.299999997,7110,VNB,C,16
16,test,3,1.0,1-Back,1,m,Thu Apr 03 2025 15:57:22 GMT-0500 (Central Daylight Time),269171.8999999985,022_y_f_n_a.png,O,m,993,18,1,2010.8999999985099,267161.0,7110,VNB,C,17
0,test,4,1.0,1-Back,,,Thu Apr 03 2025 15:57:22 GMT-0500 (Central Daylight Time),269171.8999999985,014_m_m_d_a.png,O,space,1167,1,1,2010.8999999985099,267161.0,7110,VNB,C,0
1,test,4,0.0,1-Back,1,z,Thu Apr 03 2025 15:57:22 GMT-0500 (Central Daylight Time),274584.3999999985,015_o_m_d_a.png,O,z,1195,2,1,2207.7000000029802,272376.69999999553,7110,VNB,C,1
2,test,4,0.0,1-Back,1,m,Thu Apr 03 2025 15:57:22 GMT-0500 (Central Daylight Time),276365.8999999985,025_y_m_h_a.png,O,m,754,3,1,1775.5,274590.3999999985,7110,VNB,C,2
3,test,4,0.0,1-Back,1,m,Thu Apr 03 2025 15:57:22 GMT-0500 (Central Daylight Time),278234.19999999553,019_m_f_n_a.png,O,m,836,4,1,1861.6000000014901,276372.59999999404,7110,VNB,C,3
4,test,4,1.0,1-Back,1,m,Thu Apr 03 2025 15:57:22 GMT-0500 (Central Daylight Time),280351.8999999985,012_o_f_h_a.png,O,m,1102,5,1,2112.2000000029802,278239.69999999553,7110,VNB,C,4
5,test,4,0.0,1-Back,1,m,Thu Apr 03 2025 15:57:22 GMT-0500 (Central Daylight Time),282250.299999997,014_m_m_n_a.png,O,m,868,6,1,1892.3999999985099,280357.8999999985,7110,VNB,C,5
6,test,4,0.0,1-Back,1,m,Thu Apr 03 2025 15:57:22 GMT-0500 (Central Daylight Time),284131.0,025_y_m_d_a.png,O,m,858,7,1,1877.7000000029802,282253.299999997,7110,VNB,C,6
7,test,4,1.0,1-Back,1,z,Thu Apr 03 2025 15:57:22 GMT-0500 (Central Daylight Time),286180.69999999553,022_y_f_d_a.png,O,z,1022,8,1,2042.3999999985099,284138.299999997,7110,VNB,C,7
8,test,4,0.0,1-Back,1,m,Thu Apr 03 2025 15:57:22 GMT-0500 (Central Daylight Time),288379.799999997,019_m_f_h_a.png,O,m,1174,9,1,2192.10000000149,286187.69999999553,7110,VNB,C,8
9,test,4,0.0,1-Back,1,z,Thu Apr 03 2025 15:57:22 GMT-0500 (Central Daylight Time),290079.299999997,015_o_m_h_a.png,O,z,671,10,1,1696.0,288383.299999997,7110,VNB,C,9
10,test,4,1.0,1-Back,1,m,Thu Apr 03 2025 15:57:22 GMT-0500 (Central Daylight Time),291763.69999999553,012_o_f_n_a.png,O,m,651,11,1,1676.7999999970198,290086.8999999985,7110,VNB,C,10
11,test,4,0.0,1-Back,1,m,Thu Apr 03 2025 15:57:22 GMT-0500 (Central Daylight Time),293727.799999997,019_m_f_d_a.png,O,m,936,12,1,1957.1000000014901,291770.69999999553,7110,VNB,C,11
12,test,4,0.0,1-Back,1,m,Thu Apr 03 2025 15:57:22 GMT-0500 (Central Daylight Time),295694.3999999985,022_y_f_n_a.png,O,m,949,13,1,1960.1000000014901,293734.299999997,7110,VNB,C,12
13,test,4,0.0,1-Back,1,m,Thu Apr 03 2025 15:57:22 GMT-0500 (Central Daylight Time),297743.59999999404,012_o_f_d_a.png,O,m,1019,14,1,2041.5,295702.09999999404,7110,VNB,C,13
14,test,4,0.0,1-Back,1,m,Thu Apr 03 2025 15:57:22 GMT-0500 (Central Daylight Time),299810.0,022_y_f_h_a.png,O,m,1043,15,1,2060.2000000029802,297749.799999997,7110,VNB,C,14
15,test,4,1.0,1-Back,1,z,Thu Apr 03 2025 15:57:22 GMT-0500 (Central Daylight Time),301976.09999999404,014_m_m_h_a.png,O,z,1147,16,1,2158.5,299817.59999999404,7110,VNB,C,15
16,test,4,0.0,1-Back,1,m,Thu Apr 03 2025 15:57:22 GMT-0500 (Central Daylight Time),303658.799999997,015_o_m_n_a.png,O,m,660,17,1,1675.8999999985099,301982.8999999985,7110,VNB,C,16
16,test,4,1.0,1-Back,0,z,Thu Apr 03 2025 15:57:22 GMT-0500 (Central Daylight Time),305425.69999999553,025_y_m_n_a.png,O,m,736,18,1,1759.3999999985099,303666.299999997,7110,VNB,C,17
0,test,5,1.0,1-Back,,,Thu Apr 03 2025 15:57:22 GMT-0500 (Central Daylight Time),305425.69999999553,015_o_m_n_a.png,O,space,938,1,1,1759.3999999985099,303666.299999997,7110,VNB,C,0
1,test,5,1.0,1-Back,1,m,Thu Apr 03 2025 15:57:22 GMT-0500 (Central Daylight Time),310207.0,012_o_f_h_a.png,O,m,790,2,1,1810.0,308397.0,7110,VNB,C,1
2,test,5,0.0,1-Back,1,m,Thu Apr 03 2025 15:57:22 GMT-0500 (Central Daylight Time),312255.69999999553,025_y_m_d_a.png,O,m,1020,3,1,2041.7999999970198,310213.8999999985,7110,VNB,C,2
2,test,5,0.0,1-Back,0,z,Thu Apr 03 2025 15:57:22 GMT-0500 (Central Daylight Time),314256.0,015_o_m_d_a.png,O,m,983,4,1,1993.5,312262.5,7110,VNB,C,3
2,test,5,0.0,1-Back,0,m,Thu Apr 03 2025 15:57:22 GMT-0500 (Central Daylight Time),316054.19999999553,019_m_f_h_a.png,O,z,779,5,1,1792.0,314262.19999999553,7110,VNB,C,4
3,test,5,0.0,1-Back,1,m,Thu Apr 03 2025 15:57:22 GMT-0500 (Central Daylight Time),318189.19999999553,022_y_f_n_a.png,O,m,1116,6,1,2125.39999999851,316063.799999997,7110,VNB,C,5
4,test,5,1.0,1-Back,1,z,Thu Apr 03 2025 15:57:22 GMT-0500 (Central Daylight Time),320170.09999999404,012_o_f_n_a.png,O,z,959,7,1,1973.3999999985099,318196.69999999553,7110,VNB,C,6
5,test,5,0.0,1-Back,1,m,Thu Apr 03 2025 15:57:22 GMT-0500 (Central Daylight Time),322136.3999999985,019_m_f_d_a.png,O,m,943,8,1,1960.3999999985099,320176.0,7110,VNB,C,7
6,test,5,0.0,1-Back,1,m,Thu Apr 03 2025 15:57:22 GMT-0500 (Central Daylight Time),324185.69999999553,025_y_m_h_a.png,O,m,1017,9,1,2042.6999999955297,322143.0,7110,VNB,C,8
7,test,5,0.0,1-Back,1,m,Thu Apr 03 2025 15:57:22 GMT-0500 (Central Daylight Time),326168.799999997,022_y_f_d_a.png,O,m,963,10,1,1976.0,324192.799999997,7110,VNB,C,9
8,test,5,0.0,1-Back,1,m,Thu Apr 03 2025 15:57:22 GMT-0500 (Central Daylight Time),328219.59999999404,014_m_m_n_a.png,O,m,1027,11,1,2044.5,326175.09999999404,7110,VNB,C,10
8,test,5,1.0,1-Back,0,z,Thu Apr 03 2025 15:57:22 GMT-0500 (Central Daylight Time),330050.3999999985,019_m_f_n_a.png,O,m,800,12,1,1823.8999999985099,328226.5,7110,VNB,C,11
9,test,5,0.0,1-Back,1,m,Thu Apr 03 2025 15:57:22 GMT-0500 (Central Daylight Time),332001.09999999404,015_o_m_h_a.png,O,m,920,13,1,1943.6999999955297,330057.3999999985,7110,VNB,C,12
10,test,5,0.0,1-Back,1,z,Thu Apr 03 2025 15:57:22 GMT-0500 (Central Daylight Time),333849.299999997,014_m_m_h_a.png,O,z,828,14,1,1841.6000000014901,332007.69999999553,7110,VNB,C,13
11,test,5,1.0,1-Back,1,m,Thu Apr 03 2025 15:57:22 GMT-0500 (Central Daylight Time),335718.19999999553,012_o_f_d_a.png,O,m,853,15,1,1861.1000000014901,333857.09999999404,7110,VNB,C,14
12,test,5,0.0,1-Back,1,m,Thu Apr 03 2025 15:57:22 GMT-0500 (Central Daylight Time),337548.09999999404,025_y_m_n_a.png,O,m,809,16,1,1822.1999999955297,335725.8999999985,7110,VNB,C,15
13,test,5,0.0,1-Back,1,m,Thu Apr 03 2025 15:57:22 GMT-0500 (Central Daylight Time),339614.799999997,022_y_f_h_a.png,O,m,1048,17,1,2062.10000000149,337552.69999999553,7110,VNB,C,16
14,test,5,0.0,1-Back,1,m,Thu Apr 03 2025 15:57:22 GMT-0500 (Central Daylight Time),341696.69999999553,014_m_m_d_a.png,O,m,1060,18,1,2073.89999999851,339622.799999997,7110,VNB,C,17
0,prac,1,0.0,2-Back,,,Thu Apr 03 2025 15:57:22 GMT-0500 (Central Daylight Time),341696.69999999553,019_m_f_n_a.png,O,space,4341,1,1,2073.89999999851,339622.799999997,7110,VNB,C,0
0,prac,1,0.0,2-Back,,,Thu Apr 03 2025 15:57:22 GMT-0500 (Central Daylight Time),341696.69999999553,012_o_f_h_a.png,O,space,4341,2,1,2073.89999999851,339622.799999997,7110,VNB,C,0
1,prac,1,0.0,2-Back,1,m,Thu Apr 03 2025 15:57:22 GMT-0500 (Central Daylight Time),435451.09999999404,015_o_m_d_a.png,O,m,1273,3,1,2156.0,433295.09999999404,7110,VNB,C,1
2,prac,1,1.0,2-Back,1,z,Thu Apr 03 2025 15:57:22 GMT-0500 (Central Daylight Time),437284.299999997,014_m_m_h_a.png,O,z,958,4,1,1824.2000000029802,435460.09999999404,7110,VNB,C,2
3,prac,1,0.0,2-Back,1,m,Thu Apr 03 2025 15:57:22 GMT-0500 (Central Daylight Time),439065.799999997,022_y_f_n_a.png,O,m,881,5,1,1771.6000000014901,437294.19999999553,7110,VNB,C,3
4,prac,1,1.0,2-Back,1,z,Thu Apr 03 2025 15:57:22 GMT-0500 (Central Daylight Time),440833.09999999404,015_o_m_h_a.png,O,z,976,6,1,1757.5999999940395,439075.5,7110,VNB,C,4
5,prac,1,1.0,2-Back,1,z,Thu Apr 03 2025 15:57:22 GMT-0500 (Central Daylight Time),443114.59999999404,025_y_m_n_a.png,O,z,1404,7,1,2273.0,440841.59999999404,7110,VNB,C,5
6,prac,1,0.0,2-Back,1,m,Thu Apr 03 2025 15:57:22 GMT-0500 (Central Daylight Time),445098.69999999553,019_m_f_d_a.png,O,m,1105,8,1,1975.6000000014901,443123.09999999404,7110,VNB,C,6
6,prac,1,0.0,2-Back,0,m,Thu Apr 03 2025 15:57:22 GMT-0500 (Central Daylight Time),447579.8999999985,012_o_f_d_a.png,O,z,1604,9,1,2473.8000000044703,445106.09999999404,7110,VNB,C,7
6,prac,1,0.0,2-Back,0,m,Thu Apr 03 2025 15:57:22 GMT-0500 (Central Daylight Time),449530.0,014_m_m_h_a.png,O,z,1158,10,1,1940.0,447590.0,7110,VNB,C,8
6,prac,1,1.0,2-Back,0,z,Thu Apr 03 2025 15:57:22 GMT-0500 (Central Daylight Time),451296.799999997,022_y_f_d_a.png,O,m,877,11,1,1757.8999999985099,449538.8999999985,7110,VNB,C,9
7,prac,1,0.0,2-Back,1,m,Thu Apr 03 2025 15:57:22 GMT-0500 (Central Daylight Time),453462.3999999985,015_o_m_n_a.png,O,m,1263,12,1,2155.8000000044703,451306.59999999404,7110,VNB,C,10
0,test,1,0.0,2-Back,,,Thu Apr 03 2025 15:57:22 GMT-0500 (Central Daylight Time),453462.3999999985,025_y_m_h_a.png,O,space,5229,1,1,2155.8000000044703,451306.59999999404,7110,VNB,C,0
0,test,1,0.0,2-Back,,,Thu Apr 03 2025 15:57:22 GMT-0500 (Central Daylight Time),453462.3999999985,012_o_f_n_a.png,O,space,5229,2,1,2155.8000000044703,451306.59999999404,7110,VNB,C,0
1,test,1,0.0,2-Back,1,z,Thu Apr 03 2025 15:57:22 GMT-0500 (Central Daylight Time),471671.59999999404,015_o_m_h_a.png,O,z,1006,3,1,2021.6999999955297,469649.8999999985,7110,VNB,C,1
2,test,1,0.0,2-Back,1,m,Thu Apr 03 2025 15:57:22 GMT-0500 (Central Daylight Time),473854.19999999553,019_m_f_d_a.png,O,m,1164,4,1,2175.6999999955297,471678.5,7110,VNB,C,2
3,test,1,1.0,2-Back,1,m,Thu Apr 03 2025 15:57:22 GMT-0500 (Central Daylight Time),475922.5,025_y_m_n_a.png,O,m,1036,5,1,2063.10000000149,473859.3999999985,7110,VNB,C,3
3,test,1,0.0,2-Back,0,z,Thu Apr 03 2025 15:57:22 GMT-0500 (Central Daylight Time),478237.59999999404,022_y_f_d_a.png,O,m,1300,6,1,2306.7999999970198,475930.799999997,7110,VNB,C,4
3,test,1,0.0,2-Back,0,m,Thu Apr 03 2025 15:57:22 GMT-0500 (Central Daylight Time),480069.19999999553,014_m_m_h_a.png,O,z,806,7,1,1824.0,478245.19999999553,7110,VNB,C,5
4,test,1,1.0,2-Back,1,m,Thu Apr 03 2025 15:57:22 GMT-0500 (Central Daylight Time),482184.799999997,022_y_f_n_a.png,O,m,1085,8,1,2107.10000000149,480077.69999999553,7110,VNB,C,6
5,test,1,0.0,2-Back,1,z,Thu Apr 03 2025 15:57:22 GMT-0500 (Central Daylight Time),484203.5,012_o_f_h_a.png,O,z,984,9,1,2015.0,482188.5,7110,VNB,C,7
6,test,1,0.0,2-Back,1,m,Thu Apr 03 2025 15:57:22 GMT-0500 (Central Daylight Time),486584.09999999404,015_o_m_d_a.png,O,m,1364,10,1,2374.5,484209.59999999404,7110,VNB,C,8
7,test,1,1.0,2-Back,1,m,Thu Apr 03 2025 15:57:22 GMT-0500 (Central Daylight Time),489083.799999997,014_m_m_d_a.png,O,m,1466,11,1,2490.0,486593.799999997,7110,VNB,C,9
8,test,1,0.0,2-Back,1,m,Thu Apr 03 2025 15:57:22 GMT-0500 (Central Daylight Time),491099.5,019_m_f_n_a.png,O,m,991,12,1,2007.4000000059605,489092.09999999404,7110,VNB,C,10
8,test,1,0.0,2-Back,0,m,Thu Apr 03 2025 15:57:22 GMT-0500 (Central Daylight Time),493199.19999999553,022_y_f_h_a.png,O,z,1071,13,1,2091.89999999851,491107.299999997,7110,VNB,C,11
8,test,1,0.0,2-Back,0,z,Thu Apr 03 2025 15:57:22 GMT-0500 (Central Daylight Time),495149.3999999985,014_m_m_n_a.png,O,m,925,14,1,1941.3000000044703,493208.09999999404,7110,VNB,C,12
9,test,1,0.0,2-Back,1,m,Thu Apr 03 2025 15:57:22 GMT-0500 (Central Daylight Time),496981.3999999985,025_y_m_d_a.png,O,m,806,15,1,1824.3000000044703,495157.09999999404,7110,VNB,C,13
9,test,1,1.0,2-Back,0,m,Thu Apr 03 2025 15:57:22 GMT-0500 (Central Daylight Time),498998.299999997,019_m_f_h_a.png,O,z,999,16,1,2008.2000000029802,496990.09999999404,7110,VNB,C,14
9,test,1,0.0,2-Back,0,z,Thu Apr 03 2025 15:57:22 GMT-0500 (Central Daylight Time),501029.69999999553,012_o_f_d_a.png,O,m,1007,17,1,2025.8999999985099,499003.799999997,7110,VNB,C,15
10,test,1,0.0,2-Back,1,m,Thu Apr 03 2025 15:57:22 GMT-0500 (Central Daylight Time),503062.3999999985,015_o_m_n_a.png,O,m,1004,18,1,2024.8000000044703,501037.59999999404,7110,VNB,C,16
0,test,2,0.0,2-Back,,,Thu Apr 03 2025 15:57:22 GMT-0500 (Central Daylight Time),503062.3999999985,014_m_m_h_a.png,O,space,1148,1,1,2024.8000000044703,501037.59999999404,7110,VNB,C,0
0,test,2,0.0,2-Back,,,Thu Apr 03 2025 15:57:22 GMT-0500 (Central Daylight Time),503062.3999999985,022_y_f_n_a.png,O,space,1148,2,1,2024.8000000044703,501037.59999999404,7110,VNB,C,0
1,test,2,1.0,2-Back,1,z,Thu Apr 03 2025 15:57:22 GMT-0500 (Central Daylight Time),511261.69999999553,012_o_f_h_a.png,O,z,774,3,1,1791.6999999955297,509470.0,7110,VNB,C,1
1,test,2,0.0,2-Back,0,m,Thu Apr 03 2025 15:57:22 GMT-0500 (Central Daylight Time),513175.799999997,015_o_m_d_a.png,O,z,887,4,1,1905.8999999985099,511269.8999999985,7110,VNB,C,2
2,test,2,0.0,2-Back,1,m,Thu Apr 03 2025 15:57:22 GMT-0500 (Central Daylight Time),515409.8999999985,019_m_f_d_a.png,O,m,1204,5,1,2227.2000000029802,513182.69999999553,7110,VNB,C,3
2,test,2,0.0,2-Back,0,m,Thu Apr 03 2025 15:57:22 GMT-0500 (Central Daylight Time),517142.69999999553,025_y_m_h_a.png,O,z,716,6,1,1726.2999999970198,515416.3999999985,7110,VNB,C,4
3,test,2,0.0,2-Back,1,m,Thu Apr 03 2025 15:57:22 GMT-0500 (Central Daylight Time),519342.799999997,012_o_f_n_a.png,O,m,1184,7,1,2194.39999999851,517148.3999999985,7110,VNB,C,5
4,test,2,1.0,2-Back,1,z,Thu Apr 03 2025 15:57:22 GMT-0500 (Central Daylight Time),521023.09999999404,015_o_m_h_a.png,O,z,665,8,1,1676.0999999940395,519347.0,7110,VNB,C,6
5,test,2,0.0,2-Back,1,m,Thu Apr 03 2025 15:57:22 GMT-0500 (Central Daylight Time),522955.19999999553,022_y_f_d_a.png,O,m,908,9,1,1925.6000000014901,521029.59999999404,7110,VNB,C,7
6,test,2,0.0,2-Back,1,m,Thu Apr 03 2025 15:57:22 GMT-0500 (Central Daylight Time),525270.799999997,025_y_m_d_a.png,O,m,1295,10,1,2307.7000000029802,522963.09999999404,7110,VNB,C,8
7,test,2,0.0,2-Back,1,m,Thu Apr 03 2025 15:57:22 GMT-0500 (Central Daylight Time),527205.0,014_m_m_n_a.png,O,m,901,11,1,1930.8000000044703,525274.1999999955,7110,VNB,C,9
8,test,2,0.0,2-Back,1,m,Thu Apr 03 2025 15:57:22 GMT-0500 (Central Daylight Time),529370.299999997,019_m_f_h_a.png,O,m,1143,12,1,2159.39999999851,527210.8999999985,7110,VNB,C,10
9,test,2,1.0,2-Back,1,z,Thu Apr 03 2025 15:57:22 GMT-0500 (Central Daylight Time),531469.799999997,015_o_m_n_a.png,O,z,1072,13,1,2091.5,529378.299999997,7110,VNB,C,11
10,test,2,0.0,2-Back,1,m,Thu Apr 03 2025 15:57:22 GMT-0500 (Central Daylight Time),533503.6999999955,012_o_f_d_a.png,O,m,1005,14,1,2027.0,531476.6999999955,7110,VNB,C,12
11,test,2,0.0,2-Back,1,m,Thu Apr 03 2025 15:57:22 GMT-0500 (Central Daylight Time),536184.3999999985,022_y_f_h_a.png,O,m,1661,15,1,2674.5,533509.8999999985,7110,VNB,C,13
12,test,2,0.0,2-Back,1,z,Thu Apr 03 2025 15:57:22 GMT-0500 (Central Daylight Time),537882.599999994,014_m_m_d_a.png,O,z,674,16,1,1692.6999999955297,536189.8999999985,7110,VNB,C,14
13,test,2,0.0,2-Back,1,m,Thu Apr 03 2025 15:57:22 GMT-0500 (Central Daylight Time),540067.0,025_y_m_n_a.png,O,m,1159,17,1,2177.4000000059605,537889.599999994,7110,VNB,C,15
14,test,2,1.0,2-Back,1,m,Thu Apr 03 2025 15:57:22 GMT-0500 (Central Daylight Time),542484.599999994,019_m_f_n_a.png,O,m,1399,18,1,2409.6999999955297,540074.8999999985,7110,VNB,C,16
0,test,3,1.0,2-Back,,,Thu Apr 03 2025 15:57:22 GMT-0500 (Central Daylight Time),542484.599999994,015_o_m_n_a.png,O,space,991,1,1,2409.6999999955297,540074.8999999985,7110,VNB,C,0
0,test,3,1.0,2-Back,,,Thu Apr 03 2025 15:57:22 GMT-0500 (Central Daylight Time),542484.599999994,012_o_f_d_a.png,O,space,991,2,1,2409.6999999955297,540074.8999999985,7110,VNB,C,0
1,test,3,0.0,2-Back,1,m,Thu Apr 03 2025 15:57:22 GMT-0500 (Central Daylight Time),550479.799999997,022_y_f_h_a.png,O,m,930,3,1,1939.6000000014901,548540.1999999955,7110,VNB,C,1
2,test,3,0.0,2-Back,1,z,Thu Apr 03 2025 15:57:22 GMT-0500 (Central Daylight Time),552363.5,019_m_f_d_a.png,O,z,859,4,1,1875.8000000044703,550487.6999999955,7110,VNB,C,2
2,test,3,1.0,2-Back,0,m,Thu Apr 03 2025 15:57:22 GMT-0500 (Central Daylight Time),554645.3999999985,025_y_m_n_a.png,O,z,1256,5,1,2276.10000000149,552369.299999997,7110,VNB,C,3
3,test,3,0.0,2-Back,1,m,Thu Apr 03 2025 15:57:22 GMT-0500 (Central Daylight Time),556646.5,015_o_m_h_a.png,O,m,983,6,1,1992.8000000044703,554653.6999999955,7110,VNB,C,4
4,test,3,0.0,2-Back,1,z,Thu Apr 03 2025 15:57:22 GMT-0500 (Central Daylight Time),558510.8999999985,022_y_f_n_a.png,O,z,847,7,1,1857.1000000014901,556653.799999997,7110,VNB,C,5
4,test,3,1.0,2-Back,0,m,Thu Apr 03 2025 15:57:22 GMT-0500 (Central Daylight Time),560777.0,014_m_m_d_a.png,O,z,1245,8,1,2258.3000000044703,558518.6999999955,7110,VNB,C,6
5,test,3,0.0,2-Back,1,m,Thu Apr 03 2025 15:57:22 GMT-0500 (Central Daylight Time),562926.299999997,025_y_m_d_a.png,O,m,1121,9,1,2142.0,560784.299999997,7110,VNB,C,7
5,test,3,0.0,2-Back,0,m,Thu Apr 03 2025 15:57:22 GMT-0500 (Central Daylight Time),565025.299999997,012_o_f_h_a.png,O,z,1068,10,1,2089.5,562935.799999997,7110,VNB,C,8
6,test,3,1.0,2-Back,1,m,Thu Apr 03 2025 15:57:22 GMT-0500 (Central Daylight Time),566958.6999999955,019_m_f_n_a.png,O,m,906,11,1,1925.3999999985099,565033.299999997,7110,VNB,C,9
7,test,3,1.0,2-Back,1,z,Thu Apr 03 2025 15:57:22 GMT-0500 (Central Daylight Time),569558.099999994,014_m_m_h_a.png,O,z,1573,12,1,2592.1999999955297,566965.8999999985,7110,VNB,C,10
8,test,3,0.0,2-Back,1,m,Thu Apr 03 2025 15:57:22 GMT-0500 (Central Daylight Time),571440.599999994,022_y_f_d_a.png,O,m,852,13,1,1874.7999999970198,569565.799999997,7110,VNB,C,11
8,test,3,0.0,2-Back,0,m,Thu Apr 03 2025 15:57:22 GMT-0500 (Central Daylight Time),574157.299999997,012_o_f_n_a.png,O,z,1683,14,1,2711.7999999970198,571445.5,7110,VNB,C,12
8,test,3,0.0,2-Back,0,z,Thu Apr 03 2025 15:57:22 GMT-0500 (Central Daylight Time),575989.799999997,015_o_m_d_a.png,O,m,816,15,1,1827.2000000029802,574162.599999994,7110,VNB,C,13
8,test,3,1.0,2-Back,0,m,Thu Apr 03 2025 15:57:22 GMT-0500 (Central Daylight Time),579022.299999997,019_m_f_h_a.png,O,None,2015,16,1,3026.0,575996.299999997,7110,VNB,C,14
8,test,3,0.0,2-Back,0,m,Thu Apr 03 2025 15:57:22 GMT-0500 (Central Daylight Time),580870.799999997,014_m_m_n_a.png,O,z,816,17,1,1839.8999999985099,579030.8999999985,7110,VNB,C,15
9,test,3,0.0,2-Back,1,z,Thu Apr 03 2025 15:57:22 GMT-0500 (Central Daylight Time),582803.0,025_y_m_h_a.png,O,z,902,18,1,1924.2000000029802,580878.799999997,7110,VNB,C,16
0,test,4,0.0,2-Back,,,Thu Apr 03 2025 15:57:22 GMT-0500 (Central Daylight Time),582803.0,019_m_f_n_a.png,O,space,1208,1,1,1924.2000000029802,580878.799999997,7110,VNB,C,0
0,test,4,0.0,2-Back,,,Thu Apr 03 2025 15:57:22 GMT-0500 (Central Daylight Time),582803.0,015_o_m_n_a.png,O,space,1208,2,1,1924.2000000029802,580878.799999997,7110,VNB,C,0
1,test,4,1.0,2-Back,1,m,Thu Apr 03 2025 15:57:22 GMT-0500 (Central Daylight Time),591300.8999999985,025_y_m_h_a.png,O,m,988,3,1,2009.0,589291.8999999985,7110,VNB,C,1
2,test,4,1.0,2-Back,1,m,Thu Apr 03 2025 15:57:22 GMT-0500 (Central Daylight Time),593268.0,012_o_f_d_a.png,O,m,934,4,1,1959.7000000029802,591308.299999997,7110,VNB,C,2
2,test,4,0.0,2-Back,0,z,Thu Apr 03 2025 15:57:22 GMT-0500 (Central Daylight Time),595465.099999994,015_o_m_h_a.png,O,m,1176,5,1,2190.5,593274.599999994,7110,VNB,C,3
2,test,4,0.0,2-Back,0,m,Thu Apr 03 2025 15:57:22 GMT-0500 (Central Daylight Time),597199.0,014_m_m_n_a.png,O,z,704,6,1,1726.9000000059605,595472.099999994,7110,VNB,C,4
2,test,4,0.0,2-Back,0,m,Thu Apr 03 2025 15:57:22 GMT-0500 (Central Daylight Time),599533.599999994,019_m_f_d_a.png,O,z,1317,7,1,2326.5,597207.099999994,7110,VNB,C,5
3,test,4,0.0,2-Back,1,z,Thu Apr 03 2025 15:57:22 GMT-0500 (Central Daylight Time),601731.299999997,022_y_f_n_a.png,O,z,1177,8,1,2191.2000000029802,599540.099999994,7110,VNB,C,6
4,test,4,1.0,2-Back,1,m,Thu Apr 03 2025 15:57:22 GMT-0500 (Central Daylight Time),604013.0,012_o_f_h_a.png,O,m,1257,9,1,2274.8000000044703,601738.1999999955,7110,VNB,C,7
4,test,4,0.0,2-Back,0,m,Thu Apr 03 2025 15:57:22 GMT-0500 (Central Daylight Time),605963.1999999955,014_m_m_h_a.png,O,z,917,10,1,1943.0,604020.1999999955,7110,VNB,C,8
5,test,4,0.0,2-Back,1,m,Thu Apr 03 2025 15:57:22 GMT-0500 (Central Daylight Time),608029.599999994,022_y_f_d_a.png,O,m,1041,11,1,2057.39999999851,605972.1999999955,7110,VNB,C,9
5,test,4,0.0,2-Back,0,m,Thu Apr 03 2025 15:57:22 GMT-0500 (Central Daylight Time),609879.0,025_y_m_n_a.png,O,z,832,12,1,1841.4000000059605,608037.599999994,7110,VNB,C,10
5,test,4,0.0,2-Back,0,z,Thu Apr 03 2025 15:57:22 GMT-0500 (Central Daylight Time),611675.3999999985,015_o_m_d_a.png,O,m,780,13,1,1789.1000000014901,609886.299999997,7110,VNB,C,11
6,test,4,1.0,2-Back,1,m,Thu Apr 03 2025 15:57:22 GMT-0500 (Central Daylight Time),613393.8999999985,019_m_f_h_a.png,O,m,696,14,1,1715.5,611678.3999999985,7110,VNB,C,12
6,test,4,1.0,2-Back,0,m,Thu Apr 03 2025 15:57:22 GMT-0500 (Central Daylight Time),615659.3999999985,022_y_f_h_a.png,O,z,1242,15,1,2257.60000000149,613401.799999997,7110,VNB,C,13
6,test,4,0.0,2-Back,0,m,Thu Apr 03 2025 15:57:22 GMT-0500 (Central Daylight Time),617992.8999999985,012_o_f_n_a.png,O,z,1315,16,1,2325.0,615667.8999999985,7110,VNB,C,14
7,test,4,0.0,2-Back,1,m,Thu Apr 03 2025 15:57:22 GMT-0500 (Central Daylight Time),619840.799999997,025_y_m_d_a.png,O,m,819,17,1,1840.2000000029802,618000.599999994,7110,VNB,C,15
8,test,4,1.0,2-Back,1,m,Thu Apr 03 2025 15:57:22 GMT-0500 (Central Daylight Time),622657.1999999955,014_m_m_d_a.png,O,m,1792,18,1,2807.39999999851,619849.799999997,7110,VNB,C,16
0,test,5,1.0,2-Back,,,Thu Apr 03 2025 15:57:22 GMT-0500 (Central Daylight Time),622657.1999999955,022_y_f_d_a.png,O,space,1382,1,1,2807.39999999851,619849.799999997,7110,VNB,C,0
0,test,5,1.0,2-Back,,,Thu Apr 03 2025 15:57:22 GMT-0500 (Central Daylight Time),622657.1999999955,012_o_f_h_a.png,O,space,1382,2,1,2807.39999999851,619849.799999997,7110,VNB,C,0
1,test,5,1.0,2-Back,1,z,Thu Apr 03 2025 15:57:22 GMT-0500 (Central Daylight Time),631370.799999997,015_o_m_d_a.png,O,z,1059,3,1,2074.5,629296.299999997,7110,VNB,C,1
2,test,5,1.0,2-Back,1,m,Thu Apr 03 2025 15:57:22 GMT-0500 (Central Daylight Time),633238.6999999955,019_m_f_n_a.png,O,m,849,4,1,1859.7999999970198,631378.8999999985,7110,VNB,C,2
3,test,5,0.0,2-Back,1,m,Thu Apr 03 2025 15:57:22 GMT-0500 (Central Daylight Time),635271.099999994,014_m_m_h_a.png,O,m,1016,5,1,2025.2999999970198,633245.799999997,7110,VNB,C,3
4,test,5,0.0,2-Back,1,z,Thu Apr 03 2025 15:57:22 GMT-0500 (Central Daylight Time),637118.0,022_y_f_n_a.png,O,z,819,6,1,1842.8000000044703,635275.1999999955,7110,VNB,C,4
4,test,5,0.0,2-Back,0,m,Thu Apr 03 2025 15:57:22 GMT-0500 (Central Daylight Time),639201.299999997,012_o_f_d_a.png,O,z,1051,7,1,2077.10000000149,637124.1999999955,7110,VNB,C,5
5,test,5,0.0,2-Back,1,m,Thu Apr 03 2025 15:57:22 GMT-0500 (Central Daylight Time),641201.099999994,015_o_m_h_a.png,O,m,975,8,1,1994.0999999940395,639207.0,7110,VNB,C,6
6,test,5,1.0,2-Back,1,z,Thu Apr 03 2025 15:57:22 GMT-0500 (Central Daylight Time),643349.6999999955,019_m_f_d_a.png,O,z,1121,9,1,2142.7999999970198,641206.8999999985,7110,VNB,C,7
7,test,5,0.0,2-Back,1,m,Thu Apr 03 2025 15:57:22 GMT-0500 (Central Daylight Time),645251.0,025_y_m_n_a.png,O,m,876,10,1,1894.9000000059605,643356.099999994,7110,VNB,C,8
8,test,5,0.0,2-Back,1,m,Thu Apr 03 2025 15:57:22 GMT-0500 (Central Daylight Time),647517.599999994,014_m_m_n_a.png,O,m,1248,11,1,2261.1999999955297,645256.3999999985,7110,VNB,C,9
8,test,5,0.0,2-Back,0,m,Thu Apr 03 2025 15:57:22 GMT-0500 (Central Daylight Time),649682.099999994,022_y_f_h_a.png,O,z,1134,12,1,2159.0999999940395,647523.0,7110,VNB,C,10
8,test,5,0.0,2-Back,0,m,Thu Apr 03 2025 15:57:22 GMT-0500 (Central Daylight Time),651865.099999994,025_y_m_d_a.png,O,z,1152,13,1,2175.5,649689.599999994,7110,VNB,C,11
8,test,5,1.0,2-Back,0,z,Thu Apr 03 2025 15:57:22 GMT-0500 (Central Daylight Time),653515.299999997,019_m_f_h_a.png,O,m,629,14,1,1643.8999999985099,651871.3999999985,7110,VNB,C,12
9,test,5,0.0,2-Back,1,m,Thu Apr 03 2025 15:57:22 GMT-0500 (Central Daylight Time),655496.1999999955,015_o_m_n_a.png,O,m,961,15,1,1976.6000000014901,653519.599999994,7110,VNB,C,13
10,test,5,0.0,2-Back,1,m,Thu Apr 03 2025 15:57:22 GMT-0500 (Central Daylight Time),657612.5,014_m_m_d_a.png,O,m,1092,16,1,2111.8000000044703,655500.6999999955,7110,VNB,C,14
11,test,5,0.0,2-Back,1,z,Thu Apr 03 2025 15:57:22 GMT-0500 (Central Daylight Time),659495.099999994,012_o_f_n_a.png,O,z,863,17,1,1876.6999999955297,657618.3999999985,7110,VNB,C,15
12,test,5,1.0,2-Back,1,m,Thu Apr 03 2025 15:57:22 GMT-0500 (Central Daylight Time),661576.5,025_y_m_h_a.png,O,m,1049,18,1,2073.8000000044703,659502.6999999955,7110,VNB,C,16
