block_c,block_dur,condition,countdown,datetime,endtime,list,multichar_response,project,response,response_time,session_number,start_end,starttime,subject_id,task,task_vers,trial
,,,,Fri Apr 04 2025 14:03:06 GMT-0500 (Central Daylight Time),,,,O,space,723,1,,,7097,WL,B,
prac,,0,,Fri Apr 04 2025 14:03:06 GMT-0500 (Central Daylight Time),,NA,b,O,b,2437,1,,,7097,WL,B,1.0
prac,,0,,Fri Apr 04 2025 14:03:06 GMT-0500 (Central Daylight Time),,NA,bo,O,o,519,1,,,7097,WL,B,1.0
prac,,0,,Fri Apr 04 2025 14:03:06 GMT-0500 (Central Daylight Time),,NA,boo,O,o,147,1,,,7097,WL,B,1.0
prac,,0,,Fri Apr 04 2025 14:03:06 GMT-0500 (Central Daylight Time),,NA,boos,O,s,116,1,,,7097,WL,B,1.0
prac,,0,,Fri Apr 04 2025 14:03:06 GMT-0500 (Central Daylight Time),,NA,boost,O,t,183,1,,,7097,WL,B,1.0
prac,,0,,Fri Apr 04 2025 14:03:06 GMT-0500 (Central Daylight Time),,NA,boostenter,O,enter,1959,1,,,7097,WL,B,1.0
1,0.682999849319458,learn,59317.00015068054,Fri Apr 04 2025 14:03:06 GMT-0500 (Central Daylight Time),128737.90000003576,A,g,O,g,637,1,682.3000000119209,128055.60000002384,7097,WL,B,1.0
1,0.9169998168945312,learn,59083.00018310547,Fri Apr 04 2025 14:03:06 GMT-0500 (Central Daylight Time),128971.20000004768,A,gr,O,r,191,1,915.6000000238419,128055.60000002384,7097,WL,B,1.0
1,1.0829999446868896,learn,58917.00005531311,Fri Apr 04 2025 14:03:06 GMT-0500 (Central Daylight Time),129137.20000004768,A,gra,O,a,130,1,1081.6000000238419,128055.60000002384,7097,WL,B,1.0
1,1.3489999771118164,learn,58651.00002288818,Fri Apr 04 2025 14:03:06 GMT-0500 (Central Daylight Time),129403.90000003576,A,gras,O,s,228,1,1348.300000011921,128055.60000002384,7097,WL,B,1.0
1,1.5329999923706055,learn,58467.000007629395,Fri Apr 04 2025 14:03:06 GMT-0500 (Central Daylight Time),129587.0,A,grass,O,s,138,1,1531.3999999761581,128055.60000002384,7097,WL,B,1.0
1,6.312999963760376,learn,53687.000036239624,Fri Apr 04 2025 14:03:06 GMT-0500 (Central Daylight Time),134367.90000003576,A,grassenter,O,enter,4738,1,6312.300000011921,128055.60000002384,7097,WL,B,1.0
1,6.898000001907349,learn,53101.99999809265,Fri Apr 04 2025 14:03:06 GMT-0500 (Central Daylight Time),134952.0,A,s,O,s,572,1,583.5999999642372,134368.40000003576,7097,WL,B,2.0
1,7.130999803543091,learn,52869.00019645691,Fri Apr 04 2025 14:03:06 GMT-0500 (Central Daylight Time),135185.10000002384,A,st,O,t,198,1,816.6999999880791,134368.40000003576,7097,WL,B,2.0
1,7.480999946594238,learn,52519.00005340576,Fri Apr 04 2025 14:03:06 GMT-0500 (Central Daylight Time),135535.10000002384,A,str,O,r,314,1,1166.699999988079,134368.40000003576,7097,WL,B,2.0
1,7.596999883651733,learn,52403.00011634827,Fri Apr 04 2025 14:03:06 GMT-0500 (Central Daylight Time),135651.60000002384,A,stre,O,e,72,1,1283.199999988079,134368.40000003576,7097,WL,B,2.0
1,7.813999891281128,learn,52186.00010871887,Fri Apr 04 2025 14:03:06 GMT-0500 (Central Daylight Time),135868.80000001192,A,stree,O,e,185,1,1500.3999999761581,134368.40000003576,7097,WL,B,2.0
1,8.480999946594238,learn,51519.00005340576,Fri Apr 04 2025 14:03:06 GMT-0500 (Central Daylight Time),136535.0,A,street,O,t,626,1,2166.599999964237,134368.40000003576,7097,WL,B,2.0
1,8.812999963760376,learn,51187.000036239624,Fri Apr 04 2025 14:03:06 GMT-0500 (Central Daylight Time),136867.10000002384,A,streetenter,O,enter,298,1,2498.699999988079,134368.40000003576,7097,WL,B,2.0
1,9.096999883651733,learn,50903.00011634827,Fri Apr 04 2025 14:03:06 GMT-0500 (Central Daylight Time),137151.10000002384,A,d,O,d,274,1,283.60000002384186,136867.5,7097,WL,B,3.0
1,9.21399998664856,learn,50786.00001335144,Fri Apr 04 2025 14:03:06 GMT-0500 (Central Daylight Time),137268.80000001192,A,do,O,o,88,1,401.30000001192093,136867.5,7097,WL,B,3.0
1,9.379999876022339,learn,50620.00012397766,Fri Apr 04 2025 14:03:06 GMT-0500 (Central Daylight Time),137434.5,A,doo,O,o,121,1,567.0,136867.5,7097,WL,B,3.0
1,9.496999979019165,learn,50503.000020980835,Fri Apr 04 2025 14:03:06 GMT-0500 (Central Daylight Time),137551.20000004768,A,door,O,r,80,1,683.7000000476837,136867.5,7097,WL,B,3.0
1,9.928999900817871,learn,50071.00009918213,Fri Apr 04 2025 14:03:06 GMT-0500 (Central Daylight Time),137983.40000003576,A,doorenter,O,enter,400,1,1115.9000000357628,136867.5,7097,WL,B,3.0
1,10.27899980545044,learn,49721.00019454956,Fri Apr 04 2025 14:03:06 GMT-0500 (Central Daylight Time),138333.90000003576,A,a,O,a,334,1,350.19999998807907,137983.70000004768,7097,WL,B,4.0
1,10.411999940872192,learn,49588.00005912781,Fri Apr 04 2025 14:03:06 GMT-0500 (Central Daylight Time),138466.40000003576,A,ar,O,r,97,1,482.69999998807907,137983.70000004768,7097,WL,B,4.0
1,10.628999948501587,learn,49371.00005149841,Fri Apr 04 2025 14:03:06 GMT-0500 (Central Daylight Time),138683.60000002384,A,arm,O,m,201,1,699.8999999761581,137983.70000004768,7097,WL,B,4.0
1,10.861999988555908,learn,49138.00001144409,Fri Apr 04 2025 14:03:06 GMT-0500 (Central Daylight Time),138916.40000003576,A,armenter,O,enter,208,1,932.6999999880791,137983.70000004768,7097,WL,B,4.0
1,11.128999948501587,learn,48871.00005149841,Fri Apr 04 2025 14:03:06 GMT-0500 (Central Daylight Time),139183.90000003576,A,w,O,w,257,1,267.19999998807907,138916.70000004768,7097,WL,B,5.0
1,11.345999956130981,learn,48654.00004386902,Fri Apr 04 2025 14:03:06 GMT-0500 (Central Daylight Time),139400.70000004768,A,wi,O,i,176,1,484.0,138916.70000004768,7097,WL,B,5.0
1,11.595999956130981,learn,48404.00004386902,Fri Apr 04 2025 14:03:06 GMT-0500 (Central Daylight Time),139650.60000002384,A,win,O,n,207,1,733.8999999761581,138916.70000004768,7097,WL,B,5.0
1,11.727999925613403,learn,48272.0000743866,Fri Apr 04 2025 14:03:06 GMT-0500 (Central Daylight Time),139782.90000003576,A,wind,O,d,93,1,866.1999999880791,138916.70000004768,7097,WL,B,5.0
1,11.894999980926514,learn,48105.000019073486,Fri Apr 04 2025 14:03:06 GMT-0500 (Central Daylight Time),139949.20000004768,A,windo,O,o,147,1,1032.5,138916.70000004768,7097,WL,B,5.0
1,12.145999908447266,learn,47854.000091552734,Fri Apr 04 2025 14:03:06 GMT-0500 (Central Daylight Time),140200.30000001192,A,window,O,w,239,1,1283.5999999642372,138916.70000004768,7097,WL,B,5.0
1,12.411999940872192,learn,47588.00005912781,Fri Apr 04 2025 14:03:06 GMT-0500 (Central Daylight Time),140466.0,A,windowenter,O,enter,226,1,1549.2999999523163,138916.70000004768,7097,WL,B,5.0
1,12.578999996185303,learn,47421.0000038147,Fri Apr 04 2025 14:03:06 GMT-0500 (Central Daylight Time),140633.5,A,w,O,w,155,1,167.29999995231628,140466.20000004768,7097,WL,B,6.0
1,12.763000011444092,learn,47236.99998855591,Fri Apr 04 2025 14:03:06 GMT-0500 (Central Daylight Time),140817.0,A,wi,O,i,142,1,350.7999999523163,140466.20000004768,7097,WL,B,6.0
1,12.961999893188477,learn,47038.00010681152,Fri Apr 04 2025 14:03:06 GMT-0500 (Central Daylight Time),141016.70000004768,A,wif,O,f,159,1,550.5,140466.20000004768,7097,WL,B,6.0
1,13.128999948501587,learn,46871.00005149841,Fri Apr 04 2025 14:03:06 GMT-0500 (Central Daylight Time),141183.30000001192,A,wife,O,e,135,1,717.0999999642372,140466.20000004768,7097,WL,B,6.0
1,13.727999925613403,learn,46272.0000743866,Fri Apr 04 2025 14:03:06 GMT-0500 (Central Daylight Time),141782.20000004768,A,wifeenter,O,enter,563,1,1316.0,140466.20000004768,7097,WL,B,6.0
1,14.34500002861023,learn,45654.99997138977,Fri Apr 04 2025 14:03:06 GMT-0500 (Central Daylight Time),142399.60000002384,A,f,O,f,606,1,617.1000000238419,141782.5,7097,WL,B,7.0
1,14.628000020980835,learn,45371.999979019165,Fri Apr 04 2025 14:03:06 GMT-0500 (Central Daylight Time),142682.70000004768,A,fi,O,i,248,1,900.2000000476837,141782.5,7097,WL,B,7.0
1,14.878000020980835,learn,45121.999979019165,Fri Apr 04 2025 14:03:06 GMT-0500 (Central Daylight Time),142932.70000004768,A,fir,O,r,223,1,1150.2000000476837,141782.5,7097,WL,B,7.0
1,15.027999877929688,learn,44972.00012207031,Fri Apr 04 2025 14:03:06 GMT-0500 (Central Daylight Time),143082.80000001192,A,fire,O,e,118,1,1300.300000011921,141782.5,7097,WL,B,7.0
1,15.510999917984009,learn,44489.00008201599,Fri Apr 04 2025 14:03:06 GMT-0500 (Central Daylight Time),143564.90000003576,A,fireenter,O,enter,452,1,1782.4000000357628,141782.5,7097,WL,B,7.0
1,16.67799997329712,learn,43322.00002670288,Fri Apr 04 2025 14:03:06 GMT-0500 (Central Daylight Time),144732.20000004768,A,c,O,c,1145,1,1167.0,143565.20000004768,7097,WL,B,8.0
1,16.878000020980835,learn,43121.999979019165,Fri Apr 04 2025 14:03:06 GMT-0500 (Central Daylight Time),144932.0,A,ca,O,a,157,1,1366.7999999523163,143565.20000004768,7097,WL,B,8.0
1,16.99399995803833,learn,43006.00004196167,Fri Apr 04 2025 14:03:06 GMT-0500 (Central Daylight Time),145048.70000004768,A,cab,O,b,85,1,1483.5,143565.20000004768,7097,WL,B,8.0
1,17.110999822616577,learn,42889.00017738342,Fri Apr 04 2025 14:03:06 GMT-0500 (Central Daylight Time),145165.10000002384,A,cabi,O,i,81,1,1599.8999999761581,143565.20000004768,7097,WL,B,8.0
1,17.32699990272522,learn,42673.00009727478,Fri Apr 04 2025 14:03:06 GMT-0500 (Central Daylight Time),145381.70000004768,A,cabin,O,n,189,1,1816.5,143565.20000004768,7097,WL,B,8.0
1,17.759999990463257,learn,42240.00000953674,Fri Apr 04 2025 14:03:06 GMT-0500 (Central Daylight Time),145814.10000002384,A,cabinenter,O,enter,404,1,2248.899999976158,143565.20000004768,7097,WL,B,8.0
1,18.07699990272522,learn,41923.00009727478,Fri Apr 04 2025 14:03:06 GMT-0500 (Central Daylight Time),146132.0,A,l,O,l,294,1,317.5999999642372,145814.40000003576,7097,WL,B,9.0
1,18.325999975204468,learn,41674.00002479553,Fri Apr 04 2025 14:03:06 GMT-0500 (Central Daylight Time),146380.90000003576,A,la,O,a,213,1,566.5,145814.40000003576,7097,WL,B,9.0
1,18.676999807357788,learn,41323.00019264221,Fri Apr 04 2025 14:03:06 GMT-0500 (Central Daylight Time),146731.60000002384,A,lak,O,k,328,1,917.1999999880791,145814.40000003576,7097,WL,B,9.0
1,19.07699990272522,learn,40923.00009727478,Fri Apr 04 2025 14:03:06 GMT-0500 (Central Daylight Time),147131.40000003576,A,lake,O,e,358,1,1317.0,145814.40000003576,7097,WL,B,9.0
1,19.575999975204468,learn,40424.00002479553,Fri Apr 04 2025 14:03:06 GMT-0500 (Central Daylight Time),147630.20000004768,A,lakeenter,O,enter,475,1,1815.800000011921,145814.40000003576,7097,WL,B,9.0
1,24.241999864578247,learn,35758.00013542175,Fri Apr 04 2025 14:03:06 GMT-0500 (Central Daylight Time),152296.30000001192,A,f,O,f,4656,1,4665.800000011921,147630.5,7097,WL,B,10.0
1,24.408999919891357,learn,35591.00008010864,Fri Apr 04 2025 14:03:06 GMT-0500 (Central Daylight Time),152463.0,A,fi,O,i,138,1,4832.5,147630.5,7097,WL,B,10.0
1,24.54199981689453,learn,35458.00018310547,Fri Apr 04 2025 14:03:06 GMT-0500 (Central Daylight Time),152596.30000001192,A,fir,O,r,100,1,4965.800000011921,147630.5,7097,WL,B,10.0
1,24.691999912261963,learn,35308.00008773804,Fri Apr 04 2025 14:03:06 GMT-0500 (Central Daylight Time),152746.20000004768,A,fire,O,e,118,1,5115.700000047684,147630.5,7097,WL,B,10.0
1,25.174000024795532,learn,34825.99997520447,Fri Apr 04 2025 14:03:06 GMT-0500 (Central Daylight Time),153228.30000001192,A,fireenter,O,enter,455,1,5597.800000011921,147630.5,7097,WL,B,10.0
1,49.09999990463257,learn,10900.000095367432,Fri Apr 04 2025 14:03:06 GMT-0500 (Central Daylight Time),177153.90000003576,A,enter,O,enter,23904,1,23925.30000001192,153228.60000002384,7097,WL,B,11.0
1,55.81399989128113,learn,4186.000108718872,Fri Apr 04 2025 14:03:06 GMT-0500 (Central Daylight Time),183868.40000003576,A,enter,O,enter,6697,1,6714.199999988079,177154.20000004768,7097,WL,B,12.0
1,56.2979998588562,learn,3702.000141143799,Fri Apr 04 2025 14:03:06 GMT-0500 (Central Daylight Time),184351.60000002384,A,enter,O,enter,464,1,483.0,183868.60000002384,7097,WL,B,13.0
1,56.664000034332275,learn,3335.9999656677246,Fri Apr 04 2025 14:03:06 GMT-0500 (Central Daylight Time),184718.10000002384,A,enter,O,enter,357,1,366.19999998807907,184351.90000003576,7097,WL,B,14.0
1,57.013999938964844,learn,2986.0000610351562,Fri Apr 04 2025 14:03:06 GMT-0500 (Central Daylight Time),185067.80000001192,A,enter,O,enter,334,1,349.30000001192093,184718.5,7097,WL,B,15.0
2,0.6329998970031738,learn,59367.000102996826,Fri Apr 04 2025 14:03:06 GMT-0500 (Central Daylight Time),252679.70000004768,A,p,O,p,623,1,633.6000000238419,252046.10000002384,7097,WL,B,1.0
2,0.8669998645782471,learn,59133.00013542175,Fri Apr 04 2025 14:03:06 GMT-0500 (Central Daylight Time),252913.40000003576,A,pu,O,u,198,1,867.3000000119209,252046.10000002384,7097,WL,B,1.0
2,1.1659998893737793,learn,58834.00011062622,Fri Apr 04 2025 14:03:06 GMT-0500 (Central Daylight Time),253212.60000002384,A,pup,O,p,271,1,1166.5,252046.10000002384,7097,WL,B,1.0
2,1.6999998092651367,learn,58300.00019073486,Fri Apr 04 2025 14:03:06 GMT-0500 (Central Daylight Time),253746.40000003576,A,pupi,O,i,505,1,1700.300000011921,252046.10000002384,7097,WL,B,1.0
2,2.066999912261963,learn,57933.00008773804,Fri Apr 04 2025 14:03:06 GMT-0500 (Central Daylight Time),254113.0,A,pupil,O,l,327,1,2066.899999976158,252046.10000002384,7097,WL,B,1.0
2,2.8989999294281006,learn,57101.0000705719,Fri Apr 04 2025 14:03:06 GMT-0500 (Central Daylight Time),254945.0,A,pupilenter,O,enter,800,1,2898.899999976158,252046.10000002384,7097,WL,B,1.0
2,3.615999937057495,learn,56384.000062942505,Fri Apr 04 2025 14:03:06 GMT-0500 (Central Daylight Time),255662.40000003576,A,s,O,s,709,1,717.1000000238419,254945.30000001192,7097,WL,B,2.0
2,3.8329999446868896,learn,56167.00005531311,Fri Apr 04 2025 14:03:06 GMT-0500 (Central Daylight Time),255878.90000003576,A,st,O,t,180,1,933.6000000238419,254945.30000001192,7097,WL,B,2.0
2,4.08299994468689,learn,55917.00005531311,Fri Apr 04 2025 14:03:06 GMT-0500 (Central Daylight Time),256129.10000002384,A,str,O,r,219,1,1183.800000011921,254945.30000001192,7097,WL,B,2.0
2,4.148999929428101,learn,55851.0000705719,Fri Apr 04 2025 14:03:06 GMT-0500 (Central Daylight Time),256195.60000002384,A,stre,O,e,40,1,1250.300000011921,254945.30000001192,7097,WL,B,2.0
2,4.365999937057495,learn,55634.000062942505,Fri Apr 04 2025 14:03:06 GMT-0500 (Central Daylight Time),256412.70000004768,A,stree,O,e,205,1,1467.4000000357628,254945.30000001192,7097,WL,B,2.0
2,4.515999794006348,learn,55484.00020599365,Fri Apr 04 2025 14:03:06 GMT-0500 (Central Daylight Time),256562.20000004768,A,street,O,t,110,1,1616.9000000357628,254945.30000001192,7097,WL,B,2.0
2,4.9649999141693115,learn,55035.00008583069,Fri Apr 04 2025 14:03:06 GMT-0500 (Central Daylight Time),257011.0,A,streetenter,O,enter,406,1,2065.699999988079,254945.30000001192,7097,WL,B,2.0
2,5.315999984741211,learn,54684.00001525879,Fri Apr 04 2025 14:03:06 GMT-0500 (Central Daylight Time),257362.0,A,g,O,g,330,1,350.69999998807907,257011.30000001192,7097,WL,B,3.0
2,5.548999786376953,learn,54451.00021362305,Fri Apr 04 2025 14:03:06 GMT-0500 (Central Daylight Time),257595.10000002384,A,gr,O,r,190,1,583.8000000119209,257011.30000001192,7097,WL,B,3.0
2,5.698999881744385,learn,54301.000118255615,Fri Apr 04 2025 14:03:06 GMT-0500 (Central Daylight Time),257745.10000002384,A,gre,O,e,118,1,733.8000000119209,257011.30000001192,7097,WL,B,3.0
2,5.848999977111816,learn,54151.00002288818,Fri Apr 04 2025 14:03:06 GMT-0500 (Central Daylight Time),257895.0,A,grea,O,a,121,1,883.6999999880791,257011.30000001192,7097,WL,B,3.0
2,6.131999969482422,learn,53868.00003051758,Fri Apr 04 2025 14:03:06 GMT-0500 (Central Daylight Time),258178.20000004768,A,greas,O,s,251,1,1166.9000000357628,257011.30000001192,7097,WL,B,3.0
2,6.547999858856201,learn,53452.0001411438,Fri Apr 04 2025 14:03:06 GMT-0500 (Central Daylight Time),258594.70000004768,A,grea,O,backspace,382,1,1583.4000000357628,257011.30000001192,7097,WL,B,3.0
2,6.7149999141693115,learn,53285.00008583069,Fri Apr 04 2025 14:03:06 GMT-0500 (Central Daylight Time),258761.40000003576,A,gre,O,backspace,140,1,1750.1000000238419,257011.30000001192,7097,WL,B,3.0
2,6.881999969482422,learn,53118.00003051758,Fri Apr 04 2025 14:03:06 GMT-0500 (Central Daylight Time),258928.10000002384,A,gr,O,backspace,129,1,1916.800000011921,257011.30000001192,7097,WL,B,3.0
2,6.96399998664856,learn,53036.00001335144,Fri Apr 04 2025 14:03:06 GMT-0500 (Central Daylight Time),259010.10000002384,A,gra,O,a,49,1,1998.800000011921,257011.30000001192,7097,WL,B,3.0
2,7.179999828338623,learn,52820.00017166138,Fri Apr 04 2025 14:03:06 GMT-0500 (Central Daylight Time),259226.80000001192,A,gras,O,s,201,1,2215.5,257011.30000001192,7097,WL,B,3.0
2,7.364999771118164,learn,52635.000228881836,Fri Apr 04 2025 14:03:06 GMT-0500 (Central Daylight Time),259411.20000004768,A,grass,O,s,161,1,2399.900000035763,257011.30000001192,7097,WL,B,3.0
2,7.629999876022339,learn,52370.00012397766,Fri Apr 04 2025 14:03:06 GMT-0500 (Central Daylight Time),259676.80000001192,A,grassenter,O,enter,237,1,2665.5,257011.30000001192,7097,WL,B,3.0
2,7.81499981880188,learn,52185.00018119812,Fri Apr 04 2025 14:03:06 GMT-0500 (Central Daylight Time),259861.10000002384,A,d,O,d,169,1,184.10000002384186,259677.0,7097,WL,B,4.0
2,7.930999994277954,learn,52069.000005722046,Fri Apr 04 2025 14:03:06 GMT-0500 (Central Daylight Time),259976.90000003576,A,do,O,o,84,1,299.9000000357628,259677.0,7097,WL,B,4.0
2,8.097999811172485,learn,51902.000188827515,Fri Apr 04 2025 14:03:06 GMT-0500 (Central Daylight Time),260144.10000002384,A,doo,O,o,150,1,467.10000002384186,259677.0,7097,WL,B,4.0
2,8.196999788284302,learn,51803.0002117157,Fri Apr 04 2025 14:03:06 GMT-0500 (Central Daylight Time),260243.30000001192,A,door,O,r,66,1,566.3000000119209,259677.0,7097,WL,B,4.0
2,8.696999788284302,learn,51303.0002117157,Fri Apr 04 2025 14:03:06 GMT-0500 (Central Daylight Time),260743.10000002384,A,doorenter,O,enter,479,1,1066.1000000238419,259677.0,7097,WL,B,4.0
2,8.930999994277954,learn,51069.000005722046,Fri Apr 04 2025 14:03:06 GMT-0500 (Central Daylight Time),260977.40000003576,A,a,O,a,215,1,234.0,260743.40000003576,7097,WL,B,5.0
2,9.04699993133545,learn,50953.00006866455,Fri Apr 04 2025 14:03:06 GMT-0500 (Central Daylight Time),261093.70000004768,A,ar,O,r,89,1,350.30000001192093,260743.40000003576,7097,WL,B,5.0
2,9.29699993133545,learn,50703.00006866455,Fri Apr 04 2025 14:03:06 GMT-0500 (Central Daylight Time),261343.60000002384,A,arm,O,m,212,1,600.1999999880791,260743.40000003576,7097,WL,B,5.0
2,9.579999923706055,learn,50420.000076293945,Fri Apr 04 2025 14:03:06 GMT-0500 (Central Daylight Time),261626.20000004768,A,armenter,O,enter,241,1,882.8000000119209,260743.40000003576,7097,WL,B,5.0
2,9.79699993133545,learn,50203.00006866455,Fri Apr 04 2025 14:03:06 GMT-0500 (Central Daylight Time),261843.40000003576,A,w,O,w,196,1,217.0,261626.40000003576,7097,WL,B,6.0
2,9.996999979019165,learn,50003.000020980835,Fri Apr 04 2025 14:03:06 GMT-0500 (Central Daylight Time),262043.70000004768,A,wi,O,i,167,1,417.30000001192093,261626.40000003576,7097,WL,B,6.0
2,10.247999906539917,learn,49752.00009346008,Fri Apr 04 2025 14:03:06 GMT-0500 (Central Daylight Time),262294.0,A,win,O,n,218,1,667.5999999642372,261626.40000003576,7097,WL,B,6.0
2,10.446999788284302,learn,49553.0002117157,Fri Apr 04 2025 14:03:06 GMT-0500 (Central Daylight Time),262492.90000003576,A,wind,O,d,172,1,866.5,261626.40000003576,7097,WL,B,6.0
2,10.597999811172485,learn,49402.000188827515,Fri Apr 04 2025 14:03:06 GMT-0500 (Central Daylight Time),262644.3000000119,A,windo,O,o,137,1,1017.8999999761581,261626.40000003576,7097,WL,B,6.0
2,10.829999923706055,learn,49170.000076293945,Fri Apr 04 2025 14:03:06 GMT-0500 (Central Daylight Time),262876.90000003576,A,window,O,w,201,1,1250.5,261626.40000003576,7097,WL,B,6.0
2,11.145999908447266,learn,48854.000091552734,Fri Apr 04 2025 14:03:06 GMT-0500 (Central Daylight Time),263192.40000003576,A,windowenter,O,enter,276,1,1566.0,261626.40000003576,7097,WL,B,6.0
2,12.329999923706055,learn,47670.000076293945,Fri Apr 04 2025 14:03:06 GMT-0500 (Central Daylight Time),264376.2000000477,A,l,O,l,1173,1,1183.6000000238419,263192.60000002384,7097,WL,B,7.0
2,12.479999780654907,learn,47520.00021934509,Fri Apr 04 2025 14:03:06 GMT-0500 (Central Daylight Time),264526.2000000477,A,la,O,a,113,1,1333.6000000238419,263192.60000002384,7097,WL,B,7.0
2,12.628999948501587,learn,47371.00005149841,Fri Apr 04 2025 14:03:06 GMT-0500 (Central Daylight Time),264675.8000000119,A,lak,O,k,116,1,1483.199999988079,263192.60000002384,7097,WL,B,7.0
2,12.746999979019165,learn,47253.000020980835,Fri Apr 04 2025 14:03:06 GMT-0500 (Central Daylight Time),264792.90000003576,A,lake,O,e,87,1,1600.300000011921,263192.60000002384,7097,WL,B,7.0
2,12.994999885559082,learn,47005.00011444092,Fri Apr 04 2025 14:03:06 GMT-0500 (Central Daylight Time),265041.7000000477,A,lakeenter,O,enter,217,1,1849.1000000238419,263192.60000002384,7097,WL,B,7.0
2,13.19599986076355,learn,46804.00013923645,Fri Apr 04 2025 14:03:06 GMT-0500 (Central Daylight Time),265242.5,A,c,O,c,180,1,200.5999999642372,265041.90000003576,7097,WL,B,8.0
2,13.328999996185303,learn,46671.0000038147,Fri Apr 04 2025 14:03:06 GMT-0500 (Central Daylight Time),265375.40000003576,A,ca,O,a,95,1,333.5,265041.90000003576,7097,WL,B,8.0
2,13.428999900817871,learn,46571.00009918213,Fri Apr 04 2025 14:03:06 GMT-0500 (Central Daylight Time),265475.3000000119,A,car,O,r,69,1,433.39999997615814,265041.90000003576,7097,WL,B,8.0
2,14.145999908447266,learn,45854.000091552734,Fri Apr 04 2025 14:03:06 GMT-0500 (Central Daylight Time),266192.10000002384,A,ca,O,backspace,686,1,1150.199999988079,265041.90000003576,7097,WL,B,8.0
2,14.262999773025513,learn,45737.00022697449,Fri Apr 04 2025 14:03:06 GMT-0500 (Central Daylight Time),266308.90000003576,A,cab,O,b,80,1,1267.0,265041.90000003576,7097,WL,B,8.0
2,14.411999940872192,learn,45588.00005912781,Fri Apr 04 2025 14:03:06 GMT-0500 (Central Daylight Time),266458.90000003576,A,cabi,O,i,115,1,1417.0,265041.90000003576,7097,WL,B,8.0
2,14.745999813079834,learn,45254.000186920166,Fri Apr 04 2025 14:03:06 GMT-0500 (Central Daylight Time),266792.10000002384,A,cabin,O,n,304,1,1750.199999988079,265041.90000003576,7097,WL,B,8.0
2,15.244999885559082,learn,44755.00011444092,Fri Apr 04 2025 14:03:06 GMT-0500 (Central Daylight Time),267291.0,A,cabinenter,O,enter,465,1,2249.099999964237,265041.90000003576,7097,WL,B,8.0
2,15.51199984550476,learn,44488.00015449524,Fri Apr 04 2025 14:03:06 GMT-0500 (Central Daylight Time),267558.5,A,s,O,s,259,1,267.2999999523163,267291.2000000477,7097,WL,B,9.0
2,15.694999933242798,learn,44305.0000667572,Fri Apr 04 2025 14:03:06 GMT-0500 (Central Daylight Time),267741.7000000477,A,st,O,t,147,1,450.5,267291.2000000477,7097,WL,B,9.0
2,15.928999900817871,learn,44071.00009918213,Fri Apr 04 2025 14:03:06 GMT-0500 (Central Daylight Time),267975.10000002384,A,sta,O,a,197,1,683.8999999761581,267291.2000000477,7097,WL,B,9.0
2,16.044999837875366,learn,43955.000162124634,Fri Apr 04 2025 14:03:06 GMT-0500 (Central Daylight Time),268091.0,A,star,O,r,75,1,799.7999999523163,267291.2000000477,7097,WL,B,9.0
2,16.361999988555908,learn,43638.00001144409,Fri Apr 04 2025 14:03:06 GMT-0500 (Central Daylight Time),268408.3000000119,A,start,O,t,299,1,1117.0999999642372,267291.2000000477,7097,WL,B,9.0
2,17.01099991798401,learn,42989.00008201599,Fri Apr 04 2025 14:03:06 GMT-0500 (Central Daylight Time),269057.90000003576,A,star,O,backspace,615,1,1766.699999988079,267291.2000000477,7097,WL,B,9.0
2,17.293999910354614,learn,42706.000089645386,Fri Apr 04 2025 14:03:06 GMT-0500 (Central Daylight Time),269340.2000000477,A,starenter,O,enter,248,1,2049.0,267291.2000000477,7097,WL,B,9.0
2,17.661999940872192,learn,42338.00005912781,Fri Apr 04 2025 14:03:06 GMT-0500 (Central Daylight Time),269708.0,A,w,O,w,354,1,367.5,269340.5,7097,WL,B,10.0
2,17.810999870300293,learn,42189.00012969971,Fri Apr 04 2025 14:03:06 GMT-0500 (Central Daylight Time),269857.8000000119,A,wi,O,i,118,1,517.3000000119209,269340.5,7097,WL,B,10.0
2,18.060999870300293,learn,41939.00012969971,Fri Apr 04 2025 14:03:06 GMT-0500 (Central Daylight Time),270107.7000000477,A,wif,O,f,218,1,767.2000000476837,269340.5,7097,WL,B,10.0
2,18.24399995803833,learn,41756.00004196167,Fri Apr 04 2025 14:03:06 GMT-0500 (Central Daylight Time),270290.90000003576,A,wife,O,e,151,1,950.4000000357628,269340.5,7097,WL,B,10.0
2,18.694000005722046,learn,41305.999994277954,Fri Apr 04 2025 14:03:06 GMT-0500 (Central Daylight Time),270739.8000000119,A,wifeenter,O,enter,425,1,1399.300000011921,269340.5,7097,WL,B,10.0
2,24.20899987220764,learn,35791.00012779236,Fri Apr 04 2025 14:03:06 GMT-0500 (Central Daylight Time),276255.7000000477,A,s,O,s,5506,1,5515.600000023842,270740.10000002384,7097,WL,B,11.0
2,24.375999927520752,learn,35624.00007247925,Fri Apr 04 2025 14:03:06 GMT-0500 (Central Daylight Time),276421.8000000119,A,st,O,t,128,1,5681.699999988079,270740.10000002384,7097,WL,B,11.0
2,24.54199981689453,learn,35458.00018310547,Fri Apr 04 2025 14:03:06 GMT-0500 (Central Daylight Time),276588.3000000119,A,sta,O,a,132,1,5848.199999988079,270740.10000002384,7097,WL,B,11.0
2,24.72499990463257,learn,35275.00009536743,Fri Apr 04 2025 14:03:06 GMT-0500 (Central Daylight Time),276771.10000002384,A,star,O,r,150,1,6031.0,270740.10000002384,7097,WL,B,11.0
2,25.125,learn,34875.0,Fri Apr 04 2025 14:03:06 GMT-0500 (Central Daylight Time),277170.90000003576,A,starenter,O,enter,392,1,6430.800000011921,270740.10000002384,7097,WL,B,11.0
2,30.906999826431274,learn,29093.000173568726,Fri Apr 04 2025 14:03:06 GMT-0500 (Central Daylight Time),282953.8000000119,A,c,O,c,5771,1,5782.699999988079,277171.10000002384,7097,WL,B,12.0
2,31.139999866485596,learn,28860.000133514404,Fri Apr 04 2025 14:03:06 GMT-0500 (Central Daylight Time),283186.7000000477,A,ca,O,a,194,1,6015.600000023842,277171.10000002384,7097,WL,B,12.0
2,31.289999961853027,learn,28710.000038146973,Fri Apr 04 2025 14:03:06 GMT-0500 (Central Daylight Time),283336.60000002384,A,cab,O,b,119,1,6165.5,277171.10000002384,7097,WL,B,12.0
2,31.372999906539917,learn,28627.000093460083,Fri Apr 04 2025 14:03:06 GMT-0500 (Central Daylight Time),283419.10000002384,A,cabi,O,i,58,1,6248.0,277171.10000002384,7097,WL,B,12.0
2,31.573999881744385,learn,28426.000118255615,Fri Apr 04 2025 14:03:06 GMT-0500 (Central Daylight Time),283620.0,A,cabin,O,n,164,1,6448.899999976158,277171.10000002384,7097,WL,B,12.0
2,32.055999994277954,learn,27944.000005722046,Fri Apr 04 2025 14:03:06 GMT-0500 (Central Daylight Time),284102.10000002384,A,cabinenter,O,enter,454,1,6931.0,277171.10000002384,7097,WL,B,12.0
2,32.37299990653992,learn,27627.000093460083,Fri Apr 04 2025 14:03:06 GMT-0500 (Central Daylight Time),284419.5,A,l,O,l,296,1,317.0999999642372,284102.40000003576,7097,WL,B,13.0
2,32.472999811172485,learn,27527.000188827515,Fri Apr 04 2025 14:03:06 GMT-0500 (Central Daylight Time),284519.3000000119,A,la,O,a,72,1,416.89999997615814,284102.40000003576,7097,WL,B,13.0
2,32.62299990653992,learn,27377.000093460083,Fri Apr 04 2025 14:03:06 GMT-0500 (Central Daylight Time),284669.5,A,lak,O,k,121,1,567.0999999642372,284102.40000003576,7097,WL,B,13.0
2,32.77300000190735,learn,27226.99999809265,Fri Apr 04 2025 14:03:06 GMT-0500 (Central Daylight Time),284819.3000000119,A,lake,O,e,118,1,716.8999999761581,284102.40000003576,7097,WL,B,13.0
2,33.204999923706055,learn,26795.000076293945,Fri Apr 04 2025 14:03:06 GMT-0500 (Central Daylight Time),285251.8000000119,A,lakeenter,O,enter,404,1,1149.3999999761581,284102.40000003576,7097,WL,B,13.0
2,37.853999853134155,learn,22146.000146865845,Fri Apr 04 2025 14:03:06 GMT-0500 (Central Daylight Time),289900.2000000477,A,enter,O,enter,4641,1,4648.100000023842,285252.10000002384,7097,WL,B,14.0
2,38.25399994850159,learn,21746.000051498413,Fri Apr 04 2025 14:03:06 GMT-0500 (Central Daylight Time),290300.10000002384,A,enter,O,enter,384,1,399.60000002384186,289900.5,7097,WL,B,15.0
3,0.5329999923706055,learn,59467.000007629395,Fri Apr 04 2025 14:03:06 GMT-0500 (Central Daylight Time),359978.2000000477,A,s,O,s,504,1,532.8000000119209,359445.40000003576,7097,WL,B,1.0
3,0.6170001029968262,learn,59382.999897003174,Fri Apr 04 2025 14:03:06 GMT-0500 (Central Daylight Time),360061.8000000119,A,sk,O,k,55,1,616.3999999761581,359445.40000003576,7097,WL,B,1.0
3,0.8329999446868896,learn,59167.00005531311,Fri Apr 04 2025 14:03:06 GMT-0500 (Central Daylight Time),360278.10000002384,A,ski,O,i,195,1,832.6999999880791,359445.40000003576,7097,WL,B,1.0
3,1.0829999446868896,learn,58917.00005531311,Fri Apr 04 2025 14:03:06 GMT-0500 (Central Daylight Time),360528.10000002384,A,skin,O,n,214,1,1082.699999988079,359445.40000003576,7097,WL,B,1.0
3,1.3980000019073486,learn,58601.99999809265,Fri Apr 04 2025 14:03:06 GMT-0500 (Central Daylight Time),360843.5,A,skinenter,O,enter,281,1,1398.0999999642372,359445.40000003576,7097,WL,B,1.0
3,1.6159999370574951,learn,58384.000062942505,Fri Apr 04 2025 14:03:06 GMT-0500 (Central Daylight Time),361061.2000000477,A,f,O,f,202,1,217.30000001192093,360843.90000003576,7097,WL,B,2.0
3,1.7320001125335693,learn,58267.99988746643,Fri Apr 04 2025 14:03:06 GMT-0500 (Central Daylight Time),361177.10000002384,A,fi,O,i,85,1,333.19999998807907,360843.90000003576,7097,WL,B,2.0
3,2.115999937057495,learn,57884.000062942505,Fri Apr 04 2025 14:03:06 GMT-0500 (Central Daylight Time),361561.10000002384,A,fir,O,r,357,1,717.1999999880791,360843.90000003576,7097,WL,B,2.0
3,2.3489999771118164,learn,57651.00002288818,Fri Apr 04 2025 14:03:06 GMT-0500 (Central Daylight Time),361794.3000000119,A,fire,O,e,201,1,950.3999999761581,360843.90000003576,7097,WL,B,2.0
3,2.947999954223633,learn,57052.00004577637,Fri Apr 04 2025 14:03:06 GMT-0500 (Central Daylight Time),362393.10000002384,A,fireenter,O,enter,559,1,1549.199999988079,360843.90000003576,7097,WL,B,2.0
3,3.2320001125335693,learn,56767.99988746643,Fri Apr 04 2025 14:03:06 GMT-0500 (Central Daylight Time),362677.3000000119,A,c,O,c,277,1,284.0,362393.3000000119,7097,WL,B,3.0
3,3.314000129699707,learn,56685.99987030029,Fri Apr 04 2025 14:03:06 GMT-0500 (Central Daylight Time),362759.7000000477,A,cl,O,l,52,1,366.4000000357628,362393.3000000119,7097,WL,B,3.0
3,3.499000072479248,learn,56500.99992752075,Fri Apr 04 2025 14:03:06 GMT-0500 (Central Daylight Time),362943.90000003576,A,clo,O,o,160,1,550.6000000238419,362393.3000000119,7097,WL,B,3.0
3,3.6649999618530273,learn,56335.00003814697,Fri Apr 04 2025 14:03:06 GMT-0500 (Central Daylight Time),363110.5,A,cloc,O,c,139,1,717.1999999880791,362393.3000000119,7097,WL,B,3.0
3,3.8320000171661377,learn,56167.99998283386,Fri Apr 04 2025 14:03:06 GMT-0500 (Central Daylight Time),363277.2000000477,A,clock,O,k,126,1,883.9000000357628,362393.3000000119,7097,WL,B,3.0
3,4.081000089645386,learn,55918.999910354614,Fri Apr 04 2025 14:03:06 GMT-0500 (Central Daylight Time),363526.10000002384,A,clockenter,O,enter,212,1,1132.800000011921,362393.3000000119,7097,WL,B,3.0
3,5.232000112533569,learn,54767.99988746643,Fri Apr 04 2025 14:03:06 GMT-0500 (Central Daylight Time),364676.90000003576,A,d,O,d,1144,1,1150.6000000238419,363526.3000000119,7097,WL,B,4.0
3,5.398000001907349,learn,54601.99999809265,Fri Apr 04 2025 14:03:06 GMT-0500 (Central Daylight Time),364843.2000000477,A,do,O,o,125,1,1316.9000000357628,363526.3000000119,7097,WL,B,4.0
3,5.54800009727478,learn,54451.99990272522,Fri Apr 04 2025 14:03:06 GMT-0500 (Central Daylight Time),364993.10000002384,A,doo,O,o,115,1,1466.800000011921,363526.3000000119,7097,WL,B,4.0
3,5.614000082015991,learn,54385.99991798401,Fri Apr 04 2025 14:03:06 GMT-0500 (Central Daylight Time),365059.0,A,door,O,r,37,1,1532.699999988079,363526.3000000119,7097,WL,B,4.0
3,5.864000082015991,learn,54135.99991798401,Fri Apr 04 2025 14:03:06 GMT-0500 (Central Daylight Time),365308.90000003576,A,doorenter,O,enter,229,1,1782.6000000238419,363526.3000000119,7097,WL,B,4.0
3,6.013999938964844,learn,53986.000061035156,Fri Apr 04 2025 14:03:06 GMT-0500 (Central Daylight Time),365459.8000000119,A,g,O,g,137,1,150.69999998807907,365309.10000002384,7097,WL,B,5.0
3,6.21399998664856,learn,53786.00001335144,Fri Apr 04 2025 14:03:06 GMT-0500 (Central Daylight Time),365659.8000000119,A,gr,O,r,168,1,350.69999998807907,365309.10000002384,7097,WL,B,5.0
3,6.38100004196167,learn,53618.99995803833,Fri Apr 04 2025 14:03:06 GMT-0500 (Central Daylight Time),365826.3000000119,A,gra,O,a,135,1,517.1999999880791,365309.10000002384,7097,WL,B,5.0
3,6.664000034332275,learn,53335.999965667725,Fri Apr 04 2025 14:03:06 GMT-0500 (Central Daylight Time),366109.60000002384,A,gras,O,s,248,1,800.5,365309.10000002384,7097,WL,B,5.0
3,6.8480000495910645,learn,53151.999950408936,Fri Apr 04 2025 14:03:06 GMT-0500 (Central Daylight Time),366292.90000003576,A,grass,O,s,156,1,983.8000000119209,365309.10000002384,7097,WL,B,5.0
3,7.230000019073486,learn,52769.999980926514,Fri Apr 04 2025 14:03:06 GMT-0500 (Central Daylight Time),366675.10000002384,A,grassenter,O,enter,348,1,1366.0,365309.10000002384,7097,WL,B,5.0
3,7.730000019073486,learn,52269.999980926514,Fri Apr 04 2025 14:03:06 GMT-0500 (Central Daylight Time),367175.8000000119,A,a,O,a,491,1,500.5,366675.3000000119,7097,WL,B,6.0
3,7.897000074386597,learn,52102.9999256134,Fri Apr 04 2025 14:03:06 GMT-0500 (Central Daylight Time),367342.2000000477,A,ar,O,r,139,1,666.9000000357628,366675.3000000119,7097,WL,B,6.0
3,8.21399998664856,learn,51786.00001335144,Fri Apr 04 2025 14:03:06 GMT-0500 (Central Daylight Time),367659.10000002384,A,arm,O,m,285,1,983.8000000119209,366675.3000000119,7097,WL,B,6.0
3,8.663000106811523,learn,51336.99989318848,Fri Apr 04 2025 14:03:06 GMT-0500 (Central Daylight Time),368107.90000003576,A,armenter,O,enter,415,1,1432.6000000238419,366675.3000000119,7097,WL,B,6.0
3,9.147000074386597,learn,50852.9999256134,Fri Apr 04 2025 14:03:06 GMT-0500 (Central Daylight Time),368592.0,A,w,O,w,474,1,483.7999999523163,368108.2000000477,7097,WL,B,7.0
3,9.312999963760376,learn,50687.000036239624,Fri Apr 04 2025 14:03:06 GMT-0500 (Central Daylight Time),368758.60000002384,A,wi,O,i,142,1,650.3999999761581,368108.2000000477,7097,WL,B,7.0
3,9.480000019073486,learn,50519.999980926514,Fri Apr 04 2025 14:03:06 GMT-0500 (Central Daylight Time),368925.3000000119,A,win,O,n,133,1,817.0999999642372,368108.2000000477,7097,WL,B,7.0
3,9.664000034332275,learn,50335.999965667725,Fri Apr 04 2025 14:03:06 GMT-0500 (Central Daylight Time),369109.0,A,wind,O,d,158,1,1000.7999999523163,368108.2000000477,7097,WL,B,7.0
3,10.230000019073486,learn,49769.999980926514,Fri Apr 04 2025 14:03:06 GMT-0500 (Central Daylight Time),369675.2000000477,A,windo,O,o,534,1,1567.0,368108.2000000477,7097,WL,B,7.0
3,10.661999940872192,learn,49338.00005912781,Fri Apr 04 2025 14:03:06 GMT-0500 (Central Daylight Time),370107.60000002384,A,window,O,w,398,1,1999.3999999761581,368108.2000000477,7097,WL,B,7.0
3,11.029000043869019,learn,48970.99995613098,Fri Apr 04 2025 14:03:06 GMT-0500 (Central Daylight Time),370473.8000000119,A,windowenter,O,enter,345,1,2365.599999964237,368108.2000000477,7097,WL,B,7.0
3,11.51200008392334,learn,48487.99991607666,Fri Apr 04 2025 14:03:06 GMT-0500 (Central Daylight Time),370957.7000000477,A,s,O,s,476,1,483.60000002384186,370474.10000002384,7097,WL,B,8.0
3,11.712000131607056,learn,48287.999868392944,Fri Apr 04 2025 14:03:06 GMT-0500 (Central Daylight Time),371157.90000003576,A,st,O,t,166,1,683.8000000119209,370474.10000002384,7097,WL,B,8.0
3,11.946000099182129,learn,48053.99990081787,Fri Apr 04 2025 14:03:06 GMT-0500 (Central Daylight Time),371391.2000000477,A,sta,O,a,206,1,917.1000000238419,370474.10000002384,7097,WL,B,8.0
3,12.17900013923645,learn,47820.99986076355,Fri Apr 04 2025 14:03:06 GMT-0500 (Central Daylight Time),371624.3000000119,A,star,O,r,204,1,1150.199999988079,370474.10000002384,7097,WL,B,8.0
3,12.67799997329712,learn,47322.00002670288,Fri Apr 04 2025 14:03:06 GMT-0500 (Central Daylight Time),372123.2000000477,A,starenter,O,enter,458,1,1649.1000000238419,370474.10000002384,7097,WL,B,8.0
3,12.894999980926514,learn,47105.000019073486,Fri Apr 04 2025 14:03:06 GMT-0500 (Central Daylight Time),372340.8000000119,A,w,O,w,196,1,217.30000001192093,372123.5,7097,WL,B,9.0
3,13.029000043869019,learn,46970.99995613098,Fri Apr 04 2025 14:03:06 GMT-0500 (Central Daylight Time),372474.3000000119,A,wi,O,i,95,1,350.80000001192093,372123.5,7097,WL,B,9.0
3,13.245000123977661,learn,46754.99987602234,Fri Apr 04 2025 14:03:06 GMT-0500 (Central Daylight Time),372690.7000000477,A,wif,O,f,185,1,567.2000000476837,372123.5,7097,WL,B,9.0
3,13.479000091552734,learn,46520.999908447266,Fri Apr 04 2025 14:03:06 GMT-0500 (Central Daylight Time),372924.40000003576,A,wife,O,e,209,1,800.9000000357628,372123.5,7097,WL,B,9.0
3,14.094000101089478,learn,45905.99989891052,Fri Apr 04 2025 14:03:06 GMT-0500 (Central Daylight Time),373539.40000003576,A,wifeenter,O,enter,574,1,1415.9000000357628,372123.5,7097,WL,B,9.0
3,15.16100001335144,learn,44838.99998664856,Fri Apr 04 2025 14:03:06 GMT-0500 (Central Daylight Time),374606.7000000477,A,p,O,p,1059,1,1067.0,373539.7000000477,7097,WL,B,10.0
3,15.378000020980835,learn,44621.999979019165,Fri Apr 04 2025 14:03:06 GMT-0500 (Central Daylight Time),374823.3000000119,A,pu,O,u,180,1,1283.5999999642372,373539.7000000477,7097,WL,B,10.0
3,15.778000116348267,learn,44221.99988365173,Fri Apr 04 2025 14:03:06 GMT-0500 (Central Daylight Time),375223.2000000477,A,pup,O,p,365,1,1683.5,373539.7000000477,7097,WL,B,10.0
3,16.111000061035156,learn,43888.999938964844,Fri Apr 04 2025 14:03:06 GMT-0500 (Central Daylight Time),375556.5,A,pupi,O,i,299,1,2016.7999999523163,373539.7000000477,7097,WL,B,10.0
3,16.311000108718872,learn,43688.99989128113,Fri Apr 04 2025 14:03:06 GMT-0500 (Central Daylight Time),375756.3000000119,A,pupil,O,l,170,1,2216.599999964237,373539.7000000477,7097,WL,B,10.0
3,16.91000008583069,learn,43089.99991416931,Fri Apr 04 2025 14:03:06 GMT-0500 (Central Daylight Time),376355.10000002384,A,pupilenter,O,enter,558,1,2815.399999976158,373539.7000000477,7097,WL,B,10.0
3,17.210999965667725,learn,42789.000034332275,Fri Apr 04 2025 14:03:06 GMT-0500 (Central Daylight Time),376656.10000002384,A,c,O,c,283,1,300.69999998807907,376355.40000003576,7097,WL,B,11.0
3,17.3270001411438,learn,42672.9998588562,Fri Apr 04 2025 14:03:06 GMT-0500 (Central Daylight Time),376772.8000000119,A,ci,O,i,83,1,417.39999997615814,376355.40000003576,7097,WL,B,11.0
3,17.610000133514404,learn,42389.999866485596,Fri Apr 04 2025 14:03:06 GMT-0500 (Central Daylight Time),377055.7000000477,A,cit,O,t,255,1,700.3000000119209,376355.40000003576,7097,WL,B,11.0
3,17.99399995803833,learn,42006.00004196167,Fri Apr 04 2025 14:03:06 GMT-0500 (Central Daylight Time),377439.3000000119,A,city,O,y,348,1,1083.8999999761581,376355.40000003576,7097,WL,B,11.0
3,18.443000078201294,learn,41556.999921798706,Fri Apr 04 2025 14:03:06 GMT-0500 (Central Daylight Time),377888.0,A,cityenter,O,enter,419,1,1532.5999999642372,376355.40000003576,7097,WL,B,11.0
3,28.306999921798706,learn,31693.000078201294,Fri Apr 04 2025 14:03:06 GMT-0500 (Central Daylight Time),387752.5,A,c,O,c,9854,1,9864.299999952316,377888.2000000477,7097,WL,B,12.0
3,28.44000005722046,learn,31559.99994277954,Fri Apr 04 2025 14:03:06 GMT-0500 (Central Daylight Time),387885.7000000477,A,ci,O,i,99,1,9997.5,377888.2000000477,7097,WL,B,12.0
3,28.674000024795532,learn,31325.999975204468,Fri Apr 04 2025 14:03:06 GMT-0500 (Central Daylight Time),388119.40000003576,A,cit,O,t,197,1,10231.199999988079,377888.2000000477,7097,WL,B,12.0
3,28.83999991416931,learn,31160.00008583069,Fri Apr 04 2025 14:03:06 GMT-0500 (Central Daylight Time),388285.60000002384,A,city,O,y,143,1,10397.399999976158,377888.2000000477,7097,WL,B,12.0
3,29.123000144958496,learn,30876.999855041504,Fri Apr 04 2025 14:03:06 GMT-0500 (Central Daylight Time),388567.8000000119,A,cityenter,O,enter,252,1,10679.599999964237,377888.2000000477,7097,WL,B,12.0
3,34.57100009918213,learn,25428.99990081787,Fri Apr 04 2025 14:03:06 GMT-0500 (Central Daylight Time),394016.10000002384,A,enter,O,enter,5429,1,5448.100000023842,388568.0,7097,WL,B,13.0
3,35.25399994850159,learn,24746.000051498413,Fri Apr 04 2025 14:03:06 GMT-0500 (Central Daylight Time),394699.10000002384,A,enter,O,enter,669,1,682.8000000119209,394016.3000000119,7097,WL,B,14.0
3,36.1710000038147,learn,23828.999996185303,Fri Apr 04 2025 14:03:06 GMT-0500 (Central Daylight Time),395616.60000002384,A,enter,O,enter,898,1,917.1000000238419,394699.5,7097,WL,B,15.0
4,0.4500000476837158,learn,59549.999952316284,Fri Apr 04 2025 14:03:06 GMT-0500 (Central Daylight Time),467526.2000000477,A,s,O,s,424,1,449.5,467076.7000000477,7097,WL,B,1.0
4,0.5490000247955322,learn,59450.99997520447,Fri Apr 04 2025 14:03:06 GMT-0500 (Central Daylight Time),467625.3000000119,A,sk,O,k,66,1,548.5999999642372,467076.7000000477,7097,WL,B,1.0
4,0.7839999198913574,learn,59216.00008010864,Fri Apr 04 2025 14:03:06 GMT-0500 (Central Daylight Time),467859.40000003576,A,ski,O,i,210,1,782.6999999880791,467076.7000000477,7097,WL,B,1.0
4,0.9670000076293945,learn,59032.999992370605,Fri Apr 04 2025 14:03:06 GMT-0500 (Central Daylight Time),468042.7000000477,A,skin,O,n,144,1,966.0,467076.7000000477,7097,WL,B,1.0
4,1.2990000247955322,learn,58700.99997520447,Fri Apr 04 2025 14:03:06 GMT-0500 (Central Daylight Time),468375.10000002384,A,skinenter,O,enter,297,1,1298.3999999761581,467076.7000000477,7097,WL,B,1.0
4,1.5499999523162842,learn,58450.000047683716,Fri Apr 04 2025 14:03:06 GMT-0500 (Central Daylight Time),468625.5,A,f,O,f,239,1,250.19999998807907,468375.3000000119,7097,WL,B,2.0
4,1.6500000953674316,learn,58349.99990463257,Fri Apr 04 2025 14:03:06 GMT-0500 (Central Daylight Time),468725.40000003576,A,fi,O,i,65,1,350.10000002384186,468375.3000000119,7097,WL,B,2.0
4,1.815999984741211,learn,58184.00001525879,Fri Apr 04 2025 14:03:06 GMT-0500 (Central Daylight Time),468892.10000002384,A,fir,O,r,144,1,516.8000000119209,468375.3000000119,7097,WL,B,2.0
4,2.0169999599456787,learn,57983.00004005432,Fri Apr 04 2025 14:03:06 GMT-0500 (Central Daylight Time),469092.40000003576,A,fire,O,e,169,1,717.1000000238419,468375.3000000119,7097,WL,B,2.0
4,2.499000072479248,learn,57500.99992752075,Fri Apr 04 2025 14:03:06 GMT-0500 (Central Daylight Time),469574.60000002384,A,fireenter,O,enter,455,1,1199.300000011921,468375.3000000119,7097,WL,B,2.0
4,3.3489999771118164,learn,56651.00002288818,Fri Apr 04 2025 14:03:06 GMT-0500 (Central Daylight Time),470425.3000000119,A,c,O,c,840,1,850.3999999761581,469574.90000003576,7097,WL,B,3.0
4,3.499000072479248,learn,56500.99992752075,Fri Apr 04 2025 14:03:06 GMT-0500 (Central Daylight Time),470575.2000000477,A,cl,O,l,114,1,1000.3000000119209,469574.90000003576,7097,WL,B,3.0
4,3.8320000171661377,learn,56167.99998283386,Fri Apr 04 2025 14:03:06 GMT-0500 (Central Daylight Time),470908.2000000477,A,clo,O,o,292,1,1333.300000011921,469574.90000003576,7097,WL,B,3.0
4,4.398999929428101,learn,55601.0000705719,Fri Apr 04 2025 14:03:06 GMT-0500 (Central Daylight Time),471474.90000003576,A,cloc,O,c,537,1,1900.0,469574.90000003576,7097,WL,B,3.0
4,4.632999897003174,learn,55367.000102996826,Fri Apr 04 2025 14:03:06 GMT-0500 (Central Daylight Time),471708.60000002384,A,clock,O,k,209,1,2133.699999988079,469574.90000003576,7097,WL,B,3.0
4,5.081000089645386,learn,54918.999910354614,Fri Apr 04 2025 14:03:06 GMT-0500 (Central Daylight Time),472157.10000002384,A,clockenter,O,enter,428,1,2582.199999988079,469574.90000003576,7097,WL,B,3.0
4,5.914999961853027,learn,54085.00003814697,Fri Apr 04 2025 14:03:06 GMT-0500 (Central Daylight Time),472991.3000000119,A,s,O,s,817,1,834.0,472157.3000000119,7097,WL,B,4.0
4,6.148999929428101,learn,53851.0000705719,Fri Apr 04 2025 14:03:06 GMT-0500 (Central Daylight Time),473224.7000000477,A,st,O,t,205,1,1067.4000000357628,472157.3000000119,7097,WL,B,4.0
4,6.447999954223633,learn,53552.00004577637,Fri Apr 04 2025 14:03:06 GMT-0500 (Central Daylight Time),473524.3000000119,A,str,O,r,266,1,1367.0,472157.3000000119,7097,WL,B,4.0
4,6.5309998989105225,learn,53469.00010108948,Fri Apr 04 2025 14:03:06 GMT-0500 (Central Daylight Time),473606.8000000119,A,stre,O,e,52,1,1449.5,472157.3000000119,7097,WL,B,4.0
4,7.0329999923706055,learn,52967.000007629395,Fri Apr 04 2025 14:03:06 GMT-0500 (Central Daylight Time),474109.10000002384,A,stree,O,e,491,1,1951.800000011921,472157.3000000119,7097,WL,B,4.0
4,7.265000104904175,learn,52734.999895095825,Fri Apr 04 2025 14:03:06 GMT-0500 (Central Daylight Time),474340.90000003576,A,street,O,t,196,1,2183.600000023842,472157.3000000119,7097,WL,B,4.0
4,7.581000089645386,learn,52418.999910354614,Fri Apr 04 2025 14:03:06 GMT-0500 (Central Daylight Time),474656.60000002384,A,streetenter,O,enter,278,1,2499.300000011921,472157.3000000119,7097,WL,B,4.0
4,7.930999994277954,learn,52069.000005722046,Fri Apr 04 2025 14:03:06 GMT-0500 (Central Daylight Time),475007.5,A,g,O,g,341,1,350.5999999642372,474656.90000003576,7097,WL,B,5.0
4,8.230999946594238,learn,51769.00005340576,Fri Apr 04 2025 14:03:06 GMT-0500 (Central Daylight Time),475307.10000002384,A,gr,O,r,265,1,650.1999999880791,474656.90000003576,7097,WL,B,5.0
4,8.313999891281128,learn,51686.00010871887,Fri Apr 04 2025 14:03:06 GMT-0500 (Central Daylight Time),475389.60000002384,A,gra,O,a,56,1,732.6999999880791,474656.90000003576,7097,WL,B,5.0
4,8.79800009727478,learn,51201.99990272522,Fri Apr 04 2025 14:03:06 GMT-0500 (Central Daylight Time),475873.40000003576,A,gras,O,s,464,1,1216.5,474656.90000003576,7097,WL,B,5.0
4,9.013999938964844,learn,50986.000061035156,Fri Apr 04 2025 14:03:06 GMT-0500 (Central Daylight Time),476089.8000000119,A,grass,O,s,179,1,1432.8999999761581,474656.90000003576,7097,WL,B,5.0
4,9.730000019073486,learn,50269.999980926514,Fri Apr 04 2025 14:03:06 GMT-0500 (Central Daylight Time),476805.60000002384,A,grassenter,O,enter,679,1,2148.699999988079,474656.90000003576,7097,WL,B,5.0
4,10.180999994277954,learn,49819.000005722046,Fri Apr 04 2025 14:03:06 GMT-0500 (Central Daylight Time),477256.3000000119,A,a,O,a,432,1,450.5,476805.8000000119,7097,WL,B,6.0
4,10.348000049591064,learn,49651.999950408936,Fri Apr 04 2025 14:03:06 GMT-0500 (Central Daylight Time),477422.90000003576,A,ar,O,r,142,1,617.1000000238419,476805.8000000119,7097,WL,B,6.0
4,10.614000082015991,learn,49385.99991798401,Fri Apr 04 2025 14:03:06 GMT-0500 (Central Daylight Time),477689.40000003576,A,arm,O,m,228,1,883.6000000238419,476805.8000000119,7097,WL,B,6.0
4,11.02999997138977,learn,48970.00002861023,Fri Apr 04 2025 14:03:06 GMT-0500 (Central Daylight Time),478105.10000002384,A,armenter,O,enter,376,1,1299.300000011921,476805.8000000119,7097,WL,B,6.0
4,11.730000019073486,learn,48269.999980926514,Fri Apr 04 2025 14:03:06 GMT-0500 (Central Daylight Time),478805.60000002384,A,w,O,w,685,1,700.3000000119209,478105.3000000119,7097,WL,B,7.0
4,11.930000066757202,learn,48069.9999332428,Fri Apr 04 2025 14:03:06 GMT-0500 (Central Daylight Time),479005.8000000119,A,wi,O,i,165,1,900.5,478105.3000000119,7097,WL,B,7.0
4,12.129999876022339,learn,47870.00012397766,Fri Apr 04 2025 14:03:06 GMT-0500 (Central Daylight Time),479205.8000000119,A,win,O,n,165,1,1100.5,478105.3000000119,7097,WL,B,7.0
4,12.313999891281128,learn,47686.00010871887,Fri Apr 04 2025 14:03:06 GMT-0500 (Central Daylight Time),479389.0,A,wind,O,d,158,1,1283.699999988079,478105.3000000119,7097,WL,B,7.0
4,12.480000019073486,learn,47519.999980926514,Fri Apr 04 2025 14:03:06 GMT-0500 (Central Daylight Time),479556.0,A,windo,O,o,129,1,1450.699999988079,478105.3000000119,7097,WL,B,7.0
4,12.697999954223633,learn,47302.00004577637,Fri Apr 04 2025 14:03:06 GMT-0500 (Central Daylight Time),479773.3000000119,A,window,O,w,183,1,1668.0,478105.3000000119,7097,WL,B,7.0
4,13.145999908447266,learn,46854.000091552734,Fri Apr 04 2025 14:03:06 GMT-0500 (Central Daylight Time),480221.40000003576,A,windowenter,O,enter,414,1,2116.100000023842,478105.3000000119,7097,WL,B,7.0
4,13.315000057220459,learn,46684.99994277954,Fri Apr 04 2025 14:03:06 GMT-0500 (Central Daylight Time),480389.8000000119,A,s,O,s,161,1,168.0,480221.8000000119,7097,WL,B,8.0
4,13.497999906539917,learn,46502.00009346008,Fri Apr 04 2025 14:03:06 GMT-0500 (Central Daylight Time),480572.90000003576,A,st,O,t,157,1,351.10000002384186,480221.8000000119,7097,WL,B,8.0
4,13.730000019073486,learn,46269.999980926514,Fri Apr 04 2025 14:03:06 GMT-0500 (Central Daylight Time),480805.40000003576,A,sta,O,a,199,1,583.6000000238419,480221.8000000119,7097,WL,B,8.0
4,13.897000074386597,learn,46102.9999256134,Fri Apr 04 2025 14:03:06 GMT-0500 (Central Daylight Time),480971.90000003576,A,star,O,r,125,1,750.1000000238419,480221.8000000119,7097,WL,B,8.0
4,14.461999893188477,learn,45538.00010681152,Fri Apr 04 2025 14:03:06 GMT-0500 (Central Daylight Time),481537.3000000119,A,starenter,O,enter,536,1,1315.5,480221.8000000119,7097,WL,B,8.0
4,14.71399998664856,learn,45286.00001335144,Fri Apr 04 2025 14:03:06 GMT-0500 (Central Daylight Time),481788.90000003576,A,w,O,w,245,1,251.30000001192093,481537.60000002384,7097,WL,B,9.0
4,14.913000106811523,learn,45086.99989318848,Fri Apr 04 2025 14:03:06 GMT-0500 (Central Daylight Time),481988.2000000477,A,wi,O,i,172,1,450.60000002384186,481537.60000002384,7097,WL,B,9.0
4,15.296000003814697,learn,44703.9999961853,Fri Apr 04 2025 14:03:06 GMT-0500 (Central Daylight Time),482371.40000003576,A,wif,O,f,344,1,833.8000000119209,481537.60000002384,7097,WL,B,9.0
4,15.479000091552734,learn,44520.999908447266,Fri Apr 04 2025 14:03:06 GMT-0500 (Central Daylight Time),482554.7000000477,A,wife,O,e,153,1,1017.1000000238419,481537.60000002384,7097,WL,B,9.0
4,16.210999965667725,learn,43789.000034332275,Fri Apr 04 2025 14:03:06 GMT-0500 (Central Daylight Time),483286.7000000477,A,wifeenter,O,enter,696,1,1749.1000000238419,481537.60000002384,7097,WL,B,9.0
4,16.578999996185303,learn,43421.0000038147,Fri Apr 04 2025 14:03:06 GMT-0500 (Central Daylight Time),483654.2000000477,A,c,O,c,359,1,367.2000000476837,483287.0,7097,WL,B,10.0
4,16.84599995613098,learn,43154.00004386902,Fri Apr 04 2025 14:03:06 GMT-0500 (Central Daylight Time),483921.10000002384,A,ci,O,i,229,1,634.1000000238419,483287.0,7097,WL,B,10.0
4,17.444999933242798,learn,42555.0000667572,Fri Apr 04 2025 14:03:06 GMT-0500 (Central Daylight Time),484520.7000000477,A,cit,O,t,570,1,1233.7000000476837,483287.0,7097,WL,B,10.0
4,17.67899990081787,learn,42321.00009918213,Fri Apr 04 2025 14:03:06 GMT-0500 (Central Daylight Time),484753.90000003576,A,city,O,y,194,1,1466.9000000357628,483287.0,7097,WL,B,10.0
4,18.344000101089478,learn,41655.99989891052,Fri Apr 04 2025 14:03:06 GMT-0500 (Central Daylight Time),485419.3000000119,A,cityenter,O,enter,641,1,2132.300000011921,483287.0,7097,WL,B,10.0
4,19.694999933242798,learn,40305.0000667572,Fri Apr 04 2025 14:03:06 GMT-0500 (Central Daylight Time),486770.0,A,c,O,c,1339,1,1350.5,485419.5,7097,WL,B,11.0
4,19.861000061035156,learn,40138.999938964844,Fri Apr 04 2025 14:03:06 GMT-0500 (Central Daylight Time),486936.3000000119,A,ca,O,a,137,1,1516.800000011921,485419.5,7097,WL,B,11.0
4,20.41100001335144,learn,39588.99998664856,Fri Apr 04 2025 14:03:06 GMT-0500 (Central Daylight Time),487486.60000002384,A,cab,O,b,515,1,2067.100000023842,485419.5,7097,WL,B,11.0
4,20.560999870300293,learn,39439.00012969971,Fri Apr 04 2025 14:03:06 GMT-0500 (Central Daylight Time),487636.3000000119,A,cabi,O,i,116,1,2216.800000011921,485419.5,7097,WL,B,11.0
4,20.793999910354614,learn,39206.000089645386,Fri Apr 04 2025 14:03:06 GMT-0500 (Central Daylight Time),487869.10000002384,A,cabin,O,n,210,1,2449.600000023842,485419.5,7097,WL,B,11.0
4,21.66000008583069,learn,38339.99991416931,Fri Apr 04 2025 14:03:06 GMT-0500 (Central Daylight Time),488735.0,A,cabinenter,O,enter,829,1,3315.5,485419.5,7097,WL,B,11.0
4,22.16100001335144,learn,37838.99998664856,Fri Apr 04 2025 14:03:06 GMT-0500 (Central Daylight Time),489235.8000000119,A,l,O,l,479,1,500.5999999642372,488735.2000000477,7097,WL,B,12.0
4,22.377000093460083,learn,37622.99990653992,Fri Apr 04 2025 14:03:06 GMT-0500 (Central Daylight Time),489452.40000003576,A,la,O,a,181,1,717.1999999880791,488735.2000000477,7097,WL,B,12.0
4,22.72699999809265,learn,37273.00000190735,Fri Apr 04 2025 14:03:06 GMT-0500 (Central Daylight Time),489802.3000000119,A,lak,O,k,319,1,1067.0999999642372,488735.2000000477,7097,WL,B,12.0
4,22.95899987220764,learn,37041.00012779236,Fri Apr 04 2025 14:03:06 GMT-0500 (Central Daylight Time),490034.40000003576,A,lake,O,e,199,1,1299.199999988079,488735.2000000477,7097,WL,B,12.0
4,23.575999975204468,learn,36424.00002479553,Fri Apr 04 2025 14:03:06 GMT-0500 (Central Daylight Time),490651.0,A,lakeenter,O,enter,602,1,1915.7999999523163,488735.2000000477,7097,WL,B,12.0
4,33.90599989891052,learn,26094.000101089478,Fri Apr 04 2025 14:03:06 GMT-0500 (Central Daylight Time),500980.90000003576,A,enter,O,enter,10314,1,10329.600000023842,490651.3000000119,7097,WL,B,13.0
4,34.305999994277954,learn,25694.000005722046,Fri Apr 04 2025 14:03:06 GMT-0500 (Central Daylight Time),501380.8000000119,A,enter,O,enter,392,1,399.5,500981.3000000119,7097,WL,B,14.0
4,35.105000019073486,learn,24894.999980926514,Fri Apr 04 2025 14:03:06 GMT-0500 (Central Daylight Time),502180.5,A,enter,O,enter,784,1,799.3999999761581,501381.10000002384,7097,WL,B,15.0
5,0.6170001029968262,learn,60000.0,Fri Apr 04 2025 14:03:06 GMT-0500 (Central Daylight Time),575774.5,A,p,O,p,583,1,616.5,575158.0,7097,WL,B,1.0
5,0.7829999923706055,learn,60000.0,Fri Apr 04 2025 14:03:06 GMT-0500 (Central Daylight Time),575940.9000000358,A,pu,O,u,133,1,782.9000000357628,575158.0,7097,WL,B,1.0
5,0.9830000400543213,learn,60000.0,Fri Apr 04 2025 14:03:06 GMT-0500 (Central Daylight Time),576140.7000000477,A,pup,O,p,160,1,982.7000000476837,575158.0,7097,WL,B,1.0
5,1.2999999523162842,learn,60000.0,Fri Apr 04 2025 14:03:06 GMT-0500 (Central Daylight Time),576457.6000000238,A,pupi,O,i,284,1,1299.6000000238419,575158.0,7097,WL,B,1.0
5,1.5490000247955322,learn,60000.0,Fri Apr 04 2025 14:03:06 GMT-0500 (Central Daylight Time),576707.3000000119,A,pupil,O,l,214,1,1549.300000011921,575158.0,7097,WL,B,1.0
5,1.8819999694824219,learn,60000.0,Fri Apr 04 2025 14:03:06 GMT-0500 (Central Daylight Time),577039.4000000358,A,pupilenter,O,enter,296,1,1881.4000000357628,575158.0,7097,WL,B,1.0
5,2.3320000171661377,learn,60000.0,Fri Apr 04 2025 14:03:06 GMT-0500 (Central Daylight Time),577489.9000000358,A,c,O,c,431,1,450.30000001192093,577039.6000000238,7097,WL,B,2.0
5,2.4660000801086426,learn,60000.0,Fri Apr 04 2025 14:03:06 GMT-0500 (Central Daylight Time),577623.5,A,ca,O,a,105,1,583.8999999761581,577039.6000000238,7097,WL,B,2.0
5,2.699000120162964,learn,60000.0,Fri Apr 04 2025 14:03:06 GMT-0500 (Central Daylight Time),577856.8000000119,A,cab,O,b,207,1,817.1999999880791,577039.6000000238,7097,WL,B,2.0
5,2.7820000648498535,learn,60000.0,Fri Apr 04 2025 14:03:06 GMT-0500 (Central Daylight Time),577939.3000000119,A,cabi,O,i,50,1,899.6999999880791,577039.6000000238,7097,WL,B,2.0
5,2.9660000801086426,learn,60000.0,Fri Apr 04 2025 14:03:06 GMT-0500 (Central Daylight Time),578123.3000000119,A,cabin,O,n,164,1,1083.699999988079,577039.6000000238,7097,WL,B,2.0
5,3.564000129699707,learn,60000.0,Fri Apr 04 2025 14:03:06 GMT-0500 (Central Daylight Time),578722.1000000238,A,cabinenter,O,enter,560,1,1682.5,577039.6000000238,7097,WL,B,2.0
5,3.8489999771118164,learn,60000.0,Fri Apr 04 2025 14:03:06 GMT-0500 (Central Daylight Time),579006.5,A,l,O,l,276,1,284.19999998807907,578722.3000000119,7097,WL,B,3.0
5,4.082000017166138,learn,60000.0,Fri Apr 04 2025 14:03:06 GMT-0500 (Central Daylight Time),579239.7000000477,A,la,O,a,197,1,517.4000000357628,578722.3000000119,7097,WL,B,3.0
5,4.2820000648498535,learn,60000.0,Fri Apr 04 2025 14:03:06 GMT-0500 (Central Daylight Time),579439.6000000238,A,lak,O,k,173,1,717.3000000119209,578722.3000000119,7097,WL,B,3.0
5,4.7820000648498535,learn,60000.0,Fri Apr 04 2025 14:03:06 GMT-0500 (Central Daylight Time),579939.5,A,lake,O,e,460,1,1217.199999988079,578722.3000000119,7097,WL,B,3.0
5,5.164000034332275,learn,60000.0,Fri Apr 04 2025 14:03:06 GMT-0500 (Central Daylight Time),580321.6000000238,A,lakeenter,O,enter,340,1,1599.300000011921,578722.3000000119,7097,WL,B,3.0
5,5.3480000495910645,learn,60000.0,Fri Apr 04 2025 14:03:06 GMT-0500 (Central Daylight Time),580505.8000000119,A,s,O,s,165,1,184.0,580321.8000000119,7097,WL,B,4.0
5,5.465000152587891,learn,60000.0,Fri Apr 04 2025 14:03:06 GMT-0500 (Central Daylight Time),580622.5,A,sk,O,k,81,1,300.69999998807907,580321.8000000119,7097,WL,B,4.0
5,5.63100004196167,learn,60000.0,Fri Apr 04 2025 14:03:06 GMT-0500 (Central Daylight Time),580788.6000000238,A,ski,O,i,132,1,466.80000001192093,580321.8000000119,7097,WL,B,4.0
5,5.831000089645386,learn,60000.0,Fri Apr 04 2025 14:03:06 GMT-0500 (Central Daylight Time),580988.9000000358,A,skin,O,n,169,1,667.1000000238419,580321.8000000119,7097,WL,B,4.0
5,6.314000129699707,learn,60000.0,Fri Apr 04 2025 14:03:06 GMT-0500 (Central Daylight Time),581471.3000000119,A,skinenter,O,enter,453,1,1149.5,580321.8000000119,7097,WL,B,4.0
5,6.664000034332275,learn,60000.0,Fri Apr 04 2025 14:03:06 GMT-0500 (Central Daylight Time),581822.2000000477,A,f,O,f,335,1,350.7000000476837,581471.5,7097,WL,B,5.0
5,6.79800009727478,learn,60000.0,Fri Apr 04 2025 14:03:06 GMT-0500 (Central Daylight Time),581955.3000000119,A,fi,O,i,104,1,483.80000001192093,581471.5,7097,WL,B,5.0
5,7.197999954223633,learn,60000.0,Fri Apr 04 2025 14:03:06 GMT-0500 (Central Daylight Time),582355.3000000119,A,fir,O,r,368,1,883.8000000119209,581471.5,7097,WL,B,5.0
5,7.314000129699707,learn,60000.0,Fri Apr 04 2025 14:03:06 GMT-0500 (Central Daylight Time),582472.1000000238,A,fire,O,e,89,1,1000.6000000238419,581471.5,7097,WL,B,5.0
5,7.564000129699707,learn,60000.0,Fri Apr 04 2025 14:03:06 GMT-0500 (Central Daylight Time),582721.9000000358,A,fireenter,O,enter,209,1,1250.4000000357628,581471.5,7097,WL,B,5.0
5,7.8470001220703125,learn,60000.0,Fri Apr 04 2025 14:03:06 GMT-0500 (Central Daylight Time),583005.1000000238,A,c,O,c,268,1,283.0,582722.1000000238,7097,WL,B,6.0
5,7.980000019073486,learn,60000.0,Fri Apr 04 2025 14:03:06 GMT-0500 (Central Daylight Time),583138.3000000119,A,cl,O,l,95,1,416.19999998807907,582722.1000000238,7097,WL,B,6.0
5,8.147000074386597,learn,60000.0,Fri Apr 04 2025 14:03:06 GMT-0500 (Central Daylight Time),583305.0,A,clo,O,o,138,1,582.8999999761581,582722.1000000238,7097,WL,B,6.0
5,8.29699993133545,learn,60000.0,Fri Apr 04 2025 14:03:06 GMT-0500 (Central Daylight Time),583454.9000000358,A,cloc,O,c,122,1,732.8000000119209,582722.1000000238,7097,WL,B,6.0
5,8.46399998664856,learn,60000.0,Fri Apr 04 2025 14:03:06 GMT-0500 (Central Daylight Time),583621.3000000119,A,clock,O,k,138,1,899.1999999880791,582722.1000000238,7097,WL,B,6.0
5,8.845999956130981,learn,60000.0,Fri Apr 04 2025 14:03:06 GMT-0500 (Central Daylight Time),584003.7000000477,A,clockenter,O,enter,351,1,1281.6000000238419,582722.1000000238,7097,WL,B,6.0
5,9.680000066757202,learn,60000.0,Fri Apr 04 2025 14:03:06 GMT-0500 (Central Daylight Time),584837.7000000477,A,d,O,d,818,1,833.7000000476837,584004.0,7097,WL,B,7.0
5,9.814000129699707,learn,60000.0,Fri Apr 04 2025 14:03:06 GMT-0500 (Central Daylight Time),584971.3000000119,A,do,O,o,93,1,967.3000000119209,584004.0,7097,WL,B,7.0
5,9.979000091552734,learn,60000.0,Fri Apr 04 2025 14:03:06 GMT-0500 (Central Daylight Time),585137.2000000477,A,doo,O,o,129,1,1133.2000000476837,584004.0,7097,WL,B,7.0
5,10.062000036239624,learn,60000.0,Fri Apr 04 2025 14:03:06 GMT-0500 (Central Daylight Time),585220.1000000238,A,door,O,r,59,1,1216.1000000238419,584004.0,7097,WL,B,7.0
5,10.729000091552734,learn,60000.0,Fri Apr 04 2025 14:03:06 GMT-0500 (Central Daylight Time),585886.4000000358,A,doorenter,O,enter,652,1,1882.4000000357628,584004.0,7097,WL,B,7.0
5,11.246000051498413,learn,60000.0,Fri Apr 04 2025 14:03:06 GMT-0500 (Central Daylight Time),586403.9000000358,A,g,O,g,496,1,517.1999999880791,585886.7000000477,7097,WL,B,8.0
5,11.845999956130981,learn,60000.0,Fri Apr 04 2025 14:03:06 GMT-0500 (Central Daylight Time),587003.8000000119,A,gr,O,r,568,1,1117.0999999642372,585886.7000000477,7097,WL,B,8.0
5,12.062999963760376,learn,60000.0,Fri Apr 04 2025 14:03:06 GMT-0500 (Central Daylight Time),587220.3000000119,A,gra,O,a,185,1,1333.5999999642372,585886.7000000477,7097,WL,B,8.0
5,12.378999948501587,learn,60000.0,Fri Apr 04 2025 14:03:06 GMT-0500 (Central Daylight Time),587536.9000000358,A,gras,O,s,281,1,1650.199999988079,585886.7000000477,7097,WL,B,8.0
5,12.680000066757202,learn,60000.0,Fri Apr 04 2025 14:03:06 GMT-0500 (Central Daylight Time),587837.4000000358,A,grass,O,s,275,1,1950.699999988079,585886.7000000477,7097,WL,B,8.0
5,13.57800006866455,learn,60000.0,Fri Apr 04 2025 14:03:06 GMT-0500 (Central Daylight Time),588735.5,A,grassenter,O,enter,868,1,2848.7999999523163,585886.7000000477,7097,WL,B,8.0
5,14.245000123977661,learn,60000.0,Fri Apr 04 2025 14:03:06 GMT-0500 (Central Daylight Time),589403.1000000238,A,s,O,s,654,1,667.3000000119209,588735.8000000119,7097,WL,B,9.0
5,14.496000051498413,learn,60000.0,Fri Apr 04 2025 14:03:06 GMT-0500 (Central Daylight Time),589653.4000000358,A,st,O,t,224,1,917.6000000238419,588735.8000000119,7097,WL,B,9.0
5,14.878999948501587,learn,60000.0,Fri Apr 04 2025 14:03:06 GMT-0500 (Central Daylight Time),590037.0,A,str,O,r,361,1,1301.199999988079,588735.8000000119,7097,WL,B,9.0
5,14.995000123977661,learn,60000.0,Fri Apr 04 2025 14:03:06 GMT-0500 (Central Daylight Time),590152.7000000477,A,stre,O,e,78,1,1416.9000000357628,588735.8000000119,7097,WL,B,9.0
5,15.245000123977661,learn,60000.0,Fri Apr 04 2025 14:03:06 GMT-0500 (Central Daylight Time),590402.6000000238,A,stree,O,e,211,1,1666.800000011921,588735.8000000119,7097,WL,B,9.0
5,15.995000123977661,learn,60000.0,Fri Apr 04 2025 14:03:06 GMT-0500 (Central Daylight Time),591152.3000000119,A,street,O,t,723,1,2416.5,588735.8000000119,7097,WL,B,9.0
5,17.110000133514404,learn,60000.0,Fri Apr 04 2025 14:03:06 GMT-0500 (Central Daylight Time),592267.7000000477,A,streetenter,O,enter,1084,1,3531.900000035763,588735.8000000119,7097,WL,B,9.0
5,17.427000045776367,learn,60000.0,Fri Apr 04 2025 14:03:06 GMT-0500 (Central Daylight Time),592585.0,A,a,O,a,298,1,317.0999999642372,592267.9000000358,7097,WL,B,10.0
5,17.544000148773193,learn,60000.0,Fri Apr 04 2025 14:03:06 GMT-0500 (Central Daylight Time),592701.8000000119,A,ar,O,r,83,1,433.89999997615814,592267.9000000358,7097,WL,B,10.0
5,17.776999950408936,learn,60000.0,Fri Apr 04 2025 14:03:06 GMT-0500 (Central Daylight Time),592935.0,A,arm,O,m,206,1,667.0999999642372,592267.9000000358,7097,WL,B,10.0
5,18.16000008583069,learn,60000.0,Fri Apr 04 2025 14:03:06 GMT-0500 (Central Daylight Time),593317.3000000119,A,armenter,O,enter,356,1,1049.3999999761581,592267.9000000358,7097,WL,B,10.0
5,18.710000038146973,learn,60000.0,Fri Apr 04 2025 14:03:06 GMT-0500 (Central Daylight Time),593868.0,A,s,O,s,529,1,550.3999999761581,593317.6000000238,7097,WL,B,11.0
5,18.943000078201294,learn,60000.0,Fri Apr 04 2025 14:03:06 GMT-0500 (Central Daylight Time),594101.2000000477,A,st,O,t,208,1,783.6000000238419,593317.6000000238,7097,WL,B,11.0
5,19.210000038146973,learn,60000.0,Fri Apr 04 2025 14:03:06 GMT-0500 (Central Daylight Time),594367.9000000358,A,sta,O,a,229,1,1050.300000011921,593317.6000000238,7097,WL,B,11.0
5,19.41000008583069,learn,60000.0,Fri Apr 04 2025 14:03:06 GMT-0500 (Central Daylight Time),594567.8000000119,A,star,O,r,171,1,1250.199999988079,593317.6000000238,7097,WL,B,11.0
5,19.676000118255615,learn,60000.0,Fri Apr 04 2025 14:03:06 GMT-0500 (Central Daylight Time),594833.5,A,starenter,O,enter,235,1,1515.8999999761581,593317.6000000238,7097,WL,B,11.0
5,19.875999927520752,learn,60000.0,Fri Apr 04 2025 14:03:06 GMT-0500 (Central Daylight Time),595034.2000000477,A,w,O,w,181,1,200.5,594833.7000000477,7097,WL,B,12.0
5,20.009999990463257,learn,60000.0,Fri Apr 04 2025 14:03:06 GMT-0500 (Central Daylight Time),595167.6000000238,A,wi,O,i,97,1,333.89999997615814,594833.7000000477,7097,WL,B,12.0
5,20.176000118255615,learn,60000.0,Fri Apr 04 2025 14:03:06 GMT-0500 (Central Daylight Time),595333.8000000119,A,wif,O,f,140,1,500.0999999642372,594833.7000000477,7097,WL,B,12.0
5,20.360000133514404,learn,60000.0,Fri Apr 04 2025 14:03:06 GMT-0500 (Central Daylight Time),595517.4000000358,A,wife,O,e,157,1,683.6999999880791,594833.7000000477,7097,WL,B,12.0
5,22.04200005531311,learn,60000.0,Fri Apr 04 2025 14:03:06 GMT-0500 (Central Daylight Time),597199.3000000119,A,wifeenter,O,enter,1653,1,2365.599999964237,594833.7000000477,7097,WL,B,12.0
5,22.710000038146973,learn,60000.0,Fri Apr 04 2025 14:03:06 GMT-0500 (Central Daylight Time),597866.9000000358,A,w,O,w,654,1,667.3000000119209,597199.6000000238,7097,WL,B,13.0
5,22.825999975204468,learn,60000.0,Fri Apr 04 2025 14:03:06 GMT-0500 (Central Daylight Time),597983.3000000119,A,wi,O,i,81,1,783.6999999880791,597199.6000000238,7097,WL,B,13.0
5,23.042999982833862,learn,60000.0,Fri Apr 04 2025 14:03:06 GMT-0500 (Central Daylight Time),598200.0,A,win,O,n,181,1,1000.3999999761581,597199.6000000238,7097,WL,B,13.0
5,23.192000150680542,learn,60000.0,Fri Apr 04 2025 14:03:06 GMT-0500 (Central Daylight Time),598349.7000000477,A,wind,O,d,125,1,1150.1000000238419,597199.6000000238,7097,WL,B,13.0
5,23.30900001525879,learn,60000.0,Fri Apr 04 2025 14:03:06 GMT-0500 (Central Daylight Time),598466.6000000238,A,windo,O,o,85,1,1267.0,597199.6000000238,7097,WL,B,13.0
5,23.926000118255615,learn,60000.0,Fri Apr 04 2025 14:03:06 GMT-0500 (Central Daylight Time),599083.1000000238,A,window,O,w,576,1,1883.5,597199.6000000238,7097,WL,B,13.0
5,24.69099998474121,learn,60000.0,Fri Apr 04 2025 14:03:06 GMT-0500 (Central Daylight Time),599848.5,A,windowenter,O,enter,734,1,2648.899999976158,597199.6000000238,7097,WL,B,13.0
5,26.342000007629395,learn,60000.0,Fri Apr 04 2025 14:03:06 GMT-0500 (Central Daylight Time),601498.9000000358,A,c,O,c,1638,1,1650.199999988079,599848.7000000477,7097,WL,B,14.0
5,26.475000143051147,learn,60000.0,Fri Apr 04 2025 14:03:06 GMT-0500 (Central Daylight Time),601632.1000000238,A,ci,O,i,97,1,1783.3999999761581,599848.7000000477,7097,WL,B,14.0
5,26.657999992370605,learn,60000.0,Fri Apr 04 2025 14:03:06 GMT-0500 (Central Daylight Time),601815.1000000238,A,cit,O,t,156,1,1966.3999999761581,599848.7000000477,7097,WL,B,14.0
5,26.77500009536743,learn,60000.0,Fri Apr 04 2025 14:03:06 GMT-0500 (Central Daylight Time),601932.0,A,city,O,y,79,1,2083.2999999523163,599848.7000000477,7097,WL,B,14.0
5,27.006999969482422,learn,60000.0,Fri Apr 04 2025 14:03:06 GMT-0500 (Central Daylight Time),602164.4000000358,A,cityenter,O,enter,199,1,2315.699999988079,599848.7000000477,7097,WL,B,14.0
5,28.490000009536743,learn,60000.0,Fri Apr 04 2025 14:03:06 GMT-0500 (Central Daylight Time),603647.3000000119,A,enter,O,enter,1465,1,1482.5999999642372,602164.7000000477,7097,WL,B,15.0
6,0.43400001525878906,distr,59565.99998474121,Fri Apr 04 2025 14:03:06 GMT-0500 (Central Daylight Time),682422.5,B,c,O,c,408,1,433.69999998807907,681988.8000000119,7097,WL,B,1.0
6,0.6990001201629639,distr,59300.999879837036,Fri Apr 04 2025 14:03:06 GMT-0500 (Central Daylight Time),682688.1000000238,B,ce,O,e,227,1,699.3000000119209,681988.8000000119,7097,WL,B,1.0
6,0.9330000877380371,distr,59066.99991226196,Fri Apr 04 2025 14:03:06 GMT-0500 (Central Daylight Time),682922.3000000119,B,cel,O,l,220,1,933.5,681988.8000000119,7097,WL,B,1.0
6,1.1000001430511475,distr,58899.99985694885,Fri Apr 04 2025 14:03:06 GMT-0500 (Central Daylight Time),683088.6000000238,B,cell,O,l,137,1,1099.800000011921,681988.8000000119,7097,WL,B,1.0
6,1.499000072479248,distr,58500.99992752075,Fri Apr 04 2025 14:03:06 GMT-0500 (Central Daylight Time),683487.8000000119,B,cellenter,O,enter,364,1,1499.0,681988.8000000119,7097,WL,B,1.0
6,1.7160000801086426,distr,58283.99991989136,Fri Apr 04 2025 14:03:06 GMT-0500 (Central Daylight Time),683705.1000000238,B,b,O,b,198,1,217.10000002384186,683488.0,7097,WL,B,2.0
6,1.883000135421753,distr,58116.99986457825,Fri Apr 04 2025 14:03:06 GMT-0500 (Central Daylight Time),683871.8000000119,B,ba,O,a,131,1,383.80000001192093,683488.0,7097,WL,B,2.0
6,2.1000001430511475,distr,57899.99985694885,Fri Apr 04 2025 14:03:06 GMT-0500 (Central Daylight Time),684088.5,B,bab,O,b,191,1,600.5,683488.0,7097,WL,B,2.0
6,2.315999984741211,distr,57684.00001525879,Fri Apr 04 2025 14:03:06 GMT-0500 (Central Daylight Time),684305.1000000238,B,baby,O,y,179,1,817.1000000238419,683488.0,7097,WL,B,2.0
6,2.5989999771118164,distr,57401.00002288818,Fri Apr 04 2025 14:03:06 GMT-0500 (Central Daylight Time),684587.3000000119,B,babyenter,O,enter,247,1,1099.300000011921,683488.0,7097,WL,B,2.0
6,3.1660001277923584,distr,56833.99987220764,Fri Apr 04 2025 14:03:06 GMT-0500 (Central Daylight Time),685154.7000000477,B,o,O,o,547,1,567.1000000238419,684587.6000000238,7097,WL,B,3.0
6,3.5160000324249268,distr,56483.99996757507,Fri Apr 04 2025 14:03:06 GMT-0500 (Central Daylight Time),685504.5,B,oc,O,c,313,1,916.8999999761581,684587.6000000238,7097,WL,B,3.0
6,4.166000127792358,distr,55833.99987220764,Fri Apr 04 2025 14:03:06 GMT-0500 (Central Daylight Time),686154.4000000358,B,oce,O,e,613,1,1566.800000011921,684587.6000000238,7097,WL,B,3.0
6,4.466000080108643,distr,55533.99991989136,Fri Apr 04 2025 14:03:06 GMT-0500 (Central Daylight Time),686454.5,B,ocea,O,a,266,1,1866.8999999761581,684587.6000000238,7097,WL,B,3.0
6,4.766000032424927,distr,55233.99996757507,Fri Apr 04 2025 14:03:06 GMT-0500 (Central Daylight Time),686754.4000000358,B,ocean,O,n,267,1,2166.800000011921,684587.6000000238,7097,WL,B,3.0
6,5.04800009727478,distr,54951.99990272522,Fri Apr 04 2025 14:03:06 GMT-0500 (Central Daylight Time),687036.6000000238,B,oceanenter,O,enter,255,1,2449.0,684587.6000000238,7097,WL,B,3.0
6,5.615000009536743,distr,54384.99999046326,Fri Apr 04 2025 14:03:06 GMT-0500 (Central Daylight Time),687604.0,B,a,O,a,553,1,567.1999999880791,687036.8000000119,7097,WL,B,4.0
6,6.381999969482422,distr,53618.00003051758,Fri Apr 04 2025 14:03:06 GMT-0500 (Central Daylight Time),688370.5,B,,O,backspace,726,1,1333.699999988079,687036.8000000119,7097,WL,B,4.0
6,6.848999977111816,distr,53151.00002288818,Fri Apr 04 2025 14:03:06 GMT-0500 (Central Daylight Time),688837.5,B,p,O,p,443,1,1800.699999988079,687036.8000000119,7097,WL,B,4.0
6,7.263999938964844,distr,52736.000061035156,Fri Apr 04 2025 14:03:06 GMT-0500 (Central Daylight Time),689253.2000000477,B,pa,O,a,393,1,2216.400000035763,687036.8000000119,7097,WL,B,4.0
6,7.515000104904175,distr,52484.999895095825,Fri Apr 04 2025 14:03:06 GMT-0500 (Central Daylight Time),689503.4000000358,B,pal,O,l,223,1,2466.600000023842,687036.8000000119,7097,WL,B,4.0
6,7.648000001907349,distr,52351.99999809265,Fri Apr 04 2025 14:03:06 GMT-0500 (Central Daylight Time),689637.2000000477,B,pala,O,a,108,1,2600.400000035763,687036.8000000119,7097,WL,B,4.0
6,7.914999961853027,distr,52085.00003814697,Fri Apr 04 2025 14:03:06 GMT-0500 (Central Daylight Time),689903.3000000119,B,palac,O,c,238,1,2866.5,687036.8000000119,7097,WL,B,4.0
6,8.164999961853027,distr,51835.00003814697,Fri Apr 04 2025 14:03:06 GMT-0500 (Central Daylight Time),690153.3000000119,B,palace,O,e,212,1,3116.5,687036.8000000119,7097,WL,B,4.0
6,8.329999923706055,distr,51670.000076293945,Fri Apr 04 2025 14:03:06 GMT-0500 (Central Daylight Time),690318.9000000358,B,palaceenter,O,enter,138,1,3282.100000023842,687036.8000000119,7097,WL,B,4.0
6,8.648000001907349,distr,51351.99999809265,Fri Apr 04 2025 14:03:06 GMT-0500 (Central Daylight Time),690636.4000000358,B,l,O,l,295,1,317.10000002384186,690319.3000000119,7097,WL,B,5.0
6,8.831000089645386,distr,51168.999910354614,Fri Apr 04 2025 14:03:06 GMT-0500 (Central Daylight Time),690819.6000000238,B,li,O,i,155,1,500.30000001192093,690319.3000000119,7097,WL,B,5.0
6,9.064000129699707,distr,50935.99987030029,Fri Apr 04 2025 14:03:06 GMT-0500 (Central Daylight Time),691052.9000000358,B,lip,O,p,205,1,733.6000000238419,690319.3000000119,7097,WL,B,5.0
6,9.36299991607666,distr,50637.00008392334,Fri Apr 04 2025 14:03:06 GMT-0500 (Central Daylight Time),691351.8000000119,B,lipenter,O,enter,268,1,1032.5,690319.3000000119,7097,WL,B,5.0
6,9.647000074386597,distr,50352.9999256134,Fri Apr 04 2025 14:03:06 GMT-0500 (Central Daylight Time),691636.1000000238,B,b,O,b,270,1,284.10000002384186,691352.0,7097,WL,B,6.0
6,9.847000122070312,distr,50152.99987792969,Fri Apr 04 2025 14:03:06 GMT-0500 (Central Daylight Time),691835.9000000358,B,ba,O,a,158,1,483.9000000357628,691352.0,7097,WL,B,6.0
6,9.996999979019165,distr,50003.000020980835,Fri Apr 04 2025 14:03:06 GMT-0500 (Central Daylight Time),691985.7000000477,B,bar,O,r,114,1,633.7000000476837,691352.0,7097,WL,B,6.0
6,10.263000011444092,distr,49736.99998855591,Fri Apr 04 2025 14:03:06 GMT-0500 (Central Daylight Time),692251.6000000238,B,barenter,O,enter,235,1,899.6000000238419,691352.0,7097,WL,B,6.0
6,10.52999997138977,distr,49470.00002861023,Fri Apr 04 2025 14:03:06 GMT-0500 (Central Daylight Time),692519.1000000238,B,s,O,s,251,1,267.39999997615814,692251.7000000477,7097,WL,B,7.0
6,10.647000074386597,distr,49352.9999256134,Fri Apr 04 2025 14:03:06 GMT-0500 (Central Daylight Time),692635.8000000119,B,st,O,t,77,1,384.0999999642372,692251.7000000477,7097,WL,B,7.0
6,10.897000074386597,distr,49102.9999256134,Fri Apr 04 2025 14:03:06 GMT-0500 (Central Daylight Time),692885.5,B,str,O,r,224,1,633.7999999523163,692251.7000000477,7097,WL,B,7.0
6,10.980000019073486,distr,49019.999980926514,Fri Apr 04 2025 14:03:06 GMT-0500 (Central Daylight Time),692968.6000000238,B,stre,O,e,48,1,716.8999999761581,692251.7000000477,7097,WL,B,7.0
6,11.147000074386597,distr,48852.9999256134,Fri Apr 04 2025 14:03:06 GMT-0500 (Central Daylight Time),693135.6000000238,B,strea,O,a,131,1,883.8999999761581,692251.7000000477,7097,WL,B,7.0
6,11.312999963760376,distr,48687.000036239624,Fri Apr 04 2025 14:03:06 GMT-0500 (Central Daylight Time),693302.2000000477,B,stream,O,m,131,1,1050.5,692251.7000000477,7097,WL,B,7.0
6,11.546000003814697,distr,48453.9999961853,Fri Apr 04 2025 14:03:06 GMT-0500 (Central Daylight Time),693534.5,B,streamenter,O,enter,196,1,1282.7999999523163,692251.7000000477,7097,WL,B,7.0
6,11.713000059127808,distr,48286.99994087219,Fri Apr 04 2025 14:03:06 GMT-0500 (Central Daylight Time),693702.0,B,a,O,a,152,1,167.29999995231628,693534.7000000477,7097,WL,B,8.0
6,11.847000122070312,distr,48152.99987792969,Fri Apr 04 2025 14:03:06 GMT-0500 (Central Daylight Time),693835.4000000358,B,ar,O,r,102,1,300.69999998807907,693534.7000000477,7097,WL,B,8.0
6,12.079999923706055,distr,47920.000076293945,Fri Apr 04 2025 14:03:06 GMT-0500 (Central Daylight Time),694068.6000000238,B,arm,O,m,201,1,533.8999999761581,693534.7000000477,7097,WL,B,8.0
6,12.36299991607666,distr,47637.00008392334,Fri Apr 04 2025 14:03:06 GMT-0500 (Central Daylight Time),694351.7000000477,B,army,O,y,246,1,817.0,693534.7000000477,7097,WL,B,8.0
6,13.09500002861023,distr,46904.99997138977,Fri Apr 04 2025 14:03:06 GMT-0500 (Central Daylight Time),695083.8000000119,B,armyenter,O,enter,707,1,1549.0999999642372,693534.7000000477,7097,WL,B,8.0
6,14.01200008392334,distr,45987.99991607666,Fri Apr 04 2025 14:03:06 GMT-0500 (Central Daylight Time),696001.3000000119,B,f,O,f,906,1,917.3000000119209,695084.0,7097,WL,B,9.0
6,14.128999948501587,distr,45871.00005149841,Fri Apr 04 2025 14:03:06 GMT-0500 (Central Daylight Time),696117.8000000119,B,fi,O,i,80,1,1033.800000011921,695084.0,7097,WL,B,9.0
6,14.184000015258789,distr,45815.99998474121,Fri Apr 04 2025 14:03:06 GMT-0500 (Central Daylight Time),696172.5,B,fir,O,r,30,1,1088.5,695084.0,7097,WL,B,9.0
6,14.328999996185303,distr,45671.0000038147,Fri Apr 04 2025 14:03:06 GMT-0500 (Central Daylight Time),696318.0,B,fire,O,e,127,1,1234.0,695084.0,7097,WL,B,9.0
6,14.895999908447266,distr,45104.000091552734,Fri Apr 04 2025 14:03:06 GMT-0500 (Central Daylight Time),696884.8000000119,B,fir,O,backspace,549,1,1800.800000011921,695084.0,7097,WL,B,9.0
6,15.078999996185303,distr,44921.0000038147,Fri Apr 04 2025 14:03:06 GMT-0500 (Central Daylight Time),697067.6000000238,B,fi,O,backspace,151,1,1983.6000000238419,695084.0,7097,WL,B,9.0
6,15.245000123977661,distr,44754.99987602234,Fri Apr 04 2025 14:03:06 GMT-0500 (Central Daylight Time),697234.0,B,f,O,backspace,128,1,2150.0,695084.0,7097,WL,B,9.0
6,15.312000036239624,distr,44687.999963760376,Fri Apr 04 2025 14:03:06 GMT-0500 (Central Daylight Time),697300.3000000119,B,fr,O,r,41,1,2216.300000011921,695084.0,7097,WL,B,9.0
6,15.444999933242798,distr,44555.0000667572,Fri Apr 04 2025 14:03:06 GMT-0500 (Central Daylight Time),697433.9000000358,B,fri,O,i,117,1,2349.900000035763,695084.0,7097,WL,B,9.0
6,15.545000076293945,distr,44454.999923706055,Fri Apr 04 2025 14:03:06 GMT-0500 (Central Daylight Time),697533.4000000358,B,frie,O,e,69,1,2449.400000035763,695084.0,7097,WL,B,9.0
6,15.661999940872192,distr,44338.00005912781,Fri Apr 04 2025 14:03:06 GMT-0500 (Central Daylight Time),697650.3000000119,B,frien,O,n,80,1,2566.300000011921,695084.0,7097,WL,B,9.0
6,15.84500002861023,distr,44154.99997138977,Fri Apr 04 2025 14:03:06 GMT-0500 (Central Daylight Time),697833.6000000238,B,friend,O,d,152,1,2749.600000023842,695084.0,7097,WL,B,9.0
6,16.311000108718872,distr,43688.99989128113,Fri Apr 04 2025 14:03:06 GMT-0500 (Central Daylight Time),698299.5,B,friendenter,O,enter,434,1,3215.5,695084.0,7097,WL,B,9.0
6,21.561000108718872,distr,38438.99989128113,Fri Apr 04 2025 14:03:06 GMT-0500 (Central Daylight Time),703549.3000000119,B,d,O,d,5243,1,5249.599999964237,698299.7000000477,7097,WL,B,10.0
6,21.776000022888184,distr,38223.99997711182,Fri Apr 04 2025 14:03:06 GMT-0500 (Central Daylight Time),703765.2000000477,B,dr,O,r,191,1,5465.5,698299.7000000477,7097,WL,B,10.0
6,22.64300012588501,distr,37356.99987411499,Fri Apr 04 2025 14:03:06 GMT-0500 (Central Daylight Time),704631.6000000238,B,dre,O,e,839,1,6331.899999976158,698299.7000000477,7097,WL,B,10.0
6,22.842000007629395,distr,37157.999992370605,Fri Apr 04 2025 14:03:06 GMT-0500 (Central Daylight Time),704831.2000000477,B,dres,O,s,175,1,6531.5,698299.7000000477,7097,WL,B,10.0
6,23.009999990463257,distr,36990.00000953674,Fri Apr 04 2025 14:03:06 GMT-0500 (Central Daylight Time),704998.3000000119,B,dress,O,s,151,1,6698.599999964237,698299.7000000477,7097,WL,B,10.0
6,23.174999952316284,distr,36825.000047683716,Fri Apr 04 2025 14:03:06 GMT-0500 (Central Daylight Time),705163.8000000119,B,dressenter,O,enter,141,1,6864.099999964237,698299.7000000477,7097,WL,B,10.0
6,24.52500009536743,distr,35474.99990463257,Fri Apr 04 2025 14:03:06 GMT-0500 (Central Daylight Time),706513.5,B,enter,O,enter,1329,1,1349.3999999761581,705164.1000000238,7097,WL,B,11.0
6,24.79100012779236,distr,35208.99987220764,Fri Apr 04 2025 14:03:06 GMT-0500 (Central Daylight Time),706780.0,B,enter,O,enter,260,1,266.19999998807907,706513.8000000119,7097,WL,B,12.0
6,24.990999937057495,distr,35009.000062942505,Fri Apr 04 2025 14:03:06 GMT-0500 (Central Daylight Time),706980.0,B,enter,O,enter,185,1,199.69999998807907,706780.3000000119,7097,WL,B,13.0
6,25.591000080108643,distr,34408.99991989136,Fri Apr 04 2025 14:03:06 GMT-0500 (Central Daylight Time),707579.8000000119,B,enter,O,enter,585,1,599.5,706980.3000000119,7097,WL,B,14.0
6,26.04100012779236,distr,33958.99987220764,Fri Apr 04 2025 14:03:06 GMT-0500 (Central Daylight Time),708029.6000000238,B,enter,O,enter,441,1,449.5,707580.1000000238,7097,WL,B,15.0
7,6.898000001907349,immed,53101.99999809265,Fri Apr 04 2025 14:03:06 GMT-0500 (Central Daylight Time),715994.9000000358,A,a,O,a,6860,1,6897.100000023842,709097.8000000119,7097,WL,B,1.0
7,7.398000001907349,immed,52601.99999809265,Fri Apr 04 2025 14:03:06 GMT-0500 (Central Daylight Time),716494.6000000238,A,ar,O,r,472,1,7396.800000011921,709097.8000000119,7097,WL,B,1.0
7,8.1489999294281,immed,51851.0000705719,Fri Apr 04 2025 14:03:06 GMT-0500 (Central Daylight Time),717245.0,A,a,O,backspace,727,1,8147.199999988079,709097.8000000119,7097,WL,B,1.0
7,8.331000089645386,immed,51668.999910354614,Fri Apr 04 2025 14:03:06 GMT-0500 (Central Daylight Time),717427.6000000238,A,,O,backspace,152,1,8329.800000011921,709097.8000000119,7097,WL,B,1.0
7,8.464999914169312,immed,51535.00008583069,Fri Apr 04 2025 14:03:06 GMT-0500 (Central Daylight Time),717560.9000000358,A,,O,backspace,108,1,8463.100000023842,709097.8000000119,7097,WL,B,1.0
7,8.563999891281128,immed,51436.00010871887,Fri Apr 04 2025 14:03:06 GMT-0500 (Central Daylight Time),717660.3000000119,A,g,O,g,77,1,8562.5,709097.8000000119,7097,WL,B,1.0
7,8.765000104904175,immed,51234.999895095825,Fri Apr 04 2025 14:03:06 GMT-0500 (Central Daylight Time),717861.4000000358,A,gr,O,r,186,1,8763.600000023842,709097.8000000119,7097,WL,B,1.0
7,8.864000082015991,immed,51135.99991798401,Fri Apr 04 2025 14:03:06 GMT-0500 (Central Daylight Time),717960.6000000238,A,gra,O,a,70,1,8862.800000011921,709097.8000000119,7097,WL,B,1.0
7,9.081000089645386,immed,50918.999910354614,Fri Apr 04 2025 14:03:06 GMT-0500 (Central Daylight Time),718177.3000000119,A,gras,O,s,188,1,9079.5,709097.8000000119,7097,WL,B,1.0
7,9.280999898910522,immed,50719.00010108948,Fri Apr 04 2025 14:03:06 GMT-0500 (Central Daylight Time),718377.4000000358,A,grass,O,s,164,1,9279.600000023842,709097.8000000119,7097,WL,B,1.0
7,10.364000082015991,immed,49635.99991798401,Fri Apr 04 2025 14:03:06 GMT-0500 (Central Daylight Time),719460.3000000119,A,grassenter,O,enter,1039,1,10362.5,709097.8000000119,7097,WL,B,1.0
7,11.180000066757202,immed,48819.9999332428,Fri Apr 04 2025 14:03:06 GMT-0500 (Central Daylight Time),720276.0,A,s,O,s,800,1,815.5,719460.5,7097,WL,B,2.0
7,11.364000082015991,immed,48635.99991798401,Fri Apr 04 2025 14:03:06 GMT-0500 (Central Daylight Time),720460.0,A,st,O,t,162,1,999.5,719460.5,7097,WL,B,2.0
7,11.662999868392944,immed,48337.000131607056,Fri Apr 04 2025 14:03:06 GMT-0500 (Central Daylight Time),720759.6000000238,A,str,O,r,275,1,1299.1000000238419,719460.5,7097,WL,B,2.0
7,11.746000051498413,immed,48253.99994850159,Fri Apr 04 2025 14:03:06 GMT-0500 (Central Daylight Time),720842.5,A,stre,O,e,47,1,1382.0,719460.5,7097,WL,B,2.0
7,11.963000059127808,immed,48036.99994087219,Fri Apr 04 2025 14:03:06 GMT-0500 (Central Daylight Time),721059.7000000477,A,stree,O,e,198,1,1599.2000000476837,719460.5,7097,WL,B,2.0
7,12.496999979019165,immed,47503.000020980835,Fri Apr 04 2025 14:03:06 GMT-0500 (Central Daylight Time),721592.9000000358,A,street,O,t,504,1,2132.400000035763,719460.5,7097,WL,B,2.0
7,12.996999979019165,immed,47003.000020980835,Fri Apr 04 2025 14:03:06 GMT-0500 (Central Daylight Time),722092.8000000119,A,streetenter,O,enter,474,1,2632.300000011921,719460.5,7097,WL,B,2.0
7,13.263000011444092,immed,46736.99998855591,Fri Apr 04 2025 14:03:06 GMT-0500 (Central Daylight Time),722359.2000000477,A,d,O,d,249,1,266.2000000476837,722093.0,7097,WL,B,3.0
7,13.628999948501587,immed,46371.00005149841,Fri Apr 04 2025 14:03:06 GMT-0500 (Central Daylight Time),722725.7000000477,A,do,O,o,332,1,632.7000000476837,722093.0,7097,WL,B,3.0
7,13.77999997138977,immed,46220.00002861023,Fri Apr 04 2025 14:03:06 GMT-0500 (Central Daylight Time),722875.8000000119,A,doo,O,o,119,1,782.8000000119209,722093.0,7097,WL,B,3.0
7,13.946000099182129,immed,46053.99990081787,Fri Apr 04 2025 14:03:06 GMT-0500 (Central Daylight Time),723042.4000000358,A,door,O,r,128,1,949.4000000357628,722093.0,7097,WL,B,3.0
7,14.194999933242798,immed,45805.0000667572,Fri Apr 04 2025 14:03:06 GMT-0500 (Central Daylight Time),723291.4000000358,A,doorenter,O,enter,216,1,1198.4000000357628,722093.0,7097,WL,B,3.0
7,14.479000091552734,immed,45520.999908447266,Fri Apr 04 2025 14:03:06 GMT-0500 (Central Daylight Time),723575.6000000238,A,a,O,a,275,1,284.0,723291.6000000238,7097,WL,B,4.0
7,14.628999948501587,immed,45371.00005149841,Fri Apr 04 2025 14:03:06 GMT-0500 (Central Daylight Time),723725.7000000477,A,ar,O,r,126,1,434.10000002384186,723291.6000000238,7097,WL,B,4.0
7,14.812000036239624,immed,45187.999963760376,Fri Apr 04 2025 14:03:06 GMT-0500 (Central Daylight Time),723908.5,A,arm,O,m,152,1,616.8999999761581,723291.6000000238,7097,WL,B,4.0
7,15.161999940872192,immed,44838.00005912781,Fri Apr 04 2025 14:03:06 GMT-0500 (Central Daylight Time),724257.7000000477,A,armenter,O,enter,317,1,966.1000000238419,723291.6000000238,7097,WL,B,4.0
7,15.61299991607666,immed,44387.00008392334,Fri Apr 04 2025 14:03:06 GMT-0500 (Central Daylight Time),724709.1000000238,A,p,O,p,444,1,451.19999998807907,724257.9000000358,7097,WL,B,5.0
7,15.894999980926514,immed,44105.000019073486,Fri Apr 04 2025 14:03:06 GMT-0500 (Central Daylight Time),724991.7000000477,A,pu,O,u,246,1,733.8000000119209,724257.9000000358,7097,WL,B,5.0
7,16.194999933242798,immed,43805.0000667572,Fri Apr 04 2025 14:03:06 GMT-0500 (Central Daylight Time),725291.5,A,pup,O,p,259,1,1033.5999999642372,724257.9000000358,7097,WL,B,5.0
7,16.578999996185303,immed,43421.0000038147,Fri Apr 04 2025 14:03:06 GMT-0500 (Central Daylight Time),725674.9000000358,A,pupi,O,i,345,1,1417.0,724257.9000000358,7097,WL,B,5.0
7,16.777999877929688,immed,43222.00012207031,Fri Apr 04 2025 14:03:06 GMT-0500 (Central Daylight Time),725874.5,A,pupil,O,l,170,1,1616.5999999642372,724257.9000000358,7097,WL,B,5.0
7,17.027999877929688,immed,42972.00012207031,Fri Apr 04 2025 14:03:06 GMT-0500 (Central Daylight Time),726123.9000000358,A,pupilenter,O,enter,216,1,1866.0,724257.9000000358,7097,WL,B,5.0
7,18.045000076293945,immed,41954.999923706055,Fri Apr 04 2025 14:03:06 GMT-0500 (Central Daylight Time),727141.3000000119,A,s,O,s,995,1,1017.1999999880791,726124.1000000238,7097,WL,B,6.0
7,18.26099991798401,immed,41739.00008201599,Fri Apr 04 2025 14:03:06 GMT-0500 (Central Daylight Time),727357.5,A,st,O,t,183,1,1233.3999999761581,726124.1000000238,7097,WL,B,6.0
7,18.444999933242798,immed,41555.0000667572,Fri Apr 04 2025 14:03:06 GMT-0500 (Central Daylight Time),727540.7000000477,A,sta,O,a,152,1,1416.6000000238419,726124.1000000238,7097,WL,B,6.0
7,18.611000061035156,immed,41388.999938964844,Fri Apr 04 2025 14:03:06 GMT-0500 (Central Daylight Time),727707.4000000358,A,star,O,r,131,1,1583.300000011921,726124.1000000238,7097,WL,B,6.0
7,18.91000008583069,immed,41089.99991416931,Fri Apr 04 2025 14:03:06 GMT-0500 (Central Daylight Time),728006.5,A,starenter,O,enter,272,1,1882.3999999761581,726124.1000000238,7097,WL,B,6.0
7,19.26099991798401,immed,40739.00008201599,Fri Apr 04 2025 14:03:06 GMT-0500 (Central Daylight Time),728357.3000000119,A,w,O,w,336,1,350.5999999642372,728006.7000000477,7097,WL,B,7.0
7,19.477999925613403,immed,40522.0000743866,Fri Apr 04 2025 14:03:06 GMT-0500 (Central Daylight Time),728574.0,A,wi,O,i,181,1,567.2999999523163,728006.7000000477,7097,WL,B,7.0
7,19.694000005722046,immed,40305.999994277954,Fri Apr 04 2025 14:03:06 GMT-0500 (Central Daylight Time),728790.4000000358,A,wif,O,f,190,1,783.6999999880791,728006.7000000477,7097,WL,B,7.0
7,19.89400005340576,immed,40105.99994659424,Fri Apr 04 2025 14:03:06 GMT-0500 (Central Daylight Time),728990.1000000238,A,wife,O,e,173,1,983.3999999761581,728006.7000000477,7097,WL,B,7.0
7,20.259999990463257,immed,39740.00000953674,Fri Apr 04 2025 14:03:06 GMT-0500 (Central Daylight Time),729356.0,A,wifeenter,O,enter,340,1,1349.2999999523163,728006.7000000477,7097,WL,B,7.0
7,20.543999910354614,immed,39456.000089645386,Fri Apr 04 2025 14:03:06 GMT-0500 (Central Daylight Time),729640.3000000119,A,c,O,c,266,1,284.0,729356.3000000119,7097,WL,B,8.0
7,20.694000005722046,immed,39305.999994277954,Fri Apr 04 2025 14:03:06 GMT-0500 (Central Daylight Time),729790.0,A,ca,O,a,123,1,433.69999998807907,729356.3000000119,7097,WL,B,8.0
7,21.05999994277954,immed,38940.00005722046,Fri Apr 04 2025 14:03:06 GMT-0500 (Central Daylight Time),730156.6000000238,A,cae,O,e,337,1,800.3000000119209,729356.3000000119,7097,WL,B,8.0
7,21.377000093460083,immed,38622.99990653992,Fri Apr 04 2025 14:03:06 GMT-0500 (Central Daylight Time),730473.2000000477,A,ca,O,backspace,285,1,1116.9000000357628,729356.3000000119,7097,WL,B,8.0
7,21.460000038146973,immed,38539.99996185303,Fri Apr 04 2025 14:03:06 GMT-0500 (Central Daylight Time),730556.4000000358,A,cab,O,b,58,1,1200.1000000238419,729356.3000000119,7097,WL,B,8.0
7,21.627000093460083,immed,38372.99990653992,Fri Apr 04 2025 14:03:06 GMT-0500 (Central Daylight Time),730723.1000000238,A,cabi,O,i,135,1,1366.800000011921,729356.3000000119,7097,WL,B,8.0
7,21.792999982833862,immed,38207.00001716614,Fri Apr 04 2025 14:03:06 GMT-0500 (Central Daylight Time),730889.5,A,cabin,O,n,137,1,1533.199999988079,729356.3000000119,7097,WL,B,8.0
7,22.14299988746643,immed,37857.00011253357,Fri Apr 04 2025 14:03:06 GMT-0500 (Central Daylight Time),731238.7000000477,A,cabinenter,O,enter,321,1,1882.4000000357628,729356.3000000119,7097,WL,B,8.0
7,22.41000008583069,immed,37589.99991416931,Fri Apr 04 2025 14:03:06 GMT-0500 (Central Daylight Time),731506.6000000238,A,l,O,l,256,1,267.60000002384186,731239.0,7097,WL,B,9.0
7,22.55999994277954,immed,37440.00005722046,Fri Apr 04 2025 14:03:06 GMT-0500 (Central Daylight Time),731656.4000000358,A,la,O,a,113,1,417.4000000357628,731239.0,7097,WL,B,9.0
7,22.710000038146973,immed,37289.99996185303,Fri Apr 04 2025 14:03:06 GMT-0500 (Central Daylight Time),731806.4000000358,A,lak,O,k,114,1,567.4000000357628,731239.0,7097,WL,B,9.0
7,23.026999950408936,immed,36973.000049591064,Fri Apr 04 2025 14:03:06 GMT-0500 (Central Daylight Time),732122.8000000119,A,lake,O,e,275,1,883.8000000119209,731239.0,7097,WL,B,9.0
7,24.04200005531311,immed,35957.99994468689,Fri Apr 04 2025 14:03:06 GMT-0500 (Central Daylight Time),733138.1000000238,A,lakeenter,O,enter,983,1,1899.1000000238419,731239.0,7097,WL,B,9.0
7,26.20899987220764,immed,33791.00012779236,Fri Apr 04 2025 14:03:06 GMT-0500 (Central Daylight Time),735305.2000000477,A,f,O,f,2148,1,2166.900000035763,733138.3000000119,7097,WL,B,10.0
7,26.358999967575073,immed,33641.00003242493,Fri Apr 04 2025 14:03:06 GMT-0500 (Central Daylight Time),735454.9000000358,A,fi,O,i,124,1,2316.600000023842,733138.3000000119,7097,WL,B,10.0
7,26.492000102996826,immed,33507.999897003174,Fri Apr 04 2025 14:03:06 GMT-0500 (Central Daylight Time),735587.8000000119,A,fir,O,r,95,1,2449.5,733138.3000000119,7097,WL,B,10.0
7,26.625,immed,33375.0,Fri Apr 04 2025 14:03:06 GMT-0500 (Central Daylight Time),735721.6000000238,A,fire,O,e,103,1,2583.300000011921,733138.3000000119,7097,WL,B,10.0
7,27.091000080108643,immed,32908.99991989136,Fri Apr 04 2025 14:03:06 GMT-0500 (Central Daylight Time),736187.4000000358,A,fireenter,O,enter,441,1,3049.100000023842,733138.3000000119,7097,WL,B,10.0
7,27.424999952316284,immed,32575.000047683716,Fri Apr 04 2025 14:03:06 GMT-0500 (Central Daylight Time),736521.6000000238,A,c,O,c,314,1,334.0,736187.6000000238,7097,WL,B,11.0
7,27.52500009536743,immed,32474.99990463257,Fri Apr 04 2025 14:03:06 GMT-0500 (Central Daylight Time),736621.0,A,cl,O,l,74,1,433.39999997615814,736187.6000000238,7097,WL,B,11.0
7,27.72499990463257,immed,32275.00009536743,Fri Apr 04 2025 14:03:06 GMT-0500 (Central Daylight Time),736821.1000000238,A,clo,O,o,175,1,633.5,736187.6000000238,7097,WL,B,11.0
7,27.89199995994568,immed,32108.00004005432,Fri Apr 04 2025 14:03:06 GMT-0500 (Central Daylight Time),736987.9000000358,A,cloc,O,c,127,1,800.3000000119209,736187.6000000238,7097,WL,B,11.0
7,28.04200005531311,immed,31957.99994468689,Fri Apr 04 2025 14:03:06 GMT-0500 (Central Daylight Time),737137.9000000358,A,clock,O,k,115,1,950.3000000119209,736187.6000000238,7097,WL,B,11.0
7,28.756999969482422,immed,31243.000030517578,Fri Apr 04 2025 14:03:06 GMT-0500 (Central Daylight Time),737853.3000000119,A,clockenter,O,enter,680,1,1665.699999988079,736187.6000000238,7097,WL,B,11.0
7,41.76900005340576,immed,18230.99994659424,Fri Apr 04 2025 14:03:06 GMT-0500 (Central Daylight Time),750865.7000000477,A,enter,O,enter,12991,1,13012.200000047684,737853.5,7097,WL,B,12.0
7,42.335999965667725,immed,17664.000034332275,Fri Apr 04 2025 14:03:06 GMT-0500 (Central Daylight Time),751432.1000000238,A,enter,O,enter,547,1,566.1000000238419,750866.0,7097,WL,B,13.0
7,42.71900010108948,immed,17280.999898910522,Fri Apr 04 2025 14:03:06 GMT-0500 (Central Daylight Time),751815.3000000119,A,enter,O,enter,373,1,382.89999997615814,751432.4000000358,7097,WL,B,14.0
7,43.21900010108948,immed,16780.999898910522,Fri Apr 04 2025 14:03:06 GMT-0500 (Central Daylight Time),752315.1000000238,A,enter,O,enter,486,1,499.39999997615814,751815.7000000477,7097,WL,B,15.0
