Number,acc_sum,block,block_c,block_cond,con_img,correct,correct_response,datetime,endtime,jitter,project,response,response_time,row_sel,session_number,start_end,starttime,subject_id,task,task_vers,trial
2,0,prac,1,A,circle.png,0,z,Mon Mar 17 2025 14:40:41 GMT-0500 (Central Daylight Time),59028.90000000596,2000,O,None,1515,2,1,4292.9000000059605,54736.0,7085,NTS,A,1
6,1,prac,1,A,circle.png,1,m,Mon Mar 17 2025 14:40:41 GMT-0500 (Central Daylight Time),62744.09999999404,1900,O,m,1016,5,1,3707.0999999940395,59037.0,7085,NTS,A,2
8,2,prac,1,A,circle.png,1,m,Mon Mar 17 2025 14:40:41 GMT-0500 (Central Daylight Time),66026.59999999404,1600,O,m,888,7,1,3276.9000000059605,62749.69999998808,7085,NTS,A,3
4,3,prac,1,A,circle.png,1,z,Mon Mar 17 2025 14:40:41 GMT-0500 (Central Daylight Time),68875.69999998808,1400,O,z,662,4,1,2843.5,66032.19999998808,7085,NTS,A,4
8,4,prac,1,A,circle.png,1,m,Mon Mar 17 2025 14:40:41 GMT-0500 (Central Daylight Time),72058.09999999404,1600,O,m,797,7,1,3177.0,68881.09999999404,7085,NTS,A,5
1,5,prac,1,A,circle.png,1,z,Mon Mar 17 2025 14:40:41 GMT-0500 (Central Daylight Time),74490.5,1000,O,z,648,1,1,2427.0,72063.5,7085,NTS,A,6
3,6,prac,1,A,circle.png,1,z,Mon Mar 17 2025 14:40:41 GMT-0500 (Central Daylight Time),77089.80000001192,1200,O,z,606,3,1,2594.2000000178814,74495.59999999404,7085,NTS,A,7
7,7,prac,1,A,circle.png,1,m,Mon Mar 17 2025 14:40:41 GMT-0500 (Central Daylight Time),80455.40000000596,1700,O,m,867,6,1,3360.4000000059605,77095.0,7085,NTS,A,8
4,8,prac,1,A,circle.png,1,z,Mon Mar 17 2025 14:40:41 GMT-0500 (Central Daylight Time),83304.59999999404,1400,O,z,658,4,1,2844.0,80460.59999999404,7085,NTS,A,9
9,9,prac,1,A,circle.png,1,m,Mon Mar 17 2025 14:40:41 GMT-0500 (Central Daylight Time),86070.30000001192,1500,O,m,477,8,1,2760.100000023842,83310.19999998808,7085,NTS,A,10
6,10,prac,1,A,circle.png,1,m,Mon Mar 17 2025 14:40:41 GMT-0500 (Central Daylight Time),89536.30000001192,1900,O,m,775,5,1,3460.800000011921,86075.5,7085,NTS,A,11
2,11,prac,1,A,circle.png,1,z,Mon Mar 17 2025 14:40:41 GMT-0500 (Central Daylight Time),92885.0,2000,O,z,561,2,1,3343.5999999940395,89541.40000000596,7085,NTS,A,12
2,1,prac,1,B,triangle.png,1,m,Mon Mar 17 2025 14:40:41 GMT-0500 (Central Daylight Time),120726.19999998808,1700,O,m,652,2,1,3144.5999999940395,117581.59999999404,7085,NTS,A,1
4,2,prac,1,B,triangle.png,1,m,Mon Mar 17 2025 14:40:41 GMT-0500 (Central Daylight Time),123675.30000001192,1500,O,m,655,4,1,2944.4000000059605,120730.90000000596,7085,NTS,A,2
3,3,prac,1,B,triangle.png,1,z,Mon Mar 17 2025 14:40:41 GMT-0500 (Central Daylight Time),126624.30000001192,1600,O,z,550,3,1,2943.7000000178814,123680.59999999404,7085,NTS,A,3
1,4,prac,1,B,triangle.png,1,z,Mon Mar 17 2025 14:40:41 GMT-0500 (Central Daylight Time),129823.30000001192,1900,O,z,509,1,1,3194.0,126629.30000001192,7085,NTS,A,4
6,5,prac,1,B,triangle.png,1,m,Mon Mar 17 2025 14:40:41 GMT-0500 (Central Daylight Time),132122.69999998808,1000,O,m,514,5,1,2293.5999999940395,129829.09999999404,7085,NTS,A,5
9,6,prac,1,B,triangle.png,1,z,Mon Mar 17 2025 14:40:41 GMT-0500 (Central Daylight Time),135021.5,1400,O,z,711,8,1,2893.699999988079,132127.80000001192,7085,NTS,A,6
8,7,prac,1,B,triangle.png,1,m,Mon Mar 17 2025 14:40:41 GMT-0500 (Central Daylight Time),137621.0,1200,O,m,604,7,1,2594.4000000059605,135026.59999999404,7085,NTS,A,7
7,8,prac,1,B,triangle.png,1,z,Mon Mar 17 2025 14:40:41 GMT-0500 (Central Daylight Time),141019.90000000596,2000,O,z,604,6,1,3393.800000011921,137626.09999999404,7085,NTS,A,8
2,9,prac,1,B,triangle.png,1,m,Mon Mar 17 2025 14:40:41 GMT-0500 (Central Daylight Time),144335.19999998808,1700,O,m,826,2,1,3310.0999999940395,141025.09999999404,7085,NTS,A,9
7,10,prac,1,B,triangle.png,1,z,Mon Mar 17 2025 14:40:41 GMT-0500 (Central Daylight Time),147717.5,2000,O,z,594,6,1,3377.5,144340.0,7085,NTS,A,10
3,11,prac,1,B,triangle.png,1,z,Mon Mar 17 2025 14:40:41 GMT-0500 (Central Daylight Time),150867.0,1600,O,z,764,3,1,3144.5,147722.5,7085,NTS,A,11
6,12,prac,1,B,triangle.png,1,m,Mon Mar 17 2025 14:40:41 GMT-0500 (Central Daylight Time),153532.40000000596,1000,O,m,878,5,1,2660.9000000059605,150871.5,7085,NTS,A,12
7,1,test,1,A,circle.png,1,m,Mon Mar 17 2025 14:40:41 GMT-0500 (Central Daylight Time),172759.80000001192,1700,O,m,802,6,1,2528.5,170231.30000001192,7085,NTS,A,1
1,2,test,1,A,circle.png,1,z,Mon Mar 17 2025 14:40:41 GMT-0500 (Central Daylight Time),174409.30000001192,1000,O,z,617,1,1,1645.300000011921,172764.0,7085,NTS,A,2
6,3,test,1,A,circle.png,1,m,Mon Mar 17 2025 14:40:41 GMT-0500 (Central Daylight Time),177158.09999999404,1900,O,m,828,5,1,2745.199999988079,174412.90000000596,7085,NTS,A,3
2,4,test,1,A,circle.png,1,z,Mon Mar 17 2025 14:40:41 GMT-0500 (Central Daylight Time),179690.80000001192,2000,O,z,514,2,1,2529.0,177161.80000001192,7085,NTS,A,4
8,5,test,1,A,circle.png,1,m,Mon Mar 17 2025 14:40:41 GMT-0500 (Central Daylight Time),181990.30000001192,1600,O,m,678,7,1,2295.5,179694.80000001192,7085,NTS,A,5
4,6,test,1,A,circle.png,1,z,Mon Mar 17 2025 14:40:41 GMT-0500 (Central Daylight Time),183956.19999998808,1400,O,z,539,4,1,1962.2999999821186,181993.90000000596,7085,NTS,A,6
8,7,test,1,A,circle.png,1,m,Mon Mar 17 2025 14:40:41 GMT-0500 (Central Daylight Time),186122.19999998808,1600,O,m,541,7,1,2162.199999988079,183960.0,7085,NTS,A,7
3,8,test,1,A,circle.png,1,z,Mon Mar 17 2025 14:40:41 GMT-0500 (Central Daylight Time),187954.80000001192,1200,O,z,615,3,1,1828.9000000059605,186125.90000000596,7085,NTS,A,8
2,9,test,1,A,circle.png,1,z,Mon Mar 17 2025 14:40:41 GMT-0500 (Central Daylight Time),190637.30000001192,2000,O,z,662,2,1,2679.2000000178814,187958.09999999404,7085,NTS,A,9
6,10,test,1,A,circle.png,1,m,Mon Mar 17 2025 14:40:41 GMT-0500 (Central Daylight Time),193270.09999999404,1900,O,m,712,5,1,2629.0999999940395,190641.0,7085,NTS,A,10
9,11,test,1,A,circle.png,1,m,Mon Mar 17 2025 14:40:41 GMT-0500 (Central Daylight Time),195436.0,1500,O,m,639,8,1,2162.199999988079,193273.80000001192,7085,NTS,A,11
4,12,test,1,A,circle.png,1,z,Mon Mar 17 2025 14:40:41 GMT-0500 (Central Daylight Time),197385.09999999404,1400,O,z,517,4,1,1945.199999988079,195439.90000000596,7085,NTS,A,12
7,13,test,1,A,circle.png,1,m,Mon Mar 17 2025 14:40:41 GMT-0500 (Central Daylight Time),199701.40000000596,1700,O,m,595,6,1,2312.7000000178814,197388.69999998808,7085,NTS,A,13
9,14,test,1,A,circle.png,1,m,Mon Mar 17 2025 14:40:41 GMT-0500 (Central Daylight Time),201895.90000000596,1500,O,m,662,8,1,2190.7000000178814,199705.19999998808,7085,NTS,A,14
6,15,test,1,A,circle.png,1,m,Mon Mar 17 2025 14:40:41 GMT-0500 (Central Daylight Time),204866.40000000596,1900,O,m,1034,5,1,2965.800000011921,201900.59999999404,7085,NTS,A,15
7,16,test,1,A,circle.png,1,m,Mon Mar 17 2025 14:40:41 GMT-0500 (Central Daylight Time),207282.30000001192,1700,O,m,683,6,1,2412.100000023842,204870.19999998808,7085,NTS,A,16
9,17,test,1,A,circle.png,1,m,Mon Mar 17 2025 14:40:41 GMT-0500 (Central Daylight Time),209415.0,1500,O,m,603,8,1,2129.0,207286.0,7085,NTS,A,17
3,18,test,1,A,circle.png,1,z,Mon Mar 17 2025 14:40:41 GMT-0500 (Central Daylight Time),211214.30000001192,1200,O,z,578,3,1,1795.5,209418.80000001192,7085,NTS,A,18
3,19,test,1,A,circle.png,1,z,Mon Mar 17 2025 14:40:41 GMT-0500 (Central Daylight Time),212980.5,1200,O,z,539,3,1,1762.699999988079,211217.80000001192,7085,NTS,A,19
1,20,test,1,A,circle.png,1,z,Mon Mar 17 2025 14:40:41 GMT-0500 (Central Daylight Time),214580.0,1000,O,z,580,1,1,1596.0999999940395,212983.90000000596,7085,NTS,A,20
4,21,test,1,A,circle.png,1,z,Mon Mar 17 2025 14:40:41 GMT-0500 (Central Daylight Time),216646.0,1400,O,z,637,4,1,2062.0,214584.0,7085,NTS,A,21
1,22,test,1,A,circle.png,1,z,Mon Mar 17 2025 14:40:41 GMT-0500 (Central Daylight Time),218328.90000000596,1000,O,z,651,1,1,1679.0,216649.90000000596,7085,NTS,A,22
4,23,test,1,A,circle.png,1,z,Mon Mar 17 2025 14:40:41 GMT-0500 (Central Daylight Time),220594.90000000596,1400,O,z,840,4,1,2262.4000000059605,218332.5,7085,NTS,A,23
8,24,test,1,A,circle.png,1,m,Mon Mar 17 2025 14:40:41 GMT-0500 (Central Daylight Time),223077.59999999404,1600,O,m,862,7,1,2479.0999999940395,220598.5,7085,NTS,A,24
4,0,test,1,B,triangle.png,0,m,Mon Mar 17 2025 14:40:41 GMT-0500 (Central Daylight Time),232424.30000001192,1500,O,z,1409,4,1,2929.2000000178814,229495.09999999404,7085,NTS,A,1
4,1,test,1,B,triangle.png,1,m,Mon Mar 17 2025 14:40:41 GMT-0500 (Central Daylight Time),234157.30000001192,1000,O,m,705,12,1,1728.800000011921,232428.5,7085,NTS,A,2
4,2,test,1,B,triangle.png,1,m,Mon Mar 17 2025 14:40:41 GMT-0500 (Central Daylight Time),235724.5,1000,O,m,548,12,1,1563.699999988079,234160.80000001192,7085,NTS,A,3
7,3,test,1,B,triangle.png,1,z,Mon Mar 17 2025 14:40:41 GMT-0500 (Central Daylight Time),238505.80000001192,2000,O,z,758,6,1,2777.300000011921,235728.5,7085,NTS,A,4
6,4,test,1,B,triangle.png,1,m,Mon Mar 17 2025 14:40:41 GMT-0500 (Central Daylight Time),240321.80000001192,1000,O,m,791,5,1,1812.2000000178814,238509.59999999404,7085,NTS,A,5
8,5,test,1,B,triangle.png,1,m,Mon Mar 17 2025 14:40:41 GMT-0500 (Central Daylight Time),242271.30000001192,1200,O,m,727,7,1,1946.0,240325.30000001192,7085,NTS,A,6
9,6,test,1,B,triangle.png,1,z,Mon Mar 17 2025 14:40:41 GMT-0500 (Central Daylight Time),245153.69999998808,1900,O,z,950,16,1,2878.7999999821186,242274.90000000596,7085,NTS,A,7
7,7,test,1,B,triangle.png,1,z,Mon Mar 17 2025 14:40:41 GMT-0500 (Central Daylight Time),248186.09999999404,2000,O,z,1008,6,1,3028.4000000059605,245157.69999998808,7085,NTS,A,8
2,8,test,1,B,triangle.png,1,m,Mon Mar 17 2025 14:40:41 GMT-0500 (Central Daylight Time),250202.19999998808,1200,O,m,791,10,1,2012.3999999761581,248189.80000001192,7085,NTS,A,9
8,9,test,1,B,triangle.png,1,m,Mon Mar 17 2025 14:40:41 GMT-0500 (Central Daylight Time),252184.90000000596,1200,O,m,759,7,1,1978.800000011921,250206.09999999404,7085,NTS,A,10
2,10,test,1,B,triangle.png,1,m,Mon Mar 17 2025 14:40:41 GMT-0500 (Central Daylight Time),254700.69999998808,1700,O,m,796,2,1,2512.199999988079,252188.5,7085,NTS,A,11
9,10,test,1,B,triangle.png,0,z,Mon Mar 17 2025 14:40:41 GMT-0500 (Central Daylight Time),256866.80000001192,1400,O,m,741,8,1,2162.4000000059605,254704.40000000596,7085,NTS,A,12
8,11,test,1,B,triangle.png,1,m,Mon Mar 17 2025 14:40:41 GMT-0500 (Central Daylight Time),259332.59999999404,1700,O,m,739,15,1,2462.0999999940395,256870.5,7085,NTS,A,13
1,12,test,1,B,triangle.png,1,z,Mon Mar 17 2025 14:40:41 GMT-0500 (Central Daylight Time),261931.90000000596,1900,O,z,681,1,1,2595.5999999940395,259336.30000001192,7085,NTS,A,14
7,13,test,1,B,triangle.png,1,z,Mon Mar 17 2025 14:40:41 GMT-0500 (Central Daylight Time),264514.40000000596,1600,O,z,951,14,1,2578.5,261935.90000000596,7085,NTS,A,15
1,14,test,1,B,triangle.png,1,z,Mon Mar 17 2025 14:40:41 GMT-0500 (Central Daylight Time),266696.90000000596,1400,O,z,750,9,1,2178.5999999940395,264518.3000000119,7085,NTS,A,16
1,15,test,1,B,triangle.png,1,z,Mon Mar 17 2025 14:40:41 GMT-0500 (Central Daylight Time),268946.5,1400,O,z,817,9,1,2245.800000011921,266700.6999999881,7085,NTS,A,17
9,16,test,1,B,triangle.png,1,z,Mon Mar 17 2025 14:40:41 GMT-0500 (Central Daylight Time),271145.5,1400,O,z,775,8,1,2195.4000000059605,268950.09999999404,7085,NTS,A,18
6,17,test,1,B,triangle.png,1,m,Mon Mar 17 2025 14:40:41 GMT-0500 (Central Daylight Time),273361.90000000596,1500,O,m,692,13,1,2212.7000000178814,271149.1999999881,7085,NTS,A,19
3,18,test,1,B,triangle.png,1,z,Mon Mar 17 2025 14:40:41 GMT-0500 (Central Daylight Time),275744.09999999404,1600,O,z,760,3,1,2378.5999999940395,273365.5,7085,NTS,A,20
2,19,test,1,B,triangle.png,1,m,Mon Mar 17 2025 14:40:41 GMT-0500 (Central Daylight Time),278476.40000000596,1700,O,m,1013,2,1,2728.5,275747.90000000596,7085,NTS,A,21
3,20,test,1,B,triangle.png,1,z,Mon Mar 17 2025 14:40:41 GMT-0500 (Central Daylight Time),281309.09999999404,2000,O,z,813,11,1,2829.2999999821186,278479.8000000119,7085,NTS,A,22
6,21,test,1,B,triangle.png,1,m,Mon Mar 17 2025 14:40:41 GMT-0500 (Central Daylight Time),283091.8000000119,1000,O,m,756,5,1,1778.6000000238419,281313.1999999881,7085,NTS,A,23
6,22,test,1,B,triangle.png,1,m,Mon Mar 17 2025 14:40:41 GMT-0500 (Central Daylight Time),285307.90000000596,1500,O,m,698,13,1,2212.5999999940395,283095.3000000119,7085,NTS,A,24
4,0,prac,1,C,circle.png,0,z,Mon Mar 17 2025 14:40:41 GMT-0500 (Central Daylight Time),350754.09999999404,1000,O,None,1516,4,1,3294.199999988079,347459.90000000596,7085,NTS,A,1
8,1,prac,1,C,triangle.png,1,m,Mon Mar 17 2025 14:40:41 GMT-0500 (Central Daylight Time),353836.1999999881,1400,O,m,888,7,1,3076.899999976158,350759.3000000119,7085,NTS,A,2
4,1,prac,1,C,circle.png,0,z,Mon Mar 17 2025 14:40:41 GMT-0500 (Central Daylight Time),356752.1999999881,1000,O,m,1125,4,1,2911.5,353840.6999999881,7085,NTS,A,3
3,2,prac,1,C,triangle.png,1,z,Mon Mar 17 2025 14:40:41 GMT-0500 (Central Daylight Time),360284.3000000119,1500,O,z,1236,3,1,3527.100000023842,356757.1999999881,7085,NTS,A,4
8,3,prac,1,C,triangle.png,1,m,Mon Mar 17 2025 14:40:41 GMT-0500 (Central Daylight Time),363566.59999999404,1400,O,m,1085,7,1,3277.0999999940395,360289.5,7085,NTS,A,5
2,3,prac,1,C,triangle.png,0,m,Mon Mar 17 2025 14:40:41 GMT-0500 (Central Daylight Time),367048.8000000119,1600,O,z,1099,2,1,3476.9000000059605,363571.90000000596,7085,NTS,A,6
7,4,prac,1,C,triangle.png,1,z,Mon Mar 17 2025 14:40:41 GMT-0500 (Central Daylight Time),370398.09999999404,1200,O,z,1352,6,1,3344.4000000059605,367053.6999999881,7085,NTS,A,7
6,5,prac,1,C,circle.png,1,m,Mon Mar 17 2025 14:40:41 GMT-0500 (Central Daylight Time),374296.40000000596,2000,O,m,1100,5,1,3893.300000011921,370403.09999999404,7085,NTS,A,8
1,6,prac,1,C,circle.png,1,z,Mon Mar 17 2025 14:40:41 GMT-0500 (Central Daylight Time),377780.0,1700,O,z,989,1,1,3478.199999988079,374301.8000000119,7085,NTS,A,9
1,7,prac,1,C,circle.png,1,z,Mon Mar 17 2025 14:40:41 GMT-0500 (Central Daylight Time),381044.6999999881,1700,O,z,778,1,1,3259.5999999940395,377785.09999999404,7085,NTS,A,10
9,7,prac,1,C,circle.png,0,m,Mon Mar 17 2025 14:40:41 GMT-0500 (Central Daylight Time),384493.40000000596,1900,O,z,761,8,1,3443.4000000059605,381050.0,7085,NTS,A,11
7,7,prac,1,C,triangle.png,0,z,Mon Mar 17 2025 14:40:41 GMT-0500 (Central Daylight Time),387858.90000000596,1200,O,m,1380,6,1,3360.5,384498.40000000596,7085,NTS,A,12
3,1,prac,2,C,triangle.png,1,z,Mon Mar 17 2025 14:40:41 GMT-0500 (Central Daylight Time),400971.5,1500,O,z,1338,3,1,3627.9000000059605,397343.59999999404,7085,NTS,A,1
6,2,prac,2,C,circle.png,1,m,Mon Mar 17 2025 14:40:41 GMT-0500 (Central Daylight Time),404886.90000000596,2000,O,m,1118,5,1,3909.800000011921,400977.09999999404,7085,NTS,A,2
3,3,prac,2,C,triangle.png,1,z,Mon Mar 17 2025 14:40:41 GMT-0500 (Central Daylight Time),408535.8000000119,1500,O,z,1358,3,1,3642.800000011921,404893.0,7085,NTS,A,3
4,3,prac,2,C,circle.png,0,z,Mon Mar 17 2025 14:40:41 GMT-0500 (Central Daylight Time),411684.8000000119,1000,O,m,1361,4,1,3144.2000000178814,408540.59999999404,7085,NTS,A,4
1,3,prac,2,C,circle.png,0,z,Mon Mar 17 2025 14:40:41 GMT-0500 (Central Daylight Time),415683.8000000119,1700,O,None,1516,1,1,3993.7000000178814,411690.09999999404,7085,NTS,A,5
8,4,prac,2,C,triangle.png,1,m,Mon Mar 17 2025 14:40:41 GMT-0500 (Central Daylight Time),419250.3000000119,1400,O,m,1398,7,1,3561.800000011921,415688.5,7085,NTS,A,6
1,5,prac,2,C,circle.png,1,z,Mon Mar 17 2025 14:40:41 GMT-0500 (Central Daylight Time),422614.8000000119,1700,O,z,876,1,1,3359.5,419255.3000000119,7085,NTS,A,7
7,5,prac,2,C,triangle.png,0,z,Mon Mar 17 2025 14:40:41 GMT-0500 (Central Daylight Time),425797.1999999881,1200,O,m,1194,6,1,3177.399999976158,422619.8000000119,7085,NTS,A,8
9,5,prac,2,C,circle.png,0,m,Mon Mar 17 2025 14:40:41 GMT-0500 (Central Daylight Time),429995.59999999404,1900,O,None,1515,8,1,4193.4000000059605,425802.1999999881,7085,NTS,A,9
2,6,prac,2,C,triangle.png,1,m,Mon Mar 17 2025 14:40:41 GMT-0500 (Central Daylight Time),433611.40000000596,1600,O,m,1230,2,1,3610.9000000059605,430000.5,7085,NTS,A,10
7,6,prac,2,C,triangle.png,0,z,Mon Mar 17 2025 14:40:41 GMT-0500 (Central Daylight Time),436743.59999999404,1200,O,m,1134,6,1,3127.199999988079,433616.40000000596,7085,NTS,A,11
9,6,prac,2,C,circle.png,0,m,Mon Mar 17 2025 14:40:41 GMT-0500 (Central Daylight Time),440542.6999999881,1900,O,z,1102,8,1,3794.2999999821186,436748.40000000596,7085,NTS,A,12
7,0,test,1,C,circle.png,0,m,Mon Mar 17 2025 14:40:41 GMT-0500 (Central Daylight Time),498157.90000000596,2000,O,None,1516,14,1,3529.300000011921,494628.59999999404,7085,NTS,A,1
7,0,test,1,C,triangle.png,0,z,Mon Mar 17 2025 14:40:41 GMT-0500 (Central Daylight Time),501390.1999999881,1700,O,None,1515,22,1,3228.0,498162.1999999881,7085,NTS,A,2
3,1,test,1,C,circle.png,1,z,Mon Mar 17 2025 14:40:41 GMT-0500 (Central Daylight Time),504055.8000000119,1600,O,z,1035,19,1,2661.600000023842,501394.1999999881,7085,NTS,A,3
4,2,test,1,C,circle.png,1,z,Mon Mar 17 2025 14:40:41 GMT-0500 (Central Daylight Time),506905.09999999404,1400,O,z,1417,4,1,2845.4000000059605,504059.6999999881,7085,NTS,A,4
8,3,test,1,C,triangle.png,1,m,Mon Mar 17 2025 14:40:41 GMT-0500 (Central Daylight Time),509904.0,1600,O,m,1368,7,1,2994.9000000059605,506909.09999999404,7085,NTS,A,5
1,3,test,1,C,triangle.png,0,z,Mon Mar 17 2025 14:40:41 GMT-0500 (Central Daylight Time),512786.5,1900,O,m,958,9,1,2878.300000011921,509908.1999999881,7085,NTS,A,6
2,3,test,1,C,triangle.png,0,m,Mon Mar 17 2025 14:40:41 GMT-0500 (Central Daylight Time),516185.3000000119,2000,O,z,1376,2,1,3395.100000023842,512790.1999999881,7085,NTS,A,7
2,4,test,1,C,circle.png,1,z,Mon Mar 17 2025 14:40:41 GMT-0500 (Central Daylight Time),519234.40000000596,1700,O,z,1325,18,1,3045.2000000178814,516189.1999999881,7085,NTS,A,8
6,4,test,1,C,triangle.png,0,m,Mon Mar 17 2025 14:40:41 GMT-0500 (Central Daylight Time),521767.09999999404,1000,O,None,1516,13,1,2528.9000000059605,519238.1999999881,7085,NTS,A,9
4,4,test,1,C,triangle.png,0,m,Mon Mar 17 2025 14:40:41 GMT-0500 (Central Daylight Time),524616.1999999881,1500,O,z,1318,12,1,2845.199999988079,521771.0,7085,NTS,A,10
3,4,test,1,C,circle.png,0,z,Mon Mar 17 2025 14:40:41 GMT-0500 (Central Daylight Time),527748.5,1600,O,None,1515,11,1,3128.5999999940395,524619.900000006,7085,NTS,A,11
1,5,test,1,C,triangle.png,1,z,Mon Mar 17 2025 14:40:41 GMT-0500 (Central Daylight Time),530464.3000000119,1900,O,z,785,17,1,2711.7000000178814,527752.599999994,7085,NTS,A,12
6,6,test,1,C,circle.png,1,m,Mon Mar 17 2025 14:40:41 GMT-0500 (Central Daylight Time),533346.599999994,1900,O,m,950,21,1,2878.4000000059605,530468.1999999881,7085,NTS,A,13
6,7,test,1,C,circle.png,1,m,Mon Mar 17 2025 14:40:41 GMT-0500 (Central Daylight Time),536062.400000006,1900,O,m,796,5,1,2711.800000011921,533350.599999994,7085,NTS,A,14
4,7,test,1,C,triangle.png,0,m,Mon Mar 17 2025 14:40:41 GMT-0500 (Central Daylight Time),538861.8000000119,1500,O,z,1279,20,1,2795.5,536066.3000000119,7085,NTS,A,15
7,8,test,1,C,triangle.png,1,z,Mon Mar 17 2025 14:40:41 GMT-0500 (Central Daylight Time),541844.0,1700,O,z,1265,6,1,2978.199999988079,538865.8000000119,7085,NTS,A,16
8,9,test,1,C,circle.png,1,m,Mon Mar 17 2025 14:40:41 GMT-0500 (Central Daylight Time),543743.400000006,1200,O,m,677,15,1,1894.2000000178814,541849.1999999881,7085,NTS,A,17
9,10,test,1,C,circle.png,1,m,Mon Mar 17 2025 14:40:41 GMT-0500 (Central Daylight Time),546642.8000000119,1500,O,m,1367,8,1,2895.2000000178814,543747.599999994,7085,NTS,A,18
8,11,test,1,C,triangle.png,1,m,Mon Mar 17 2025 14:40:41 GMT-0500 (Central Daylight Time),549658.400000006,1600,O,m,1391,23,1,3011.9000000059605,546646.5,7085,NTS,A,19
9,12,test,1,C,circle.png,1,m,Mon Mar 17 2025 14:40:41 GMT-0500 (Central Daylight Time),552624.0,1500,O,m,1436,24,1,2962.0,549662.0,7085,NTS,A,20
2,12,test,1,C,circle.png,0,z,Mon Mar 17 2025 14:40:41 GMT-0500 (Central Daylight Time),555773.0,1700,O,m,1421,10,1,3145.0999999940395,552627.900000006,7085,NTS,A,21
3,13,test,1,C,triangle.png,1,z,Mon Mar 17 2025 14:40:41 GMT-0500 (Central Daylight Time),558172.1999999881,1200,O,z,1180,3,1,2395.199999988079,555777.0,7085,NTS,A,22
9,13,test,1,C,triangle.png,0,z,Mon Mar 17 2025 14:40:41 GMT-0500 (Central Daylight Time),560888.3000000119,1400,O,m,1293,16,1,2712.5,558175.8000000119,7085,NTS,A,23
1,14,test,1,C,circle.png,1,z,Mon Mar 17 2025 14:40:41 GMT-0500 (Central Daylight Time),562954.3000000119,1000,O,z,1033,1,1,2062.2000000178814,560892.099999994,7085,NTS,A,24
7,0,test,2,C,triangle.png,0,z,Mon Mar 17 2025 14:40:41 GMT-0500 (Central Daylight Time),579382.599999994,1700,O,None,1516,6,1,3229.4000000059605,576153.1999999881,7085,NTS,A,1
9,0,test,2,C,triangle.png,0,z,Mon Mar 17 2025 14:40:41 GMT-0500 (Central Daylight Time),582315.0,1400,O,None,1516,24,1,2928.0,579387.0,7085,NTS,A,2
7,0,test,2,C,circle.png,0,m,Mon Mar 17 2025 14:40:41 GMT-0500 (Central Daylight Time),585846.900000006,2000,O,None,1516,14,1,3528.2000000178814,582318.6999999881,7085,NTS,A,3
8,0,test,2,C,triangle.png,0,m,Mon Mar 17 2025 14:40:41 GMT-0500 (Central Daylight Time),588979.400000006,1600,O,None,1515,7,1,3128.5999999940395,585850.8000000119,7085,NTS,A,4
1,1,test,2,C,circle.png,1,z,Mon Mar 17 2025 14:40:41 GMT-0500 (Central Daylight Time),591345.3000000119,1000,O,z,1334,1,1,2362.2000000178814,588983.099999994,7085,NTS,A,5
4,1,test,2,C,triangle.png,0,m,Mon Mar 17 2025 14:40:41 GMT-0500 (Central Daylight Time),594377.6999999881,1500,O,None,1516,20,1,3028.0999999940395,591349.599999994,7085,NTS,A,6
7,1,test,2,C,circle.png,0,m,Mon Mar 17 2025 14:40:41 GMT-0500 (Central Daylight Time),597810.099999994,2000,O,z,1408,22,1,3428.4000000059605,594381.6999999881,7085,NTS,A,7
1,2,test,2,C,triangle.png,1,z,Mon Mar 17 2025 14:40:41 GMT-0500 (Central Daylight Time),601225.5,1900,O,z,1483,9,1,3411.800000011921,597813.6999999881,7085,NTS,A,8
2,2,test,2,C,triangle.png,0,m,Mon Mar 17 2025 14:40:41 GMT-0500 (Central Daylight Time),604574.5,2000,O,z,1328,2,1,3344.699999988079,601229.8000000119,7085,NTS,A,9
6,3,test,2,C,circle.png,1,m,Mon Mar 17 2025 14:40:41 GMT-0500 (Central Daylight Time),607223.599999994,1900,O,m,728,5,1,2644.5999999940395,604579.0,7085,NTS,A,10
2,3,test,2,C,circle.png,0,z,Mon Mar 17 2025 14:40:41 GMT-0500 (Central Daylight Time),609656.0,1700,O,m,709,18,1,2428.699999988079,607227.3000000119,7085,NTS,A,11
6,4,test,2,C,triangle.png,1,m,Mon Mar 17 2025 14:40:41 GMT-0500 (Central Daylight Time),612038.599999994,1000,O,m,1361,13,1,2378.699999988079,609659.900000006,7085,NTS,A,12
9,4,test,2,C,triangle.png,0,z,Mon Mar 17 2025 14:40:41 GMT-0500 (Central Daylight Time),614188.900000006,1400,O,m,731,16,1,2146.7000000178814,612042.1999999881,7085,NTS,A,13
2,5,test,2,C,circle.png,1,z,Mon Mar 17 2025 14:40:41 GMT-0500 (Central Daylight Time),616920.400000006,1700,O,z,1009,10,1,2727.7000000178814,614192.6999999881,7085,NTS,A,14
8,5,test,2,C,circle.png,0,m,Mon Mar 17 2025 14:40:41 GMT-0500 (Central Daylight Time),619653.099999994,1200,O,None,1516,15,1,2729.0,616924.099999994,7085,NTS,A,15
3,6,test,2,C,circle.png,1,z,Mon Mar 17 2025 14:40:41 GMT-0500 (Central Daylight Time),622352.3000000119,1600,O,z,1068,19,1,2695.5,619656.8000000119,7085,NTS,A,16
8,7,test,2,C,circle.png,1,m,Mon Mar 17 2025 14:40:41 GMT-0500 (Central Daylight Time),624284.6999999881,1200,O,m,713,23,1,1928.199999988079,622356.5,7085,NTS,A,17
6,7,test,2,C,triangle.png,0,m,Mon Mar 17 2025 14:40:41 GMT-0500 (Central Daylight Time),626850.8000000119,1000,O,None,1504,21,1,2561.4000000059605,624289.400000006,7085,NTS,A,18
4,7,test,2,C,circle.png,0,z,Mon Mar 17 2025 14:40:41 GMT-0500 (Central Daylight Time),629000.1999999881,1400,O,m,726,4,1,2144.5,626855.6999999881,7085,NTS,A,19
1,8,test,2,C,triangle.png,1,z,Mon Mar 17 2025 14:40:41 GMT-0500 (Central Daylight Time),631882.6999999881,1900,O,z,950,17,1,2878.5,629004.1999999881,7085,NTS,A,20
3,9,test,2,C,circle.png,1,z,Mon Mar 17 2025 14:40:41 GMT-0500 (Central Daylight Time),634848.3000000119,1600,O,z,1343,11,1,2961.800000011921,631886.5,7085,NTS,A,21
4,9,test,2,C,triangle.png,0,m,Mon Mar 17 2025 14:40:41 GMT-0500 (Central Daylight Time),637514.3000000119,1500,O,z,1133,12,1,2662.100000023842,634852.1999999881,7085,NTS,A,22
9,10,test,2,C,circle.png,1,m,Mon Mar 17 2025 14:40:41 GMT-0500 (Central Daylight Time),639946.8000000119,1500,O,m,907,8,1,2428.800000011921,637518.0,7085,NTS,A,23
3,11,test,2,C,triangle.png,1,z,Mon Mar 17 2025 14:40:41 GMT-0500 (Central Daylight Time),641896.099999994,1200,O,z,719,3,1,1945.5,639950.599999994,7085,NTS,A,24
7,0,test,3,C,triangle.png,0,z,Mon Mar 17 2025 14:40:41 GMT-0500 (Central Daylight Time),650526.6999999881,1700,O,None,1504,6,1,3212.699999988079,647314.0,7085,NTS,A,1
1,1,test,3,C,circle.png,1,z,Mon Mar 17 2025 14:40:41 GMT-0500 (Central Daylight Time),653042.599999994,1000,O,z,1498,1,1,2510.7999999821186,650531.8000000119,7085,NTS,A,2
6,2,test,3,C,circle.png,1,m,Mon Mar 17 2025 14:40:41 GMT-0500 (Central Daylight Time),655941.599999994,1900,O,m,971,21,1,2892.9000000059605,653048.6999999881,7085,NTS,A,3
7,3,test,3,C,circle.png,1,m,Mon Mar 17 2025 14:40:41 GMT-0500 (Central Daylight Time),659240.599999994,2000,O,m,1268,14,1,3295.2999999821186,655945.3000000119,7085,NTS,A,4
3,3,test,3,C,circle.png,0,z,Mon Mar 17 2025 14:40:41 GMT-0500 (Central Daylight Time),661539.8000000119,1600,O,m,674,11,1,2295.7000000178814,659244.099999994,7085,NTS,A,5
8,4,test,3,C,circle.png,1,m,Mon Mar 17 2025 14:40:41 GMT-0500 (Central Daylight Time),663322.8000000119,1200,O,m,558,15,1,1779.2000000178814,661543.599999994,7085,NTS,A,6
9,5,test,3,C,circle.png,1,m,Mon Mar 17 2025 14:40:41 GMT-0500 (Central Daylight Time),665372.099999994,1500,O,m,530,8,1,2043.9000000059605,663328.1999999881,7085,NTS,A,7
2,6,test,3,C,triangle.png,1,m,Mon Mar 17 2025 14:40:41 GMT-0500 (Central Daylight Time),668704.3000000119,2000,O,m,1301,2,1,3328.100000023842,665376.1999999881,7085,NTS,A,8
1,7,test,3,C,circle.png,1,z,Mon Mar 17 2025 14:40:41 GMT-0500 (Central Daylight Time),670953.400000006,1000,O,z,1225,17,1,2245.5,668707.900000006,7085,NTS,A,9
1,8,test,3,C,triangle.png,1,z,Mon Mar 17 2025 14:40:41 GMT-0500 (Central Daylight Time),674085.900000006,1900,O,z,1212,9,1,3129.0,670956.900000006,7085,NTS,A,10
4,8,test,3,C,circle.png,0,z,Mon Mar 17 2025 14:40:41 GMT-0500 (Central Daylight Time),676518.5,1400,O,m,1011,20,1,2428.5999999940395,674089.900000006,7085,NTS,A,11
8,9,test,3,C,triangle.png,1,m,Mon Mar 17 2025 14:40:41 GMT-0500 (Central Daylight Time),679484.1999999881,1600,O,m,1348,7,1,2961.399999976158,676522.8000000119,7085,NTS,A,12
8,10,test,3,C,triangle.png,1,m,Mon Mar 17 2025 14:40:41 GMT-0500 (Central Daylight Time),681783.6999999881,1600,O,m,669,23,1,2295.7999999821186,679487.900000006,7085,NTS,A,13
4,10,test,3,C,triangle.png,0,m,Mon Mar 17 2025 14:40:41 GMT-0500 (Central Daylight Time),684449.3000000119,1500,O,z,1143,12,1,2661.9000000059605,681787.400000006,7085,NTS,A,14
3,11,test,3,C,triangle.png,1,z,Mon Mar 17 2025 14:40:41 GMT-0500 (Central Daylight Time),686515.099999994,1200,O,z,848,3,1,2061.7999999821186,684453.3000000119,7085,NTS,A,15
4,12,test,3,C,circle.png,1,z,Mon Mar 17 2025 14:40:41 GMT-0500 (Central Daylight Time),689131.0,1400,O,z,1198,4,1,2612.199999988079,686518.8000000119,7085,NTS,A,16
2,13,test,3,C,circle.png,1,z,Mon Mar 17 2025 14:40:41 GMT-0500 (Central Daylight Time),691930.5,1700,O,z,1082,10,1,2795.800000011921,689134.6999999881,7085,NTS,A,17
9,14,test,3,C,circle.png,1,m,Mon Mar 17 2025 14:40:41 GMT-0500 (Central Daylight Time),694446.3000000119,1500,O,m,995,24,1,2512.2000000178814,691934.099999994,7085,NTS,A,18
2,14,test,3,C,triangle.png,0,m,Mon Mar 17 2025 14:40:41 GMT-0500 (Central Daylight Time),697978.5,2000,O,None,1515,18,1,3528.5,694450.0,7085,NTS,A,19
9,15,test,3,C,triangle.png,1,z,Mon Mar 17 2025 14:40:41 GMT-0500 (Central Daylight Time),700610.8000000119,1400,O,z,1215,16,1,2628.600000023842,697982.1999999881,7085,NTS,A,20
7,15,test,3,C,triangle.png,0,z,Mon Mar 17 2025 14:40:41 GMT-0500 (Central Daylight Time),703843.1999999881,1700,O,None,1515,22,1,3228.5,700614.6999999881,7085,NTS,A,21
6,16,test,3,C,circle.png,1,m,Mon Mar 17 2025 14:40:41 GMT-0500 (Central Daylight Time),706575.6999999881,1900,O,m,802,5,1,2728.699999988079,703847.0,7085,NTS,A,22
3,17,test,3,C,triangle.png,1,z,Mon Mar 17 2025 14:40:41 GMT-0500 (Central Daylight Time),709058.5,1200,O,z,1249,19,1,2479.199999988079,706579.3000000119,7085,NTS,A,23
6,18,test,3,C,triangle.png,1,m,Mon Mar 17 2025 14:40:41 GMT-0500 (Central Daylight Time),711524.0,1000,O,m,1439,13,1,2461.5999999940395,709062.400000006,7085,NTS,A,24
3,1,test,4,C,triangle.png,1,z,Mon Mar 17 2025 14:40:41 GMT-0500 (Central Daylight Time),715739.3000000119,1200,O,z,1181,19,1,2395.7000000178814,713343.599999994,7085,NTS,A,1
1,2,test,4,C,circle.png,1,z,Mon Mar 17 2025 14:40:41 GMT-0500 (Central Daylight Time),717972.3000000119,1000,O,z,1206,1,1,2228.100000023842,715744.1999999881,7085,NTS,A,2
1,3,test,4,C,circle.png,1,z,Mon Mar 17 2025 14:40:41 GMT-0500 (Central Daylight Time),719648.8000000119,1000,O,z,660,17,1,1672.7000000178814,717976.099999994,7085,NTS,A,3
9,4,test,4,C,circle.png,1,m,Mon Mar 17 2025 14:40:41 GMT-0500 (Central Daylight Time),722570.6999999881,1500,O,m,1407,24,1,2917.5999999940395,719653.099999994,7085,NTS,A,4
4,5,test,4,C,circle.png,1,z,Mon Mar 17 2025 14:40:41 GMT-0500 (Central Daylight Time),725069.900000006,1400,O,z,1080,4,1,2495.300000011921,722574.599999994,7085,NTS,A,5
9,5,test,4,C,triangle.png,0,z,Mon Mar 17 2025 14:40:41 GMT-0500 (Central Daylight Time),728002.5,1400,O,None,1515,16,1,2928.9000000059605,725073.599999994,7085,NTS,A,6
2,6,test,4,C,circle.png,1,z,Mon Mar 17 2025 14:40:41 GMT-0500 (Central Daylight Time),730901.400000006,1700,O,z,1171,10,1,2893.300000011921,728008.099999994,7085,NTS,A,7
8,6,test,4,C,triangle.png,0,m,Mon Mar 17 2025 14:40:41 GMT-0500 (Central Daylight Time),734033.8000000119,1600,O,None,1516,23,1,3128.4000000059605,730905.400000006,7085,NTS,A,8
7,6,test,4,C,triangle.png,0,z,Mon Mar 17 2025 14:40:41 GMT-0500 (Central Daylight Time),737266.1999999881,1700,O,None,1514,6,1,3228.5999999940395,734037.599999994,7085,NTS,A,9
6,7,test,4,C,circle.png,1,m,Mon Mar 17 2025 14:40:41 GMT-0500 (Central Daylight Time),740082.0,1900,O,m,891,5,1,2812.0999999940395,737269.900000006,7085,NTS,A,10
4,8,test,4,C,circle.png,1,z,Mon Mar 17 2025 14:40:41 GMT-0500 (Central Daylight Time),742181.3000000119,1400,O,z,680,20,1,2095.800000011921,740085.5,7085,NTS,A,11
8,9,test,4,C,circle.png,1,m,Mon Mar 17 2025 14:40:41 GMT-0500 (Central Daylight Time),744163.900000006,1200,O,m,764,15,1,1978.7000000178814,742185.1999999881,7085,NTS,A,12
8,9,test,4,C,triangle.png,0,m,Mon Mar 17 2025 14:40:41 GMT-0500 (Central Daylight Time),747179.5,1600,O,z,1397,7,1,3010.199999988079,744169.3000000119,7085,NTS,A,13
2,10,test,4,C,triangle.png,1,m,Mon Mar 17 2025 14:40:41 GMT-0500 (Central Daylight Time),750662.0,2000,O,m,1462,2,1,3478.800000011921,747183.1999999881,7085,NTS,A,14
3,11,test,4,C,circle.png,1,z,Mon Mar 17 2025 14:40:41 GMT-0500 (Central Daylight Time),753511.0,1600,O,z,1219,11,1,2845.5,750665.5,7085,NTS,A,15
2,12,test,4,C,triangle.png,1,m,Mon Mar 17 2025 14:40:41 GMT-0500 (Central Daylight Time),756526.6999999881,2000,O,m,994,18,1,3012.0,753514.6999999881,7085,NTS,A,16
3,13,test,4,C,triangle.png,1,z,Mon Mar 17 2025 14:40:41 GMT-0500 (Central Daylight Time),758759.3000000119,1200,O,z,1010,3,1,2229.0,756530.3000000119,7085,NTS,A,17
1,14,test,4,C,triangle.png,1,z,Mon Mar 17 2025 14:40:41 GMT-0500 (Central Daylight Time),761608.599999994,1900,O,z,926,9,1,2845.5999999940395,758763.0,7085,NTS,A,18
7,14,test,4,C,circle.png,0,m,Mon Mar 17 2025 14:40:41 GMT-0500 (Central Daylight Time),764824.1999999881,2000,O,z,1193,14,1,3211.899999976158,761612.3000000119,7085,NTS,A,19
6,15,test,4,C,triangle.png,1,m,Mon Mar 17 2025 14:40:41 GMT-0500 (Central Daylight Time),767273.8000000119,1000,O,m,1418,13,1,2445.600000023842,764828.1999999881,7085,NTS,A,20
6,16,test,4,C,circle.png,1,m,Mon Mar 17 2025 14:40:41 GMT-0500 (Central Daylight Time),770039.099999994,1900,O,m,837,21,1,2761.7999999821186,767277.3000000119,7085,NTS,A,21
7,17,test,4,C,triangle.png,1,z,Mon Mar 17 2025 14:40:41 GMT-0500 (Central Daylight Time),772955.1999999881,1700,O,z,1191,22,1,2912.399999976158,770042.8000000119,7085,NTS,A,22
4,17,test,4,C,triangle.png,0,m,Mon Mar 17 2025 14:40:41 GMT-0500 (Central Daylight Time),775987.1999999881,1500,O,None,1515,12,1,3028.199999988079,772959.0,7085,NTS,A,23
9,18,test,4,C,circle.png,1,m,Mon Mar 17 2025 14:40:41 GMT-0500 (Central Daylight Time),778819.8000000119,1500,O,m,1314,8,1,2828.800000011921,775991.0,7085,NTS,A,24
