Number,acc_sum,block,block_c,block_cond,con_img,correct,correct_response,datetime,endtime,jitter,project,response,response_time,row_sel,session_number,start_end,starttime,subject_id,task,task_vers,trial
8,0,prac,1,A,circle.png,0,m,Tue Oct 01 2024 15:13:34 GMT-0500 (Central Daylight Time),75036.0,1600,O,None,1513,7,1,3901.1999999284744,71134.80000007153,7022,NTS,C,1
1,0,prac,1,A,circle.png,0,z,Tue Oct 01 2024 15:13:34 GMT-0500 (Central Daylight Time),78351.30000007153,1000,O,None,1512,1,1,3285.8000000715256,75065.5,7022,NTS,C,2
9,0,prac,1,A,circle.png,0,m,Tue Oct 01 2024 15:13:34 GMT-0500 (Central Daylight Time),81667.0,1500,O,z,1023,8,1,3301.6999999284744,78365.30000007153,7022,NTS,C,3
6,0,prac,1,A,circle.png,0,m,Tue Oct 01 2024 15:13:34 GMT-0500 (Central Daylight Time),85898.90000009537,1900,O,None,1514,5,1,4200.100000023842,81698.80000007153,7022,NTS,C,4
7,1,prac,1,A,circle.png,1,m,Tue Oct 01 2024 15:13:34 GMT-0500 (Central Daylight Time),89764.60000002384,1700,O,m,1360,6,1,3836.100000023842,85928.5,7022,NTS,C,5
7,2,prac,1,A,circle.png,1,m,Tue Oct 01 2024 15:13:34 GMT-0500 (Central Daylight Time),92963.5,1700,O,m,672,6,1,3168.1999999284744,89795.30000007153,7022,NTS,C,6
4,3,prac,1,A,circle.png,1,z,Tue Oct 01 2024 15:13:34 GMT-0500 (Central Daylight Time),95829.20000004768,1400,O,z,654,4,1,2843.100000023842,92986.10000002384,7022,NTS,C,7
3,4,prac,1,A,circle.png,1,z,Tue Oct 01 2024 15:13:34 GMT-0500 (Central Daylight Time),98595.10000002384,1200,O,z,764,3,1,2739.399999976158,95855.70000004768,7022,NTS,C,8
8,5,prac,1,A,circle.png,1,m,Tue Oct 01 2024 15:13:34 GMT-0500 (Central Daylight Time),101760.0,1600,O,m,751,7,1,3138.2999999523163,98621.70000004768,7022,NTS,C,9
2,6,prac,1,A,circle.png,1,z,Tue Oct 01 2024 15:13:34 GMT-0500 (Central Daylight Time),105309.40000009537,2000,O,z,765,2,1,3538.7000000476837,101770.70000004768,7022,NTS,C,10
2,7,prac,1,A,circle.png,1,z,Tue Oct 01 2024 15:13:34 GMT-0500 (Central Daylight Time),108875.0,2000,O,z,764,2,1,3538.5999999046326,105336.40000009537,7022,NTS,C,11
9,8,prac,1,A,circle.png,1,m,Tue Oct 01 2024 15:13:34 GMT-0500 (Central Daylight Time),111890.60000002384,1500,O,m,715,8,1,2988.7999999523163,108901.80000007153,7022,NTS,C,12
8,0,prac,1,B,triangle.png,0,m,Tue Oct 01 2024 15:13:34 GMT-0500 (Central Daylight Time),150061.20000004768,1200,O,None,1515,7,1,3495.399999976158,146565.80000007153,7022,NTS,C,1
9,1,prac,1,B,triangle.png,1,z,Tue Oct 01 2024 15:13:34 GMT-0500 (Central Daylight Time),153126.90000009537,1400,O,z,860,8,1,3038.0,150088.90000009537,7022,NTS,C,2
2,2,prac,1,B,triangle.png,1,m,Tue Oct 01 2024 15:13:34 GMT-0500 (Central Daylight Time),156642.5,1700,O,m,1000,2,1,3490.0,153152.5,7022,NTS,C,3
6,3,prac,1,B,triangle.png,1,m,Tue Oct 01 2024 15:13:34 GMT-0500 (Central Daylight Time),159308.20000004768,1000,O,m,856,5,1,2640.7999999523163,156667.40000009537,7022,NTS,C,4
2,4,prac,1,B,triangle.png,1,m,Tue Oct 01 2024 15:13:34 GMT-0500 (Central Daylight Time),162623.90000009537,1700,O,m,802,2,1,3289.600000023842,159334.30000007153,7022,NTS,C,5
7,5,prac,1,B,triangle.png,1,z,Tue Oct 01 2024 15:13:34 GMT-0500 (Central Daylight Time),166239.30000007153,2000,O,z,811,6,1,3594.2000000476837,162645.10000002384,7022,NTS,C,6
4,6,prac,1,B,triangle.png,1,m,Tue Oct 01 2024 15:13:34 GMT-0500 (Central Daylight Time),169455.0,1500,O,m,912,4,1,3189.5,166265.5,7022,NTS,C,7
1,7,prac,1,B,triangle.png,1,z,Tue Oct 01 2024 15:13:34 GMT-0500 (Central Daylight Time),172987.20000004768,1900,O,z,816,1,1,3507.7999999523163,169479.40000009537,7022,NTS,C,8
3,8,prac,1,B,triangle.png,1,z,Tue Oct 01 2024 15:13:34 GMT-0500 (Central Daylight Time),176152.80000007153,1600,O,z,751,3,1,3139.3000000715256,173013.5,7022,NTS,C,9
3,9,prac,1,B,triangle.png,1,z,Tue Oct 01 2024 15:13:34 GMT-0500 (Central Daylight Time),179268.60000002384,1600,O,z,706,3,1,3094.600000023842,176174.0,7022,NTS,C,10
9,10,prac,1,B,triangle.png,1,z,Tue Oct 01 2024 15:13:34 GMT-0500 (Central Daylight Time),182684.0,1400,O,z,1213,8,1,3391.2999999523163,179292.70000004768,7022,NTS,C,11
8,11,prac,1,B,triangle.png,1,m,Tue Oct 01 2024 15:13:34 GMT-0500 (Central Daylight Time),186032.90000009537,1200,O,m,1334,7,1,3321.100000023842,182711.80000007153,7022,NTS,C,12
9,1,test,1,A,circle.png,1,m,Tue Oct 01 2024 15:13:34 GMT-0500 (Central Daylight Time),213657.30000007153,1500,O,m,937,8,1,2457.8000000715256,211199.5,7022,NTS,C,1
3,2,test,1,A,circle.png,1,z,Tue Oct 01 2024 15:13:34 GMT-0500 (Central Daylight Time),215589.80000007153,1200,O,z,696,3,1,1913.5,213676.30000007153,7022,NTS,C,2
7,3,test,1,A,circle.png,1,m,Tue Oct 01 2024 15:13:34 GMT-0500 (Central Daylight Time),218388.80000007153,1700,O,m,1056,6,1,2781.5,215607.30000007153,7022,NTS,C,3
2,4,test,1,A,circle.png,1,z,Tue Oct 01 2024 15:13:34 GMT-0500 (Central Daylight Time),221087.70000004768,2000,O,z,661,2,1,2682.0,218405.70000004768,7022,NTS,C,4
8,5,test,1,A,circle.png,1,m,Tue Oct 01 2024 15:13:34 GMT-0500 (Central Daylight Time),223453.80000007153,1600,O,m,722,7,1,2348.899999976158,221104.90000009537,7022,NTS,C,5
6,6,test,1,A,circle.png,1,m,Tue Oct 01 2024 15:13:34 GMT-0500 (Central Daylight Time),226153.10000002384,1900,O,m,758,5,1,2682.5,223470.60000002384,7022,NTS,C,6
7,7,test,1,A,circle.png,1,m,Tue Oct 01 2024 15:13:34 GMT-0500 (Central Daylight Time),228768.60000002384,1700,O,m,869,6,1,2597.899999976158,226170.70000004768,7022,NTS,C,7
3,8,test,1,A,circle.png,1,z,Tue Oct 01 2024 15:13:34 GMT-0500 (Central Daylight Time),230734.70000004768,1200,O,z,719,3,1,1949.3999999761581,228785.30000007153,7022,NTS,C,8
6,9,test,1,A,circle.png,1,m,Tue Oct 01 2024 15:13:34 GMT-0500 (Central Daylight Time),233417.10000002384,1900,O,m,743,5,1,2665.2999999523163,230751.80000007153,7022,NTS,C,9
4,10,test,1,A,circle.png,1,z,Tue Oct 01 2024 15:13:34 GMT-0500 (Central Daylight Time),235633.20000004768,1400,O,z,774,4,1,2197.2999999523163,233435.90000009537,7022,NTS,C,10
1,11,test,1,A,circle.png,1,z,Tue Oct 01 2024 15:13:34 GMT-0500 (Central Daylight Time),237382.5,1000,O,z,704,1,1,1731.2999999523163,235651.20000004768,7022,NTS,C,11
8,12,test,1,A,circle.png,1,m,Tue Oct 01 2024 15:13:34 GMT-0500 (Central Daylight Time),239848.5,1600,O,m,819,7,1,2447.399999976158,237401.10000002384,7022,NTS,C,12
4,13,test,1,A,circle.png,1,z,Tue Oct 01 2024 15:13:34 GMT-0500 (Central Daylight Time),241997.60000002384,1400,O,z,713,4,1,2130.7999999523163,239866.80000007153,7022,NTS,C,13
9,14,test,1,A,circle.png,1,m,Tue Oct 01 2024 15:13:34 GMT-0500 (Central Daylight Time),244230.40000009537,1500,O,m,696,8,1,2213.8000000715256,242016.60000002384,7022,NTS,C,14
4,15,test,1,A,circle.png,1,z,Tue Oct 01 2024 15:13:34 GMT-0500 (Central Daylight Time),246362.90000009537,1400,O,z,692,4,1,2114.100000023842,244248.80000007153,7022,NTS,C,15
9,16,test,1,A,circle.png,1,m,Tue Oct 01 2024 15:13:34 GMT-0500 (Central Daylight Time),248528.90000009537,1500,O,m,626,8,1,2149.3000000715256,246379.60000002384,7022,NTS,C,16
9,17,test,1,A,circle.png,1,m,Tue Oct 01 2024 15:13:34 GMT-0500 (Central Daylight Time),250644.90000009537,1500,O,m,574,8,1,2098.0,248546.90000009537,7022,NTS,C,17
7,18,test,1,A,circle.png,1,m,Tue Oct 01 2024 15:13:34 GMT-0500 (Central Daylight Time),253077.40000009537,1700,O,m,698,6,1,2415.0,250662.40000009537,7022,NTS,C,18
2,19,test,1,A,circle.png,1,z,Tue Oct 01 2024 15:13:34 GMT-0500 (Central Daylight Time),255793.30000007153,2000,O,z,667,2,1,2698.899999976158,253094.40000009537,7022,NTS,C,19
3,20,test,1,A,circle.png,1,z,Tue Oct 01 2024 15:13:34 GMT-0500 (Central Daylight Time),257642.30000007153,1200,O,z,600,3,1,1832.0,255810.30000007153,7022,NTS,C,20
3,21,test,1,A,circle.png,1,z,Tue Oct 01 2024 15:13:34 GMT-0500 (Central Daylight Time),259641.90000009537,1200,O,z,774,3,1,1988.7000000476837,257653.20000004768,7022,NTS,C,21
7,22,test,1,A,circle.png,1,m,Tue Oct 01 2024 15:13:34 GMT-0500 (Central Daylight Time),262057.80000007153,1700,O,m,677,6,1,2398.3000000715256,259659.5,7022,NTS,C,22
8,23,test,1,A,circle.png,1,m,Tue Oct 01 2024 15:13:34 GMT-0500 (Central Daylight Time),264307.0,1600,O,m,608,7,1,2231.0,262076.0,7022,NTS,C,23
1,24,test,1,A,circle.png,1,z,Tue Oct 01 2024 15:13:34 GMT-0500 (Central Daylight Time),266023.2000000477,1000,O,z,678,1,1,1699.0,264324.2000000477,7022,NTS,C,24
6,1,test,1,B,triangle.png,1,m,Tue Oct 01 2024 15:13:34 GMT-0500 (Central Daylight Time),281351.2000000477,1000,O,m,837,5,1,1855.3999999761581,279495.8000000715,7022,NTS,C,1
8,2,test,1,B,triangle.png,1,m,Tue Oct 01 2024 15:13:34 GMT-0500 (Central Daylight Time),283200.90000009537,1200,O,m,627,7,1,1842.5,281358.40000009537,7022,NTS,C,2
9,3,test,1,B,triangle.png,1,z,Tue Oct 01 2024 15:13:34 GMT-0500 (Central Daylight Time),285899.60000002384,1900,O,z,764,16,1,2681.5,283218.10000002384,7022,NTS,C,3
6,4,test,1,B,triangle.png,1,m,Tue Oct 01 2024 15:13:34 GMT-0500 (Central Daylight Time),288082.5,1500,O,m,651,13,1,2174.6999999284744,285907.8000000715,7022,NTS,C,4
8,5,test,1,B,triangle.png,1,m,Tue Oct 01 2024 15:13:34 GMT-0500 (Central Daylight Time),290498.5,1700,O,m,677,15,1,2399.0999999046326,288099.40000009537,7022,NTS,C,5
9,5,test,1,B,triangle.png,0,z,Tue Oct 01 2024 15:13:34 GMT-0500 (Central Daylight Time),293064.3000000715,1900,O,m,620,16,1,2548.600000023842,290515.7000000477,7022,NTS,C,6
1,6,test,1,B,triangle.png,1,z,Tue Oct 01 2024 15:13:34 GMT-0500 (Central Daylight Time),295197.0,1400,O,z,699,9,1,2115.5999999046326,293081.40000009537,7022,NTS,C,7
4,7,test,1,B,triangle.png,1,m,Tue Oct 01 2024 15:13:34 GMT-0500 (Central Daylight Time),297113.0,1000,O,m,869,12,1,1900.7999999523163,295212.2000000477,7022,NTS,C,8
1,8,test,1,B,triangle.png,1,z,Tue Oct 01 2024 15:13:34 GMT-0500 (Central Daylight Time),299795.0,1900,O,z,740,1,1,2664.5999999046326,297130.40000009537,7022,NTS,C,9
2,9,test,1,B,triangle.png,1,m,Tue Oct 01 2024 15:13:34 GMT-0500 (Central Daylight Time),302260.90000009537,1700,O,m,740,2,1,2457.4000000953674,299803.5,7022,NTS,C,10
7,10,test,1,B,triangle.png,1,z,Tue Oct 01 2024 15:13:34 GMT-0500 (Central Daylight Time),304760.5,1600,O,z,853,14,1,2483.5999999046326,302276.90000009537,7022,NTS,C,11
3,11,test,1,B,triangle.png,1,z,Tue Oct 01 2024 15:13:34 GMT-0500 (Central Daylight Time),307509.60000002384,2000,O,z,706,11,1,2730.5,304779.10000002384,7022,NTS,C,12
3,12,test,1,B,triangle.png,1,z,Tue Oct 01 2024 15:13:34 GMT-0500 (Central Daylight Time),309775.40000009537,1600,O,z,621,3,1,2248.0,307527.40000009537,7022,NTS,C,13
7,13,test,1,B,triangle.png,1,z,Tue Oct 01 2024 15:13:34 GMT-0500 (Central Daylight Time),312307.90000009537,1600,O,z,883,14,1,2514.9000000953674,309793.0,7022,NTS,C,14
3,14,test,1,B,triangle.png,1,z,Tue Oct 01 2024 15:13:34 GMT-0500 (Central Daylight Time),314689.90000009537,1600,O,z,734,3,1,2363.9000000953674,312326.0,7022,NTS,C,15
1,15,test,1,B,triangle.png,1,z,Tue Oct 01 2024 15:13:34 GMT-0500 (Central Daylight Time),316872.7000000477,1400,O,z,751,9,1,2176.5,314696.2000000477,7022,NTS,C,16
9,16,test,1,B,triangle.png,1,z,Tue Oct 01 2024 15:13:34 GMT-0500 (Central Daylight Time),319355.60000002384,1400,O,z,1050,8,1,2478.1999999284744,316877.40000009537,7022,NTS,C,17
2,17,test,1,B,triangle.png,1,m,Tue Oct 01 2024 15:13:34 GMT-0500 (Central Daylight Time),321305.0,1200,O,m,712,10,1,1932.3999999761581,319372.60000002384,7022,NTS,C,18
4,18,test,1,B,triangle.png,1,m,Tue Oct 01 2024 15:13:34 GMT-0500 (Central Daylight Time),323504.3000000715,1500,O,m,654,4,1,2182.399999976158,321321.90000009537,7022,NTS,C,19
4,19,test,1,B,triangle.png,1,m,Tue Oct 01 2024 15:13:34 GMT-0500 (Central Daylight Time),325203.60000002384,1000,O,m,658,12,1,1681.2999999523163,323522.3000000715,7022,NTS,C,20
7,20,test,1,B,triangle.png,1,z,Tue Oct 01 2024 15:13:34 GMT-0500 (Central Daylight Time),328152.90000009537,2000,O,z,919,6,1,2935.600000023842,325217.3000000715,7022,NTS,C,21
4,21,test,1,B,triangle.png,1,m,Tue Oct 01 2024 15:13:34 GMT-0500 (Central Daylight Time),330418.7000000477,1500,O,m,726,4,1,2248.7000000476837,328170.0,7022,NTS,C,22
6,22,test,1,B,triangle.png,1,m,Tue Oct 01 2024 15:13:34 GMT-0500 (Central Daylight Time),332234.8000000715,1000,O,m,776,5,1,1797.8000000715256,330437.0,7022,NTS,C,23
6,23,test,1,B,triangle.png,1,m,Tue Oct 01 2024 15:13:34 GMT-0500 (Central Daylight Time),334484.40000009537,1500,O,m,700,13,1,2231.600000023842,332252.8000000715,7022,NTS,C,24
3,1,prac,1,C,triangle.png,1,z,Tue Oct 01 2024 15:13:34 GMT-0500 (Central Daylight Time),369206.0,1500,O,z,1038,3,1,3323.7999999523163,365882.2000000477,7022,NTS,C,1
8,2,prac,1,C,triangle.png,1,m,Tue Oct 01 2024 15:13:34 GMT-0500 (Central Daylight Time),372538.3000000715,1400,O,m,1125,7,1,3311.0,369227.3000000715,7022,NTS,C,2
9,2,prac,1,C,circle.png,0,m,Tue Oct 01 2024 15:13:34 GMT-0500 (Central Daylight Time),376753.60000002384,1900,O,None,1516,8,1,4190.100000023842,372563.5,7022,NTS,C,3
6,3,prac,1,C,circle.png,1,m,Tue Oct 01 2024 15:13:34 GMT-0500 (Central Daylight Time),380402.40000009537,2000,O,m,841,5,1,3624.5,376777.90000009537,7022,NTS,C,4
1,4,prac,1,C,circle.png,1,z,Tue Oct 01 2024 15:13:34 GMT-0500 (Central Daylight Time),384167.8000000715,1700,O,z,1261,1,1,3741.899999976158,380425.90000009537,7022,NTS,C,5
6,5,prac,1,C,circle.png,1,m,Tue Oct 01 2024 15:13:34 GMT-0500 (Central Daylight Time),387783.40000009537,2000,O,m,803,5,1,3591.2000000476837,384192.2000000477,7022,NTS,C,6
7,5,prac,1,C,triangle.png,0,z,Tue Oct 01 2024 15:13:34 GMT-0500 (Central Daylight Time),391198.7000000477,1200,O,m,1411,6,1,3390.7999999523163,387807.90000009537,7022,NTS,C,7
7,6,prac,1,C,triangle.png,1,z,Tue Oct 01 2024 15:13:34 GMT-0500 (Central Daylight Time),394081.2000000477,1200,O,z,876,6,1,2857.7999999523163,391223.40000009537,7022,NTS,C,8
4,7,prac,1,C,circle.png,1,z,Tue Oct 01 2024 15:13:34 GMT-0500 (Central Daylight Time),397180.2000000477,1000,O,z,1298,4,1,3074.7999999523163,394105.40000009537,7022,NTS,C,9
2,7,prac,1,C,triangle.png,0,m,Tue Oct 01 2024 15:13:34 GMT-0500 (Central Daylight Time),400695.60000002384,1600,O,z,1109,2,1,3490.5,397205.10000002384,7022,NTS,C,10
9,8,prac,1,C,circle.png,1,m,Tue Oct 01 2024 15:13:34 GMT-0500 (Central Daylight Time),404777.7000000477,1900,O,m,1367,8,1,4057.399999976158,400720.3000000715,7022,NTS,C,11
8,9,prac,1,C,triangle.png,1,m,Tue Oct 01 2024 15:13:34 GMT-0500 (Central Daylight Time),408143.10000002384,1400,O,m,1154,7,1,3340.600000023842,404802.5,7022,NTS,C,12
7,1,test,1,C,circle.png,1,m,Tue Oct 01 2024 15:13:34 GMT-0500 (Central Daylight Time),424542.3000000715,2000,O,m,1334,14,1,3345.3000000715256,421197.0,7022,NTS,C,1
4,1,test,1,C,triangle.png,0,m,Tue Oct 01 2024 15:13:34 GMT-0500 (Central Daylight Time),427403.60000002384,1500,O,z,1333,12,1,2855.7999999523163,424547.8000000715,7022,NTS,C,2
1,2,test,1,C,triangle.png,1,z,Tue Oct 01 2024 15:13:34 GMT-0500 (Central Daylight Time),430685.5,1900,O,z,1347,17,1,3263.2999999523163,427422.2000000477,7022,NTS,C,3
2,2,test,1,C,circle.png,0,z,Tue Oct 01 2024 15:13:34 GMT-0500 (Central Daylight Time),433767.90000009537,1700,O,m,1361,18,1,3070.8000000715256,430697.10000002384,7022,NTS,C,4
2,3,test,1,C,circle.png,1,z,Tue Oct 01 2024 15:13:34 GMT-0500 (Central Daylight Time),436933.8000000715,1700,O,z,1440,10,1,3156.100000023842,433777.7000000477,7022,NTS,C,5
8,4,test,1,C,circle.png,1,m,Tue Oct 01 2024 15:13:34 GMT-0500 (Central Daylight Time),439582.90000009537,1200,O,m,1414,15,1,2631.4000000953674,436951.5,7022,NTS,C,6
4,4,test,1,C,triangle.png,0,m,Tue Oct 01 2024 15:13:34 GMT-0500 (Central Daylight Time),442631.7000000477,1500,O,None,1516,20,1,3031.899999976158,439599.8000000715,7022,NTS,C,7
1,5,test,1,C,triangle.png,1,z,Tue Oct 01 2024 15:13:34 GMT-0500 (Central Daylight Time),445930.90000009537,1900,O,z,1352,9,1,3280.100000023842,442650.8000000715,7022,NTS,C,8
8,5,test,1,C,triangle.png,0,m,Tue Oct 01 2024 15:13:34 GMT-0500 (Central Daylight Time),449079.60000002384,1600,O,None,1515,23,1,3129.899999976158,445949.7000000477,7022,NTS,C,9
3,5,test,1,C,circle.png,0,z,Tue Oct 01 2024 15:13:34 GMT-0500 (Central Daylight Time),452228.7000000477,1600,O,None,1515,11,1,3130.899999976158,449097.8000000715,7022,NTS,C,10
7,5,test,1,C,triangle.png,0,z,Tue Oct 01 2024 15:13:34 GMT-0500 (Central Daylight Time),455477.7000000477,1700,O,None,1517,22,1,3231.2000000476837,452246.5,7022,NTS,C,11
3,6,test,1,C,circle.png,1,z,Tue Oct 01 2024 15:13:34 GMT-0500 (Central Daylight Time),458443.0,1600,O,z,1317,19,1,2947.2999999523163,455495.7000000477,7022,NTS,C,12
8,7,test,1,C,triangle.png,1,m,Tue Oct 01 2024 15:13:34 GMT-0500 (Central Daylight Time),461392.3000000715,1600,O,m,1320,7,1,2944.8000000715256,458447.5,7022,NTS,C,13
9,8,test,1,C,triangle.png,1,z,Tue Oct 01 2024 15:13:34 GMT-0500 (Central Daylight Time),464125.10000002384,1400,O,z,1298,16,1,2714.2999999523163,461410.8000000715,7022,NTS,C,14
9,9,test,1,C,circle.png,1,m,Tue Oct 01 2024 15:13:34 GMT-0500 (Central Daylight Time),466590.7000000477,1500,O,m,931,8,1,2448.399999976158,464142.3000000715,7022,NTS,C,15
1,10,test,1,C,circle.png,1,z,Tue Oct 01 2024 15:13:34 GMT-0500 (Central Daylight Time),468623.3000000715,1000,O,z,989,1,1,2014.6000000238419,466608.7000000477,7022,NTS,C,16
3,10,test,1,C,triangle.png,0,z,Tue Oct 01 2024 15:13:34 GMT-0500 (Central Daylight Time),471372.40000009537,1200,O,None,1515,3,1,2731.9000000953674,468640.5,7022,NTS,C,17
7,11,test,1,C,triangle.png,1,z,Tue Oct 01 2024 15:13:34 GMT-0500 (Central Daylight Time),474387.8000000715,1700,O,z,1266,6,1,2998.2000000476837,471389.60000002384,7022,NTS,C,18
6,12,test,1,C,circle.png,1,m,Tue Oct 01 2024 15:13:34 GMT-0500 (Central Daylight Time),477387.2000000477,1900,O,m,1051,21,1,2981.2999999523163,474405.90000009537,7022,NTS,C,19
9,12,test,1,C,circle.png,0,m,Tue Oct 01 2024 15:13:34 GMT-0500 (Central Daylight Time),480302.7000000477,1500,O,z,1372,24,1,2897.2000000476837,477405.5,7022,NTS,C,20
6,13,test,1,C,circle.png,1,m,Tue Oct 01 2024 15:13:34 GMT-0500 (Central Daylight Time),483668.5,1900,O,m,1416,5,1,3348.1999999284744,480320.3000000715,7022,NTS,C,21
2,14,test,1,C,triangle.png,1,m,Tue Oct 01 2024 15:13:34 GMT-0500 (Central Daylight Time),487183.3000000715,2000,O,m,1477,2,1,3497.100000023842,483686.2000000477,7022,NTS,C,22
4,15,test,1,C,circle.png,1,z,Tue Oct 01 2024 15:13:34 GMT-0500 (Central Daylight Time),489783.0,1400,O,z,1180,4,1,2593.899999976158,487189.10000002384,7022,NTS,C,23
6,15,test,1,C,triangle.png,0,m,Tue Oct 01 2024 15:13:34 GMT-0500 (Central Daylight Time),492332.2000000477,1000,O,None,1515,13,1,2530.899999976158,489801.3000000715,7022,NTS,C,24
4,1,test,2,C,circle.png,1,z,Tue Oct 01 2024 15:13:34 GMT-0500 (Central Daylight Time),501879.3000000715,1400,O,z,1056,4,1,2483.5,499395.8000000715,7022,NTS,C,1
4,2,test,2,C,triangle.png,1,m,Tue Oct 01 2024 15:13:34 GMT-0500 (Central Daylight Time),504445.5,1500,O,m,1032,20,1,2548.2999999523163,501897.2000000477,7022,NTS,C,2
6,3,test,2,C,triangle.png,1,m,Tue Oct 01 2024 15:13:34 GMT-0500 (Central Daylight Time),506794.3000000715,1000,O,m,1302,21,1,2332.2000000476837,504462.10000002384,7022,NTS,C,3
6,4,test,2,C,circle.png,1,m,Tue Oct 01 2024 15:13:34 GMT-0500 (Central Daylight Time),509877.10000002384,1900,O,m,1150,5,1,3061.7999999523163,506815.3000000715,7022,NTS,C,4
3,5,test,2,C,circle.png,1,z,Tue Oct 01 2024 15:13:34 GMT-0500 (Central Daylight Time),512425.5,1600,O,z,910,11,1,2532.1999999284744,509893.3000000715,7022,NTS,C,5
8,6,test,2,C,circle.png,1,m,Tue Oct 01 2024 15:13:34 GMT-0500 (Central Daylight Time),514624.3000000715,1200,O,m,960,15,1,2181.0,512443.3000000715,7022,NTS,C,6
1,7,test,2,C,triangle.png,1,z,Tue Oct 01 2024 15:13:34 GMT-0500 (Central Daylight Time),517724.0,1900,O,z,1166,9,1,3094.5,514629.5,7022,NTS,C,7
1,7,test,2,C,circle.png,0,z,Tue Oct 01 2024 15:13:34 GMT-0500 (Central Daylight Time),519873.2000000477,1000,O,m,1111,1,1,2131.899999976158,517741.3000000715,7022,NTS,C,8
4,8,test,2,C,triangle.png,1,m,Tue Oct 01 2024 15:13:34 GMT-0500 (Central Daylight Time),522855.5,1500,O,m,1447,12,1,2964.399999976158,519891.10000002384,7022,NTS,C,9
2,8,test,2,C,circle.png,0,z,Tue Oct 01 2024 15:13:34 GMT-0500 (Central Daylight Time),526104.4000000954,1700,O,None,1515,18,1,3233.2000000476837,522871.2000000477,7022,NTS,C,10
7,9,test,2,C,circle.png,1,m,Tue Oct 01 2024 15:13:34 GMT-0500 (Central Daylight Time),529386.8000000715,2000,O,m,1234,22,1,3264.5,526122.3000000715,7022,NTS,C,11
9,9,test,2,C,triangle.png,0,z,Tue Oct 01 2024 15:13:34 GMT-0500 (Central Daylight Time),532335.9000000954,1400,O,None,1515,24,1,2928.4000000953674,529407.5,7022,NTS,C,12
8,10,test,2,C,circle.png,1,m,Tue Oct 01 2024 15:13:34 GMT-0500 (Central Daylight Time),534818.1000000238,1200,O,m,1243,23,1,2463.5,532354.6000000238,7022,NTS,C,13
3,10,test,2,C,triangle.png,0,z,Tue Oct 01 2024 15:13:34 GMT-0500 (Central Daylight Time),537567.2000000477,1200,O,None,1516,3,1,2730.899999976158,534836.3000000715,7022,NTS,C,14
1,11,test,2,C,triangle.png,1,z,Tue Oct 01 2024 15:13:34 GMT-0500 (Central Daylight Time),540699.2000000477,1900,O,z,1191,17,1,3114.5,537584.7000000477,7022,NTS,C,15
6,12,test,2,C,triangle.png,1,m,Tue Oct 01 2024 15:13:34 GMT-0500 (Central Daylight Time),543065.6000000238,1000,O,m,1335,13,1,2360.899999976158,540704.7000000477,7022,NTS,C,16
3,13,test,2,C,circle.png,1,z,Tue Oct 01 2024 15:13:34 GMT-0500 (Central Daylight Time),545731.3000000715,1600,O,z,1017,19,1,2648.7000000476837,543082.6000000238,7022,NTS,C,17
2,14,test,2,C,triangle.png,1,m,Tue Oct 01 2024 15:13:34 GMT-0500 (Central Daylight Time),549096.9000000954,2000,O,m,1327,2,1,3347.9000000953674,545749.0,7022,NTS,C,18
9,15,test,2,C,circle.png,1,m,Tue Oct 01 2024 15:13:34 GMT-0500 (Central Daylight Time),551696.1000000238,1500,O,m,1055,8,1,2582.0,549114.1000000238,7022,NTS,C,19
7,16,test,2,C,triangle.png,1,z,Tue Oct 01 2024 15:13:34 GMT-0500 (Central Daylight Time),554794.9000000954,1700,O,z,1359,6,1,3081.100000023842,551713.8000000715,7022,NTS,C,20
9,17,test,2,C,triangle.png,1,z,Tue Oct 01 2024 15:13:34 GMT-0500 (Central Daylight Time),557494.0,1400,O,z,1272,16,1,2688.5,554805.5,7022,NTS,C,21
8,17,test,2,C,triangle.png,0,m,Tue Oct 01 2024 15:13:34 GMT-0500 (Central Daylight Time),560643.2000000477,1600,O,None,1515,7,1,3132.2999999523163,557510.9000000954,7022,NTS,C,22
7,18,test,2,C,circle.png,1,m,Tue Oct 01 2024 15:13:34 GMT-0500 (Central Daylight Time),563825.3000000715,2000,O,m,1144,14,1,3162.0,560663.3000000715,7022,NTS,C,23
2,19,test,2,C,circle.png,1,z,Tue Oct 01 2024 15:13:34 GMT-0500 (Central Daylight Time),567057.1000000238,1700,O,z,1493,10,1,3214.0,563843.1000000238,7022,NTS,C,24
7,1,test,3,C,triangle.png,1,z,Tue Oct 01 2024 15:13:34 GMT-0500 (Central Daylight Time),573938.5,1700,O,z,1151,22,1,2883.0999999046326,571055.4000000954,7022,NTS,C,1
1,2,test,3,C,circle.png,1,z,Tue Oct 01 2024 15:13:34 GMT-0500 (Central Daylight Time),576404.8000000715,1000,O,z,1433,1,1,2457.899999976158,573946.9000000954,7022,NTS,C,2
4,3,test,3,C,triangle.png,1,m,Tue Oct 01 2024 15:13:34 GMT-0500 (Central Daylight Time),579070.2000000477,1500,O,m,1131,12,1,2647.0,576423.2000000477,7022,NTS,C,3
1,4,test,3,C,triangle.png,1,z,Tue Oct 01 2024 15:13:34 GMT-0500 (Central Daylight Time),581952.8000000715,1900,O,z,938,9,1,2865.7000000476837,579087.1000000238,7022,NTS,C,4
8,5,test,3,C,triangle.png,1,m,Tue Oct 01 2024 15:13:34 GMT-0500 (Central Daylight Time),584652.0,1600,O,m,1050,7,1,2682.2999999523163,581969.7000000477,7022,NTS,C,5
3,6,test,3,C,triangle.png,1,z,Tue Oct 01 2024 15:13:34 GMT-0500 (Central Daylight Time),586901.1000000238,1200,O,z,1008,3,1,2233.2999999523163,584667.8000000715,7022,NTS,C,6
9,7,test,3,C,circle.png,1,m,Tue Oct 01 2024 15:13:34 GMT-0500 (Central Daylight Time),589333.5,1500,O,m,898,24,1,2415.899999976158,586917.6000000238,7022,NTS,C,7
4,8,test,3,C,circle.png,1,z,Tue Oct 01 2024 15:13:34 GMT-0500 (Central Daylight Time),591799.6000000238,1400,O,z,1030,4,1,2448.1999999284744,589351.4000000954,7022,NTS,C,8
3,9,test,3,C,circle.png,1,z,Tue Oct 01 2024 15:13:34 GMT-0500 (Central Daylight Time),594698.5,1600,O,z,1252,11,1,2881.2999999523163,591817.2000000477,7022,NTS,C,9
2,10,test,3,C,circle.png,1,z,Tue Oct 01 2024 15:13:34 GMT-0500 (Central Daylight Time),597331.0,1700,O,z,893,10,1,2614.5999999046326,594716.4000000954,7022,NTS,C,10
1,11,test,3,C,circle.png,1,z,Tue Oct 01 2024 15:13:34 GMT-0500 (Central Daylight Time),599480.4000000954,1000,O,z,1103,17,1,2132.100000023842,597348.3000000715,7022,NTS,C,11
2,12,test,3,C,triangle.png,1,m,Tue Oct 01 2024 15:13:34 GMT-0500 (Central Daylight Time),602546.1000000238,2000,O,m,1027,2,1,3049.100000023842,599497.0,7022,NTS,C,12
6,13,test,3,C,circle.png,1,m,Tue Oct 01 2024 15:13:34 GMT-0500 (Central Daylight Time),605694.9000000954,1900,O,m,1213,21,1,3132.2000000476837,602562.7000000477,7022,NTS,C,13
7,13,test,3,C,circle.png,0,m,Tue Oct 01 2024 15:13:34 GMT-0500 (Central Daylight Time),609244.0,2000,O,None,1515,14,1,3527.0999999046326,605716.9000000954,7022,NTS,C,14
8,14,test,3,C,circle.png,1,m,Tue Oct 01 2024 15:13:34 GMT-0500 (Central Daylight Time),611126.5,1200,O,m,647,15,1,1865.2999999523163,609261.2000000477,7022,NTS,C,15
4,15,test,3,C,circle.png,1,z,Tue Oct 01 2024 15:13:34 GMT-0500 (Central Daylight Time),613725.5,1400,O,z,1165,20,1,2580.399999976158,611145.1000000238,7022,NTS,C,16
6,16,test,3,C,circle.png,1,m,Tue Oct 01 2024 15:13:34 GMT-0500 (Central Daylight Time),616608.0,1900,O,m,938,5,1,2866.0,613742.0,7022,NTS,C,17
2,16,test,3,C,triangle.png,0,m,Tue Oct 01 2024 15:13:34 GMT-0500 (Central Daylight Time),620157.0,2000,O,None,1516,18,1,3531.7999999523163,616625.2000000477,7022,NTS,C,18
6,17,test,3,C,triangle.png,1,m,Tue Oct 01 2024 15:13:34 GMT-0500 (Central Daylight Time),622056.3000000715,1000,O,m,862,13,1,1880.2000000476837,620176.1000000238,7022,NTS,C,19
8,18,test,3,C,triangle.png,1,m,Tue Oct 01 2024 15:13:34 GMT-0500 (Central Daylight Time),624455.5,1600,O,m,755,23,1,2382.5999999046326,622072.9000000954,7022,NTS,C,20
9,19,test,3,C,triangle.png,1,z,Tue Oct 01 2024 15:13:34 GMT-0500 (Central Daylight Time),626771.4000000954,1400,O,z,876,16,1,2299.5,624471.9000000954,7022,NTS,C,21
9,20,test,3,C,circle.png,1,m,Tue Oct 01 2024 15:13:34 GMT-0500 (Central Daylight Time),629153.9000000954,1500,O,m,835,8,1,2365.8000000715256,626788.1000000238,7022,NTS,C,22
7,20,test,3,C,triangle.png,0,z,Tue Oct 01 2024 15:13:34 GMT-0500 (Central Daylight Time),632402.8000000715,1700,O,None,1516,6,1,3232.5,629170.3000000715,7022,NTS,C,23
3,21,test,3,C,triangle.png,1,z,Tue Oct 01 2024 15:13:34 GMT-0500 (Central Daylight Time),634518.3000000715,1200,O,z,880,19,1,2095.600000023842,632422.7000000477,7022,NTS,C,24
3,1,test,4,C,triangle.png,1,z,Tue Oct 01 2024 15:13:34 GMT-0500 (Central Daylight Time),639117.6000000238,1200,O,z,982,19,1,2200.5,636917.1000000238,7022,NTS,C,1
6,2,test,4,C,circle.png,1,m,Tue Oct 01 2024 15:13:34 GMT-0500 (Central Daylight Time),641850.2000000477,1900,O,m,794,21,1,2715.7000000476837,639134.5,7022,NTS,C,2
1,3,test,4,C,triangle.png,1,z,Tue Oct 01 2024 15:13:34 GMT-0500 (Central Daylight Time),644615.6000000238,1900,O,z,822,9,1,2748.399999976158,641867.2000000477,7022,NTS,C,3
9,4,test,4,C,circle.png,1,m,Tue Oct 01 2024 15:13:34 GMT-0500 (Central Daylight Time),647064.6000000238,1500,O,m,904,24,1,2432.2999999523163,644632.3000000715,7022,NTS,C,4
6,5,test,4,C,triangle.png,1,m,Tue Oct 01 2024 15:13:34 GMT-0500 (Central Daylight Time),649480.7000000477,1000,O,m,1370,13,1,2397.7000000476837,647083.0,7022,NTS,C,5
6,6,test,4,C,circle.png,1,m,Tue Oct 01 2024 15:13:34 GMT-0500 (Central Daylight Time),652196.3000000715,1900,O,m,766,5,1,2698.8000000715256,649497.5,7022,NTS,C,6
7,7,test,4,C,triangle.png,1,z,Tue Oct 01 2024 15:13:34 GMT-0500 (Central Daylight Time),654762.2000000477,1700,O,z,827,22,1,2549.0,652213.2000000477,7022,NTS,C,7
9,8,test,4,C,circle.png,1,m,Tue Oct 01 2024 15:13:34 GMT-0500 (Central Daylight Time),657111.5,1500,O,m,805,8,1,2333.5,654778.0,7022,NTS,C,8
3,9,test,4,C,triangle.png,1,z,Tue Oct 01 2024 15:13:34 GMT-0500 (Central Daylight Time),659477.3000000715,1200,O,z,1124,3,1,2349.7000000476837,657127.6000000238,7022,NTS,C,9
4,9,test,4,C,circle.png,0,z,Tue Oct 01 2024 15:13:34 GMT-0500 (Central Daylight Time),661843.2000000477,1400,O,m,917,4,1,2348.7999999523163,659494.4000000954,7022,NTS,C,10
7,9,test,4,C,circle.png,0,m,Tue Oct 01 2024 15:13:34 GMT-0500 (Central Daylight Time),665375.5,2000,O,None,1516,14,1,3517.899999976158,661857.6000000238,7022,NTS,C,11
3,10,test,4,C,circle.png,1,z,Tue Oct 01 2024 15:13:34 GMT-0500 (Central Daylight Time),668207.1000000238,1600,O,z,1187,11,1,2813.100000023842,665394.0,7022,NTS,C,12
2,11,test,4,C,triangle.png,1,m,Tue Oct 01 2024 15:13:34 GMT-0500 (Central Daylight Time),671473.5,2000,O,m,1236,18,1,3260.899999976158,668212.6000000238,7022,NTS,C,13
8,12,test,4,C,triangle.png,1,m,Tue Oct 01 2024 15:13:34 GMT-0500 (Central Daylight Time),673922.7000000477,1600,O,m,802,7,1,2429.899999976158,671492.8000000715,7022,NTS,C,14
2,13,test,4,C,circle.png,1,z,Tue Oct 01 2024 15:13:34 GMT-0500 (Central Daylight Time),676988.3000000715,1700,O,z,1325,10,1,3047.8000000715256,673940.5,7022,NTS,C,15
1,14,test,4,C,circle.png,1,z,Tue Oct 01 2024 15:13:34 GMT-0500 (Central Daylight Time),678770.8000000715,1000,O,z,743,1,1,1764.8000000715256,677006.0,7022,NTS,C,16
8,15,test,4,C,triangle.png,1,m,Tue Oct 01 2024 15:13:34 GMT-0500 (Central Daylight Time),681186.8000000715,1600,O,m,793,23,1,2404.8000000715256,678782.0,7022,NTS,C,17
7,16,test,4,C,triangle.png,1,z,Tue Oct 01 2024 15:13:34 GMT-0500 (Central Daylight Time),683869.3000000715,1700,O,z,949,6,1,2665.600000023842,681203.7000000477,7022,NTS,C,18
4,17,test,4,C,circle.png,1,z,Tue Oct 01 2024 15:13:34 GMT-0500 (Central Daylight Time),686618.3000000715,1400,O,z,1303,20,1,2732.2000000476837,683886.1000000238,7022,NTS,C,19
2,18,test,4,C,triangle.png,1,m,Tue Oct 01 2024 15:13:34 GMT-0500 (Central Daylight Time),690033.7000000477,2000,O,m,1377,2,1,3397.7999999523163,686635.9000000954,7022,NTS,C,20
1,19,test,4,C,circle.png,1,z,Tue Oct 01 2024 15:13:34 GMT-0500 (Central Daylight Time),692183.0,1000,O,z,1113,17,1,2131.899999976158,690051.1000000238,7022,NTS,C,21
8,20,test,4,C,circle.png,1,m,Tue Oct 01 2024 15:13:34 GMT-0500 (Central Daylight Time),694382.5,1200,O,m,955,15,1,2182.899999976158,692199.6000000238,7022,NTS,C,22
9,21,test,4,C,triangle.png,1,z,Tue Oct 01 2024 15:13:34 GMT-0500 (Central Daylight Time),696998.1000000238,1400,O,z,1181,16,1,2599.399999976158,694398.7000000477,7022,NTS,C,23
4,21,test,4,C,triangle.png,0,m,Tue Oct 01 2024 15:13:34 GMT-0500 (Central Daylight Time),700047.3000000715,1500,O,None,1515,12,1,3032.399999976158,697014.9000000954,7022,NTS,C,24
