Q,Q1,Q2,Q3,Q4,acc_sum,block,block_c,correct,correct_response,datetime,endtime,project,response,response_time,row_sel,session_number,squiggle1,squiggle1x,squiggle1y,squiggle2,squiggle2x,squiggle2y,squiggle3,squiggle3x,squiggle3y,squiggle4,squiggle4x,squiggle4y,start_end,starttime,subject_id,target_congruent,task,task_vers,testsquiggle,testsquigglex,testsquiggley,time_practice_delay,time_practice_fixation,time_practice_stimuli,time_practice_study,time_test_delay,time_test_fixation,time_test_stimuli,time_test_study,trial
1,1,0,0,0,0,prac,1,0,z,Wed Oct 02 2024 12:32:00 GMT-0500 (Central Daylight Time),170796.10000002384,O,None,2015,1,1,116.bmp,-120,-120,117.bmp,120,-120,118.bmp,-120,120,119.bmp,120,120,10815.799999952316,159980.30000007153,7023,yes,SM,A,116.bmp,-120,-120,156945,150928,158961,152930,,,,,1
3,0,0,1,0,0,prac,1,0,m,Wed Oct 02 2024 12:32:00 GMT-0500 (Central Daylight Time),180892.89999997616,O,z,1263,2,1,120.bmp,-120,-120,121.bmp,120,-120,122.bmp,-120,120,123.bmp,120,120,10081.799999952316,170811.10000002384,7023,no,SM,A,123.bmp,-120,120,167791,161760,169808,163776,,,,,2
4,0,0,0,1,0,prac,1,0,m,Wed Oct 02 2024 12:32:00 GMT-0500 (Central Daylight Time),191239.30000007153,O,z,1518,3,1,124.bmp,-120,-120,125.bmp,120,-120,126.bmp,-120,120,127.bmp,120,120,10331.400000095367,180907.89999997616,7023,no,SM,A,124.bmp,120,120,177888,171856,179904,173873,,,,,3
2,0,1,0,0,0,prac,1,0,z,Wed Oct 02 2024 12:32:00 GMT-0500 (Central Daylight Time),201385.20000004768,O,m,1308,4,1,128.bmp,-120,-120,129.bmp,120,-120,130.bmp,-120,120,131.bmp,120,120,10129.100000023842,191256.10000002384,7023,yes,SM,A,129.bmp,120,-120,188234,182204,190251,184220,,,,,4
3,0,0,1,0,0,prac,1,0,z,Wed Oct 02 2024 12:32:00 GMT-0500 (Central Daylight Time),211849.10000002384,O,m,1643,5,1,132.bmp,-120,-120,133.bmp,120,-120,134.bmp,-120,120,135.bmp,120,120,10459.200000047684,201389.89999997616,7023,yes,SM,A,134.bmp,-120,120,198364,192337,200380,194350,,,,,5
1,1,0,0,0,0,prac,1,0,m,Wed Oct 02 2024 12:32:00 GMT-0500 (Central Daylight Time),221912.5,O,z,1236,6,1,136.bmp,-120,-120,137.bmp,120,-120,138.bmp,-120,120,139.bmp,120,120,10049.600000023842,211862.89999997616,7023,no,SM,A,139.bmp,-120,-120,208827,202811,210843,204813,,,,,6
2,0,1,0,0,0,prac,1,0,m,Wed Oct 02 2024 12:32:00 GMT-0500 (Central Daylight Time),232225.30000007153,O,z,1483,7,1,140.bmp,-120,-120,141.bmp,120,-120,142.bmp,-120,120,143.bmp,120,120,10299.900000095367,221925.39999997616,7023,no,SM,A,140.bmp,120,-120,218891,212873,220908,214876,,,,,7
4,0,0,0,1,0,prac,1,0,z,Wed Oct 02 2024 12:32:00 GMT-0500 (Central Daylight Time),241872.5,O,m,827,8,1,144.bmp,-120,-120,145.bmp,120,-120,146.bmp,-120,120,147.bmp,120,120,9641.199999928474,232231.30000007153,7023,yes,SM,A,147.bmp,120,120,229204,223179,231220,225189,,,,,8
1,1,0,0,0,1,prac,2,1,z,Wed Oct 02 2024 12:32:00 GMT-0500 (Central Daylight Time),261299.60000002384,O,z,956,1,1,116.bmp,-120,-120,117.bmp,120,-120,118.bmp,-120,120,119.bmp,120,120,9767.399999976158,251532.20000004768,7023,yes,SM,A,116.bmp,-120,-120,248498,242480,250514,244483,,,,,1
3,0,0,1,0,2,prac,2,1,m,Wed Oct 02 2024 12:32:00 GMT-0500 (Central Daylight Time),271846.2000000477,O,m,1711,2,1,120.bmp,-120,-120,121.bmp,120,-120,122.bmp,-120,120,123.bmp,120,120,10532.100000023842,261314.10000002384,7023,no,SM,A,123.bmp,-120,120,258295,252262,260311,254280,,,,,2
4,0,0,0,1,3,prac,2,1,m,Wed Oct 02 2024 12:32:00 GMT-0500 (Central Daylight Time),282192.8000000715,O,m,1526,3,1,124.bmp,-120,-120,125.bmp,120,-120,126.bmp,-120,120,127.bmp,120,120,10334.200000047684,271858.60000002384,7023,no,SM,A,124.bmp,120,120,268825,262806,270841,264810,,,,,3
2,0,1,0,0,4,prac,2,1,z,Wed Oct 02 2024 12:32:00 GMT-0500 (Central Daylight Time),292906.0,O,z,1884,4,1,128.bmp,-120,-120,129.bmp,120,-120,130.bmp,-120,120,131.bmp,120,120,10699.100000023842,282206.89999997616,7023,yes,SM,A,129.bmp,120,-120,279171,273155,281187,275156,,,,,4
3,0,0,1,0,4,prac,2,0,z,Wed Oct 02 2024 12:32:00 GMT-0500 (Central Daylight Time),303419.10000002384,O,m,1699,5,1,132.bmp,-120,-120,133.bmp,120,-120,134.bmp,-120,120,135.bmp,120,120,10500.399999976158,292918.7000000477,7023,yes,SM,A,134.bmp,-120,120,289884,283866,291900,285869,,,,,5
1,1,0,0,0,5,prac,2,1,m,Wed Oct 02 2024 12:32:00 GMT-0500 (Central Daylight Time),313832.39999997616,O,m,1594,6,1,136.bmp,-120,-120,137.bmp,120,-120,138.bmp,-120,120,139.bmp,120,120,10400.699999928474,303431.7000000477,7023,no,SM,A,139.bmp,-120,-120,300398,294379,302413,296383,,,,,6
2,0,1,0,0,6,prac,2,1,m,Wed Oct 02 2024 12:32:00 GMT-0500 (Central Daylight Time),324278.3000000715,O,m,1628,7,1,140.bmp,-120,-120,141.bmp,120,-120,142.bmp,-120,120,143.bmp,120,120,10433.600000023842,313844.7000000477,7023,no,SM,A,140.bmp,120,-120,310811,304793,312827,306796,,,,,7
4,0,0,0,1,7,prac,2,1,z,Wed Oct 02 2024 12:32:00 GMT-0500 (Central Daylight Time),334692.10000002384,O,z,1589,8,1,144.bmp,-120,-120,145.bmp,120,-120,146.bmp,-120,120,147.bmp,120,120,10409.5,324282.60000002384,7023,yes,SM,A,147.bmp,120,120,321258,315230,323274,317242,,,,,8
4,0,0,0,1,0,test,1,0,m,Wed Oct 02 2024 12:32:00 GMT-0500 (Central Daylight Time),356968.3000000715,O,None,2015,1,1,148.bmp,-120,-120,149.bmp,120,-120,150.bmp,-120,120,143.bmp,120,120,10052.0,346916.3000000715,7023,no,SM,A,150.bmp,120,120,321258,315230,323274,317242,343883.0,337864.0,345900.0,339868.0,1
2,0,1,0,0,0,test,1,0,m,Wed Oct 02 2024 12:32:00 GMT-0500 (Central Daylight Time),367031.60000002384,O,None,2015,2,1,101.bmp,-120,-120,102.bmp,120,-120,103.bmp,-120,120,104.bmp,120,120,10050.0,356981.60000002384,7023,no,SM,A,103.bmp,120,-120,321258,315230,323274,317242,353947.0,347929.0,355963.0,349932.0,2
1,1,0,0,0,1,test,1,1,z,Wed Oct 02 2024 12:32:00 GMT-0500 (Central Daylight Time),377044.8000000715,O,z,1957,3,1,105.bmp,-120,-120,106.bmp,120,-120,107.bmp,-120,120,108.bmp,120,120,10004.200000047684,367040.60000002384,7023,yes,SM,A,105.bmp,-120,-120,321258,315230,323274,317242,364010.0,357988.0,366026.0,359994.0,3
3,0,0,1,0,1,test,1,0,m,Wed Oct 02 2024 12:32:00 GMT-0500 (Central Daylight Time),387108.3000000715,O,None,2015,4,1,109.bmp,-120,-120,110.bmp,120,-120,111.bmp,-120,120,112.bmp,120,120,10051.200000047684,377057.10000002384,7023,no,SM,A,109.bmp,-120,120,321258,315230,323274,317242,374023.0,368005.0,376040.0,370008.0,4
2,0,1,0,0,1,test,1,0,z,Wed Oct 02 2024 12:32:00 GMT-0500 (Central Daylight Time),397171.60000002384,O,None,2015,5,1,113.bmp,-120,-120,114.bmp,120,-120,115.bmp,-120,120,116.bmp,120,120,10051.5,387120.10000002384,7023,yes,SM,A,114.bmp,120,-120,321258,315230,323274,317242,384087.0,378068.0,386103.0,380072.0,5
3,0,0,1,0,2,test,1,1,z,Wed Oct 02 2024 12:32:00 GMT-0500 (Central Daylight Time),407084.89999997616,O,z,1856,6,1,117.bmp,-120,-120,118.bmp,120,-120,119.bmp,-120,120,120.bmp,120,120,9901.799999952316,397183.10000002384,7023,yes,SM,A,119.bmp,-120,120,321258,315230,323274,317242,394150.0,388131.0,396167.0,390135.0,6
4,0,0,0,1,3,test,1,1,z,Wed Oct 02 2024 12:32:00 GMT-0500 (Central Daylight Time),416548.5,O,z,1407,7,1,121.bmp,-120,-120,122.bmp,120,-120,123.bmp,-120,120,124.bmp,120,120,9451.5,407097.0,7023,yes,SM,A,124.bmp,120,120,321258,315230,323274,317242,404064.0,398045.0,406080.0,400049.0,7
2,0,1,0,0,4,test,1,1,m,Wed Oct 02 2024 12:32:00 GMT-0500 (Central Daylight Time),426345.3000000715,O,m,1735,8,1,125.bmp,-120,-120,126.bmp,120,-120,127.bmp,-120,120,128.bmp,120,120,9784.5,416560.8000000715,7023,no,SM,A,125.bmp,120,-120,321258,315230,323274,317242,413527.0,407508.0,415544.0,409512.0,8
3,0,0,1,0,5,test,1,1,m,Wed Oct 02 2024 12:32:00 GMT-0500 (Central Daylight Time),436225.39999997616,O,m,1793,9,1,129.bmp,-120,-120,130.bmp,120,-120,131.bmp,-120,120,132.bmp,120,120,9845.399999976158,426380.0,7023,no,SM,A,130.bmp,-120,120,321258,315230,323274,317242,423357.0,417328.0,425374.0,419342.0,9
4,0,0,0,1,6,test,1,1,z,Wed Oct 02 2024 12:32:00 GMT-0500 (Central Daylight Time),446038.8000000715,O,z,1754,10,1,137.bmp,-120,-120,138.bmp,120,-120,139.bmp,-120,120,140.bmp,120,120,9800.400000095367,436238.39999997616,7023,yes,SM,A,140.bmp,120,120,321258,315230,323274,317242,433204.0,427186.0,435220.0,429188.0,10
3,0,0,1,0,7,test,1,1,z,Wed Oct 02 2024 12:32:00 GMT-0500 (Central Daylight Time),455785.7000000477,O,z,1693,11,1,133.bmp,-120,-120,134.bmp,120,-120,135.bmp,-120,120,136.bmp,120,120,9734.800000071526,446050.89999997616,7023,yes,SM,A,135.bmp,-120,120,321258,315230,323274,317242,443017.0,436998.0,445034.0,439002.0,11
2,0,1,0,0,8,test,1,1,m,Wed Oct 02 2024 12:32:00 GMT-0500 (Central Daylight Time),465499.10000002384,O,m,1650,12,1,141.bmp,-120,-120,142.bmp,120,-120,143.bmp,-120,120,144.bmp,120,120,9700.899999976158,455798.2000000477,7023,no,SM,A,141.bmp,120,-120,321258,315230,323274,317242,452764.0,446746.0,454781.0,448749.0,12
3,0,0,1,0,9,test,1,1,m,Wed Oct 02 2024 12:32:00 GMT-0500 (Central Daylight Time),474996.0,O,m,1442,13,1,145.bmp,-120,-120,146.bmp,120,-120,147.bmp,-120,120,148.bmp,120,120,9485.899999976158,465510.10000002384,7023,no,SM,A,146.bmp,-120,120,321258,315230,323274,317242,462478.0,456458.0,464493.0,458463.0,13
1,1,0,0,0,9,test,1,0,z,Wed Oct 02 2024 12:32:00 GMT-0500 (Central Daylight Time),484859.60000002384,O,m,1800,14,1,149.bmp,-120,-120,150.bmp,120,-120,104.bmp,-120,120,101.bmp,120,120,9852.0,475007.60000002384,7023,yes,SM,A,149.bmp,-120,-120,321258,315230,323274,317242,471974.0,465955.0,473991.0,467959.0,14
4,0,0,0,1,10,test,1,1,m,Wed Oct 02 2024 12:32:00 GMT-0500 (Central Daylight Time),494805.8000000715,O,m,1888,15,1,110.bmp,-120,-120,111.bmp,120,-120,112.bmp,-120,120,113.bmp,120,120,9934.100000023842,484871.7000000477,7023,no,SM,A,111.bmp,120,120,321258,315230,323274,317242,481838.0,475820.0,483854.0,477823.0,15
1,1,0,0,0,11,test,1,1,m,Wed Oct 02 2024 12:32:00 GMT-0500 (Central Daylight Time),504469.0,O,m,1614,16,1,102.bmp,-120,-120,103.bmp,120,-120,104.bmp,-120,120,105.bmp,120,120,9658.100000023842,494810.89999997616,7023,no,SM,A,105.bmp,-120,-120,321258,315230,323274,317242,491784.0,485758.0,493800.0,487770.0,16
3,0,0,1,0,11,test,1,0,m,Wed Oct 02 2024 12:32:00 GMT-0500 (Central Daylight Time),514399.7000000477,O,z,1879,17,1,122.bmp,-120,-120,123.bmp,120,-120,124.bmp,-120,120,125.bmp,120,120,9927.0,504472.7000000477,7023,no,SM,A,122.bmp,-120,120,321258,315230,323274,317242,501448.0,495420.0,503465.0,497432.0,17
1,1,0,0,0,12,test,1,1,z,Wed Oct 02 2024 12:32:00 GMT-0500 (Central Daylight Time),524196.60000002384,O,z,1733,18,1,106.bmp,-120,-120,107.bmp,120,-120,108.bmp,-120,120,109.bmp,120,120,9784.799999952316,514411.8000000715,7023,yes,SM,A,106.bmp,-120,-120,321258,315230,323274,317242,511378.0,505359.0,513394.0,507363.0,18
2,0,1,0,0,13,test,1,1,z,Wed Oct 02 2024 12:32:00 GMT-0500 (Central Daylight Time),533543.5,O,z,1254,19,1,126.bmp,-120,-120,127.bmp,120,-120,128.bmp,-120,120,129.bmp,120,120,9306.799999952316,524236.7000000477,7023,yes,SM,A,127.bmp,120,-120,321258,315230,323274,317242,521208.0,515184.0,523225.0,517194.0,19
3,0,0,1,0,13,test,1,0,z,Wed Oct 02 2024 12:32:00 GMT-0500 (Central Daylight Time),543373.3000000715,O,m,1781,20,1,130.bmp,-120,-120,131.bmp,120,-120,132.bmp,-120,120,133.bmp,120,120,9816.5,533556.8000000715,7023,yes,SM,A,132.bmp,-120,120,321258,315230,323274,317242,530522.0,524504.0,532538.0,526507.0,20
1,1,0,0,0,14,test,1,1,m,Wed Oct 02 2024 12:32:00 GMT-0500 (Central Daylight Time),553270.1000000238,O,m,1838,21,1,114.bmp,-120,-120,115.bmp,120,-120,116.bmp,-120,120,117.bmp,120,120,9884.600000023842,543385.5,7023,no,SM,A,116.bmp,-120,-120,321258,315230,323274,317242,540352.0,534333.0,542369.0,536337.0,21
4,0,0,0,1,15,test,1,1,z,Wed Oct 02 2024 12:32:00 GMT-0500 (Central Daylight Time),562750.3999999762,O,z,1430,22,1,118.bmp,-120,-120,119.bmp,120,-120,120.bmp,-120,120,121.bmp,120,120,9470.299999952316,553280.1000000238,7023,yes,SM,A,121.bmp,120,120,321258,315230,323274,317242,550249.0,544228.0,552265.0,546234.0,22
1,1,0,0,0,16,test,1,1,m,Wed Oct 02 2024 12:32:00 GMT-0500 (Central Daylight Time),572397.2000000477,O,m,1598,23,1,134.bmp,-120,-120,135.bmp,120,-120,136.bmp,-120,120,137.bmp,120,120,9635.800000071526,562761.3999999762,7023,no,SM,A,137.bmp,-120,-120,321258,315230,323274,317242,559729.0,553709.0,561746.0,555714.0,23
2,0,1,0,0,17,test,1,1,z,Wed Oct 02 2024 12:32:00 GMT-0500 (Central Daylight Time),582360.3999999762,O,z,1910,24,1,142.bmp,-120,-120,143.bmp,120,-120,144.bmp,-120,120,145.bmp,120,120,9951.899999976158,572408.5,7023,yes,SM,A,143.bmp,120,-120,321258,315230,323274,317242,569376.0,563356.0,571392.0,565361.0,24
4,0,0,0,1,18,test,1,1,m,Wed Oct 02 2024 12:32:00 GMT-0500 (Central Daylight Time),591873.8000000715,O,m,1459,25,1,146.bmp,-120,-120,147.bmp,120,-120,148.bmp,-120,120,149.bmp,120,120,9506.300000071526,582367.5,7023,no,SM,A,148.bmp,120,120,321258,315230,323274,317242,579339.0,573315.0,581355.0,575325.0,25
1,1,0,0,0,18,test,1,0,z,Wed Oct 02 2024 12:32:00 GMT-0500 (Central Daylight Time),601937.6000000238,O,None,2015,26,1,138.bmp,-120,-120,139.bmp,120,-120,140.bmp,-120,120,141.bmp,120,120,10060.299999952316,591877.3000000715,7023,yes,SM,A,138.bmp,-120,-120,321258,315230,323274,317242,588853.0,582825.0,590869.0,584838.0,26
4,0,0,0,1,19,test,1,1,z,Wed Oct 02 2024 12:32:00 GMT-0500 (Central Daylight Time),611284.6000000238,O,z,1290,27,1,150.bmp,-120,-120,111.bmp,120,-120,101.bmp,-120,120,102.bmp,120,120,9335.799999952316,601948.8000000715,7023,yes,SM,A,102.bmp,120,120,321258,315230,323274,317242,598916.0,592896.0,600933.0,594901.0,27
3,0,0,1,0,19,test,1,0,m,Wed Oct 02 2024 12:32:00 GMT-0500 (Central Daylight Time),621347.8999999762,O,None,2015,28,1,103.bmp,-120,-120,104.bmp,120,-120,105.bmp,-120,120,106.bmp,120,120,10051.199999928474,611296.7000000477,7023,no,SM,A,103.bmp,-120,120,321258,315230,323274,317242,608263.0,602244.0,610280.0,604248.0,28
2,0,1,0,0,20,test,1,1,z,Wed Oct 02 2024 12:32:00 GMT-0500 (Central Daylight Time),630411.7000000477,O,z,1008,29,1,107.bmp,-120,-120,108.bmp,120,-120,109.bmp,-120,120,110.bmp,120,120,9050.600000023842,621361.1000000238,7023,yes,SM,A,108.bmp,120,-120,321258,315230,323274,317242,618327.0,612309.0,620343.0,614312.0,29
3,0,0,1,0,20,test,1,0,z,Wed Oct 02 2024 12:32:00 GMT-0500 (Central Daylight Time),640275.1000000238,O,m,1808,30,1,111.bmp,-120,-120,112.bmp,120,-120,113.bmp,-120,120,114.bmp,120,120,9850.700000047684,630424.3999999762,7023,yes,SM,A,113.bmp,-120,120,321258,315230,323274,317242,627390.0,621372.0,629407.0,623375.0,30
1,1,0,0,0,21,test,1,1,z,Wed Oct 02 2024 12:32:00 GMT-0500 (Central Daylight Time),650188.7000000477,O,z,1865,31,1,115.bmp,-120,-120,116.bmp,120,-120,117.bmp,-120,120,118.bmp,120,120,9900.600000023842,640288.1000000238,7023,yes,SM,A,115.bmp,-120,-120,321258,315230,323274,317242,637254.0,631236.0,639270.0,633239.0,31
2,0,1,0,0,22,test,1,1,m,Wed Oct 02 2024 12:32:00 GMT-0500 (Central Daylight Time),659552.2000000477,O,m,1311,32,1,119.bmp,-120,-120,120.bmp,120,-120,121.bmp,-120,120,122.bmp,120,120,9351.200000047684,650201.0,7023,no,SM,A,119.bmp,120,-120,321258,315230,323274,317242,647167.0,641149.0,649184.0,643152.0,32
4,0,0,0,1,23,test,1,1,z,Wed Oct 02 2024 12:32:00 GMT-0500 (Central Daylight Time),669099.0,O,z,1484,33,1,131.bmp,-120,-120,132.bmp,120,-120,133.bmp,-120,120,134.bmp,120,120,9535.299999952316,659563.7000000477,7023,yes,SM,A,134.bmp,120,120,321258,315230,323274,317242,656531.0,650511.0,658547.0,652516.0,33
2,0,1,0,0,24,test,1,1,z,Wed Oct 02 2024 12:32:00 GMT-0500 (Central Daylight Time),678578.5,O,z,1417,34,1,123.bmp,-120,-120,124.bmp,120,-120,125.bmp,-120,120,126.bmp,120,120,9468.199999928474,669110.3000000715,7023,yes,SM,A,124.bmp,120,-120,321258,315230,323274,317242,666077.0,660058.0,668093.0,662062.0,34
4,0,0,0,1,25,test,1,1,m,Wed Oct 02 2024 12:32:00 GMT-0500 (Central Daylight Time),688275.3999999762,O,m,1641,35,1,127.bmp,-120,-120,128.bmp,120,-120,129.bmp,-120,120,130.bmp,120,120,9693.599999904633,678581.8000000715,7023,no,SM,A,129.bmp,120,120,321258,315230,323274,317242,675558.0,669529.0,677573.0,671542.0,35
3,0,0,1,0,26,test,1,1,m,Wed Oct 02 2024 12:32:00 GMT-0500 (Central Daylight Time),698222.6000000238,O,m,1898,36,1,135.bmp,-120,-120,136.bmp,120,-120,137.bmp,-120,120,138.bmp,120,120,9943.100000023842,688279.5,7023,no,SM,A,135.bmp,-120,120,321258,315230,323274,317242,685254.0,679227.0,687270.0,681239.0,36
1,1,0,0,0,27,test,1,1,m,Wed Oct 02 2024 12:32:00 GMT-0500 (Central Daylight Time),707585.6000000238,O,m,1309,37,1,139.bmp,-120,-120,140.bmp,120,-120,141.bmp,-120,120,142.bmp,120,120,9350.100000023842,698235.5,7023,no,SM,A,140.bmp,-120,-120,321258,315230,323274,317242,695201.0,689183.0,697217.0,691185.0,37
2,0,1,0,0,28,test,1,1,m,Wed Oct 02 2024 12:32:00 GMT-0500 (Central Daylight Time),716916.6000000238,O,m,1275,38,1,143.bmp,-120,-120,144.bmp,120,-120,145.bmp,-120,120,146.bmp,120,120,9327.5,707589.1000000238,7023,no,SM,A,145.bmp,120,-120,321258,315230,323274,317242,704564.0,698536.0,706581.0,700550.0,38
4,0,0,0,1,29,test,1,1,z,Wed Oct 02 2024 12:32:00 GMT-0500 (Central Daylight Time),726680.0,O,z,1711,39,1,147.bmp,-120,-120,148.bmp,120,-120,149.bmp,-120,120,150.bmp,120,120,9751.0,716929.0,7023,yes,SM,A,150.bmp,120,120,321258,315230,323274,317242,713895.0,707877.0,715911.0,709880.0,39
3,0,0,1,0,29,test,1,0,m,Wed Oct 02 2024 12:32:00 GMT-0500 (Central Daylight Time),736743.3999999762,O,None,2015,40,1,104.bmp,-120,-120,105.bmp,120,-120,106.bmp,-120,120,107.bmp,120,120,10052.699999928474,726690.7000000477,7023,no,SM,A,105.bmp,-120,120,321258,315230,323274,317242,723658.0,717638.0,725675.0,719643.0,40
1,1,0,0,0,30,test,1,1,z,Wed Oct 02 2024 12:32:00 GMT-0500 (Central Daylight Time),746173.5,O,z,1380,41,1,108.bmp,-120,-120,109.bmp,120,-120,110.bmp,-120,120,111.bmp,120,120,9418.299999952316,736755.2000000477,7023,yes,SM,A,108.bmp,-120,-120,321258,315230,323274,317242,733722.0,727703.0,735738.0,729707.0,41
4,0,0,0,1,31,test,1,1,z,Wed Oct 02 2024 12:32:00 GMT-0500 (Central Daylight Time),755387.5,O,z,1158,42,1,112.bmp,-120,-120,113.bmp,120,-120,114.bmp,-120,120,115.bmp,120,120,9202.399999976158,746185.1000000238,7023,yes,SM,A,115.bmp,120,120,321258,315230,323274,317242,743152.0,737133.0,745169.0,739137.0,42
1,1,0,0,0,32,test,1,1,z,Wed Oct 02 2024 12:32:00 GMT-0500 (Central Daylight Time),765084.6000000238,O,z,1649,43,1,116.bmp,-120,-120,117.bmp,120,-120,118.bmp,-120,120,119.bmp,120,120,9686.299999952316,755398.3000000715,7023,yes,SM,A,116.bmp,-120,-120,321258,315230,323274,317242,752365.0,746346.0,754382.0,748350.0,43
4,0,0,0,1,33,test,1,1,m,Wed Oct 02 2024 12:32:00 GMT-0500 (Central Daylight Time),775080.7000000477,O,m,1945,44,1,104.bmp,-120,-120,101.bmp,120,-120,102.bmp,-120,120,103.bmp,120,120,9982.399999976158,765098.3000000715,7023,no,SM,A,104.bmp,120,120,321258,315230,323274,317242,762062.0,756046.0,764078.0,758048.0,44
1,1,0,0,0,33,test,1,0,m,Wed Oct 02 2024 12:32:00 GMT-0500 (Central Daylight Time),785144.2000000477,O,None,2015,45,1,128.bmp,-120,-120,129.bmp,120,-120,130.bmp,-120,120,131.bmp,120,120,10048.5,775095.7000000477,7023,no,SM,A,131.bmp,-120,-120,321258,315230,323274,317242,772059.0,766043.0,774076.0,768044.0,45
1,1,0,0,0,33,test,1,0,m,Wed Oct 02 2024 12:32:00 GMT-0500 (Central Daylight Time),795207.7000000477,O,None,2015,46,1,120.bmp,-120,-120,121.bmp,120,-120,122.bmp,-120,120,123.bmp,120,120,10051.100000023842,785156.6000000238,7023,no,SM,A,121.bmp,-120,-120,321258,315230,323274,317242,782123.0,776104.0,784139.0,778108.0,46
3,0,0,1,0,34,test,1,1,z,Wed Oct 02 2024 12:32:00 GMT-0500 (Central Daylight Time),804821.3999999762,O,z,1549,47,1,124.bmp,-120,-120,125.bmp,120,-120,126.bmp,-120,120,127.bmp,120,120,9602.599999904633,795218.8000000715,7023,yes,SM,A,126.bmp,-120,120,321258,315230,323274,317242,792186.0,786166.0,794203.0,788171.0,47
3,0,0,1,0,34,test,1,0,z,Wed Oct 02 2024 12:32:00 GMT-0500 (Central Daylight Time),814351.3000000715,O,m,1471,48,1,140.bmp,-120,-120,141.bmp,120,-120,142.bmp,-120,120,143.bmp,120,120,9519.100000023842,804832.2000000477,7023,yes,SM,A,142.bmp,-120,120,321258,315230,323274,317242,801800.0,795780.0,803816.0,797785.0,48
2,0,1,0,0,35,test,1,1,z,Wed Oct 02 2024 12:32:00 GMT-0500 (Central Daylight Time),824131.3000000715,O,z,1725,49,1,136.bmp,-120,-120,137.bmp,120,-120,138.bmp,-120,120,139.bmp,120,120,9769.100000023842,814362.2000000477,7023,yes,SM,A,137.bmp,120,-120,321258,315230,323274,317242,811330.0,805310.0,813346.0,807315.0,49
3,0,0,1,0,36,test,1,1,m,Wed Oct 02 2024 12:32:00 GMT-0500 (Central Daylight Time),833561.6000000238,O,m,1377,50,1,132.bmp,-120,-120,133.bmp,120,-120,134.bmp,-120,120,135.bmp,120,120,9417.799999952316,824143.8000000715,7023,no,SM,A,132.bmp,-120,120,321258,315230,323274,317242,821110.0,815091.0,823126.0,817095.0,50
2,0,1,0,0,37,test,1,1,z,Wed Oct 02 2024 12:32:00 GMT-0500 (Central Daylight Time),842575.3000000715,O,z,955,51,1,144.bmp,-120,-120,145.bmp,120,-120,146.bmp,-120,120,147.bmp,120,120,9001.0,833574.3000000715,7023,yes,SM,A,145.bmp,120,-120,321258,315230,323274,317242,830540.0,824522.0,832557.0,826525.0,51
4,0,0,0,1,38,test,1,1,m,Wed Oct 02 2024 12:32:00 GMT-0500 (Central Daylight Time),852155.5,O,m,1525,52,1,148.bmp,-120,-120,149.bmp,120,-120,150.bmp,-120,120,131.bmp,120,120,9568.399999976158,842587.1000000238,7023,no,SM,A,148.bmp,120,120,321258,315230,323274,317242,839554.0,833535.0,841570.0,835539.0,52
3,0,0,1,0,38,test,1,0,z,Wed Oct 02 2024 12:32:00 GMT-0500 (Central Daylight Time),862218.8999999762,O,None,2015,53,1,101.bmp,-120,-120,102.bmp,120,-120,103.bmp,-120,120,104.bmp,120,120,10052.599999904633,852166.3000000715,7023,yes,SM,A,103.bmp,-120,120,321258,315230,323274,317242,849134.0,843114.0,851151.0,845119.0,53
1,1,0,0,0,39,test,1,1,m,Wed Oct 02 2024 12:32:00 GMT-0500 (Central Daylight Time),872232.2000000477,O,m,1961,54,1,105.bmp,-120,-120,106.bmp,120,-120,107.bmp,-120,120,108.bmp,120,120,10002.300000071526,862229.8999999762,7023,no,SM,A,107.bmp,-120,-120,321258,315230,323274,317242,859197.0,853178.0,861214.0,855183.0,54
4,0,0,0,1,40,test,1,1,z,Wed Oct 02 2024 12:32:00 GMT-0500 (Central Daylight Time),881612.5,O,z,1316,55,1,109.bmp,-120,-120,110.bmp,120,-120,111.bmp,-120,120,112.bmp,120,120,9369.299999952316,872243.2000000477,7023,yes,SM,A,112.bmp,120,120,321258,315230,323274,317242,869210.0,863191.0,871227.0,865195.0,55
2,0,1,0,0,41,test,1,1,m,Wed Oct 02 2024 12:32:00 GMT-0500 (Central Daylight Time),890742.7000000477,O,m,1079,56,1,113.bmp,-120,-120,114.bmp,120,-120,115.bmp,-120,120,116.bmp,120,120,9119.399999976158,881623.3000000715,7023,no,SM,A,113.bmp,120,-120,321258,315230,323274,317242,878591.0,872571.0,880607.0,874576.0,56
4,0,0,0,1,42,test,1,1,m,Wed Oct 02 2024 12:32:00 GMT-0500 (Central Daylight Time),900039.8999999762,O,m,1247,57,1,117.bmp,-120,-120,118.bmp,120,-120,119.bmp,-120,120,120.bmp,120,120,9284.699999928474,890755.2000000477,7023,no,SM,A,118.bmp,120,120,321258,315230,323274,317242,887721.0,881703.0,889737.0,883706.0,57
3,0,0,1,0,42,test,1,0,z,Wed Oct 02 2024 12:32:00 GMT-0500 (Central Daylight Time),910103.2000000477,O,None,2015,58,1,121.bmp,-120,-120,122.bmp,120,-120,123.bmp,-120,120,124.bmp,120,120,10050.5,900052.7000000477,7023,yes,SM,A,123.bmp,-120,120,321258,315230,323274,317242,897018.0,891000.0,899035.0,893004.0,58
2,0,1,0,0,42,test,1,0,m,Wed Oct 02 2024 12:32:00 GMT-0500 (Central Daylight Time),919450.0,O,z,1285,59,1,125.bmp,-120,-120,126.bmp,120,-120,127.bmp,-120,120,128.bmp,120,120,9334.299999952316,910115.7000000477,7023,no,SM,A,128.bmp,120,-120,321258,315230,323274,317242,907082.0,901064.0,909098.0,903067.0,59
1,1,0,0,0,43,test,1,1,z,Wed Oct 02 2024 12:32:00 GMT-0500 (Central Daylight Time),928613.7000000477,O,z,1107,60,1,129.bmp,-120,-120,130.bmp,120,-120,131.bmp,-120,120,132.bmp,120,120,9153.0,919460.7000000477,7023,yes,SM,A,129.bmp,-120,-120,321258,315230,323274,317242,916429.0,910409.0,918445.0,912414.0,60
2,0,1,0,0,44,test,1,1,z,Wed Oct 02 2024 12:32:00 GMT-0500 (Central Daylight Time),937927.3000000715,O,z,1254,61,1,133.bmp,-120,-120,134.bmp,120,-120,135.bmp,-120,120,136.bmp,120,120,9302.800000071526,928624.5,7023,yes,SM,A,134.bmp,120,-120,321258,315230,323274,317242,925592.0,919572.0,927609.0,921576.0,61
4,0,0,0,1,45,test,1,1,z,Wed Oct 02 2024 12:32:00 GMT-0500 (Central Daylight Time),947190.8999999762,O,z,1214,62,1,141.bmp,-120,-120,142.bmp,120,-120,143.bmp,-120,120,144.bmp,120,120,9252.299999952316,937938.6000000238,7023,yes,SM,A,144.bmp,120,120,321258,315230,323274,317242,934906.0,928886.0,936922.0,930891.0,62
1,1,0,0,0,46,test,1,1,m,Wed Oct 02 2024 12:32:00 GMT-0500 (Central Daylight Time),956846.7000000477,O,m,1604,63,1,145.bmp,-120,-120,146.bmp,120,-120,147.bmp,-120,120,148.bmp,120,120,9644.899999976158,947201.8000000715,7023,no,SM,A,145.bmp,-120,120,321258,315230,323274,317242,944170.0,938149.0,946186.0,940155.0,63
2,0,1,0,0,47,test,1,1,z,Wed Oct 02 2024 12:32:00 GMT-0500 (Central Daylight Time),966617.8999999762,O,z,1727,64,1,149.bmp,-120,-120,150.bmp,120,-120,112.bmp,-120,120,101.bmp,120,120,9766.799999952316,956851.1000000238,7023,yes,SM,A,150.bmp,120,-120,321258,315230,323274,317242,953816.0,947798.0,955833.0,949801.0,64
4,0,0,0,1,47,test,1,0,m,Wed Oct 02 2024 12:32:00 GMT-0500 (Central Daylight Time),976681.3000000715,O,None,2015,65,1,102.bmp,-120,-120,103.bmp,120,-120,104.bmp,-120,120,105.bmp,120,120,10052.200000047684,966629.1000000238,7023,no,SM,A,104.bmp,120,120,321258,315230,323274,317242,963597.0,957577.0,965613.0,959582.0,65
3,0,0,1,0,48,test,1,1,m,Wed Oct 02 2024 12:32:00 GMT-0500 (Central Daylight Time),985861.3000000715,O,m,1131,66,1,106.bmp,-120,-120,107.bmp,120,-120,108.bmp,-120,120,109.bmp,120,120,9165.900000095367,976695.3999999762,7023,no,SM,A,109.bmp,-120,120,321258,315230,323274,317242,973660.0,967643.0,975676.0,969644.0,66
2,0,1,0,0,49,test,1,1,m,Wed Oct 02 2024 12:32:00 GMT-0500 (Central Daylight Time),995175.3000000715,O,m,1247,67,1,137.bmp,-120,-120,138.bmp,120,-120,139.bmp,-120,120,140.bmp,120,120,9290.400000095367,985884.8999999762,7023,no,SM,A,139.bmp,120,-120,321258,315230,323274,317242,982857.0,976832.0,984873.0,978842.0,67
3,0,0,1,0,50,test,1,1,z,Wed Oct 02 2024 12:32:00 GMT-0500 (Central Daylight Time),1004788.8999999762,O,z,1565,68,1,110.bmp,-120,-120,111.bmp,120,-120,112.bmp,-120,120,113.bmp,120,120,9599.899999976158,995189.0,7023,yes,SM,A,112.bmp,-120,120,321258,315230,323274,317242,992154.0,986137.0,994170.0,988139.0,68
1,1,0,0,0,51,test,1,1,m,Wed Oct 02 2024 12:32:00 GMT-0500 (Central Daylight Time),1014352.2000000477,O,m,1512,69,1,114.bmp,-120,-120,115.bmp,120,-120,116.bmp,-120,120,117.bmp,120,120,9551.899999976158,1004800.3000000715,7023,no,SM,A,115.bmp,-120,-120,321258,315230,323274,317242,1001767.0,995748.0,1003784.0,997752.0,69
2,0,1,0,0,52,test,1,1,m,Wed Oct 02 2024 12:32:00 GMT-0500 (Central Daylight Time),1023815.8000000715,O,m,1413,70,1,118.bmp,-120,-120,119.bmp,120,-120,120.bmp,-120,120,121.bmp,120,120,9451.0,1014364.8000000715,7023,no,SM,A,120.bmp,120,-120,321258,315230,323274,317242,1011331.0,1005312.0,1013347.0,1007316.0,70
4,0,0,0,1,53,test,1,1,z,Wed Oct 02 2024 12:32:00 GMT-0500 (Central Daylight Time),1033696.0,O,z,1821,71,1,122.bmp,-120,-120,123.bmp,120,-120,124.bmp,-120,120,125.bmp,120,120,9869.199999928474,1023826.8000000715,7023,yes,SM,A,125.bmp,120,120,321258,315230,323274,317242,1020794.0,1014774.0,1022811.0,1016779.0,71
1,1,0,0,0,54,test,1,1,z,Wed Oct 02 2024 12:32:00 GMT-0500 (Central Daylight Time),1043142.6000000238,O,z,1388,72,1,126.bmp,-120,-120,127.bmp,120,-120,128.bmp,-120,120,129.bmp,120,120,9436.100000023842,1033706.5,7023,yes,SM,A,126.bmp,-120,-120,321258,315230,323274,317242,1030674.0,1024654.0,1032691.0,1026660.0,72
2,0,1,0,0,55,test,1,1,z,Wed Oct 02 2024 12:32:00 GMT-0500 (Central Daylight Time),1052823.0,O,z,1630,73,1,130.bmp,-120,-120,131.bmp,120,-120,132.bmp,-120,120,133.bmp,120,120,9669.299999952316,1043153.7000000477,7023,yes,SM,A,131.bmp,120,-120,321258,315230,323274,317242,1040121.0,1034101.0,1042138.0,1036106.0,73
4,0,0,0,1,56,test,1,1,m,Wed Oct 02 2024 12:32:00 GMT-0500 (Central Daylight Time),1062486.2000000477,O,m,1613,74,1,134.bmp,-120,-120,135.bmp,120,-120,136.bmp,-120,120,137.bmp,120,120,9652.399999976158,1052833.8000000715,7023,no,SM,A,136.bmp,120,120,321258,315230,323274,317242,1049802.0,1043781.0,1051818.0,1045787.0,74
2,0,1,0,0,57,test,1,1,m,Wed Oct 02 2024 12:32:00 GMT-0500 (Central Daylight Time),1072183.1000000238,O,m,1637,75,1,138.bmp,-120,-120,139.bmp,120,-120,140.bmp,-120,120,141.bmp,120,120,9684.200000047684,1062498.8999999762,7023,no,SM,A,141.bmp,120,-120,321258,315230,323274,317242,1059465.0,1053447.0,1061482.0,1055450.0,75
1,1,0,0,0,57,test,1,0,z,Wed Oct 02 2024 12:32:00 GMT-0500 (Central Daylight Time),1082246.7000000477,O,None,2016,76,1,142.bmp,-120,-120,143.bmp,120,-120,144.bmp,-120,120,145.bmp,120,120,10055.399999976158,1072191.3000000715,7023,yes,SM,A,142.bmp,-120,-120,321258,315230,323274,317242,1069162.0,1063139.0,1071178.0,1065146.0,76
3,0,0,1,0,58,test,1,1,z,Wed Oct 02 2024 12:32:00 GMT-0500 (Central Daylight Time),1091877.2000000477,O,z,1583,77,1,150.bmp,-120,-120,111.bmp,120,-120,101.bmp,-120,120,102.bmp,120,120,9618.899999976158,1082258.3000000715,7023,yes,SM,A,101.bmp,-120,120,321258,315230,323274,317242,1079224.0,1073206.0,1081241.0,1075210.0,77
1,1,0,0,0,59,test,1,1,m,Wed Oct 02 2024 12:32:00 GMT-0500 (Central Daylight Time),1101240.0,O,m,1312,78,1,146.bmp,-120,-120,147.bmp,120,-120,148.bmp,-120,120,149.bmp,120,120,9351.699999928474,1091888.3000000715,7023,no,SM,A,147.bmp,-120,-120,321258,315230,323274,317242,1088855.0,1082836.0,1090871.0,1084840.0,78
4,0,0,0,1,59,test,1,0,m,Wed Oct 02 2024 12:32:00 GMT-0500 (Central Daylight Time),1111137.1000000238,O,z,1836,79,1,107.bmp,-120,-120,108.bmp,120,-120,109.bmp,-120,120,110.bmp,120,120,9890.0,1101247.1000000238,7023,no,SM,A,107.bmp,120,120,321258,315230,323274,317242,1098219.0,1092194.0,1100235.0,1094204.0,79
3,0,0,1,0,60,test,1,1,m,Wed Oct 02 2024 12:32:00 GMT-0500 (Central Daylight Time),1121017.0,O,m,1819,80,1,103.bmp,-120,-120,104.bmp,120,-120,105.bmp,-120,120,106.bmp,120,120,9867.100000023842,1111149.8999999762,7023,no,SM,A,106.bmp,-120,120,321258,315230,323274,317242,1108116.0,1102098.0,1110132.0,1104101.0,80
