acc_sum,block,block_c,block_cond,con_img,correct,correct_response,datetime,endtime,face,jitter,line,project,response,response_time,row_sel,session_number,start_end,starttime,subject_id,task,task_vers,trial
0,prac,1,A,haborder.png,0,z,Thu Apr 17 2025 16:58:31 GMT-0500 (Central Daylight Time),58733.0,CFD-BF-031-020-A.jpg,1000,solid,O,None,1516,4,1,3299.0,55434.0,7111,ATS,C,1
1,prac,1,A,haborder.png,1,m,Thu Apr 17 2025 16:58:31 GMT-0500 (Central Daylight Time),62782.09999999404,CFD-BF-019-004-HC.jpg,2000,solid,O,m,1252,5,1,7348.0999999940395,55434.0,7111,ATS,C,2
2,prac,1,A,haborder.png,1,m,Thu Apr 17 2025 16:58:31 GMT-0500 (Central Daylight Time),66080.69999999553,CFD-BM-034-035-HC.jpg,1700,solid,O,m,815,1,1,10646.69999999553,55434.0,7111,ATS,C,3
3,prac,1,A,haborder.png,1,z,Thu Apr 17 2025 16:58:31 GMT-0500 (Central Daylight Time),69596.19999999553,CFD-BM-043-014-A.jpg,1600,solid,O,z,1013,2,1,14162.19999999553,55434.0,7111,ATS,C,4
4,prac,1,A,haborder.png,1,m,Thu Apr 17 2025 16:58:31 GMT-0500 (Central Daylight Time),72695.29999999702,CFD-WM-028-005-HC.jpg,1400,solid,O,m,907,7,1,17261.29999999702,55434.0,7111,ATS,C,5
5,prac,1,A,haborder.png,1,z,Thu Apr 17 2025 16:58:31 GMT-0500 (Central Daylight Time),76260.59999999404,CFD-WM-036-018-A.jpg,1900,solid,O,z,870,8,1,20826.59999999404,55434.0,7111,ATS,C,6
6,prac,1,A,haborder.png,1,z,Thu Apr 17 2025 16:58:31 GMT-0500 (Central Daylight Time),79260.09999999404,CFD-BF-002-018-A.jpg,1200,solid,O,z,1011,6,1,23826.09999999404,55434.0,7111,ATS,C,7
7,prac,1,A,haborder.png,1,z,Thu Apr 17 2025 16:58:31 GMT-0500 (Central Daylight Time),82392.39999999851,CFD-WF-023-013-A.jpg,1000,solid,O,z,1341,12,1,26958.39999999851,55434.0,7111,ATS,C,8
8,prac,1,A,haborder.png,1,m,Thu Apr 17 2025 16:58:31 GMT-0500 (Central Daylight Time),85441.39999999851,CFD-WF-013-009-HC.jpg,1500,solid,O,m,764,11,1,30007.39999999851,55434.0,7111,ATS,C,9
9,prac,1,A,haborder.png,1,z,Thu Apr 17 2025 16:58:31 GMT-0500 (Central Daylight Time),88857.0,CFD-WF-037-016-A.jpg,1600,solid,O,z,1024,10,1,33423.0,55434.0,7111,ATS,C,10
10,prac,1,A,haborder.png,1,m,Thu Apr 17 2025 16:58:31 GMT-0500 (Central Daylight Time),92122.29999999702,CFD-BM-022-004-HC.jpg,1500,solid,O,m,977,3,1,36688.29999999702,55434.0,7111,ATS,C,11
11,prac,1,A,haborder.png,1,m,Thu Apr 17 2025 16:58:31 GMT-0500 (Central Daylight Time),95271.59999999404,CFD-WM-035-036-HC.jpg,1700,solid,O,m,650,9,1,39837.59999999404,55434.0,7111,ATS,C,12
1,prac,1,B,mfborder.png,1,m,Thu Apr 17 2025 16:58:31 GMT-0500 (Central Daylight Time),116665.09999999404,CFD-BM-022-004-HC.jpg,1700,1,O,m,1143,dash,1,3732.2999999970198,112932.79999999702,7111,ATS,C,1
2,prac,1,B,mfborder.png,1,z,Thu Apr 17 2025 16:58:31 GMT-0500 (Central Daylight Time),119664.09999999404,CFD-WF-013-009-HC.jpg,1000,12,O,z,1199,dash,1,6731.29999999702,112932.79999999702,7111,ATS,C,2
3,prac,1,B,mfborder.png,1,z,Thu Apr 17 2025 16:58:31 GMT-0500 (Central Daylight Time),122645.89999999851,CFD-BF-019-004-HC.jpg,1400,7,O,z,793,dash,1,9713.10000000149,112932.79999999702,7111,ATS,C,3
4,prac,1,B,mfborder.png,1,z,Thu Apr 17 2025 16:58:31 GMT-0500 (Central Daylight Time),125728.59999999404,CFD-BF-042-031-HC.jpg,1500,3,O,z,790,dash,1,12795.79999999702,112932.79999999702,7111,ATS,C,4
5,prac,1,B,mfborder.png,1,z,Thu Apr 17 2025 16:58:31 GMT-0500 (Central Daylight Time),128344.39999999851,CFD-BF-031-020-A.jpg,1000,4,O,z,832,dash,1,15411.60000000149,112932.79999999702,7111,ATS,C,5
6,prac,1,B,mfborder.png,1,z,Thu Apr 17 2025 16:58:31 GMT-0500 (Central Daylight Time),131843.59999999404,CFD-WF-001-010-HC.jpg,1900,8,O,z,812,dash,1,18910.79999999702,112932.79999999702,7111,ATS,C,6
7,prac,1,B,mfborder.png,1,m,Thu Apr 17 2025 16:58:31 GMT-0500 (Central Daylight Time),135109.09999999404,CFD-WM-035-036-HC.jpg,1600,10,O,m,870,dash,1,22176.29999999702,112932.79999999702,7111,ATS,C,7
7,prac,1,B,mfborder.png,0,m,Thu Apr 17 2025 16:58:31 GMT-0500 (Central Daylight Time),139057.79999999702,CFD-BM-021-026-A.jpg,1600,2,O,None,1580,dash,1,26125.0,112932.79999999702,7111,ATS,C,8
8,prac,1,B,mfborder.png,1,z,Thu Apr 17 2025 16:58:31 GMT-0500 (Central Daylight Time),142373.59999999404,CFD-WF-037-016-A.jpg,1500,11,O,z,1019,dash,1,29440.79999999702,112932.79999999702,7111,ATS,C,9
9,prac,1,B,mfborder.png,1,m,Thu Apr 17 2025 16:58:31 GMT-0500 (Central Daylight Time),145722.59999999404,CFD-WM-036-018-A.jpg,1700,9,O,m,856,dash,1,32789.79999999702,112932.79999999702,7111,ATS,C,10
10,prac,1,B,mfborder.png,1,m,Thu Apr 17 2025 16:58:31 GMT-0500 (Central Daylight Time),149654.29999999702,CFD-BM-043-014-A.jpg,2000,5,O,m,1142,dash,1,36721.5,112932.79999999702,7111,ATS,C,11
11,prac,1,B,mfborder.png,1,m,Thu Apr 17 2025 16:58:31 GMT-0500 (Central Daylight Time),152486.59999999404,CFD-WM-034-040-A.jpg,1200,6,O,m,841,dash,1,39553.79999999702,112932.79999999702,7111,ATS,C,12
1,test,1,A,haborder.png,1,z,Thu Apr 17 2025 16:58:31 GMT-0500 (Central Daylight Time),170564.69999999553,CFD-WM-036-018-A.jpg,1900,solid,O,z,1130,8,1,3049.10000000149,167515.59999999404,7111,ATS,C,1
2,test,1,A,haborder.png,1,m,Thu Apr 17 2025 16:58:31 GMT-0500 (Central Daylight Time),172913.8999999985,CFD-BM-022-004-HC.jpg,1500,solid,O,m,817,3,1,5398.30000000447,167515.59999999404,7111,ATS,C,2
3,test,1,A,haborder.png,1,z,Thu Apr 17 2025 16:58:31 GMT-0500 (Central Daylight Time),174779.79999999702,CFD-BF-002-018-A.jpg,1200,solid,O,z,647,6,1,7264.20000000298,167515.59999999404,7111,ATS,C,3
4,test,1,A,haborder.png,1,z,Thu Apr 17 2025 16:58:31 GMT-0500 (Central Daylight Time),177329.29999999702,CFD-BM-043-014-A.jpg,1600,solid,O,z,924,2,1,9813.70000000298,167515.59999999404,7111,ATS,C,4
5,test,1,A,haborder.png,1,m,Thu Apr 17 2025 16:58:31 GMT-0500 (Central Daylight Time),179528.5,CFD-WM-028-005-HC.jpg,1400,solid,O,m,775,7,1,12012.90000000596,167515.59999999404,7111,ATS,C,5
6,test,1,A,haborder.png,1,z,Thu Apr 17 2025 16:58:31 GMT-0500 (Central Daylight Time),182177.69999999553,CFD-WM-036-018-A.jpg,1900,solid,O,z,717,8,1,14662.10000000149,167515.59999999404,7111,ATS,C,6
7,test,1,A,haborder.png,1,z,Thu Apr 17 2025 16:58:31 GMT-0500 (Central Daylight Time),184510.3999999985,CFD-WF-037-016-A.jpg,1600,solid,O,z,711,10,1,16994.80000000447,167515.59999999404,7111,ATS,C,7
8,test,1,A,haborder.png,1,z,Thu Apr 17 2025 16:58:31 GMT-0500 (Central Daylight Time),186344.29999999702,CFD-WF-023-013-A.jpg,1000,solid,O,z,773,12,1,18828.70000000298,167515.59999999404,7111,ATS,C,8
9,test,1,A,haborder.png,1,m,Thu Apr 17 2025 16:58:31 GMT-0500 (Central Daylight Time),188459.0,CFD-WM-028-005-HC.jpg,1400,solid,O,m,689,7,1,20943.40000000596,167515.59999999404,7111,ATS,C,9
10,test,1,A,haborder.png,1,z,Thu Apr 17 2025 16:58:31 GMT-0500 (Central Daylight Time),190775.09999999404,CFD-WF-037-016-A.jpg,1600,solid,O,z,686,10,1,23259.5,167515.59999999404,7111,ATS,C,10
11,test,1,A,haborder.png,1,z,Thu Apr 17 2025 16:58:31 GMT-0500 (Central Daylight Time),192458.0,CFD-WF-023-013-A.jpg,1000,solid,O,z,666,12,1,24942.40000000596,167515.59999999404,7111,ATS,C,11
12,test,1,A,haborder.png,1,m,Thu Apr 17 2025 16:58:31 GMT-0500 (Central Daylight Time),195373.3999999985,CFD-BF-019-004-HC.jpg,2000,solid,O,m,896,5,1,27857.80000000447,167515.59999999404,7111,ATS,C,12
13,test,1,A,haborder.png,1,m,Thu Apr 17 2025 16:58:31 GMT-0500 (Central Daylight Time),197839.59999999404,CFD-WM-035-036-HC.jpg,1700,solid,O,m,732,9,1,30324.0,167515.59999999404,7111,ATS,C,13
13,test,1,A,haborder.png,0,m,Thu Apr 17 2025 16:58:31 GMT-0500 (Central Daylight Time),201071.79999999702,CFD-BM-034-035-HC.jpg,1700,solid,O,None,1516,1,1,33556.20000000298,167515.59999999404,7111,ATS,C,14
14,test,1,A,haborder.png,1,m,Thu Apr 17 2025 16:58:31 GMT-0500 (Central Daylight Time),203837.69999999553,CFD-BF-019-004-HC.jpg,2000,solid,O,m,744,5,1,36322.10000000149,167515.59999999404,7111,ATS,C,15
15,test,1,A,haborder.png,1,m,Thu Apr 17 2025 16:58:31 GMT-0500 (Central Daylight Time),206053.5,CFD-WF-013-009-HC.jpg,1500,solid,O,m,686,11,1,38537.90000000596,167515.59999999404,7111,ATS,C,16
16,test,1,A,haborder.png,1,z,Thu Apr 17 2025 16:58:31 GMT-0500 (Central Daylight Time),209096.59999999404,CFD-BM-043-014-A.jpg,1600,solid,O,z,1283,2,1,41581.0,167515.59999999404,7111,ATS,C,17
17,test,1,A,haborder.png,1,z,Thu Apr 17 2025 16:58:31 GMT-0500 (Central Daylight Time),210805.0,CFD-BF-031-020-A.jpg,1000,solid,O,z,690,4,1,43289.40000000596,167515.59999999404,7111,ATS,C,18
18,test,1,A,haborder.png,1,m,Thu Apr 17 2025 16:58:31 GMT-0500 (Central Daylight Time),213001.5,CFD-BM-022-004-HC.jpg,1500,solid,O,m,667,3,1,45485.90000000596,167515.59999999404,7111,ATS,C,19
19,test,1,A,haborder.png,1,z,Thu Apr 17 2025 16:58:31 GMT-0500 (Central Daylight Time),215001.0,CFD-BF-002-018-A.jpg,1200,solid,O,z,767,6,1,47485.40000000596,167515.59999999404,7111,ATS,C,20
20,test,1,A,haborder.png,1,m,Thu Apr 17 2025 16:58:31 GMT-0500 (Central Daylight Time),217449.79999999702,CFD-BM-034-035-HC.jpg,1700,solid,O,m,733,1,1,49934.20000000298,167515.59999999404,7111,ATS,C,21
21,test,1,A,haborder.png,1,z,Thu Apr 17 2025 16:58:31 GMT-0500 (Central Daylight Time),219115.8999999985,CFD-BF-031-020-A.jpg,1000,solid,O,z,639,4,1,51600.30000000447,167515.59999999404,7111,ATS,C,22
22,test,1,A,haborder.png,1,m,Thu Apr 17 2025 16:58:31 GMT-0500 (Central Daylight Time),221465.29999999702,CFD-WM-035-036-HC.jpg,1700,solid,O,m,616,9,1,53949.70000000298,167515.59999999404,7111,ATS,C,23
23,test,1,A,haborder.png,1,m,Thu Apr 17 2025 16:58:31 GMT-0500 (Central Daylight Time),224314.19999999553,CFD-WF-013-009-HC.jpg,1500,solid,O,m,1324,11,1,56798.60000000149,167515.59999999404,7111,ATS,C,24
1,test,1,B,mfborder.png,1,m,Thu Apr 17 2025 16:58:31 GMT-0500 (Central Daylight Time),234061.59999999404,CFD-BM-043-014-A.jpg,2000,dash,O,m,775,5,1,2799.0,231262.59999999404,7111,ATS,C,1
2,test,1,B,mfborder.png,1,z,Thu Apr 17 2025 16:58:31 GMT-0500 (Central Daylight Time),235944.09999999404,CFD-WF-013-009-HC.jpg,1000,dash,O,z,860,12,1,4681.5,231262.59999999404,7111,ATS,C,2
3,test,1,B,mfborder.png,1,z,Thu Apr 17 2025 16:58:31 GMT-0500 (Central Daylight Time),237593.8999999985,CFD-WF-013-009-HC.jpg,1000,dash,O,z,632,12,1,6331.30000000447,231262.59999999404,7111,ATS,C,3
4,test,1,B,mfborder.png,1,z,Thu Apr 17 2025 16:58:31 GMT-0500 (Central Daylight Time),239276.29999999702,CFD-BF-031-020-A.jpg,1000,dash,O,z,663,4,1,8013.70000000298,231262.59999999404,7111,ATS,C,4
5,test,1,B,mfborder.png,1,m,Thu Apr 17 2025 16:58:31 GMT-0500 (Central Daylight Time),241026.09999999404,CFD-WM-034-040-A.jpg,1200,dash,O,m,533,6,1,9763.5,231262.59999999404,7111,ATS,C,5
6,test,1,B,mfborder.png,1,z,Thu Apr 17 2025 16:58:31 GMT-0500 (Central Daylight Time),243258.19999999553,CFD-WF-037-016-A.jpg,1500,dash,O,z,714,11,1,11995.60000000149,231262.59999999404,7111,ATS,C,6
7,test,1,B,mfborder.png,1,m,Thu Apr 17 2025 16:58:31 GMT-0500 (Central Daylight Time),246024.19999999553,CFD-BM-021-026-A.jpg,1600,dash,O,m,1135,2,1,14761.60000000149,231262.59999999404,7111,ATS,C,7
8,test,1,B,mfborder.png,1,m,Thu Apr 17 2025 16:58:31 GMT-0500 (Central Daylight Time),248207.0,CFD-WM-035-036-HC.jpg,1600,dash,O,m,560,10,1,16944.40000000596,231262.59999999404,7111,ATS,C,8
9,test,1,B,mfborder.png,1,m,Thu Apr 17 2025 16:58:31 GMT-0500 (Central Daylight Time),250306.29999999702,CFD-BM-021-026-A.jpg,1600,dash,O,m,474,2,1,19043.70000000298,231262.59999999404,7111,ATS,C,9
10,test,1,B,mfborder.png,1,z,Thu Apr 17 2025 16:58:31 GMT-0500 (Central Daylight Time),251989.19999999553,CFD-BF-031-020-A.jpg,1000,dash,O,z,654,4,1,20726.60000000149,231262.59999999404,7111,ATS,C,10
11,test,1,B,mfborder.png,1,z,Thu Apr 17 2025 16:58:31 GMT-0500 (Central Daylight Time),254105.19999999553,CFD-BF-019-004-HC.jpg,1400,dash,O,z,683,7,1,22842.60000000149,231262.59999999404,7111,ATS,C,11
12,test,1,B,mfborder.png,1,m,Thu Apr 17 2025 16:58:31 GMT-0500 (Central Daylight Time),256820.8999999985,CFD-WM-035-036-HC.jpg,1600,dash,O,m,1083,10,1,25558.30000000447,231262.59999999404,7111,ATS,C,12
13,test,1,B,mfborder.png,1,z,Thu Apr 17 2025 16:58:31 GMT-0500 (Central Daylight Time),258953.59999999404,CFD-WF-037-016-A.jpg,1500,dash,O,z,608,11,1,27691.0,231262.59999999404,7111,ATS,C,13
14,test,1,B,mfborder.png,1,z,Thu Apr 17 2025 16:58:31 GMT-0500 (Central Daylight Time),261402.8999999985,CFD-BF-019-004-HC.jpg,1400,dash,O,z,1023,7,1,30140.30000000447,231262.59999999404,7111,ATS,C,14
15,test,1,B,mfborder.png,1,z,Thu Apr 17 2025 16:58:31 GMT-0500 (Central Daylight Time),264118.59999999404,CFD-WF-001-010-HC.jpg,1900,dash,O,z,794,8,1,32856.0,231262.59999999404,7111,ATS,C,15
16,test,1,B,mfborder.png,1,m,Thu Apr 17 2025 16:58:31 GMT-0500 (Central Daylight Time),266701.3999999985,CFD-BM-022-004-HC.jpg,1700,dash,O,m,863,1,1,35438.80000000447,231262.59999999404,7111,ATS,C,16
17,test,1,B,mfborder.png,1,z,Thu Apr 17 2025 16:58:31 GMT-0500 (Central Daylight Time),269633.59999999404,CFD-BF-042-031-HC.jpg,1500,dash,O,z,1415,3,1,38371.0,231262.59999999404,7111,ATS,C,17
18,test,1,B,mfborder.png,1,m,Thu Apr 17 2025 16:58:31 GMT-0500 (Central Daylight Time),272282.5,CFD-WM-036-018-A.jpg,1700,dash,O,m,931,9,1,41019.90000000596,231262.59999999404,7111,ATS,C,18
19,test,1,B,mfborder.png,1,z,Thu Apr 17 2025 16:58:31 GMT-0500 (Central Daylight Time),275281.8999999985,CFD-WF-001-010-HC.jpg,1900,dash,O,z,1065,8,1,44019.30000000447,231262.59999999404,7111,ATS,C,19
20,test,1,B,mfborder.png,1,m,Thu Apr 17 2025 16:58:31 GMT-0500 (Central Daylight Time),277231.19999999553,CFD-WM-034-040-A.jpg,1200,dash,O,m,719,6,1,45968.60000000149,231262.59999999404,7111,ATS,C,20
21,test,1,B,mfborder.png,1,m,Thu Apr 17 2025 16:58:31 GMT-0500 (Central Daylight Time),280246.799999997,CFD-BM-022-004-HC.jpg,1700,dash,O,m,1285,1,1,48984.20000000298,231262.59999999404,7111,ATS,C,21
22,test,1,B,mfborder.png,1,m,Thu Apr 17 2025 16:58:31 GMT-0500 (Central Daylight Time),282512.799999997,CFD-WM-036-018-A.jpg,1700,dash,O,m,533,9,1,51250.20000000298,231262.59999999404,7111,ATS,C,22
23,test,1,B,mfborder.png,1,m,Thu Apr 17 2025 16:58:31 GMT-0500 (Central Daylight Time),285145.59999999404,CFD-BM-043-014-A.jpg,2000,dash,O,m,600,5,1,53883.0,231262.59999999404,7111,ATS,C,23
24,test,1,B,mfborder.png,1,z,Thu Apr 17 2025 16:58:31 GMT-0500 (Central Daylight Time),287294.799999997,CFD-BF-042-031-HC.jpg,1500,dash,O,z,624,3,1,56032.20000000298,231262.59999999404,7111,ATS,C,24
0,prac,1,C,mfborder.png,0,z,Thu Apr 17 2025 16:58:31 GMT-0500 (Central Daylight Time),331414.3999999985,CFD-BF-019-004-HC.jpg,1000,dash,O,None,1516,3,1,3298.8000000044703,328115.59999999404,7111,ATS,C,1
1,prac,1,C,mfborder.png,1,z,Thu Apr 17 2025 16:58:31 GMT-0500 (Central Daylight Time),335246.09999999404,CFD-WF-013-009-HC.jpg,1600,dash,O,z,1438,3,1,7130.5,328115.59999999404,7111,ATS,C,2
1,prac,1,C,mfborder.png,0,z,Thu Apr 17 2025 16:58:31 GMT-0500 (Central Daylight Time),339045.5,CFD-WF-023-013-A.jpg,1500,solid,O,None,1516,3,1,10929.90000000596,328115.59999999404,7111,ATS,C,3
1,prac,1,C,haborder.png,0,m,Thu Apr 17 2025 16:58:31 GMT-0500 (Central Daylight Time),342744.09999999404,CFD-WM-028-005-HC.jpg,1400,solid,O,None,1516,3,1,14628.5,328115.59999999404,7111,ATS,C,4
2,prac,1,C,haborder.png,1,m,Thu Apr 17 2025 16:58:31 GMT-0500 (Central Daylight Time),346126.3999999985,CFD-BM-022-004-HC.jpg,1500,solid,O,m,1084,3,1,18010.80000000447,328115.59999999404,7111,ATS,C,5
3,prac,1,C,haborder.png,1,z,Thu Apr 17 2025 16:58:31 GMT-0500 (Central Daylight Time),350091.69999999553,CFD-BF-031-020-A.jpg,1900,dash,O,z,1279,3,1,21976.10000000149,328115.59999999404,7111,ATS,C,6
4,prac,1,C,mfborder.png,1,m,Thu Apr 17 2025 16:58:31 GMT-0500 (Central Daylight Time),353907.3999999985,CFD-WM-036-018-A.jpg,1700,solid,O,m,1322,3,1,25791.80000000447,328115.59999999404,7111,ATS,C,7
5,prac,1,C,mfborder.png,1,m,Thu Apr 17 2025 16:58:31 GMT-0500 (Central Daylight Time),356922.799999997,CFD-BM-043-014-A.jpg,1200,dash,O,m,1021,3,1,28807.20000000298,328115.59999999404,7111,ATS,C,8
6,prac,1,C,haborder.png,1,z,Thu Apr 17 2025 16:58:31 GMT-0500 (Central Daylight Time),360405.3999999985,CFD-WF-037-016-A.jpg,1600,dash,O,z,1086,3,1,32289.80000000447,328115.59999999404,7111,ATS,C,9
6,prac,1,C,haborder.png,0,z,Thu Apr 17 2025 16:58:31 GMT-0500 (Central Daylight Time),364403.799999997,CFD-BF-002-018-A.jpg,1700,solid,O,None,1515,3,1,36288.20000000298,328115.59999999404,7111,ATS,C,10
7,prac,1,C,haborder.png,1,m,Thu Apr 17 2025 16:58:31 GMT-0500 (Central Daylight Time),367536.3999999985,CFD-WM-028-005-HC.jpg,1000,dash,O,m,1333,3,1,39420.80000000447,328115.59999999404,7111,ATS,C,11
8,prac,1,C,mfborder.png,1,m,Thu Apr 17 2025 16:58:31 GMT-0500 (Central Daylight Time),371718.59999999404,CFD-BM-034-035-HC.jpg,2000,solid,O,m,1393,3,1,43603.0,328115.59999999404,7111,ATS,C,12
1,test,1,C,mfborder.png,1,z,Thu Apr 17 2025 16:58:31 GMT-0500 (Central Daylight Time),380498.8999999985,CFD-BF-031-020-A.jpg,1600,dash,O,z,840,2,1,2465.8000000044703,378033.09999999404,7111,ATS,C,1
2,test,1,C,mfborder.png,1,m,Thu Apr 17 2025 16:58:31 GMT-0500 (Central Daylight Time),382598.19999999553,CFD-BM-022-004-HC.jpg,1200,dash,O,m,867,6,1,4565.10000000149,378033.09999999404,7111,ATS,C,2
2,test,1,C,mfborder.png,0,z,Thu Apr 17 2025 16:58:31 GMT-0500 (Central Daylight Time),385630.799999997,CFD-WF-037-016-A.jpg,1500,dash,O,None,1515,3,1,7597.70000000298,378033.09999999404,7111,ATS,C,3
2,test,1,C,haborder.png,0,z,Thu Apr 17 2025 16:58:31 GMT-0500 (Central Daylight Time),388563.19999999553,CFD-WM-036-018-A.jpg,1400,solid,O,None,1516,7,1,10530.10000000149,378033.09999999404,7111,ATS,C,4
3,test,1,C,haborder.png,1,z,Thu Apr 17 2025 16:58:31 GMT-0500 (Central Daylight Time),390712.3999999985,CFD-WM-036-018-A.jpg,1400,solid,O,z,723,7,1,12679.30000000447,378033.09999999404,7111,ATS,C,5
4,test,1,C,haborder.png,1,m,Thu Apr 17 2025 16:58:31 GMT-0500 (Central Daylight Time),393577.8999999985,CFD-BF-019-004-HC.jpg,1600,solid,O,m,1248,10,1,15544.80000000447,378033.09999999404,7111,ATS,C,6
5,test,1,C,haborder.png,1,z,Thu Apr 17 2025 16:58:31 GMT-0500 (Central Daylight Time),396660.59999999404,CFD-BM-043-014-A.jpg,1900,solid,O,z,1162,8,1,18627.5,378033.09999999404,7111,ATS,C,7
6,test,1,C,haborder.png,1,z,Thu Apr 17 2025 16:58:31 GMT-0500 (Central Daylight Time),399659.59999999404,CFD-BM-043-014-A.jpg,1900,solid,O,z,1081,8,1,21626.5,378033.09999999404,7111,ATS,C,8
7,test,1,C,haborder.png,1,m,Thu Apr 17 2025 16:58:31 GMT-0500 (Central Daylight Time),402308.69999999553,CFD-BF-019-004-HC.jpg,1600,solid,O,m,1030,10,1,24275.60000000149,378033.09999999404,7111,ATS,C,9
8,test,1,C,mfborder.png,1,m,Thu Apr 17 2025 16:58:31 GMT-0500 (Central Daylight Time),404341.59999999404,CFD-WM-035-036-HC.jpg,1000,dash,O,m,1012,4,1,26308.5,378033.09999999404,7111,ATS,C,10
9,test,1,C,mfborder.png,1,m,Thu Apr 17 2025 16:58:31 GMT-0500 (Central Daylight Time),406074.299999997,CFD-WM-035-036-HC.jpg,1000,dash,O,m,703,4,1,28041.20000000298,378033.09999999404,7111,ATS,C,11
10,test,1,C,mfborder.png,1,m,Thu Apr 17 2025 16:58:31 GMT-0500 (Central Daylight Time),408889.799999997,CFD-WM-034-040-A.jpg,2000,dash,O,m,783,5,1,30856.70000000298,378033.09999999404,7111,ATS,C,12
10,test,1,C,mfborder.png,0,m,Thu Apr 17 2025 16:58:31 GMT-0500 (Central Daylight Time),411622.799999997,CFD-BM-022-004-HC.jpg,1200,dash,O,None,1515,6,1,33589.70000000298,378033.09999999404,7111,ATS,C,13
10,test,1,C,haborder.png,0,m,Thu Apr 17 2025 16:58:31 GMT-0500 (Central Daylight Time),414155.19999999553,CFD-WF-013-009-HC.jpg,1000,solid,O,None,1515,12,1,36122.10000000149,378033.09999999404,7111,ATS,C,14
10,test,1,C,mfborder.png,0,z,Thu Apr 17 2025 16:58:31 GMT-0500 (Central Daylight Time),417287.299999997,CFD-BF-031-020-A.jpg,1600,dash,O,None,1515,2,1,39254.20000000298,378033.09999999404,7111,ATS,C,15
11,test,1,C,mfborder.png,1,z,Thu Apr 17 2025 16:58:31 GMT-0500 (Central Daylight Time),419919.799999997,CFD-BF-042-031-HC.jpg,1700,dash,O,z,910,1,1,41886.70000000298,378033.09999999404,7111,ATS,C,16
11,test,1,C,haborder.png,0,m,Thu Apr 17 2025 16:58:31 GMT-0500 (Central Daylight Time),422202.59999999404,CFD-WF-013-009-HC.jpg,1000,solid,O,z,1213,12,1,44169.5,378033.09999999404,7111,ATS,C,17
12,test,1,C,mfborder.png,1,m,Thu Apr 17 2025 16:58:31 GMT-0500 (Central Daylight Time),425351.69999999553,CFD-WM-034-040-A.jpg,2000,dash,O,m,1118,5,1,47318.60000000149,378033.09999999404,7111,ATS,C,18
13,test,1,C,haborder.png,1,z,Thu Apr 17 2025 16:58:31 GMT-0500 (Central Daylight Time),428367.19999999553,CFD-BM-021-026-A.jpg,1700,solid,O,z,1292,9,1,50334.10000000149,378033.09999999404,7111,ATS,C,19
14,test,1,C,haborder.png,1,z,Thu Apr 17 2025 16:58:31 GMT-0500 (Central Daylight Time),431033.09999999404,CFD-BM-021-026-A.jpg,1700,solid,O,z,941,9,1,53000.0,378033.09999999404,7111,ATS,C,20
15,test,1,C,mfborder.png,1,z,Thu Apr 17 2025 16:58:31 GMT-0500 (Central Daylight Time),434048.8999999985,CFD-BF-042-031-HC.jpg,1700,dash,O,z,1292,1,1,56015.80000000447,378033.09999999404,7111,ATS,C,21
15,test,1,C,mfborder.png,0,z,Thu Apr 17 2025 16:58:31 GMT-0500 (Central Daylight Time),437081.19999999553,CFD-WF-037-016-A.jpg,1500,dash,O,None,1516,3,1,59048.10000000149,378033.09999999404,7111,ATS,C,22
16,test,1,C,haborder.png,1,m,Thu Apr 17 2025 16:58:31 GMT-0500 (Central Daylight Time),439763.69999999553,CFD-WF-001-010-HC.jpg,1500,solid,O,m,1164,11,1,61730.60000000149,378033.09999999404,7111,ATS,C,23
17,test,1,C,haborder.png,1,m,Thu Apr 17 2025 16:58:31 GMT-0500 (Central Daylight Time),442296.19999999553,CFD-WF-001-010-HC.jpg,1500,solid,O,m,1002,11,1,64263.10000000149,378033.09999999404,7111,ATS,C,24
1,test,2,C,mfborder.png,1,m,Thu Apr 17 2025 16:58:31 GMT-0500 (Central Daylight Time),447961.09999999404,CFD-BM-043-014-A.jpg,2000,dash,O,m,1242,5,1,3255.89999999851,444705.19999999553,7111,ATS,C,1
2,test,2,C,mfborder.png,1,z,Thu Apr 17 2025 16:58:31 GMT-0500 (Central Daylight Time),450493.69999999553,CFD-BF-019-004-HC.jpg,1500,dash,O,z,1008,3,1,5788.5,444705.19999999553,7111,ATS,C,2
3,test,2,C,haborder.png,1,z,Thu Apr 17 2025 16:58:31 GMT-0500 (Central Daylight Time),453459.5,CFD-WF-037-016-A.jpg,1700,solid,O,z,1247,9,1,8754.30000000447,444705.19999999553,7111,ATS,C,3
4,test,2,C,haborder.png,1,z,Thu Apr 17 2025 16:58:31 GMT-0500 (Central Daylight Time),456175.19999999553,CFD-BF-002-018-A.jpg,1900,solid,O,z,793,8,1,11470.0,444705.19999999553,7111,ATS,C,4
5,test,2,C,mfborder.png,1,z,Thu Apr 17 2025 16:58:31 GMT-0500 (Central Daylight Time),459274.299999997,CFD-WF-023-013-A.jpg,1600,dash,O,z,1482,2,1,14569.10000000149,444705.19999999553,7111,ATS,C,5
6,test,2,C,haborder.png,1,m,Thu Apr 17 2025 16:58:31 GMT-0500 (Central Daylight Time),461606.69999999553,CFD-BM-022-004-HC.jpg,1600,solid,O,m,711,10,1,16901.5,444705.19999999553,7111,ATS,C,6
6,test,2,C,mfborder.png,0,m,Thu Apr 17 2025 16:58:31 GMT-0500 (Central Daylight Time),464142.5,CFD-BM-034-035-HC.jpg,1000,dash,O,None,1515,4,1,19437.30000000447,444705.19999999553,7111,ATS,C,7
7,test,2,C,haborder.png,1,z,Thu Apr 17 2025 16:58:31 GMT-0500 (Central Daylight Time),466438.59999999404,CFD-BF-031-020-A.jpg,1400,solid,O,z,870,7,1,21733.39999999851,444705.19999999553,7111,ATS,C,8
8,test,2,C,mfborder.png,1,m,Thu Apr 17 2025 16:58:31 GMT-0500 (Central Daylight Time),468538.0,CFD-WM-036-018-A.jpg,1200,dash,O,m,867,6,1,23832.80000000447,444705.19999999553,7111,ATS,C,9
9,test,2,C,mfborder.png,1,z,Thu Apr 17 2025 16:58:31 GMT-0500 (Central Daylight Time),471220.5,CFD-WF-013-009-HC.jpg,1700,dash,O,z,963,1,1,26515.30000000447,444705.19999999553,7111,ATS,C,10
9,test,2,C,mfborder.png,0,m,Thu Apr 17 2025 16:58:31 GMT-0500 (Central Daylight Time),474753.0,CFD-BM-043-014-A.jpg,2000,dash,O,None,1516,5,1,30047.80000000447,444705.19999999553,7111,ATS,C,11
10,test,2,C,mfborder.png,1,m,Thu Apr 17 2025 16:58:31 GMT-0500 (Central Daylight Time),476602.0,CFD-BM-034-035-HC.jpg,1000,dash,O,m,824,4,1,31896.80000000447,444705.19999999553,7111,ATS,C,12
10,test,2,C,haborder.png,0,m,Thu Apr 17 2025 16:58:31 GMT-0500 (Central Daylight Time),479634.5,CFD-WM-028-005-HC.jpg,1500,solid,O,None,1515,11,1,34929.30000000447,444705.19999999553,7111,ATS,C,13
11,test,2,C,haborder.png,1,m,Thu Apr 17 2025 16:58:31 GMT-0500 (Central Daylight Time),481900.5,CFD-WM-028-005-HC.jpg,1000,solid,O,m,1243,12,1,37195.30000000447,444705.19999999553,7111,ATS,C,14
12,test,2,C,haborder.png,1,m,Thu Apr 17 2025 16:58:31 GMT-0500 (Central Daylight Time),484316.299999997,CFD-WM-028-005-HC.jpg,1500,solid,O,m,889,11,1,39611.10000000149,444705.19999999553,7111,ATS,C,15
13,test,2,C,mfborder.png,1,z,Thu Apr 17 2025 16:58:31 GMT-0500 (Central Daylight Time),487165.799999997,CFD-BF-019-004-HC.jpg,1500,dash,O,z,1321,3,1,42460.60000000149,444705.19999999553,7111,ATS,C,16
14,test,2,C,haborder.png,1,z,Thu Apr 17 2025 16:58:31 GMT-0500 (Central Daylight Time),490231.09999999404,CFD-WF-037-016-A.jpg,1700,solid,O,z,1344,9,1,45525.89999999851,444705.19999999553,7111,ATS,C,17
15,test,2,C,mfborder.png,1,z,Thu Apr 17 2025 16:58:31 GMT-0500 (Central Daylight Time),493096.799999997,CFD-WF-023-013-A.jpg,1600,dash,O,z,1242,2,1,48391.60000000149,444705.19999999553,7111,ATS,C,18
16,test,2,C,haborder.png,1,m,Thu Apr 17 2025 16:58:31 GMT-0500 (Central Daylight Time),495479.299999997,CFD-WM-028-005-HC.jpg,1000,solid,O,m,1351,12,1,50774.10000000149,444705.19999999553,7111,ATS,C,19
17,test,2,C,haborder.png,1,z,Thu Apr 17 2025 16:58:31 GMT-0500 (Central Daylight Time),498645.19999999553,CFD-BF-002-018-A.jpg,1900,solid,O,z,1246,8,1,53940.0,444705.19999999553,7111,ATS,C,20
18,test,2,C,haborder.png,1,z,Thu Apr 17 2025 16:58:31 GMT-0500 (Central Daylight Time),500777.799999997,CFD-BF-031-020-A.jpg,1400,solid,O,z,716,7,1,56072.60000000149,444705.19999999553,7111,ATS,C,21
19,test,2,C,mfborder.png,1,z,Thu Apr 17 2025 16:58:31 GMT-0500 (Central Daylight Time),503377.0,CFD-WF-013-009-HC.jpg,1700,dash,O,z,871,1,1,58671.80000000447,444705.19999999553,7111,ATS,C,22
20,test,2,C,mfborder.png,1,m,Thu Apr 17 2025 16:58:31 GMT-0500 (Central Daylight Time),505959.69999999553,CFD-WM-036-018-A.jpg,1200,dash,O,m,1360,6,1,61254.5,444705.19999999553,7111,ATS,C,23
20,test,2,C,haborder.png,0,m,Thu Apr 17 2025 16:58:31 GMT-0500 (Central Daylight Time),509092.5,CFD-BM-022-004-HC.jpg,1600,solid,O,None,1516,10,1,64387.30000000447,444705.19999999553,7111,ATS,C,24
0,test,3,C,haborder.png,0,m,Thu Apr 17 2025 16:58:31 GMT-0500 (Central Daylight Time),514806.8999999985,CFD-WF-001-010-HC.jpg,1500,solid,O,None,1511,11,1,3032.39999999851,511774.5,7111,ATS,C,1
1,test,3,C,haborder.png,1,m,Thu Apr 17 2025 16:58:31 GMT-0500 (Central Daylight Time),516556.3999999985,CFD-WF-013-009-HC.jpg,1000,solid,O,m,730,12,1,4781.89999999851,511774.5,7111,ATS,C,2
2,test,3,C,haborder.png,1,z,Thu Apr 17 2025 16:58:31 GMT-0500 (Central Daylight Time),518988.799999997,CFD-WM-036-018-A.jpg,1400,solid,O,z,1004,7,1,7214.29999999702,511774.5,7111,ATS,C,3
3,test,3,C,haborder.png,1,z,Thu Apr 17 2025 16:58:31 GMT-0500 (Central Daylight Time),521837.799999997,CFD-BM-021-026-A.jpg,1700,solid,O,z,1128,9,1,10063.29999999702,511774.5,7111,ATS,C,4
4,test,3,C,haborder.png,1,m,Thu Apr 17 2025 16:58:31 GMT-0500 (Central Daylight Time),524603.5,CFD-BF-019-004-HC.jpg,1600,solid,O,m,1138,10,1,12829.0,511774.5,7111,ATS,C,5
5,test,3,C,mfborder.png,1,m,Thu Apr 17 2025 16:58:31 GMT-0500 (Central Daylight Time),526836.5,CFD-WM-035-036-HC.jpg,1000,dash,O,m,1213,4,1,15062.0,511774.5,7111,ATS,C,6
6,test,3,C,haborder.png,1,m,Thu Apr 17 2025 16:58:31 GMT-0500 (Central Daylight Time),529235.5,CFD-WF-013-009-HC.jpg,1000,solid,O,m,1376,12,1,17461.0,511774.5,7111,ATS,C,7
7,test,3,C,haborder.png,1,z,Thu Apr 17 2025 16:58:31 GMT-0500 (Central Daylight Time),531535.0,CFD-WM-036-018-A.jpg,1400,solid,O,z,878,7,1,19760.5,511774.5,7111,ATS,C,8
7,test,3,C,mfborder.png,0,z,Thu Apr 17 2025 16:58:31 GMT-0500 (Central Daylight Time),534667.3999999985,CFD-BF-031-020-A.jpg,1600,dash,O,None,1516,2,1,22892.89999999851,511774.5,7111,ATS,C,9
8,test,3,C,mfborder.png,1,m,Thu Apr 17 2025 16:58:31 GMT-0500 (Central Daylight Time),536766.6999999955,CFD-BM-022-004-HC.jpg,1200,dash,O,m,870,6,1,24992.19999999553,511774.5,7111,ATS,C,10
9,test,3,C,mfborder.png,1,z,Thu Apr 17 2025 16:58:31 GMT-0500 (Central Daylight Time),539849.099999994,CFD-BF-042-031-HC.jpg,1700,dash,O,z,1350,1,1,28074.59999999404,511774.5,7111,ATS,C,11
10,test,3,C,mfborder.png,1,z,Thu Apr 17 2025 16:58:31 GMT-0500 (Central Daylight Time),542214.799999997,CFD-BF-042-031-HC.jpg,1700,dash,O,z,644,1,1,30440.29999999702,511774.5,7111,ATS,C,12
11,test,3,C,haborder.png,1,z,Thu Apr 17 2025 16:58:31 GMT-0500 (Central Daylight Time),545114.0,CFD-BM-021-026-A.jpg,1700,solid,O,z,1174,9,1,33339.5,511774.5,7111,ATS,C,13
12,test,3,C,mfborder.png,1,z,Thu Apr 17 2025 16:58:31 GMT-0500 (Central Daylight Time),548130.0,CFD-BF-031-020-A.jpg,1600,dash,O,z,1383,2,1,36355.5,511774.5,7111,ATS,C,14
13,test,3,C,mfborder.png,1,z,Thu Apr 17 2025 16:58:31 GMT-0500 (Central Daylight Time),550445.6999999955,CFD-WF-037-016-A.jpg,1500,dash,O,z,787,3,1,38671.19999999553,511774.5,7111,ATS,C,15
14,test,3,C,haborder.png,1,m,Thu Apr 17 2025 16:58:31 GMT-0500 (Central Daylight Time),553361.5,CFD-BF-019-004-HC.jpg,1600,solid,O,m,1283,10,1,41587.0,511774.5,7111,ATS,C,16
15,test,3,C,mfborder.png,1,m,Thu Apr 17 2025 16:58:31 GMT-0500 (Central Daylight Time),556560.5,CFD-WM-034-040-A.jpg,2000,dash,O,m,1168,5,1,44786.0,511774.5,7111,ATS,C,17
16,test,3,C,haborder.png,1,z,Thu Apr 17 2025 16:58:31 GMT-0500 (Central Daylight Time),559676.0,CFD-BM-043-014-A.jpg,1900,solid,O,z,1188,8,1,47901.5,511774.5,7111,ATS,C,18
17,test,3,C,mfborder.png,1,m,Thu Apr 17 2025 16:58:31 GMT-0500 (Central Daylight Time),562142.0,CFD-WM-035-036-HC.jpg,1000,dash,O,m,1437,4,1,50367.5,511774.5,7111,ATS,C,19
18,test,3,C,mfborder.png,1,z,Thu Apr 17 2025 16:58:31 GMT-0500 (Central Daylight Time),564508.0,CFD-WF-037-016-A.jpg,1500,dash,O,z,847,3,1,52733.5,511774.5,7111,ATS,C,20
19,test,3,C,mfborder.png,1,m,Thu Apr 17 2025 16:58:31 GMT-0500 (Central Daylight Time),567557.0,CFD-WM-034-040-A.jpg,2000,dash,O,m,1022,5,1,55782.5,511774.5,7111,ATS,C,21
20,test,3,C,mfborder.png,1,m,Thu Apr 17 2025 16:58:31 GMT-0500 (Central Daylight Time),569689.6999999955,CFD-BM-022-004-HC.jpg,1200,dash,O,m,908,6,1,57915.19999999553,511774.5,7111,ATS,C,22
21,test,3,C,haborder.png,1,z,Thu Apr 17 2025 16:58:31 GMT-0500 (Central Daylight Time),572522.099999994,CFD-BM-043-014-A.jpg,1900,solid,O,z,915,8,1,60747.59999999404,511774.5,7111,ATS,C,23
22,test,3,C,haborder.png,1,m,Thu Apr 17 2025 16:58:31 GMT-0500 (Central Daylight Time),575137.599999994,CFD-WF-001-010-HC.jpg,1500,solid,O,m,1083,11,1,63363.09999999404,511774.5,7111,ATS,C,24
1,test,4,C,haborder.png,1,z,Thu Apr 17 2025 16:58:31 GMT-0500 (Central Daylight Time),579453.299999997,CFD-BF-031-020-A.jpg,1400,solid,O,z,1338,7,1,2766.2999999970198,576687.0,7111,ATS,C,1
1,test,4,C,mfborder.png,0,z,Thu Apr 17 2025 16:58:31 GMT-0500 (Central Daylight Time),582487.299999997,CFD-BF-019-004-HC.jpg,1500,dash,O,None,1514,3,1,5800.29999999702,576687.0,7111,ATS,C,2
2,test,4,C,mfborder.png,1,m,Thu Apr 17 2025 16:58:31 GMT-0500 (Central Daylight Time),584834.599999994,CFD-WM-036-018-A.jpg,1200,dash,O,m,1132,6,1,8147.5999999940395,576687.0,7111,ATS,C,3
3,test,4,C,haborder.png,1,z,Thu Apr 17 2025 16:58:31 GMT-0500 (Central Daylight Time),587800.6999999955,CFD-BF-002-018-A.jpg,1900,solid,O,z,1042,8,1,11113.69999999553,576687.0,7111,ATS,C,4
4,test,4,C,mfborder.png,1,z,Thu Apr 17 2025 16:58:31 GMT-0500 (Central Daylight Time),590349.6999999955,CFD-WF-023-013-A.jpg,1600,dash,O,z,921,2,1,13662.69999999553,576687.0,7111,ATS,C,5
5,test,4,C,mfborder.png,1,m,Thu Apr 17 2025 16:58:31 GMT-0500 (Central Daylight Time),592815.799999997,CFD-WM-036-018-A.jpg,1200,dash,O,m,1235,6,1,16128.79999999702,576687.0,7111,ATS,C,6
6,test,4,C,haborder.png,1,z,Thu Apr 17 2025 16:58:31 GMT-0500 (Central Daylight Time),595548.299999997,CFD-WF-037-016-A.jpg,1700,solid,O,z,1014,9,1,18861.29999999702,576687.0,7111,ATS,C,7
7,test,4,C,mfborder.png,1,m,Thu Apr 17 2025 16:58:31 GMT-0500 (Central Daylight Time),598763.6999999955,CFD-BM-043-014-A.jpg,2000,dash,O,m,1197,5,1,22076.69999999553,576687.0,7111,ATS,C,8
8,test,4,C,haborder.png,1,m,Thu Apr 17 2025 16:58:31 GMT-0500 (Central Daylight Time),601029.6999999955,CFD-WM-028-005-HC.jpg,1000,solid,O,m,1237,12,1,24342.69999999553,576687.0,7111,ATS,C,9
9,test,4,C,haborder.png,1,m,Thu Apr 17 2025 16:58:31 GMT-0500 (Central Daylight Time),603312.3999999985,CFD-WM-028-005-HC.jpg,1500,solid,O,m,757,11,1,26625.39999999851,576687.0,7111,ATS,C,10
10,test,4,C,haborder.png,1,z,Thu Apr 17 2025 16:58:31 GMT-0500 (Central Daylight Time),605611.799999997,CFD-BF-031-020-A.jpg,1400,solid,O,z,873,7,1,28924.79999999702,576687.0,7111,ATS,C,11
11,test,4,C,haborder.png,1,m,Thu Apr 17 2025 16:58:31 GMT-0500 (Central Daylight Time),607427.799999997,CFD-WM-028-005-HC.jpg,1000,solid,O,m,796,12,1,30740.79999999702,576687.0,7111,ATS,C,12
12,test,4,C,haborder.png,1,z,Thu Apr 17 2025 16:58:31 GMT-0500 (Central Daylight Time),610428.099999994,CFD-BF-002-018-A.jpg,1900,solid,O,z,991,8,1,33741.09999999404,576687.0,7111,ATS,C,13
13,test,4,C,haborder.png,1,z,Thu Apr 17 2025 16:58:31 GMT-0500 (Central Daylight Time),613142.599999994,CFD-WF-037-016-A.jpg,1700,solid,O,z,993,9,1,36455.59999999404,576687.0,7111,ATS,C,14
14,test,4,C,mfborder.png,1,m,Thu Apr 17 2025 16:58:31 GMT-0500 (Central Daylight Time),615208.599999994,CFD-BM-034-035-HC.jpg,1000,dash,O,m,1043,4,1,38521.59999999404,576687.0,7111,ATS,C,15
15,test,4,C,haborder.png,1,m,Thu Apr 17 2025 16:58:31 GMT-0500 (Central Daylight Time),618207.799999997,CFD-BM-022-004-HC.jpg,1600,solid,O,m,1368,10,1,41520.79999999702,576687.0,7111,ATS,C,16
16,test,4,C,mfborder.png,1,m,Thu Apr 17 2025 16:58:31 GMT-0500 (Central Daylight Time),621723.3999999985,CFD-BM-043-014-A.jpg,2000,dash,O,m,1498,5,1,45036.39999999851,576687.0,7111,ATS,C,17
17,test,4,C,mfborder.png,1,z,Thu Apr 17 2025 16:58:31 GMT-0500 (Central Daylight Time),624455.799999997,CFD-BF-019-004-HC.jpg,1500,dash,O,z,1210,3,1,47768.79999999702,576687.0,7111,ATS,C,18
18,test,4,C,mfborder.png,1,z,Thu Apr 17 2025 16:58:31 GMT-0500 (Central Daylight Time),627654.799999997,CFD-WF-013-009-HC.jpg,1700,dash,O,z,1477,1,1,50967.79999999702,576687.0,7111,ATS,C,19
18,test,4,C,haborder.png,0,m,Thu Apr 17 2025 16:58:31 GMT-0500 (Central Daylight Time),630787.299999997,CFD-BM-022-004-HC.jpg,1600,solid,O,None,1516,10,1,54100.29999999702,576687.0,7111,ATS,C,20
19,test,4,C,mfborder.png,1,z,Thu Apr 17 2025 16:58:31 GMT-0500 (Central Daylight Time),633352.799999997,CFD-WF-013-009-HC.jpg,1700,dash,O,z,842,1,1,56665.79999999702,576687.0,7111,ATS,C,21
20,test,4,C,haborder.png,1,m,Thu Apr 17 2025 16:58:31 GMT-0500 (Central Daylight Time),636135.799999997,CFD-WM-028-005-HC.jpg,1500,solid,O,m,1258,11,1,59448.79999999702,576687.0,7111,ATS,C,22
21,test,4,C,mfborder.png,1,m,Thu Apr 17 2025 16:58:31 GMT-0500 (Central Daylight Time),638518.099999994,CFD-BM-034-035-HC.jpg,1000,dash,O,m,1362,4,1,61831.09999999404,576687.0,7111,ATS,C,23
22,test,4,C,mfborder.png,1,z,Thu Apr 17 2025 16:58:31 GMT-0500 (Central Daylight Time),641283.6999999955,CFD-WF-023-013-A.jpg,1600,dash,O,z,1147,2,1,64596.69999999553,576687.0,7111,ATS,C,24
