acc_sum,block,block_c,block_cond,con_img,correct,correct_response,datetime,endtime,face,jitter,line,project,response,response_time,row_sel,session_number,start_end,starttime,subject_id,task,task_vers,trial
0,prac,1,A,haborder.png,0,z,Thu Mar 13 2025 08:45:03 GMT-0500 (Central Daylight Time),50748.200000000186,CFD-BF-031-020-A.jpg,1000,solid,O,None,1516,4,1,3297.7000000001863,47450.5,7105,ATS,C,1
1,prac,1,A,haborder.png,1,m,Thu Mar 13 2025 08:45:03 GMT-0500 (Central Daylight Time),54147.30000000028,CFD-BM-022-004-HC.jpg,1500,solid,O,m,1109,3,1,6696.800000000279,47450.5,7105,ATS,C,2
2,prac,1,A,haborder.png,1,z,Thu Mar 13 2025 08:45:03 GMT-0500 (Central Daylight Time),57679.200000000186,CFD-WM-036-018-A.jpg,1900,solid,O,z,846,8,1,10228.700000000186,47450.5,7105,ATS,C,3
3,prac,1,A,haborder.png,1,m,Thu Mar 13 2025 08:45:03 GMT-0500 (Central Daylight Time),60661.80000000028,CFD-WF-013-009-HC.jpg,1500,solid,O,m,698,11,1,13211.30000000028,47450.5,7105,ATS,C,4
4,prac,1,A,haborder.png,1,z,Thu Mar 13 2025 08:45:03 GMT-0500 (Central Daylight Time),63228.0,CFD-BF-002-018-A.jpg,1200,solid,O,z,567,6,1,15777.5,47450.5,7105,ATS,C,5
5,prac,1,A,haborder.png,1,z,Thu Mar 13 2025 08:45:03 GMT-0500 (Central Daylight Time),66276.6000000001,CFD-BM-043-014-A.jpg,1600,solid,O,z,650,2,1,18826.100000000093,47450.5,7105,ATS,C,6
6,prac,1,A,haborder.png,1,z,Thu Mar 13 2025 08:45:03 GMT-0500 (Central Daylight Time),68626.20000000019,CFD-WF-023-013-A.jpg,1000,solid,O,z,561,12,1,21175.700000000186,47450.5,7105,ATS,C,7
7,prac,1,A,haborder.png,1,z,Thu Mar 13 2025 08:45:03 GMT-0500 (Central Daylight Time),71741.5,CFD-WF-037-016-A.jpg,1600,solid,O,z,723,10,1,24291.0,47450.5,7105,ATS,C,8
8,prac,1,A,haborder.png,1,m,Thu Mar 13 2025 08:45:03 GMT-0500 (Central Daylight Time),74907.30000000028,CFD-BM-034-035-HC.jpg,1700,solid,O,m,676,1,1,27456.80000000028,47450.5,7105,ATS,C,9
9,prac,1,A,haborder.png,1,m,Thu Mar 13 2025 08:45:03 GMT-0500 (Central Daylight Time),78406.20000000019,CFD-BF-019-004-HC.jpg,2000,solid,O,m,706,5,1,30955.700000000186,47450.5,7105,ATS,C,10
10,prac,1,A,haborder.png,1,m,Thu Mar 13 2025 08:45:03 GMT-0500 (Central Daylight Time),81522.0,CFD-WM-035-036-HC.jpg,1700,solid,O,m,619,9,1,34071.5,47450.5,7105,ATS,C,11
11,prac,1,A,haborder.png,1,m,Thu Mar 13 2025 08:45:03 GMT-0500 (Central Daylight Time),84521.20000000019,CFD-WM-028-005-HC.jpg,1400,solid,O,m,828,7,1,37070.700000000186,47450.5,7105,ATS,C,12
1,prac,1,B,mfborder.png,1,m,Thu Mar 13 2025 08:45:03 GMT-0500 (Central Daylight Time),111112.80000000028,CFD-WM-034-040-A.jpg,1200,6,O,m,795,dash,1,2782.7000000001863,108330.1000000001,7105,ATS,C,1
2,prac,1,B,mfborder.png,1,z,Thu Mar 13 2025 08:45:03 GMT-0500 (Central Daylight Time),113629.6000000001,CFD-BF-031-020-A.jpg,1000,4,O,z,741,dash,1,5299.5,108330.1000000001,7105,ATS,C,2
3,prac,1,B,mfborder.png,1,m,Thu Mar 13 2025 08:45:03 GMT-0500 (Central Daylight Time),116777.1000000001,CFD-WM-036-018-A.jpg,1700,9,O,m,661,dash,1,8447.0,108330.1000000001,7105,ATS,C,3
4,prac,1,B,mfborder.png,1,z,Thu Mar 13 2025 08:45:03 GMT-0500 (Central Daylight Time),120043.1000000001,CFD-BF-042-031-HC.jpg,1500,3,O,z,976,dash,1,11713.0,108330.1000000001,7105,ATS,C,4
5,prac,1,B,mfborder.png,1,z,Thu Mar 13 2025 08:45:03 GMT-0500 (Central Daylight Time),123725.3999999999,CFD-WF-001-010-HC.jpg,1900,8,O,z,998,dash,1,15395.299999999814,108330.1000000001,7105,ATS,C,5
6,prac,1,B,mfborder.png,1,z,Thu Mar 13 2025 08:45:03 GMT-0500 (Central Daylight Time),126124.6000000001,CFD-WF-013-009-HC.jpg,1000,12,O,z,600,dash,1,17794.5,108330.1000000001,7105,ATS,C,6
7,prac,1,B,mfborder.png,1,m,Thu Mar 13 2025 08:45:03 GMT-0500 (Central Daylight Time),129606.8999999999,CFD-WM-035-036-HC.jpg,1600,10,O,m,1088,dash,1,21276.799999999814,108330.1000000001,7105,ATS,C,7
8,prac,1,B,mfborder.png,1,m,Thu Mar 13 2025 08:45:03 GMT-0500 (Central Daylight Time),132840.3999999999,CFD-BM-022-004-HC.jpg,1700,1,O,m,738,dash,1,24510.299999999814,108330.1000000001,7105,ATS,C,8
9,prac,1,B,mfborder.png,1,z,Thu Mar 13 2025 08:45:03 GMT-0500 (Central Daylight Time),135605.0,CFD-BF-019-004-HC.jpg,1400,7,O,z,582,dash,1,27274.899999999907,108330.1000000001,7105,ATS,C,9
10,prac,1,B,mfborder.png,1,m,Thu Mar 13 2025 08:45:03 GMT-0500 (Central Daylight Time),139470.6000000001,CFD-BM-043-014-A.jpg,2000,5,O,m,1072,dash,1,31140.5,108330.1000000001,7105,ATS,C,10
11,prac,1,B,mfborder.png,1,m,Thu Mar 13 2025 08:45:03 GMT-0500 (Central Daylight Time),142736.0,CFD-BM-021-026-A.jpg,1600,2,O,m,878,dash,1,34405.89999999991,108330.1000000001,7105,ATS,C,11
12,prac,1,B,mfborder.png,1,z,Thu Mar 13 2025 08:45:03 GMT-0500 (Central Daylight Time),146068.5,CFD-WF-037-016-A.jpg,1500,11,O,z,1049,dash,1,37738.39999999991,108330.1000000001,7105,ATS,C,12
1,test,1,A,haborder.png,1,z,Thu Mar 13 2025 08:45:03 GMT-0500 (Central Daylight Time),166211.8999999999,CFD-WM-036-018-A.jpg,1900,solid,O,z,826,8,1,2749.1999999997206,163462.7000000002,7105,ATS,C,1
2,test,1,A,haborder.png,1,z,Thu Mar 13 2025 08:45:03 GMT-0500 (Central Daylight Time),168428.0,CFD-WF-037-016-A.jpg,1600,solid,O,z,593,10,1,4965.299999999814,163462.7000000002,7105,ATS,C,2
3,test,1,A,haborder.png,1,m,Thu Mar 13 2025 08:45:03 GMT-0500 (Central Daylight Time),170427.3999999999,CFD-WM-028-005-HC.jpg,1400,solid,O,m,577,7,1,6964.699999999721,163462.7000000002,7105,ATS,C,3
4,test,1,A,haborder.png,1,z,Thu Mar 13 2025 08:45:03 GMT-0500 (Central Daylight Time),172176.80000000028,CFD-BF-031-020-A.jpg,1000,solid,O,z,730,4,1,8714.100000000093,163462.7000000002,7105,ATS,C,4
5,test,1,A,haborder.png,1,z,Thu Mar 13 2025 08:45:03 GMT-0500 (Central Daylight Time),174409.2000000002,CFD-WF-037-016-A.jpg,1600,solid,O,z,604,10,1,10946.5,163462.7000000002,7105,ATS,C,5
6,test,1,A,haborder.png,1,z,Thu Mar 13 2025 08:45:03 GMT-0500 (Central Daylight Time),176608.7000000002,CFD-BM-043-014-A.jpg,1600,solid,O,z,576,2,1,13146.0,163462.7000000002,7105,ATS,C,6
7,test,1,A,haborder.png,1,m,Thu Mar 13 2025 08:45:03 GMT-0500 (Central Daylight Time),178824.7000000002,CFD-WF-013-009-HC.jpg,1500,solid,O,m,697,11,1,15362.0,163462.7000000002,7105,ATS,C,7
8,test,1,A,haborder.png,1,z,Thu Mar 13 2025 08:45:03 GMT-0500 (Central Daylight Time),180440.80000000028,CFD-BF-031-020-A.jpg,1000,solid,O,z,596,4,1,16978.100000000093,163462.7000000002,7105,ATS,C,8
9,test,1,A,haborder.png,1,m,Thu Mar 13 2025 08:45:03 GMT-0500 (Central Daylight Time),183323.30000000028,CFD-BF-019-004-HC.jpg,2000,solid,O,m,861,5,1,19860.600000000093,163462.7000000002,7105,ATS,C,9
10,test,1,A,haborder.png,1,m,Thu Mar 13 2025 08:45:03 GMT-0500 (Central Daylight Time),185655.8999999999,CFD-WM-035-036-HC.jpg,1700,solid,O,m,614,9,1,22193.19999999972,163462.7000000002,7105,ATS,C,10
11,test,1,A,haborder.png,1,m,Thu Mar 13 2025 08:45:03 GMT-0500 (Central Daylight Time),187773.0,CFD-WF-013-009-HC.jpg,1500,solid,O,m,593,11,1,24310.299999999814,163462.7000000002,7105,ATS,C,11
12,test,1,A,haborder.png,1,m,Thu Mar 13 2025 08:45:03 GMT-0500 (Central Daylight Time),189938.0,CFD-BM-022-004-HC.jpg,1500,solid,O,m,645,3,1,26475.299999999814,163462.7000000002,7105,ATS,C,12
13,test,1,A,haborder.png,1,m,Thu Mar 13 2025 08:45:03 GMT-0500 (Central Daylight Time),192253.7000000002,CFD-BM-034-035-HC.jpg,1700,solid,O,m,591,1,1,28791.0,163462.7000000002,7105,ATS,C,13
14,test,1,A,haborder.png,1,z,Thu Mar 13 2025 08:45:03 GMT-0500 (Central Daylight Time),194103.30000000028,CFD-BF-002-018-A.jpg,1200,solid,O,z,631,6,1,30640.600000000093,163462.7000000002,7105,ATS,C,14
15,test,1,A,haborder.png,1,m,Thu Mar 13 2025 08:45:03 GMT-0500 (Central Daylight Time),196436.0,CFD-WM-035-036-HC.jpg,1700,solid,O,m,602,9,1,32973.299999999814,163462.7000000002,7105,ATS,C,15
16,test,1,A,haborder.png,1,m,Thu Mar 13 2025 08:45:03 GMT-0500 (Central Daylight Time),199185.0,CFD-BF-019-004-HC.jpg,2000,solid,O,m,729,5,1,35722.299999999814,163462.7000000002,7105,ATS,C,16
17,test,1,A,haborder.png,1,m,Thu Mar 13 2025 08:45:03 GMT-0500 (Central Daylight Time),201396.7000000002,CFD-BM-022-004-HC.jpg,1500,solid,O,m,694,3,1,37934.0,163462.7000000002,7105,ATS,C,17
18,test,1,A,haborder.png,1,z,Thu Mar 13 2025 08:45:03 GMT-0500 (Central Daylight Time),203500.30000000028,CFD-BF-002-018-A.jpg,1200,solid,O,z,876,6,1,40037.60000000009,163462.7000000002,7105,ATS,C,18
19,test,1,A,haborder.png,1,z,Thu Mar 13 2025 08:45:03 GMT-0500 (Central Daylight Time),206266.1000000001,CFD-WM-036-018-A.jpg,1900,solid,O,z,837,8,1,42803.39999999991,163462.7000000002,7105,ATS,C,19
20,test,1,A,haborder.png,1,z,Thu Mar 13 2025 08:45:03 GMT-0500 (Central Daylight Time),208565.3999999999,CFD-BM-043-014-A.jpg,1600,solid,O,z,675,2,1,45102.69999999972,163462.7000000002,7105,ATS,C,20
21,test,1,A,haborder.png,1,z,Thu Mar 13 2025 08:45:03 GMT-0500 (Central Daylight Time),210315.0,CFD-WF-023-013-A.jpg,1000,solid,O,z,728,12,1,46852.299999999814,163462.7000000002,7105,ATS,C,21
22,test,1,A,haborder.png,1,m,Thu Mar 13 2025 08:45:03 GMT-0500 (Central Daylight Time),212331.0,CFD-WM-028-005-HC.jpg,1400,solid,O,m,586,7,1,48868.299999999814,163462.7000000002,7105,ATS,C,22
23,test,1,A,haborder.png,1,m,Thu Mar 13 2025 08:45:03 GMT-0500 (Central Daylight Time),214713.3999999999,CFD-BM-034-035-HC.jpg,1700,solid,O,m,654,1,1,51250.69999999972,163462.7000000002,7105,ATS,C,23
24,test,1,A,haborder.png,1,z,Thu Mar 13 2025 08:45:03 GMT-0500 (Central Daylight Time),216479.5,CFD-WF-023-013-A.jpg,1000,solid,O,z,740,12,1,53016.799999999814,163462.7000000002,7105,ATS,C,24
1,test,1,B,mfborder.png,1,m,Thu Mar 13 2025 08:45:03 GMT-0500 (Central Daylight Time),234073.8999999999,CFD-WM-034-040-A.jpg,1200,dash,O,m,617,6,1,1849.1999999997206,232224.7000000002,7105,ATS,C,1
2,test,1,B,mfborder.png,1,m,Thu Mar 13 2025 08:45:03 GMT-0500 (Central Daylight Time),236390.1000000001,CFD-BM-022-004-HC.jpg,1700,dash,O,m,596,1,1,4165.399999999907,232224.7000000002,7105,ATS,C,2
3,test,1,B,mfborder.png,1,z,Thu Mar 13 2025 08:45:03 GMT-0500 (Central Daylight Time),238822.5,CFD-WF-001-010-HC.jpg,1900,dash,O,z,515,8,1,6597.799999999814,232224.7000000002,7105,ATS,C,3
4,test,1,B,mfborder.png,1,m,Thu Mar 13 2025 08:45:03 GMT-0500 (Central Daylight Time),241038.6000000001,CFD-WM-035-036-HC.jpg,1600,dash,O,m,582,10,1,8813.899999999907,232224.7000000002,7105,ATS,C,4
5,test,1,B,mfborder.png,1,z,Thu Mar 13 2025 08:45:03 GMT-0500 (Central Daylight Time),243121.2000000002,CFD-WF-037-016-A.jpg,1500,dash,O,z,562,11,1,10896.5,232224.7000000002,7105,ATS,C,5
6,test,1,B,mfborder.png,1,z,Thu Mar 13 2025 08:45:03 GMT-0500 (Central Daylight Time),245603.5,CFD-WF-001-010-HC.jpg,1900,dash,O,z,552,8,1,13378.799999999814,232224.7000000002,7105,ATS,C,6
7,test,1,B,mfborder.png,1,z,Thu Mar 13 2025 08:45:03 GMT-0500 (Central Daylight Time),247303.30000000028,CFD-BF-031-020-A.jpg,1000,dash,O,z,681,4,1,15078.600000000093,232224.7000000002,7105,ATS,C,7
8,test,1,B,mfborder.png,1,z,Thu Mar 13 2025 08:45:03 GMT-0500 (Central Daylight Time),248952.6000000001,CFD-WF-013-009-HC.jpg,1000,dash,O,z,622,12,1,16727.899999999907,232224.7000000002,7105,ATS,C,8
9,test,1,B,mfborder.png,1,m,Thu Mar 13 2025 08:45:03 GMT-0500 (Central Daylight Time),251202.0,CFD-BM-021-026-A.jpg,1600,dash,O,m,628,2,1,18977.299999999814,232224.7000000002,7105,ATS,C,9
10,test,1,B,mfborder.png,1,z,Thu Mar 13 2025 08:45:03 GMT-0500 (Central Daylight Time),253534.80000000028,CFD-BF-042-031-HC.jpg,1500,dash,O,z,803,3,1,21310.100000000093,232224.7000000002,7105,ATS,C,10
11,test,1,B,mfborder.png,1,m,Thu Mar 13 2025 08:45:03 GMT-0500 (Central Daylight Time),255850.6000000001,CFD-WM-035-036-HC.jpg,1600,dash,O,m,686,10,1,23625.899999999907,232224.7000000002,7105,ATS,C,11
12,test,1,B,mfborder.png,1,z,Thu Mar 13 2025 08:45:03 GMT-0500 (Central Daylight Time),257950.0,CFD-BF-019-004-HC.jpg,1400,dash,O,z,667,7,1,25725.299999999814,232224.7000000002,7105,ATS,C,12
13,test,1,B,mfborder.png,1,m,Thu Mar 13 2025 08:45:03 GMT-0500 (Central Daylight Time),260299.2000000002,CFD-WM-036-018-A.jpg,1700,dash,O,m,627,9,1,28074.5,232224.7000000002,7105,ATS,C,13
14,test,1,B,mfborder.png,1,z,Thu Mar 13 2025 08:45:03 GMT-0500 (Central Daylight Time),262682.0,CFD-WF-037-016-A.jpg,1500,dash,O,z,854,11,1,30457.299999999814,232224.7000000002,7105,ATS,C,14
15,test,1,B,mfborder.png,1,m,Thu Mar 13 2025 08:45:03 GMT-0500 (Central Daylight Time),265364.3999999999,CFD-BM-043-014-A.jpg,2000,dash,O,m,660,5,1,33139.69999999972,232224.7000000002,7105,ATS,C,15
16,test,1,B,mfborder.png,1,m,Thu Mar 13 2025 08:45:03 GMT-0500 (Central Daylight Time),267713.3999999999,CFD-BM-021-026-A.jpg,1600,dash,O,m,729,2,1,35488.69999999972,232224.7000000002,7105,ATS,C,16
17,test,1,B,mfborder.png,1,m,Thu Mar 13 2025 08:45:03 GMT-0500 (Central Daylight Time),270412.5,CFD-BM-043-014-A.jpg,2000,dash,O,m,664,5,1,38187.799999999814,232224.7000000002,7105,ATS,C,17
18,test,1,B,mfborder.png,1,m,Thu Mar 13 2025 08:45:03 GMT-0500 (Central Daylight Time),272245.2000000002,CFD-WM-034-040-A.jpg,1200,dash,O,m,608,6,1,40020.5,232224.7000000002,7105,ATS,C,18
19,test,1,B,mfborder.png,1,m,Thu Mar 13 2025 08:45:03 GMT-0500 (Central Daylight Time),274727.8000000003,CFD-BM-022-004-HC.jpg,1700,dash,O,m,764,1,1,42503.10000000009,232224.7000000002,7105,ATS,C,19
20,test,1,B,mfborder.png,1,z,Thu Mar 13 2025 08:45:03 GMT-0500 (Central Daylight Time),276494.2000000002,CFD-WF-013-009-HC.jpg,1000,dash,O,z,749,12,1,44269.5,232224.7000000002,7105,ATS,C,20
21,test,1,B,mfborder.png,1,m,Thu Mar 13 2025 08:45:03 GMT-0500 (Central Daylight Time),278926.6000000001,CFD-WM-036-018-A.jpg,1700,dash,O,m,715,9,1,46701.89999999991,232224.7000000002,7105,ATS,C,21
22,test,1,B,mfborder.png,1,z,Thu Mar 13 2025 08:45:03 GMT-0500 (Central Daylight Time),280659.3000000003,CFD-BF-031-020-A.jpg,1000,dash,O,z,703,4,1,48434.60000000009,232224.7000000002,7105,ATS,C,22
23,test,1,B,mfborder.png,1,z,Thu Mar 13 2025 08:45:03 GMT-0500 (Central Daylight Time),282875.5,CFD-BF-019-004-HC.jpg,1400,dash,O,z,786,7,1,50650.799999999814,232224.7000000002,7105,ATS,C,23
24,test,1,B,mfborder.png,1,z,Thu Mar 13 2025 08:45:03 GMT-0500 (Central Daylight Time),284991.6000000001,CFD-BF-042-031-HC.jpg,1500,dash,O,z,598,3,1,52766.89999999991,232224.7000000002,7105,ATS,C,24
1,prac,1,C,haborder.png,1,m,Thu Mar 13 2025 08:45:03 GMT-0500 (Central Daylight Time),329827.2000000002,CFD-WM-028-005-HC.jpg,1400,solid,O,m,1176,3,1,3365.3000000002794,326461.8999999999,7105,ATS,C,1
2,prac,1,C,haborder.png,1,z,Thu Mar 13 2025 08:45:03 GMT-0500 (Central Daylight Time),333276.5,CFD-WF-037-016-A.jpg,1600,dash,O,z,1058,3,1,6814.600000000093,326461.8999999999,7105,ATS,C,2
3,prac,1,C,haborder.png,1,z,Thu Mar 13 2025 08:45:03 GMT-0500 (Central Daylight Time),336626.3999999999,CFD-BF-002-018-A.jpg,1700,solid,O,z,853,3,1,10164.5,326461.8999999999,7105,ATS,C,3
4,prac,1,C,haborder.png,1,m,Thu Mar 13 2025 08:45:03 GMT-0500 (Central Daylight Time),339208.2000000002,CFD-WM-028-005-HC.jpg,1000,dash,O,m,796,3,1,12746.30000000028,326461.8999999999,7105,ATS,C,4
5,prac,1,C,haborder.png,1,z,Thu Mar 13 2025 08:45:03 GMT-0500 (Central Daylight Time),342783.8000000003,CFD-BF-031-020-A.jpg,1900,dash,O,z,761,3,1,16321.900000000373,326461.8999999999,7105,ATS,C,5
6,prac,1,C,mfborder.png,1,z,Thu Mar 13 2025 08:45:03 GMT-0500 (Central Daylight Time),345555.8999999999,CFD-BF-019-004-HC.jpg,1000,dash,O,z,967,3,1,19094.0,326461.8999999999,7105,ATS,C,6
7,prac,1,C,haborder.png,1,m,Thu Mar 13 2025 08:45:03 GMT-0500 (Central Daylight Time),348671.1000000001,CFD-BM-022-004-HC.jpg,1500,solid,O,m,822,3,1,22209.200000000186,326461.8999999999,7105,ATS,C,7
8,prac,1,C,mfborder.png,1,m,Thu Mar 13 2025 08:45:03 GMT-0500 (Central Daylight Time),352370.3999999999,CFD-BM-034-035-HC.jpg,2000,solid,O,m,910,3,1,25908.5,326461.8999999999,7105,ATS,C,8
9,prac,1,C,mfborder.png,1,z,Thu Mar 13 2025 08:45:03 GMT-0500 (Central Daylight Time),355869.3000000003,CFD-WF-013-009-HC.jpg,1600,dash,O,z,1115,3,1,29407.400000000373,326461.8999999999,7105,ATS,C,9
10,prac,1,C,mfborder.png,1,m,Thu Mar 13 2025 08:45:03 GMT-0500 (Central Daylight Time),359485.0,CFD-WM-036-018-A.jpg,1700,solid,O,m,1116,3,1,33023.10000000009,326461.8999999999,7105,ATS,C,10
11,prac,1,C,mfborder.png,1,z,Thu Mar 13 2025 08:45:03 GMT-0500 (Central Daylight Time),363050.3000000003,CFD-WF-023-013-A.jpg,1500,solid,O,z,1277,3,1,36588.40000000037,326461.8999999999,7105,ATS,C,11
11,prac,1,C,mfborder.png,0,m,Thu Mar 13 2025 08:45:03 GMT-0500 (Central Daylight Time),366533.5,CFD-BM-043-014-A.jpg,1200,dash,O,None,1516,3,1,40071.60000000009,326461.8999999999,7105,ATS,C,12
1,test,1,C,mfborder.png,1,m,Thu Mar 13 2025 08:45:03 GMT-0500 (Central Daylight Time),381844.3999999999,CFD-WM-035-036-HC.jpg,1000,dash,O,m,959,4,1,1982.6999999997206,379861.7000000002,7105,ATS,C,1
2,test,1,C,haborder.png,1,m,Thu Mar 13 2025 08:45:03 GMT-0500 (Central Daylight Time),384043.7000000002,CFD-WF-013-009-HC.jpg,1000,solid,O,m,1173,12,1,4182.0,379861.7000000002,7105,ATS,C,2
3,test,1,C,mfborder.png,1,m,Thu Mar 13 2025 08:45:03 GMT-0500 (Central Daylight Time),386942.6000000001,CFD-WM-034-040-A.jpg,2000,dash,O,m,882,5,1,7080.899999999907,379861.7000000002,7105,ATS,C,3
4,test,1,C,mfborder.png,1,z,Thu Mar 13 2025 08:45:03 GMT-0500 (Central Daylight Time),389311.8000000003,CFD-BF-031-020-A.jpg,1600,dash,O,z,742,2,1,9450.100000000093,379861.7000000002,7105,ATS,C,4
5,test,1,C,haborder.png,1,m,Thu Mar 13 2025 08:45:03 GMT-0500 (Central Daylight Time),391791.3999999999,CFD-BF-019-004-HC.jpg,1600,solid,O,m,856,10,1,11929.69999999972,379861.7000000002,7105,ATS,C,5
5,test,1,C,haborder.png,0,z,Thu Mar 13 2025 08:45:03 GMT-0500 (Central Daylight Time),394623.7000000002,CFD-WM-036-018-A.jpg,1400,solid,O,m,1414,7,1,14762.0,379861.7000000002,7105,ATS,C,6
6,test,1,C,haborder.png,1,z,Thu Mar 13 2025 08:45:03 GMT-0500 (Central Daylight Time),397289.7000000002,CFD-BM-021-026-A.jpg,1700,solid,O,z,945,9,1,17428.0,379861.7000000002,7105,ATS,C,7
7,test,1,C,haborder.png,1,z,Thu Mar 13 2025 08:45:03 GMT-0500 (Central Daylight Time),400038.7000000002,CFD-BM-043-014-A.jpg,1900,solid,O,z,824,8,1,20177.0,379861.7000000002,7105,ATS,C,8
8,test,1,C,mfborder.png,1,m,Thu Mar 13 2025 08:45:03 GMT-0500 (Central Daylight Time),402821.1000000001,CFD-WM-034-040-A.jpg,2000,dash,O,m,759,5,1,22959.399999999907,379861.7000000002,7105,ATS,C,9
9,test,1,C,haborder.png,1,m,Thu Mar 13 2025 08:45:03 GMT-0500 (Central Daylight Time),405020.7000000002,CFD-WF-013-009-HC.jpg,1000,solid,O,m,1168,12,1,25159.0,379861.7000000002,7105,ATS,C,10
10,test,1,C,mfborder.png,1,m,Thu Mar 13 2025 08:45:03 GMT-0500 (Central Daylight Time),407269.8000000003,CFD-WM-035-036-HC.jpg,1000,dash,O,m,1219,4,1,27408.100000000093,379861.7000000002,7105,ATS,C,11
11,test,1,C,mfborder.png,1,z,Thu Mar 13 2025 08:45:03 GMT-0500 (Central Daylight Time),410385.3999999999,CFD-BF-042-031-HC.jpg,1700,dash,O,z,1396,1,1,30523.69999999972,379861.7000000002,7105,ATS,C,12
12,test,1,C,mfborder.png,1,m,Thu Mar 13 2025 08:45:03 GMT-0500 (Central Daylight Time),413035.7000000002,CFD-BM-022-004-HC.jpg,1200,dash,O,m,1428,6,1,33174.0,379861.7000000002,7105,ATS,C,13
13,test,1,C,mfborder.png,1,m,Thu Mar 13 2025 08:45:03 GMT-0500 (Central Daylight Time),415033.8999999999,CFD-BM-022-004-HC.jpg,1200,dash,O,m,771,6,1,35172.19999999972,379861.7000000002,7105,ATS,C,14
14,test,1,C,mfborder.png,1,z,Thu Mar 13 2025 08:45:03 GMT-0500 (Central Daylight Time),417766.3000000003,CFD-WF-037-016-A.jpg,1500,dash,O,z,1207,3,1,37904.60000000009,379861.7000000002,7105,ATS,C,15
15,test,1,C,mfborder.png,1,z,Thu Mar 13 2025 08:45:03 GMT-0500 (Central Daylight Time),419969.0,CFD-WF-037-016-A.jpg,1500,dash,O,z,683,3,1,40107.299999999814,379861.7000000002,7105,ATS,C,16
16,test,1,C,mfborder.png,1,z,Thu Mar 13 2025 08:45:03 GMT-0500 (Central Daylight Time),422798.1000000001,CFD-BF-042-031-HC.jpg,1700,dash,O,z,1107,1,1,42936.39999999991,379861.7000000002,7105,ATS,C,17
17,test,1,C,haborder.png,1,m,Thu Mar 13 2025 08:45:03 GMT-0500 (Central Daylight Time),425497.3999999999,CFD-BF-019-004-HC.jpg,1600,solid,O,m,1070,10,1,45635.69999999972,379861.7000000002,7105,ATS,C,18
18,test,1,C,mfborder.png,1,z,Thu Mar 13 2025 08:45:03 GMT-0500 (Central Daylight Time),428479.8000000003,CFD-BF-031-020-A.jpg,1600,dash,O,z,1364,2,1,48618.10000000009,379861.7000000002,7105,ATS,C,19
18,test,1,C,haborder.png,0,z,Thu Mar 13 2025 08:45:03 GMT-0500 (Central Daylight Time),430995.7000000002,CFD-WM-036-018-A.jpg,1400,solid,O,m,1086,7,1,51134.0,379861.7000000002,7105,ATS,C,20
18,test,1,C,haborder.png,0,m,Thu Mar 13 2025 08:45:03 GMT-0500 (Central Daylight Time),434028.3000000003,CFD-WF-001-010-HC.jpg,1500,solid,O,None,1512,11,1,54166.60000000009,379861.7000000002,7105,ATS,C,21
18,test,1,C,haborder.png,0,m,Thu Mar 13 2025 08:45:03 GMT-0500 (Central Daylight Time),436810.3999999999,CFD-WF-001-010-HC.jpg,1500,solid,O,z,1263,11,1,56948.69999999972,379861.7000000002,7105,ATS,C,22
18,test,1,C,haborder.png,0,z,Thu Mar 13 2025 08:45:03 GMT-0500 (Central Daylight Time),439826.2000000002,CFD-BM-021-026-A.jpg,1700,solid,O,m,1291,9,1,59964.5,379861.7000000002,7105,ATS,C,23
19,test,1,C,haborder.png,1,z,Thu Mar 13 2025 08:45:03 GMT-0500 (Central Daylight Time),442708.6000000001,CFD-BM-043-014-A.jpg,1900,solid,O,z,959,8,1,62846.89999999991,379861.7000000002,7105,ATS,C,24
1,test,2,C,haborder.png,1,z,Thu Mar 13 2025 08:45:03 GMT-0500 (Central Daylight Time),449523.3000000003,CFD-WF-037-016-A.jpg,1700,solid,O,z,1249,9,1,2982.600000000093,446540.7000000002,7105,ATS,C,1
2,test,2,C,mfborder.png,1,z,Thu Mar 13 2025 08:45:03 GMT-0500 (Central Daylight Time),452255.8000000003,CFD-WF-013-009-HC.jpg,1700,dash,O,z,1013,1,1,5715.100000000093,446540.7000000002,7105,ATS,C,2
3,test,2,C,haborder.png,1,m,Thu Mar 13 2025 08:45:03 GMT-0500 (Central Daylight Time),455104.8000000003,CFD-BM-022-004-HC.jpg,1600,solid,O,m,1221,10,1,8564.100000000093,446540.7000000002,7105,ATS,C,3
4,test,2,C,mfborder.png,1,m,Thu Mar 13 2025 08:45:03 GMT-0500 (Central Daylight Time),457487.3000000003,CFD-BM-034-035-HC.jpg,1000,dash,O,m,1356,4,1,10946.600000000093,446540.7000000002,7105,ATS,C,4
4,test,2,C,mfborder.png,0,m,Thu Mar 13 2025 08:45:03 GMT-0500 (Central Daylight Time),461019.6000000001,CFD-BM-043-014-A.jpg,2000,dash,O,None,1515,5,1,14478.899999999907,446540.7000000002,7105,ATS,C,5
5,test,2,C,mfborder.png,1,z,Thu Mar 13 2025 08:45:03 GMT-0500 (Central Daylight Time),463685.5,CFD-WF-013-009-HC.jpg,1700,dash,O,z,942,1,1,17144.799999999814,446540.7000000002,7105,ATS,C,6
6,test,2,C,mfborder.png,1,z,Thu Mar 13 2025 08:45:03 GMT-0500 (Central Daylight Time),466101.3999999999,CFD-WF-023-013-A.jpg,1600,dash,O,z,792,2,1,19560.69999999972,446540.7000000002,7105,ATS,C,7
7,test,2,C,haborder.png,1,z,Thu Mar 13 2025 08:45:03 GMT-0500 (Central Daylight Time),468900.3999999999,CFD-BF-002-018-A.jpg,1900,solid,O,z,868,8,1,22359.69999999972,446540.7000000002,7105,ATS,C,8
8,test,2,C,mfborder.png,1,z,Thu Mar 13 2025 08:45:03 GMT-0500 (Central Daylight Time),471333.1000000001,CFD-WF-023-013-A.jpg,1600,dash,O,z,809,2,1,24792.399999999907,446540.7000000002,7105,ATS,C,9
9,test,2,C,haborder.png,1,m,Thu Mar 13 2025 08:45:03 GMT-0500 (Central Daylight Time),473865.6000000001,CFD-BM-022-004-HC.jpg,1600,solid,O,m,904,10,1,27324.899999999907,446540.7000000002,7105,ATS,C,10
10,test,2,C,mfborder.png,1,m,Thu Mar 13 2025 08:45:03 GMT-0500 (Central Daylight Time),476248.1000000001,CFD-WM-036-018-A.jpg,1200,dash,O,m,1163,6,1,29707.399999999907,446540.7000000002,7105,ATS,C,11
11,test,2,C,mfborder.png,1,z,Thu Mar 13 2025 08:45:03 GMT-0500 (Central Daylight Time),478980.7000000002,CFD-BF-019-004-HC.jpg,1500,dash,O,z,1209,3,1,32440.0,446540.7000000002,7105,ATS,C,12
12,test,2,C,haborder.png,1,m,Thu Mar 13 2025 08:45:03 GMT-0500 (Central Daylight Time),481396.6000000001,CFD-WM-028-005-HC.jpg,1500,solid,O,m,893,11,1,34855.89999999991,446540.7000000002,7105,ATS,C,13
13,test,2,C,mfborder.png,1,m,Thu Mar 13 2025 08:45:03 GMT-0500 (Central Daylight Time),483399.7000000002,CFD-BM-034-035-HC.jpg,1000,dash,O,m,969,4,1,36859.0,446540.7000000002,7105,ATS,C,14
14,test,2,C,haborder.png,1,z,Thu Mar 13 2025 08:45:03 GMT-0500 (Central Daylight Time),485761.8999999999,CFD-BF-031-020-A.jpg,1400,solid,O,z,945,7,1,39221.19999999972,446540.7000000002,7105,ATS,C,15
15,test,2,C,mfborder.png,1,m,Thu Mar 13 2025 08:45:03 GMT-0500 (Central Daylight Time),487977.8999999999,CFD-WM-036-018-A.jpg,1200,dash,O,m,987,6,1,41437.19999999972,446540.7000000002,7105,ATS,C,16
16,test,2,C,haborder.png,1,m,Thu Mar 13 2025 08:45:03 GMT-0500 (Central Daylight Time),489743.8999999999,CFD-WM-028-005-HC.jpg,1000,solid,O,m,739,12,1,43203.19999999972,446540.7000000002,7105,ATS,C,17
17,test,2,C,haborder.png,1,z,Thu Mar 13 2025 08:45:03 GMT-0500 (Central Daylight Time),492426.6000000001,CFD-BF-002-018-A.jpg,1900,solid,O,z,753,8,1,45885.89999999991,446540.7000000002,7105,ATS,C,18
18,test,2,C,haborder.png,1,z,Thu Mar 13 2025 08:45:03 GMT-0500 (Central Daylight Time),494809.0,CFD-WF-037-016-A.jpg,1700,solid,O,z,652,9,1,48268.299999999814,446540.7000000002,7105,ATS,C,19
19,test,2,C,mfborder.png,1,m,Thu Mar 13 2025 08:45:03 GMT-0500 (Central Daylight Time),497674.8000000003,CFD-BM-043-014-A.jpg,2000,dash,O,m,836,5,1,51134.10000000009,446540.7000000002,7105,ATS,C,20
20,test,2,C,haborder.png,1,z,Thu Mar 13 2025 08:45:03 GMT-0500 (Central Daylight Time),499923.8999999999,CFD-BF-031-020-A.jpg,1400,solid,O,z,827,7,1,53383.19999999972,446540.7000000002,7105,ATS,C,21
21,test,2,C,haborder.png,1,m,Thu Mar 13 2025 08:45:03 GMT-0500 (Central Daylight Time),502073.2000000002,CFD-WM-028-005-HC.jpg,1500,solid,O,m,621,11,1,55532.5,446540.7000000002,7105,ATS,C,22
22,test,2,C,mfborder.png,1,z,Thu Mar 13 2025 08:45:03 GMT-0500 (Central Daylight Time),504389.3000000003,CFD-BF-019-004-HC.jpg,1500,dash,O,z,792,3,1,57848.60000000009,446540.7000000002,7105,ATS,C,23
23,test,2,C,haborder.png,1,m,Thu Mar 13 2025 08:45:03 GMT-0500 (Central Daylight Time),506088.8999999999,CFD-WM-028-005-HC.jpg,1000,solid,O,m,680,12,1,59548.19999999972,446540.7000000002,7105,ATS,C,24
0,test,3,C,haborder.png,0,m,Thu Mar 13 2025 08:45:03 GMT-0500 (Central Daylight Time),510537.2000000002,CFD-WF-001-010-HC.jpg,1500,solid,O,z,1037,11,1,2565.600000000093,507971.6000000001,7105,ATS,C,1
1,test,3,C,mfborder.png,1,z,Thu Mar 13 2025 08:45:03 GMT-0500 (Central Daylight Time),513053.2000000002,CFD-BF-042-031-HC.jpg,1700,dash,O,z,792,1,1,5081.600000000093,507971.6000000001,7105,ATS,C,2
2,test,3,C,mfborder.png,1,z,Thu Mar 13 2025 08:45:03 GMT-0500 (Central Daylight Time),515619.2000000002,CFD-BF-042-031-HC.jpg,1700,dash,O,z,835,1,1,7647.600000000093,507971.6000000001,7105,ATS,C,3
3,test,3,C,haborder.png,1,m,Thu Mar 13 2025 08:45:03 GMT-0500 (Central Daylight Time),517418.6000000001,CFD-WF-013-009-HC.jpg,1000,solid,O,m,778,12,1,9447.0,507971.6000000001,7105,ATS,C,4
4,test,3,C,haborder.png,1,z,Thu Mar 13 2025 08:45:03 GMT-0500 (Central Daylight Time),519968.0,CFD-BM-021-026-A.jpg,1700,solid,O,z,831,9,1,11996.399999999907,507971.6000000001,7105,ATS,C,5
5,test,3,C,haborder.png,1,m,Thu Mar 13 2025 08:45:03 GMT-0500 (Central Daylight Time),522450.0,CFD-BF-019-004-HC.jpg,1600,solid,O,m,862,10,1,14478.399999999907,507971.6000000001,7105,ATS,C,6
6,test,3,C,mfborder.png,1,z,Thu Mar 13 2025 08:45:03 GMT-0500 (Central Daylight Time),524683.0,CFD-BF-031-020-A.jpg,1600,dash,O,z,611,2,1,16711.399999999907,507971.6000000001,7105,ATS,C,7
7,test,3,C,haborder.png,1,m,Thu Mar 13 2025 08:45:03 GMT-0500 (Central Daylight Time),526948.8999999999,CFD-WF-001-010-HC.jpg,1500,solid,O,m,742,11,1,18977.299999999814,507971.6000000001,7105,ATS,C,8
8,test,3,C,haborder.png,1,z,Thu Mar 13 2025 08:45:03 GMT-0500 (Central Daylight Time),529731.3999999999,CFD-BM-021-026-A.jpg,1700,solid,O,z,1052,9,1,21759.799999999814,507971.6000000001,7105,ATS,C,9
9,test,3,C,mfborder.png,1,z,Thu Mar 13 2025 08:45:03 GMT-0500 (Central Daylight Time),532147.5,CFD-WF-037-016-A.jpg,1500,dash,O,z,894,3,1,24175.899999999907,507971.6000000001,7105,ATS,C,10
10,test,3,C,mfborder.png,1,z,Thu Mar 13 2025 08:45:03 GMT-0500 (Central Daylight Time),534462.8999999999,CFD-BF-031-020-A.jpg,1600,dash,O,z,698,2,1,26491.299999999814,507971.6000000001,7105,ATS,C,11
11,test,3,C,mfborder.png,1,m,Thu Mar 13 2025 08:45:03 GMT-0500 (Central Daylight Time),536146.3999999999,CFD-WM-035-036-HC.jpg,1000,dash,O,m,662,4,1,28174.799999999814,507971.6000000001,7105,ATS,C,12
12,test,3,C,mfborder.png,1,m,Thu Mar 13 2025 08:45:03 GMT-0500 (Central Daylight Time),539028.6000000001,CFD-WM-034-040-A.jpg,2000,dash,O,m,852,5,1,31057.0,507971.6000000001,7105,ATS,C,13
13,test,3,C,haborder.png,1,z,Thu Mar 13 2025 08:45:03 GMT-0500 (Central Daylight Time),541927.7000000002,CFD-BM-043-014-A.jpg,1900,solid,O,z,981,8,1,33956.10000000009,507971.6000000001,7105,ATS,C,14
14,test,3,C,mfborder.png,1,z,Thu Mar 13 2025 08:45:03 GMT-0500 (Central Daylight Time),544177.0,CFD-WF-037-016-A.jpg,1500,dash,O,z,730,3,1,36205.39999999991,507971.6000000001,7105,ATS,C,15
15,test,3,C,haborder.png,1,z,Thu Mar 13 2025 08:45:03 GMT-0500 (Central Daylight Time),547009.3000000003,CFD-BM-043-014-A.jpg,1900,solid,O,z,912,8,1,39037.700000000186,507971.6000000001,7105,ATS,C,16
16,test,3,C,mfborder.png,1,m,Thu Mar 13 2025 08:45:03 GMT-0500 (Central Daylight Time),548958.3999999999,CFD-BM-022-004-HC.jpg,1200,dash,O,m,731,6,1,40986.799999999814,507971.6000000001,7105,ATS,C,17
17,test,3,C,haborder.png,1,z,Thu Mar 13 2025 08:45:03 GMT-0500 (Central Daylight Time),551724.6000000001,CFD-WM-036-018-A.jpg,1400,solid,O,z,1343,7,1,43753.0,507971.6000000001,7105,ATS,C,18
18,test,3,C,mfborder.png,1,m,Thu Mar 13 2025 08:45:03 GMT-0500 (Central Daylight Time),553507.2000000002,CFD-WM-035-036-HC.jpg,1000,dash,O,m,761,4,1,45535.60000000009,507971.6000000001,7105,ATS,C,19
19,test,3,C,mfborder.png,1,m,Thu Mar 13 2025 08:45:03 GMT-0500 (Central Daylight Time),555889.8000000003,CFD-BM-022-004-HC.jpg,1200,dash,O,m,1161,6,1,47918.200000000186,507971.6000000001,7105,ATS,C,20
20,test,3,C,haborder.png,1,m,Thu Mar 13 2025 08:45:03 GMT-0500 (Central Daylight Time),558372.3999999999,CFD-BF-019-004-HC.jpg,1600,solid,O,m,851,10,1,50400.799999999814,507971.6000000001,7105,ATS,C,21
21,test,3,C,haborder.png,1,m,Thu Mar 13 2025 08:45:03 GMT-0500 (Central Daylight Time),560088.5,CFD-WF-013-009-HC.jpg,1000,solid,O,m,689,12,1,52116.89999999991,507971.6000000001,7105,ATS,C,22
21,test,3,C,haborder.png,0,z,Thu Mar 13 2025 08:45:03 GMT-0500 (Central Daylight Time),562970.8999999999,CFD-WM-036-018-A.jpg,1400,solid,O,m,1453,7,1,54999.299999999814,507971.6000000001,7105,ATS,C,23
22,test,3,C,mfborder.png,1,m,Thu Mar 13 2025 08:45:03 GMT-0500 (Central Daylight Time),566119.8999999999,CFD-WM-034-040-A.jpg,2000,dash,O,m,1122,5,1,58148.299999999814,507971.6000000001,7105,ATS,C,24
0,test,4,C,mfborder.png,0,z,Thu Mar 13 2025 08:45:03 GMT-0500 (Central Daylight Time),571452.3999999999,CFD-BF-019-004-HC.jpg,1500,dash,O,None,1516,3,1,3033.0,568419.3999999999,7105,ATS,C,1
1,test,4,C,haborder.png,1,m,Thu Mar 13 2025 08:45:03 GMT-0500 (Central Daylight Time),573701.0,CFD-WM-028-005-HC.jpg,1500,solid,O,m,717,11,1,5281.600000000093,568419.3999999999,7105,ATS,C,2
2,test,4,C,mfborder.png,1,z,Thu Mar 13 2025 08:45:03 GMT-0500 (Central Daylight Time),576133.5,CFD-WF-023-013-A.jpg,1600,dash,O,z,801,2,1,7714.100000000093,568419.3999999999,7105,ATS,C,3
2,test,4,C,mfborder.png,0,m,Thu Mar 13 2025 08:45:03 GMT-0500 (Central Daylight Time),579765.7000000002,CFD-BM-043-014-A.jpg,2000,dash,O,z,1481,5,1,11346.30000000028,568419.3999999999,7105,ATS,C,4
3,test,4,C,haborder.png,1,z,Thu Mar 13 2025 08:45:03 GMT-0500 (Central Daylight Time),582464.7000000002,CFD-BF-002-018-A.jpg,1900,solid,O,z,779,8,1,14045.30000000028,568419.3999999999,7105,ATS,C,5
4,test,4,C,haborder.png,1,z,Thu Mar 13 2025 08:45:03 GMT-0500 (Central Daylight Time),585014.2000000002,CFD-BF-002-018-A.jpg,1900,solid,O,z,616,8,1,16594.80000000028,568419.3999999999,7105,ATS,C,6
5,test,4,C,haborder.png,1,m,Thu Mar 13 2025 08:45:03 GMT-0500 (Central Daylight Time),586646.7000000002,CFD-WM-028-005-HC.jpg,1000,solid,O,m,615,12,1,18227.30000000028,568419.3999999999,7105,ATS,C,7
6,test,4,C,haborder.png,1,m,Thu Mar 13 2025 08:45:03 GMT-0500 (Central Daylight Time),588814.0,CFD-WM-028-005-HC.jpg,1500,solid,O,m,642,11,1,20394.600000000093,568419.3999999999,7105,ATS,C,8
7,test,4,C,mfborder.png,1,m,Thu Mar 13 2025 08:45:03 GMT-0500 (Central Daylight Time),591228.8000000003,CFD-WM-036-018-A.jpg,1200,dash,O,m,1192,6,1,22809.400000000373,568419.3999999999,7105,ATS,C,9
8,test,4,C,haborder.png,1,z,Thu Mar 13 2025 08:45:03 GMT-0500 (Central Daylight Time),593478.1000000001,CFD-BF-031-020-A.jpg,1400,solid,O,z,824,7,1,25058.700000000186,568419.3999999999,7105,ATS,C,10
9,test,4,C,mfborder.png,1,z,Thu Mar 13 2025 08:45:03 GMT-0500 (Central Daylight Time),596060.6000000001,CFD-BF-019-004-HC.jpg,1500,dash,O,z,1059,3,1,27641.200000000186,568419.3999999999,7105,ATS,C,11
10,test,4,C,haborder.png,1,z,Thu Mar 13 2025 08:45:03 GMT-0500 (Central Daylight Time),598643.1000000001,CFD-WF-037-016-A.jpg,1700,solid,O,z,849,9,1,30223.700000000186,568419.3999999999,7105,ATS,C,12
11,test,4,C,haborder.png,1,z,Thu Mar 13 2025 08:45:03 GMT-0500 (Central Daylight Time),600725.8000000003,CFD-BF-031-020-A.jpg,1400,solid,O,z,666,7,1,32306.400000000373,568419.3999999999,7105,ATS,C,13
12,test,4,C,mfborder.png,1,z,Thu Mar 13 2025 08:45:03 GMT-0500 (Central Daylight Time),603758.1000000001,CFD-WF-013-009-HC.jpg,1700,dash,O,z,1299,1,1,35338.700000000186,568419.3999999999,7105,ATS,C,14
13,test,4,C,haborder.png,1,z,Thu Mar 13 2025 08:45:03 GMT-0500 (Central Daylight Time),606174.5,CFD-WF-037-016-A.jpg,1700,solid,O,z,683,9,1,37755.10000000009,568419.3999999999,7105,ATS,C,15
14,test,4,C,haborder.png,1,m,Thu Mar 13 2025 08:45:03 GMT-0500 (Central Daylight Time),608408.0,CFD-BM-022-004-HC.jpg,1600,solid,O,m,615,10,1,39988.60000000009,568419.3999999999,7105,ATS,C,16
15,test,4,C,mfborder.png,1,m,Thu Mar 13 2025 08:45:03 GMT-0500 (Central Daylight Time),610606.0,CFD-WM-036-018-A.jpg,1200,dash,O,m,974,6,1,42186.60000000009,568419.3999999999,7105,ATS,C,17
16,test,4,C,mfborder.png,1,z,Thu Mar 13 2025 08:45:03 GMT-0500 (Central Daylight Time),612955.1000000001,CFD-WF-023-013-A.jpg,1600,dash,O,z,720,2,1,44535.700000000186,568419.3999999999,7105,ATS,C,18
17,test,4,C,mfborder.png,1,m,Thu Mar 13 2025 08:45:03 GMT-0500 (Central Daylight Time),615005.7000000002,CFD-BM-034-035-HC.jpg,1000,dash,O,m,1017,4,1,46586.30000000028,568419.3999999999,7105,ATS,C,19
18,test,4,C,mfborder.png,1,m,Thu Mar 13 2025 08:45:03 GMT-0500 (Central Daylight Time),616637.3999999999,CFD-BM-034-035-HC.jpg,1000,dash,O,m,600,4,1,48218.0,568419.3999999999,7105,ATS,C,20
19,test,4,C,haborder.png,1,m,Thu Mar 13 2025 08:45:03 GMT-0500 (Central Daylight Time),618287.0,CFD-WM-028-005-HC.jpg,1000,solid,O,m,623,12,1,49867.60000000009,568419.3999999999,7105,ATS,C,21
20,test,4,C,mfborder.png,1,m,Thu Mar 13 2025 08:45:03 GMT-0500 (Central Daylight Time),621702.3999999999,CFD-BM-043-014-A.jpg,2000,dash,O,m,1398,5,1,53283.0,568419.3999999999,7105,ATS,C,22
21,test,4,C,mfborder.png,1,z,Thu Mar 13 2025 08:45:03 GMT-0500 (Central Daylight Time),624552.8000000003,CFD-WF-013-009-HC.jpg,1700,dash,O,z,1122,1,1,56133.40000000037,568419.3999999999,7105,ATS,C,23
22,test,4,C,haborder.png,1,m,Thu Mar 13 2025 08:45:03 GMT-0500 (Central Daylight Time),626984.1000000001,CFD-BM-022-004-HC.jpg,1600,solid,O,m,813,10,1,58564.700000000186,568419.3999999999,7105,ATS,C,24
