acc_sum,block,block_c,change,condition,correct,correct_response,datetime,endtime,face,project,response,response_time,row_sel,session_number,start_end,starttime,subject_id,task,task_vers,trial
0,prac,1,,1-Back,,,Thu Apr 17 2025 17:17:28 GMT-0500 (Central Daylight Time),,005_o_f_d_a.png,O,space,5956,1,1,,,7130,VNB,B,0
1,prac,1,0.0,1-Back,1,m,Thu Apr 17 2025 17:17:28 GMT-0500 (Central Daylight Time),146085.10000002384,020_y_f_n_a.png,O,m,1175,2,1,2061.899999976158,144023.20000004768,7130,VNB,B,1
2,prac,1,0.0,1-Back,1,m,Thu Apr 17 2025 17:17:28 GMT-0500 (Central Daylight Time),148484.30000001192,007_m_m_h_a.png,O,m,1445,3,1,2371.300000011921,146113.0,7130,VNB,B,2
3,prac,1,0.0,1-Back,1,m,Thu Apr 17 2025 17:17:28 GMT-0500 (Central Daylight Time),150599.30000001192,016_y_m_d_a.png,O,m,1154,4,1,2085.899999976158,148513.40000003576,7130,VNB,B,3
4,prac,1,0.0,1-Back,1,m,Thu Apr 17 2025 17:17:28 GMT-0500 (Central Daylight Time),152617.90000003576,005_o_f_n_a.png,O,m,1087,5,1,2009.800000011921,150608.10000002384,7130,VNB,B,4
5,prac,1,1.0,1-Back,1,z,Thu Apr 17 2025 17:17:28 GMT-0500 (Central Daylight Time),154598.70000004768,016_y_m_n_a.png,O,z,1037,6,1,1964.9000000357628,152633.80000001192,7130,VNB,B,5
6,prac,1,0.0,1-Back,1,m,Thu Apr 17 2025 17:17:28 GMT-0500 (Central Daylight Time),156531.60000002384,004_o_m_h_a.png,O,m,1005,7,1,1900.0,154631.60000002384,7130,VNB,B,6
6,prac,1,0.0,1-Back,0,m,Thu Apr 17 2025 17:17:28 GMT-0500 (Central Daylight Time),158447.30000001192,011_m_f_d_a.png,O,z,955,8,1,1872.8999999761581,156574.40000003576,7130,VNB,B,7
7,prac,1,1.0,1-Back,1,z,Thu Apr 17 2025 17:17:28 GMT-0500 (Central Daylight Time),160546.90000003576,020_y_f_d_a.png,O,z,1157,9,1,2064.199999988079,158482.70000004768,7130,VNB,B,8
8,prac,1,0.0,1-Back,1,m,Thu Apr 17 2025 17:17:28 GMT-0500 (Central Daylight Time),162929.10000002384,007_m_m_n_a.png,O,m,1411,10,1,2344.300000011921,160584.80000001192,7130,VNB,B,9
8,prac,1,0.0,1-Back,0,m,Thu Apr 17 2025 17:17:28 GMT-0500 (Central Daylight Time),165111.90000003576,005_o_f_h_a.png,O,z,1240,11,1,2154.600000023842,162957.30000001192,7130,VNB,B,10
9,prac,1,0.0,1-Back,1,m,Thu Apr 17 2025 17:17:28 GMT-0500 (Central Daylight Time),167794.30000001192,016_y_m_d_a.png,O,m,1714,12,1,2647.5,165146.80000001192,7130,VNB,B,11
0,test,1,0.0,1-Back,,,Thu Apr 17 2025 17:17:28 GMT-0500 (Central Daylight Time),167794.30000001192,020_y_f_d_a.png,O,space,5065,1,1,2647.5,165146.80000001192,7130,VNB,B,0
1,test,1,0.0,1-Back,1,m,Thu Apr 17 2025 17:17:28 GMT-0500 (Central Daylight Time),183405.80000001192,011_m_f_n_a.png,O,m,1479,2,1,2487.5,180918.30000001192,7130,VNB,B,1
2,test,1,0.0,1-Back,1,m,Thu Apr 17 2025 17:17:28 GMT-0500 (Central Daylight Time),185638.70000004768,004_o_m_h_a.png,O,m,1187,3,1,2202.7000000476837,183436.0,7130,VNB,B,2
3,test,1,1.0,1-Back,1,z,Thu Apr 17 2025 17:17:28 GMT-0500 (Central Daylight Time),187771.5,007_m_m_h_a.png,O,z,1083,4,1,2109.7999999523163,185661.70000004768,7130,VNB,B,3
4,test,1,0.0,1-Back,1,m,Thu Apr 17 2025 17:17:28 GMT-0500 (Central Daylight Time),189803.90000003576,005_o_f_n_a.png,O,m,983,5,1,2008.4000000357628,187795.5,7130,VNB,B,4
5,test,1,0.0,1-Back,1,m,Thu Apr 17 2025 17:17:28 GMT-0500 (Central Daylight Time),192285.90000003576,016_y_m_d_a.png,O,m,1429,6,1,2447.5,189838.40000003576,7130,VNB,B,5
6,test,1,1.0,1-Back,1,z,Thu Apr 17 2025 17:17:28 GMT-0500 (Central Daylight Time),194668.0,011_m_f_d_a.png,O,z,1321,7,1,2356.2999999523163,192311.70000004768,7130,VNB,B,6
7,test,1,0.0,1-Back,1,m,Thu Apr 17 2025 17:17:28 GMT-0500 (Central Daylight Time),197133.90000003576,020_y_f_h_a.png,O,m,1444,8,1,2461.400000035763,194672.5,7130,VNB,B,7
8,test,1,0.0,1-Back,1,m,Thu Apr 17 2025 17:17:28 GMT-0500 (Central Daylight Time),199400.0,004_o_m_n_a.png,O,m,1242,9,1,2258.899999976158,197141.10000002384,7130,VNB,B,8
9,test,1,0.0,1-Back,1,m,Thu Apr 17 2025 17:17:28 GMT-0500 (Central Daylight Time),201782.90000003576,016_y_m_h_a.png,O,m,1354,10,1,2375.699999988079,199407.20000004768,7130,VNB,B,9
10,test,1,0.0,1-Back,1,m,Thu Apr 17 2025 17:17:28 GMT-0500 (Central Daylight Time),203949.20000004768,004_o_m_d_a.png,O,m,1122,11,1,2142.5,201806.70000004768,7130,VNB,B,10
11,test,1,1.0,1-Back,1,z,Thu Apr 17 2025 17:17:28 GMT-0500 (Central Daylight Time),206381.5,005_o_f_d_a.png,O,z,1396,12,1,2408.2999999523163,203973.20000004768,7130,VNB,B,11
12,test,1,0.0,1-Back,1,m,Thu Apr 17 2025 17:17:28 GMT-0500 (Central Daylight Time),208847.40000003576,007_m_m_n_a.png,O,m,1419,13,1,2438.300000011921,206409.10000002384,7130,VNB,B,12
13,test,1,1.0,1-Back,1,z,Thu Apr 17 2025 17:17:28 GMT-0500 (Central Daylight Time),211480.10000002384,020_y_f_n_a.png,O,z,1594,14,1,2607.5,208872.60000002384,7130,VNB,B,13
14,test,1,0.0,1-Back,1,m,Thu Apr 17 2025 17:17:28 GMT-0500 (Central Daylight Time),213462.5,011_m_f_h_a.png,O,m,946,15,1,1964.699999988079,211497.80000001192,7130,VNB,B,14
15,test,1,0.0,1-Back,1,m,Thu Apr 17 2025 17:17:28 GMT-0500 (Central Daylight Time),215895.30000001192,007_m_m_d_a.png,O,m,1394,16,1,2413.399999976158,213481.90000003576,7130,VNB,B,15
16,test,1,0.0,1-Back,1,m,Thu Apr 17 2025 17:17:28 GMT-0500 (Central Daylight Time),218228.0,016_y_m_n_a.png,O,m,1290,17,1,2307.7999999523163,215920.20000004768,7130,VNB,B,16
17,test,1,0.0,1-Back,1,m,Thu Apr 17 2025 17:17:28 GMT-0500 (Central Daylight Time),220326.30000001192,005_o_f_h_a.png,O,m,1062,18,1,2071.899999976158,218254.40000003576,7130,VNB,B,17
0,test,2,0.0,1-Back,,,Thu Apr 17 2025 17:17:28 GMT-0500 (Central Daylight Time),220326.30000001192,016_y_m_n_a.png,O,space,2453,1,1,2071.899999976158,218254.40000003576,7130,VNB,B,0
1,test,2,0.0,1-Back,1,m,Thu Apr 17 2025 17:17:28 GMT-0500 (Central Daylight Time),226957.90000003576,020_y_f_h_a.png,O,m,1113,2,1,2121.600000023842,224836.30000001192,7130,VNB,B,1
2,test,2,1.0,1-Back,1,m,Thu Apr 17 2025 17:17:28 GMT-0500 (Central Daylight Time),229640.80000001192,004_o_m_n_a.png,O,m,1643,3,1,2657.399999976158,226983.40000003576,7130,VNB,B,2
3,test,2,0.0,1-Back,1,m,Thu Apr 17 2025 17:17:28 GMT-0500 (Central Daylight Time),231923.30000001192,011_m_f_d_a.png,O,m,1234,4,1,2255.699999988079,229667.60000002384,7130,VNB,B,3
4,test,2,0.0,1-Back,1,z,Thu Apr 17 2025 17:17:28 GMT-0500 (Central Daylight Time),234039.30000001192,007_m_m_d_a.png,O,z,1025,5,1,2084.199999988079,231955.10000002384,7130,VNB,B,4
5,test,2,0.0,1-Back,1,m,Thu Apr 17 2025 17:17:28 GMT-0500 (Central Daylight Time),236088.0,016_y_m_h_a.png,O,m,1010,6,1,2021.8999999761581,234066.10000002384,7130,VNB,B,5
6,test,2,1.0,1-Back,1,z,Thu Apr 17 2025 17:17:28 GMT-0500 (Central Daylight Time),238354.60000002384,005_o_f_h_a.png,O,z,1242,7,1,2261.300000011921,236093.30000001192,7130,VNB,B,6
7,test,2,0.0,1-Back,1,m,Thu Apr 17 2025 17:17:28 GMT-0500 (Central Daylight Time),240553.80000001192,011_m_f_n_a.png,O,m,1151,8,1,2175.0,238378.80000001192,7130,VNB,B,7
7,test,2,0.0,1-Back,0,m,Thu Apr 17 2025 17:17:28 GMT-0500 (Central Daylight Time),243236.10000002384,020_y_f_d_a.png,O,z,1640,9,1,2657.5,240578.60000002384,7130,VNB,B,8
8,test,2,0.0,1-Back,1,m,Thu Apr 17 2025 17:17:28 GMT-0500 (Central Daylight Time),245385.40000003576,007_m_m_n_a.png,O,m,1101,10,1,2123.0,243262.40000003576,7130,VNB,B,9
9,test,2,1.0,1-Back,1,m,Thu Apr 17 2025 17:17:28 GMT-0500 (Central Daylight Time),247651.60000002384,011_m_f_h_a.png,O,m,1224,11,1,2238.800000011921,245412.80000001192,7130,VNB,B,10
10,test,2,0.0,1-Back,1,z,Thu Apr 17 2025 17:17:28 GMT-0500 (Central Daylight Time),249866.60000002384,004_o_m_h_a.png,O,z,1165,12,1,2194.699999988079,247671.90000003576,7130,VNB,B,11
11,test,2,0.0,1-Back,1,m,Thu Apr 17 2025 17:17:28 GMT-0500 (Central Daylight Time),252066.5,016_y_m_d_a.png,O,m,1175,13,1,2195.699999988079,249870.80000001192,7130,VNB,B,12
12,test,2,0.0,1-Back,1,m,Thu Apr 17 2025 17:17:28 GMT-0500 (Central Daylight Time),254499.40000003576,005_o_f_n_a.png,O,m,1391,14,1,2409.699999988079,252089.70000004768,7130,VNB,B,13
13,test,2,0.0,1-Back,1,z,Thu Apr 17 2025 17:17:28 GMT-0500 (Central Daylight Time),256981.5,020_y_f_n_a.png,O,z,1447,15,1,2459.2999999523163,254522.20000004768,7130,VNB,B,14
14,test,2,1.0,1-Back,1,m,Thu Apr 17 2025 17:17:28 GMT-0500 (Central Daylight Time),259031.10000002384,007_m_m_h_a.png,O,m,1007,16,1,2025.6000000238419,257005.5,7130,VNB,B,15
15,test,2,0.0,1-Back,1,m,Thu Apr 17 2025 17:17:28 GMT-0500 (Central Daylight Time),261546.70000004768,005_o_f_d_a.png,O,m,1466,17,1,2488.100000023842,259058.60000002384,7130,VNB,B,16
16,test,2,1.0,1-Back,1,z,Thu Apr 17 2025 17:17:28 GMT-0500 (Central Daylight Time),263646.40000003576,004_o_m_d_a.png,O,z,1054,18,1,2076.0,261570.40000003576,7130,VNB,B,17
0,test,3,1.0,1-Back,,,Thu Apr 17 2025 17:17:28 GMT-0500 (Central Daylight Time),263646.40000003576,005_o_f_h_a.png,O,space,1683,1,1,2076.0,261570.40000003576,7130,VNB,B,0
1,test,3,0.0,1-Back,1,m,Thu Apr 17 2025 17:17:28 GMT-0500 (Central Daylight Time),269827.60000002384,011_m_f_d_a.png,O,m,1240,2,1,2270.300000011921,267557.3000000119,7130,VNB,B,1
2,test,3,1.0,1-Back,1,m,Thu Apr 17 2025 17:17:28 GMT-0500 (Central Daylight Time),272210.2000000477,007_m_m_n_a.png,O,m,1342,3,1,2356.5,269853.7000000477,7130,VNB,B,2
3,test,3,0.0,1-Back,1,z,Thu Apr 17 2025 17:17:28 GMT-0500 (Central Daylight Time),274459.3000000119,005_o_f_n_a.png,O,z,1199,4,1,2219.800000011921,272239.5,7130,VNB,B,3
4,test,3,1.0,1-Back,1,m,Thu Apr 17 2025 17:17:28 GMT-0500 (Central Daylight Time),276358.90000003576,004_o_m_d_a.png,O,m,854,5,1,1874.9000000357628,274484.0,7130,VNB,B,4
5,test,3,0.0,1-Back,1,m,Thu Apr 17 2025 17:17:28 GMT-0500 (Central Daylight Time),278508.2000000477,020_y_f_h_a.png,O,m,1099,6,1,2125.300000011921,276382.90000003576,7130,VNB,B,5
6,test,3,0.0,1-Back,1,z,Thu Apr 17 2025 17:17:28 GMT-0500 (Central Daylight Time),280790.90000003576,016_y_m_h_a.png,O,z,1237,7,1,2259.600000023842,278531.3000000119,7130,VNB,B,6
7,test,3,0.0,1-Back,1,m,Thu Apr 17 2025 17:17:28 GMT-0500 (Central Daylight Time),282840.10000002384,011_m_f_n_a.png,O,m,1004,8,1,2020.699999988079,280819.40000003576,7130,VNB,B,7
8,test,3,0.0,1-Back,1,m,Thu Apr 17 2025 17:17:28 GMT-0500 (Central Daylight Time),285173.0,020_y_f_d_a.png,O,m,1298,9,1,2310.699999988079,282862.3000000119,7130,VNB,B,8
9,test,3,1.0,1-Back,1,m,Thu Apr 17 2025 17:17:28 GMT-0500 (Central Daylight Time),287288.60000002384,004_o_m_n_a.png,O,m,1053,10,1,2087.699999988079,285200.90000003576,7130,VNB,B,9
10,test,3,0.0,1-Back,1,m,Thu Apr 17 2025 17:17:28 GMT-0500 (Central Daylight Time),289370.8000000119,007_m_m_h_a.png,O,m,1040,11,1,2058.800000011921,287312.0,7130,VNB,B,10
11,test,3,0.0,1-Back,1,z,Thu Apr 17 2025 17:17:28 GMT-0500 (Central Daylight Time),291337.40000003576,011_m_f_h_a.png,O,z,926,12,1,1940.4000000357628,289397.0,7130,VNB,B,11
12,test,3,1.0,1-Back,1,m,Thu Apr 17 2025 17:17:28 GMT-0500 (Central Daylight Time),293369.8000000119,005_o_f_d_a.png,O,m,984,13,1,2011.699999988079,291358.10000002384,7130,VNB,B,12
13,test,3,0.0,1-Back,1,z,Thu Apr 17 2025 17:17:28 GMT-0500 (Central Daylight Time),295819.2000000477,007_m_m_d_a.png,O,z,1400,14,1,2428.300000011921,293390.90000003576,7130,VNB,B,13
14,test,3,0.0,1-Back,1,m,Thu Apr 17 2025 17:17:28 GMT-0500 (Central Daylight Time),297835.0,016_y_m_n_a.png,O,m,975,15,1,1995.699999988079,295839.3000000119,7130,VNB,B,14
15,test,3,1.0,1-Back,1,m,Thu Apr 17 2025 17:17:28 GMT-0500 (Central Daylight Time),300150.8000000119,004_o_m_h_a.png,O,m,1270,16,1,2290.0,297860.8000000119,7130,VNB,B,15
16,test,3,0.0,1-Back,1,m,Thu Apr 17 2025 17:17:28 GMT-0500 (Central Daylight Time),302549.8000000119,016_y_m_d_a.png,O,m,1363,17,1,2376.199999988079,300173.60000002384,7130,VNB,B,16
16,test,3,1.0,1-Back,0,m,Thu Apr 17 2025 17:17:28 GMT-0500 (Central Daylight Time),304899.60000002384,020_y_f_n_a.png,O,z,1308,18,1,2327.800000011921,302571.8000000119,7130,VNB,B,17
0,test,4,1.0,1-Back,,,Thu Apr 17 2025 17:17:28 GMT-0500 (Central Daylight Time),304899.60000002384,007_m_m_d_a.png,O,space,2390,1,1,2327.800000011921,302571.8000000119,7130,VNB,B,0
1,test,4,0.0,1-Back,1,z,Thu Apr 17 2025 17:17:28 GMT-0500 (Central Daylight Time),311913.8000000119,004_o_m_d_a.png,O,z,1542,2,1,2570.300000011921,309343.5,7130,VNB,B,1
2,test,4,0.0,1-Back,1,m,Thu Apr 17 2025 17:17:28 GMT-0500 (Central Daylight Time),314130.0,016_y_m_h_a.png,O,m,1167,3,1,2193.599999964237,311936.40000003576,7130,VNB,B,2
3,test,4,0.0,1-Back,1,m,Thu Apr 17 2025 17:17:28 GMT-0500 (Central Daylight Time),316562.2000000477,011_m_f_n_a.png,O,m,1392,4,1,2407.100000023842,314155.10000002384,7130,VNB,B,3
4,test,4,1.0,1-Back,1,m,Thu Apr 17 2025 17:17:28 GMT-0500 (Central Daylight Time),319294.3000000119,005_o_f_h_a.png,O,m,1696,5,1,2708.399999976158,316585.90000003576,7130,VNB,B,4
5,test,4,0.0,1-Back,1,m,Thu Apr 17 2025 17:17:28 GMT-0500 (Central Daylight Time),321643.8000000119,007_m_m_n_a.png,O,m,1299,6,1,2327.800000011921,319316.0,7130,VNB,B,5
6,test,4,0.0,1-Back,1,m,Thu Apr 17 2025 17:17:28 GMT-0500 (Central Daylight Time),324093.3000000119,016_y_m_d_a.png,O,m,1415,7,1,2420.699999988079,321672.60000002384,7130,VNB,B,6
7,test,4,1.0,1-Back,1,z,Thu Apr 17 2025 17:17:28 GMT-0500 (Central Daylight Time),326392.40000003576,020_y_f_d_a.png,O,z,1260,8,1,2276.900000035763,324115.5,7130,VNB,B,7
8,test,4,0.0,1-Back,1,m,Thu Apr 17 2025 17:17:28 GMT-0500 (Central Daylight Time),328574.60000002384,011_m_f_h_a.png,O,m,1129,9,1,2154.899999976158,326419.7000000477,7130,VNB,B,8
9,test,4,0.0,1-Back,1,z,Thu Apr 17 2025 17:17:28 GMT-0500 (Central Daylight Time),330674.5,004_o_m_h_a.png,O,z,1059,10,1,2072.0,328602.5,7130,VNB,B,9
10,test,4,1.0,1-Back,1,m,Thu Apr 17 2025 17:17:28 GMT-0500 (Central Daylight Time),332773.7000000477,005_o_f_n_a.png,O,m,1055,11,1,2073.900000035763,330699.8000000119,7130,VNB,B,10
11,test,4,0.0,1-Back,1,m,Thu Apr 17 2025 17:17:28 GMT-0500 (Central Daylight Time),335456.10000002384,011_m_f_d_a.png,O,m,1621,12,1,2653.800000011921,332802.3000000119,7130,VNB,B,11
11,test,4,0.0,1-Back,0,m,Thu Apr 17 2025 17:17:28 GMT-0500 (Central Daylight Time),338338.40000003576,020_y_f_n_a.png,O,z,1841,13,1,2856.400000035763,335482.0,7130,VNB,B,12
12,test,4,0.0,1-Back,1,m,Thu Apr 17 2025 17:17:28 GMT-0500 (Central Daylight Time),340754.5,005_o_f_d_a.png,O,m,1367,14,1,2393.7999999523163,338360.7000000477,7130,VNB,B,13
13,test,4,0.0,1-Back,1,m,Thu Apr 17 2025 17:17:28 GMT-0500 (Central Daylight Time),343186.8000000119,020_y_f_h_a.png,O,m,1383,15,1,2408.699999988079,340778.10000002384,7130,VNB,B,14
14,test,4,1.0,1-Back,1,z,Thu Apr 17 2025 17:17:28 GMT-0500 (Central Daylight Time),345519.5,007_m_m_h_a.png,O,z,1293,16,1,2305.199999988079,343214.3000000119,7130,VNB,B,15
15,test,4,0.0,1-Back,1,m,Thu Apr 17 2025 17:17:28 GMT-0500 (Central Daylight Time),347602.0,004_o_m_n_a.png,O,m,1026,17,1,2054.7999999523163,345547.2000000477,7130,VNB,B,16
16,test,4,1.0,1-Back,1,z,Thu Apr 17 2025 17:17:28 GMT-0500 (Central Daylight Time),349851.5,016_y_m_n_a.png,O,z,1216,18,1,2236.699999988079,347614.8000000119,7130,VNB,B,17
0,test,5,1.0,1-Back,,,Thu Apr 17 2025 17:17:28 GMT-0500 (Central Daylight Time),349851.5,004_o_m_n_a.png,O,space,2687,1,1,2236.699999988079,347614.8000000119,7130,VNB,B,0
1,test,5,1.0,1-Back,1,m,Thu Apr 17 2025 17:17:28 GMT-0500 (Central Daylight Time),356565.8000000119,005_o_f_h_a.png,O,m,955,2,1,1972.699999988079,354593.10000002384,7130,VNB,B,1
2,test,5,0.0,1-Back,1,m,Thu Apr 17 2025 17:17:28 GMT-0500 (Central Daylight Time),358898.40000003576,016_y_m_d_a.png,O,m,1292,3,1,2305.100000023842,356593.3000000119,7130,VNB,B,2
3,test,5,0.0,1-Back,1,z,Thu Apr 17 2025 17:17:28 GMT-0500 (Central Daylight Time),361030.90000003576,004_o_m_d_a.png,O,z,1088,4,1,2111.800000011921,358919.10000002384,7130,VNB,B,3
4,test,5,0.0,1-Back,1,m,Thu Apr 17 2025 17:17:28 GMT-0500 (Central Daylight Time),363080.10000002384,011_m_f_h_a.png,O,m,1003,5,1,2024.199999988079,361055.90000003576,7130,VNB,B,4
5,test,5,0.0,1-Back,1,m,Thu Apr 17 2025 17:17:28 GMT-0500 (Central Daylight Time),365396.3000000119,020_y_f_n_a.png,O,m,1273,6,1,2293.399999976158,363102.90000003576,7130,VNB,B,5
6,test,5,1.0,1-Back,1,z,Thu Apr 17 2025 17:17:28 GMT-0500 (Central Daylight Time),367578.90000003576,005_o_f_n_a.png,O,z,1141,7,1,2157.100000023842,365421.8000000119,7130,VNB,B,6
7,test,5,0.0,1-Back,1,m,Thu Apr 17 2025 17:17:28 GMT-0500 (Central Daylight Time),369928.3000000119,011_m_f_d_a.png,O,m,1312,8,1,2325.699999988079,367602.60000002384,7130,VNB,B,7
8,test,5,0.0,1-Back,1,m,Thu Apr 17 2025 17:17:28 GMT-0500 (Central Daylight Time),372377.3000000119,016_y_m_h_a.png,O,m,1410,9,1,2423.800000011921,369953.5,7130,VNB,B,8
9,test,5,0.0,1-Back,1,m,Thu Apr 17 2025 17:17:28 GMT-0500 (Central Daylight Time),374593.2000000477,020_y_f_d_a.png,O,m,1169,10,1,2185.600000023842,372407.60000002384,7130,VNB,B,9
10,test,5,0.0,1-Back,1,m,Thu Apr 17 2025 17:17:28 GMT-0500 (Central Daylight Time),376908.40000003576,007_m_m_n_a.png,O,m,1271,11,1,2291.100000023842,374617.3000000119,7130,VNB,B,10
11,test,5,1.0,1-Back,1,z,Thu Apr 17 2025 17:17:28 GMT-0500 (Central Daylight Time),379191.7000000477,011_m_f_n_a.png,O,z,1262,12,1,2279.100000023842,376912.60000002384,7130,VNB,B,11
12,test,5,0.0,1-Back,1,m,Thu Apr 17 2025 17:17:28 GMT-0500 (Central Daylight Time),381307.7000000477,004_o_m_h_a.png,O,m,1073,13,1,2090.7000000476837,379217.0,7130,VNB,B,12
13,test,5,0.0,1-Back,1,z,Thu Apr 17 2025 17:17:28 GMT-0500 (Central Daylight Time),383607.0,007_m_m_h_a.png,O,z,1221,14,1,2271.2999999523163,381335.7000000477,7130,VNB,B,13
14,test,5,1.0,1-Back,1,m,Thu Apr 17 2025 17:17:28 GMT-0500 (Central Daylight Time),385823.0,005_o_f_d_a.png,O,m,1172,15,1,2192.2999999523163,383630.7000000477,7130,VNB,B,14
15,test,5,0.0,1-Back,1,m,Thu Apr 17 2025 17:17:28 GMT-0500 (Central Daylight Time),388322.2000000477,016_y_m_n_a.png,O,m,1460,16,1,2471.100000023842,385851.10000002384,7130,VNB,B,15
16,test,5,0.0,1-Back,1,m,Thu Apr 17 2025 17:17:28 GMT-0500 (Central Daylight Time),390654.90000003576,020_y_f_h_a.png,O,m,1288,17,1,2310.100000023842,388344.8000000119,7130,VNB,B,16
17,test,5,0.0,1-Back,1,m,Thu Apr 17 2025 17:17:28 GMT-0500 (Central Daylight Time),392704.7000000477,007_m_m_d_a.png,O,m,1015,18,1,2025.800000011921,390678.90000003576,7130,VNB,B,17
0,prac,1,0.0,2-Back,,,Thu Apr 17 2025 17:17:28 GMT-0500 (Central Daylight Time),392704.7000000477,011_m_f_n_a.png,O,space,5334,1,1,2025.800000011921,390678.90000003576,7130,VNB,B,0
0,prac,1,0.0,2-Back,,,Thu Apr 17 2025 17:17:28 GMT-0500 (Central Daylight Time),392704.7000000477,005_o_f_h_a.png,O,space,5334,2,1,2025.800000011921,390678.90000003576,7130,VNB,B,0
1,prac,1,0.0,2-Back,1,m,Thu Apr 17 2025 17:17:28 GMT-0500 (Central Daylight Time),484474.0,004_o_m_d_a.png,O,m,1808,3,1,2706.099999964237,481767.90000003576,7130,VNB,B,1
2,prac,1,1.0,2-Back,1,z,Thu Apr 17 2025 17:17:28 GMT-0500 (Central Daylight Time),486955.60000002384,007_m_m_h_a.png,O,z,1500,4,1,2456.300000011921,484499.3000000119,7130,VNB,B,2
3,prac,1,0.0,2-Back,1,m,Thu Apr 17 2025 17:17:28 GMT-0500 (Central Daylight Time),489654.60000002384,020_y_f_n_a.png,O,m,1780,5,1,2689.399999976158,486965.2000000477,7130,VNB,B,3
3,prac,1,1.0,2-Back,0,z,Thu Apr 17 2025 17:17:28 GMT-0500 (Central Daylight Time),492554.3000000119,004_o_m_h_a.png,O,None,2004,6,1,2892.699999988079,489661.60000002384,7130,VNB,B,4
3,prac,1,1.0,2-Back,0,z,Thu Apr 17 2025 17:17:28 GMT-0500 (Central Daylight Time),494670.5,016_y_m_n_a.png,O,m,1140,7,1,2083.0,492587.5,7130,VNB,B,5
3,prac,1,0.0,2-Back,0,m,Thu Apr 17 2025 17:17:28 GMT-0500 (Central Daylight Time),497252.3000000119,011_m_f_d_a.png,O,z,1627,8,1,2552.300000011921,494700.0,7130,VNB,B,6
3,prac,1,0.0,2-Back,0,m,Thu Apr 17 2025 17:17:28 GMT-0500 (Central Daylight Time),499551.60000002384,005_o_f_d_a.png,O,z,1351,9,1,2277.699999988079,497273.90000003576,7130,VNB,B,7
4,prac,1,0.0,2-Back,1,m,Thu Apr 17 2025 17:17:28 GMT-0500 (Central Daylight Time),501934.7000000477,007_m_m_h_a.png,O,m,1452,10,1,2376.600000023842,499558.10000002384,7130,VNB,B,8
5,prac,1,1.0,2-Back,1,z,Thu Apr 17 2025 17:17:28 GMT-0500 (Central Daylight Time),504450.8000000119,020_y_f_d_a.png,O,z,1580,11,1,2488.399999976158,501962.40000003576,7130,VNB,B,9
6,prac,1,0.0,2-Back,1,m,Thu Apr 17 2025 17:17:28 GMT-0500 (Central Daylight Time),507099.8000000119,004_o_m_n_a.png,O,m,1720,12,1,2622.399999976158,504477.40000003576,7130,VNB,B,10
0,prac,2,0.0,2-Back,,,Thu Apr 17 2025 17:17:28 GMT-0500 (Central Daylight Time),507099.8000000119,011_m_f_n_a.png,O,a,9729,1,1,2622.399999976158,504477.40000003576,7130,VNB,B,0
0,prac,2,0.0,2-Back,,,Thu Apr 17 2025 17:17:28 GMT-0500 (Central Daylight Time),507099.8000000119,005_o_f_h_a.png,O,a,9729,2,1,2622.399999976158,504477.40000003576,7130,VNB,B,0
1,prac,2,0.0,2-Back,1,m,Thu Apr 17 2025 17:17:28 GMT-0500 (Central Daylight Time),524960.6000000238,004_o_m_d_a.png,O,m,1804,3,1,2691.399999976158,522269.2000000477,7130,VNB,B,1
2,prac,2,1.0,2-Back,1,z,Thu Apr 17 2025 17:17:28 GMT-0500 (Central Daylight Time),527076.7000000477,007_m_m_h_a.png,O,z,1158,4,1,2082.2000000476837,524994.5,7130,VNB,B,2
2,prac,2,0.0,2-Back,0,m,Thu Apr 17 2025 17:17:28 GMT-0500 (Central Daylight Time),529792.3000000119,020_y_f_n_a.png,O,z,1768,5,1,2679.5,527112.8000000119,7130,VNB,B,3
3,prac,2,1.0,2-Back,1,z,Thu Apr 17 2025 17:17:28 GMT-0500 (Central Daylight Time),532258.2000000477,004_o_m_h_a.png,O,z,1528,6,1,2432.0,529826.2000000477,7130,VNB,B,4
4,prac,2,1.0,2-Back,1,z,Thu Apr 17 2025 17:17:28 GMT-0500 (Central Daylight Time),534890.9000000358,016_y_m_n_a.png,O,z,1679,7,1,2605.400000035763,532285.5,7130,VNB,B,5
5,prac,2,0.0,2-Back,1,m,Thu Apr 17 2025 17:17:28 GMT-0500 (Central Daylight Time),537273.1000000238,011_m_f_d_a.png,O,m,1435,8,1,2349.5,534923.6000000238,7130,VNB,B,6
6,prac,2,0.0,2-Back,1,m,Thu Apr 17 2025 17:17:28 GMT-0500 (Central Daylight Time),539955.9000000358,005_o_f_d_a.png,O,m,1732,9,1,2655.300000011921,537300.6000000238,7130,VNB,B,7
6,prac,2,0.0,2-Back,0,m,Thu Apr 17 2025 17:17:28 GMT-0500 (Central Daylight Time),542204.7000000477,007_m_m_h_a.png,O,z,1295,10,1,2213.300000011921,539991.4000000358,7130,VNB,B,8
6,prac,2,1.0,2-Back,0,z,Thu Apr 17 2025 17:17:28 GMT-0500 (Central Daylight Time),544754.1000000238,020_y_f_d_a.png,O,m,1610,11,1,2513.100000023842,542241.0,7130,VNB,B,9
6,prac,2,0.0,2-Back,0,m,Thu Apr 17 2025 17:17:28 GMT-0500 (Central Daylight Time),547319.9000000358,004_o_m_n_a.png,O,z,1625,12,1,2523.699999988079,544796.2000000477,7130,VNB,B,10
0,test,1,0.0,2-Back,,,Thu Apr 17 2025 17:17:28 GMT-0500 (Central Daylight Time),547319.9000000358,016_y_m_h_a.png,O,space,7433,1,1,2523.699999988079,544796.2000000477,7130,VNB,B,0
0,test,1,0.0,2-Back,,,Thu Apr 17 2025 17:17:28 GMT-0500 (Central Daylight Time),547319.9000000358,005_o_f_n_a.png,O,space,7433,2,1,2523.699999988079,544796.2000000477,7130,VNB,B,0
1,test,1,0.0,2-Back,1,z,Thu Apr 17 2025 17:17:28 GMT-0500 (Central Daylight Time),568963.1000000238,004_o_m_h_a.png,O,z,668,3,1,1687.699999988079,567275.4000000358,7130,VNB,B,1
2,test,1,0.0,2-Back,1,m,Thu Apr 17 2025 17:17:28 GMT-0500 (Central Daylight Time),571395.5,011_m_f_d_a.png,O,m,1392,4,1,2402.7999999523163,568992.7000000477,7130,VNB,B,2
2,test,1,1.0,2-Back,0,m,Thu Apr 17 2025 17:17:28 GMT-0500 (Central Daylight Time),573926.9000000358,016_y_m_n_a.png,O,z,1460,5,1,2478.300000011921,571448.6000000238,7130,VNB,B,3
3,test,1,0.0,2-Back,1,z,Thu Apr 17 2025 17:17:28 GMT-0500 (Central Daylight Time),576693.7000000477,020_y_f_d_a.png,O,z,1739,6,1,2760.2000000476837,573933.5,7130,VNB,B,4
4,test,1,0.0,2-Back,1,m,Thu Apr 17 2025 17:17:28 GMT-0500 (Central Daylight Time),579425.9000000358,007_m_m_h_a.png,O,m,1668,7,1,2708.400000035763,576717.5,7130,VNB,B,5
4,test,1,1.0,2-Back,0,m,Thu Apr 17 2025 17:17:28 GMT-0500 (Central Daylight Time),582158.5,020_y_f_n_a.png,O,z,1688,8,1,2706.099999964237,579452.4000000358,7130,VNB,B,6
5,test,1,0.0,2-Back,1,z,Thu Apr 17 2025 17:17:28 GMT-0500 (Central Daylight Time),584991.1000000238,005_o_f_h_a.png,O,z,1788,9,1,2805.100000023842,582186.0,7130,VNB,B,7
6,test,1,0.0,2-Back,1,m,Thu Apr 17 2025 17:17:28 GMT-0500 (Central Daylight Time),588022.9000000358,004_o_m_d_a.png,O,m,1997,10,1,3003.699999988079,585019.2000000477,7130,VNB,B,8
7,test,1,1.0,2-Back,1,m,Thu Apr 17 2025 17:17:28 GMT-0500 (Central Daylight Time),590988.7000000477,007_m_m_d_a.png,O,m,1915,11,1,2935.7000000476837,588053.0,7130,VNB,B,9
8,test,1,0.0,2-Back,1,m,Thu Apr 17 2025 17:17:28 GMT-0500 (Central Daylight Time),593721.0,011_m_f_n_a.png,O,m,1684,12,1,2704.199999988079,591016.8000000119,7130,VNB,B,10
8,test,1,0.0,2-Back,0,m,Thu Apr 17 2025 17:17:28 GMT-0500 (Central Daylight Time),596770.5,020_y_f_h_a.png,O,None,2014,13,1,3030.7999999523163,593739.7000000477,7130,VNB,B,11
8,test,1,0.0,2-Back,0,z,Thu Apr 17 2025 17:17:28 GMT-0500 (Central Daylight Time),599436.1000000238,007_m_m_n_a.png,O,m,1600,14,1,2636.899999976158,596799.2000000477,7130,VNB,B,12
9,test,1,0.0,2-Back,1,m,Thu Apr 17 2025 17:17:28 GMT-0500 (Central Daylight Time),602052.1000000238,016_y_m_d_a.png,O,m,1574,15,1,2590.699999988079,599461.4000000358,7130,VNB,B,13
10,test,1,1.0,2-Back,1,m,Thu Apr 17 2025 17:17:28 GMT-0500 (Central Daylight Time),604801.0,011_m_f_h_a.png,O,m,1696,16,1,2718.599999964237,602082.4000000358,7130,VNB,B,14
10,test,1,0.0,2-Back,0,z,Thu Apr 17 2025 17:17:28 GMT-0500 (Central Daylight Time),607850.5,005_o_f_d_a.png,O,None,2014,17,1,3025.399999976158,604825.1000000238,7130,VNB,B,15
10,test,1,0.0,2-Back,0,m,Thu Apr 17 2025 17:17:28 GMT-0500 (Central Daylight Time),610682.2000000477,004_o_m_n_a.png,O,z,1793,18,1,2804.400000035763,607877.8000000119,7130,VNB,B,16
0,test,2,0.0,2-Back,,,Thu Apr 17 2025 17:17:28 GMT-0500 (Central Daylight Time),610682.2000000477,007_m_m_h_a.png,O,space,1817,1,1,2804.400000035763,607877.8000000119,7130,VNB,B,0
0,test,2,0.0,2-Back,,,Thu Apr 17 2025 17:17:28 GMT-0500 (Central Daylight Time),610682.2000000477,020_y_f_n_a.png,O,space,1817,2,1,2804.400000035763,607877.8000000119,7130,VNB,B,0
1,test,2,1.0,2-Back,1,z,Thu Apr 17 2025 17:17:28 GMT-0500 (Central Daylight Time),620112.1000000238,005_o_f_h_a.png,O,z,1179,3,1,2189.300000011921,617922.8000000119,7130,VNB,B,1
2,test,2,0.0,2-Back,1,m,Thu Apr 17 2025 17:17:28 GMT-0500 (Central Daylight Time),622544.4000000358,004_o_m_d_a.png,O,m,1403,4,1,2420.600000023842,620123.8000000119,7130,VNB,B,2
3,test,2,0.0,2-Back,1,m,Thu Apr 17 2025 17:17:28 GMT-0500 (Central Daylight Time),625478.0,011_m_f_d_a.png,O,m,1908,5,1,2927.199999988079,622550.8000000119,7130,VNB,B,3
4,test,2,0.0,2-Back,1,m,Thu Apr 17 2025 17:17:28 GMT-0500 (Central Daylight Time),627843.5,016_y_m_h_a.png,O,m,1312,6,1,2337.199999988079,625506.3000000119,7130,VNB,B,4
5,test,2,0.0,2-Back,1,m,Thu Apr 17 2025 17:17:28 GMT-0500 (Central Daylight Time),630341.7000000477,005_o_f_n_a.png,O,m,1453,7,1,2474.600000023842,627867.1000000238,7130,VNB,B,5
6,test,2,1.0,2-Back,1,z,Thu Apr 17 2025 17:17:28 GMT-0500 (Central Daylight Time),632558.8000000119,004_o_m_h_a.png,O,z,1190,8,1,2213.099999964237,630345.7000000477,7130,VNB,B,6
6,test,2,0.0,2-Back,0,m,Thu Apr 17 2025 17:17:28 GMT-0500 (Central Daylight Time),635523.6000000238,020_y_f_d_a.png,O,z,1899,9,1,2936.100000023842,632587.5,7130,VNB,B,7
6,test,2,0.0,2-Back,0,m,Thu Apr 17 2025 17:17:28 GMT-0500 (Central Daylight Time),638556.4000000358,016_y_m_d_a.png,O,None,2013,10,1,3029.0,635527.4000000358,7130,VNB,B,8
6,test,2,0.0,2-Back,0,m,Thu Apr 17 2025 17:17:28 GMT-0500 (Central Daylight Time),641156.1000000238,007_m_m_n_a.png,O,z,1565,11,1,2586.0,638570.1000000238,7130,VNB,B,9
7,test,2,0.0,2-Back,1,m,Thu Apr 17 2025 17:17:28 GMT-0500 (Central Daylight Time),643871.6000000238,011_m_f_h_a.png,O,m,1671,12,1,2688.899999976158,641182.7000000477,7130,VNB,B,10
8,test,2,1.0,2-Back,1,z,Thu Apr 17 2025 17:17:28 GMT-0500 (Central Daylight Time),646537.5,004_o_m_n_a.png,O,z,1627,13,1,2639.599999964237,643897.9000000358,7130,VNB,B,11
9,test,2,0.0,2-Back,1,m,Thu Apr 17 2025 17:17:28 GMT-0500 (Central Daylight Time),649069.7000000477,005_o_f_d_a.png,O,m,1497,14,1,2502.800000011921,646566.9000000358,7130,VNB,B,12
10,test,2,0.0,2-Back,1,m,Thu Apr 17 2025 17:17:28 GMT-0500 (Central Daylight Time),651851.5,020_y_f_h_a.png,O,m,1748,15,1,2755.899999976158,649095.6000000238,7130,VNB,B,13
11,test,2,0.0,2-Back,1,z,Thu Apr 17 2025 17:17:28 GMT-0500 (Central Daylight Time),654734.8000000119,007_m_m_d_a.png,O,z,1855,16,1,2879.300000011921,651855.5,7130,VNB,B,14
12,test,2,0.0,2-Back,1,m,Thu Apr 17 2025 17:17:28 GMT-0500 (Central Daylight Time),657600.7000000477,016_y_m_n_a.png,O,m,1803,17,1,2830.400000035763,654770.3000000119,7130,VNB,B,15
12,test,2,1.0,2-Back,0,m,Thu Apr 17 2025 17:17:28 GMT-0500 (Central Daylight Time),660133.3000000119,011_m_f_n_a.png,O,z,1498,18,1,2507.699999988079,657625.6000000238,7130,VNB,B,16
0,test,3,1.0,2-Back,,,Thu Apr 17 2025 17:17:28 GMT-0500 (Central Daylight Time),660133.3000000119,004_o_m_n_a.png,O,space,1397,1,1,2507.699999988079,657625.6000000238,7130,VNB,B,0
0,test,3,1.0,2-Back,,,Thu Apr 17 2025 17:17:28 GMT-0500 (Central Daylight Time),660133.3000000119,005_o_f_d_a.png,O,space,1397,2,1,2507.699999988079,657625.6000000238,7130,VNB,B,0
1,test,3,0.0,2-Back,1,m,Thu Apr 17 2025 17:17:28 GMT-0500 (Central Daylight Time),669179.8000000119,020_y_f_h_a.png,O,m,1224,3,1,2243.5,666936.3000000119,7130,VNB,B,1
2,test,3,0.0,2-Back,1,z,Thu Apr 17 2025 17:17:28 GMT-0500 (Central Daylight Time),671895.7000000477,011_m_f_d_a.png,O,z,1679,4,1,2694.0,669201.7000000477,7130,VNB,B,2
3,test,3,1.0,2-Back,1,m,Thu Apr 17 2025 17:17:28 GMT-0500 (Central Daylight Time),674228.6000000238,016_y_m_n_a.png,O,m,1279,5,1,2304.5,671924.1000000238,7130,VNB,B,3
4,test,3,0.0,2-Back,1,m,Thu Apr 17 2025 17:17:28 GMT-0500 (Central Daylight Time),677160.7000000477,004_o_m_h_a.png,O,m,1894,6,1,2906.300000011921,674254.4000000358,7130,VNB,B,4
5,test,3,0.0,2-Back,1,z,Thu Apr 17 2025 17:17:28 GMT-0500 (Central Daylight Time),679608.9000000358,020_y_f_n_a.png,O,z,1408,7,1,2424.900000035763,677184.0,7130,VNB,B,5
5,test,3,1.0,2-Back,0,m,Thu Apr 17 2025 17:17:28 GMT-0500 (Central Daylight Time),682109.9000000358,007_m_m_d_a.png,O,z,1483,8,1,2497.0,679612.9000000358,7130,VNB,B,6
6,test,3,0.0,2-Back,1,m,Thu Apr 17 2025 17:17:28 GMT-0500 (Central Daylight Time),684557.7000000477,016_y_m_d_a.png,O,m,1414,9,1,2425.0,682132.7000000477,7130,VNB,B,7
6,test,3,0.0,2-Back,0,m,Thu Apr 17 2025 17:17:28 GMT-0500 (Central Daylight Time),687507.4000000358,005_o_f_h_a.png,O,z,1899,10,1,2933.800000011921,684573.6000000238,7130,VNB,B,8
6,test,3,1.0,2-Back,0,m,Thu Apr 17 2025 17:17:28 GMT-0500 (Central Daylight Time),690473.1000000238,011_m_f_n_a.png,O,z,1927,11,1,2943.100000023842,687530.0,7130,VNB,B,9
7,test,3,1.0,2-Back,1,z,Thu Apr 17 2025 17:17:28 GMT-0500 (Central Daylight Time),693155.4000000358,007_m_m_h_a.png,O,z,1642,12,1,2656.300000011921,690499.1000000238,7130,VNB,B,10
8,test,3,0.0,2-Back,1,m,Thu Apr 17 2025 17:17:28 GMT-0500 (Central Daylight Time),696120.3000000119,020_y_f_d_a.png,O,m,1918,13,1,2941.599999964237,693178.7000000477,7130,VNB,B,11
9,test,3,0.0,2-Back,1,m,Thu Apr 17 2025 17:17:28 GMT-0500 (Central Daylight Time),698803.8000000119,005_o_f_n_a.png,O,m,1658,14,1,2679.300000011921,696124.5,7130,VNB,B,12
10,test,3,0.0,2-Back,1,z,Thu Apr 17 2025 17:17:28 GMT-0500 (Central Daylight Time),700969.5,004_o_m_d_a.png,O,z,1119,15,1,2142.399999976158,698827.1000000238,7130,VNB,B,13
10,test,3,1.0,2-Back,0,m,Thu Apr 17 2025 17:17:28 GMT-0500 (Central Daylight Time),704018.0,011_m_f_h_a.png,O,None,2014,16,1,3021.5,700996.5,7130,VNB,B,14
10,test,3,0.0,2-Back,0,m,Thu Apr 17 2025 17:17:28 GMT-0500 (Central Daylight Time),706284.6000000238,007_m_m_n_a.png,O,z,1232,17,1,2259.0,704025.6000000238,7130,VNB,B,15
11,test,3,0.0,2-Back,1,z,Thu Apr 17 2025 17:17:28 GMT-0500 (Central Daylight Time),708950.4000000358,016_y_m_h_a.png,O,z,1622,18,1,2642.600000023842,706307.8000000119,7130,VNB,B,16
0,test,4,0.0,2-Back,,,Thu Apr 17 2025 17:17:28 GMT-0500 (Central Daylight Time),708950.4000000358,011_m_f_n_a.png,O,space,1436,1,1,2642.600000023842,706307.8000000119,7130,VNB,B,0
0,test,4,0.0,2-Back,,,Thu Apr 17 2025 17:17:28 GMT-0500 (Central Daylight Time),708950.4000000358,004_o_m_n_a.png,O,space,1436,2,1,2642.600000023842,706307.8000000119,7130,VNB,B,0
1,test,4,1.0,2-Back,1,m,Thu Apr 17 2025 17:17:28 GMT-0500 (Central Daylight Time),718180.9000000358,016_y_m_h_a.png,O,m,1399,3,1,2419.199999988079,715761.7000000477,7130,VNB,B,1
2,test,4,1.0,2-Back,1,m,Thu Apr 17 2025 17:17:28 GMT-0500 (Central Daylight Time),721196.4000000358,005_o_f_d_a.png,O,m,1970,4,1,2990.400000035763,718206.0,7130,VNB,B,2
3,test,4,0.0,2-Back,1,z,Thu Apr 17 2025 17:17:28 GMT-0500 (Central Daylight Time),723362.2000000477,004_o_m_h_a.png,O,z,1126,5,1,2140.100000023842,721222.1000000238,7130,VNB,B,3
4,test,4,0.0,2-Back,1,m,Thu Apr 17 2025 17:17:28 GMT-0500 (Central Daylight Time),726228.0,007_m_m_n_a.png,O,m,1824,6,1,2845.2999999523163,723382.7000000477,7130,VNB,B,4
5,test,4,0.0,2-Back,1,m,Thu Apr 17 2025 17:17:28 GMT-0500 (Central Daylight Time),728909.4000000358,011_m_f_d_a.png,O,m,1639,7,1,2658.100000023842,726251.3000000119,7130,VNB,B,5
6,test,4,0.0,2-Back,1,z,Thu Apr 17 2025 17:17:28 GMT-0500 (Central Daylight Time),731493.0,020_y_f_n_a.png,O,z,1549,8,1,2578.699999988079,728914.3000000119,7130,VNB,B,6
7,test,4,1.0,2-Back,1,m,Thu Apr 17 2025 17:17:28 GMT-0500 (Central Daylight Time),734092.1000000238,005_o_f_h_a.png,O,m,1558,9,1,2577.0,731515.1000000238,7130,VNB,B,7
8,test,4,0.0,2-Back,1,m,Thu Apr 17 2025 17:17:28 GMT-0500 (Central Daylight Time),737007.4000000358,007_m_m_h_a.png,O,m,1878,10,1,2887.5,734119.9000000358,7130,VNB,B,8
8,test,4,0.0,2-Back,0,m,Thu Apr 17 2025 17:17:28 GMT-0500 (Central Daylight Time),739507.0,020_y_f_d_a.png,O,z,1459,11,1,2474.399999976158,737032.6000000238,7130,VNB,B,9
8,test,4,0.0,2-Back,0,m,Thu Apr 17 2025 17:17:28 GMT-0500 (Central Daylight Time),742072.7000000477,016_y_m_n_a.png,O,z,1519,12,1,2539.300000011921,739533.4000000358,7130,VNB,B,10
8,test,4,0.0,2-Back,0,z,Thu Apr 17 2025 17:17:28 GMT-0500 (Central Daylight Time),744655.4000000358,004_o_m_d_a.png,O,m,1529,13,1,2545.199999988079,742110.2000000477,7130,VNB,B,11
8,test,4,1.0,2-Back,0,m,Thu Apr 17 2025 17:17:28 GMT-0500 (Central Daylight Time),747704.5,011_m_f_h_a.png,O,None,2015,14,1,3022.599999964237,744681.9000000358,7130,VNB,B,12
9,test,4,1.0,2-Back,1,m,Thu Apr 17 2025 17:17:28 GMT-0500 (Central Daylight Time),750153.5,020_y_f_h_a.png,O,m,1381,15,1,2418.0,747735.5,7130,VNB,B,13
9,test,4,0.0,2-Back,0,m,Thu Apr 17 2025 17:17:28 GMT-0500 (Central Daylight Time),752602.6000000238,005_o_f_n_a.png,O,z,1409,16,1,2423.699999988079,750178.9000000358,7130,VNB,B,14
10,test,4,0.0,2-Back,1,m,Thu Apr 17 2025 17:17:28 GMT-0500 (Central Daylight Time),755085.5,016_y_m_d_a.png,O,m,1446,17,1,2453.099999964237,752632.4000000358,7130,VNB,B,15
11,test,4,1.0,2-Back,1,m,Thu Apr 17 2025 17:17:28 GMT-0500 (Central Daylight Time),757333.3000000119,007_m_m_d_a.png,O,m,1205,18,1,2221.399999976158,755111.9000000358,7130,VNB,B,16
0,test,5,1.0,2-Back,,,Thu Apr 17 2025 17:17:28 GMT-0500 (Central Daylight Time),757333.3000000119,020_y_f_d_a.png,O,space,1285,1,1,2221.399999976158,755111.9000000358,7130,VNB,B,0
0,test,5,1.0,2-Back,,,Thu Apr 17 2025 17:17:28 GMT-0500 (Central Daylight Time),757333.3000000119,005_o_f_h_a.png,O,space,1285,2,1,2221.399999976158,755111.9000000358,7130,VNB,B,0
1,test,5,1.0,2-Back,1,z,Thu Apr 17 2025 17:17:28 GMT-0500 (Central Daylight Time),766464.7000000477,004_o_m_d_a.png,O,z,1478,3,1,2491.100000023842,763973.6000000238,7130,VNB,B,1
2,test,5,1.0,2-Back,1,m,Thu Apr 17 2025 17:17:28 GMT-0500 (Central Daylight Time),768797.4000000358,011_m_f_n_a.png,O,m,1282,4,1,2305.0,766492.4000000358,7130,VNB,B,2
2,test,5,0.0,2-Back,0,m,Thu Apr 17 2025 17:17:28 GMT-0500 (Central Daylight Time),771163.0,007_m_m_h_a.png,O,z,1309,5,1,2333.899999976158,768829.1000000238,7130,VNB,B,3
3,test,5,0.0,2-Back,1,z,Thu Apr 17 2025 17:17:28 GMT-0500 (Central Daylight Time),773846.3000000119,020_y_f_n_a.png,O,z,1631,6,1,2655.5,771190.8000000119,7130,VNB,B,4
4,test,5,0.0,2-Back,1,m,Thu Apr 17 2025 17:17:28 GMT-0500 (Central Daylight Time),776244.9000000358,005_o_f_d_a.png,O,m,1357,7,1,2372.800000011921,773872.1000000238,7130,VNB,B,5
4,test,5,0.0,2-Back,0,m,Thu Apr 17 2025 17:17:28 GMT-0500 (Central Daylight Time),779078.0,004_o_m_h_a.png,O,z,1798,8,1,2806.699999988079,776271.3000000119,7130,VNB,B,6
4,test,5,1.0,2-Back,0,z,Thu Apr 17 2025 17:17:28 GMT-0500 (Central Daylight Time),781910.3000000119,011_m_f_d_a.png,O,m,1780,9,1,2801.0,779109.3000000119,7130,VNB,B,7
5,test,5,0.0,2-Back,1,m,Thu Apr 17 2025 17:17:28 GMT-0500 (Central Daylight Time),784208.9000000358,016_y_m_n_a.png,O,m,1253,10,1,2274.600000023842,781934.3000000119,7130,VNB,B,8
5,test,5,0.0,2-Back,0,m,Thu Apr 17 2025 17:17:28 GMT-0500 (Central Daylight Time),786657.8000000119,007_m_m_n_a.png,O,z,1393,11,1,2419.0,784238.8000000119,7130,VNB,B,9
6,test,5,0.0,2-Back,1,m,Thu Apr 17 2025 17:17:28 GMT-0500 (Central Daylight Time),789390.5,020_y_f_h_a.png,O,m,1689,12,1,2706.099999964237,786684.4000000358,7130,VNB,B,10
7,test,5,0.0,2-Back,1,m,Thu Apr 17 2025 17:17:28 GMT-0500 (Central Daylight Time),791573.4000000358,016_y_m_d_a.png,O,m,1132,13,1,2158.699999988079,789414.7000000477,7130,VNB,B,11
8,test,5,1.0,2-Back,1,z,Thu Apr 17 2025 17:17:28 GMT-0500 (Central Daylight Time),794238.7000000477,011_m_f_h_a.png,O,z,1629,14,1,2637.100000023842,791601.6000000238,7130,VNB,B,12
8,test,5,0.0,2-Back,0,m,Thu Apr 17 2025 17:17:28 GMT-0500 (Central Daylight Time),797304.8000000119,004_o_m_n_a.png,O,None,2014,15,1,3036.0,794268.8000000119,7130,VNB,B,13
9,test,5,0.0,2-Back,1,m,Thu Apr 17 2025 17:17:28 GMT-0500 (Central Daylight Time),799837.1000000238,007_m_m_d_a.png,O,m,1490,16,1,2505.199999988079,797331.9000000358,7130,VNB,B,14
10,test,5,0.0,2-Back,1,z,Thu Apr 17 2025 17:17:28 GMT-0500 (Central Daylight Time),802119.7000000477,005_o_f_n_a.png,O,z,1237,17,1,2258.7000000476837,799861.0,7130,VNB,B,15
11,test,5,1.0,2-Back,1,m,Thu Apr 17 2025 17:17:28 GMT-0500 (Central Daylight Time),804769.0,016_y_m_h_a.png,O,m,1603,18,1,2621.399999976158,802147.6000000238,7130,VNB,B,16
