acc_sum,block,block_c,condition,correct,correct_response,datetime,endtime,flanker,jitter,project,response,response_test_buffer_response,response_test_target_response,response_time,response_time_test_buffer_response,response_time_test_target_response,row_sel,session_number,start_end,starttime,subject_id,target,task,task_vers,time_test_buffer,time_test_buffer_response,time_test_constants,time_test_flanker,time_test_jitter,time_test_logger,time_test_target,time_test_target_response,time_test_variables,trial
1,prac,1,inc,1,m,Thu Feb 20 2025 13:03:41 GMT-0600 (Central Standard Time),148583.90000003576,cherry,900,I,m,,,592,,,10,1,2789.600000023842,145794.30000001192,7067,copper,NF,C,,,,,,,,,,1
2,prac,1,inc,1,z,Thu Feb 20 2025 13:03:41 GMT-0600 (Central Standard Time),151549.5,cobalt,1100,I,z,,,537,,,4,1,2938.099999964237,148611.40000003576,7067,raisin,NF,C,,,,,,,,,,2
3,prac,1,con,1,z,Thu Feb 20 2025 13:03:41 GMT-0600 (Central Standard Time),154481.40000003576,orange,1000,I,z,,,607,,,3,1,2906.100000023842,151575.30000001192,7067,orange,NF,C,,,,,,,,,,3
4,prac,1,inc,1,m,Thu Feb 20 2025 13:03:41 GMT-0600 (Central Standard Time),157330.60000002384,plum,1100,I,m,,,430,,,16,1,2822.899999976158,154507.70000004768,7067,lead,NF,C,,,,,,,,,,4
5,prac,1,con,1,z,Thu Feb 20 2025 13:03:41 GMT-0600 (Central Standard Time),160179.5,kiwi,1000,I,z,,,522,,,7,1,2822.599999964237,157356.90000003576,7067,kiwi,NF,C,,,,,,,,,,5
6,prac,1,con,1,z,Thu Feb 20 2025 13:03:41 GMT-0600 (Central Standard Time),162745.30000001192,banana,800,I,z,,,432,,,1,1,2546.300000011921,160199.0,7067,banana,NF,C,,,,,,,,,,6
7,prac,1,inc,1,z,Thu Feb 20 2025 13:03:41 GMT-0600 (Central Standard Time),165394.5,iron,900,I,z,,,415,,,6,1,2623.699999988079,162770.80000001192,7067,pear,NF,C,,,,,,,,,,7
8,prac,1,inc,1,z,Thu Feb 20 2025 13:03:41 GMT-0600 (Central Standard Time),168393.40000003576,lead,1100,I,z,,,566,,,8,1,2976.800000011921,165416.60000002384,7067,plum,NF,C,,,,,,,,,,8
9,prac,1,con,1,z,Thu Feb 20 2025 13:03:41 GMT-0600 (Central Standard Time),170976.20000004768,lime,800,I,z,,,459,,,5,1,2560.600000023842,168415.60000002384,7067,lime,NF,C,,,,,,,,,,9
10,prac,1,con,1,m,Thu Feb 20 2025 13:03:41 GMT-0600 (Central Standard Time),173525.10000002384,bronze,800,I,m,,,428,,,9,1,2527.0,170998.10000002384,7067,bronze,NF,C,,,,,,,,,,10
11,prac,1,con,1,m,Thu Feb 20 2025 13:03:41 GMT-0600 (Central Standard Time),176257.60000002384,zinc,1000,I,m,,,399,,,15,1,2709.399999976158,173548.20000004768,7067,zinc,NF,C,,,,,,,,,,11
11,prac,1,inc,0,m,Thu Feb 20 2025 13:03:41 GMT-0600 (Central Standard Time),179306.70000004768,raisin,1100,I,z,,,616,,,12,1,3027.600000023842,176279.10000002384,7067,cobalt,NF,C,,,,,,,,,,12
12,prac,1,inc,1,z,Thu Feb 20 2025 13:03:41 GMT-0600 (Central Standard Time),182288.90000003576,copper,900,I,z,,,750,,,2,1,2958.600000023842,179330.30000001192,7067,cherry,NF,C,,,,,,,,,,13
13,prac,1,con,1,m,Thu Feb 20 2025 13:03:41 GMT-0600 (Central Standard Time),184888.10000002384,gold,800,I,m,,,467,,,13,1,2579.399999976158,182308.70000004768,7067,gold,NF,C,,,,,,,,,,14
14,prac,1,con,1,m,Thu Feb 20 2025 13:03:41 GMT-0600 (Central Standard Time),187704.0,silver,1000,I,m,,,492,,,11,1,2791.599999964237,184912.40000003576,7067,silver,NF,C,,,,,,,,,,15
15,prac,1,inc,1,m,Thu Feb 20 2025 13:03:41 GMT-0600 (Central Standard Time),190603.0,pear,900,I,m,,,672,,,14,1,2875.199999988079,187727.80000001192,7067,iron,NF,C,,,,,,,,,,16
1,test,1,con,1,m,Thu Feb 20 2025 13:03:41 GMT-0600 (Central Standard Time),212279.60000002384,bronze,1100,I,m,m,None,453,254.0,199.0,68,1,2094.199999988079,210185.40000003576,7067,bronze,NF,C,203378,203378,201549,202662,201551,203644,203177,203177,203643,1
2,test,1,con,1,z,Thu Feb 20 2025 13:03:41 GMT-0600 (Central Standard Time),214195.80000001192,banana,1000,I,z,z,None,357,142.0,215.0,3,1,1890.199999988079,212305.60000002384,7067,banana,NF,C,205410,205410,203670,204677,203671,205560,205194,205194,205560,2
3,test,1,con,1,z,Thu Feb 20 2025 13:03:41 GMT-0600 (Central Standard Time),215961.5,lime,800,I,z,z,None,402,203.0,199.0,33,1,1741.5999999642372,214219.90000003576,7067,lime,NF,C,207109,207109,205584,206393,205586,207326,206909,206910,207326,3
4,test,1,inc,1,z,Thu Feb 20 2025 13:03:41 GMT-0600 (Central Standard Time),218044.0,copper,900,I,z,z,None,616,417.0,199.0,14,1,2060.0,215984.0,7067,cherry,NF,C,208975,208975,207348,208259,207350,209408,208776,208776,209408,4
5,test,1,con,1,m,Thu Feb 20 2025 13:03:41 GMT-0600 (Central Standard Time),219860.10000002384,cobalt,900,I,m,m,None,348,133.0,215.0,90,1,1794.5,218065.60000002384,7067,cobalt,NF,C,211075,211075,209430,210342,209431,211224,210859,210859,211224,5
6,test,1,inc,1,z,Thu Feb 20 2025 13:03:41 GMT-0600 (Central Standard Time),222059.0,cobalt,1100,I,z,z,None,532,317.0,215.0,8,1,2175.199999988079,219883.80000001192,7067,banana,NF,C,213091,213091,211248,212358,211250,213423,212875,212875,213423,6
6,test,1,inc,0,z,Thu Feb 20 2025 13:03:41 GMT-0600 (Central Standard Time),223925.0,copper,900,I,m,m,None,405,190.0,215.0,6,1,1843.2999999523163,222081.70000004768,7067,banana,NF,C,215090,215090,213446,214357,213448,215289,214874,214874,215289,7
7,test,1,inc,1,m,Thu Feb 20 2025 13:03:41 GMT-0600 (Central Standard Time),226157.70000004768,cherry,900,I,m,m,None,779,580.0,199.0,70,1,2211.5,223946.20000004768,7067,bronze,NF,C,216940,216940,215310,216223,215311,217522,216740,216740,217522,8
8,test,1,con,1,z,Thu Feb 20 2025 13:03:41 GMT-0600 (Central Standard Time),228290.80000001192,raisin,1100,I,z,z,None,467,268.0,199.0,28,1,2117.800000011921,226173.0,7067,raisin,NF,C,219372,219372,217537,218656,217539,219655,219173,219173,219655,9
8,test,1,con,0,m,Thu Feb 20 2025 13:03:41 GMT-0600 (Central Standard Time),230306.70000004768,bronze,800,I,z,z,None,656,442.0,214.0,65,1,1991.2000000476837,228315.5,7067,bronze,NF,C,221221,221222,219680,220489,219681,221671,221006,221006,221671,10
9,test,1,inc,1,z,Thu Feb 20 2025 13:03:41 GMT-0600 (Central Standard Time),232472.90000003576,gold,800,I,z,z,None,803,604.0,199.0,53,1,2141.800000011921,230331.10000002384,7067,kiwi,NF,C,223221,223221,221695,222505,221697,223837,223021,223021,223837,11
10,test,1,con,1,m,Thu Feb 20 2025 13:03:41 GMT-0600 (Central Standard Time),234773.0,bronze,1000,I,m,m,None,748,549.0,199.0,67,1,2277.699999988079,232495.30000001192,7067,bronze,NF,C,225587,225587,223859,224870,223860,226137,225387,225387,226137,12
11,test,1,con,1,m,Thu Feb 20 2025 13:03:41 GMT-0600 (Central Standard Time),236771.10000002384,iron,1000,I,m,m,None,441,242.0,199.0,107,1,1976.199999988079,234794.90000003576,7067,iron,NF,C,227886,227886,226159,227170,226161,228135,227686,227686,228135,13
12,test,1,con,1,m,Thu Feb 20 2025 13:03:41 GMT-0600 (Central Standard Time),239036.80000001192,cobalt,1100,I,m,m,None,605,390.0,215.0,92,1,2240.599999964237,236796.20000004768,7067,cobalt,NF,C,230002,230002,228160,229269,228162,230401,229786,229786,230401,14
13,test,1,inc,1,m,Thu Feb 20 2025 13:03:41 GMT-0600 (Central Standard Time),241202.80000001192,banana,800,I,m,m,None,799,600.0,199.0,69,1,2144.5,239058.30000001192,7067,bronze,NF,C,231951,231952,230422,231235,230424,232567,231752,231752,232567,15
14,test,1,inc,1,z,Thu Feb 20 2025 13:03:41 GMT-0600 (Central Standard Time),243251.5,gold,800,I,z,z,None,691,491.0,200.0,45,1,2025.0999999642372,241226.40000003576,7067,pear,NF,C,234116,234116,232590,233400,232591,234616,233916,233916,234616,16
15,test,1,con,1,z,Thu Feb 20 2025 13:03:41 GMT-0600 (Central Standard Time),245784.90000003576,pear,1100,I,z,z,None,885,686.0,199.0,44,1,2527.800000011921,243257.10000002384,7067,pear,NF,C,236450,236450,234621,235734,234622,237149,236250,236250,237149,17
16,test,1,inc,1,z,Thu Feb 20 2025 13:03:41 GMT-0600 (Central Standard Time),248084.5,silver,1000,I,z,z,None,748,549.0,199.0,7,1,2276.399999976158,245808.10000002384,7067,banana,NF,C,238899,238899,237172,238183,237174,239449,238699,238699,239449,18
17,test,1,con,1,z,Thu Feb 20 2025 13:03:41 GMT-0600 (Central Standard Time),250367.20000004768,banana,900,I,z,z,None,820,605.0,215.0,2,1,2261.100000023842,248106.10000002384,7067,banana,NF,C,241115,241115,239470,240382,239473,241731,240899,240899,241731,19
18,test,1,inc,1,m,Thu Feb 20 2025 13:03:41 GMT-0600 (Central Standard Time),252532.5,orange,1000,I,m,m,None,606,407.0,199.0,71,1,2142.099999964237,250390.40000003576,7067,bronze,NF,C,243481,243481,241754,242765,241756,243897,243281,243281,243896,20
19,test,1,con,1,m,Thu Feb 20 2025 13:03:41 GMT-0600 (Central Standard Time),255148.20000004768,gold,1100,I,m,m,None,949,750.0,199.0,100,1,2591.900000035763,252556.30000001192,7067,gold,NF,C,245747,245747,243920,245030,243923,246512,245547,245547,246512,21
20,test,1,con,1,z,Thu Feb 20 2025 13:03:41 GMT-0600 (Central Standard Time),257431.0,kiwi,1100,I,z,z,None,628,413.0,215.0,52,1,2254.599999964237,255176.40000003576,7067,kiwi,NF,C,248379,248379,246540,247647,246541,248795,248163,248163,248795,22
21,test,1,inc,1,m,Thu Feb 20 2025 13:03:41 GMT-0600 (Central Standard Time),259596.30000001192,cherry,900,I,m,m,None,705,489.0,216.0,86,1,2143.599999964237,257452.70000004768,7067,silver,NF,C,250463,250463,248817,249729,248819,250960,250246,250246,250960,23
22,test,1,con,1,m,Thu Feb 20 2025 13:03:41 GMT-0600 (Central Standard Time),261446.60000002384,silver,900,I,m,m,None,405,206.0,199.0,82,1,1838.300000011921,259608.30000001192,7067,silver,NF,C,252594,252594,250972,251878,250973,252811,252395,252395,252811,24
23,test,1,inc,1,m,Thu Feb 20 2025 13:03:41 GMT-0600 (Central Standard Time),263778.60000002384,plum,1100,I,m,m,None,674,475.0,199.0,104,1,2309.800000011921,261468.80000001192,7067,gold,NF,C,254660,254661,252833,253943,252834,255143,254461,254461,255143,25
24,test,1,con,1,m,Thu Feb 20 2025 13:03:41 GMT-0600 (Central Standard Time),265928.10000002384,gold,1000,I,m,m,None,594,379.0,215.0,99,1,2133.300000011921,263794.8000000119,7067,gold,NF,C,256909,256910,255159,256177,255160,257292,256694,256694,257292,26
25,test,1,inc,1,z,Thu Feb 20 2025 13:03:41 GMT-0600 (Central Standard Time),268010.8000000119,iron,900,I,z,z,None,624,409.0,215.0,46,1,2063.099999964237,265947.7000000477,7067,pear,NF,C,258959,258959,257312,258226,257313,259375,258742,258743,259375,27
26,test,1,inc,1,m,Thu Feb 20 2025 13:03:41 GMT-0600 (Central Standard Time),270093.60000002384,pear,900,I,m,m,None,630,431.0,199.0,126,1,2061.0,268032.60000002384,7067,lead,NF,C,261025,261025,259397,260309,259398,261458,260825,260825,261458,28
27,test,1,con,1,z,Thu Feb 20 2025 13:03:41 GMT-0600 (Central Standard Time),272442.2000000477,kiwi,1000,I,z,z,None,799,584.0,215.0,51,1,2335.300000011921,270106.90000003576,7067,kiwi,NF,C,263208,263208,261471,262475,261472,263806,262992,262992,263806,29
28,test,1,con,1,m,Thu Feb 20 2025 13:03:41 GMT-0600 (Central Standard Time),274208.7000000477,gold,800,I,m,m,None,419,204.0,215.0,97,1,1753.0,272455.7000000477,7067,gold,NF,C,265357,265357,263820,264624,263821,265573,265141,265141,265573,30
29,test,1,inc,1,z,Thu Feb 20 2025 13:03:41 GMT-0600 (Central Standard Time),276324.7000000477,zinc,1000,I,z,z,None,556,357.0,199.0,63,1,2094.800000011921,274229.90000003576,7067,plum,NF,C,267323,267323,265594,266606,265596,267689,267123,267123,267689,31
30,test,1,inc,1,z,Thu Feb 20 2025 13:03:41 GMT-0600 (Central Standard Time),278507.2000000477,gold,800,I,z,z,None,824,625.0,199.0,61,1,2161.800000011921,276345.40000003576,7067,plum,NF,C,269239,269239,267709,268523,267711,269871,269039,269039,269871,32
31,test,1,con,1,z,Thu Feb 20 2025 13:03:41 GMT-0600 (Central Standard Time),280557.10000002384,orange,800,I,z,z,None,698,499.0,199.0,17,1,2026.6000000238419,278530.5,7067,orange,NF,C,271422,271422,269895,270705,269896,271921,271222,271222,271921,33
32,test,1,con,1,m,Thu Feb 20 2025 13:03:41 GMT-0600 (Central Standard Time),282889.0,lead,1000,I,m,m,None,776,577.0,199.0,123,1,2311.599999964237,280577.40000003576,7067,lead,NF,C,273671,273671,271941,272955,271943,274253,273471,273471,274253,34
33,test,1,inc,1,m,Thu Feb 20 2025 13:03:41 GMT-0600 (Central Standard Time),285255.0,plum,1100,I,m,m,None,702,487.0,215.0,112,1,2350.2999999523163,282904.7000000477,7067,iron,NF,C,276121,276121,274269,275387,274270,276619,275904,275904,276619,35
34,test,1,con,1,z,Thu Feb 20 2025 13:03:41 GMT-0600 (Central Standard Time),287271.0,cherry,800,I,z,z,None,655,456.0,199.0,9,1,1994.3999999761581,285276.60000002384,7067,cherry,NF,C,278169,278169,276641,277453,276643,278635,277970,277970,278635,36
35,test,1,con,1,z,Thu Feb 20 2025 13:03:41 GMT-0600 (Central Standard Time),289421.2000000477,orange,1000,I,z,z,None,597,398.0,199.0,19,1,2129.7000000476837,287291.5,7067,orange,NF,C,280385,280386,278656,279669,278658,280785,280186,280186,280785,37
36,test,1,con,1,m,Thu Feb 20 2025 13:03:41 GMT-0600 (Central Standard Time),291437.0,cobalt,1000,I,m,m,None,466,267.0,199.0,91,1,1997.0999999642372,289439.90000003576,7067,cobalt,NF,C,282534,282534,280804,281818,280805,282801,282335,282335,282801,38
36,test,1,inc,0,m,Thu Feb 20 2025 13:03:41 GMT-0600 (Central Standard Time),293602.3000000119,lime,800,I,z,z,None,800,601.0,199.0,101,1,2148.599999964237,291453.7000000477,7067,gold,NF,C,284350,284351,282818,283634,282819,284966,284151,284151,284966,39
37,test,1,con,1,m,Thu Feb 20 2025 13:03:41 GMT-0600 (Central Standard Time),295351.8000000119,zinc,800,I,m,m,None,386,187.0,199.0,113,1,1724.800000011921,293627.0,7067,zinc,NF,C,286517,286517,284991,285800,284993,286716,286317,286317,286716,40
38,test,1,inc,1,m,Thu Feb 20 2025 13:03:41 GMT-0600 (Central Standard Time),297484.60000002384,lime,800,I,m,m,None,774,575.0,199.0,109,1,2112.0,295372.60000002384,7067,iron,NF,C,288266,288266,286737,287550,286738,288849,288066,288066,288849,41
39,test,1,inc,1,m,Thu Feb 20 2025 13:03:41 GMT-0600 (Central Standard Time),299933.40000003576,raisin,1100,I,m,m,None,796,597.0,199.0,96,1,2427.800000011921,297505.60000002384,7067,cobalt,NF,C,290699,290699,288870,289982,288871,291297,290499,290499,291297,42
40,test,1,inc,1,z,Thu Feb 20 2025 13:03:41 GMT-0600 (Central Standard Time),302349.2000000477,silver,1000,I,z,z,None,863,664.0,199.0,15,1,2393.100000023842,299956.10000002384,7067,cherry,NF,C,293048,293048,291320,292332,291322,293713,292848,292848,293713,43
41,test,1,inc,1,z,Thu Feb 20 2025 13:03:41 GMT-0600 (Central Standard Time),304482.5,iron,900,I,z,z,None,675,476.0,199.0,54,1,2115.0,302367.5,7067,kiwi,NF,C,295364,295364,293732,294647,293732,295847,295164,295164,295846,44
42,test,1,inc,1,z,Thu Feb 20 2025 13:03:41 GMT-0600 (Central Standard Time),307048.2000000477,lead,1100,I,z,z,None,912,712.0,200.0,40,1,2544.800000011921,304503.40000003576,7067,lime,NF,C,297696,297696,295867,296980,295869,298412,297496,297496,298412,45
43,test,1,con,1,m,Thu Feb 20 2025 13:03:41 GMT-0600 (Central Standard Time),309197.2000000477,lead,1100,I,m,m,None,490,291.0,199.0,124,1,2128.900000035763,307068.3000000119,7067,lead,NF,C,300262,300262,298432,299546,298434,300562,300062,300062,300561,46
44,test,1,inc,1,z,Thu Feb 20 2025 13:03:41 GMT-0600 (Central Standard Time),311346.2000000477,zinc,1000,I,z,z,None,583,384.0,199.0,47,1,2126.0,309220.2000000477,7067,pear,NF,C,302312,302312,300584,301596,300586,302710,302112,302112,302710,47
45,test,1,inc,1,z,Thu Feb 20 2025 13:03:41 GMT-0600 (Central Standard Time),313462.40000003576,bronze,800,I,z,z,None,778,563.0,215.0,21,1,2102.800000011921,311359.60000002384,7067,orange,NF,C,304261,304261,302724,303528,302725,304827,304045,304045,304826,48
46,test,1,inc,1,z,Thu Feb 20 2025 13:03:41 GMT-0600 (Central Standard Time),315895.10000002384,cobalt,1100,I,z,z,None,779,579.0,200.0,32,1,2412.600000023842,313482.5,7067,raisin,NF,C,306677,306677,304847,305960,304848,307259,306476,306476,307259,49
47,test,1,inc,1,z,Thu Feb 20 2025 13:03:41 GMT-0600 (Central Standard Time),318227.0,zinc,1000,I,z,z,None,781,582.0,199.0,39,1,2312.2999999523163,315914.7000000477,7067,lime,NF,C,309009,309009,307279,308293,307280,309591,308809,308809,309591,50
48,test,1,con,1,m,Thu Feb 20 2025 13:03:41 GMT-0600 (Central Standard Time),320310.2000000477,silver,800,I,m,m,None,737,522.0,215.0,81,1,2077.600000023842,318232.60000002384,7067,silver,NF,C,311142,311142,309597,310408,309597,311674,310926,310926,311674,51
49,test,1,con,1,z,Thu Feb 20 2025 13:03:41 GMT-0600 (Central Standard Time),322192.90000003576,kiwi,900,I,z,z,None,427,228.0,199.0,50,1,1863.1000000238419,320329.8000000119,7067,kiwi,NF,C,313324,313324,311694,312608,311695,313557,313125,313125,313557,52
50,test,1,con,1,z,Thu Feb 20 2025 13:03:41 GMT-0600 (Central Standard Time),324075.8000000119,cherry,900,I,z,z,None,423,208.0,215.0,10,1,1862.3999999761581,322213.40000003576,7067,cherry,NF,C,315224,315224,313577,314490,313579,315440,315008,315008,315440,53
51,test,1,con,1,z,Thu Feb 20 2025 13:03:41 GMT-0600 (Central Standard Time),326058.3000000119,plum,1000,I,z,z,None,417,218.0,199.0,59,1,1962.199999988079,324096.10000002384,7067,plum,NF,C,317190,317190,315460,316474,315462,317422,316990,316990,317422,54
52,test,1,inc,1,m,Thu Feb 20 2025 13:03:41 GMT-0600 (Central Standard Time),328125.10000002384,orange,1000,I,m,m,None,514,315.0,199.0,95,1,2044.3999999761581,326080.7000000477,7067,cobalt,NF,C,319173,319173,317445,318456,317446,319489,318973,318973,319489,55
53,test,1,inc,1,m,Thu Feb 20 2025 13:03:41 GMT-0600 (Central Standard Time),330390.60000002384,kiwi,1000,I,m,m,None,705,506.0,199.0,111,1,2244.5,328146.10000002384,7067,iron,NF,C,321239,321239,319510,320522,319512,321755,321039,321039,321755,56
54,test,1,inc,1,z,Thu Feb 20 2025 13:03:41 GMT-0600 (Central Standard Time),332572.90000003576,silver,1000,I,z,z,None,622,423.0,199.0,31,1,2161.800000011921,330411.10000002384,7067,raisin,NF,C,323504,323505,321775,322788,321777,323937,323305,323305,323937,57
54,test,1,inc,0,z,Thu Feb 20 2025 13:03:41 GMT-0600 (Central Standard Time),334938.3000000119,bronze,800,I,m,m,None,1008,809.0,199.0,5,1,2344.199999988079,332594.10000002384,7067,banana,NF,C,325486,325486,323958,324771,323960,326302,325287,325287,326302,58
55,test,1,inc,1,m,Thu Feb 20 2025 13:03:41 GMT-0600 (Central Standard Time),337137.3000000119,orange,1000,I,m,m,None,652,452.0,200.0,87,1,2192.5,334944.8000000119,7067,silver,NF,C,328035,328035,326309,327319,326309,328501,327835,327835,328501,59
56,test,1,inc,1,m,Thu Feb 20 2025 13:03:41 GMT-0600 (Central Standard Time),339570.7000000477,plum,1100,I,m,m,None,791,592.0,199.0,128,1,2427.900000035763,337142.8000000119,7067,lead,NF,C,330336,330336,328507,329620,328508,330935,330136,330136,330935,60
57,test,1,inc,1,z,Thu Feb 20 2025 13:03:41 GMT-0600 (Central Standard Time),341653.3000000119,bronze,800,I,z,z,None,723,524.0,199.0,29,1,2061.699999988079,339591.60000002384,7067,raisin,NF,C,332485,332485,330956,331769,330957,333017,332285,332285,333017,61
58,test,1,inc,1,z,Thu Feb 20 2025 13:03:41 GMT-0600 (Central Standard Time),344268.90000003576,silver,1000,I,z,z,None,1056,857.0,199.0,23,1,2593.0,341675.90000003576,7067,orange,NF,C,334767,334767,333040,334051,333042,335633,334568,334568,335633,62
59,test,1,con,1,z,Thu Feb 20 2025 13:03:41 GMT-0600 (Central Standard Time),346085.3000000119,raisin,800,I,z,z,None,481,282.0,199.0,25,1,1803.8999999761581,344281.40000003576,7067,raisin,NF,C,337167,337167,335645,336451,335646,337449,336967,336967,337449,63
60,test,1,con,1,z,Thu Feb 20 2025 13:03:41 GMT-0600 (Central Standard Time),348017.8000000119,raisin,900,I,z,z,None,477,277.0,200.0,26,1,1912.5999999642372,346105.2000000477,7067,raisin,NF,C,339099,339099,337469,338383,337470,339382,338899,338899,339382,64
60,test,1,inc,0,z,Thu Feb 20 2025 13:03:41 GMT-0600 (Central Standard Time),350283.90000003576,lead,1100,I,m,m,None,608,409.0,199.0,64,1,2244.0,348039.90000003576,7067,plum,NF,C,341232,341232,339404,340516,339406,341648,341032,341032,341648,65
61,test,1,con,1,z,Thu Feb 20 2025 13:03:41 GMT-0600 (Central Standard Time),352766.2000000477,lime,1000,I,z,z,None,922,723.0,199.0,35,1,2460.900000035763,350305.3000000119,7067,lime,NF,C,343398,343398,341669,342682,341670,344130,343198,343198,344130,66
62,test,1,con,1,m,Thu Feb 20 2025 13:03:41 GMT-0600 (Central Standard Time),354999.10000002384,iron,900,I,m,m,None,778,579.0,199.0,106,1,2212.100000023842,352787.0,7067,iron,NF,C,345781,345781,344151,345064,344153,346363,345581,345581,346363,67
63,test,1,inc,1,m,Thu Feb 20 2025 13:03:41 GMT-0600 (Central Standard Time),357348.5,kiwi,1000,I,m,m,None,789,574.0,215.0,103,1,2330.5,355018.0,7067,gold,NF,C,348130,348130,346382,347397,346383,348713,347914,347914,348713,68
64,test,1,con,1,m,Thu Feb 20 2025 13:03:41 GMT-0600 (Central Standard Time),359130.8000000119,cobalt,800,I,m,m,None,425,210.0,215.0,89,1,1760.800000011921,357370.0,7067,cobalt,NF,C,350279,350279,348734,349546,348736,350495,350063,350063,350495,69
65,test,1,con,1,z,Thu Feb 20 2025 13:03:41 GMT-0600 (Central Standard Time),361597.10000002384,plum,1100,I,z,z,None,799,600.0,199.0,60,1,2443.899999976158,359153.2000000477,7067,plum,NF,C,352345,352345,350517,351628,350519,352961,352145,352145,352961,70
66,test,1,con,1,z,Thu Feb 20 2025 13:03:41 GMT-0600 (Central Standard Time),364012.7000000477,raisin,1000,I,z,z,None,856,641.0,215.0,27,1,2396.400000035763,361616.3000000119,7067,raisin,NF,C,354728,354728,352980,353995,352981,355377,354512,354512,355377,71
67,test,1,inc,1,z,Thu Feb 20 2025 13:03:41 GMT-0600 (Central Standard Time),366195.0,cobalt,1100,I,z,z,None,516,317.0,199.0,16,1,2160.099999964237,364034.90000003576,7067,cherry,NF,C,357226,357227,355399,356510,355400,357559,357026,357027,357559,72
68,test,1,con,1,z,Thu Feb 20 2025 13:03:41 GMT-0600 (Central Standard Time),368794.3000000119,lime,1100,I,z,z,None,941,726.0,215.0,36,1,2577.599999964237,366216.7000000477,7067,lime,NF,C,359426,359426,357581,358693,357582,360158,359210,359210,360158,73
69,test,1,con,1,m,Thu Feb 20 2025 13:03:41 GMT-0600 (Central Standard Time),370810.40000003576,copper,1000,I,m,m,None,458,259.0,199.0,75,1,1995.6000000238419,368814.8000000119,7067,copper,NF,C,361908,361909,360179,361192,360180,362175,361709,361709,362174,74
70,test,1,con,1,m,Thu Feb 20 2025 13:03:41 GMT-0600 (Central Standard Time),372892.90000003576,iron,1100,I,m,m,None,424,224.0,200.0,108,1,2065.0,370827.90000003576,7067,iron,NF,C,364024,364024,362192,363308,362193,364257,363824,363824,364257,75
71,test,1,inc,1,z,Thu Feb 20 2025 13:03:41 GMT-0600 (Central Standard Time),375225.90000003576,cobalt,1100,I,z,z,None,676,461.0,215.0,24,1,2311.600000023842,372914.3000000119,7067,orange,NF,C,366124,366124,364278,365391,364280,366590,365907,365908,366590,76
72,test,1,con,1,z,Thu Feb 20 2025 13:03:41 GMT-0600 (Central Standard Time),376991.5,kiwi,800,I,z,z,None,412,213.0,199.0,49,1,1744.699999988079,375246.8000000119,7067,kiwi,NF,C,368140,368140,366611,367424,366612,368356,367940,367940,368356,77
73,test,1,inc,1,z,Thu Feb 20 2025 13:03:41 GMT-0600 (Central Standard Time),379257.7000000477,iron,900,I,z,z,None,802,602.0,200.0,62,1,2245.0,377012.7000000477,7067,plum,NF,C,370006,370006,368377,369290,368378,370622,369805,369805,370622,78
74,test,1,con,1,z,Thu Feb 20 2025 13:03:41 GMT-0600 (Central Standard Time),381540.0,pear,1000,I,z,z,None,723,524.0,199.0,43,1,2259.699999988079,379280.3000000119,7067,pear,NF,C,372372,372372,370644,371655,370646,372904,372172,372172,372904,79
75,test,1,con,1,z,Thu Feb 20 2025 13:03:41 GMT-0600 (Central Standard Time),383422.3000000119,orange,900,I,z,z,None,427,228.0,199.0,18,1,1860.5,381561.8000000119,7067,orange,NF,C,374554,374555,372926,373838,372927,374786,374355,374355,374786,80
76,test,1,con,1,m,Thu Feb 20 2025 13:03:41 GMT-0600 (Central Standard Time),385488.8000000119,lead,800,I,m,m,None,728,529.0,199.0,121,1,2060.899999976158,383427.90000003576,7067,lead,NF,C,376320,376320,374792,375604,374792,376853,376121,376121,376853,81
77,test,1,inc,1,m,Thu Feb 20 2025 13:03:41 GMT-0600 (Central Standard Time),387605.3000000119,pear,900,I,m,m,None,648,433.0,215.0,110,1,2096.800000011921,385508.5,7067,iron,NF,C,378520,378520,376873,377787,376874,378969,378304,378304,378969,82
78,test,1,con,1,z,Thu Feb 20 2025 13:03:41 GMT-0600 (Central Standard Time),389320.7000000477,pear,800,I,z,z,None,351,136.0,215.0,41,1,1694.7000000476837,387626.0,7067,pear,NF,C,380536,380536,378990,379803,378991,380685,380319,380320,380685,83
79,test,1,con,1,m,Thu Feb 20 2025 13:03:41 GMT-0600 (Central Standard Time),391237.90000003576,zinc,900,I,m,m,None,482,283.0,199.0,114,1,1905.199999988079,389332.7000000477,7067,zinc,NF,C,382318,382318,380697,381602,380698,382602,382119,382119,382602,84
80,test,1,inc,1,z,Thu Feb 20 2025 13:03:41 GMT-0600 (Central Standard Time),393519.5,iron,900,I,z,z,None,819,604.0,215.0,38,1,2261.7999999523163,391257.7000000477,7067,lime,NF,C,384268,384268,382622,383535,382622,384884,384052,384052,384884,85
81,test,1,con,1,m,Thu Feb 20 2025 13:03:41 GMT-0600 (Central Standard Time),395318.90000003576,copper,900,I,m,m,None,336,121.0,215.0,74,1,1780.9000000357628,393538.0,7067,copper,NF,C,386551,386551,384902,385818,384903,386683,386335,386335,386683,86
81,test,1,con,0,m,Thu Feb 20 2025 13:03:41 GMT-0600 (Central Standard Time),397568.2000000477,lead,900,I,z,z,None,794,579.0,215.0,122,1,2229.0,395339.2000000477,7067,lead,NF,C,388350,388350,386703,387617,386704,388932,388134,388134,388932,87
82,test,1,con,1,m,Thu Feb 20 2025 13:03:41 GMT-0600 (Central Standard Time),399684.3000000119,silver,1100,I,m,m,None,448,233.0,215.0,84,1,2095.599999964237,397588.7000000477,7067,silver,NF,C,390799,390799,388953,390066,388954,391048,390583,390583,391048,88
83,test,1,con,1,z,Thu Feb 20 2025 13:03:41 GMT-0600 (Central Standard Time),401867.0,lime,900,I,z,z,None,726,527.0,199.0,34,1,2161.399999976158,399705.60000002384,7067,lime,NF,C,392698,392698,391070,391982,391071,393231,392499,392499,393231,89
84,test,1,con,1,m,Thu Feb 20 2025 13:03:41 GMT-0600 (Central Standard Time),403717.2000000477,gold,900,I,m,m,None,398,183.0,215.0,98,1,1829.5,401887.7000000477,7067,gold,NF,C,394897,394898,393252,394165,393253,395081,394682,394682,395081,90
85,test,1,inc,1,m,Thu Feb 20 2025 13:03:41 GMT-0600 (Central Standard Time),405998.8000000119,pear,900,I,m,m,None,828,629.0,199.0,118,1,2262.300000011921,403736.5,7067,zinc,NF,C,396731,396731,395100,396014,395101,397363,396531,396531,397363,91
86,test,1,con,1,m,Thu Feb 20 2025 13:03:41 GMT-0600 (Central Standard Time),408115.0,zinc,1100,I,m,m,None,451,236.0,215.0,116,1,2095.0,406020.0,7067,zinc,NF,C,399229,399229,397384,398497,397386,399479,399014,399014,399479,92
87,test,1,inc,1,m,Thu Feb 20 2025 13:03:41 GMT-0600 (Central Standard Time),410597.60000002384,raisin,1100,I,m,m,None,830,615.0,215.0,80,1,2460.399999976158,408137.2000000477,7067,copper,NF,C,401346,401346,399501,400613,399503,401962,401130,401130,401962,93
88,test,1,con,1,m,Thu Feb 20 2025 13:03:41 GMT-0600 (Central Standard Time),412380.10000002384,bronze,900,I,m,m,None,318,118.0,200.0,66,1,1760.800000011921,410619.3000000119,7067,bronze,NF,C,403611,403611,401983,402895,401985,403744,403411,403411,403744,94
89,test,1,con,1,z,Thu Feb 20 2025 13:03:41 GMT-0600 (Central Standard Time),414329.60000002384,banana,800,I,z,z,None,593,394.0,199.0,1,1,1929.6000000238419,412400.0,7067,banana,NF,C,405295,405295,403764,404578,403766,405694,405095,405095,405694,95
90,test,1,inc,1,z,Thu Feb 20 2025 13:03:41 GMT-0600 (Central Standard Time),416612.0,lead,1100,I,z,z,None,625,426.0,199.0,56,1,2261.699999988079,414350.3000000119,7067,kiwi,NF,C,407543,407543,405714,406828,405716,407976,407344,407344,407976,96
91,test,1,inc,1,m,Thu Feb 20 2025 13:03:41 GMT-0600 (Central Standard Time),418877.8000000119,raisin,1100,I,m,m,None,613,398.0,215.0,88,1,2244.399999976158,416633.40000003576,7067,silver,NF,C,409843,409843,407997,409110,407999,410242,409627,409627,410242,97
92,test,1,con,1,z,Thu Feb 20 2025 13:03:41 GMT-0600 (Central Standard Time),421360.5,orange,1100,I,z,z,None,820,620.0,200.0,20,1,2461.199999988079,418899.3000000119,7067,orange,NF,C,412092,412092,410263,411376,410265,412725,411892,411892,412724,98
93,test,1,inc,1,m,Thu Feb 20 2025 13:03:41 GMT-0600 (Central Standard Time),423309.7000000477,lime,800,I,m,m,None,587,388.0,199.0,117,1,1928.9000000357628,421380.8000000119,7067,zinc,NF,C,414276,414276,412745,413559,412747,414674,414075,414075,414674,99
94,test,1,inc,1,m,Thu Feb 20 2025 13:03:41 GMT-0600 (Central Standard Time),425275.7000000477,pear,900,I,m,m,None,499,300.0,199.0,102,1,1944.5,423331.2000000477,7067,gold,NF,C,416324,416324,414695,415608,414697,416640,416124,416124,416640,100
95,test,1,con,1,m,Thu Feb 20 2025 13:03:41 GMT-0600 (Central Standard Time),427292.0,silver,1000,I,m,m,None,458,243.0,215.0,83,1,1995.5999999642372,425296.40000003576,7067,silver,NF,C,418406,418406,416660,417674,416662,418656,418191,418191,418656,101
96,test,1,con,1,z,Thu Feb 20 2025 13:03:41 GMT-0600 (Central Standard Time),429174.40000003576,pear,900,I,z,z,None,429,214.0,215.0,42,1,1861.699999988079,427312.7000000477,7067,pear,NF,C,420323,420323,418677,419590,418678,420539,420107,420107,420538,102
97,test,1,inc,1,m,Thu Feb 20 2025 13:03:41 GMT-0600 (Central Standard Time),431407.10000002384,kiwi,1000,I,m,m,None,670,471.0,199.0,119,1,2211.199999988079,429195.90000003576,7067,zinc,NF,C,422288,422289,420560,421572,420562,422771,422089,422089,422771,103
98,test,1,inc,1,m,Thu Feb 20 2025 13:03:41 GMT-0600 (Central Standard Time),433539.60000002384,kiwi,1000,I,m,m,None,573,358.0,215.0,127,1,2113.0,431426.60000002384,7067,lead,NF,C,424538,424538,422791,423805,422792,424904,424322,424322,424904,104
99,test,1,con,1,z,Thu Feb 20 2025 13:03:41 GMT-0600 (Central Standard Time),435388.60000002384,plum,800,I,z,z,None,490,290.0,200.0,57,1,1830.199999988079,433558.40000003576,7067,plum,NF,C,426453,426453,424922,425738,424923,426753,426253,426253,426753,105
100,test,1,inc,1,m,Thu Feb 20 2025 13:03:41 GMT-0600 (Central Standard Time),437321.40000003576,banana,800,I,m,m,None,584,385.0,199.0,93,1,1927.4000000357628,435394.0,7067,cobalt,NF,C,428286,428286,426758,427569,426758,428685,428086,428086,428685,106
101,test,1,con,1,m,Thu Feb 20 2025 13:03:41 GMT-0600 (Central Standard Time),439054.40000003576,copper,800,I,m,m,None,398,199.0,199.0,73,1,1726.9000000357628,437327.5,7067,copper,NF,C,430218,430218,428692,429503,428692,430419,430019,430019,430418,107
102,test,1,inc,1,z,Thu Feb 20 2025 13:03:41 GMT-0600 (Central Standard Time),441119.90000003576,copper,900,I,z,z,None,611,410.0,201.0,30,1,2044.6000000238419,439075.3000000119,7067,raisin,NF,C,432069,432069,430439,431351,430440,432484,431868,431868,432484,108
103,test,1,inc,1,m,Thu Feb 20 2025 13:03:41 GMT-0600 (Central Standard Time),443219.90000003576,cherry,900,I,m,m,None,650,451.0,199.0,94,1,2093.900000035763,441126.0,7067,cobalt,NF,C,434118,434118,432490,433401,432490,434584,433918,433918,434584,109
103,test,1,con,0,z,Thu Feb 20 2025 13:03:41 GMT-0600 (Central Standard Time),445252.10000002384,cherry,1100,I,m,m,None,374,174.0,200.0,12,1,2008.1000000238419,443244.0,7067,cherry,NF,C,436433,436433,434608,435718,434610,436616,436233,436233,436616,110
104,test,1,con,1,m,Thu Feb 20 2025 13:03:41 GMT-0600 (Central Standard Time),447318.0,copper,1100,I,m,m,None,430,230.0,200.0,76,1,2060.399999976158,445257.60000002384,7067,copper,NF,C,438449,438449,436622,437733,436622,438682,438249,438249,438682,111
105,test,1,inc,1,m,Thu Feb 20 2025 13:03:41 GMT-0600 (Central Standard Time),449300.60000002384,banana,800,I,m,m,None,648,448.0,200.0,77,1,1977.0,447323.60000002384,7067,copper,NF,C,440215,440215,438688,439499,438688,440665,440015,440015,440665,112
106,test,1,con,1,m,Thu Feb 20 2025 13:03:41 GMT-0600 (Central Standard Time),451283.40000003576,zinc,1000,I,m,m,None,440,241.0,199.0,115,1,1977.1000000238419,449306.3000000119,7067,zinc,NF,C,442398,442398,440670,441681,440671,442648,442198,442198,442647,113
107,test,1,inc,1,z,Thu Feb 20 2025 13:03:41 GMT-0600 (Central Standard Time),453366.2000000477,lead,1100,I,z,z,None,438,239.0,199.0,48,1,2076.600000023842,451289.60000002384,7067,pear,NF,C,444480,444480,442654,443764,442654,444730,444281,444281,444730,114
108,test,1,inc,1,z,Thu Feb 20 2025 13:03:41 GMT-0600 (Central Standard Time),455515.2000000477,zinc,1000,I,z,z,None,600,400.0,200.0,55,1,2142.600000023842,453372.60000002384,7067,kiwi,NF,C,446463,446463,444737,445747,444737,446879,446263,446263,446879,115
109,test,1,inc,1,m,Thu Feb 20 2025 13:03:41 GMT-0600 (Central Standard Time),457431.2000000477,banana,800,I,m,m,None,570,371.0,199.0,85,1,1909.4000000357628,455521.8000000119,7067,silver,NF,C,448412,448412,446886,447696,446886,448795,448213,448213,448795,116
110,test,1,inc,1,z,Thu Feb 20 2025 13:03:41 GMT-0600 (Central Standard Time),459514.0,copper,900,I,z,z,None,642,443.0,199.0,22,1,2077.5,457436.5,7067,orange,NF,C,450428,450428,448801,449712,448801,450878,450228,450229,450878,117
111,test,1,inc,1,m,Thu Feb 20 2025 13:03:41 GMT-0600 (Central Standard Time),461713.40000003576,cherry,900,I,m,m,None,752,552.0,200.0,78,1,2194.100000023842,459519.3000000119,7067,copper,NF,C,452511,452511,450883,451795,450884,453077,452311,452311,453077,118
112,test,1,con,1,z,Thu Feb 20 2025 13:03:41 GMT-0600 (Central Standard Time),463962.60000002384,banana,1100,I,z,z,None,609,409.0,200.0,4,1,2242.600000023842,461720.0,7067,banana,NF,C,454910,454910,453084,454194,453084,455327,454710,454710,455327,119
112,test,1,inc,0,z,Thu Feb 20 2025 13:03:41 GMT-0600 (Central Standard Time),465878.8000000119,bronze,800,I,m,m,None,570,371.0,199.0,13,1,1909.0,463969.8000000119,7067,cherry,NF,C,456860,456860,455334,456143,455334,457243,456660,456660,457243,120
113,test,1,inc,1,m,Thu Feb 20 2025 13:03:41 GMT-0600 (Central Standard Time),467944.60000002384,lime,800,I,m,m,None,726,527.0,199.0,125,1,2059.600000023842,465885.0,7067,lead,NF,C,458776,458776,457249,458059,457250,459309,458576,458576,459309,121
114,test,1,inc,1,m,Thu Feb 20 2025 13:03:41 GMT-0600 (Central Standard Time),470243.60000002384,orange,1000,I,m,m,None,764,565.0,199.0,79,1,2293.300000011921,467950.3000000119,7067,copper,NF,C,461042,461042,459314,460325,459315,461608,460842,460842,461608,122
115,test,1,con,1,m,Thu Feb 20 2025 13:03:41 GMT-0600 (Central Standard Time),472043.3000000119,iron,800,I,m,m,None,458,258.0,200.0,105,1,1793.300000011921,470250.0,7067,iron,NF,C,463141,463141,461614,462424,461614,463407,462941,462941,463407,123
116,test,1,inc,1,z,Thu Feb 20 2025 13:03:41 GMT-0600 (Central Standard Time),473959.2000000477,gold,800,I,z,z,None,570,371.0,199.0,37,1,1910.4000000357628,472048.8000000119,7067,lime,NF,C,464940,464940,463413,464224,463413,465323,464741,464741,465323,124
117,test,1,inc,1,m,Thu Feb 20 2025 13:03:41 GMT-0600 (Central Standard Time),476258.7000000477,raisin,1100,I,m,m,None,659,459.0,200.0,72,1,2294.2000000476837,473964.5,7067,bronze,NF,C,467156,467156,465329,466440,465329,467623,466956,466956,467623,125
118,test,1,con,1,z,Thu Feb 20 2025 13:03:41 GMT-0600 (Central Standard Time),478574.60000002384,cherry,1000,I,z,z,None,778,579.0,199.0,11,1,2309.600000023842,476265.0,7067,cherry,NF,C,469356,469356,467629,468639,467630,469939,469156,469156,469939,126
119,test,1,con,1,z,Thu Feb 20 2025 13:03:41 GMT-0600 (Central Standard Time),480457.10000002384,plum,900,I,z,z,None,435,236.0,199.0,58,1,1876.199999988079,478580.90000003576,7067,plum,NF,C,471571,471571,469945,470855,469946,471821,471372,471372,471821,127
120,test,1,inc,1,m,Thu Feb 20 2025 13:03:41 GMT-0600 (Central Standard Time),482756.5,plum,1100,I,m,m,None,665,465.0,200.0,120,1,2293.699999988079,480462.8000000119,7067,zinc,NF,C,473654,473654,471827,472938,471827,474121,473454,473454,474120,128
