acc_sum,block,block_c,condition,correct,correct_response,datetime,endtime,flanker,jitter,project,response,response_test_buffer_response,response_test_target_response,response_time,response_time_test_buffer_response,response_time_test_target_response,row_sel,session_number,start_end,starttime,subject_id,target,task,task_vers,time_test_buffer,time_test_buffer_response,time_test_constants,time_test_flanker,time_test_jitter,time_test_logger,time_test_target,time_test_target_response,time_test_variables,trial
1,prac,1,con,1,m,Fri Feb 21 2025 09:09:45 GMT-0600 (Central Standard Time),142878.29999999702,gold,800,I,m,,,1316,,,13,1,3427.2999999970198,139451.0,8031,gold,NF,C,,,,,,,,,,1
2,prac,1,con,1,z,Fri Feb 21 2025 09:09:45 GMT-0600 (Central Standard Time),145630.09999999776,lime,800,I,z,,,646,,,5,1,2746.0,142884.09999999776,8031,lime,NF,C,,,,,,,,,,2
3,prac,1,inc,1,m,Fri Feb 21 2025 09:09:45 GMT-0600 (Central Standard Time),148459.59999999776,cherry,900,I,m,,,615,,,10,1,2823.300000000745,145636.29999999702,8031,copper,NF,C,,,,,,,,,,3
4,prac,1,inc,1,z,Fri Feb 21 2025 09:09:45 GMT-0600 (Central Standard Time),151573.09999999776,cobalt,1100,I,z,,,702,,,4,1,3104.0,148469.09999999776,8031,raisin,NF,C,,,,,,,,,,4
5,prac,1,con,1,z,Fri Feb 21 2025 09:09:45 GMT-0600 (Central Standard Time),154358.3999999985,banana,800,I,z,,,693,,,1,1,2775.10000000149,151583.29999999702,8031,banana,NF,C,,,,,,,,,,5
6,prac,1,con,1,m,Fri Feb 21 2025 09:09:45 GMT-0600 (Central Standard Time),156973.3999999985,bronze,800,I,m,,,501,,,9,1,2609.89999999851,154363.5,8031,bronze,NF,C,,,,,,,,,,6
7,prac,1,con,1,z,Fri Feb 21 2025 09:09:45 GMT-0600 (Central Standard Time),159841.69999999925,orange,1000,I,z,,,549,,,3,1,2861.5,156980.19999999925,8031,orange,NF,C,,,,,,,,,,7
8,prac,1,inc,1,m,Fri Feb 21 2025 09:09:45 GMT-0600 (Central Standard Time),162854.79999999702,plum,1100,I,m,,,609,,,16,1,3006.5,159848.29999999702,8031,lead,NF,C,,,,,,,,,,8
9,prac,1,inc,1,z,Fri Feb 21 2025 09:09:45 GMT-0600 (Central Standard Time),165719.79999999702,lead,1100,I,z,,,482,,,8,1,2859.0,162860.79999999702,8031,plum,NF,C,,,,,,,,,,9
10,prac,1,con,1,m,Fri Feb 21 2025 09:09:45 GMT-0600 (Central Standard Time),168554.29999999702,zinc,1000,I,m,,,523,,,15,1,2827.099999997765,165727.19999999925,8031,zinc,NF,C,,,,,,,,,,10
11,prac,1,con,1,z,Fri Feb 21 2025 09:09:45 GMT-0600 (Central Standard Time),171519.29999999702,kiwi,1000,I,z,,,658,,,7,1,2958.39999999851,168560.8999999985,8031,kiwi,NF,C,,,,,,,,,,11
12,prac,1,con,1,m,Fri Feb 21 2025 09:09:45 GMT-0600 (Central Standard Time),174268.5,silver,1000,I,m,,,437,,,11,1,2742.800000000745,171525.69999999925,8031,silver,NF,C,,,,,,,,,,12
13,prac,1,inc,1,z,Fri Feb 21 2025 09:09:45 GMT-0600 (Central Standard Time),177001.0,iron,900,I,z,,,534,,,6,1,2727.900000002235,174273.09999999776,8031,pear,NF,C,,,,,,,,,,13
14,prac,1,inc,1,m,Fri Feb 21 2025 09:09:45 GMT-0600 (Central Standard Time),179649.79999999702,pear,900,I,m,,,446,,,14,1,2643.699999999255,177006.09999999776,8031,iron,NF,C,,,,,,,,,,14
15,prac,1,inc,1,m,Fri Feb 21 2025 09:09:45 GMT-0600 (Central Standard Time),182564.69999999925,raisin,1100,I,m,,,511,,,12,1,2909.0,179655.69999999925,8031,cobalt,NF,C,,,,,,,,,,15
16,prac,1,inc,1,z,Fri Feb 21 2025 09:09:45 GMT-0600 (Central Standard Time),185283.5,copper,900,I,z,,,517,,,2,1,2712.5,182571.0,8031,cherry,NF,C,,,,,,,,,,16
1,test,1,inc,1,m,Fri Feb 21 2025 09:09:45 GMT-0600 (Central Standard Time),202059.19999999925,raisin,1100,I,m,m,None,672,473.0,199.0,80,1,2311.5,199747.69999999925,8031,copper,NF,C,197118,197118,195289,196402,195289,197600,196918,196918,197600,1
2,test,1,con,1,z,Fri Feb 21 2025 09:09:45 GMT-0600 (Central Standard Time),204241.69999999925,pear,1100,I,z,z,None,540,340.0,200.0,44,1,2176.800000000745,202064.8999999985,8031,pear,NF,C,199434,199434,197606,198718,197606,199783,199234,199234,199783,2
3,test,1,con,1,m,Fri Feb 21 2025 09:09:45 GMT-0600 (Central Standard Time),206541.29999999702,gold,1100,I,m,m,None,662,463.0,199.0,100,1,2295.199999999255,204246.09999999776,8031,gold,NF,C,201617,201617,199787,200902,199788,202082,201417,201417,202082,3
4,test,1,con,1,m,Fri Feb 21 2025 09:09:45 GMT-0600 (Central Standard Time),208374.0,gold,800,I,m,m,None,497,298.0,199.0,97,1,1827.5,206546.5,8031,gold,NF,C,203616,203616,202088,202899,202088,203915,203416,203416,203915,4
5,test,1,inc,1,z,Fri Feb 21 2025 09:09:45 GMT-0600 (Central Standard Time),210490.3999999985,silver,1000,I,z,z,None,565,366.0,199.0,31,1,2111.5,208378.8999999985,8031,raisin,NF,C,205649,205649,203920,204933,203920,206031,205450,205450,206031,5
6,test,1,inc,1,z,Fri Feb 21 2025 09:09:45 GMT-0600 (Central Standard Time),212371.59999999776,gold,800,I,z,z,None,539,339.0,200.0,45,1,1874.0999999977648,210497.5,8031,pear,NF,C,207564,207564,206039,206849,206039,207913,207363,207363,207913,6
7,test,1,inc,1,m,Fri Feb 21 2025 09:09:45 GMT-0600 (Central Standard Time),214388.09999999776,kiwi,1000,I,m,m,None,486,273.0,213.0,127,1,2010.8999999985099,212377.19999999925,8031,lead,NF,C,209646,209646,207918,208930,207919,209929,209432,209432,209929,7
8,test,1,inc,1,m,Fri Feb 21 2025 09:09:45 GMT-0600 (Central Standard Time),216386.79999999702,pear,900,I,m,m,None,564,363.0,201.0,102,1,1992.199999999255,214394.59999999776,8031,gold,NF,C,211564,211564,209936,210847,209936,211928,211362,211363,211928,8
9,test,1,con,1,m,Fri Feb 21 2025 09:09:45 GMT-0600 (Central Standard Time),218388.79999999702,copper,900,I,m,m,None,565,350.0,215.0,74,1,1996.8999999985099,216391.8999999985,8031,copper,NF,C,213579,213579,211933,212847,211933,213930,213364,213364,213930,9
10,test,1,con,1,z,Fri Feb 21 2025 09:09:45 GMT-0600 (Central Standard Time),220470.09999999776,lime,1000,I,z,z,None,550,336.0,214.0,35,1,2075.099999997765,218395.0,8031,lime,NF,C,215662,215662,213936,214945,213936,216011,215448,215448,216011,10
11,test,1,con,1,m,Fri Feb 21 2025 09:09:45 GMT-0600 (Central Standard Time),222518.09999999776,silver,1000,I,m,m,None,509,310.0,199.0,83,1,2040.300000000745,220477.79999999702,8031,silver,NF,C,217745,217745,216019,217029,216019,218059,217545,217545,218059,11
12,test,1,con,1,m,Fri Feb 21 2025 09:09:45 GMT-0600 (Central Standard Time),224385.5,iron,800,I,m,m,None,515,302.0,213.0,105,1,1861.4000000022352,222524.09999999776,8031,iron,NF,C,219609,219609,218065,218879,218066,219927,219396,219396,219927,12
13,test,1,inc,1,z,Fri Feb 21 2025 09:09:45 GMT-0600 (Central Standard Time),226452.0,cobalt,1100,I,z,z,None,417,217.0,200.0,16,1,2062.0,224390.0,8031,cherry,NF,C,221759,221760,219931,221043,219931,221993,221559,221559,221993,13
14,test,1,con,1,m,Fri Feb 21 2025 09:09:45 GMT-0600 (Central Standard Time),228350.8999999985,copper,1000,I,m,m,None,359,143.0,216.0,75,1,1891.8999999985099,226459.0,8031,copper,NF,C,223744,223744,222000,223011,222001,223892,223527,223527,223892,14
15,test,1,con,1,m,Fri Feb 21 2025 09:09:45 GMT-0600 (Central Standard Time),230449.59999999776,gold,1000,I,m,m,None,554,340.0,214.0,99,1,2093.89999999851,228355.69999999925,8031,gold,NF,C,225643,225643,223897,224909,223897,225991,225428,225428,225991,15
16,test,1,con,1,z,Fri Feb 21 2025 09:09:45 GMT-0600 (Central Standard Time),232332.3999999985,banana,1000,I,z,z,None,331,132.0,199.0,3,1,1878.1000000014901,230454.29999999702,8031,banana,NF,C,227725,227726,225995,227009,225996,227873,227526,227526,227873,16
16,test,1,inc,0,z,Fri Feb 21 2025 09:09:45 GMT-0600 (Central Standard Time),234250.79999999702,zinc,1000,I,m,m,None,376,175.0,201.0,47,1,1910.2999999970198,232340.5,8031,pear,NF,C,229608,229608,227882,228891,227882,229792,229407,229407,229792,17
17,test,1,inc,1,m,Fri Feb 21 2025 09:09:45 GMT-0600 (Central Standard Time),236215.69999999925,banana,800,I,m,m,None,618,418.0,200.0,85,1,1958.300000000745,234257.3999999985,8031,silver,NF,C,231325,231325,229798,230607,229799,231757,231124,231124,231757,18
18,test,1,inc,1,z,Fri Feb 21 2025 09:09:45 GMT-0600 (Central Standard Time),238130.8999999985,iron,900,I,z,z,None,471,256.0,215.0,38,1,1910.3999999985099,236220.5,8031,lime,NF,C,233407,233407,231762,232674,231762,233672,233192,233192,233672,19
19,test,1,con,1,m,Fri Feb 21 2025 09:09:45 GMT-0600 (Central Standard Time),239880.79999999702,cobalt,800,I,m,m,None,399,200.0,199.0,89,1,1745.199999999255,238135.59999999776,8031,cobalt,NF,C,235207,235207,233677,234490,233677,235422,235007,235007,235422,20
20,test,1,con,1,m,Fri Feb 21 2025 09:09:45 GMT-0600 (Central Standard Time),242080.09999999776,iron,900,I,m,m,None,759,559.0,200.0,106,1,2192.599999997765,239887.5,8031,iron,NF,C,237055,237056,235429,236340,235429,237621,236855,236855,237621,21
21,test,1,con,1,z,Fri Feb 21 2025 09:09:45 GMT-0600 (Central Standard Time),243861.59999999776,banana,800,I,z,z,None,444,245.0,199.0,1,1,1775.0999999977648,242086.5,8031,banana,NF,C,239154,239154,237628,238440,237628,239403,238954,238954,239403,22
22,test,1,con,1,z,Fri Feb 21 2025 09:09:45 GMT-0600 (Central Standard Time),245697.79999999702,raisin,800,I,z,z,None,484,285.0,199.0,25,1,1832.3999999985099,243865.3999999985,8031,raisin,NF,C,240938,240938,239406,240221,239407,241239,240738,240738,241239,23
23,test,1,con,1,m,Fri Feb 21 2025 09:09:45 GMT-0600 (Central Standard Time),247493.3999999985,silver,800,I,m,m,None,460,261.0,199.0,81,1,1790.800000000745,245702.59999999776,8031,silver,NF,C,242769,242769,241244,242054,241244,243035,242570,242570,243034,24
24,test,1,inc,1,m,Fri Feb 21 2025 09:09:45 GMT-0600 (Central Standard Time),249510.69999999925,cherry,900,I,m,m,None,577,378.0,199.0,94,1,2010.800000000745,247499.8999999985,8031,cobalt,NF,C,244669,244669,243041,243954,243042,245052,244469,244469,245052,25
25,test,1,inc,1,z,Fri Feb 21 2025 09:09:45 GMT-0600 (Central Standard Time),251360.5,gold,800,I,z,z,None,511,310.0,201.0,53,1,1845.2000000029802,249515.29999999702,8031,kiwi,NF,C,246585,246585,245056,245868,245057,246902,246384,246384,246902,26
25,test,1,inc,0,z,Fri Feb 21 2025 09:09:45 GMT-0600 (Central Standard Time),253444.09999999776,lead,1100,I,m,m,None,449,250.0,199.0,40,1,2078.0,251366.09999999776,8031,lime,NF,C,248735,248735,246907,248018,246908,248985,248536,248536,248985,27
26,test,1,con,1,z,Fri Feb 21 2025 09:09:45 GMT-0600 (Central Standard Time),255291.19999999925,kiwi,900,I,z,z,None,406,206.0,200.0,50,1,1841.300000000745,253449.8999999985,8031,kiwi,NF,C,250618,250618,248991,249903,248991,250832,250417,250417,250832,28
27,test,1,con,1,z,Fri Feb 21 2025 09:09:45 GMT-0600 (Central Standard Time),257275.69999999925,orange,1000,I,z,z,None,449,249.0,200.0,19,1,1978.800000000745,255296.8999999985,8031,orange,NF,C,252567,252567,250838,251851,250838,252817,252366,252366,252817,29
28,test,1,inc,1,m,Fri Feb 21 2025 09:09:45 GMT-0600 (Central Standard Time),259271.3999999985,pear,900,I,m,m,None,557,353.0,204.0,118,1,1990.6000000014901,257280.79999999702,8031,zinc,NF,C,254453,254453,252822,253733,252822,254812,254248,254248,254812,30
29,test,1,inc,1,z,Fri Feb 21 2025 09:09:45 GMT-0600 (Central Standard Time),261439.8999999985,lead,1100,I,z,z,None,517,318.0,199.0,64,1,2165.699999999255,259274.19999999925,8031,plum,NF,C,256649,256649,254815,255932,254816,256981,256450,256450,256981,31
30,test,1,con,1,z,Fri Feb 21 2025 09:09:45 GMT-0600 (Central Standard Time),263390.3999999985,cherry,900,I,z,z,None,501,301.0,200.0,10,1,1945.699999999255,261444.69999999925,8031,cherry,NF,C,258614,258614,256986,257899,256986,258931,258414,258414,258931,32
31,test,1,con,1,z,Fri Feb 21 2025 09:09:45 GMT-0600 (Central Standard Time),265555.8999999985,kiwi,1100,I,z,z,None,521,306.0,215.0,52,1,2159.199999999255,263396.69999999925,8031,kiwi,NF,C,260781,260781,258938,260048,258938,261097,260566,260566,261097,33
32,test,1,inc,1,z,Fri Feb 21 2025 09:09:45 GMT-0600 (Central Standard Time),267637.5,zinc,1000,I,z,z,None,535,336.0,199.0,39,1,2076.300000000745,265561.19999999925,8031,lime,NF,C,262830,262830,261102,262114,261102,263179,262631,262631,263179,34
33,test,1,inc,1,m,Fri Feb 21 2025 09:09:45 GMT-0600 (Central Standard Time),269821.09999999776,raisin,1100,I,m,m,None,545,329.0,216.0,88,1,2180.5,267640.59999999776,8031,silver,NF,C,265030,265030,263182,264297,263182,265362,264814,264814,265362,35
34,test,1,con,1,z,Fri Feb 21 2025 09:09:45 GMT-0600 (Central Standard Time),272070.0,raisin,1100,I,z,z,None,612,410.0,202.0,28,1,2243.300000000745,269826.69999999925,8031,raisin,NF,C,267197,267197,265368,266480,265368,267611,266995,266995,267611,36
35,test,1,inc,1,m,Fri Feb 21 2025 09:09:45 GMT-0600 (Central Standard Time),274153.09999999776,kiwi,1000,I,m,m,None,532,316.0,216.0,103,1,2077.699999999255,272075.3999999985,8031,gold,NF,C,269362,269362,267616,268629,267617,269694,269145,269145,269694,37
36,test,1,con,1,z,Fri Feb 21 2025 09:09:45 GMT-0600 (Central Standard Time),276119.3999999985,plum,900,I,z,z,None,535,321.0,214.0,58,1,1959.3999999985099,274160.0,8031,plum,NF,C,271326,271326,269701,270610,269701,271660,271112,271112,271660,38
37,test,1,con,1,z,Fri Feb 21 2025 09:09:45 GMT-0600 (Central Standard Time),277951.0,cherry,800,I,z,z,None,485,269.0,216.0,9,1,1826.7000000029802,276124.299999997,8031,cherry,NF,C,273210,273210,271665,272476,271666,273492,272994,272994,273492,39
37,test,1,inc,0,z,Fri Feb 21 2025 09:09:45 GMT-0600 (Central Standard Time),279698.8999999985,gold,800,I,m,m,None,417,203.0,214.0,37,1,1743.5,277955.3999999985,8031,lime,NF,C,275027,275027,273496,274310,273497,275240,274812,274812,275240,40
38,test,1,inc,1,m,Fri Feb 21 2025 09:09:45 GMT-0600 (Central Standard Time),281883.8999999985,orange,1000,I,m,m,None,647,448.0,199.0,79,1,2182.300000000745,279701.59999999776,8031,copper,NF,C,276960,276960,275243,276258,275243,277425,276760,276760,277425,41
39,test,1,con,1,z,Fri Feb 21 2025 09:09:45 GMT-0600 (Central Standard Time),284182.5,cherry,1100,I,z,z,None,661,462.0,199.0,12,1,2293.900000002235,281888.59999999776,8031,cherry,NF,C,279257,279257,277430,278543,277430,279724,279058,279058,279724,42
40,test,1,con,1,z,Fri Feb 21 2025 09:09:45 GMT-0600 (Central Standard Time),286165.69999999925,pear,900,I,z,z,None,563,362.0,201.0,42,1,1978.4000000022352,284187.299999997,8031,pear,NF,C,281341,281341,279728,280639,279729,281707,281140,281140,281707,43
41,test,1,inc,1,z,Fri Feb 21 2025 09:09:45 GMT-0600 (Central Standard Time),288065.3999999985,bronze,800,I,z,z,None,552,351.0,201.0,29,1,1894.1000000014901,286171.299999997,8031,raisin,NF,C,283240,283241,281712,282524,281713,283606,283039,283039,283606,44
42,test,1,inc,1,z,Fri Feb 21 2025 09:09:45 GMT-0600 (Central Standard Time),290298.299999997,cobalt,1100,I,z,z,None,599,400.0,199.0,24,1,2229.2999999970198,288069.0,8031,orange,NF,C,285424,285424,283610,284720,283610,285839,285223,285224,285839,45
43,test,1,con,1,m,Fri Feb 21 2025 09:09:45 GMT-0600 (Central Standard Time),292348.3999999985,iron,1000,I,m,m,None,521,306.0,215.0,107,1,2046.1000000014901,290302.299999997,8031,iron,NF,C,287573,287573,285843,286856,285844,287889,287357,287357,287889,46
44,test,1,inc,1,m,Fri Feb 21 2025 09:09:45 GMT-0600 (Central Standard Time),294462.59999999776,cherry,900,I,m,m,None,669,469.0,200.0,78,1,2110.099999997765,292352.5,8031,copper,NF,C,289522,289522,287894,288805,287894,290004,289321,289322,290004,47
45,test,1,con,1,z,Fri Feb 21 2025 09:09:45 GMT-0600 (Central Standard Time),296495.09999999776,orange,900,I,z,z,None,593,394.0,199.0,18,1,2027.3999999985099,294467.69999999925,8031,orange,NF,C,291637,291637,290009,290921,290009,292036,291437,291437,292036,48
46,test,1,con,1,m,Fri Feb 21 2025 09:09:45 GMT-0600 (Central Standard Time),298529.8999999985,silver,900,I,m,m,None,602,401.0,201.0,82,1,2030.699999999255,296499.19999999925,8031,silver,NF,C,293670,293670,292040,292953,292040,294071,293469,293469,294071,49
47,test,1,inc,1,m,Fri Feb 21 2025 09:09:45 GMT-0600 (Central Standard Time),300478.299999997,banana,800,I,m,m,None,607,406.0,201.0,93,1,1944.5999999977648,298533.69999999925,8031,cobalt,NF,C,295601,295601,294075,294885,294075,296019,295400,295400,296019,50
48,test,1,con,1,z,Fri Feb 21 2025 09:09:45 GMT-0600 (Central Standard Time),302458.799999997,plum,1000,I,z,z,None,438,239.0,199.0,59,1,1976.2999999970198,300482.5,8031,plum,NF,C,297752,297752,296024,297037,296024,298000,297553,297553,298000,51
49,test,1,inc,1,m,Fri Feb 21 2025 09:09:45 GMT-0600 (Central Standard Time),304444.09999999776,lime,800,I,m,m,None,650,449.0,201.0,125,1,1979.8999999985099,302464.19999999925,8031,lead,NF,C,299536,299536,298005,298819,298005,299985,299335,299335,299985,52
50,test,1,inc,1,m,Fri Feb 21 2025 09:09:45 GMT-0600 (Central Standard Time),306491.69999999925,pear,900,I,m,m,None,627,413.0,214.0,126,1,2041.1000000014901,304450.59999999776,8031,lead,NF,C,301618,301618,299992,300901,299992,302033,301404,301404,302033,53
51,test,1,inc,1,z,Fri Feb 21 2025 09:09:45 GMT-0600 (Central Standard Time),308576.3999999985,cobalt,1100,I,z,z,None,459,244.0,215.0,8,1,2079.800000000745,306496.59999999776,8031,banana,NF,C,303866,303867,302038,303149,302038,304118,303650,303651,304117,54
52,test,1,inc,1,m,Fri Feb 21 2025 09:09:45 GMT-0600 (Central Standard Time),310740.8999999985,orange,1000,I,m,m,None,629,430.0,199.0,87,1,2159.5,308581.3999999985,8031,silver,NF,C,305849,305849,304122,305135,304123,306282,305650,305650,306282,55
53,test,1,con,1,m,Fri Feb 21 2025 09:09:45 GMT-0600 (Central Standard Time),312939.3999999985,zinc,1000,I,m,m,None,655,455.0,200.0,115,1,2193.300000000745,310746.09999999776,8031,zinc,NF,C,308016,308016,306287,307299,306287,308480,307816,307816,308480,56
54,test,1,inc,1,z,Fri Feb 21 2025 09:09:45 GMT-0600 (Central Standard Time),314940.8999999985,copper,900,I,z,z,None,566,367.0,199.0,14,1,1997.0,312943.8999999985,8031,cherry,NF,C,310115,310115,308485,309400,308485,310482,309915,309915,310482,57
55,test,1,inc,1,z,Fri Feb 21 2025 09:09:45 GMT-0600 (Central Standard Time),316940.19999999925,gold,800,I,z,z,None,667,467.0,200.0,61,1,1994.199999999255,314946.0,8031,plum,NF,C,312014,312014,310487,311298,310487,312481,311814,311814,312481,58
56,test,1,con,1,z,Fri Feb 21 2025 09:09:45 GMT-0600 (Central Standard Time),318938.799999997,banana,900,I,z,z,None,567,367.0,200.0,2,1,1994.199999999255,316944.59999999776,8031,banana,NF,C,314113,314113,312486,313398,312486,314480,313913,313913,314480,59
57,test,1,inc,1,m,Fri Feb 21 2025 09:09:45 GMT-0600 (Central Standard Time),320989.0,orange,1000,I,m,m,None,516,316.0,200.0,71,1,2046.300000000745,318942.69999999925,8031,bronze,NF,C,316214,316214,314484,315498,314484,316530,316013,316013,316530,60
58,test,1,inc,1,m,Fri Feb 21 2025 09:09:45 GMT-0600 (Central Standard Time),322937.69999999925,lime,800,I,m,m,None,606,390.0,216.0,109,1,1942.4000000022352,320995.299999997,8031,iron,NF,C,318080,318080,316536,317346,316537,318479,317863,317863,318479,61
59,test,1,con,1,z,Fri Feb 21 2025 09:09:45 GMT-0600 (Central Standard Time),324720.5,pear,800,I,z,z,None,432,216.0,216.0,41,1,1778.9000000022352,322941.59999999776,8031,pear,NF,C,320029,320030,318483,319296,318483,320262,319813,319813,320262,62
60,test,1,inc,1,z,Fri Feb 21 2025 09:09:45 GMT-0600 (Central Standard Time),326651.8999999985,iron,900,I,z,z,None,495,295.0,200.0,62,1,1925.800000000745,324726.09999999776,8031,plum,NF,C,321895,321895,320267,321179,320267,322193,321694,321695,322193,63
61,test,1,con,1,z,Fri Feb 21 2025 09:09:45 GMT-0600 (Central Standard Time),328786.59999999776,lime,900,I,z,z,None,691,492.0,199.0,34,1,2131.800000000745,326654.799999997,8031,lime,NF,C,323827,323827,322196,323112,322196,324328,323628,323628,324328,64
62,test,1,inc,1,z,Fri Feb 21 2025 09:09:45 GMT-0600 (Central Standard Time),330736.59999999776,bronze,800,I,z,z,None,602,403.0,199.0,21,1,1945.5,328791.09999999776,8031,orange,NF,C,325859,325859,324332,325144,324333,326278,325660,325660,326278,65
63,test,1,inc,1,m,Fri Feb 21 2025 09:09:45 GMT-0600 (Central Standard Time),332784.69999999925,cherry,900,I,m,m,None,600,401.0,199.0,70,1,2042.9000000022352,330741.799999997,8031,bronze,NF,C,327910,327910,326283,327193,326283,328326,327710,327710,328326,66
64,test,1,inc,1,m,Fri Feb 21 2025 09:09:45 GMT-0600 (Central Standard Time),334798.09999999776,pear,900,I,m,m,None,590,375.0,215.0,110,1,2007.5,332790.59999999776,8031,iron,NF,C,329959,329959,328332,329242,328332,330339,329744,329744,330339,67
65,test,1,inc,1,z,Fri Feb 21 2025 09:09:45 GMT-0600 (Central Standard Time),336849.3999999985,zinc,1000,I,z,z,None,501,301.0,200.0,55,1,2047.5,334801.8999999985,8031,kiwi,NF,C,332076,332076,330343,331358,330343,332390,331875,331875,332390,68
66,test,1,con,1,z,Fri Feb 21 2025 09:09:45 GMT-0600 (Central Standard Time),338965.69999999925,plum,1100,I,z,z,None,469,270.0,199.0,60,1,2111.5,336854.19999999925,8031,plum,NF,C,334225,334225,332395,333507,332396,334507,334025,334025,334507,69
67,test,1,con,1,z,Fri Feb 21 2025 09:09:45 GMT-0600 (Central Standard Time),340748.09999999776,lime,800,I,z,z,None,439,223.0,216.0,33,1,1777.699999999255,338970.3999999985,8031,lime,NF,C,336057,336057,334511,335324,334512,336289,335841,335841,336289,70
68,test,1,con,1,z,Fri Feb 21 2025 09:09:45 GMT-0600 (Central Standard Time),342563.799999997,orange,800,I,z,z,None,471,272.0,199.0,17,1,1811.3999999985099,340752.3999999985,8031,orange,NF,C,337823,337823,336293,337106,336294,338105,337624,337624,338105,71
69,test,1,inc,1,z,Fri Feb 21 2025 09:09:45 GMT-0600 (Central Standard Time),344598.5,copper,900,I,z,z,None,586,371.0,215.0,30,1,2027.9000000022352,342570.59999999776,8031,raisin,NF,C,339756,339756,338112,339023,338112,340140,339540,339540,340140,72
70,test,1,con,1,m,Fri Feb 21 2025 09:09:45 GMT-0600 (Central Standard Time),346879.09999999776,lead,1100,I,m,m,None,636,435.0,201.0,124,1,2271.5,344607.59999999776,8031,lead,NF,C,341972,341972,340149,341256,340149,342420,341771,341771,342420,73
71,test,1,con,1,m,Fri Feb 21 2025 09:09:45 GMT-0600 (Central Standard Time),348713.0,zinc,800,I,m,m,None,492,293.0,199.0,113,1,1824.5,346888.5,8031,zinc,NF,C,343954,343954,342429,343237,342430,344254,343755,343755,344254,74
72,test,1,inc,1,m,Fri Feb 21 2025 09:09:45 GMT-0600 (Central Standard Time),350812.19999999925,cherry,900,I,m,m,None,654,455.0,199.0,86,1,2088.400000002235,348723.799999997,8031,silver,NF,C,345888,345888,344265,345171,344265,346353,345688,345688,346353,75
73,test,1,con,1,m,Fri Feb 21 2025 09:09:45 GMT-0600 (Central Standard Time),352680.5,bronze,800,I,m,m,None,526,312.0,214.0,65,1,1862.9000000022352,350817.59999999776,8031,bronze,NF,C,347902,347902,346359,347171,346359,348222,347688,347688,348222,76
74,test,1,inc,1,m,Fri Feb 21 2025 09:09:45 GMT-0600 (Central Standard Time),354778.09999999776,orange,1000,I,m,m,None,549,350.0,199.0,95,1,2093.89999999851,352684.19999999925,8031,cobalt,NF,C,349953,349953,348225,349237,348225,350319,349753,349753,350319,77
75,test,1,inc,1,z,Fri Feb 21 2025 09:09:45 GMT-0600 (Central Standard Time),356893.0,lead,1100,I,z,z,None,479,280.0,199.0,56,1,2106.800000000745,354786.19999999925,8031,kiwi,NF,C,352151,352151,350327,351436,350328,352434,351952,351952,352434,78
76,test,1,con,1,z,Fri Feb 21 2025 09:09:45 GMT-0600 (Central Standard Time),358627.3999999985,plum,800,I,z,z,None,416,217.0,199.0,57,1,1725.199999999255,356902.19999999925,8031,plum,NF,C,353951,353951,352443,353250,352444,354169,353752,353752,354168,79
77,test,1,inc,1,m,Fri Feb 21 2025 09:09:45 GMT-0600 (Central Standard Time),360809.09999999776,plum,1100,I,m,m,None,542,328.0,214.0,128,1,2174.39999999851,358634.69999999925,8031,lead,NF,C,356015,356015,354176,355285,354176,356350,355801,355801,356350,80
78,test,1,inc,1,z,Fri Feb 21 2025 09:09:45 GMT-0600 (Central Standard Time),362859.799999997,copper,900,I,z,z,None,616,415.0,201.0,22,1,2040.7999999970198,360819.0,8031,orange,NF,C,357985,357985,356360,357267,356360,358401,357784,357784,358401,81
79,test,1,inc,1,z,Fri Feb 21 2025 09:09:45 GMT-0600 (Central Standard Time),364858.3999999985,iron,900,I,z,z,None,557,357.0,200.0,54,1,1988.300000000745,362870.09999999776,8031,kiwi,NF,C,360033,360034,358411,359316,358412,360399,359833,359833,360399,82
80,test,1,inc,1,z,Fri Feb 21 2025 09:09:45 GMT-0600 (Central Standard Time),367041.19999999925,silver,1000,I,z,z,None,641,426.0,215.0,7,1,2172.0,364869.19999999925,8031,banana,NF,C,362149,362149,360410,361416,360411,362582,361933,361933,362582,83
81,test,1,con,1,z,Fri Feb 21 2025 09:09:45 GMT-0600 (Central Standard Time),369124.09999999776,kiwi,1000,I,z,z,None,565,350.0,215.0,51,1,2076.5,367047.59999999776,8031,kiwi,NF,C,364315,364315,362589,363596,362589,364665,364100,364100,364665,84
82,test,1,inc,1,z,Fri Feb 21 2025 09:09:45 GMT-0600 (Central Standard Time),371306.69999999925,lead,1100,I,z,z,None,548,348.0,200.0,48,1,2177.60000000149,369129.09999999776,8031,pear,NF,C,366499,366499,364670,365782,364670,366848,366298,366298,366848,85
83,test,1,inc,1,m,Fri Feb 21 2025 09:09:45 GMT-0600 (Central Standard Time),373454.799999997,plum,1100,I,m,m,None,510,310.0,200.0,120,1,2143.599999997765,371311.19999999925,8031,zinc,NF,C,368680,368681,366852,367964,366853,368996,368480,368480,368996,86
84,test,1,con,1,m,Fri Feb 21 2025 09:09:45 GMT-0600 (Central Standard Time),375654.799999997,zinc,1100,I,m,m,None,552,335.0,217.0,116,1,2194.5,373460.299999997,8031,zinc,NF,C,370847,370847,369001,370113,369002,371196,370630,370630,371196,87
85,test,1,inc,1,m,Fri Feb 21 2025 09:09:45 GMT-0600 (Central Standard Time),378202.3999999985,kiwi,1000,I,m,m,None,1014,815.0,199.0,119,1,2542.60000000149,375659.799999997,8031,zinc,NF,C,372928,372928,371201,372212,371201,373743,372728,372728,373743,88
86,test,1,con,1,m,Fri Feb 21 2025 09:09:45 GMT-0600 (Central Standard Time),380570.8999999985,silver,1100,I,m,m,None,733,530.0,203.0,84,1,2362.5,378208.3999999985,8031,silver,NF,C,375581,375581,373749,374862,373750,376112,375378,375378,376112,89
87,test,1,con,1,z,Fri Feb 21 2025 09:09:45 GMT-0600 (Central Standard Time),382668.59999999776,kiwi,800,I,z,z,None,754,538.0,216.0,49,1,2092.300000000745,380576.299999997,8031,kiwi,NF,C,377661,377661,376117,376928,376118,378210,377444,377444,378210,90
88,test,1,con,1,m,Fri Feb 21 2025 09:09:45 GMT-0600 (Central Standard Time),384636.3999999985,lead,900,I,m,m,None,533,317.0,216.0,122,1,1963.1000000014901,382673.299999997,8031,lead,NF,C,379860,379860,378214,379128,378215,380177,379644,379644,380177,91
89,test,1,inc,1,z,Fri Feb 21 2025 09:09:45 GMT-0600 (Central Standard Time),386581.799999997,bronze,800,I,z,z,None,611,411.0,200.0,13,1,1940.7999999970198,384641.0,8031,cherry,NF,C,381707,381707,380182,380993,380182,382123,381507,381507,382123,92
90,test,1,con,1,z,Fri Feb 21 2025 09:09:45 GMT-0600 (Central Standard Time),388565.8999999985,cherry,1000,I,z,z,None,461,245.0,216.0,11,1,1979.1000000014901,386586.799999997,8031,cherry,NF,C,383858,383858,382128,383140,382128,384107,383642,383642,384107,93
91,test,1,con,1,m,Fri Feb 21 2025 09:09:45 GMT-0600 (Central Standard Time),390531.299999997,copper,800,I,m,m,None,620,405.0,215.0,73,1,1959.8999999985099,388571.3999999985,8031,copper,NF,C,385658,385658,384112,384925,384113,386072,385442,385442,386072,94
91,test,1,inc,0,m,Fri Feb 21 2025 09:09:45 GMT-0600 (Central Standard Time),392515.8999999985,raisin,1100,I,z,z,None,349,150.0,199.0,96,1,1980.1000000014901,390535.799999997,8031,cobalt,NF,C,387907,387907,386077,387191,386077,388057,387707,387707,388057,95
92,test,1,inc,1,m,Fri Feb 21 2025 09:09:45 GMT-0600 (Central Standard Time),395096.69999999925,plum,1100,I,m,m,None,944,744.0,200.0,104,1,2575.60000000149,392521.09999999776,8031,gold,NF,C,389887,389887,388062,389175,388062,390638,389687,389687,390638,96
93,test,1,inc,1,m,Fri Feb 21 2025 09:09:45 GMT-0600 (Central Standard Time),397113.3999999985,banana,800,I,m,m,None,673,458.0,215.0,77,1,2010.1000000014901,395103.299999997,8031,copper,NF,C,392189,392189,390644,391457,390645,392654,391974,391974,392654,97
94,test,1,inc,1,m,Fri Feb 21 2025 09:09:45 GMT-0600 (Central Standard Time),399146.59999999776,lime,800,I,m,m,None,690,490.0,200.0,101,1,2028.199999999255,397118.3999999985,8031,gold,NF,C,394189,394189,392659,393473,392660,394688,393988,393988,394688,98
95,test,1,con,1,z,Fri Feb 21 2025 09:09:45 GMT-0600 (Central Standard Time),401062.799999997,raisin,900,I,z,z,None,494,295.0,199.0,26,1,1911.699999999255,399151.09999999776,8031,raisin,NF,C,396304,396304,394692,395604,394693,396604,396105,396105,396604,99
96,test,1,con,1,m,Fri Feb 21 2025 09:09:45 GMT-0600 (Central Standard Time),402962.0,lead,800,I,m,m,None,558,357.0,201.0,121,1,1894.5,401067.5,8031,lead,NF,C,398138,398138,396609,397421,396609,398503,397936,397936,398503,100
97,test,1,con,1,m,Fri Feb 21 2025 09:09:45 GMT-0600 (Central Standard Time),405177.69999999925,cobalt,1100,I,m,m,None,568,366.0,202.0,92,1,2212.0,402965.69999999925,8031,cobalt,NF,C,400337,400337,398507,399622,398507,400719,400135,400135,400719,101
98,test,1,con,1,m,Fri Feb 21 2025 09:09:45 GMT-0600 (Central Standard Time),407360.19999999925,bronze,1100,I,m,m,None,542,343.0,199.0,68,1,2177.10000000149,405183.09999999776,8031,bronze,NF,C,402552,402552,400724,401836,400724,402901,402353,402353,402901,102
99,test,1,con,1,m,Fri Feb 21 2025 09:09:45 GMT-0600 (Central Standard Time),409409.3999999985,cobalt,1000,I,m,m,None,506,307.0,199.0,91,1,2043.1000000014901,407366.299999997,8031,cobalt,NF,C,404636,404636,402907,403919,402908,404950,404436,404436,404950,103
100,test,1,inc,1,z,Fri Feb 21 2025 09:09:45 GMT-0600 (Central Standard Time),411526.0,silver,1000,I,z,z,None,569,354.0,215.0,15,1,2112.400000002235,409413.59999999776,8031,cherry,NF,C,406701,406701,404955,405969,404955,407067,406486,406486,407067,104
101,test,1,inc,1,z,Fri Feb 21 2025 09:09:45 GMT-0600 (Central Standard Time),413493.19999999925,iron,900,I,z,z,None,547,333.0,214.0,46,1,1962.199999999255,411531.0,8031,pear,NF,C,408701,408701,407072,407984,407072,409034,408486,408486,409034,105
102,test,1,con,1,m,Fri Feb 21 2025 09:09:45 GMT-0600 (Central Standard Time),415724.8999999985,copper,1100,I,m,m,None,599,399.0,200.0,76,1,2225.89999999851,413499.0,8031,copper,NF,C,410866,410866,409040,410151,409040,411266,410666,410666,411266,106
103,test,1,inc,1,m,Fri Feb 21 2025 09:09:45 GMT-0600 (Central Standard Time),417957.69999999925,raisin,1100,I,m,m,None,600,399.0,201.0,72,1,2227.900000002235,415729.799999997,8031,bronze,NF,C,413099,413099,411271,412383,411271,413499,412898,412898,413499,107
104,test,1,inc,1,z,Fri Feb 21 2025 09:09:45 GMT-0600 (Central Standard Time),419925.5,copper,900,I,z,z,None,535,335.0,200.0,6,1,1962.7000000029802,417962.799999997,8031,banana,NF,C,415131,415131,413504,414417,413504,415467,414931,414931,415467,108
105,test,1,con,1,m,Fri Feb 21 2025 09:09:45 GMT-0600 (Central Standard Time),421888.799999997,zinc,900,I,m,m,None,525,325.0,200.0,114,1,1959.199999999255,419929.59999999776,8031,zinc,NF,C,417098,417098,415471,416381,415471,417430,416897,416897,417430,109
106,test,1,con,1,z,Fri Feb 21 2025 09:09:45 GMT-0600 (Central Standard Time),424522.3999999985,banana,1100,I,z,z,None,1014,799.0,215.0,4,1,2629.0,421893.3999999985,8031,banana,NF,C,419264,419264,417434,418546,417435,420063,419049,419049,420063,110
107,test,1,inc,1,m,Fri Feb 21 2025 09:09:45 GMT-0600 (Central Standard Time),426737.09999999776,plum,1100,I,m,m,None,575,374.0,201.0,112,1,2208.199999999255,424528.8999999985,8031,iron,NF,C,421897,421897,420070,421180,420070,422278,421695,421695,422278,111
108,test,1,inc,1,z,Fri Feb 21 2025 09:09:45 GMT-0600 (Central Standard Time),428870.09999999776,cobalt,1100,I,z,z,None,496,294.0,202.0,32,1,2128.39999999851,426741.69999999925,8031,raisin,NF,C,424112,424113,422283,423395,422283,424411,423910,423910,424411,112
109,test,1,inc,1,z,Fri Feb 21 2025 09:09:45 GMT-0600 (Central Standard Time),430802.19999999925,bronze,800,I,z,z,None,596,397.0,199.0,5,1,1927.1000000014901,428875.09999999776,8031,banana,NF,C,425929,425929,424416,425228,424416,426343,425729,425729,426343,113
110,test,1,inc,1,m,Fri Feb 21 2025 09:09:45 GMT-0600 (Central Standard Time),432802.59999999776,kiwi,1000,I,m,m,None,457,257.0,200.0,111,1,1995.0999999977648,430807.5,8031,iron,NF,C,428078,428078,426349,427362,426349,428344,427878,427878,428344,114
111,test,1,con,1,z,Fri Feb 21 2025 09:09:45 GMT-0600 (Central Standard Time),434969.799999997,orange,1100,I,z,z,None,515,316.0,199.0,20,1,2162.5,432807.299999997,8031,orange,NF,C,430178,430178,428348,429461,428349,430511,429978,429978,430511,115
112,test,1,inc,1,m,Fri Feb 21 2025 09:09:45 GMT-0600 (Central Standard Time),436784.3999999985,banana,800,I,m,m,None,475,260.0,215.0,69,1,1810.0,434974.3999999985,8031,bronze,NF,C,432059,432059,430515,431327,430516,432325,431844,431844,432325,116
113,test,1,inc,1,m,Fri Feb 21 2025 09:09:45 GMT-0600 (Central Standard Time),438800.5,lime,800,I,m,m,None,667,467.0,200.0,117,1,2011.7000000029802,436788.799999997,8031,zinc,NF,C,433860,433860,432330,433143,432330,434342,433660,433660,434341,117
114,test,1,inc,1,z,Fri Feb 21 2025 09:09:45 GMT-0600 (Central Standard Time),440966.799999997,zinc,1000,I,z,z,None,627,428.0,199.0,63,1,2159.7999999970198,438807.0,8031,plum,NF,C,436075,436075,434348,435358,434348,436508,435875,435875,436508,118
115,test,1,con,1,m,Fri Feb 21 2025 09:09:45 GMT-0600 (Central Standard Time),443131.8999999985,bronze,900,I,m,m,None,737,521.0,216.0,66,1,2160.800000000745,440971.09999999776,8031,bronze,NF,C,438142,438142,436512,437424,436512,438673,437926,437926,438673,119
116,test,1,con,1,m,Fri Feb 21 2025 09:09:45 GMT-0600 (Central Standard Time),445266.19999999925,iron,1100,I,m,m,None,492,292.0,200.0,108,1,2130.0,443136.19999999925,8031,iron,NF,C,440507,440507,438677,439792,438678,440807,440307,440307,440807,120
117,test,1,inc,1,z,Fri Feb 21 2025 09:09:45 GMT-0600 (Central Standard Time),447332.59999999776,silver,1000,I,z,z,None,534,334.0,200.0,23,1,2063.599999997765,445269.0,8031,orange,NF,C,442539,442539,440810,441823,440810,442874,442338,442339,442874,121
118,test,1,con,1,m,Fri Feb 21 2025 09:09:45 GMT-0600 (Central Standard Time),449347.5,cobalt,900,I,m,m,None,572,373.0,199.0,90,1,2010.6000000014901,447336.8999999985,8031,cobalt,NF,C,444505,444506,442878,443790,442878,444889,444306,444306,444888,122
119,test,1,con,1,m,Fri Feb 21 2025 09:09:45 GMT-0600 (Central Standard Time),451346.69999999925,bronze,1000,I,m,m,None,456,256.0,200.0,67,1,1993.199999999255,449353.5,8031,bronze,NF,C,446622,446622,444895,445905,444895,446888,446422,446422,446888,123
120,test,1,con,1,m,Fri Feb 21 2025 09:09:45 GMT-0600 (Central Standard Time),453245.69999999925,gold,900,I,m,m,None,452,253.0,199.0,98,1,1893.9000000022352,451351.799999997,8031,gold,NF,C,448521,448521,446893,447805,446893,448787,448322,448322,448787,124
121,test,1,con,1,z,Fri Feb 21 2025 09:09:45 GMT-0600 (Central Standard Time),455411.8999999985,lime,1100,I,z,z,None,522,307.0,215.0,36,1,2161.300000000745,453250.59999999776,8031,lime,NF,C,450636,450636,448792,449905,448792,450953,450421,450421,450953,125
122,test,1,con,1,z,Fri Feb 21 2025 09:09:45 GMT-0600 (Central Standard Time),457311.3999999985,raisin,1000,I,z,z,None,376,176.0,200.0,27,1,1895.1000000014901,455416.299999997,8031,raisin,NF,C,452671,452671,450957,451969,450958,452853,452471,452471,452852,126
123,test,1,con,1,m,Fri Feb 21 2025 09:09:45 GMT-0600 (Central Standard Time),459260.59999999776,lead,1000,I,m,m,None,414,215.0,199.0,123,1,1943.5,457317.09999999776,8031,lead,NF,C,454585,454585,452858,453869,452858,454802,454386,454386,454802,127
124,test,1,con,1,z,Fri Feb 21 2025 09:09:45 GMT-0600 (Central Standard Time),461144.19999999925,pear,1000,I,z,z,None,342,128.0,214.0,43,1,1878.800000000745,459265.3999999985,8031,pear,NF,C,456551,456551,454806,455819,454807,456685,456337,456337,456685,128
