acc_sum,block,block_c,condition,correct,correct_response,datetime,endtime,flanker,jitter,project,response,response_test_buffer_response,response_test_target_response,response_time,response_time_test_buffer_response,response_time_test_target_response,row_sel,session_number,start_end,starttime,subject_id,target,task,task_vers,time_test_buffer,time_test_buffer_response,time_test_constants,time_test_flanker,time_test_jitter,time_test_logger,time_test_target,time_test_target_response,time_test_variables,trial
1,prac,1,con,1,m,Tue Apr 22 2025 09:11:44 GMT-0500 (Central Daylight Time),91102.10000000894,zinc,1000,I,m,,,925,,,15,2,3228.1000000089407,87874.0,8031,zinc,NF,C,,,,,,,,,,1
2,prac,1,inc,1,m,Tue Apr 22 2025 09:11:44 GMT-0500 (Central Daylight Time),94001.29999999702,pear,900,I,m,,,699,,,14,2,2893.8999999910593,91107.40000000596,8031,iron,NF,C,,,,,,,,,,2
3,prac,1,con,1,m,Tue Apr 22 2025 09:11:44 GMT-0500 (Central Daylight Time),96850.29999999702,silver,1000,I,m,,,548,,,11,2,2844.2999999970198,94006.0,8031,silver,NF,C,,,,,,,,,,3
4,prac,1,inc,1,z,Tue Apr 22 2025 09:11:44 GMT-0500 (Central Daylight Time),99666.10000000894,copper,900,I,z,,,614,,,2,2,2811.300000011921,96854.79999999702,8031,cherry,NF,C,,,,,,,,,,4
5,prac,1,con,1,m,Tue Apr 22 2025 09:11:44 GMT-0500 (Central Daylight Time),102248.5,bronze,800,I,m,,,475,,,9,2,2577.7999999970198,99670.70000000298,8031,bronze,NF,C,,,,,,,,,,5
6,prac,1,inc,1,z,Tue Apr 22 2025 09:11:44 GMT-0500 (Central Daylight Time),105265.0,lead,1100,I,z,,,616,,,8,2,3011.8999999910593,102253.10000000894,8031,plum,NF,C,,,,,,,,,,6
7,prac,1,inc,1,m,Tue Apr 22 2025 09:11:44 GMT-0500 (Central Daylight Time),108263.29999999702,plum,1100,I,m,,,584,,,16,2,2994.3999999910593,105268.90000000596,8031,lead,NF,C,,,,,,,,,,7
8,prac,1,con,1,z,Tue Apr 22 2025 09:11:44 GMT-0500 (Central Daylight Time),111112.5,orange,1000,I,z,,,549,,,3,2,2844.8999999910593,108267.60000000894,8031,orange,NF,C,,,,,,,,,,8
9,prac,1,con,1,z,Tue Apr 22 2025 09:11:44 GMT-0500 (Central Daylight Time),113761.70000000298,banana,800,I,z,,,548,,,1,2,2644.9000000059605,111116.79999999702,8031,banana,NF,C,,,,,,,,,,9
9,prac,1,con,0,m,Tue Apr 22 2025 09:11:44 GMT-0500 (Central Daylight Time),116344.10000000894,gold,800,I,z,,,474,,,13,2,2578.1000000089407,113766.0,8031,gold,NF,C,,,,,,,,,,10
10,prac,1,inc,1,m,Tue Apr 22 2025 09:11:44 GMT-0500 (Central Daylight Time),119309.90000000596,raisin,1100,I,m,,,560,,,12,2,2961.2000000029802,116348.70000000298,8031,cobalt,NF,C,,,,,,,,,,11
11,prac,1,con,1,z,Tue Apr 22 2025 09:11:44 GMT-0500 (Central Daylight Time),122042.5,kiwi,1000,I,z,,,430,,,7,2,2728.0999999940395,119314.40000000596,8031,kiwi,NF,C,,,,,,,,,,12
12,prac,1,inc,1,z,Tue Apr 22 2025 09:11:44 GMT-0500 (Central Daylight Time),124974.79999999702,cobalt,1100,I,z,,,526,,,4,2,2928.199999988079,122046.60000000894,8031,raisin,NF,C,,,,,,,,,,13
13,prac,1,con,1,z,Tue Apr 22 2025 09:11:44 GMT-0500 (Central Daylight Time),127523.90000000596,lime,800,I,z,,,437,,,5,2,2544.7999999970198,124979.10000000894,8031,lime,NF,C,,,,,,,,,,14
13,prac,1,inc,0,z,Tue Apr 22 2025 09:11:44 GMT-0500 (Central Daylight Time),130123.10000000894,iron,900,I,m,,,396,,,6,2,2594.7000000029802,127528.40000000596,8031,pear,NF,C,,,,,,,,,,15
14,prac,1,inc,1,m,Tue Apr 22 2025 09:11:44 GMT-0500 (Central Daylight Time),132922.10000000894,cherry,900,I,m,,,598,,,10,2,2794.9000000059605,130127.20000000298,8031,copper,NF,C,,,,,,,,,,16
1,test,1,inc,1,z,Tue Apr 22 2025 09:11:44 GMT-0500 (Central Daylight Time),149333.79999999702,silver,1000,I,z,z,None,570,371.0,199.0,23,2,2112.7999999970198,147221.0,8031,orange,NF,C,144243,144243,142513,143526,142513,144626,144043,144043,144626,1
2,test,1,con,1,z,Tue Apr 22 2025 09:11:44 GMT-0500 (Central Daylight Time),151233.10000000894,banana,900,I,z,z,None,449,250.0,199.0,2,2,1894.4000000059605,149338.70000000298,8031,banana,NF,C,146259,146259,144631,145542,144631,146525,146059,146059,146525,2
3,test,1,con,1,m,Tue Apr 22 2025 09:11:44 GMT-0500 (Central Daylight Time),153300.20000000298,bronze,1100,I,m,m,None,432,232.0,200.0,68,2,2062.9000000059605,151237.29999999702,8031,bronze,NF,C,148358,148358,146529,147642,146530,148592,148158,148158,148592,3
4,test,1,con,1,m,Tue Apr 22 2025 09:11:44 GMT-0500 (Central Daylight Time),155681.79999999702,silver,1100,I,m,m,None,742,542.0,200.0,84,2,2377.5999999940395,153304.20000000298,8031,silver,NF,C,150424,150424,148596,149708,148597,150974,150224,150224,150974,4
5,test,1,con,1,z,Tue Apr 22 2025 09:11:44 GMT-0500 (Central Daylight Time),157514.40000000596,cherry,900,I,z,z,None,398,199.0,199.0,10,2,1828.7999999970198,155685.60000000894,8031,cherry,NF,C,152607,152607,150978,151892,150978,152806,152407,152407,152806,5
6,test,1,con,1,z,Tue Apr 22 2025 09:11:44 GMT-0500 (Central Daylight Time),159364.0,plum,800,I,z,z,None,506,307.0,199.0,57,2,1845.3999999910593,157518.60000000894,8031,plum,NF,C,154339,154339,152811,153623,152811,154656,154140,154140,154656,6
7,test,1,con,1,z,Tue Apr 22 2025 09:11:44 GMT-0500 (Central Daylight Time),161360.20000000298,kiwi,900,I,z,z,None,563,363.0,200.0,50,2,1992.0999999940395,159368.10000000894,8031,kiwi,NF,C,156289,156289,154660,155573,154661,156652,156089,156089,156652,7
8,test,1,con,1,m,Tue Apr 22 2025 09:11:44 GMT-0500 (Central Daylight Time),163362.79999999702,iron,900,I,m,m,None,558,358.0,200.0,106,2,1998.199999988079,161364.60000000894,8031,iron,NF,C,158288,158288,156657,157572,156657,158655,158088,158088,158655,8
9,test,1,con,1,z,Tue Apr 22 2025 09:11:44 GMT-0500 (Central Daylight Time),165445.20000000298,plum,1000,I,z,z,None,537,338.0,199.0,59,2,2078.2000000029802,163367.0,8031,plum,NF,C,160388,160388,158659,159671,158659,160737,160188,160188,160737,9
10,test,1,inc,1,z,Tue Apr 22 2025 09:11:44 GMT-0500 (Central Daylight Time),167361.20000000298,bronze,800,I,z,z,None,574,375.0,199.0,21,2,1912.0,165449.20000000298,8031,orange,NF,C,162270,162271,160741,161554,160742,162653,162071,162071,162653,10
11,test,1,con,1,m,Tue Apr 22 2025 09:11:44 GMT-0500 (Central Daylight Time),169427.0,zinc,1100,I,m,m,None,424,224.0,200.0,116,2,2061.5,167365.5,8031,zinc,NF,C,164486,164486,162658,163770,162658,164719,164286,164286,164719,11
12,test,1,inc,1,z,Tue Apr 22 2025 09:11:44 GMT-0500 (Central Daylight Time),171626.5,lead,1100,I,z,z,None,564,365.0,199.0,40,2,2195.0999999940395,169431.40000000596,8031,lime,NF,C,166552,166553,164723,165836,164724,166919,166353,166353,166919,12
13,test,1,inc,1,m,Tue Apr 22 2025 09:11:44 GMT-0500 (Central Daylight Time),173475.90000000596,banana,800,I,m,m,None,513,314.0,199.0,93,2,1845.4000000059605,171630.5,8031,cobalt,NF,C,168452,168452,166923,167735,166923,168768,168252,168252,168768,13
14,test,1,con,1,m,Tue Apr 22 2025 09:11:44 GMT-0500 (Central Daylight Time),175608.79999999702,gold,1100,I,m,m,None,493,293.0,200.0,100,2,2128.2999999970198,173480.5,8031,gold,NF,C,170601,170601,168773,169885,168773,170901,170401,170401,170901,14
15,test,1,con,1,m,Tue Apr 22 2025 09:11:44 GMT-0500 (Central Daylight Time),177658.10000000894,iron,800,I,m,m,None,716,516.0,200.0,105,2,2045.4000000059605,175612.70000000298,8031,iron,NF,C,172434,172434,170905,171717,170905,172950,172234,172234,172950,15
16,test,1,con,1,z,Tue Apr 22 2025 09:11:44 GMT-0500 (Central Daylight Time),179774.10000000894,orange,900,I,z,z,None,679,479.0,200.0,18,2,2112.2000000029802,177661.90000000596,8031,orange,NF,C,174583,174583,172954,173867,172954,175066,174383,174383,175066,16
17,test,1,con,1,m,Tue Apr 22 2025 09:11:44 GMT-0500 (Central Daylight Time),181723.5,gold,800,I,m,m,None,613,413.0,200.0,97,2,1945.2000000029802,179778.29999999702,8031,gold,NF,C,176601,176601,175070,175883,175071,177016,176400,176400,177015,17
18,test,1,inc,1,z,Tue Apr 22 2025 09:11:44 GMT-0500 (Central Daylight Time),183906.20000000298,lead,1100,I,z,z,None,549,350.0,199.0,48,2,2178.7999999970198,181727.40000000596,8031,pear,NF,C,178848,178848,177019,178132,177020,179198,178649,178649,179198,18
19,test,1,inc,1,m,Tue Apr 22 2025 09:11:44 GMT-0500 (Central Daylight Time),186188.79999999702,orange,1000,I,m,m,None,647,447.0,200.0,87,2,2279.0,183909.79999999702,8031,silver,NF,C,181031,181031,179202,180326,179202,181481,180831,180831,181481,19
20,test,1,con,1,z,Tue Apr 22 2025 09:11:44 GMT-0500 (Central Daylight Time),188238.29999999702,raisin,1100,I,z,z,None,412,212.0,200.0,28,2,2045.5,186192.79999999702,8031,raisin,NF,C,183314,183314,181485,182598,181485,183530,183114,183114,183530,20
21,test,1,inc,1,z,Tue Apr 22 2025 09:11:44 GMT-0500 (Central Daylight Time),190687.29999999702,cobalt,1100,I,z,z,None,803,603.0,200.0,24,2,2445.0,188242.29999999702,8031,orange,NF,C,185363,185363,183534,184647,183535,185979,185163,185163,185979,21
21,test,1,con,0,z,Tue Apr 22 2025 09:11:44 GMT-0500 (Central Daylight Time),192586.90000000596,lime,900,I,m,m,None,456,257.0,199.0,34,2,1893.9000000059605,190693.0,8031,lime,NF,C,187613,187613,185985,186896,185985,187879,187413,187413,187879,22
22,test,1,inc,1,m,Tue Apr 22 2025 09:11:44 GMT-0500 (Central Daylight Time),194536.20000000298,lime,800,I,m,m,None,602,402.0,200.0,117,2,1945.0999999940395,192591.10000000894,8031,zinc,NF,C,189412,189412,187883,188696,187884,189828,189212,189212,189828,23
23,test,1,inc,1,m,Tue Apr 22 2025 09:11:44 GMT-0500 (Central Daylight Time),196451.90000000596,lime,800,I,m,m,None,579,380.0,199.0,125,2,1911.7000000029802,194540.20000000298,8031,lead,NF,C,191362,191362,189832,190645,189833,191744,191162,191162,191744,24
24,test,1,con,1,m,Tue Apr 22 2025 09:11:44 GMT-0500 (Central Daylight Time),198451.70000000298,copper,1000,I,m,m,None,457,257.0,200.0,75,2,1996.0,196455.70000000298,8031,copper,NF,C,193477,193477,191748,192761,191748,193744,193277,193277,193744,25
25,test,1,con,1,m,Tue Apr 22 2025 09:11:44 GMT-0500 (Central Daylight Time),200467.70000000298,gold,1000,I,m,m,None,472,273.0,199.0,99,2,2012.0,198455.70000000298,8031,gold,NF,C,195477,195477,193748,194760,193748,195760,195277,195277,195760,26
26,test,1,inc,1,z,Tue Apr 22 2025 09:11:44 GMT-0500 (Central Daylight Time),202433.70000000298,zinc,1000,I,z,z,None,424,225.0,199.0,63,2,1961.7999999970198,200471.90000000596,8031,plum,NF,C,197493,197493,195764,196776,195764,197726,197293,197293,197726,27
27,test,1,inc,1,z,Tue Apr 22 2025 09:11:44 GMT-0500 (Central Daylight Time),204616.20000000298,cobalt,1100,I,z,z,None,534,335.0,199.0,32,2,2178.4000000059605,202437.79999999702,8031,raisin,NF,C,199559,199559,197730,198842,197730,199908,199359,199359,199908,28
28,test,1,inc,1,m,Tue Apr 22 2025 09:11:44 GMT-0500 (Central Daylight Time),206599.10000000894,kiwi,1000,I,m,m,None,444,245.0,199.0,127,2,1979.300000011921,204619.79999999702,8031,lead,NF,C,201641,201641,199912,200925,199912,201891,201442,201442,201891,29
29,test,1,con,1,z,Tue Apr 22 2025 09:11:44 GMT-0500 (Central Daylight Time),208682.29999999702,orange,1100,I,z,z,None,442,213.0,229.0,20,2,2079.2999999970198,206603.0,8031,orange,NF,C,203753,203753,201895,203008,201895,203974,203524,203524,203974,30
30,test,1,con,1,m,Tue Apr 22 2025 09:11:44 GMT-0500 (Central Daylight Time),210564.40000000596,bronze,900,I,m,m,None,447,247.0,200.0,66,2,1877.9000000059605,208686.5,8031,bronze,NF,C,205607,205607,203979,204891,203979,205857,205407,205407,205856,31
31,test,1,con,1,z,Tue Apr 22 2025 09:11:44 GMT-0500 (Central Daylight Time),212613.70000000298,banana,1100,I,z,z,None,403,204.0,199.0,4,2,2045.2000000029802,210568.5,8031,banana,NF,C,207689,207690,205861,206973,205861,207906,207490,207490,207906,32
32,test,1,inc,1,m,Tue Apr 22 2025 09:11:44 GMT-0500 (Central Daylight Time),214829.90000000596,plum,1100,I,m,m,None,571,371.0,200.0,128,2,2212.6000000089407,212617.29999999702,8031,lead,NF,C,209739,209739,207909,209022,207910,210122,209539,209539,210122,33
33,test,1,con,1,z,Tue Apr 22 2025 09:11:44 GMT-0500 (Central Daylight Time),216662.60000000894,cherry,800,I,z,z,None,495,295.0,200.0,9,2,1829.0,214833.60000000894,8031,cherry,NF,C,211655,211655,210126,210939,210126,211955,211455,211455,211955,34
34,test,1,con,1,m,Tue Apr 22 2025 09:11:44 GMT-0500 (Central Daylight Time),218411.90000000596,lead,800,I,m,m,None,413,214.0,199.0,121,2,1745.2999999970198,216666.60000000894,8031,lead,NF,C,213488,213488,211959,212771,211959,213704,213288,213288,213704,35
35,test,1,con,1,z,Tue Apr 22 2025 09:11:44 GMT-0500 (Central Daylight Time),220261.29999999702,banana,800,I,z,z,None,505,305.0,200.0,1,2,1845.699999988079,218415.60000000894,8031,banana,NF,C,215237,215237,213708,214521,213708,215553,215037,215037,215553,36
35,test,1,inc,0,z,Tue Apr 22 2025 09:11:44 GMT-0500 (Central Daylight Time),222010.60000000894,bronze,800,I,m,m,None,414,215.0,199.0,29,2,1745.5,220265.10000000894,8031,raisin,NF,C,217087,217087,215557,216370,215557,217303,216887,216887,217303,37
36,test,1,inc,1,z,Tue Apr 22 2025 09:11:44 GMT-0500 (Central Daylight Time),224243.5,zinc,1000,I,z,z,None,698,498.0,200.0,39,2,2229.2000000029802,222014.29999999702,8031,lime,NF,C,219036,219036,217306,218320,217307,219536,218836,218836,219535,38
37,test,1,con,1,m,Tue Apr 22 2025 09:11:44 GMT-0500 (Central Daylight Time),226142.79999999702,gold,900,I,m,m,None,453,254.0,199.0,98,2,1895.5,224247.29999999702,8031,gold,NF,C,221168,221168,219539,220452,219540,221435,220969,220969,221435,39
38,test,1,con,1,z,Tue Apr 22 2025 09:11:44 GMT-0500 (Central Daylight Time),228175.70000000298,raisin,1000,I,z,z,None,486,286.0,200.0,27,2,2028.9000000059605,226146.79999999702,8031,raisin,NF,C,223168,223168,221439,222451,221439,223468,222968,222968,223468,40
39,test,1,inc,1,m,Tue Apr 22 2025 09:11:44 GMT-0500 (Central Daylight Time),230391.5,raisin,1100,I,m,m,None,577,377.0,200.0,88,2,2211.7999999970198,228179.70000000298,8031,silver,NF,C,225300,225300,223472,224584,223472,225684,225100,225100,225684,41
40,test,1,con,1,m,Tue Apr 22 2025 09:11:44 GMT-0500 (Central Daylight Time),232292.70000000298,bronze,800,I,m,m,None,550,238.0,312.0,65,2,1897.4000000059605,230395.29999999702,8031,bronze,NF,C,227329,227329,225687,226500,225688,227585,227017,227017,227585,42
41,test,1,inc,1,m,Tue Apr 22 2025 09:11:44 GMT-0500 (Central Daylight Time),234306.70000000298,cherry,900,I,m,m,None,582,382.0,200.0,70,2,2010.2999999970198,232296.40000000596,8031,bronze,NF,C,229216,229216,227588,228500,227589,229599,229016,229016,229599,43
42,test,1,con,1,m,Tue Apr 22 2025 09:11:44 GMT-0500 (Central Daylight Time),236439.5,iron,1100,I,m,m,None,486,286.0,200.0,108,2,2129.0999999940395,234310.40000000596,8031,iron,NF,C,231432,231432,229602,230715,229603,231732,231232,231232,231731,44
43,test,1,con,1,z,Tue Apr 22 2025 09:11:44 GMT-0500 (Central Daylight Time),238488.90000000596,pear,1100,I,z,z,None,408,209.0,199.0,44,2,2045.2000000029802,236443.70000000298,8031,pear,NF,C,233565,233565,231736,232848,231736,233781,233365,233365,233781,45
44,test,1,inc,1,z,Tue Apr 22 2025 09:11:44 GMT-0500 (Central Daylight Time),240388.29999999702,gold,800,I,z,z,None,556,355.0,201.0,37,2,1895.5999999940395,238492.70000000298,8031,lime,NF,C,235315,235315,233785,234598,233785,235680,235114,235114,235680,46
45,test,1,inc,1,m,Tue Apr 22 2025 09:11:44 GMT-0500 (Central Daylight Time),242854.10000000894,kiwi,1000,I,m,m,None,919,720.0,199.0,103,2,2462.0,240392.10000000894,8031,gold,NF,C,237414,237414,235684,236697,235684,238146,237214,237214,238146,47
46,test,1,inc,1,m,Tue Apr 22 2025 09:11:44 GMT-0500 (Central Daylight Time),244886.90000000596,pear,900,I,m,m,None,595,395.0,200.0,126,2,2029.0,242857.90000000596,8031,lead,NF,C,239779,239779,238150,239063,238150,240179,239579,239579,240179,48
47,test,1,inc,1,z,Tue Apr 22 2025 09:11:44 GMT-0500 (Central Daylight Time),246886.29999999702,copper,900,I,z,z,None,562,362.0,200.0,30,2,1995.199999988079,244891.10000000894,8031,raisin,NF,C,241812,241812,240183,241096,240183,242178,241612,241612,242178,49
48,test,1,inc,1,m,Tue Apr 22 2025 09:11:44 GMT-0500 (Central Daylight Time),249018.70000000298,orange,1000,I,m,m,None,589,390.0,199.0,71,2,2128.7999999970198,246889.90000000596,8031,bronze,NF,C,243911,243911,242182,243195,242182,244311,243712,243712,244311,50
49,test,1,inc,1,z,Tue Apr 22 2025 09:11:44 GMT-0500 (Central Daylight Time),251035.70000000298,copper,900,I,z,z,None,582,382.0,200.0,14,2,2011.7000000029802,249024.0,8031,cherry,NF,C,245944,245944,244316,245228,244316,246328,245744,245744,246328,51
50,test,1,inc,1,m,Tue Apr 22 2025 09:11:44 GMT-0500 (Central Daylight Time),253184.20000000298,banana,800,I,m,m,None,802,602.0,200.0,69,2,2144.7999999970198,251039.40000000596,8031,bronze,NF,C,247860,247860,246331,247144,246332,248476,247660,247660,248476,52
51,test,1,inc,1,z,Tue Apr 22 2025 09:11:44 GMT-0500 (Central Daylight Time),255266.60000000894,iron,900,I,z,z,None,649,449.0,200.0,62,2,2078.800000011921,253187.79999999702,8031,plum,NF,C,250109,250109,248480,249393,248480,250559,249909,249909,250559,53
52,test,1,inc,1,m,Tue Apr 22 2025 09:11:44 GMT-0500 (Central Daylight Time),257482.5,pear,900,I,m,m,None,773,573.0,200.0,118,2,2212.0999999940395,255270.40000000596,8031,zinc,NF,C,252192,252192,250562,251476,250563,252775,251992,251992,252775,54
53,test,1,con,1,z,Tue Apr 22 2025 09:11:44 GMT-0500 (Central Daylight Time),259799.10000000894,cherry,1100,I,z,z,None,677,478.0,199.0,12,2,2312.7000000029802,257486.40000000596,8031,cherry,NF,C,254608,254608,252778,253891,252779,255091,254409,254409,255091,55
54,test,1,con,1,m,Tue Apr 22 2025 09:11:44 GMT-0500 (Central Daylight Time),262014.90000000596,bronze,1000,I,m,m,None,670,470.0,200.0,67,2,2211.9000000059605,259803.0,8031,bronze,NF,C,256824,256824,255095,256108,255095,257307,256624,256624,257307,56
55,test,1,inc,1,m,Tue Apr 22 2025 09:11:44 GMT-0500 (Central Daylight Time),264247.60000000894,kiwi,1000,I,m,m,None,686,486.0,200.0,119,2,2229.0,262018.60000000894,8031,zinc,NF,C,259040,259040,257311,258324,257311,259540,258840,258840,259540,57
56,test,1,con,1,z,Tue Apr 22 2025 09:11:44 GMT-0500 (Central Daylight Time),266263.799999997,kiwi,800,I,z,z,None,676,477.0,199.0,49,2,2012.5999999940395,264251.200000003,8031,kiwi,NF,C,261073,261073,259543,260356,259544,261556,260873,260873,261556,58
57,test,1,con,1,z,Tue Apr 22 2025 09:11:44 GMT-0500 (Central Daylight Time),268729.5,lime,1100,I,z,z,None,825,626.0,199.0,36,2,2461.5,266268.0,8031,lime,NF,C,263388,263388,261560,262672,261560,264022,263189,263189,264021,59
58,test,1,inc,1,z,Tue Apr 22 2025 09:11:44 GMT-0500 (Central Daylight Time),270695.5,bronze,800,I,z,z,None,618,419.0,199.0,5,2,1962.2999999970198,268733.200000003,8031,banana,NF,C,265555,265555,264025,264838,264026,265988,265355,265355,265987,60
59,test,1,inc,1,m,Tue Apr 22 2025 09:11:44 GMT-0500 (Central Daylight Time),272961.40000000596,raisin,1100,I,m,m,None,616,417.0,199.0,72,2,2262.2000000029802,270699.200000003,8031,bronze,NF,C,267821,267821,265991,267104,265991,268254,267621,267621,268253,61
60,test,1,con,1,z,Tue Apr 22 2025 09:11:44 GMT-0500 (Central Daylight Time),274727.60000000894,lime,800,I,z,z,None,427,228.0,199.0,33,2,1762.300000011921,272965.299999997,8031,lime,NF,C,269786,269786,268257,269070,268258,270020,269587,269587,270020,62
61,test,1,inc,1,m,Tue Apr 22 2025 09:11:44 GMT-0500 (Central Daylight Time),276927.200000003,raisin,1100,I,m,m,None,552,353.0,199.0,96,2,2195.7000000029802,274731.5,8031,cobalt,NF,C,271853,271853,270023,271136,270024,272219,271653,271653,272219,63
62,test,1,inc,1,z,Tue Apr 22 2025 09:11:44 GMT-0500 (Central Daylight Time),279138.200000003,silver,1000,I,z,z,None,678,478.0,200.0,7,2,2207.4000000059605,276930.799999997,8031,banana,NF,C,273952,273952,272223,273236,272223,274430,273752,273752,274430,64
63,test,1,inc,1,z,Tue Apr 22 2025 09:11:44 GMT-0500 (Central Daylight Time),281342.10000000894,lead,1100,I,z,z,None,553,354.0,199.0,64,2,2199.800000011921,279142.299999997,8031,plum,NF,C,276268,276268,274434,275551,274435,276634,276068,276068,276634,65
64,test,1,inc,1,m,Tue Apr 22 2025 09:11:44 GMT-0500 (Central Daylight Time),283274.700000003,cherry,900,I,m,m,None,499,299.0,200.0,94,2,1928.7000000029802,281346.0,8031,cobalt,NF,C,278267,278267,276638,277551,276638,278567,278067,278067,278567,66
65,test,1,con,1,m,Tue Apr 22 2025 09:11:44 GMT-0500 (Central Daylight Time),285174.200000003,copper,900,I,m,m,None,454,254.0,200.0,74,2,1895.9000000059605,283278.299999997,8031,copper,NF,C,280200,280200,278570,279484,278571,280466,280000,280000,280466,67
66,test,1,inc,1,z,Tue Apr 22 2025 09:11:44 GMT-0500 (Central Daylight Time),287090.299999997,gold,800,I,z,z,None,566,367.0,199.0,61,2,1912.0999999940395,285178.200000003,8031,plum,NF,C,281999,281999,280470,281283,280471,282382,281800,281800,282382,68
67,test,1,con,1,m,Tue Apr 22 2025 09:11:44 GMT-0500 (Central Daylight Time),289023.0,lead,900,I,m,m,None,485,286.0,199.0,122,2,1928.7999999970198,287094.200000003,8031,lead,NF,C,284016,284016,282386,283299,282387,284315,283815,283816,284315,69
68,test,1,inc,1,z,Tue Apr 22 2025 09:11:44 GMT-0500 (Central Daylight Time),291072.40000000596,iron,900,I,z,z,None,601,402.0,199.0,38,2,2045.7999999970198,289026.60000000894,8031,lime,NF,C,285948,285948,284319,285231,284319,286365,285749,285749,286364,70
69,test,1,inc,1,m,Tue Apr 22 2025 09:11:44 GMT-0500 (Central Daylight Time),292988.40000000596,lime,800,I,m,m,None,571,372.0,199.0,101,2,1912.2999999970198,291076.10000000894,8031,gold,NF,C,287898,287898,286368,287181,286368,288281,287698,287698,288280,71
70,test,1,inc,1,m,Tue Apr 22 2025 09:11:44 GMT-0500 (Central Daylight Time),295171.10000000894,raisin,1100,I,m,m,None,540,341.0,199.0,80,2,2179.1000000089407,292992.0,8031,copper,NF,C,290113,290113,288284,289397,288284,290463,289914,289914,290463,72
71,test,1,con,1,z,Tue Apr 22 2025 09:11:44 GMT-0500 (Central Daylight Time),297653.60000000894,orange,1000,I,z,z,None,938,738.0,200.0,19,2,2478.6000000089407,295175.0,8031,orange,NF,C,292196,292196,290467,291480,290467,292946,291996,291996,292946,73
72,test,1,con,1,m,Tue Apr 22 2025 09:11:44 GMT-0500 (Central Daylight Time),299503.10000000894,cobalt,800,I,m,m,None,511,311.0,200.0,89,2,1845.5,297657.60000000894,8031,cobalt,NF,C,294479,294479,292950,293762,292950,294795,294279,294279,294795,74
73,test,1,inc,1,z,Tue Apr 22 2025 09:11:44 GMT-0500 (Central Daylight Time),301352.60000000894,bronze,800,I,z,z,None,502,302.0,200.0,13,2,1846.0,299506.60000000894,8031,cherry,NF,C,296328,296328,294799,295612,294799,296645,296128,296128,296645,75
74,test,1,inc,1,m,Tue Apr 22 2025 09:11:44 GMT-0500 (Central Daylight Time),303218.299999997,banana,800,I,m,m,None,534,332.0,202.0,85,2,1862.0999999940395,301356.200000003,8031,silver,NF,C,298178,298178,296648,297461,296649,298510,297976,297976,298510,76
75,test,1,inc,1,m,Tue Apr 22 2025 09:11:44 GMT-0500 (Central Daylight Time),305151.40000000596,lime,800,I,m,m,None,586,386.0,200.0,109,2,1929.4000000059605,303222.0,8031,iron,NF,C,300044,300044,298514,299328,298514,300443,299844,299844,300443,77
76,test,1,inc,1,z,Tue Apr 22 2025 09:11:44 GMT-0500 (Central Daylight Time),307300.60000000894,cobalt,1100,I,z,z,None,505,306.0,199.0,8,2,2145.4000000059605,305155.200000003,8031,banana,NF,C,302276,302276,300447,301560,300448,302593,302077,302077,302593,78
77,test,1,con,1,m,Tue Apr 22 2025 09:11:44 GMT-0500 (Central Daylight Time),309483.200000003,copper,1100,I,m,m,None,547,348.0,199.0,76,2,2178.7000000029802,307304.5,8031,copper,NF,C,304426,304426,302597,303709,302597,304775,304226,304226,304775,79
78,test,1,con,1,m,Tue Apr 22 2025 09:11:44 GMT-0500 (Central Daylight Time),311616.0,cobalt,1100,I,m,m,None,486,286.0,200.0,92,2,2128.8999999910593,309487.10000000894,8031,cobalt,NF,C,306608,306608,304779,305892,304780,306908,306408,306408,306908,80
79,test,1,con,1,m,Tue Apr 22 2025 09:11:44 GMT-0500 (Central Daylight Time),313366.5,zinc,800,I,m,m,None,412,213.0,199.0,113,2,1746.7000000029802,311619.799999997,8031,zinc,NF,C,308441,308441,306912,307725,306912,308659,308241,308242,308659,81
80,test,1,con,1,z,Tue Apr 22 2025 09:11:44 GMT-0500 (Central Daylight Time),315448.200000003,kiwi,1100,I,z,z,None,442,243.0,199.0,52,2,2077.9000000059605,313370.299999997,8031,kiwi,NF,C,310491,310491,308662,309774,308663,310740,310290,310291,310740,82
81,test,1,con,1,m,Tue Apr 22 2025 09:11:44 GMT-0500 (Central Daylight Time),317680.799999997,lead,1100,I,m,m,None,585,385.0,200.0,124,2,2229.0,315451.799999997,8031,lead,NF,C,312573,312573,310744,311857,310744,312973,312373,312373,312973,83
82,test,1,inc,1,z,Tue Apr 22 2025 09:11:44 GMT-0500 (Central Daylight Time),319863.299999997,zinc,1000,I,z,z,None,643,444.0,199.0,55,2,2178.7999999970198,317684.5,8031,kiwi,NF,C,314706,314706,312977,313989,312977,315155,314506,314506,315155,84
83,test,1,inc,1,z,Tue Apr 22 2025 09:11:44 GMT-0500 (Central Daylight Time),321946.200000003,copper,900,I,z,z,None,641,442.0,199.0,22,2,2078.7999999970198,319867.40000000596,8031,orange,NF,C,316788,316788,315159,316072,315160,317238,316589,316589,317238,85
84,test,1,con,1,m,Tue Apr 22 2025 09:11:44 GMT-0500 (Central Daylight Time),323945.5,cobalt,900,I,m,m,None,551,351.0,200.0,90,2,1995.5999999940395,321949.90000000596,8031,cobalt,NF,C,318871,318871,317242,318155,317242,319238,318671,318671,319238,86
85,test,1,inc,1,z,Tue Apr 22 2025 09:11:44 GMT-0500 (Central Daylight Time),326241.799999997,cobalt,1100,I,z,z,None,661,462.0,199.0,16,2,2292.199999988079,323949.60000000894,8031,cherry,NF,C,321071,321071,319242,320354,319242,321534,320871,320871,321534,87
86,test,1,inc,1,z,Tue Apr 22 2025 09:11:44 GMT-0500 (Central Daylight Time),328377.60000000894,lead,1100,I,z,z,None,483,284.0,199.0,56,2,2131.300000011921,326246.299999997,8031,kiwi,NF,C,323370,323370,321538,322653,321539,323670,323170,323170,323670,88
87,test,1,inc,1,m,Tue Apr 22 2025 09:11:44 GMT-0500 (Central Daylight Time),330610.10000000894,plum,1100,I,m,m,None,591,392.0,199.0,104,2,2228.9000000059605,328381.200000003,8031,gold,NF,C,325502,325502,323673,324786,323674,325902,325303,325303,325902,89
88,test,1,con,1,z,Tue Apr 22 2025 09:11:44 GMT-0500 (Central Daylight Time),332526.0,raisin,900,I,z,z,None,471,271.0,200.0,26,2,1911.8999999910593,330614.10000000894,8031,raisin,NF,C,327535,327535,325906,326819,325907,327818,327335,327335,327818,90
89,test,1,inc,1,m,Tue Apr 22 2025 09:11:44 GMT-0500 (Central Daylight Time),334458.60000000894,cherry,900,I,m,m,None,499,299.0,200.0,78,2,1929.0,332529.60000000894,8031,copper,NF,C,329451,329451,327822,328735,327822,329751,329251,329251,329751,91
90,test,1,inc,1,z,Tue Apr 22 2025 09:11:44 GMT-0500 (Central Daylight Time),336391.5,copper,900,I,z,z,None,510,311.0,199.0,6,2,1929.3999999910593,334462.10000000894,8031,banana,NF,C,331367,331367,329754,330667,329754,331684,331168,331168,331684,92
91,test,1,inc,1,z,Tue Apr 22 2025 09:11:44 GMT-0500 (Central Daylight Time),338307.5,silver,1000,I,z,z,None,396,181.0,215.0,15,2,1912.5,336395.0,8031,cherry,NF,C,333416,333417,331687,332700,331687,333600,333201,333201,333600,93
92,test,1,con,1,z,Tue Apr 22 2025 09:11:44 GMT-0500 (Central Daylight Time),340290.200000003,lime,1000,I,z,z,None,440,241.0,199.0,35,2,1978.7999999970198,338311.40000000596,8031,lime,NF,C,335333,335333,333603,334616,333604,335582,335133,335133,335582,94
93,test,1,inc,1,z,Tue Apr 22 2025 09:11:44 GMT-0500 (Central Daylight Time),342356.200000003,zinc,1000,I,z,z,None,530,331.0,199.0,47,2,2062.2000000029802,340294.0,8031,pear,NF,C,337315,337315,335586,336599,335586,337648,337116,337116,337648,95
94,test,1,con,1,m,Tue Apr 22 2025 09:11:44 GMT-0500 (Central Daylight Time),344339.0,silver,900,I,m,m,None,540,341.0,199.0,82,2,1978.5999999940395,342360.40000000596,8031,silver,NF,C,339281,339281,337652,338565,337653,339631,339082,339082,339631,96
95,test,1,inc,1,z,Tue Apr 22 2025 09:11:44 GMT-0500 (Central Daylight Time),346354.700000003,silver,1000,I,z,z,None,482,282.0,200.0,31,2,2012.0,344342.700000003,8031,raisin,NF,C,341364,341364,339635,340648,339635,341647,341164,341164,341647,97
95,test,1,con,0,z,Tue Apr 22 2025 09:11:44 GMT-0500 (Central Daylight Time),349928.90000000596,kiwi,1000,I,None,None,None,1841,1841.0,200.0,51,2,3570.5,346358.40000000596,8031,kiwi,NF,C,343380,343380,341650,342664,341651,345221,343180,343180,345221,98
96,test,1,con,1,z,Tue Apr 22 2025 09:11:44 GMT-0500 (Central Daylight Time),351903.10000000894,cherry,1000,I,z,z,None,443,244.0,199.0,11,2,1968.2000000029802,349934.90000000596,8031,cherry,NF,C,346946,346946,345227,346230,345227,347195,346747,346747,347195,99
97,test,1,con,1,m,Tue Apr 22 2025 09:11:44 GMT-0500 (Central Daylight Time),354085.90000000596,zinc,1000,I,m,m,None,644,445.0,199.0,115,2,2179.2000000029802,351906.700000003,8031,zinc,NF,C,348929,348929,347199,348212,347199,349378,348729,348729,349378,100
98,test,1,con,1,z,Tue Apr 22 2025 09:11:44 GMT-0500 (Central Daylight Time),356085.299999997,orange,800,I,z,z,None,663,463.0,200.0,17,2,1995.699999988079,354089.60000000894,8031,orange,NF,C,350911,350911,349382,350195,349382,351377,350711,350711,351377,101
99,test,1,inc,1,m,Tue Apr 22 2025 09:11:44 GMT-0500 (Central Daylight Time),358134.90000000596,orange,1000,I,m,m,None,512,312.0,200.0,79,2,2045.7999999970198,356089.10000000894,8031,copper,NF,C,353110,353110,351381,352395,351381,353427,352910,352910,353427,102
100,test,1,con,1,z,Tue Apr 22 2025 09:11:44 GMT-0500 (Central Daylight Time),360084.0,pear,1000,I,z,z,None,413,214.0,199.0,43,2,1945.5999999940395,358138.40000000596,8031,pear,NF,C,355160,355160,353430,354443,353431,355376,354960,354960,355376,103
101,test,1,inc,1,z,Tue Apr 22 2025 09:11:44 GMT-0500 (Central Daylight Time),362066.90000000596,gold,800,I,z,z,None,641,441.0,200.0,45,2,1979.2999999970198,360087.60000000894,8031,pear,NF,C,356909,356909,355380,356193,355380,357359,356709,356709,357359,104
102,test,1,inc,1,m,Tue Apr 22 2025 09:11:44 GMT-0500 (Central Daylight Time),364016.40000000596,banana,800,I,m,m,None,602,402.0,200.0,77,2,1945.7999999970198,362070.60000000894,8031,copper,NF,C,358892,358892,357363,358175,357363,359308,358692,358692,359308,105
103,test,1,inc,1,z,Tue Apr 22 2025 09:11:44 GMT-0500 (Central Daylight Time),366065.5,iron,900,I,z,z,None,601,401.0,200.0,54,2,2045.2999999970198,364020.200000003,8031,kiwi,NF,C,360941,360941,359312,360225,359313,361358,360741,360741,361358,106
104,test,1,inc,1,z,Tue Apr 22 2025 09:11:44 GMT-0500 (Central Daylight Time),368098.10000000894,iron,900,I,z,z,None,583,384.0,199.0,46,2,2028.9000000059605,366069.200000003,8031,pear,NF,C,362991,362991,361361,362274,361362,363390,362791,362791,363390,107
105,test,1,con,1,m,Tue Apr 22 2025 09:11:44 GMT-0500 (Central Daylight Time),370080.90000000596,zinc,900,I,m,m,None,535,335.0,200.0,114,2,1979.0,368101.90000000596,8031,zinc,NF,C,365023,365023,363394,364307,363394,365373,364823,364823,365373,108
106,test,1,con,1,m,Tue Apr 22 2025 09:11:44 GMT-0500 (Central Daylight Time),372163.5,iron,1000,I,m,m,None,548,348.0,200.0,107,2,2078.5,370085.0,8031,iron,NF,C,367106,367106,365377,366390,365377,367456,366906,366906,367456,109
107,test,1,con,1,z,Tue Apr 22 2025 09:11:44 GMT-0500 (Central Daylight Time),374279.60000000894,plum,1100,I,z,z,None,419,220.0,199.0,60,2,2112.300000011921,372167.299999997,8031,plum,NF,C,369338,369338,367459,368635,367460,369572,369139,369139,369572,110
108,test,1,inc,1,m,Tue Apr 22 2025 09:11:44 GMT-0500 (Central Daylight Time),376245.700000003,pear,900,I,m,m,None,528,329.0,199.0,110,2,1962.2000000029802,374283.5,8031,iron,NF,C,371205,371205,369576,370488,369576,371538,371005,371005,371538,111
109,test,1,con,1,z,Tue Apr 22 2025 09:11:44 GMT-0500 (Central Daylight Time),378228.10000000894,banana,1000,I,z,z,None,446,247.0,199.0,3,2,1978.5,376249.60000000894,8031,banana,NF,C,373271,373271,371542,372554,371542,373520,373071,373071,373520,112
110,test,1,inc,1,m,Tue Apr 22 2025 09:11:44 GMT-0500 (Central Daylight Time),380178.299999997,pear,900,I,m,m,None,517,317.0,200.0,102,2,1946.699999988079,378231.60000000894,8031,gold,NF,C,375153,375153,373524,374437,373524,375470,374953,374953,375470,113
111,test,1,con,1,z,Tue Apr 22 2025 09:11:44 GMT-0500 (Central Daylight Time),382060.10000000894,pear,900,I,z,z,None,447,247.0,200.0,42,2,1878.300000011921,380181.799999997,8031,pear,NF,C,377103,377103,375474,376386,375474,377352,376903,376903,377352,114
112,test,1,inc,1,m,Tue Apr 22 2025 09:11:44 GMT-0500 (Central Daylight Time),384109.60000000894,orange,1000,I,m,m,None,512,313.0,199.0,95,2,2044.7000000029802,382064.90000000596,8031,cobalt,NF,C,379085,379085,377357,378369,377357,379402,378886,378886,379402,115
113,test,1,con,1,z,Tue Apr 22 2025 09:11:44 GMT-0500 (Central Daylight Time),385992.5,pear,800,I,z,z,None,535,335.0,200.0,41,2,1878.8999999910593,384113.60000000894,8031,pear,NF,C,380935,380935,379406,380218,379406,381285,380735,380735,381285,116
114,test,1,inc,1,m,Tue Apr 22 2025 09:11:44 GMT-0500 (Central Daylight Time),388108.700000003,plum,1100,I,m,m,None,471,272.0,199.0,120,2,2112.7000000029802,385996.0,8031,zinc,NF,C,383118,383118,381288,382401,381288,383401,382918,382918,383401,117
115,test,1,con,1,m,Tue Apr 22 2025 09:11:44 GMT-0500 (Central Daylight Time),390091.299999997,lead,1000,I,m,m,None,439,240.0,199.0,123,2,1978.699999988079,388112.60000000894,8031,lead,NF,C,385134,385134,383405,384417,383405,385383,384934,384934,385383,118
116,test,1,inc,1,m,Tue Apr 22 2025 09:11:44 GMT-0500 (Central Daylight Time),392174.10000000894,kiwi,1000,I,m,m,None,546,346.0,200.0,111,2,2078.0,390096.10000000894,8031,iron,NF,C,387116,387116,385388,386400,385388,387466,386916,386916,387466,119
117,test,1,con,1,z,Tue Apr 22 2025 09:11:44 GMT-0500 (Central Daylight Time),394023.40000000596,plum,900,I,z,z,None,411,211.0,200.0,58,2,1845.2999999970198,392178.10000000894,8031,plum,NF,C,389099,389099,387470,388383,387470,389315,388899,388899,389315,120
118,test,1,con,1,m,Tue Apr 22 2025 09:11:44 GMT-0500 (Central Daylight Time),395939.5,silver,1000,I,m,m,None,372,173.0,199.0,83,2,1912.5,394027.0,8031,silver,NF,C,391049,391049,389319,390332,389319,391232,390849,390849,391232,121
119,test,1,inc,1,m,Tue Apr 22 2025 09:11:44 GMT-0500 (Central Daylight Time),398122.200000003,plum,1100,I,m,m,None,558,358.0,200.0,112,2,2179.0,395943.200000003,8031,iron,NF,C,393048,393048,391235,392343,391236,393414,392848,392848,393414,122
120,test,1,inc,1,z,Tue Apr 22 2025 09:11:44 GMT-0500 (Central Daylight Time),400054.799999997,gold,800,I,z,z,None,595,395.0,200.0,53,2,1927.5,398127.299999997,8031,kiwi,NF,C,394947,394947,393419,394231,393420,395347,394747,394747,395347,123
121,test,1,inc,1,m,Tue Apr 22 2025 09:11:44 GMT-0500 (Central Daylight Time),402021.0,cherry,900,I,m,m,None,522,322.0,200.0,86,2,1962.5999999940395,400058.40000000596,8031,silver,NF,C,396980,396980,395350,396264,395351,397313,396780,396780,397313,124
122,test,1,con,1,m,Tue Apr 22 2025 09:11:44 GMT-0500 (Central Daylight Time),403853.700000003,silver,800,I,m,m,None,496,296.0,200.0,81,2,1828.9000000059605,402024.799999997,8031,silver,NF,C,398846,398846,397317,398130,397317,399146,398646,398646,399146,125
123,test,1,con,1,m,Tue Apr 22 2025 09:11:44 GMT-0500 (Central Daylight Time),405853.10000000894,cobalt,1000,I,m,m,None,462,263.0,199.0,91,2,1995.7000000029802,403857.40000000596,8031,cobalt,NF,C,400879,400879,399149,400162,399150,401145,400679,400679,401145,126
124,test,1,con,1,z,Tue Apr 22 2025 09:11:44 GMT-0500 (Central Daylight Time),407619.10000000894,raisin,800,I,z,z,None,423,224.0,199.0,25,2,1762.1000000089407,405857.0,8031,raisin,NF,C,402678,402678,401149,401962,401149,402911,402479,402479,402911,127
125,test,1,con,1,m,Tue Apr 22 2025 09:11:44 GMT-0500 (Central Daylight Time),409386.200000003,copper,800,I,m,m,None,434,234.0,200.0,73,2,1763.7000000029802,407622.5,8031,copper,NF,C,404444,404444,402915,403728,402915,404678,404244,404244,404678,128
