acc_sum,block,block_c,condition,correct,correct_response,datetime,endtime,flanker,jitter,project,response,response_test_buffer_response,response_test_target_response,response_time,response_time_test_buffer_response,response_time_test_target_response,row_sel,session_number,start_end,starttime,subject_id,target,task,task_vers,time_test_buffer,time_test_buffer_response,time_test_constants,time_test_flanker,time_test_jitter,time_test_logger,time_test_target,time_test_target_response,time_test_variables,trial
0,prac,1,inc,0,z,Fri Feb 07 2025 15:37:25 GMT-0600 (Central Standard Time),190579.30000000447,film,900,O,m,,,1838,,,14,1,4044.0,186535.30000000447,7040,hate,AF,A,,,,,,,,,,1
1,prac,1,con,1,m,Fri Feb 07 2025 15:37:25 GMT-0600 (Central Standard Time),193294.20000000298,bell,1000,O,m,,,409,,,3,1,2706.89999999851,190587.30000000447,7040,bell,AF,A,,,,,,,,,,2
2,prac,1,con,1,z,Fri Feb 07 2025 15:37:25 GMT-0600 (Central Standard Time),196076.70000000298,love,1000,O,z,,,477,,,11,1,2777.8000000044703,193298.8999999985,7040,love,AF,A,,,,,,,,,,3
3,prac,1,inc,1,m,Fri Feb 07 2025 15:37:25 GMT-0600 (Central Standard Time),199058.70000000298,hate,1100,O,m,,,571,,,4,1,2977.7000000029802,196081.0,7040,film,AF,A,,,,,,,,,,4
3,prac,1,con,0,z,Fri Feb 07 2025 15:37:25 GMT-0600 (Central Standard Time),201574.8999999985,brutal,800,O,m,,,399,,,13,1,2511.5,199063.3999999985,7040,brutal,AF,A,,,,,,,,,,5
4,prac,1,con,1,m,Fri Feb 07 2025 15:37:25 GMT-0600 (Central Standard Time),204174.0,jacket,800,O,m,,,492,,,5,1,2594.1999999955297,201579.80000000447,7040,jacket,AF,A,,,,,,,,,,6
5,prac,1,inc,1,m,Fri Feb 07 2025 15:37:25 GMT-0600 (Central Standard Time),207256.3999999985,brutal,1100,O,m,,,675,,,8,1,3077.7999999970198,204178.6000000015,7040,window,AF,A,,,,,,,,,,7
6,prac,1,con,1,m,Fri Feb 07 2025 15:37:25 GMT-0600 (Central Standard Time),209922.3999999985,step,800,O,m,,,556,,,1,1,2661.7999999970198,207260.6000000015,7040,step,AF,A,,,,,,,,,,8
7,prac,1,con,1,z,Fri Feb 07 2025 15:37:25 GMT-0600 (Central Standard Time),212738.30000000447,elated,800,O,z,,,705,,,9,1,2811.8000000044703,209926.5,7040,elated,AF,A,,,,,,,,,,9
8,prac,1,inc,1,z,Fri Feb 07 2025 15:37:25 GMT-0600 (Central Standard Time),215886.8999999985,window,1100,O,z,,,741,,,16,1,3144.1999999955297,212742.70000000298,7040,temper,AF,A,,,,,,,,,,10
8,prac,1,inc,0,z,Fri Feb 07 2025 15:37:25 GMT-0600 (Central Standard Time),218886.20000000298,napkin,1100,O,m,,,591,,,12,1,2994.60000000149,215891.6000000015,7040,friend,AF,A,,,,,,,,,,11
9,prac,1,inc,1,m,Fri Feb 07 2025 15:37:25 GMT-0600 (Central Standard Time),221801.70000000298,elated,900,O,m,,,715,,,6,1,2911.2000000029802,218890.5,7040,napkin,AF,A,,,,,,,,,,12
10,prac,1,inc,1,z,Fri Feb 07 2025 15:37:25 GMT-0600 (Central Standard Time),224585.30000000447,rock,900,O,z,,,574,,,10,1,2779.10000000149,221806.20000000298,7040,kind,AF,A,,,,,,,,,,13
11,prac,1,con,1,m,Fri Feb 07 2025 15:37:25 GMT-0600 (Central Standard Time),227383.3999999985,remote,1000,O,m,,,483,,,7,1,2792.7999999970198,224590.6000000015,7040,remote,AF,A,,,,,,,,,,14
12,prac,1,con,1,z,Fri Feb 07 2025 15:37:25 GMT-0600 (Central Standard Time),230382.6000000015,rage,1000,O,z,,,692,,,15,1,2994.60000000149,227388.0,7040,rage,AF,A,,,,,,,,,,15
13,prac,1,inc,1,m,Fri Feb 07 2025 15:37:25 GMT-0600 (Central Standard Time),233148.20000000298,kind,900,O,m,,,554,,,2,1,2761.3000000044703,230386.8999999985,7040,rock,AF,A,,,,,,,,,,16
1,test,1,inc,1,m,Fri Feb 07 2025 15:37:25 GMT-0600 (Central Standard Time),251042.70000000298,rage,800,O,m,m,None,481,282.0,199.0,85,1,1812.3999999985099,249230.30000000447,7040,bell,AF,A,243580,243580,242050,242864,242052,243863,243381,243381,243863,1
1,test,1,inc,0,z,Fri Feb 07 2025 15:37:25 GMT-0600 (Central Standard Time),253075.20000000298,napkin,900,O,m,m,None,597,398.0,199.0,30,1,2027.7000000029802,251047.5,7040,friend,AF,A,245496,245496,243868,244780,243869,245895,245297,245297,245895,2
1,test,1,inc,0,z,Fri Feb 07 2025 15:37:25 GMT-0600 (Central Standard Time),255158.0,jacket,800,O,m,m,None,736,521.0,215.0,29,1,2078.5,253079.5,7040,friend,AF,A,247445,247445,245900,246713,245901,247978,247230,247230,247978,3
1,test,1,con,0,z,Fri Feb 07 2025 15:37:25 GMT-0600 (Central Standard Time),257224.0,friend,800,O,m,m,None,718,519.0,199.0,25,1,2061.7999999970198,255162.20000000298,7040,friend,AF,A,249511,249511,247982,248796,247984,250044,249312,249312,250044,4
2,test,1,con,1,m,Fri Feb 07 2025 15:37:25 GMT-0600 (Central Standard Time),259106.8999999985,jacket,800,O,m,m,None,532,333.0,199.0,97,1,1878.6999999955297,257228.20000000298,7040,jacket,AF,A,251577,251577,250048,250861,250050,251927,251378,251378,251927,5
3,test,1,inc,1,z,Fri Feb 07 2025 15:37:25 GMT-0600 (Central Standard Time),261522.80000000447,remote,1000,O,z,z,None,756,541.0,215.0,63,1,2411.7000000029802,259111.1000000015,7040,temper,AF,A,253793,253793,251931,253070,251933,254343,253578,253578,254343,6
4,test,1,con,1,m,Fri Feb 07 2025 15:37:25 GMT-0600 (Central Standard Time),263655.3999999985,window,1000,O,m,m,None,593,378.0,215.0,123,1,2128.5,261526.8999999985,7040,window,AF,A,256092,256092,254347,255360,254348,256475,255877,255877,256475,7
5,test,1,inc,1,m,Fri Feb 07 2025 15:37:25 GMT-0600 (Central Standard Time),265654.700000003,elated,800,O,m,m,None,661,446.0,215.0,117,1,1995.3000000044703,263659.3999999985,7040,remote,AF,A,258025,258025,256479,257293,256481,258475,257810,257810,258475,8
6,test,1,inc,1,m,Fri Feb 07 2025 15:37:25 GMT-0600 (Central Standard Time),267770.8999999985,love,1000,O,m,m,None,582,383.0,199.0,71,1,2112.1999999955297,265658.700000003,7040,step,AF,A,260208,260208,258479,259492,258480,260591,260009,260009,260591,9
7,test,1,con,1,m,Fri Feb 07 2025 15:37:25 GMT-0600 (Central Standard Time),269720.200000003,film,800,O,m,m,None,609,410.0,199.0,89,1,1945.1000000014901,267775.1000000015,7040,film,AF,A,262124,262124,260595,261408,260597,262540,261925,261925,262540,10
8,test,1,inc,1,z,Fri Feb 07 2025 15:37:25 GMT-0600 (Central Standard Time),271902.80000000447,window,1100,O,z,z,None,537,338.0,199.0,8,1,2178.3000000044703,269724.5,7040,elated,AF,A,264373,264373,262545,263658,262546,264723,264174,264174,264723,11
9,test,1,con,1,m,Fri Feb 07 2025 15:37:25 GMT-0600 (Central Standard Time),274118.700000003,film,1100,O,m,m,None,570,371.0,199.0,92,1,2211.5,271907.200000003,7040,film,AF,A,266556,266556,264727,265840,264729,266939,266357,266357,266939,12
10,test,1,con,1,m,Fri Feb 07 2025 15:37:25 GMT-0600 (Central Standard Time),276051.3999999985,remote,900,O,m,m,None,489,274.0,215.0,114,1,1928.5999999940395,274122.80000000447,7040,remote,AF,A,268589,268589,266943,267856,266944,268871,268373,268373,268871,13
11,test,1,inc,1,z,Fri Feb 07 2025 15:37:25 GMT-0600 (Central Standard Time),278100.80000000447,bell,1000,O,z,z,None,511,312.0,199.0,15,1,2045.0,276055.80000000447,7040,kind,AF,A,270606,270606,268876,269889,268877,270921,270406,270406,270921,14
12,test,1,con,1,m,Fri Feb 07 2025 15:37:25 GMT-0600 (Central Standard Time),280200.200000003,film,1000,O,m,m,None,560,361.0,199.0,91,1,2095.2000000029802,278105.0,7040,film,AF,A,272654,272654,270925,271938,270926,273020,272455,272455,273020,15
13,test,1,inc,1,z,Fri Feb 07 2025 15:37:25 GMT-0600 (Central Standard Time),282216.1000000015,rock,900,O,z,z,None,567,352.0,215.0,14,1,2011.8999999985099,280204.200000003,7040,kind,AF,A,274670,274670,273024,273938,273026,275036,274455,274455,275036,16
14,test,1,inc,1,m,Fri Feb 07 2025 15:37:25 GMT-0600 (Central Standard Time),284332.30000000447,love,1000,O,m,m,None,514,307.0,207.0,79,1,2111.9000000059605,282220.3999999985,7040,rock,AF,A,276836,276836,275040,276054,275042,277152,276629,276629,277152,17
15,test,1,inc,1,z,Fri Feb 07 2025 15:37:25 GMT-0600 (Central Standard Time),286781.5,film,1100,O,z,z,None,803,588.0,215.0,56,1,2444.7999999970198,284336.700000003,7040,rage,AF,A,279002,279002,277157,278270,277158,279602,278787,278787,279602,18
16,test,1,inc,1,z,Fri Feb 07 2025 15:37:25 GMT-0600 (Central Standard Time),288847.5,rock,900,O,z,z,None,619,404.0,215.0,22,1,2061.39999999851,286786.1000000015,7040,love,AF,A,281251,281251,279606,280519,279608,281668,281036,281036,281668,19
17,test,1,inc,1,m,Fri Feb 07 2025 15:37:25 GMT-0600 (Central Standard Time),290864.80000000447,brutal,900,O,m,m,None,568,353.0,215.0,118,1,2013.5,288851.30000000447,7040,remote,AF,A,283317,283317,281671,282585,281673,283685,283102,283102,283685,20
18,test,1,inc,1,m,Fri Feb 07 2025 15:37:25 GMT-0600 (Central Standard Time),292762.8999999985,rage,800,O,m,m,None,557,342.0,215.0,77,1,1894.0,290868.8999999985,7040,rock,AF,A,285233,285233,283689,284501,283690,285583,285018,285018,285583,21
19,test,1,inc,1,m,Fri Feb 07 2025 15:37:25 GMT-0600 (Central Standard Time),294962.5,hate,1100,O,m,m,None,549,350.0,199.0,80,1,2194.1999999955297,292768.30000000447,7040,rock,AF,A,287416,287416,285588,286700,285590,287783,287217,287217,287783,22
20,test,1,inc,1,z,Fri Feb 07 2025 15:37:25 GMT-0600 (Central Standard Time),297244.5,film,1100,O,z,z,None,647,448.0,199.0,24,1,2277.5,294967.0,7040,love,AF,A,289615,289615,287787,288900,287789,290065,289416,289416,290065,23
21,test,1,con,1,z,Fri Feb 07 2025 15:37:25 GMT-0600 (Central Standard Time),299127.80000000447,hate,800,O,z,z,None,535,336.0,199.0,41,1,1879.4000000059605,297248.3999999985,7040,hate,AF,A,291598,291598,290068,290882,290070,291948,291399,291399,291948,24
21,test,1,con,0,z,Fri Feb 07 2025 15:37:25 GMT-0600 (Central Standard Time),301460.3999999985,friend,900,O,m,m,None,887,672.0,215.0,26,1,2328.6999999955297,299131.700000003,7040,friend,AF,A,293597,293598,291952,292865,291953,294280,293382,293382,294280,25
22,test,1,con,1,z,Fri Feb 07 2025 15:37:25 GMT-0600 (Central Standard Time),303559.5,kind,900,O,z,z,None,659,443.0,216.0,10,1,2094.6999999955297,301464.80000000447,7040,kind,AF,A,295931,295931,294285,295197,294286,296380,295715,295715,296380,26
23,test,1,con,1,m,Fri Feb 07 2025 15:37:25 GMT-0600 (Central Standard Time),305908.8999999985,bell,1100,O,m,m,None,704,489.0,215.0,84,1,2345.1999999955297,303563.700000003,7040,bell,AF,A,298229,298229,296384,297497,296385,298729,298014,298014,298729,27
24,test,1,inc,1,m,Fri Feb 07 2025 15:37:25 GMT-0600 (Central Standard Time),308075.0,temper,1000,O,m,m,None,611,400.0,211.0,119,1,2162.2999999970198,305912.700000003,7040,remote,AF,A,300478,300479,298733,299746,298734,300895,300267,300267,300895,28
25,test,1,inc,1,m,Fri Feb 07 2025 15:37:25 GMT-0600 (Central Standard Time),310007.700000003,brutal,900,O,m,m,None,493,294.0,199.0,126,1,1928.8000000044703,308078.8999999985,7040,window,AF,A,302528,302528,300899,301812,300900,302828,302329,302329,302828,29
26,test,1,con,1,m,Fri Feb 07 2025 15:37:25 GMT-0600 (Central Standard Time),311890.30000000447,napkin,800,O,m,m,None,540,341.0,199.0,105,1,1878.8000000044703,310011.5,7040,napkin,AF,A,304361,304361,302832,303645,302833,304710,304162,304162,304710,30
27,test,1,con,1,m,Fri Feb 07 2025 15:37:25 GMT-0600 (Central Standard Time),313956.30000000447,napkin,1000,O,m,m,None,523,324.0,199.0,107,1,2062.2000000029802,311894.1000000015,7040,napkin,AF,A,306443,306443,304714,305728,304715,306776,306244,306244,306776,31
28,test,1,con,1,m,Fri Feb 07 2025 15:37:25 GMT-0600 (Central Standard Time),316022.5,step,1100,O,m,m,None,420,221.0,199.0,68,1,2062.2999999970198,313960.200000003,7040,step,AF,A,308609,308609,306780,307893,306782,308843,308410,308410,308842,32
29,test,1,inc,1,m,Fri Feb 07 2025 15:37:25 GMT-0600 (Central Standard Time),318105.0,brutal,900,O,m,m,None,634,419.0,215.0,110,1,2078.6999999955297,316026.30000000447,7040,napkin,AF,A,310492,310492,308846,309760,308848,310925,310277,310277,310925,33
30,test,1,con,1,z,Fri Feb 07 2025 15:37:25 GMT-0600 (Central Standard Time),320154.700000003,hate,900,O,z,z,None,615,416.0,199.0,42,1,2046.1000000014901,318108.6000000015,7040,hate,AF,A,312558,312558,310929,311842,310930,312975,312359,312359,312975,34
31,test,1,inc,1,z,Fri Feb 07 2025 15:37:25 GMT-0600 (Central Standard Time),322020.30000000447,step,800,O,z,z,None,529,330.0,199.0,21,1,1861.8000000044703,320158.5,7040,love,AF,A,314508,314508,312979,313792,312980,314840,314308,314308,314840,35
32,test,1,con,1,z,Fri Feb 07 2025 15:37:25 GMT-0600 (Central Standard Time),324203.1000000015,brutal,1000,O,z,z,None,640,425.0,215.0,35,1,2178.7000000029802,322024.3999999985,7040,brutal,AF,A,316590,316590,314844,315858,314846,317023,316375,316375,317023,36
33,test,1,inc,1,z,Fri Feb 07 2025 15:37:25 GMT-0600 (Central Standard Time),326502.5,window,1100,O,z,z,None,654,455.0,199.0,64,1,2295.39999999851,324207.1000000015,7040,temper,AF,A,318856,318856,317027,318140,317028,319323,318657,318657,319323,37
34,test,1,inc,1,m,Fri Feb 07 2025 15:37:25 GMT-0600 (Central Standard Time),328585.1000000015,temper,1000,O,m,m,None,534,319.0,215.0,103,1,2078.39999999851,326506.700000003,7040,jacket,AF,A,321072,321072,319327,320340,319328,321405,320857,320857,321405,38
34,test,1,con,0,z,Fri Feb 07 2025 15:37:25 GMT-0600 (Central Standard Time),331084.30000000447,friend,1100,O,m,m,None,855,656.0,199.0,28,1,2495.3000000044703,328589.0,7040,friend,AF,A,323238,323238,321409,322522,321411,323904,323039,323039,323904,39
35,test,1,inc,1,z,Fri Feb 07 2025 15:37:25 GMT-0600 (Central Standard Time),333351.3999999985,film,1100,O,z,z,None,620,421.0,199.0,16,1,2262.1999999955297,331089.200000003,7040,kind,AF,A,325737,325738,323909,325022,323911,326171,325538,325538,326171,40
36,test,1,inc,1,m,Fri Feb 07 2025 15:37:25 GMT-0600 (Central Standard Time),335450.6000000015,rage,800,O,m,m,None,765,550.0,215.0,93,1,2095.10000000149,333355.5,7040,film,AF,A,327720,327720,326176,326988,326177,328271,327504,327505,328271,41
37,test,1,inc,1,z,Fri Feb 07 2025 15:37:25 GMT-0600 (Central Standard Time),337616.6000000015,bell,1000,O,z,z,None,626,411.0,215.0,55,1,2162.2000000029802,335454.3999999985,7040,rage,AF,A,330019,330019,328274,329287,328276,330437,329804,329804,330437,42
38,test,1,con,1,m,Fri Feb 07 2025 15:37:25 GMT-0600 (Central Standard Time),339481.5,window,800,O,m,m,None,523,308.0,215.0,121,1,1860.6999999955297,337620.80000000447,7040,window,AF,A,331986,331986,330441,331253,330442,332302,331770,331770,332302,43
38,test,1,con,0,z,Fri Feb 07 2025 15:37:25 GMT-0600 (Central Standard Time),341347.700000003,temper,800,O,m,m,None,523,324.0,199.0,57,1,1861.8999999985099,339485.80000000447,7040,temper,AF,A,333835,333835,332306,333119,332307,334168,333636,333636,334168,44
39,test,1,inc,1,z,Fri Feb 07 2025 15:37:25 GMT-0600 (Central Standard Time),343430.5,remote,1000,O,z,z,None,545,346.0,199.0,7,1,2079.0,341351.5,7040,elated,AF,A,335901,335901,334172,335185,334173,336251,335702,335702,336251,45
40,test,1,con,1,m,Fri Feb 07 2025 15:37:25 GMT-0600 (Central Standard Time),345396.6000000015,bell,800,O,m,m,None,629,414.0,215.0,81,1,1962.2000000029802,343434.3999999985,7040,bell,AF,A,337800,337800,336254,337068,336256,338217,337585,337585,338217,46
41,test,1,con,1,z,Fri Feb 07 2025 15:37:25 GMT-0600 (Central Standard Time),347562.8999999985,love,1100,O,z,z,None,516,301.0,215.0,20,1,2162.1999999955297,345400.700000003,7040,love,AF,A,340066,340066,338221,339334,338222,340383,339851,339851,340383,47
42,test,1,con,1,z,Fri Feb 07 2025 15:37:25 GMT-0600 (Central Standard Time),349478.5,rage,900,O,z,z,None,478,263.0,215.0,50,1,1910.0,347568.5,7040,rage,AF,A,342032,342032,340389,341300,340390,342299,341817,341817,342299,48
43,test,1,con,1,m,Fri Feb 07 2025 15:37:25 GMT-0600 (Central Standard Time),351362.3999999985,remote,800,O,m,m,None,541,326.0,215.0,113,1,1880.0999999940395,349482.30000000447,7040,remote,AF,A,343848,343848,342302,343116,342304,344182,343633,343633,344182,49
44,test,1,con,1,z,Fri Feb 07 2025 15:37:25 GMT-0600 (Central Standard Time),353477.200000003,temper,1000,O,z,z,None,580,381.0,199.0,59,1,2110.7000000029802,351366.5,7040,temper,AF,A,345914,345914,344187,345199,344188,346297,345715,345715,346297,50
45,test,1,inc,1,z,Fri Feb 07 2025 15:37:25 GMT-0600 (Central Standard Time),355693.200000003,film,1100,O,z,z,None,570,371.0,199.0,48,1,2212.10000000149,353481.1000000015,7040,hate,AF,A,348131,348131,346301,347414,346303,348513,347931,347932,348513,51
46,test,1,inc,1,z,Fri Feb 07 2025 15:37:25 GMT-0600 (Central Standard Time),357942.700000003,window,1100,O,z,z,None,612,413.0,199.0,40,1,2245.60000000149,355697.1000000015,7040,brutal,AF,A,350346,350346,348517,349630,348519,350763,350147,350147,350763,52
47,test,1,con,1,m,Fri Feb 07 2025 15:37:25 GMT-0600 (Central Standard Time),359891.8999999985,film,900,O,m,m,None,504,290.0,214.0,90,1,1945.2999999970198,357946.6000000015,7040,film,AF,A,352412,352412,350767,351680,350768,352712,352198,352198,352712,53
48,test,1,inc,1,z,Fri Feb 07 2025 15:37:25 GMT-0600 (Central Standard Time),361824.700000003,step,800,O,z,z,None,584,385.0,199.0,53,1,1928.8000000044703,359895.8999999985,7040,rage,AF,A,354245,354245,352716,353529,352717,354645,354046,354046,354645,54
49,test,1,con,1,m,Fri Feb 07 2025 15:37:25 GMT-0600 (Central Standard Time),363690.80000000447,rock,800,O,m,m,None,524,325.0,199.0,73,1,1862.3000000044703,361828.5,7040,rock,AF,A,356178,356178,354649,355462,354650,356511,355979,355979,356511,55
50,test,1,con,1,z,Fri Feb 07 2025 15:37:25 GMT-0600 (Central Standard Time),365523.80000000447,kind,1000,O,z,z,None,290,75.0,215.0,11,1,1829.2000000029802,363694.6000000015,7040,kind,AF,A,358260,358260,356515,357528,356516,358344,358045,358045,358344,56
51,test,1,con,1,z,Fri Feb 07 2025 15:37:25 GMT-0600 (Central Standard Time),367422.80000000447,elated,800,O,z,z,None,560,345.0,215.0,1,1,1895.2000000029802,365527.6000000015,7040,elated,AF,A,359894,359894,358348,359161,358349,360243,359678,359678,360243,57
52,test,1,inc,1,m,Fri Feb 07 2025 15:37:25 GMT-0600 (Central Standard Time),369422.30000000447,kind,900,O,m,m,None,554,355.0,199.0,78,1,1995.5,367426.80000000447,7040,rock,AF,A,361876,361876,360247,361160,360248,362242,361677,361677,362242,58
53,test,1,inc,1,z,Fri Feb 07 2025 15:37:25 GMT-0600 (Central Standard Time),371255.1000000015,step,800,O,z,z,None,486,287.0,199.0,13,1,1828.7000000029802,369426.3999999985,7040,kind,AF,A,363775,363776,362246,363060,362248,364075,363576,363576,364075,59
54,test,1,con,1,z,Fri Feb 07 2025 15:37:25 GMT-0600 (Central Standard Time),373354.700000003,kind,1100,O,z,z,None,465,266.0,199.0,12,1,2095.89999999851,371258.80000000447,7040,kind,AF,A,365908,365908,364079,365192,364080,366175,365709,365709,366175,60
54,test,1,con,0,m,Fri Feb 07 2025 15:37:25 GMT-0600 (Central Standard Time),375353.700000003,step,1000,O,z,z,None,458,243.0,215.0,67,1,1995.2000000029802,373358.5,7040,step,AF,A,367924,367924,366179,367192,366180,368174,367708,367709,368174,61
55,test,1,inc,1,m,Fri Feb 07 2025 15:37:25 GMT-0600 (Central Standard Time),377486.700000003,friend,1100,O,m,m,None,494,295.0,199.0,112,1,2128.8000000044703,375357.8999999985,7040,napkin,AF,A,370007,370007,368178,369291,368179,370307,369808,369808,370307,62
56,test,1,con,1,m,Fri Feb 07 2025 15:37:25 GMT-0600 (Central Standard Time),379602.700000003,remote,1000,O,m,m,None,565,366.0,199.0,115,1,2112.2000000029802,377490.5,7040,remote,AF,A,372040,372040,370311,371324,370312,372423,371840,371840,372423,63
57,test,1,inc,1,m,Fri Feb 07 2025 15:37:25 GMT-0600 (Central Standard Time),381718.5,love,1000,O,m,m,None,578,363.0,215.0,87,1,2111.89999999851,379606.6000000015,7040,bell,AF,A,374172,374172,372427,373440,372428,374539,373957,373957,374539,64
58,test,1,inc,1,z,Fri Feb 07 2025 15:37:25 GMT-0600 (Central Standard Time),383551.30000000447,jacket,800,O,z,z,None,486,271.0,215.0,61,1,1828.7000000029802,381722.6000000015,7040,temper,AF,A,376088,376088,374543,375356,374544,376371,375873,375873,376371,65
59,test,1,con,1,z,Fri Feb 07 2025 15:37:25 GMT-0600 (Central Standard Time),385484.1000000015,love,1000,O,z,z,None,397,198.0,199.0,19,1,1929.2000000029802,383554.8999999985,7040,love,AF,A,378104,378104,376375,377389,376376,378304,377905,377905,378304,66
60,test,1,inc,1,z,Fri Feb 07 2025 15:37:25 GMT-0600 (Central Standard Time),387383.3999999985,step,800,O,z,z,None,561,362.0,199.0,45,1,1895.5,385487.8999999985,7040,hate,AF,A,379837,379837,378308,379122,378309,380203,379638,379638,380203,67
61,test,1,con,1,z,Fri Feb 07 2025 15:37:25 GMT-0600 (Central Standard Time),389499.3999999985,rage,1000,O,z,z,None,572,373.0,199.0,51,1,2112.0,387387.3999999985,7040,rage,AF,A,381936,381937,380207,381221,380209,382320,381737,381737,382319,68
62,test,1,con,1,z,Fri Feb 07 2025 15:37:25 GMT-0600 (Central Standard Time),391415.6000000015,temper,900,O,z,z,None,470,271.0,199.0,58,1,1912.1000000014901,389503.5,7040,temper,AF,A,383952,383952,382324,383237,382325,384236,383753,383753,384236,69
63,test,1,inc,1,m,Fri Feb 07 2025 15:37:25 GMT-0600 (Central Standard Time),393598.0,friend,1100,O,m,m,None,537,322.0,215.0,120,1,2178.5,391419.5,7040,remote,AF,A,386085,386085,384240,385353,384241,386418,385869,385870,386418,70
64,test,1,inc,1,z,Fri Feb 07 2025 15:37:25 GMT-0600 (Central Standard Time),395714.200000003,napkin,900,O,z,z,None,666,467.0,199.0,62,1,2112.39999999851,393601.80000000447,7040,temper,AF,A,388051,388051,386422,387336,386423,388534,387852,387852,388534,71
65,test,1,con,1,m,Fri Feb 07 2025 15:37:25 GMT-0600 (Central Standard Time),397713.5,rock,1000,O,m,m,None,450,251.0,199.0,75,1,1995.2999999970198,395718.200000003,7040,rock,AF,A,390267,390267,388538,389551,388540,390534,390068,390068,390534,72
66,test,1,inc,1,m,Fri Feb 07 2025 15:37:25 GMT-0600 (Central Standard Time),399929.6000000015,hate,1100,O,m,m,None,574,359.0,215.0,96,1,2212.2000000029802,397717.3999999985,7040,film,AF,A,392384,392384,390537,391651,390539,392750,392168,392168,392750,73
67,test,1,inc,1,z,Fri Feb 07 2025 15:37:25 GMT-0600 (Central Standard Time),402161.8999999985,remote,1000,O,z,z,None,667,458.0,209.0,31,1,2228.5,399933.3999999985,7040,friend,AF,A,394516,394516,392753,393767,392755,394982,394307,394307,394982,74
68,test,1,con,1,z,Fri Feb 07 2025 15:37:25 GMT-0600 (Central Standard Time),404444.80000000447,hate,1100,O,z,z,None,646,447.0,199.0,44,1,2278.8000000044703,402166.0,7040,hate,AF,A,396815,396815,394986,396099,394987,397265,396616,396616,397265,75
69,test,1,con,1,m,Fri Feb 07 2025 15:37:25 GMT-0600 (Central Standard Time),406377.5,jacket,900,O,m,m,None,492,292.0,200.0,98,1,1928.8999999985099,404448.6000000015,7040,jacket,AF,A,398899,398899,397269,398182,397270,399198,398699,398699,399198,76
70,test,1,inc,1,z,Fri Feb 07 2025 15:37:25 GMT-0600 (Central Standard Time),408393.6000000015,bell,1000,O,z,z,None,467,252.0,215.0,23,1,2012.2000000029802,406381.3999999985,7040,love,AF,A,400947,400947,399201,400215,399203,401214,400732,400732,401214,77
71,test,1,con,1,z,Fri Feb 07 2025 15:37:25 GMT-0600 (Central Standard Time),410542.700000003,elated,1000,O,z,z,None,611,395.0,216.0,3,1,2145.3000000044703,408397.3999999985,7040,elated,AF,A,402964,402964,401217,402231,401219,403363,402748,402748,403363,78
72,test,1,con,1,z,Fri Feb 07 2025 15:37:25 GMT-0600 (Central Standard Time),412325.5,love,800,O,z,z,None,438,239.0,199.0,17,1,1779.0,410546.5,7040,love,AF,A,404896,404896,403367,404180,403368,405146,404697,404697,405146,79
73,test,1,con,1,m,Fri Feb 07 2025 15:37:25 GMT-0600 (Central Standard Time),414541.3999999985,rock,1100,O,m,m,None,578,363.0,215.0,76,1,2211.7999999970198,412329.6000000015,7040,rock,AF,A,406995,406995,405150,406263,405151,407361,406780,406780,407361,80
74,test,1,con,1,m,Fri Feb 07 2025 15:37:25 GMT-0600 (Central Standard Time),416390.8999999985,bell,900,O,m,m,None,403,188.0,215.0,82,1,1845.6999999955297,414545.200000003,7040,bell,AF,A,409011,409011,407365,408279,407367,409211,408796,408796,409211,81
75,test,1,con,1,z,Fri Feb 07 2025 15:37:25 GMT-0600 (Central Standard Time),418356.700000003,hate,1000,O,z,z,None,430,231.0,199.0,43,1,1962.0,416394.700000003,7040,hate,AF,A,410944,410944,409215,410228,409216,411177,410745,410745,411177,82
76,test,1,con,1,m,Fri Feb 07 2025 15:37:25 GMT-0600 (Central Standard Time),420523.1000000015,jacket,1100,O,m,m,None,524,325.0,199.0,100,1,2162.39999999851,418360.700000003,7040,jacket,AF,A,413010,413010,411181,412295,411182,413343,412811,412811,413343,83
77,test,1,con,1,z,Fri Feb 07 2025 15:37:25 GMT-0600 (Central Standard Time),422655.6000000015,temper,1100,O,z,z,None,493,294.0,199.0,60,1,2128.60000000149,420527.0,7040,temper,AF,A,415176,415176,413347,414460,413348,415476,414977,414977,415476,84
78,test,1,inc,1,z,Fri Feb 07 2025 15:37:25 GMT-0600 (Central Standard Time),425288.200000003,napkin,900,O,z,z,None,1193,994.0,199.0,38,1,2628.60000000149,422659.6000000015,7040,brutal,AF,A,417109,417109,415480,416394,415481,418108,416910,416910,418108,85
79,test,1,inc,1,m,Fri Feb 07 2025 15:37:25 GMT-0600 (Central Standard Time),427120.8999999985,elated,800,O,m,m,None,485,286.0,199.0,125,1,1828.8999999985099,425292.0,7040,window,AF,A,419641,419641,418112,418926,418114,419941,419442,419442,419941,86
80,test,1,con,1,m,Fri Feb 07 2025 15:37:25 GMT-0600 (Central Standard Time),429086.6000000015,bell,1000,O,m,m,None,427,212.0,215.0,83,1,1961.8999999985099,427124.700000003,7040,bell,AF,A,421690,421690,419945,420958,419946,421907,421475,421475,421907,87
81,test,1,inc,1,z,Fri Feb 07 2025 15:37:25 GMT-0600 (Central Standard Time),431053.0,rock,900,O,z,z,None,522,323.0,199.0,46,1,1962.6000000014901,429090.3999999985,7040,hate,AF,A,423540,423540,421910,422824,421912,423873,423341,423341,423873,88
82,test,1,inc,1,m,Fri Feb 07 2025 15:37:25 GMT-0600 (Central Standard Time),433219.200000003,hate,1100,O,m,m,None,532,333.0,199.0,72,1,2162.5,431056.700000003,7040,step,AF,A,425706,425706,423877,424990,423878,426039,425507,425507,426039,89
83,test,1,con,1,z,Fri Feb 07 2025 15:37:25 GMT-0600 (Central Standard Time),435301.700000003,rage,1100,O,z,z,None,446,247.0,199.0,52,1,2078.8000000044703,433222.8999999985,7040,rage,AF,A,427872,427872,426043,427156,426044,428122,427673,427673,428122,90
84,test,1,con,1,z,Fri Feb 07 2025 15:37:25 GMT-0600 (Central Standard Time),437051.1000000015,rage,800,O,z,z,None,407,208.0,199.0,49,1,1745.6000000014901,435305.5,7040,rage,AF,A,429655,429655,428126,428939,428127,429871,429456,429456,429871,91
85,test,1,inc,1,z,Fri Feb 07 2025 15:37:25 GMT-0600 (Central Standard Time),438967.3999999985,napkin,900,O,z,z,None,468,269.0,199.0,6,1,1912.2999999970198,437055.1000000015,7040,elated,AF,A,431505,431505,429875,430789,429877,431787,431305,431305,431787,92
86,test,1,con,1,m,Fri Feb 07 2025 15:37:25 GMT-0600 (Central Standard Time),441083.0,jacket,1000,O,m,m,None,580,365.0,215.0,99,1,2111.6999999955297,438971.30000000447,7040,jacket,AF,A,433537,433537,431791,432805,431793,433903,433322,433322,433903,93
87,test,1,inc,1,m,Fri Feb 07 2025 15:37:25 GMT-0600 (Central Standard Time),443066.0,elated,800,O,m,m,None,633,434.0,199.0,109,1,1979.5,441086.5,7040,napkin,AF,A,435436,435436,433907,434721,433908,435886,435237,435237,435886,94
88,test,1,inc,1,m,Fri Feb 07 2025 15:37:25 GMT-0600 (Central Standard Time),445181.8999999985,temper,1000,O,m,m,None,579,380.0,199.0,111,1,2112.2999999970198,443069.6000000015,7040,napkin,AF,A,437619,437619,435890,436903,435891,438002,437420,437420,438002,95
89,test,1,con,1,z,Fri Feb 07 2025 15:37:25 GMT-0600 (Central Standard Time),447114.8999999985,brutal,900,O,z,z,None,483,284.0,199.0,34,1,1929.0,445185.8999999985,7040,brutal,AF,A,439635,439635,438006,438919,438007,439935,439436,439436,439935,96
90,test,1,con,1,z,Fri Feb 07 2025 15:37:25 GMT-0600 (Central Standard Time),449015.5,love,900,O,z,z,None,451,245.0,206.0,18,1,1896.7999999970198,447118.700000003,7040,love,AF,A,441585,441585,439939,440852,439940,441836,441378,441378,441835,97
91,test,1,inc,1,m,Fri Feb 07 2025 15:37:25 GMT-0600 (Central Standard Time),450863.3999999985,elated,800,O,m,m,None,510,311.0,199.0,101,1,1844.0,449019.3999999985,7040,jacket,AF,A,443367,443367,441839,442651,441841,443683,443168,443168,443683,98
92,test,1,con,1,z,Fri Feb 07 2025 15:37:25 GMT-0600 (Central Standard Time),452729.6000000015,brutal,800,O,z,z,None,516,316.0,200.0,33,1,1862.6000000014901,450867.0,7040,brutal,AF,A,445218,445218,443687,444501,443689,445550,445018,445018,445550,99
93,test,1,con,1,z,Fri Feb 07 2025 15:37:25 GMT-0600 (Central Standard Time),454912.200000003,friend,1000,O,z,z,None,642,443.0,199.0,27,1,2178.8000000044703,452733.3999999985,7040,friend,AF,A,447283,447283,445553,446567,445555,447732,447084,447084,447732,100
94,test,1,inc,1,z,Fri Feb 07 2025 15:37:25 GMT-0600 (Central Standard Time),456779.5,jacket,800,O,z,z,None,515,300.0,215.0,5,1,1863.6000000014901,454915.8999999985,7040,elated,AF,A,449282,449282,447736,448551,447737,449600,449067,449067,449600,101
95,test,1,con,1,z,Fri Feb 07 2025 15:37:25 GMT-0600 (Central Standard Time),458877.3999999985,elated,1100,O,z,z,None,454,239.0,215.0,4,1,2093.89999999851,456783.5,7040,elated,AF,A,451448,451448,449604,450715,449605,451698,451233,451233,451697,102
96,test,1,con,1,m,Fri Feb 07 2025 15:37:25 GMT-0600 (Central Standard Time),461027.0,window,1100,O,m,m,None,506,291.0,215.0,124,1,2145.6999999955297,458881.30000000447,7040,window,AF,A,453548,453548,451701,452815,451703,453847,453332,453332,453847,103
97,test,1,inc,1,m,Fri Feb 07 2025 15:37:25 GMT-0600 (Central Standard Time),463142.8999999985,temper,1000,O,m,m,None,577,378.0,199.0,127,1,2112.0999999940395,461030.80000000447,7040,window,AF,A,455580,455580,453851,454864,453852,455963,455381,455381,455963,104
98,test,1,inc,1,m,Fri Feb 07 2025 15:37:25 GMT-0600 (Central Standard Time),465142.3999999985,kind,900,O,m,m,None,562,363.0,199.0,70,1,1995.6999999955297,463146.700000003,7040,step,AF,A,457596,457596,455967,456880,455968,457962,457397,457397,457962,105
99,test,1,inc,1,z,Fri Feb 07 2025 15:37:25 GMT-0600 (Central Standard Time),467308.6000000015,bell,1000,O,z,z,None,621,422.0,199.0,47,1,2162.60000000149,465146.0,7040,hate,AF,A,459696,459697,457966,458980,457968,460129,459497,459497,460129,106
100,test,1,con,1,z,Fri Feb 07 2025 15:37:25 GMT-0600 (Central Standard Time),469157.80000000447,kind,800,O,z,z,None,510,296.0,214.0,9,1,1845.2000000029802,467312.6000000015,7040,kind,AF,A,461678,461678,460133,460946,460134,461978,461464,461464,461978,107
101,test,1,con,1,m,Fri Feb 07 2025 15:37:25 GMT-0600 (Central Standard Time),471424.0,napkin,1100,O,m,m,None,619,420.0,199.0,108,1,2262.5,469161.5,7040,napkin,AF,A,463811,463811,461982,463095,461983,464244,463612,463612,464244,108
102,test,1,inc,1,m,Fri Feb 07 2025 15:37:25 GMT-0600 (Central Standard Time),473606.30000000447,hate,1100,O,m,m,None,544,345.0,199.0,88,1,2178.5,471427.80000000447,7040,bell,AF,A,466077,466077,464248,465361,464249,466426,465878,465878,466426,109
103,test,1,inc,1,m,Fri Feb 07 2025 15:37:25 GMT-0600 (Central Standard Time),475422.3999999985,rage,800,O,m,m,None,470,255.0,215.0,69,1,1811.8999999985099,473610.5,7040,step,AF,A,467976,467976,466431,467243,466432,468243,467760,467761,468242,110
104,test,1,con,1,m,Fri Feb 07 2025 15:37:25 GMT-0600 (Central Standard Time),477321.700000003,rock,900,O,m,m,None,451,252.0,199.0,74,1,1895.1000000014901,475426.6000000015,7040,rock,AF,A,469875,469875,468247,469159,468248,470142,469676,469676,470142,111
105,test,1,inc,1,z,Fri Feb 07 2025 15:37:25 GMT-0600 (Central Standard Time),479537.700000003,window,1100,O,z,z,None,566,351.0,215.0,32,1,2211.8000000044703,477325.8999999985,7040,friend,AF,A,471991,471991,470146,471259,470147,472358,471776,471776,472358,112
106,test,1,inc,1,m,Fri Feb 07 2025 15:37:25 GMT-0600 (Central Standard Time),481570.6000000015,love,1000,O,m,m,None,491,292.0,199.0,95,1,2029.2000000029802,479541.3999999985,7040,film,AF,A,474091,474091,472361,473375,472363,474391,473891,473891,474391,113
107,test,1,inc,1,m,Fri Feb 07 2025 15:37:25 GMT-0600 (Central Standard Time),483503.200000003,kind,900,O,m,m,None,486,287.0,199.0,94,1,1928.8000000044703,481574.3999999985,7040,film,AF,A,476024,476024,474394,475307,474396,476323,475825,475825,476323,114
108,test,1,inc,1,z,Fri Feb 07 2025 15:37:25 GMT-0600 (Central Standard Time),485469.30000000447,rock,900,O,z,z,None,521,322.0,199.0,54,1,1962.0,483507.30000000447,7040,rage,AF,A,477956,477956,476327,477241,476329,478289,477757,477757,478289,115
109,test,1,con,1,m,Fri Feb 07 2025 15:37:25 GMT-0600 (Central Standard Time),487468.80000000447,remote,1100,O,m,m,None,355,140.0,215.0,116,1,1995.8000000044703,485473.0,7040,remote,AF,A,480139,480139,478293,479407,478294,480289,479923,479924,480289,116
110,test,1,con,1,m,Fri Feb 07 2025 15:37:25 GMT-0600 (Central Standard Time),489318.1000000015,napkin,900,O,m,m,None,404,205.0,199.0,106,1,1845.2999999970198,487472.80000000447,7040,napkin,AF,A,481922,481922,480293,481207,480294,482138,481723,481723,482138,117
111,test,1,inc,1,m,Fri Feb 07 2025 15:37:25 GMT-0600 (Central Standard Time),491301.0,kind,900,O,m,m,None,547,348.0,199.0,86,1,1979.1000000014901,489321.8999999985,7040,bell,AF,A,483771,483771,482142,483056,482143,484121,483572,483572,484121,118
112,test,1,con,1,z,Fri Feb 07 2025 15:37:25 GMT-0600 (Central Standard Time),493200.1000000015,elated,900,O,z,z,None,460,261.0,199.0,2,1,1895.2000000029802,491304.8999999985,7040,elated,AF,A,485754,485754,484125,485038,484126,486020,485555,485555,486020,119
113,test,1,con,1,m,Fri Feb 07 2025 15:37:25 GMT-0600 (Central Standard Time),495183.0,step,900,O,m,m,None,536,321.0,215.0,66,1,1979.1000000014901,493203.8999999985,7040,step,AF,A,487670,487670,486024,486938,486025,488003,487454,487455,488003,120
114,test,1,con,1,m,Fri Feb 07 2025 15:37:25 GMT-0600 (Central Standard Time),497132.5,window,900,O,m,m,None,514,315.0,199.0,122,1,1946.0,495186.5,7040,window,AF,A,489636,489636,488007,488920,488008,489953,489437,489437,489953,121
115,test,1,inc,1,m,Fri Feb 07 2025 15:37:25 GMT-0600 (Central Standard Time),499364.8999999985,friend,1100,O,m,m,None,588,373.0,215.0,128,1,2228.5,497136.3999999985,7040,window,AF,A,491802,491802,489956,491070,489958,492185,491587,491587,492185,122
116,test,1,inc,1,z,Fri Feb 07 2025 15:37:25 GMT-0600 (Central Standard Time),501197.700000003,jacket,800,O,z,z,None,488,289.0,199.0,37,1,1828.8999999985099,499368.80000000447,7040,brutal,AF,A,493718,493718,492189,493002,492190,494018,493519,493519,494018,123
117,test,1,inc,1,m,Fri Feb 07 2025 15:37:25 GMT-0600 (Central Standard Time),503130.700000003,brutal,900,O,m,m,None,491,292.0,199.0,102,1,1929.2000000029802,501201.5,7040,jacket,AF,A,495651,495651,494022,494935,494023,495951,495452,495452,495951,124
118,test,1,con,1,m,Fri Feb 07 2025 15:37:25 GMT-0600 (Central Standard Time),505146.5,step,800,O,m,m,None,674,459.0,215.0,65,1,2012.1000000014901,503134.3999999985,7040,step,AF,A,497500,497500,495954,496768,495956,497967,497285,497285,497967,125
119,test,1,inc,1,z,Fri Feb 07 2025 15:37:25 GMT-0600 (Central Standard Time),507162.6000000015,remote,1000,O,z,z,None,481,282.0,199.0,39,1,2011.8999999985099,505150.700000003,7040,brutal,AF,A,499700,499700,497971,498984,497972,499983,499500,499500,499983,126
120,test,1,inc,1,m,Fri Feb 07 2025 15:37:25 GMT-0600 (Central Standard Time),509311.8999999985,friend,1100,O,m,m,None,509,294.0,215.0,104,1,2145.5,507166.3999999985,7040,jacket,AF,A,501832,501832,499986,501100,499988,502132,501617,501617,502132,127
120,test,1,con,0,z,Fri Feb 07 2025 15:37:25 GMT-0600 (Central Standard Time),511460.8999999985,brutal,1100,O,m,m,None,512,313.0,199.0,36,1,2145.39999999851,509315.5,7040,brutal,AF,A,503965,503965,502136,503250,502137,504281,503766,503766,504281,128
