Number,acc_sum,block,block_c,block_cond,con_img,correct,correct_response,datetime,endtime,jitter,project,response,response_time,row_sel,session_number,start_end,starttime,subject_id,task,task_vers,trial
8,1,prac,1,A,circle.png,1,m,Wed Mar 05 2025 10:07:48 GMT-0600 (Central Standard Time),59744.60000002384,1600,O,m,1141,7,1,3532.399999976158,56212.200000047684,7087,NTS,B,1
7,2,prac,1,A,circle.png,1,m,Wed Mar 05 2025 10:07:48 GMT-0600 (Central Standard Time),63126.60000002384,1700,O,m,880,6,1,3356.399999976158,59770.200000047684,7087,NTS,B,2
8,2,prac,1,A,circle.png,0,m,Wed Mar 05 2025 10:07:48 GMT-0600 (Central Standard Time),67041.60000002384,1600,O,None,1510,7,1,3887.0,63154.60000002384,7087,NTS,B,3
6,3,prac,1,A,circle.png,1,m,Wed Mar 05 2025 10:07:48 GMT-0600 (Central Standard Time),70489.89999997616,1900,O,m,716,5,1,3418.0,67071.89999997616,7087,NTS,B,4
7,4,prac,1,A,circle.png,1,m,Wed Mar 05 2025 10:07:48 GMT-0600 (Central Standard Time),73672.10000002384,1700,O,m,681,6,1,3174.600000023842,70497.5,7087,NTS,B,5
3,5,prac,1,A,circle.png,1,z,Wed Mar 05 2025 10:07:48 GMT-0600 (Central Standard Time),76237.89999997616,1200,O,z,578,3,1,2555.7999999523163,73682.10000002384,7087,NTS,B,6
4,6,prac,1,A,circle.png,1,z,Wed Mar 05 2025 10:07:48 GMT-0600 (Central Standard Time),79153.79999995232,1400,O,z,722,4,1,2907.399999976158,76246.39999997616,7087,NTS,B,7
2,7,prac,1,A,circle.png,1,z,Wed Mar 05 2025 10:07:48 GMT-0600 (Central Standard Time),82520.29999995232,2000,O,z,573,2,1,3358.5,79161.79999995232,7087,NTS,B,8
9,8,prac,1,A,circle.png,1,m,Wed Mar 05 2025 10:07:48 GMT-0600 (Central Standard Time),85352.70000004768,1500,O,m,526,8,1,2802.7000000476837,82550.0,7087,NTS,B,9
2,9,prac,1,A,circle.png,1,z,Wed Mar 05 2025 10:07:48 GMT-0600 (Central Standard Time),88735.0,2000,O,z,577,2,1,3352.899999976158,85382.10000002384,7087,NTS,B,10
3,10,prac,1,A,circle.png,1,z,Wed Mar 05 2025 10:07:48 GMT-0600 (Central Standard Time),91267.5,1200,O,z,530,3,1,2502.7999999523163,88764.70000004768,7087,NTS,B,11
1,11,prac,1,A,circle.png,1,z,Wed Mar 05 2025 10:07:48 GMT-0600 (Central Standard Time),93533.20000004768,1000,O,z,454,1,1,2238.3000000715256,91294.89999997616,7087,NTS,B,12
3,1,prac,1,B,triangle.png,1,z,Wed Mar 05 2025 10:07:48 GMT-0600 (Central Standard Time),126922.10000002384,1600,O,z,651,3,1,3036.899999976158,123885.20000004768,7087,NTS,B,1
3,2,prac,1,B,triangle.png,1,z,Wed Mar 05 2025 10:07:48 GMT-0600 (Central Standard Time),130004.39999997616,1600,O,z,679,3,1,3054.1999999284744,126950.20000004768,7087,NTS,B,2
7,3,prac,1,B,triangle.png,1,z,Wed Mar 05 2025 10:07:48 GMT-0600 (Central Standard Time),133586.70000004768,2000,O,z,765,6,1,3560.2000000476837,130026.5,7087,NTS,B,3
6,4,prac,1,B,triangle.png,1,m,Wed Mar 05 2025 10:07:48 GMT-0600 (Central Standard Time),136019.20000004768,1000,O,m,631,5,1,2404.4000000953674,133614.79999995232,7087,NTS,B,4
8,5,prac,1,B,triangle.png,1,m,Wed Mar 05 2025 10:07:48 GMT-0600 (Central Standard Time),138801.5,1200,O,m,751,7,1,2752.2000000476837,136049.29999995232,7087,NTS,B,5
9,6,prac,1,B,triangle.png,1,z,Wed Mar 05 2025 10:07:48 GMT-0600 (Central Standard Time),141734.0,1400,O,z,721,8,1,2904.5,138829.5,7087,NTS,B,6
4,7,prac,1,B,triangle.png,1,m,Wed Mar 05 2025 10:07:48 GMT-0600 (Central Standard Time),144683.10000002384,1500,O,m,648,4,1,2925.8000000715256,141757.29999995232,7087,NTS,B,7
8,8,prac,1,B,triangle.png,1,m,Wed Mar 05 2025 10:07:48 GMT-0600 (Central Standard Time),147414.70000004768,1200,O,m,718,7,1,2703.0,144711.70000004768,7087,NTS,B,8
7,9,prac,1,B,triangle.png,1,z,Wed Mar 05 2025 10:07:48 GMT-0600 (Central Standard Time),151197.70000004768,2000,O,z,986,6,1,3776.2000000476837,147421.5,7087,NTS,B,9
9,10,prac,1,B,triangle.png,1,z,Wed Mar 05 2025 10:07:48 GMT-0600 (Central Standard Time),154363.29999995232,1400,O,z,965,8,1,3138.5999999046326,151224.70000004768,7087,NTS,B,10
2,11,prac,1,B,triangle.png,1,m,Wed Mar 05 2025 10:07:48 GMT-0600 (Central Standard Time),157578.89999997616,1700,O,m,714,2,1,3193.600000023842,154385.29999995232,7087,NTS,B,11
1,12,prac,1,B,triangle.png,1,z,Wed Mar 05 2025 10:07:48 GMT-0600 (Central Standard Time),160927.70000004768,1900,O,z,640,1,1,3320.5,157607.20000004768,7087,NTS,B,12
8,1,test,1,A,circle.png,1,m,Wed Mar 05 2025 10:07:48 GMT-0600 (Central Standard Time),182970.89999997616,1600,O,m,1127,7,1,2741.0,180229.89999997616,7087,NTS,B,1
6,2,test,1,A,circle.png,1,m,Wed Mar 05 2025 10:07:48 GMT-0600 (Central Standard Time),185586.70000004768,1900,O,m,675,5,1,2595.0,182991.70000004768,7087,NTS,B,2
4,3,test,1,A,circle.png,1,z,Wed Mar 05 2025 10:07:48 GMT-0600 (Central Standard Time),187635.5,1400,O,z,601,4,1,2029.6000000238419,185605.89999997616,7087,NTS,B,3
2,4,test,1,A,circle.png,1,z,Wed Mar 05 2025 10:07:48 GMT-0600 (Central Standard Time),190285.0,2000,O,z,598,2,1,2629.7999999523163,187655.20000004768,7087,NTS,B,4
9,5,test,1,A,circle.png,1,m,Wed Mar 05 2025 10:07:48 GMT-0600 (Central Standard Time),192417.60000002384,1500,O,m,583,8,1,2112.8000000715256,190304.79999995232,7087,NTS,B,5
1,6,test,1,A,circle.png,1,z,Wed Mar 05 2025 10:07:48 GMT-0600 (Central Standard Time),193950.39999997616,1000,O,z,488,1,1,1512.8999999761581,192437.5,7087,NTS,B,6
9,7,test,1,A,circle.png,1,m,Wed Mar 05 2025 10:07:48 GMT-0600 (Central Standard Time),195983.0,1500,O,m,486,8,1,2012.7000000476837,193970.29999995232,7087,NTS,B,7
7,8,test,1,A,circle.png,1,m,Wed Mar 05 2025 10:07:48 GMT-0600 (Central Standard Time),198299.0,1700,O,m,575,6,1,2295.600000023842,196003.39999997616,7087,NTS,B,8
8,9,test,1,A,circle.png,1,m,Wed Mar 05 2025 10:07:48 GMT-0600 (Central Standard Time),200531.60000002384,1600,O,m,591,7,1,2212.8000000715256,198318.79999995232,7087,NTS,B,9
2,10,test,1,A,circle.png,1,z,Wed Mar 05 2025 10:07:48 GMT-0600 (Central Standard Time),203179.70000004768,2000,O,z,615,2,1,2629.2000000476837,200550.5,7087,NTS,B,10
1,11,test,1,A,circle.png,1,z,Wed Mar 05 2025 10:07:48 GMT-0600 (Central Standard Time),204746.5,1000,O,z,533,1,1,1560.7999999523163,203185.70000004768,7087,NTS,B,11
8,12,test,1,A,circle.png,1,m,Wed Mar 05 2025 10:07:48 GMT-0600 (Central Standard Time),206896.0,1600,O,m,518,7,1,2139.0,204757.0,7087,NTS,B,12
9,13,test,1,A,circle.png,1,m,Wed Mar 05 2025 10:07:48 GMT-0600 (Central Standard Time),208895.39999997616,1500,O,m,463,8,1,1979.6000000238419,206915.79999995232,7087,NTS,B,13
8,14,test,1,A,circle.png,1,m,Wed Mar 05 2025 10:07:48 GMT-0600 (Central Standard Time),211061.29999995232,1600,O,m,512,7,1,2145.6999999284744,208915.60000002384,7087,NTS,B,14
2,15,test,1,A,circle.png,1,z,Wed Mar 05 2025 10:07:48 GMT-0600 (Central Standard Time),213593.89999997616,2000,O,z,495,2,1,2511.5,211082.39999997616,7087,NTS,B,15
7,16,test,1,A,circle.png,1,m,Wed Mar 05 2025 10:07:48 GMT-0600 (Central Standard Time),215826.5,1700,O,m,491,6,1,2212.100000023842,213614.39999997616,7087,NTS,B,16
3,17,test,1,A,circle.png,1,z,Wed Mar 05 2025 10:07:48 GMT-0600 (Central Standard Time),217659.20000004768,1200,O,z,582,3,1,1812.9000000953674,215846.29999995232,7087,NTS,B,17
4,18,test,1,A,circle.png,1,z,Wed Mar 05 2025 10:07:48 GMT-0600 (Central Standard Time),219708.60000002384,1400,O,z,606,4,1,2028.8000000715256,217679.79999995232,7087,NTS,B,18
6,19,test,1,A,circle.png,1,m,Wed Mar 05 2025 10:07:48 GMT-0600 (Central Standard Time),222257.0,1900,O,m,610,5,1,2529.399999976158,219727.60000002384,7087,NTS,B,19
6,20,test,1,A,circle.png,1,m,Wed Mar 05 2025 10:07:48 GMT-0600 (Central Standard Time),224673.79999995232,1900,O,m,484,5,1,2408.899999976158,222264.89999997616,7087,NTS,B,20
3,21,test,1,A,circle.png,1,z,Wed Mar 05 2025 10:07:48 GMT-0600 (Central Standard Time),226506.5,1200,O,z,591,3,1,1815.6000000238419,224690.89999997616,7087,NTS,B,21
3,22,test,1,A,circle.png,1,z,Wed Mar 05 2025 10:07:48 GMT-0600 (Central Standard Time),228272.5,1200,O,z,527,3,1,1745.5,226527.0,7087,NTS,B,22
7,23,test,1,A,circle.png,1,m,Wed Mar 05 2025 10:07:48 GMT-0600 (Central Standard Time),230504.0,1700,O,m,485,6,1,2212.899999976158,228291.10000002384,7087,NTS,B,23
6,24,test,1,A,circle.png,1,m,Wed Mar 05 2025 10:07:48 GMT-0600 (Central Standard Time),232970.70000004768,1900,O,m,539,5,1,2461.9000000953674,230508.79999995232,7087,NTS,B,24
3,1,test,1,B,triangle.png,1,z,Wed Mar 05 2025 10:07:48 GMT-0600 (Central Standard Time),260445.79999995232,2000,O,z,783,11,1,2795.899999976158,257649.89999997616,7087,NTS,B,1
9,2,test,1,B,triangle.png,1,z,Wed Mar 05 2025 10:07:48 GMT-0600 (Central Standard Time),262560.2000000477,1400,O,z,675,8,1,2095.0,260465.20000004768,7087,NTS,B,2
2,3,test,1,B,triangle.png,1,m,Wed Mar 05 2025 10:07:48 GMT-0600 (Central Standard Time),264326.2999999523,1200,O,m,539,10,1,1761.2999999523163,262565.0,7087,NTS,B,3
2,4,test,1,B,triangle.png,1,m,Wed Mar 05 2025 10:07:48 GMT-0600 (Central Standard Time),266643.10000002384,1700,O,m,593,2,1,2310.399999976158,264332.7000000477,7087,NTS,B,4
1,5,test,1,B,triangle.png,1,z,Wed Mar 05 2025 10:07:48 GMT-0600 (Central Standard Time),268709.2999999523,1400,O,z,615,9,1,2049.1999999284744,266660.10000002384,7087,NTS,B,5
8,6,test,1,B,triangle.png,1,m,Wed Mar 05 2025 10:07:48 GMT-0600 (Central Standard Time),270476.39999997616,1200,O,m,525,7,1,1748.8999999761581,268727.5,7087,NTS,B,6
8,7,test,1,B,triangle.png,1,m,Wed Mar 05 2025 10:07:48 GMT-0600 (Central Standard Time),272690.2000000477,1700,O,m,474,15,1,2194.100000023842,270496.10000002384,7087,NTS,B,7
3,8,test,1,B,triangle.png,1,z,Wed Mar 05 2025 10:07:48 GMT-0600 (Central Standard Time),274757.89999997616,1600,O,z,450,3,1,2062.5,272695.39999997616,7087,NTS,B,8
9,8,test,1,B,triangle.png,0,z,Wed Mar 05 2025 10:07:48 GMT-0600 (Central Standard Time),277306.39999997616,1900,O,m,602,16,1,2529.100000023842,274777.2999999523,7087,NTS,B,9
1,9,test,1,B,triangle.png,1,z,Wed Mar 05 2025 10:07:48 GMT-0600 (Central Standard Time),279438.7999999523,1400,O,z,696,9,1,2112.2999999523163,277326.5,7087,NTS,B,10
6,10,test,1,B,triangle.png,1,m,Wed Mar 05 2025 10:07:48 GMT-0600 (Central Standard Time),281021.10000002384,1000,O,m,546,5,1,1561.8000000715256,279459.2999999523,7087,NTS,B,11
4,11,test,1,B,triangle.png,1,m,Wed Mar 05 2025 10:07:48 GMT-0600 (Central Standard Time),283320.2000000477,1500,O,m,770,4,1,2293.9000000953674,281026.2999999523,7087,NTS,B,12
2,12,test,1,B,triangle.png,1,m,Wed Mar 05 2025 10:07:48 GMT-0600 (Central Standard Time),285086.7000000477,1200,O,m,539,10,1,1757.8000000715256,283328.89999997616,7087,NTS,B,13
6,13,test,1,B,triangle.png,1,m,Wed Mar 05 2025 10:07:48 GMT-0600 (Central Standard Time),287119.5,1500,O,m,512,13,1,2022.3999999761581,285097.10000002384,7087,NTS,B,14
4,14,test,1,B,triangle.png,1,m,Wed Mar 05 2025 10:07:48 GMT-0600 (Central Standard Time),288768.39999997616,1000,O,m,611,12,1,1628.6999999284744,287139.7000000477,7087,NTS,B,15
8,15,test,1,B,triangle.png,1,m,Wed Mar 05 2025 10:07:48 GMT-0600 (Central Standard Time),290968.5,1700,O,m,480,15,1,2195.2000000476837,288773.2999999523,7087,NTS,B,16
6,16,test,1,B,triangle.png,1,m,Wed Mar 05 2025 10:07:48 GMT-0600 (Central Standard Time),293251.2000000477,1500,O,m,733,13,1,2263.0,290988.2000000477,7087,NTS,B,17
9,17,test,1,B,triangle.png,1,z,Wed Mar 05 2025 10:07:48 GMT-0600 (Central Standard Time),295883.5,1900,O,z,683,16,1,2614.7000000476837,293268.7999999523,7087,NTS,B,18
3,18,test,1,B,triangle.png,1,z,Wed Mar 05 2025 10:07:48 GMT-0600 (Central Standard Time),298565.7999999523,2000,O,z,647,11,1,2662.5999999046326,295903.2000000477,7087,NTS,B,19
1,19,test,1,B,triangle.png,1,z,Wed Mar 05 2025 10:07:48 GMT-0600 (Central Standard Time),301081.60000002384,1900,O,z,570,1,1,2497.399999976158,298584.2000000477,7087,NTS,B,20
1,20,test,1,B,triangle.png,1,z,Wed Mar 05 2025 10:07:48 GMT-0600 (Central Standard Time),303631.0,1900,O,z,607,1,1,2531.100000023842,301099.89999997616,7087,NTS,B,21
7,21,test,1,B,triangle.png,1,z,Wed Mar 05 2025 10:07:48 GMT-0600 (Central Standard Time),306030.2000000477,1600,O,z,756,14,1,2379.4000000953674,303650.7999999523,7087,NTS,B,22
7,22,test,1,B,triangle.png,1,z,Wed Mar 05 2025 10:07:48 GMT-0600 (Central Standard Time),308212.7999999523,1600,O,z,534,14,1,2164.0999999046326,306048.7000000477,7087,NTS,B,23
7,23,test,1,B,triangle.png,1,z,Wed Mar 05 2025 10:07:48 GMT-0600 (Central Standard Time),310861.89999997616,2000,O,z,614,6,1,2630.0,308231.89999997616,7087,NTS,B,24
6,1,prac,1,C,circle.png,1,m,Wed Mar 05 2025 10:07:48 GMT-0600 (Central Standard Time),362611.7999999523,2000,O,m,1289,5,1,4071.5999999046326,358540.2000000477,7087,NTS,B,1
1,1,prac,1,C,circle.png,0,z,Wed Mar 05 2025 10:07:48 GMT-0600 (Central Standard Time),366627.2000000477,1700,O,None,1514,1,1,3994.8000000715256,362632.39999997616,7087,NTS,B,2
6,2,prac,1,C,circle.png,1,m,Wed Mar 05 2025 10:07:48 GMT-0600 (Central Standard Time),370142.89999997616,2000,O,m,703,5,1,3492.0,366650.89999997616,7087,NTS,B,3
3,3,prac,1,C,triangle.png,1,z,Wed Mar 05 2025 10:07:48 GMT-0600 (Central Standard Time),373074.7999999523,1500,O,z,624,3,1,2905.5,370169.2999999523,7087,NTS,B,4
9,3,prac,1,C,circle.png,0,m,Wed Mar 05 2025 10:07:48 GMT-0600 (Central Standard Time),376474.10000002384,1900,O,z,692,8,1,3374.100000023842,373100.0,7087,NTS,B,5
4,3,prac,1,C,circle.png,0,z,Wed Mar 05 2025 10:07:48 GMT-0600 (Central Standard Time),379105.5,1000,O,m,825,4,1,2602.5,376503.0,7087,NTS,B,6
8,3,prac,1,C,triangle.png,0,m,Wed Mar 05 2025 10:07:48 GMT-0600 (Central Standard Time),382805.2000000477,1400,O,None,1515,7,1,3691.9000000953674,379113.2999999523,7087,NTS,B,7
8,3,prac,1,C,triangle.png,0,m,Wed Mar 05 2025 10:07:48 GMT-0600 (Central Standard Time),386520.39999997616,1400,O,None,1514,7,1,3688.5,382831.89999997616,7087,NTS,B,8
3,4,prac,1,C,triangle.png,1,z,Wed Mar 05 2025 10:07:48 GMT-0600 (Central Standard Time),389702.89999997616,1500,O,z,878,3,1,3160.5,386542.39999997616,7087,NTS,B,9
7,5,prac,1,C,triangle.png,1,z,Wed Mar 05 2025 10:07:48 GMT-0600 (Central Standard Time),392668.39999997616,1200,O,z,964,6,1,2945.5,389722.89999997616,7087,NTS,B,10
4,5,prac,1,C,circle.png,0,z,Wed Mar 05 2025 10:07:48 GMT-0600 (Central Standard Time),395267.5,1000,O,m,798,4,1,2575.7000000476837,392691.7999999523,7087,NTS,B,11
2,6,prac,1,C,triangle.png,1,m,Wed Mar 05 2025 10:07:48 GMT-0600 (Central Standard Time),398716.5,1600,O,m,1046,2,1,3421.100000023842,395295.39999997616,7087,NTS,B,12
7,1,prac,2,C,triangle.png,1,z,Wed Mar 05 2025 10:07:48 GMT-0600 (Central Standard Time),436054.39999997616,1200,O,z,1095,6,1,3074.399999976158,432980.0,7087,NTS,B,1
4,1,prac,2,C,circle.png,0,z,Wed Mar 05 2025 10:07:48 GMT-0600 (Central Standard Time),438619.39999997616,1000,O,m,756,4,1,2536.7999999523163,436082.60000002384,7087,NTS,B,2
1,2,prac,2,C,circle.png,1,z,Wed Mar 05 2025 10:07:48 GMT-0600 (Central Standard Time),442019.2999999523,1700,O,z,907,1,1,3393.0,438626.2999999523,7087,NTS,B,3
3,3,prac,2,C,triangle.png,1,z,Wed Mar 05 2025 10:07:48 GMT-0600 (Central Standard Time),444968.10000002384,1500,O,z,636,3,1,2926.399999976158,442041.7000000477,7087,NTS,B,4
6,4,prac,2,C,circle.png,1,m,Wed Mar 05 2025 10:07:48 GMT-0600 (Central Standard Time),448367.2999999523,2000,O,m,587,5,1,3371.399999976158,444995.89999997616,7087,NTS,B,5
8,5,prac,2,C,triangle.png,1,m,Wed Mar 05 2025 10:07:48 GMT-0600 (Central Standard Time),451949.2000000477,1400,O,m,1372,7,1,3555.8000000715256,448393.39999997616,7087,NTS,B,6
2,5,prac,2,C,triangle.png,0,m,Wed Mar 05 2025 10:07:48 GMT-0600 (Central Standard Time),455448.10000002384,1600,O,z,1092,2,1,3476.7000000476837,451971.39999997616,7087,NTS,B,7
7,5,prac,2,C,triangle.png,0,z,Wed Mar 05 2025 10:07:48 GMT-0600 (Central Standard Time),458963.60000002384,1200,O,None,1515,6,1,3487.899999976158,455475.7000000477,7087,NTS,B,8
9,6,prac,2,C,circle.png,1,m,Wed Mar 05 2025 10:07:48 GMT-0600 (Central Standard Time),462628.89999997616,1900,O,m,963,8,1,3639.6999999284744,458989.2000000477,7087,NTS,B,9
1,7,prac,2,C,circle.png,1,z,Wed Mar 05 2025 10:07:48 GMT-0600 (Central Standard Time),465678.2000000477,1700,O,z,546,1,1,3027.3000000715256,462650.89999997616,7087,NTS,B,10
3,8,prac,2,C,triangle.png,1,z,Wed Mar 05 2025 10:07:48 GMT-0600 (Central Standard Time),468727.10000002384,1500,O,z,745,3,1,3023.2000000476837,465703.89999997616,7087,NTS,B,11
4,9,prac,2,C,circle.png,1,z,Wed Mar 05 2025 10:07:48 GMT-0600 (Central Standard Time),471676.0,1000,O,z,1140,4,1,2920.7999999523163,468755.2000000477,7087,NTS,B,12
4,0,test,1,C,triangle.png,0,m,Wed Mar 05 2025 10:07:48 GMT-0600 (Central Standard Time),502682.60000002384,1500,O,z,1226,20,1,2747.5,499935.10000002384,7087,NTS,B,1
6,1,test,1,C,circle.png,1,m,Wed Mar 05 2025 10:07:48 GMT-0600 (Central Standard Time),505815.0,1900,O,m,1188,5,1,3114.399999976158,502700.60000002384,7087,NTS,B,2
3,2,test,1,C,circle.png,1,z,Wed Mar 05 2025 10:07:48 GMT-0600 (Central Standard Time),508714.0,1600,O,z,1260,19,1,2879.2999999523163,505834.7000000477,7087,NTS,B,3
2,3,test,1,C,triangle.png,1,m,Wed Mar 05 2025 10:07:48 GMT-0600 (Central Standard Time),511979.60000002384,2000,O,m,1226,2,1,3246.2000000476837,508733.39999997616,7087,NTS,B,4
9,4,test,1,C,circle.png,1,m,Wed Mar 05 2025 10:07:48 GMT-0600 (Central Standard Time),514395.5,1500,O,m,867,8,1,2397.2000000476837,511998.2999999523,7087,NTS,B,5
4,5,test,1,C,circle.png,1,z,Wed Mar 05 2025 10:07:48 GMT-0600 (Central Standard Time),516844.60000002384,1400,O,z,1000,4,1,2428.600000023842,514416.0,7087,NTS,B,6
1,6,test,1,C,triangle.png,1,z,Wed Mar 05 2025 10:07:48 GMT-0600 (Central Standard Time),519843.5,1900,O,z,1058,9,1,2978.899999976158,516864.60000002384,7087,NTS,B,7
2,7,test,1,C,circle.png,1,z,Wed Mar 05 2025 10:07:48 GMT-0600 (Central Standard Time),522526.7000000477,1700,O,z,948,10,1,2662.3000000715256,519864.39999997616,7087,NTS,B,8
1,8,test,1,C,triangle.png,1,z,Wed Mar 05 2025 10:07:48 GMT-0600 (Central Standard Time),525825.1000000238,1900,O,z,1353,17,1,3278.600000023842,522546.5,7087,NTS,B,9
1,9,test,1,C,circle.png,1,z,Wed Mar 05 2025 10:07:48 GMT-0600 (Central Standard Time),528057.7000000477,1000,O,z,1194,1,1,2213.4000000953674,525844.2999999523,7087,NTS,B,10
2,10,test,1,C,circle.png,1,z,Wed Mar 05 2025 10:07:48 GMT-0600 (Central Standard Time),530723.5,1700,O,z,917,18,1,2646.899999976158,528076.6000000238,7087,NTS,B,11
7,11,test,1,C,triangle.png,1,z,Wed Mar 05 2025 10:07:48 GMT-0600 (Central Standard Time),533455.5,1700,O,z,997,22,1,2712.2000000476837,530743.2999999523,7087,NTS,B,12
8,12,test,1,C,triangle.png,1,m,Wed Mar 05 2025 10:07:48 GMT-0600 (Central Standard Time),536054.5,1600,O,m,963,23,1,2578.2999999523163,533476.2000000477,7087,NTS,B,13
6,13,test,1,C,circle.png,1,m,Wed Mar 05 2025 10:07:48 GMT-0600 (Central Standard Time),538737.5,1900,O,m,744,21,1,2663.399999976158,536074.1000000238,7087,NTS,B,14
8,14,test,1,C,triangle.png,1,m,Wed Mar 05 2025 10:07:48 GMT-0600 (Central Standard Time),541486.5,1600,O,m,1105,7,1,2727.2999999523163,538759.2000000477,7087,NTS,B,15
8,15,test,1,C,circle.png,1,m,Wed Mar 05 2025 10:07:48 GMT-0600 (Central Standard Time),543619.3999999762,1200,O,m,884,15,1,2111.899999976158,541507.5,7087,NTS,B,16
6,16,test,1,C,triangle.png,1,m,Wed Mar 05 2025 10:07:48 GMT-0600 (Central Standard Time),546018.1000000238,1000,O,m,1352,13,1,2378.899999976158,543639.2000000477,7087,NTS,B,17
4,17,test,1,C,triangle.png,1,m,Wed Mar 05 2025 10:07:48 GMT-0600 (Central Standard Time),548567.6000000238,1500,O,m,1021,12,1,2537.899999976158,546029.7000000477,7087,NTS,B,18
7,18,test,1,C,circle.png,1,m,Wed Mar 05 2025 10:07:48 GMT-0600 (Central Standard Time),551766.5,2000,O,m,1156,14,1,3179.7999999523163,548586.7000000477,7087,NTS,B,19
3,19,test,1,C,triangle.png,1,z,Wed Mar 05 2025 10:07:48 GMT-0600 (Central Standard Time),554449.0,1200,O,z,1444,3,1,2665.7000000476837,551783.2999999523,7087,NTS,B,20
3,20,test,1,C,circle.png,1,z,Wed Mar 05 2025 10:07:48 GMT-0600 (Central Standard Time),557114.6000000238,1600,O,z,1018,11,1,2644.100000023842,554470.5,7087,NTS,B,21
9,21,test,1,C,triangle.png,1,z,Wed Mar 05 2025 10:07:48 GMT-0600 (Central Standard Time),559897.2000000477,1400,O,z,1344,16,1,2763.3000000715256,557133.8999999762,7087,NTS,B,22
7,22,test,1,C,triangle.png,1,z,Wed Mar 05 2025 10:07:48 GMT-0600 (Central Standard Time),562512.7000000477,1700,O,z,878,6,1,2600.4000000953674,559912.2999999523,7087,NTS,B,23
9,23,test,1,C,circle.png,1,m,Wed Mar 05 2025 10:07:48 GMT-0600 (Central Standard Time),565011.7999999523,1500,O,m,975,24,1,2486.1999999284744,562525.6000000238,7087,NTS,B,24
3,1,test,2,C,triangle.png,1,z,Wed Mar 05 2025 10:07:48 GMT-0600 (Central Standard Time),575842.1000000238,1200,O,z,844,3,1,2063.3000000715256,573778.7999999523,7087,NTS,B,1
1,2,test,2,C,triangle.png,1,z,Wed Mar 05 2025 10:07:48 GMT-0600 (Central Standard Time),578541.3999999762,1900,O,z,757,9,1,2679.7999999523163,575861.6000000238,7087,NTS,B,2
6,3,test,2,C,triangle.png,1,m,Wed Mar 05 2025 10:07:48 GMT-0600 (Central Standard Time),581073.5,1000,O,m,1485,13,1,2512.899999976158,578560.6000000238,7087,NTS,B,3
4,4,test,2,C,triangle.png,1,m,Wed Mar 05 2025 10:07:48 GMT-0600 (Central Standard Time),583422.2999999523,1500,O,m,813,20,1,2328.5,581093.7999999523,7087,NTS,B,4
7,5,test,2,C,triangle.png,1,z,Wed Mar 05 2025 10:07:48 GMT-0600 (Central Standard Time),586521.7000000477,1700,O,z,1354,6,1,3079.8000000715256,583441.8999999762,7087,NTS,B,5
3,6,test,2,C,circle.png,1,z,Wed Mar 05 2025 10:07:48 GMT-0600 (Central Standard Time),589237.6000000238,1600,O,z,1073,19,1,2696.600000023842,586541.0,7087,NTS,B,6
8,7,test,2,C,circle.png,1,m,Wed Mar 05 2025 10:07:48 GMT-0600 (Central Standard Time),591186.7999999523,1200,O,m,701,15,1,1929.0999999046326,589257.7000000477,7087,NTS,B,7
2,8,test,2,C,circle.png,1,z,Wed Mar 05 2025 10:07:48 GMT-0600 (Central Standard Time),593802.6000000238,1700,O,z,878,18,1,2594.8000000715256,591207.7999999523,7087,NTS,B,8
6,9,test,2,C,triangle.png,1,m,Wed Mar 05 2025 10:07:48 GMT-0600 (Central Standard Time),595735.2000000477,1000,O,m,913,21,1,1919.3000000715256,593815.8999999762,7087,NTS,B,9
2,10,test,2,C,triangle.png,1,m,Wed Mar 05 2025 10:07:48 GMT-0600 (Central Standard Time),598501.2999999523,2000,O,m,724,2,1,2746.899999976158,595754.3999999762,7087,NTS,B,10
4,11,test,2,C,triangle.png,1,m,Wed Mar 05 2025 10:07:48 GMT-0600 (Central Standard Time),600734.1000000238,1500,O,m,698,12,1,2212.100000023842,598522.0,7087,NTS,B,11
8,12,test,2,C,circle.png,1,m,Wed Mar 05 2025 10:07:48 GMT-0600 (Central Standard Time),602849.6000000238,1200,O,m,869,23,1,2095.3000000715256,600754.2999999523,7087,NTS,B,12
8,13,test,2,C,triangle.png,1,m,Wed Mar 05 2025 10:07:48 GMT-0600 (Central Standard Time),605299.2000000477,1600,O,m,809,7,1,2426.100000023842,602873.1000000238,7087,NTS,B,13
1,14,test,2,C,circle.png,1,z,Wed Mar 05 2025 10:07:48 GMT-0600 (Central Standard Time),607148.3999999762,1000,O,z,808,1,1,1828.5,605319.8999999762,7087,NTS,B,14
9,15,test,2,C,triangle.png,1,z,Wed Mar 05 2025 10:07:48 GMT-0600 (Central Standard Time),609480.7999999523,1400,O,z,887,24,1,2313.6999999284744,607167.1000000238,7087,NTS,B,15
7,16,test,2,C,circle.png,1,m,Wed Mar 05 2025 10:07:48 GMT-0600 (Central Standard Time),612496.7000000477,2000,O,m,978,14,1,2996.600000023842,609500.1000000238,7087,NTS,B,16
9,17,test,2,C,circle.png,1,m,Wed Mar 05 2025 10:07:48 GMT-0600 (Central Standard Time),614962.6000000238,1500,O,m,926,8,1,2445.5,612517.1000000238,7087,NTS,B,17
4,18,test,2,C,circle.png,1,z,Wed Mar 05 2025 10:07:48 GMT-0600 (Central Standard Time),617311.7000000477,1400,O,z,912,4,1,2329.600000023842,614982.1000000238,7087,NTS,B,18
1,19,test,2,C,triangle.png,1,z,Wed Mar 05 2025 10:07:48 GMT-0600 (Central Standard Time),620227.5,1900,O,z,976,17,1,2899.0,617328.5,7087,NTS,B,19
6,20,test,2,C,circle.png,1,m,Wed Mar 05 2025 10:07:48 GMT-0600 (Central Standard Time),622909.7999999523,1900,O,m,732,5,1,2661.899999976158,620247.8999999762,7087,NTS,B,20
2,21,test,2,C,circle.png,1,z,Wed Mar 05 2025 10:07:48 GMT-0600 (Central Standard Time),625942.2999999523,1700,O,z,1289,10,1,3012.5999999046326,622929.7000000477,7087,NTS,B,21
7,22,test,2,C,circle.png,1,m,Wed Mar 05 2025 10:07:48 GMT-0600 (Central Standard Time),628958.1000000238,2000,O,m,981,22,1,2995.600000023842,625962.5,7087,NTS,B,22
3,23,test,2,C,circle.png,1,z,Wed Mar 05 2025 10:07:48 GMT-0600 (Central Standard Time),631423.7999999523,1600,O,z,805,11,1,2422.2999999523163,629001.5,7087,NTS,B,23
9,24,test,2,C,triangle.png,1,z,Wed Mar 05 2025 10:07:48 GMT-0600 (Central Standard Time),633956.1000000238,1400,O,z,1091,16,1,2512.100000023842,631444.0,7087,NTS,B,24
1,1,test,3,C,circle.png,1,z,Wed Mar 05 2025 10:07:48 GMT-0600 (Central Standard Time),639804.7000000477,1000,O,z,774,17,1,1790.4000000953674,638014.2999999523,7087,NTS,B,1
3,2,test,3,C,circle.png,1,z,Wed Mar 05 2025 10:07:48 GMT-0600 (Central Standard Time),642254.0,1600,O,z,799,11,1,2430.2000000476837,639823.7999999523,7087,NTS,B,2
1,3,test,3,C,triangle.png,1,z,Wed Mar 05 2025 10:07:48 GMT-0600 (Central Standard Time),645019.2999999523,1900,O,z,825,9,1,2746.1999999284744,642273.1000000238,7087,NTS,B,3
7,4,test,3,C,circle.png,1,m,Wed Mar 05 2025 10:07:48 GMT-0600 (Central Standard Time),647785.2000000477,2000,O,m,720,14,1,2747.0,645038.2000000477,7087,NTS,B,4
8,5,test,3,C,circle.png,1,m,Wed Mar 05 2025 10:07:48 GMT-0600 (Central Standard Time),649934.2999999523,1200,O,m,904,15,1,2129.5,647804.7999999523,7087,NTS,B,5
8,6,test,3,C,triangle.png,1,m,Wed Mar 05 2025 10:07:48 GMT-0600 (Central Standard Time),652533.7000000477,1600,O,m,949,7,1,2578.3000000715256,649955.3999999762,7087,NTS,B,6
2,7,test,3,C,circle.png,1,z,Wed Mar 05 2025 10:07:48 GMT-0600 (Central Standard Time),655065.8999999762,1700,O,z,793,10,1,2511.399999976158,652554.5,7087,NTS,B,7
8,8,test,3,C,triangle.png,1,m,Wed Mar 05 2025 10:07:48 GMT-0600 (Central Standard Time),657631.6000000238,1600,O,m,928,23,1,2544.2000000476837,655087.3999999762,7087,NTS,B,8
4,9,test,3,C,circle.png,1,z,Wed Mar 05 2025 10:07:48 GMT-0600 (Central Standard Time),659947.8999999762,1400,O,z,867,4,1,2298.899999976158,657649.0,7087,NTS,B,9
9,10,test,3,C,circle.png,1,m,Wed Mar 05 2025 10:07:48 GMT-0600 (Central Standard Time),662230.6000000238,1500,O,m,748,8,1,2263.5,659967.1000000238,7087,NTS,B,10
6,11,test,3,C,triangle.png,1,m,Wed Mar 05 2025 10:07:48 GMT-0600 (Central Standard Time),664546.3999999762,1000,O,m,1271,13,1,2292.399999976158,662254.0,7087,NTS,B,11
7,12,test,3,C,triangle.png,1,z,Wed Mar 05 2025 10:07:48 GMT-0600 (Central Standard Time),667328.7000000477,1700,O,z,1045,6,1,2761.9000000953674,664566.7999999523,7087,NTS,B,12
3,13,test,3,C,triangle.png,1,z,Wed Mar 05 2025 10:07:48 GMT-0600 (Central Standard Time),669261.7000000477,1200,O,z,699,3,1,1918.8000000715256,667342.8999999762,7087,NTS,B,13
6,14,test,3,C,circle.png,1,m,Wed Mar 05 2025 10:07:48 GMT-0600 (Central Standard Time),671777.2999999523,1900,O,m,569,21,1,2497.0999999046326,669280.2000000477,7087,NTS,B,14
4,15,test,3,C,circle.png,1,z,Wed Mar 05 2025 10:07:48 GMT-0600 (Central Standard Time),674026.5,1400,O,z,809,20,1,2229.5,671797.0,7087,NTS,B,15
9,16,test,3,C,triangle.png,1,z,Wed Mar 05 2025 10:07:48 GMT-0600 (Central Standard Time),676492.3999999762,1400,O,z,1025,16,1,2445.7999999523163,674046.6000000238,7087,NTS,B,16
4,17,test,3,C,triangle.png,1,m,Wed Mar 05 2025 10:07:48 GMT-0600 (Central Standard Time),678825.2000000477,1500,O,m,786,12,1,2313.100000023842,676512.1000000238,7087,NTS,B,17
7,18,test,3,C,triangle.png,1,z,Wed Mar 05 2025 10:07:48 GMT-0600 (Central Standard Time),681358.2000000477,1700,O,z,798,22,1,2512.7000000476837,678845.5,7087,NTS,B,18
2,19,test,3,C,triangle.png,1,m,Wed Mar 05 2025 10:07:48 GMT-0600 (Central Standard Time),684306.3999999762,2000,O,m,901,2,1,2928.1999999284744,681378.2000000477,7087,NTS,B,19
6,20,test,3,C,circle.png,1,m,Wed Mar 05 2025 10:07:48 GMT-0600 (Central Standard Time),686855.3999999762,1900,O,m,614,5,1,2529.399999976158,684326.0,7087,NTS,B,20
9,21,test,3,C,circle.png,1,m,Wed Mar 05 2025 10:07:48 GMT-0600 (Central Standard Time),689171.8999999762,1500,O,m,767,24,1,2296.399999976158,686875.5,7087,NTS,B,21
3,22,test,3,C,triangle.png,1,z,Wed Mar 05 2025 10:07:48 GMT-0600 (Central Standard Time),691237.5,1200,O,z,823,19,1,2045.7999999523163,689191.7000000477,7087,NTS,B,22
1,23,test,3,C,circle.png,1,z,Wed Mar 05 2025 10:07:48 GMT-0600 (Central Standard Time),693020.2999999523,1000,O,z,734,1,1,1763.8999999761581,691256.3999999762,7087,NTS,B,23
2,24,test,3,C,triangle.png,1,m,Wed Mar 05 2025 10:07:48 GMT-0600 (Central Standard Time),696552.2000000477,2000,O,m,1487,18,1,3511.600000023842,693040.6000000238,7087,NTS,B,24
4,1,test,4,C,circle.png,1,z,Wed Mar 05 2025 10:07:48 GMT-0600 (Central Standard Time),706716.0,1400,O,z,917,20,1,2344.0,704372.0,7087,NTS,B,1
9,2,test,4,C,circle.png,1,m,Wed Mar 05 2025 10:07:48 GMT-0600 (Central Standard Time),708981.7999999523,1500,O,m,715,8,1,2248.5,706733.2999999523,7087,NTS,B,2
3,3,test,4,C,circle.png,1,z,Wed Mar 05 2025 10:07:48 GMT-0600 (Central Standard Time),711481.8999999762,1600,O,z,862,11,1,2481.1999999284744,709000.7000000477,7087,NTS,B,3
1,4,test,4,C,circle.png,1,z,Wed Mar 05 2025 10:07:48 GMT-0600 (Central Standard Time),713646.5,1000,O,z,1129,1,1,2145.7999999523163,711500.7000000477,7087,NTS,B,4
2,5,test,4,C,circle.png,1,z,Wed Mar 05 2025 10:07:48 GMT-0600 (Central Standard Time),716245.5,1700,O,z,849,10,1,2579.0,713666.5,7087,NTS,B,5
3,6,test,4,C,triangle.png,1,z,Wed Mar 05 2025 10:07:48 GMT-0600 (Central Standard Time),718262.0,1200,O,z,790,3,1,2005.7000000476837,716256.2999999523,7087,NTS,B,6
6,7,test,4,C,triangle.png,1,m,Wed Mar 05 2025 10:07:48 GMT-0600 (Central Standard Time),720477.7999999523,1000,O,m,1166,13,1,2195.0999999046326,718282.7000000477,7087,NTS,B,7
1,8,test,4,C,circle.png,1,z,Wed Mar 05 2025 10:07:48 GMT-0600 (Central Standard Time),722444.1000000238,1000,O,z,925,17,1,1946.6000000238419,720497.5,7087,NTS,B,8
8,9,test,4,C,triangle.png,1,m,Wed Mar 05 2025 10:07:48 GMT-0600 (Central Standard Time),725325.3999999762,1600,O,m,1238,23,1,2861.7999999523163,722463.6000000238,7087,NTS,B,9
7,10,test,4,C,triangle.png,1,z,Wed Mar 05 2025 10:07:48 GMT-0600 (Central Standard Time),727892.2999999523,1700,O,z,834,6,1,2560.5,725331.7999999523,7087,NTS,B,10
6,11,test,4,C,circle.png,1,m,Wed Mar 05 2025 10:07:48 GMT-0600 (Central Standard Time),730657.8999999762,1900,O,m,819,5,1,2746.600000023842,727911.2999999523,7087,NTS,B,11
7,12,test,4,C,circle.png,1,m,Wed Mar 05 2025 10:07:48 GMT-0600 (Central Standard Time),733956.3999999762,2000,O,m,1264,14,1,3277.5,730678.8999999762,7087,NTS,B,12
6,13,test,4,C,circle.png,1,m,Wed Mar 05 2025 10:07:48 GMT-0600 (Central Standard Time),736722.6000000238,1900,O,m,835,21,1,2759.899999976158,733962.7000000477,7087,NTS,B,13
8,14,test,4,C,circle.png,1,m,Wed Mar 05 2025 10:07:48 GMT-0600 (Central Standard Time),738588.7999999523,1200,O,m,617,15,1,1847.5999999046326,736741.2000000477,7087,NTS,B,14
4,15,test,4,C,triangle.png,1,m,Wed Mar 05 2025 10:07:48 GMT-0600 (Central Standard Time),740938.1000000238,1500,O,m,812,12,1,2330.899999976158,738607.2000000477,7087,NTS,B,15
3,16,test,4,C,triangle.png,1,z,Wed Mar 05 2025 10:07:48 GMT-0600 (Central Standard Time),743037.2999999523,1200,O,z,858,19,1,2080.1999999284744,740957.1000000238,7087,NTS,B,16
2,17,test,4,C,triangle.png,1,m,Wed Mar 05 2025 10:07:48 GMT-0600 (Central Standard Time),746035.7999999523,2000,O,m,958,18,1,2979.399999976158,743056.3999999762,7087,NTS,B,17
7,18,test,4,C,triangle.png,1,z,Wed Mar 05 2025 10:07:48 GMT-0600 (Central Standard Time),749068.3999999762,1700,O,z,1299,22,1,3022.0,746046.3999999762,7087,NTS,B,18
8,19,test,4,C,triangle.png,1,m,Wed Mar 05 2025 10:07:48 GMT-0600 (Central Standard Time),751467.7999999523,1600,O,m,759,7,1,2380.1999999284744,749087.6000000238,7087,NTS,B,19
4,20,test,4,C,circle.png,1,z,Wed Mar 05 2025 10:07:48 GMT-0600 (Central Standard Time),753800.3999999762,1400,O,z,896,4,1,2313.2999999523163,751487.1000000238,7087,NTS,B,20
9,21,test,4,C,circle.png,1,m,Wed Mar 05 2025 10:07:48 GMT-0600 (Central Standard Time),756116.6000000238,1500,O,m,768,24,1,2294.8000000715256,753821.7999999523,7087,NTS,B,21
2,22,test,4,C,triangle.png,1,m,Wed Mar 05 2025 10:07:48 GMT-0600 (Central Standard Time),759115.1000000238,2000,O,m,959,2,1,2977.0,756138.1000000238,7087,NTS,B,22
1,23,test,4,C,triangle.png,1,z,Wed Mar 05 2025 10:07:48 GMT-0600 (Central Standard Time),762114.5,1900,O,z,1054,9,1,2979.2999999523163,759135.2000000477,7087,NTS,B,23
9,24,test,4,C,triangle.png,1,z,Wed Mar 05 2025 10:07:48 GMT-0600 (Central Standard Time),764680.2000000477,1400,O,z,1121,16,1,2546.100000023842,762134.1000000238,7087,NTS,B,24
