block_c,block_dur,condition,countdown,datetime,endtime,list,multichar_response,project,response,response_time,session_number,start_end,starttime,subject_id,task,task_vers,trial
,,,,Mon Oct 28 2024 16:01:16 GMT-0400 (Eastern Daylight Time),,,,I,space,765,1,,,9004,WL,B,
prac,,0,,Mon Oct 28 2024 16:01:16 GMT-0400 (Eastern Daylight Time),,NA,b,I,b,10444,1,,,9004,WL,B,1.0
prac,,0,,Mon Oct 28 2024 16:01:16 GMT-0400 (Eastern Daylight Time),,NA,bo,I,o,475,1,,,9004,WL,B,1.0
prac,,0,,Mon Oct 28 2024 16:01:16 GMT-0400 (Eastern Daylight Time),,NA,boo,I,o,121,1,,,9004,WL,B,1.0
prac,,0,,Mon Oct 28 2024 16:01:16 GMT-0400 (Eastern Daylight Time),,NA,boos,I,s,252,1,,,9004,WL,B,1.0
prac,,0,,Mon Oct 28 2024 16:01:16 GMT-0400 (Eastern Daylight Time),,NA,boost,I,t,298,1,,,9004,WL,B,1.0
prac,,0,,Mon Oct 28 2024 16:01:16 GMT-0400 (Eastern Daylight Time),,NA,boostenter,I,enter,1269,1,,,9004,WL,B,1.0
1,1.5509998798370361,learn,58449.000120162964,Mon Oct 28 2024 16:01:16 GMT-0400 (Eastern Daylight Time),129138.59999990463,A,c,I,c,1537,1,1549.5,127589.09999990463,9004,WL,B,1.0
1,1.7839999198913574,learn,58216.00008010864,Mon Oct 28 2024 16:01:16 GMT-0400 (Eastern Daylight Time),129371.90000009537,A,cl,I,l,209,1,1782.8000001907349,127589.09999990463,9004,WL,B,1.0
1,2.0,learn,58000.0,Mon Oct 28 2024 16:01:16 GMT-0400 (Eastern Daylight Time),129588.19999980927,A,clo,I,o,201,1,1999.0999999046326,127589.09999990463,9004,WL,B,1.0
1,2.299999952316284,learn,57700.000047683716,Mon Oct 28 2024 16:01:16 GMT-0400 (Eastern Daylight Time),129887.40000009537,A,cloc,I,c,272,1,2298.300000190735,127589.09999990463,9004,WL,B,1.0
1,2.633999824523926,learn,57366.000175476074,Mon Oct 28 2024 16:01:16 GMT-0400 (Eastern Daylight Time),130221.69999980927,A,clock,I,k,312,1,2632.5999999046326,127589.09999990463,9004,WL,B,1.0
1,3.866999864578247,learn,56133.00013542175,Mon Oct 28 2024 16:01:16 GMT-0400 (Eastern Daylight Time),131454.40000009537,A,clockenter,I,enter,1207,1,3865.300000190735,127589.09999990463,9004,WL,B,1.0
1,5.833999872207642,learn,54166.00012779236,Mon Oct 28 2024 16:01:16 GMT-0400 (Eastern Daylight Time),133421.5,A,s,I,s,1946,1,1966.4000000953674,131455.09999990463,9004,WL,B,2.0
1,6.2170000076293945,learn,53782.999992370605,Mon Oct 28 2024 16:01:16 GMT-0400 (Eastern Daylight Time),133804.7999997139,A,st,I,t,360,1,2349.699999809265,131455.09999990463,9004,WL,B,2.0
1,6.434000015258789,learn,53565.99998474121,Mon Oct 28 2024 16:01:16 GMT-0400 (Eastern Daylight Time),134021.59999990463,A,str,I,r,200,1,2566.5,131455.09999990463,9004,WL,B,2.0
1,6.7170000076293945,learn,53282.999992370605,Mon Oct 28 2024 16:01:16 GMT-0400 (Eastern Daylight Time),134304.5,A,stre,I,e,272,1,2849.4000000953674,131455.09999990463,9004,WL,B,2.0
1,6.849999904632568,learn,53150.00009536743,Mon Oct 28 2024 16:01:16 GMT-0400 (Eastern Daylight Time),134438.2999997139,A,stree,I,e,116,1,2983.199999809265,131455.09999990463,9004,WL,B,2.0
1,7.1499998569488525,learn,52850.00014305115,Mon Oct 28 2024 16:01:16 GMT-0400 (Eastern Daylight Time),134738.19999980927,A,street,I,t,287,1,3283.0999999046326,131455.09999990463,9004,WL,B,2.0
1,8.33299994468689,learn,51667.00005531311,Mon Oct 28 2024 16:01:16 GMT-0400 (Eastern Daylight Time),135921.0,A,streetenter,I,enter,1171,1,4465.900000095367,131455.09999990463,9004,WL,B,2.0
1,9.299999952316284,learn,50700.000047683716,Mon Oct 28 2024 16:01:16 GMT-0400 (Eastern Daylight Time),136888.2999997139,A,g,I,g,951,1,966.6999998092651,135921.59999990463,9004,WL,B,3.0
1,9.5,learn,50500.0,Mon Oct 28 2024 16:01:16 GMT-0400 (Eastern Daylight Time),137088.19999980927,A,gr,I,r,174,1,1166.5999999046326,135921.59999990463,9004,WL,B,3.0
1,9.883999824523926,learn,50116.000175476074,Mon Oct 28 2024 16:01:16 GMT-0400 (Eastern Daylight Time),137471.59999990463,A,gra,I,a,357,1,1550.0,135921.59999990463,9004,WL,B,3.0
1,10.233999967575073,learn,49766.00003242493,Mon Oct 28 2024 16:01:16 GMT-0400 (Eastern Daylight Time),137821.59999990463,A,gras,I,s,326,1,1900.0,135921.59999990463,9004,WL,B,3.0
1,10.416999816894531,learn,49583.00018310547,Mon Oct 28 2024 16:01:16 GMT-0400 (Eastern Daylight Time),138004.7999997139,A,grass,I,s,168,1,2083.199999809265,135921.59999990463,9004,WL,B,3.0
1,11.099999904632568,learn,48900.00009536743,Mon Oct 28 2024 16:01:16 GMT-0400 (Eastern Daylight Time),138687.7999997139,A,grassenter,I,enter,656,1,2766.199999809265,135921.59999990463,9004,WL,B,3.0
1,11.866999864578247,learn,48133.00013542175,Mon Oct 28 2024 16:01:16 GMT-0400 (Eastern Daylight Time),139454.90000009537,A,l,I,l,744,1,766.7000002861023,138688.19999980927,9004,WL,B,4.0
1,12.066999912261963,learn,47933.00008773804,Mon Oct 28 2024 16:01:16 GMT-0400 (Eastern Daylight Time),139654.90000009537,A,la,I,a,181,1,966.7000002861023,138688.19999980927,9004,WL,B,4.0
1,13.199999809265137,learn,46800.00019073486,Mon Oct 28 2024 16:01:16 GMT-0400 (Eastern Daylight Time),140788.19999980927,A,lak,I,k,1110,1,2100.0,138688.19999980927,9004,WL,B,4.0
1,13.383999824523926,learn,46616.000175476074,Mon Oct 28 2024 16:01:16 GMT-0400 (Eastern Daylight Time),140971.59999990463,A,lake,I,e,162,1,2283.4000000953674,138688.19999980927,9004,WL,B,4.0
1,13.782999992370605,learn,46217.000007629395,Mon Oct 28 2024 16:01:16 GMT-0400 (Eastern Daylight Time),141371.19999980927,A,lakeenter,I,enter,377,1,2683.0,138688.19999980927,9004,WL,B,4.0
1,14.649999856948853,learn,45350.00014305115,Mon Oct 28 2024 16:01:16 GMT-0400 (Eastern Daylight Time),142238.19999980927,A,p,I,p,845,1,866.5999999046326,141371.59999990463,9004,WL,B,5.0
1,14.949999809265137,learn,45050.00019073486,Mon Oct 28 2024 16:01:16 GMT-0400 (Eastern Daylight Time),142538.2999997139,A,pu,I,u,280,1,1166.6999998092651,141371.59999990463,9004,WL,B,5.0
1,15.349999904632568,learn,44650.00009536743,Mon Oct 28 2024 16:01:16 GMT-0400 (Eastern Daylight Time),142938.2999997139,A,pup,I,p,379,1,1566.6999998092651,141371.59999990463,9004,WL,B,5.0
1,15.599999904632568,learn,44400.00009536743,Mon Oct 28 2024 16:01:16 GMT-0400 (Eastern Daylight Time),143188.19999980927,A,pupi,I,i,236,1,1816.5999999046326,141371.59999990463,9004,WL,B,5.0
1,15.816999912261963,learn,44183.00008773804,Mon Oct 28 2024 16:01:16 GMT-0400 (Eastern Daylight Time),143404.90000009537,A,pupil,I,l,194,1,2033.3000001907349,141371.59999990463,9004,WL,B,5.0
1,16.899999856948853,learn,43100.00014305115,Mon Oct 28 2024 16:01:16 GMT-0400 (Eastern Daylight Time),144488.19999980927,A,pupi,I,backspace,1057,1,3116.5999999046326,141371.59999990463,9004,WL,B,5.0
1,18.09999990463257,learn,41900.00009536743,Mon Oct 28 2024 16:01:16 GMT-0400 (Eastern Daylight Time),145688.2999997139,A,pupil,I,l,1181,1,4316.699999809265,141371.59999990463,9004,WL,B,5.0
1,18.41699981689453,learn,41583.00018310547,Mon Oct 28 2024 16:01:16 GMT-0400 (Eastern Daylight Time),146004.40000009537,A,pupilenter,I,enter,301,1,4632.800000190735,141371.59999990463,9004,WL,B,5.0
1,20.932999849319458,learn,39067.00015068054,Mon Oct 28 2024 16:01:16 GMT-0400 (Eastern Daylight Time),148521.09999990463,A,w,I,w,2499,1,2516.300000190735,146004.7999997139,9004,WL,B,6.0
1,21.149999856948853,learn,38850.00014305115,Mon Oct 28 2024 16:01:16 GMT-0400 (Eastern Daylight Time),148737.90000009537,A,wi,I,i,207,1,2733.1000003814697,146004.7999997139,9004,WL,B,6.0
1,21.68400001525879,learn,38315.99998474121,Mon Oct 28 2024 16:01:16 GMT-0400 (Eastern Daylight Time),149271.69999980927,A,wif,I,f,505,1,3266.9000000953674,146004.7999997139,9004,WL,B,6.0
1,21.899999856948853,learn,38100.00014305115,Mon Oct 28 2024 16:01:16 GMT-0400 (Eastern Daylight Time),149488.19999980927,A,wife,I,e,190,1,3483.4000000953674,146004.7999997139,9004,WL,B,6.0
1,22.432999849319458,learn,37567.00015068054,Mon Oct 28 2024 16:01:16 GMT-0400 (Eastern Daylight Time),150021.09999990463,A,wifeenter,I,enter,516,1,4016.300000190735,146004.7999997139,9004,WL,B,6.0
1,22.983999967575073,learn,37016.00003242493,Mon Oct 28 2024 16:01:16 GMT-0400 (Eastern Daylight Time),150571.59999990463,A,a,I,a,532,1,550.1999998092651,150021.40000009537,9004,WL,B,7.0
1,23.75,learn,36250.0,Mon Oct 28 2024 16:01:16 GMT-0400 (Eastern Daylight Time),151337.7999997139,A,ar,I,r,746,1,1316.3999996185303,150021.40000009537,9004,WL,B,7.0
1,24.25,learn,35750.0,Mon Oct 28 2024 16:01:16 GMT-0400 (Eastern Daylight Time),151837.5,A,arm,I,m,476,1,1816.0999999046326,150021.40000009537,9004,WL,B,7.0
1,24.76699995994568,learn,35233.00004005432,Mon Oct 28 2024 16:01:16 GMT-0400 (Eastern Daylight Time),152354.5,A,armenter,I,enter,506,1,2333.0999999046326,150021.40000009537,9004,WL,B,7.0
1,27.949999809265137,learn,32050.000190734863,Mon Oct 28 2024 16:01:16 GMT-0400 (Eastern Daylight Time),155538.2999997139,A,d,I,d,3174,1,3183.2999997138977,152355.0,9004,WL,B,8.0
1,28.25,learn,31750.0,Mon Oct 28 2024 16:01:16 GMT-0400 (Eastern Daylight Time),155838.2999997139,A,do,I,o,274,1,3483.2999997138977,152355.0,9004,WL,B,8.0
1,28.51699995994568,learn,31483.00004005432,Mon Oct 28 2024 16:01:16 GMT-0400 (Eastern Daylight Time),156104.7999997139,A,doo,I,o,247,1,3749.7999997138977,152355.0,9004,WL,B,8.0
1,28.983999967575073,learn,31016.000032424927,Mon Oct 28 2024 16:01:16 GMT-0400 (Eastern Daylight Time),156571.69999980927,A,door,I,r,446,1,4216.699999809265,152355.0,9004,WL,B,8.0
1,29.33299994468689,learn,30667.00005531311,Mon Oct 28 2024 16:01:16 GMT-0400 (Eastern Daylight Time),156921.09999990463,A,doorenter,I,enter,328,1,4566.099999904633,152355.0,9004,WL,B,8.0
1,32.61699986457825,learn,27383.000135421753,Mon Oct 28 2024 16:01:16 GMT-0400 (Eastern Daylight Time),160204.7999997139,A,c,I,c,3264,1,3283.2999997138977,156921.5,9004,WL,B,9.0
1,32.98399996757507,learn,27016.000032424927,Mon Oct 28 2024 16:01:16 GMT-0400 (Eastern Daylight Time),160571.69999980927,A,ca,I,a,345,1,3650.199999809265,156921.5,9004,WL,B,9.0
1,33.36699986457825,learn,26633.000135421753,Mon Oct 28 2024 16:01:16 GMT-0400 (Eastern Daylight Time),160954.7999997139,A,cab,I,b,363,1,4033.2999997138977,156921.5,9004,WL,B,9.0
1,33.69999980926514,learn,26300.000190734863,Mon Oct 28 2024 16:01:16 GMT-0400 (Eastern Daylight Time),161288.2999997139,A,cabi,I,i,315,1,4366.799999713898,156921.5,9004,WL,B,9.0
1,34.09999990463257,learn,25900.00009536743,Mon Oct 28 2024 16:01:16 GMT-0400 (Eastern Daylight Time),161688.2999997139,A,cabin,I,n,383,1,4766.799999713898,156921.5,9004,WL,B,9.0
1,34.81699991226196,learn,25183.000087738037,Mon Oct 28 2024 16:01:16 GMT-0400 (Eastern Daylight Time),162404.5,A,cabinenter,I,enter,699,1,5483.0,156921.5,9004,WL,B,9.0
1,40.23399996757507,learn,19766.000032424927,Mon Oct 28 2024 16:01:16 GMT-0400 (Eastern Daylight Time),167821.59999990463,A,f,I,f,5396,1,5416.800000190735,162404.7999997139,9004,WL,B,10.0
1,40.43400001525879,learn,19565.99998474121,Mon Oct 28 2024 16:01:16 GMT-0400 (Eastern Daylight Time),168021.69999980927,A,fi,I,i,184,1,5616.900000095367,162404.7999997139,9004,WL,B,10.0
1,40.64999985694885,learn,19350.000143051147,Mon Oct 28 2024 16:01:16 GMT-0400 (Eastern Daylight Time),168238.2999997139,A,fir,I,r,193,1,5833.5,162404.7999997139,9004,WL,B,10.0
1,40.91699981689453,learn,19083.00018310547,Mon Oct 28 2024 16:01:16 GMT-0400 (Eastern Daylight Time),168504.7999997139,A,fire,I,e,246,1,6100.0,162404.7999997139,9004,WL,B,10.0
1,41.66699981689453,learn,18333.00018310547,Mon Oct 28 2024 16:01:16 GMT-0400 (Eastern Daylight Time),169254.5,A,fireenter,I,enter,725,1,6849.700000286102,162404.7999997139,9004,WL,B,10.0
1,59.53399991989136,learn,466.0000801086426,Mon Oct 28 2024 16:01:16 GMT-0400 (Eastern Daylight Time),187121.5,A,h,I,h,17859,1,17866.599999904633,169254.90000009537,9004,WL,B,11.0
1,60.01699995994568,learn,-16.99995994567871,Mon Oct 28 2024 16:01:16 GMT-0400 (Eastern Daylight Time),187605.09999990463,A,hNone,I,None,473,1,18350.199999809265,169254.90000009537,9004,WL,B,11.0
2,1.2669999599456787,learn,58733.00004005432,Mon Oct 28 2024 16:01:16 GMT-0400 (Eastern Daylight Time),308245.0,A,s,I,s,1253,1,1266.5,306978.5,9004,WL,B,1.0
2,1.567000150680542,learn,58432.99984931946,Mon Oct 28 2024 16:01:16 GMT-0400 (Eastern Daylight Time),308544.59999990463,A,st,I,t,270,1,1566.0999999046326,306978.5,9004,WL,B,1.0
2,1.7669999599456787,learn,58233.00004005432,Mon Oct 28 2024 16:01:16 GMT-0400 (Eastern Daylight Time),308744.7999997139,A,str,I,r,181,1,1766.2999997138977,306978.5,9004,WL,B,1.0
2,2.117000102996826,learn,57882.999897003174,Mon Oct 28 2024 16:01:16 GMT-0400 (Eastern Daylight Time),309094.7999997139,A,stre,I,e,327,1,2116.2999997138977,306978.5,9004,WL,B,1.0
2,2.617000102996826,learn,57382.999897003174,Mon Oct 28 2024 16:01:16 GMT-0400 (Eastern Daylight Time),309594.69999980927,A,stree,I,e,479,1,2616.199999809265,306978.5,9004,WL,B,1.0
2,2.884000062942505,learn,57115.999937057495,Mon Oct 28 2024 16:01:16 GMT-0400 (Eastern Daylight Time),309861.5,A,street,I,t,251,1,2883.0,306978.5,9004,WL,B,1.0
2,3.7660000324249268,learn,56233.99996757507,Mon Oct 28 2024 16:01:16 GMT-0400 (Eastern Daylight Time),310744.2999997139,A,streetenter,I,enter,862,1,3765.7999997138977,306978.5,9004,WL,B,1.0
2,4.950000047683716,learn,55049.999952316284,Mon Oct 28 2024 16:01:16 GMT-0400 (Eastern Daylight Time),311928.09999990463,A,g,I,g,1169,1,1183.5,310744.59999990463,9004,WL,B,2.0
2,5.150000095367432,learn,54849.99990463257,Mon Oct 28 2024 16:01:16 GMT-0400 (Eastern Daylight Time),312128.19999980927,A,gr,I,r,174,1,1383.5999999046326,310744.59999990463,9004,WL,B,2.0
2,5.5,learn,54500.0,Mon Oct 28 2024 16:01:16 GMT-0400 (Eastern Daylight Time),312478.09999990463,A,gra,I,a,317,1,1733.5,310744.59999990463,9004,WL,B,2.0
2,5.733999967575073,learn,54266.00003242493,Mon Oct 28 2024 16:01:16 GMT-0400 (Eastern Daylight Time),312711.40000009537,A,gras,I,s,216,1,1966.8000001907349,310744.59999990463,9004,WL,B,2.0
2,5.884000062942505,learn,54115.999937057495,Mon Oct 28 2024 16:01:16 GMT-0400 (Eastern Daylight Time),312861.59999990463,A,grass,I,s,127,1,2117.0,310744.59999990463,9004,WL,B,2.0
2,6.815999984741211,learn,53184.00001525879,Mon Oct 28 2024 16:01:16 GMT-0400 (Eastern Daylight Time),313794.2999997139,A,grassenter,I,enter,918,1,3049.699999809265,310744.59999990463,9004,WL,B,2.0
2,8.299999952316284,learn,51700.000047683716,Mon Oct 28 2024 16:01:16 GMT-0400 (Eastern Daylight Time),315278.09999990463,A,s,I,s,1463,1,1483.3000001907349,313794.7999997139,9004,WL,B,3.0
2,8.483999967575073,learn,51516.00003242493,Mon Oct 28 2024 16:01:16 GMT-0400 (Eastern Daylight Time),315461.5,A,st,I,t,167,1,1666.7000002861023,313794.7999997139,9004,WL,B,3.0
2,8.66700005531311,learn,51332.99994468689,Mon Oct 28 2024 16:01:16 GMT-0400 (Eastern Daylight Time),315644.7999997139,A,sta,I,a,154,1,1850.0,313794.7999997139,9004,WL,B,3.0
2,9.016999959945679,learn,50983.00004005432,Mon Oct 28 2024 16:01:16 GMT-0400 (Eastern Daylight Time),315994.7999997139,A,star,I,r,329,1,2200.0,313794.7999997139,9004,WL,B,3.0
2,9.549999952316284,learn,50450.000047683716,Mon Oct 28 2024 16:01:16 GMT-0400 (Eastern Daylight Time),316527.5,A,starenter,I,enter,522,1,2732.7000002861023,313794.7999997139,9004,WL,B,3.0
2,10.549999952316284,learn,49450.000047683716,Mon Oct 28 2024 16:01:16 GMT-0400 (Eastern Daylight Time),317528.19999980927,A,w,I,w,986,1,1000.2999997138977,316527.90000009537,9004,WL,B,4.0
2,10.75,learn,49250.0,Mon Oct 28 2024 16:01:16 GMT-0400 (Eastern Daylight Time),317728.2999997139,A,wi,I,i,190,1,1200.3999996185303,316527.90000009537,9004,WL,B,4.0
2,11.067000150680542,learn,48932.99984931946,Mon Oct 28 2024 16:01:16 GMT-0400 (Eastern Daylight Time),318044.7999997139,A,wif,I,f,293,1,1516.8999996185303,316527.90000009537,9004,WL,B,4.0
2,11.284000158309937,learn,48715.99984169006,Mon Oct 28 2024 16:01:16 GMT-0400 (Eastern Daylight Time),318261.59999990463,A,wife,I,e,202,1,1733.6999998092651,316527.90000009537,9004,WL,B,4.0
2,11.799999952316284,learn,48200.000047683716,Mon Oct 28 2024 16:01:16 GMT-0400 (Eastern Daylight Time),318777.69999980927,A,wifeenter,I,enter,495,1,2249.7999997138977,316527.90000009537,9004,WL,B,4.0
2,12.782999992370605,learn,47217.000007629395,Mon Oct 28 2024 16:01:16 GMT-0400 (Eastern Daylight Time),319761.19999980927,A,f,I,f,975,1,983.1999998092651,318778.0,9004,WL,B,5.0
2,13.016999959945679,learn,46983.00004005432,Mon Oct 28 2024 16:01:16 GMT-0400 (Eastern Daylight Time),319994.7999997139,A,fi,I,i,213,1,1216.7999997138977,318778.0,9004,WL,B,5.0
2,13.350000143051147,learn,46649.99985694885,Mon Oct 28 2024 16:01:16 GMT-0400 (Eastern Daylight Time),320328.09999990463,A,fir,I,r,316,1,1550.0999999046326,318778.0,9004,WL,B,5.0
2,13.549999952316284,learn,46450.000047683716,Mon Oct 28 2024 16:01:16 GMT-0400 (Eastern Daylight Time),320528.19999980927,A,fire,I,e,173,1,1750.1999998092651,318778.0,9004,WL,B,5.0
2,14.466000080108643,learn,45533.99991989136,Mon Oct 28 2024 16:01:16 GMT-0400 (Eastern Daylight Time),321444.2999997139,A,fireenter,I,enter,893,1,2666.2999997138977,318778.0,9004,WL,B,5.0
2,15.983000040054321,learn,44016.99995994568,Mon Oct 28 2024 16:01:16 GMT-0400 (Eastern Daylight Time),322961.19999980927,A,w,I,w,1509,1,1516.5,321444.69999980927,9004,WL,B,6.0
2,16.15000009536743,learn,43849.99990463257,Mon Oct 28 2024 16:01:16 GMT-0400 (Eastern Daylight Time),323128.09999990463,A,wi,I,i,149,1,1683.4000000953674,321444.69999980927,9004,WL,B,6.0
2,16.450000047683716,learn,43549.999952316284,Mon Oct 28 2024 16:01:16 GMT-0400 (Eastern Daylight Time),323427.7999997139,A,win,I,n,285,1,1983.0999999046326,321444.69999980927,9004,WL,B,6.0
2,16.782999992370605,learn,43217.000007629395,Mon Oct 28 2024 16:01:16 GMT-0400 (Eastern Daylight Time),323761.2999997139,A,wind,I,d,326,1,2316.5999999046326,321444.69999980927,9004,WL,B,6.0
2,17.01699995994568,learn,42983.00004005432,Mon Oct 28 2024 16:01:16 GMT-0400 (Eastern Daylight Time),323994.7999997139,A,windo,I,o,213,1,2550.0999999046326,321444.69999980927,9004,WL,B,6.0
2,17.26699995994568,learn,42733.00004005432,Mon Oct 28 2024 16:01:16 GMT-0400 (Eastern Daylight Time),324244.69999980927,A,window,I,w,235,1,2800.0,321444.69999980927,9004,WL,B,6.0
2,17.782999992370605,learn,42217.000007629395,Mon Oct 28 2024 16:01:16 GMT-0400 (Eastern Daylight Time),324760.90000009537,A,windowenter,I,enter,497,1,3316.2000002861023,321444.69999980927,9004,WL,B,6.0
2,18.5,learn,41500.0,Mon Oct 28 2024 16:01:16 GMT-0400 (Eastern Daylight Time),325478.0,A,d,I,d,704,1,716.7000002861023,324761.2999997139,9004,WL,B,7.0
2,18.799999952316284,learn,41200.000047683716,Mon Oct 28 2024 16:01:16 GMT-0400 (Eastern Daylight Time),325777.90000009537,A,do,I,o,286,1,1016.6000003814697,324761.2999997139,9004,WL,B,7.0
2,19.049999952316284,learn,40950.000047683716,Mon Oct 28 2024 16:01:16 GMT-0400 (Eastern Daylight Time),326028.19999980927,A,doo,I,o,229,1,1266.9000000953674,324761.2999997139,9004,WL,B,7.0
2,19.317000150680542,learn,40682.99984931946,Mon Oct 28 2024 16:01:16 GMT-0400 (Eastern Daylight Time),326294.7999997139,A,door,I,r,250,1,1533.5,324761.2999997139,9004,WL,B,7.0
2,20.15000009536743,learn,39849.99990463257,Mon Oct 28 2024 16:01:16 GMT-0400 (Eastern Daylight Time),327127.69999980927,A,doorenter,I,enter,815,1,2366.4000000953674,324761.2999997139,9004,WL,B,7.0
2,20.983999967575073,learn,39016.00003242493,Mon Oct 28 2024 16:01:16 GMT-0400 (Eastern Daylight Time),327961.5,A,c,I,c,818,1,833.4000000953674,327128.09999990463,9004,WL,B,8.0
2,21.233999967575073,learn,38766.00003242493,Mon Oct 28 2024 16:01:16 GMT-0400 (Eastern Daylight Time),328211.5,A,ca,I,a,237,1,1083.4000000953674,327128.09999990463,9004,WL,B,8.0
2,21.617000102996826,learn,38382.999897003174,Mon Oct 28 2024 16:01:16 GMT-0400 (Eastern Daylight Time),328594.7999997139,A,cab,I,b,368,1,1466.6999998092651,327128.09999990463,9004,WL,B,8.0
2,21.91700005531311,learn,38082.99994468689,Mon Oct 28 2024 16:01:16 GMT-0400 (Eastern Daylight Time),328894.7999997139,A,cabi,I,i,276,1,1766.6999998092651,327128.09999990463,9004,WL,B,8.0
2,22.567000150680542,learn,37432.99984931946,Mon Oct 28 2024 16:01:16 GMT-0400 (Eastern Daylight Time),329544.7999997139,A,cabin,I,n,630,1,2416.699999809265,327128.09999990463,9004,WL,B,8.0
2,23.117000102996826,learn,36882.999897003174,Mon Oct 28 2024 16:01:16 GMT-0400 (Eastern Daylight Time),330094.2999997139,A,cabinenter,I,enter,524,1,2966.199999809265,327128.09999990463,9004,WL,B,8.0
2,23.967000007629395,learn,36032.999992370605,Mon Oct 28 2024 16:01:16 GMT-0400 (Eastern Daylight Time),330944.69999980927,A,p,I,p,827,1,850.0,330094.69999980927,9004,WL,B,9.0
2,24.25,learn,35750.0,Mon Oct 28 2024 16:01:16 GMT-0400 (Eastern Daylight Time),331228.2999997139,A,pu,I,u,262,1,1133.5999999046326,330094.69999980927,9004,WL,B,9.0
2,24.567000150680542,learn,35432.99984931946,Mon Oct 28 2024 16:01:16 GMT-0400 (Eastern Daylight Time),331544.7999997139,A,pup,I,p,297,1,1450.0999999046326,330094.69999980927,9004,WL,B,9.0
2,24.782999992370605,learn,35217.000007629395,Mon Oct 28 2024 16:01:16 GMT-0400 (Eastern Daylight Time),331761.40000009537,A,pupi,I,i,205,1,1666.7000002861023,330094.69999980927,9004,WL,B,9.0
2,25.0,learn,35000.0,Mon Oct 28 2024 16:01:16 GMT-0400 (Eastern Daylight Time),331978.19999980927,A,pupil,I,l,196,1,1883.5,330094.69999980927,9004,WL,B,9.0
2,25.75,learn,34250.0,Mon Oct 28 2024 16:01:16 GMT-0400 (Eastern Daylight Time),332728.0,A,pupi,I,backspace,723,1,2633.300000190735,330094.69999980927,9004,WL,B,9.0
2,26.83400011062622,learn,33165.99988937378,Mon Oct 28 2024 16:01:16 GMT-0400 (Eastern Daylight Time),333811.40000009537,A,pupil,I,l,1069,1,3716.7000002861023,330094.69999980927,9004,WL,B,9.0
2,27.217000007629395,learn,32782.999992370605,Mon Oct 28 2024 16:01:16 GMT-0400 (Eastern Daylight Time),334194.2999997139,A,pupilenter,I,enter,370,1,4099.599999904633,330094.69999980927,9004,WL,B,9.0
2,31.367000102996826,learn,28632.999897003174,Mon Oct 28 2024 16:01:16 GMT-0400 (Eastern Daylight Time),338344.7999997139,A,a,I,a,4135,1,4150.099999904633,334194.69999980927,9004,WL,B,10.0
2,31.733999967575073,learn,28266.000032424927,Mon Oct 28 2024 16:01:16 GMT-0400 (Eastern Daylight Time),338711.5,A,ar,I,r,349,1,4516.800000190735,334194.69999980927,9004,WL,B,10.0
2,32.06700015068054,learn,27932.999849319458,Mon Oct 28 2024 16:01:16 GMT-0400 (Eastern Daylight Time),339044.7999997139,A,arm,I,m,319,1,4850.099999904633,334194.69999980927,9004,WL,B,10.0
2,33.200000047683716,learn,26799.999952316284,Mon Oct 28 2024 16:01:16 GMT-0400 (Eastern Daylight Time),340177.69999980927,A,armenter,I,enter,1120,1,5983.0,334194.69999980927,9004,WL,B,10.0
2,37.367000102996826,learn,22632.999897003174,Mon Oct 28 2024 16:01:16 GMT-0400 (Eastern Daylight Time),344344.7999997139,A,c,I,c,4151,1,4166.699999809265,340178.09999990463,9004,WL,B,11.0
2,37.56700015068054,learn,22432.999849319458,Mon Oct 28 2024 16:01:16 GMT-0400 (Eastern Daylight Time),344544.5,A,ci,I,i,190,1,4366.400000095367,340178.09999990463,9004,WL,B,11.0
2,37.85000014305115,learn,22149.999856948853,Mon Oct 28 2024 16:01:16 GMT-0400 (Eastern Daylight Time),344828.09999990463,A,cit,I,t,254,1,4650.0,340178.09999990463,9004,WL,B,11.0
2,38.01699995994568,learn,21983.00004005432,Mon Oct 28 2024 16:01:16 GMT-0400 (Eastern Daylight Time),344994.69999980927,A,city,I,y,154,1,4816.599999904633,340178.09999990463,9004,WL,B,11.0
2,38.40000009536743,learn,21599.99990463257,Mon Oct 28 2024 16:01:16 GMT-0400 (Eastern Daylight Time),345377.69999980927,A,cityenter,I,enter,370,1,5199.599999904633,340178.09999990463,9004,WL,B,11.0
2,47.40000009536743,learn,12599.999904632568,Mon Oct 28 2024 16:01:16 GMT-0400 (Eastern Daylight Time),354378.09999990463,A,s,I,s,8984,1,9000.099999904633,345378.0,9004,WL,B,12.0
2,47.56700015068054,learn,12432.999849319458,Mon Oct 28 2024 16:01:16 GMT-0400 (Eastern Daylight Time),354544.7999997139,A,sk,I,k,140,1,9166.799999713898,345378.0,9004,WL,B,12.0
2,47.76699995994568,learn,12233.000040054321,Mon Oct 28 2024 16:01:16 GMT-0400 (Eastern Daylight Time),354744.69999980927,A,ski,I,i,181,1,9366.699999809265,345378.0,9004,WL,B,12.0
2,48.049999952316284,learn,11950.000047683716,Mon Oct 28 2024 16:01:16 GMT-0400 (Eastern Daylight Time),355028.19999980927,A,skin,I,n,263,1,9650.199999809265,345378.0,9004,WL,B,12.0
2,48.48300004005432,learn,11516.999959945679,Mon Oct 28 2024 16:01:16 GMT-0400 (Eastern Daylight Time),355461.09999990463,A,skinenter,I,enter,416,1,10083.099999904633,345378.0,9004,WL,B,12.0
2,60.01699995994568,learn,-16.99995994567871,Mon Oct 28 2024 16:01:16 GMT-0400 (Eastern Daylight Time),366994.90000009537,A,None,I,None,11526,1,11533.400000095367,355461.5,9004,WL,B,13.0
3,1.183000087738037,learn,58816.99991226196,Mon Oct 28 2024 16:01:16 GMT-0400 (Eastern Daylight Time),438595.0,A,c,I,c,1172,1,1183.2000002861023,437411.7999997139,9004,WL,B,1.0
3,1.383000135421753,learn,58616.99986457825,Mon Oct 28 2024 16:01:16 GMT-0400 (Eastern Daylight Time),438794.90000009537,A,cl,I,l,179,1,1383.1000003814697,437411.7999997139,9004,WL,B,1.0
3,1.5829999446868896,learn,58417.00005531311,Mon Oct 28 2024 16:01:16 GMT-0400 (Eastern Daylight Time),438994.7999997139,A,clo,I,o,179,1,1583.0,437411.7999997139,9004,WL,B,1.0
3,1.8500001430511475,learn,58149.99985694885,Mon Oct 28 2024 16:01:16 GMT-0400 (Eastern Daylight Time),439261.59999990463,A,cloc,I,c,243,1,1849.8000001907349,437411.7999997139,9004,WL,B,1.0
3,2.065999984741211,learn,57934.00001525879,Mon Oct 28 2024 16:01:16 GMT-0400 (Eastern Daylight Time),439478.09999990463,A,clock,I,k,201,1,2066.300000190735,437411.7999997139,9004,WL,B,1.0
3,2.8329999446868896,learn,57167.00005531311,Mon Oct 28 2024 16:01:16 GMT-0400 (Eastern Daylight Time),440244.40000009537,A,clockenter,I,enter,750,1,2832.6000003814697,437411.7999997139,9004,WL,B,1.0
3,3.683000087738037,learn,56316.99991226196,Mon Oct 28 2024 16:01:16 GMT-0400 (Eastern Daylight Time),441094.7999997139,A,p,I,p,836,1,850.0,440244.7999997139,9004,WL,B,2.0
3,3.933000087738037,learn,56066.99991226196,Mon Oct 28 2024 16:01:16 GMT-0400 (Eastern Daylight Time),441344.69999980927,A,pi,I,i,239,1,1099.9000000953674,440244.7999997139,9004,WL,B,2.0
3,4.216000080108643,learn,55783.99991989136,Mon Oct 28 2024 16:01:16 GMT-0400 (Eastern Daylight Time),441628.19999980927,A,pip,I,p,260,1,1383.4000000953674,440244.7999997139,9004,WL,B,2.0
3,4.433000087738037,learn,55566.99991226196,Mon Oct 28 2024 16:01:16 GMT-0400 (Eastern Daylight Time),441844.90000009537,A,pipe,I,e,200,1,1600.1000003814697,440244.7999997139,9004,WL,B,2.0
3,4.83299994468689,learn,55167.00005531311,Mon Oct 28 2024 16:01:16 GMT-0400 (Eastern Daylight Time),442244.5,A,pipeenter,I,enter,384,1,1999.7000002861023,440244.7999997139,9004,WL,B,2.0
3,5.516000032424927,learn,54483.99996757507,Mon Oct 28 2024 16:01:16 GMT-0400 (Eastern Daylight Time),442928.0,A,s,I,s,661,1,683.2000002861023,442244.7999997139,9004,WL,B,3.0
3,5.815999984741211,learn,54184.00001525879,Mon Oct 28 2024 16:01:16 GMT-0400 (Eastern Daylight Time),443228.09999990463,A,st,I,t,277,1,983.3000001907349,442244.7999997139,9004,WL,B,3.0
3,6.0,learn,54000.0,Mon Oct 28 2024 16:01:16 GMT-0400 (Eastern Daylight Time),443411.5,A,str,I,r,169,1,1166.7000002861023,442244.7999997139,9004,WL,B,3.0
3,6.25,learn,53750.0,Mon Oct 28 2024 16:01:16 GMT-0400 (Eastern Daylight Time),443661.59999990463,A,stre,I,e,227,1,1416.8000001907349,442244.7999997139,9004,WL,B,3.0
3,6.416000127792358,learn,53583.99987220764,Mon Oct 28 2024 16:01:16 GMT-0400 (Eastern Daylight Time),443828.09999990463,A,stree,I,e,152,1,1583.3000001907349,442244.7999997139,9004,WL,B,3.0
3,6.650000095367432,learn,53349.99990463257,Mon Oct 28 2024 16:01:16 GMT-0400 (Eastern Daylight Time),444061.59999990463,A,street,I,t,210,1,1816.8000001907349,442244.7999997139,9004,WL,B,3.0
3,7.0329999923706055,learn,52967.000007629395,Mon Oct 28 2024 16:01:16 GMT-0400 (Eastern Daylight Time),444444.5,A,streetenter,I,enter,360,1,2199.7000002861023,442244.7999997139,9004,WL,B,3.0
3,7.549999952316284,learn,52450.000047683716,Mon Oct 28 2024 16:01:16 GMT-0400 (Eastern Daylight Time),444961.40000009537,A,w,I,w,508,1,516.6000003814697,444444.7999997139,9004,WL,B,4.0
3,7.815999984741211,learn,52184.00001525879,Mon Oct 28 2024 16:01:16 GMT-0400 (Eastern Daylight Time),445228.09999990463,A,wi,I,i,245,1,783.3000001907349,444444.7999997139,9004,WL,B,4.0
3,8.200000047683716,learn,51799.999952316284,Mon Oct 28 2024 16:01:16 GMT-0400 (Eastern Daylight Time),445611.59999990463,A,wif,I,f,363,1,1166.8000001907349,444444.7999997139,9004,WL,B,4.0
3,8.433000087738037,learn,51566.99991226196,Mon Oct 28 2024 16:01:16 GMT-0400 (Eastern Daylight Time),445844.90000009537,A,wife,I,e,216,1,1400.1000003814697,444444.7999997139,9004,WL,B,4.0
3,9.115999937057495,learn,50884.000062942505,Mon Oct 28 2024 16:01:16 GMT-0400 (Eastern Daylight Time),446527.69999980927,A,wifeenter,I,enter,665,1,2082.9000000953674,444444.7999997139,9004,WL,B,4.0
3,11.1489999294281,learn,48851.0000705719,Mon Oct 28 2024 16:01:16 GMT-0400 (Eastern Daylight Time),448561.2999997139,A,f,I,f,2026,1,2033.1999998092651,446528.09999990463,9004,WL,B,5.0
3,11.383000135421753,learn,48616.99986457825,Mon Oct 28 2024 16:01:16 GMT-0400 (Eastern Daylight Time),448794.90000009537,A,fi,I,i,213,1,2266.800000190735,446528.09999990463,9004,WL,B,5.0
3,11.650000095367432,learn,48349.99990463257,Mon Oct 28 2024 16:01:16 GMT-0400 (Eastern Daylight Time),449061.59999990463,A,fir,I,r,251,1,2533.5,446528.09999990463,9004,WL,B,5.0
3,11.883000135421753,learn,48116.99986457825,Mon Oct 28 2024 16:01:16 GMT-0400 (Eastern Daylight Time),449294.7999997139,A,fire,I,e,208,1,2766.699999809265,446528.09999990463,9004,WL,B,5.0
3,12.499000072479248,learn,47500.99992752075,Mon Oct 28 2024 16:01:16 GMT-0400 (Eastern Daylight Time),449910.90000009537,A,fireenter,I,enter,599,1,3382.800000190735,446528.09999990463,9004,WL,B,5.0
3,14.815999984741211,learn,45184.00001525879,Mon Oct 28 2024 16:01:16 GMT-0400 (Eastern Daylight Time),452228.2999997139,A,s,I,s,2306,1,2317.0,449911.2999997139,9004,WL,B,6.0
3,14.966000080108643,learn,45033.99991989136,Mon Oct 28 2024 16:01:16 GMT-0400 (Eastern Daylight Time),452377.40000009537,A,st,I,t,129,1,2466.1000003814697,449911.2999997139,9004,WL,B,6.0
3,15.133000135421753,learn,44866.99986457825,Mon Oct 28 2024 16:01:16 GMT-0400 (Eastern Daylight Time),452544.40000009537,A,sta,I,a,157,1,2633.1000003814697,449911.2999997139,9004,WL,B,6.0
3,15.383000135421753,learn,44616.99986457825,Mon Oct 28 2024 16:01:16 GMT-0400 (Eastern Daylight Time),452794.90000009537,A,star,I,r,227,1,2883.6000003814697,449911.2999997139,9004,WL,B,6.0
3,16.499000072479248,learn,43500.99992752075,Mon Oct 28 2024 16:01:16 GMT-0400 (Eastern Daylight Time),453911.09999990463,A,starenter,I,enter,1100,1,3999.800000190735,449911.2999997139,9004,WL,B,6.0
3,17.266000032424927,learn,42733.99996757507,Mon Oct 28 2024 16:01:16 GMT-0400 (Eastern Daylight Time),454678.19999980927,A,g,I,g,754,1,766.9000000953674,453911.2999997139,9004,WL,B,7.0
3,17.383000135421753,learn,42616.99986457825,Mon Oct 28 2024 16:01:16 GMT-0400 (Eastern Daylight Time),454794.90000009537,A,gr,I,r,94,1,883.6000003814697,453911.2999997139,9004,WL,B,7.0
3,17.716000080108643,learn,42283.99991989136,Mon Oct 28 2024 16:01:16 GMT-0400 (Eastern Daylight Time),455128.19999980927,A,gra,I,a,315,1,1216.9000000953674,453911.2999997139,9004,WL,B,7.0
3,18.0,learn,42000.0,Mon Oct 28 2024 16:01:16 GMT-0400 (Eastern Daylight Time),455411.5,A,gras,I,s,271,1,1500.2000002861023,453911.2999997139,9004,WL,B,7.0
3,18.15000009536743,learn,41849.99990463257,Mon Oct 28 2024 16:01:16 GMT-0400 (Eastern Daylight Time),455561.5,A,grass,I,s,130,1,1650.2000002861023,453911.2999997139,9004,WL,B,7.0
3,18.449000120162964,learn,41550.999879837036,Mon Oct 28 2024 16:01:16 GMT-0400 (Eastern Daylight Time),455861.09999990463,A,grassenter,I,enter,277,1,1949.8000001907349,453911.2999997139,9004,WL,B,7.0
3,19.216000080108643,learn,40783.99991989136,Mon Oct 28 2024 16:01:16 GMT-0400 (Eastern Daylight Time),456628.2999997139,A,l,I,l,756,1,766.7999997138977,455861.5,9004,WL,B,8.0
3,19.33299994468689,learn,40667.00005531311,Mon Oct 28 2024 16:01:16 GMT-0400 (Eastern Daylight Time),456744.7999997139,A,la,I,a,98,1,883.2999997138977,455861.5,9004,WL,B,8.0
3,19.782999992370605,learn,40217.000007629395,Mon Oct 28 2024 16:01:16 GMT-0400 (Eastern Daylight Time),457194.90000009537,A,lak,I,k,428,1,1333.4000000953674,455861.5,9004,WL,B,8.0
3,19.91600012779236,learn,40083.99987220764,Mon Oct 28 2024 16:01:16 GMT-0400 (Eastern Daylight Time),457328.19999980927,A,lake,I,e,107,1,1466.6999998092651,455861.5,9004,WL,B,8.0
3,20.615999937057495,learn,39384.000062942505,Mon Oct 28 2024 16:01:16 GMT-0400 (Eastern Daylight Time),458027.7999997139,A,lakeenter,I,enter,671,1,2166.2999997138977,455861.5,9004,WL,B,8.0
3,23.883000135421753,learn,36116.99986457825,Mon Oct 28 2024 16:01:16 GMT-0400 (Eastern Daylight Time),461294.90000009537,A,w,I,w,3245,1,3266.800000190735,458028.09999990463,9004,WL,B,9.0
3,24.016000032424927,learn,35983.99996757507,Mon Oct 28 2024 16:01:16 GMT-0400 (Eastern Daylight Time),461428.19999980927,A,wi,I,i,120,1,3400.0999999046326,458028.09999990463,9004,WL,B,9.0
3,24.31599998474121,learn,35684.00001525879,Mon Oct 28 2024 16:01:16 GMT-0400 (Eastern Daylight Time),461728.09999990463,A,win,I,n,275,1,3700.0,458028.09999990463,9004,WL,B,9.0
3,24.66600012779236,learn,35333.99987220764,Mon Oct 28 2024 16:01:16 GMT-0400 (Eastern Daylight Time),462078.2999997139,A,wind,I,d,326,1,4050.199999809265,458028.09999990463,9004,WL,B,9.0
3,24.850000143051147,learn,35149.99985694885,Mon Oct 28 2024 16:01:16 GMT-0400 (Eastern Daylight Time),462261.59999990463,A,windo,I,o,168,1,4233.5,458028.09999990463,9004,WL,B,9.0
3,25.216000080108643,learn,34783.99991989136,Mon Oct 28 2024 16:01:16 GMT-0400 (Eastern Daylight Time),462628.09999990463,A,window,I,w,345,1,4600.0,458028.09999990463,9004,WL,B,9.0
3,25.48300004005432,learn,34516.99995994568,Mon Oct 28 2024 16:01:16 GMT-0400 (Eastern Daylight Time),462894.5,A,windowenter,I,enter,241,1,4866.400000095367,458028.09999990463,9004,WL,B,9.0
3,26.41600012779236,learn,33583.99987220764,Mon Oct 28 2024 16:01:16 GMT-0400 (Eastern Daylight Time),463828.40000009537,A,d,I,d,922,1,933.6000003814697,462894.7999997139,9004,WL,B,10.0
3,26.633000135421753,learn,33366.99986457825,Mon Oct 28 2024 16:01:16 GMT-0400 (Eastern Daylight Time),464044.90000009537,A,do,I,o,194,1,1150.1000003814697,462894.7999997139,9004,WL,B,10.0
3,26.83299994468689,learn,33167.00005531311,Mon Oct 28 2024 16:01:16 GMT-0400 (Eastern Daylight Time),464245.0,A,doo,I,o,185,1,1350.2000002861023,462894.7999997139,9004,WL,B,10.0
3,27.216000080108643,learn,32783.99991989136,Mon Oct 28 2024 16:01:16 GMT-0400 (Eastern Daylight Time),464628.2999997139,A,door,I,r,368,1,1733.5,462894.7999997139,9004,WL,B,10.0
3,27.6489999294281,learn,32351.0000705719,Mon Oct 28 2024 16:01:16 GMT-0400 (Eastern Daylight Time),465061.09999990463,A,doorenter,I,enter,418,1,2166.300000190735,462894.7999997139,9004,WL,B,10.0
3,31.08299994468689,learn,28917.00005531311,Mon Oct 28 2024 16:01:16 GMT-0400 (Eastern Daylight Time),468494.7999997139,A,p,I,p,3412,1,3433.2999997138977,465061.5,9004,WL,B,11.0
3,31.41600012779236,learn,28583.99987220764,Mon Oct 28 2024 16:01:16 GMT-0400 (Eastern Daylight Time),468828.19999980927,A,pu,I,u,312,1,3766.699999809265,465061.5,9004,WL,B,11.0
3,31.75,learn,28250.0,Mon Oct 28 2024 16:01:16 GMT-0400 (Eastern Daylight Time),469161.5,A,pup,I,p,314,1,4100.0,465061.5,9004,WL,B,11.0
3,31.98300004005432,learn,28016.99995994568,Mon Oct 28 2024 16:01:16 GMT-0400 (Eastern Daylight Time),469394.90000009537,A,pupi,I,i,219,1,4333.400000095367,465061.5,9004,WL,B,11.0
3,32.200000047683716,learn,27799.999952316284,Mon Oct 28 2024 16:01:16 GMT-0400 (Eastern Daylight Time),469611.59999990463,A,pupil,I,l,195,1,4550.099999904633,465061.5,9004,WL,B,11.0
3,32.54900002479553,learn,27450.999975204468,Mon Oct 28 2024 16:01:16 GMT-0400 (Eastern Daylight Time),469961.09999990463,A,pupilenter,I,enter,323,1,4899.599999904633,465061.5,9004,WL,B,11.0
3,44.615999937057495,learn,15384.000062942505,Mon Oct 28 2024 16:01:16 GMT-0400 (Eastern Daylight Time),482028.2999997139,A,p,I,p,12048,1,12066.799999713898,469961.5,9004,WL,B,12.0
3,44.90000009536743,learn,15099.999904632568,Mon Oct 28 2024 16:01:16 GMT-0400 (Eastern Daylight Time),482311.69999980927,A,pi,I,i,266,1,12350.199999809265,469961.5,9004,WL,B,12.0
3,46.01600003242493,learn,13983.999967575073,Mon Oct 28 2024 16:01:16 GMT-0400 (Eastern Daylight Time),483428.2999997139,A,p,I,backspace,1103,1,13466.799999713898,469961.5,9004,WL,B,12.0
3,46.25,learn,13750.0,Mon Oct 28 2024 16:01:16 GMT-0400 (Eastern Daylight Time),483661.59999990463,A,,I,backspace,210,1,13700.099999904633,469961.5,9004,WL,B,12.0
3,60.01699995994568,learn,-16.99995994567871,Mon Oct 28 2024 16:01:16 GMT-0400 (Eastern Daylight Time),497428.40000009537,A,None,I,None,13755,1,27466.900000095367,469961.5,9004,WL,B,12.0
4,0.9670000076293945,learn,59032.999992370605,Mon Oct 28 2024 16:01:16 GMT-0400 (Eastern Daylight Time),569111.7999997139,A,c,I,c,949,1,966.2999997138977,568145.5,9004,WL,B,1.0
4,1.183000087738037,learn,58816.99991226196,Mon Oct 28 2024 16:01:16 GMT-0400 (Eastern Daylight Time),569328.2999997139,A,cl,I,l,190,1,1182.7999997138977,568145.5,9004,WL,B,1.0
4,1.3829998970031738,learn,58617.000102996826,Mon Oct 28 2024 16:01:16 GMT-0400 (Eastern Daylight Time),569528.2999997139,A,clo,I,o,175,1,1382.7999997138977,568145.5,9004,WL,B,1.0
4,1.6170001029968262,learn,58382.999897003174,Mon Oct 28 2024 16:01:16 GMT-0400 (Eastern Daylight Time),569761.2999997139,A,cloc,I,c,220,1,1615.7999997138977,568145.5,9004,WL,B,1.0
4,1.8670001029968262,learn,58132.999897003174,Mon Oct 28 2024 16:01:16 GMT-0400 (Eastern Daylight Time),570011.6999998093,A,clock,I,k,229,1,1866.1999998092651,568145.5,9004,WL,B,1.0
4,2.5999999046325684,learn,57400.00009536743,Mon Oct 28 2024 16:01:16 GMT-0400 (Eastern Daylight Time),570744.5999999046,A,clockenter,I,enter,715,1,2599.0999999046326,568145.5,9004,WL,B,1.0
4,3.4670000076293945,learn,56532.999992370605,Mon Oct 28 2024 16:01:16 GMT-0400 (Eastern Daylight Time),571611.6999998093,A,p,I,p,848,1,866.6999998092651,570745.0,9004,WL,B,2.0
4,3.7339999675750732,learn,56266.00003242493,Mon Oct 28 2024 16:01:16 GMT-0400 (Eastern Daylight Time),571878.4000000954,A,pi,I,i,250,1,1133.4000000953674,570745.0,9004,WL,B,2.0
4,3.9839999675750732,learn,56016.00003242493,Mon Oct 28 2024 16:01:16 GMT-0400 (Eastern Daylight Time),572128.2999997139,A,pip,I,p,224,1,1383.2999997138977,570745.0,9004,WL,B,2.0
4,4.150000095367432,learn,55849.99990463257,Mon Oct 28 2024 16:01:16 GMT-0400 (Eastern Daylight Time),572295.0999999046,A,pipe,I,e,149,1,1550.0999999046326,570745.0,9004,WL,B,2.0
4,4.7829999923706055,learn,55217.000007629395,Mon Oct 28 2024 16:01:16 GMT-0400 (Eastern Daylight Time),572927.7999997139,A,pipeenter,I,enter,617,1,2182.7999997138977,570745.0,9004,WL,B,2.0
4,5.618000030517578,learn,54381.99996948242,Mon Oct 28 2024 16:01:16 GMT-0400 (Eastern Daylight Time),573762.5999999046,A,s,I,s,826,1,834.5,572928.0999999046,9004,WL,B,3.0
4,5.83299994468689,learn,54167.00005531311,Mon Oct 28 2024 16:01:16 GMT-0400 (Eastern Daylight Time),573978.4000000954,A,sk,I,k,194,1,1050.3000001907349,572928.0999999046,9004,WL,B,3.0
4,6.349999904632568,learn,53650.00009536743,Mon Oct 28 2024 16:01:16 GMT-0400 (Eastern Daylight Time),574494.9000000954,A,ski,I,i,491,1,1566.8000001907349,572928.0999999046,9004,WL,B,3.0
4,6.849999904632568,learn,53150.00009536743,Mon Oct 28 2024 16:01:16 GMT-0400 (Eastern Daylight Time),574995.0999999046,A,skin,I,n,488,1,2067.0,572928.0999999046,9004,WL,B,3.0
4,7.400000095367432,learn,52599.99990463257,Mon Oct 28 2024 16:01:16 GMT-0400 (Eastern Daylight Time),575544.5,A,skinenter,I,enter,531,1,2616.4000000953674,572928.0999999046,9004,WL,B,3.0
4,8.150000095367432,learn,51849.99990463257,Mon Oct 28 2024 16:01:16 GMT-0400 (Eastern Daylight Time),576295.0999999046,A,f,I,f,736,1,750.0999999046326,575545.0,9004,WL,B,4.0
4,8.400000095367432,learn,51599.99990463257,Mon Oct 28 2024 16:01:16 GMT-0400 (Eastern Daylight Time),576545.0999999046,A,fi,I,i,223,1,1000.0999999046326,575545.0,9004,WL,B,4.0
4,8.815999984741211,learn,51184.00001525879,Mon Oct 28 2024 16:01:16 GMT-0400 (Eastern Daylight Time),576961.2999997139,A,fir,I,r,406,1,1416.2999997138977,575545.0,9004,WL,B,4.0
4,9.032999992370605,learn,50967.000007629395,Mon Oct 28 2024 16:01:16 GMT-0400 (Eastern Daylight Time),577178.4000000954,A,fire,I,e,196,1,1633.4000000953674,575545.0,9004,WL,B,4.0
4,9.632999897003174,learn,50367.000102996826,Mon Oct 28 2024 16:01:16 GMT-0400 (Eastern Daylight Time),577777.9000000954,A,fireenter,I,enter,588,1,2232.9000000953674,575545.0,9004,WL,B,4.0
4,10.367000102996826,learn,49632.999897003174,Mon Oct 28 2024 16:01:16 GMT-0400 (Eastern Daylight Time),578511.7999997139,A,l,I,l,712,1,733.5999999046326,577778.1999998093,9004,WL,B,5.0
4,10.532999992370605,learn,49467.000007629395,Mon Oct 28 2024 16:01:16 GMT-0400 (Eastern Daylight Time),578678.2999997139,A,la,I,a,151,1,900.0999999046326,577778.1999998093,9004,WL,B,5.0
4,10.799999952316284,learn,49200.000047683716,Mon Oct 28 2024 16:01:16 GMT-0400 (Eastern Daylight Time),578944.7999997139,A,lak,I,k,255,1,1166.5999999046326,577778.1999998093,9004,WL,B,5.0
4,10.967000007629395,learn,49032.999992370605,Mon Oct 28 2024 16:01:16 GMT-0400 (Eastern Daylight Time),579111.7999997139,A,lake,I,e,150,1,1333.5999999046326,577778.1999998093,9004,WL,B,5.0
4,11.41599988937378,learn,48584.00011062622,Mon Oct 28 2024 16:01:16 GMT-0400 (Eastern Daylight Time),579561.1999998093,A,lakeenter,I,enter,423,1,1783.0,577778.1999998093,9004,WL,B,5.0
4,12.299999952316284,learn,47700.000047683716,Mon Oct 28 2024 16:01:16 GMT-0400 (Eastern Daylight Time),580445.0,A,c,I,c,863,1,883.5,579561.5,9004,WL,B,6.0
4,12.5,learn,47500.0,Mon Oct 28 2024 16:01:16 GMT-0400 (Eastern Daylight Time),580645.0999999046,A,ci,I,i,184,1,1083.5999999046326,579561.5,9004,WL,B,6.0
4,12.849999904632568,learn,47150.00009536743,Mon Oct 28 2024 16:01:16 GMT-0400 (Eastern Daylight Time),580995.0,A,cit,I,t,336,1,1433.5,579561.5,9004,WL,B,6.0
4,13.0,learn,47000.0,Mon Oct 28 2024 16:01:16 GMT-0400 (Eastern Daylight Time),581145.0999999046,A,city,I,y,130,1,1583.5999999046326,579561.5,9004,WL,B,6.0
4,13.58299994468689,learn,46417.00005531311,Mon Oct 28 2024 16:01:16 GMT-0400 (Eastern Daylight Time),581728.0,A,cityenter,I,enter,573,1,2166.5,579561.5,9004,WL,B,6.0
4,15.516999959945679,learn,44483.00004005432,Mon Oct 28 2024 16:01:16 GMT-0400 (Eastern Daylight Time),583661.6999998093,A,s,I,s,1913,1,1933.5,581728.1999998093,9004,WL,B,7.0
4,15.867000102996826,learn,44132.999897003174,Mon Oct 28 2024 16:01:16 GMT-0400 (Eastern Daylight Time),584011.7999997139,A,st,I,t,329,1,2283.5999999046326,581728.1999998093,9004,WL,B,7.0
4,16.049999952316284,learn,43950.000047683716,Mon Oct 28 2024 16:01:16 GMT-0400 (Eastern Daylight Time),584195.0,A,str,I,r,170,1,2466.800000190735,581728.1999998093,9004,WL,B,7.0
4,16.367000102996826,learn,43632.999897003174,Mon Oct 28 2024 16:01:16 GMT-0400 (Eastern Daylight Time),584511.7999997139,A,stre,I,e,291,1,2783.5999999046326,581728.1999998093,9004,WL,B,7.0
4,16.532999992370605,learn,43467.000007629395,Mon Oct 28 2024 16:01:16 GMT-0400 (Eastern Daylight Time),584678.1999998093,A,stree,I,e,150,1,2950.0,581728.1999998093,9004,WL,B,7.0
4,16.83299994468689,learn,43167.00005531311,Mon Oct 28 2024 16:01:16 GMT-0400 (Eastern Daylight Time),584978.2999997139,A,street,I,t,287,1,3250.0999999046326,581728.1999998093,9004,WL,B,7.0
4,17.41599988937378,learn,42584.00011062622,Mon Oct 28 2024 16:01:16 GMT-0400 (Eastern Daylight Time),585561.1999998093,A,streetenter,I,enter,565,1,3833.0,581728.1999998093,9004,WL,B,7.0
4,25.41700005531311,learn,34582.99994468689,Mon Oct 28 2024 16:01:16 GMT-0400 (Eastern Daylight Time),593561.6999998093,A,s,I,s,7984,1,8000.199999809265,585561.5,9004,WL,B,8.0
4,25.617000102996826,learn,34382.999897003174,Mon Oct 28 2024 16:01:16 GMT-0400 (Eastern Daylight Time),593761.4000000954,A,st,I,t,188,1,8199.900000095367,585561.5,9004,WL,B,8.0
4,25.75,learn,34250.0,Mon Oct 28 2024 16:01:16 GMT-0400 (Eastern Daylight Time),593894.9000000954,A,sta,I,a,118,1,8333.400000095367,585561.5,9004,WL,B,8.0
4,25.950000047683716,learn,34049.999952316284,Mon Oct 28 2024 16:01:16 GMT-0400 (Eastern Daylight Time),594095.0,A,star,I,r,175,1,8533.5,585561.5,9004,WL,B,8.0
4,26.516000032424927,learn,33483.99996757507,Mon Oct 28 2024 16:01:16 GMT-0400 (Eastern Daylight Time),594661.1999998093,A,starenter,I,enter,544,1,9099.699999809265,585561.5,9004,WL,B,8.0
4,30.34999990463257,learn,29650.00009536743,Mon Oct 28 2024 16:01:16 GMT-0400 (Eastern Daylight Time),598495.0,A,p,I,p,3812,1,3833.4000000953674,594661.5999999046,9004,WL,B,9.0
4,30.700000047683716,learn,29299.999952316284,Mon Oct 28 2024 16:01:16 GMT-0400 (Eastern Daylight Time),598845.0999999046,A,pu,I,u,326,1,4183.5,594661.5999999046,9004,WL,B,9.0
4,31.033999919891357,learn,28966.000080108643,Mon Oct 28 2024 16:01:16 GMT-0400 (Eastern Daylight Time),599178.4000000954,A,pup,I,p,312,1,4516.800000190735,594661.5999999046,9004,WL,B,9.0
4,31.34999990463257,learn,28650.00009536743,Mon Oct 28 2024 16:01:16 GMT-0400 (Eastern Daylight Time),599495.0999999046,A,pupi,I,i,299,1,4833.5,594661.5999999046,9004,WL,B,9.0
4,31.566999912261963,learn,28433.000087738037,Mon Oct 28 2024 16:01:16 GMT-0400 (Eastern Daylight Time),599711.6999998093,A,pupil,I,l,191,1,5050.099999904633,594661.5999999046,9004,WL,B,9.0
4,31.98300004005432,learn,28016.99995994568,Mon Oct 28 2024 16:01:16 GMT-0400 (Eastern Daylight Time),600127.9000000954,A,pupilenter,I,enter,391,1,5466.300000190735,594661.5999999046,9004,WL,B,9.0
4,40.29900002479553,learn,19700.999975204468,Mon Oct 28 2024 16:01:16 GMT-0400 (Eastern Daylight Time),608445.0999999046,A,d,I,d,8298,1,8316.800000190735,600128.2999997139,9004,WL,B,10.0
4,40.3989999294281,learn,19601.0000705719,Mon Oct 28 2024 16:01:16 GMT-0400 (Eastern Daylight Time),608544.9000000954,A,do,I,o,89,1,8416.60000038147,600128.2999997139,9004,WL,B,10.0
4,40.66599988937378,learn,19334.00011062622,Mon Oct 28 2024 16:01:16 GMT-0400 (Eastern Daylight Time),608811.7999997139,A,doo,I,o,245,1,8683.5,600128.2999997139,9004,WL,B,10.0
4,40.948999881744385,learn,19051.000118255615,Mon Oct 28 2024 16:01:16 GMT-0400 (Eastern Daylight Time),609095.0,A,door,I,r,266,1,8966.700000286102,600128.2999997139,9004,WL,B,10.0
4,41.598999977111816,learn,18401.000022888184,Mon Oct 28 2024 16:01:16 GMT-0400 (Eastern Daylight Time),609744.5999999046,A,doorenter,I,enter,640,1,9616.300000190735,600128.2999997139,9004,WL,B,10.0
4,41.882999897003174,learn,18117.000102996826,Mon Oct 28 2024 16:01:16 GMT-0400 (Eastern Daylight Time),610028.6999998093,A,w,I,w,264,1,283.7999997138977,609744.9000000954,9004,WL,B,11.0
4,42.66599988937378,learn,17334.00011062622,Mon Oct 28 2024 16:01:16 GMT-0400 (Eastern Daylight Time),610812.0,A,wi,I,i,753,1,1067.0999999046326,609744.9000000954,9004,WL,B,11.0
4,42.882999897003174,learn,17117.000102996826,Mon Oct 28 2024 16:01:16 GMT-0400 (Eastern Daylight Time),611028.1999998093,A,win,I,n,203,1,1283.2999997138977,609744.9000000954,9004,WL,B,11.0
4,43.06599998474121,learn,16934.00001525879,Mon Oct 28 2024 16:01:16 GMT-0400 (Eastern Daylight Time),611211.7999997139,A,wind,I,d,163,1,1466.8999996185303,609744.9000000954,9004,WL,B,11.0
4,43.23300004005432,learn,16766.99995994568,Mon Oct 28 2024 16:01:16 GMT-0400 (Eastern Daylight Time),611378.1999998093,A,windo,I,o,150,1,1633.2999997138977,609744.9000000954,9004,WL,B,11.0
4,43.598999977111816,learn,16401.000022888184,Mon Oct 28 2024 16:01:16 GMT-0400 (Eastern Daylight Time),611744.7999997139,A,window,I,w,356,1,1999.8999996185303,609744.9000000954,9004,WL,B,11.0
4,44.26600003242493,learn,15733.999967575073,Mon Oct 28 2024 16:01:16 GMT-0400 (Eastern Daylight Time),612411.2999997139,A,windowenter,I,enter,646,1,2666.3999996185303,609744.9000000954,9004,WL,B,11.0
4,46.032999992370605,learn,13967.000007629395,Mon Oct 28 2024 16:01:16 GMT-0400 (Eastern Daylight Time),614178.5,A,s,I,s,1758,1,1766.8000001907349,612411.6999998093,9004,WL,B,12.0
4,46.54900002479553,learn,13450.999975204468,Mon Oct 28 2024 16:01:16 GMT-0400 (Eastern Daylight Time),614695.1999998093,A,sk,I,k,499,1,2283.5,612411.6999998093,9004,WL,B,12.0
4,46.71600008010864,learn,13283.999919891357,Mon Oct 28 2024 16:01:16 GMT-0400 (Eastern Daylight Time),614861.9000000954,A,ski,I,i,144,1,2450.2000002861023,612411.6999998093,9004,WL,B,12.0
4,46.93300008773804,learn,13066.999912261963,Mon Oct 28 2024 16:01:16 GMT-0400 (Eastern Daylight Time),615078.4000000954,A,skin,I,n,199,1,2666.7000002861023,612411.6999998093,9004,WL,B,12.0
4,47.431999921798706,learn,12568.000078201294,Mon Oct 28 2024 16:01:16 GMT-0400 (Eastern Daylight Time),615577.9000000954,A,skinenter,I,enter,481,1,3166.2000002861023,612411.6999998093,9004,WL,B,12.0
4,60.01600003242493,learn,-16.000032424926758,Mon Oct 28 2024 16:01:16 GMT-0400 (Eastern Daylight Time),628161.7999997139,A,None,I,None,12576,1,12583.5,615578.2999997139,9004,WL,B,13.0
5,3.5,learn,60000.0,Mon Oct 28 2024 16:01:16 GMT-0400 (Eastern Daylight Time),703062.1999998093,A,c,I,c,3486,1,3500.0,699562.1999998093,9004,WL,B,1.0
5,3.8329999446868896,learn,60000.0,Mon Oct 28 2024 16:01:16 GMT-0400 (Eastern Daylight Time),703395.4000000954,A,cl,I,l,320,1,3833.2000002861023,699562.1999998093,9004,WL,B,1.0
5,4.5329999923706055,learn,60000.0,Mon Oct 28 2024 16:01:16 GMT-0400 (Eastern Daylight Time),704095.1999998093,A,clo,I,o,675,1,4533.0,699562.1999998093,9004,WL,B,1.0
5,5.349999904632568,learn,60000.0,Mon Oct 28 2024 16:01:16 GMT-0400 (Eastern Daylight Time),704911.7999997139,A,cloc,I,c,791,1,5349.599999904633,699562.1999998093,9004,WL,B,1.0
5,5.549999952316284,learn,60000.0,Mon Oct 28 2024 16:01:16 GMT-0400 (Eastern Daylight Time),705111.9000000954,A,clocj,I,j,182,1,5549.700000286102,699562.1999998093,9004,WL,B,1.0
5,5.91700005531311,learn,60000.0,Mon Oct 28 2024 16:01:16 GMT-0400 (Eastern Daylight Time),705478.5,A,cloc,I,backspace,343,1,5916.300000190735,699562.1999998093,9004,WL,B,1.0
5,6.200000047683716,learn,60000.0,Mon Oct 28 2024 16:01:16 GMT-0400 (Eastern Daylight Time),705761.4000000954,A,clock,I,k,273,1,6199.200000286102,699562.1999998093,9004,WL,B,1.0
5,6.766000032424927,learn,60000.0,Mon Oct 28 2024 16:01:16 GMT-0400 (Eastern Daylight Time),706328.0999999046,A,clockenter,I,enter,549,1,6765.900000095367,699562.1999998093,9004,WL,B,1.0
5,8.049999952316284,learn,60000.0,Mon Oct 28 2024 16:01:16 GMT-0400 (Eastern Daylight Time),707611.7999997139,A,p,I,p,1265,1,1283.3999996185303,706328.4000000954,9004,WL,B,2.0
5,8.316999912261963,learn,60000.0,Mon Oct 28 2024 16:01:16 GMT-0400 (Eastern Daylight Time),707878.4000000954,A,pi,I,i,251,1,1550.0,706328.4000000954,9004,WL,B,2.0
5,8.532999992370605,learn,60000.0,Mon Oct 28 2024 16:01:16 GMT-0400 (Eastern Daylight Time),708095.0999999046,A,pip,I,p,184,1,1766.6999998092651,706328.4000000954,9004,WL,B,2.0
5,8.816999912261963,learn,60000.0,Mon Oct 28 2024 16:01:16 GMT-0400 (Eastern Daylight Time),708378.5,A,pipe,I,e,262,1,2050.0999999046326,706328.4000000954,9004,WL,B,2.0
5,9.432999849319458,learn,60000.0,Mon Oct 28 2024 16:01:16 GMT-0400 (Eastern Daylight Time),708994.7999997139,A,pipeenter,I,enter,603,1,2666.3999996185303,706328.4000000954,9004,WL,B,2.0
5,10.41700005531311,learn,60000.0,Mon Oct 28 2024 16:01:16 GMT-0400 (Eastern Daylight Time),709978.5,A,w,I,w,968,1,983.5,708995.0,9004,WL,B,3.0
5,10.700000047683716,learn,60000.0,Mon Oct 28 2024 16:01:16 GMT-0400 (Eastern Daylight Time),710261.9000000954,A,wi,I,i,266,1,1266.9000000953674,708995.0,9004,WL,B,3.0
5,11.182999849319458,learn,60000.0,Mon Oct 28 2024 16:01:16 GMT-0400 (Eastern Daylight Time),710745.1999998093,A,wif,I,f,463,1,1750.1999998092651,708995.0,9004,WL,B,3.0
5,11.432999849319458,learn,60000.0,Mon Oct 28 2024 16:01:16 GMT-0400 (Eastern Daylight Time),710995.0999999046,A,wife,I,e,237,1,2000.0999999046326,708995.0,9004,WL,B,3.0
5,11.983000040054321,learn,60000.0,Mon Oct 28 2024 16:01:16 GMT-0400 (Eastern Daylight Time),711544.7999997139,A,wifeenter,I,enter,531,1,2549.7999997138977,708995.0,9004,WL,B,3.0
5,12.682999849319458,learn,60000.0,Mon Oct 28 2024 16:01:16 GMT-0400 (Eastern Daylight Time),712245.2999997139,A,p,I,p,689,1,700.1999998092651,711545.0999999046,9004,WL,B,4.0
5,13.0,learn,60000.0,Mon Oct 28 2024 16:01:16 GMT-0400 (Eastern Daylight Time),712561.5999999046,A,pu,I,u,305,1,1016.5,711545.0999999046,9004,WL,B,4.0
5,13.25,learn,60000.0,Mon Oct 28 2024 16:01:16 GMT-0400 (Eastern Daylight Time),712811.9000000954,A,pup,I,p,229,1,1266.8000001907349,711545.0999999046,9004,WL,B,4.0
5,13.549999952316284,learn,60000.0,Mon Oct 28 2024 16:01:16 GMT-0400 (Eastern Daylight Time),713111.9000000954,A,pupi,I,i,282,1,1566.8000001907349,711545.0999999046,9004,WL,B,4.0
5,13.766999959945679,learn,60000.0,Mon Oct 28 2024 16:01:16 GMT-0400 (Eastern Daylight Time),713328.5,A,pupil,I,l,190,1,1783.4000000953674,711545.0999999046,9004,WL,B,4.0
5,14.5,learn,60000.0,Mon Oct 28 2024 16:01:16 GMT-0400 (Eastern Daylight Time),714061.5,A,pupilenter,I,enter,702,1,2516.4000000953674,711545.0999999046,9004,WL,B,4.0
5,15.33299994468689,learn,60000.0,Mon Oct 28 2024 16:01:16 GMT-0400 (Eastern Daylight Time),714895.1999998093,A,s,I,s,812,1,833.4000000953674,714061.7999997139,9004,WL,B,5.0
5,15.467000007629395,learn,60000.0,Mon Oct 28 2024 16:01:16 GMT-0400 (Eastern Daylight Time),715028.5,A,sk,I,k,118,1,966.7000002861023,714061.7999997139,9004,WL,B,5.0
5,15.66700005531311,learn,60000.0,Mon Oct 28 2024 16:01:16 GMT-0400 (Eastern Daylight Time),715228.4000000954,A,ski,I,i,178,1,1166.6000003814697,714061.7999997139,9004,WL,B,5.0
5,16.0,learn,60000.0,Mon Oct 28 2024 16:01:16 GMT-0400 (Eastern Daylight Time),715561.9000000954,A,skin,I,n,314,1,1500.1000003814697,714061.7999997139,9004,WL,B,5.0
5,16.41599988937378,learn,60000.0,Mon Oct 28 2024 16:01:16 GMT-0400 (Eastern Daylight Time),715978.0,A,skinenter,I,enter,396,1,1916.2000002861023,714061.7999997139,9004,WL,B,5.0
5,17.116999864578247,learn,60000.0,Mon Oct 28 2024 16:01:16 GMT-0400 (Eastern Daylight Time),716678.4000000954,A,a,I,a,688,1,700.0,715978.4000000954,9004,WL,B,6.0
5,17.51699995994568,learn,60000.0,Mon Oct 28 2024 16:01:16 GMT-0400 (Eastern Daylight Time),717078.4000000954,A,ar,I,r,383,1,1100.0,715978.4000000954,9004,WL,B,6.0
5,17.882999897003174,learn,60000.0,Mon Oct 28 2024 16:01:16 GMT-0400 (Eastern Daylight Time),717445.1999998093,A,arm,I,m,353,1,1466.7999997138977,715978.4000000954,9004,WL,B,6.0
5,19.532999992370605,learn,60000.0,Mon Oct 28 2024 16:01:16 GMT-0400 (Eastern Daylight Time),719094.6999998093,A,armenter,I,enter,1633,1,3116.2999997138977,715978.4000000954,9004,WL,B,6.0
5,20.41700005531311,learn,60000.0,Mon Oct 28 2024 16:01:16 GMT-0400 (Eastern Daylight Time),719978.5,A,c,I,c,867,1,883.5,719095.0,9004,WL,B,7.0
5,20.616999864578247,learn,60000.0,Mon Oct 28 2024 16:01:16 GMT-0400 (Eastern Daylight Time),720178.4000000954,A,ci,I,i,189,1,1083.4000000953674,719095.0,9004,WL,B,7.0
5,21.08299994468689,learn,60000.0,Mon Oct 28 2024 16:01:16 GMT-0400 (Eastern Daylight Time),720645.1999998093,A,cit,I,t,453,1,1550.1999998092651,719095.0,9004,WL,B,7.0
5,21.282999992370605,learn,60000.0,Mon Oct 28 2024 16:01:16 GMT-0400 (Eastern Daylight Time),720845.1999998093,A,city,I,y,177,1,1750.1999998092651,719095.0,9004,WL,B,7.0
5,21.682999849319458,learn,60000.0,Mon Oct 28 2024 16:01:16 GMT-0400 (Eastern Daylight Time),721244.7999997139,A,cityenter,I,enter,377,1,2149.7999997138977,719095.0,9004,WL,B,7.0
5,22.467000007629395,learn,60000.0,Mon Oct 28 2024 16:01:16 GMT-0400 (Eastern Daylight Time),722028.5,A,a,I,a,765,1,783.4000000953674,721245.0999999046,9004,WL,B,8.0
5,22.983999967575073,learn,60000.0,Mon Oct 28 2024 16:01:16 GMT-0400 (Eastern Daylight Time),722545.4000000954,A,ak,I,k,492,1,1300.3000001907349,721245.0999999046,9004,WL,B,8.0
5,23.200000047683716,learn,60000.0,Mon Oct 28 2024 16:01:16 GMT-0400 (Eastern Daylight Time),722761.9000000954,A,ake,I,e,196,1,1516.8000001907349,721245.0999999046,9004,WL,B,8.0
5,24.33299994468689,learn,60000.0,Mon Oct 28 2024 16:01:16 GMT-0400 (Eastern Daylight Time),723895.2999997139,A,ak,I,backspace,1116,1,2650.199999809265,721245.0999999046,9004,WL,B,8.0
5,24.66700005531311,learn,60000.0,Mon Oct 28 2024 16:01:16 GMT-0400 (Eastern Daylight Time),724228.5,A,a,I,backspace,319,1,2983.4000000953674,721245.0999999046,9004,WL,B,8.0
5,24.866999864578247,learn,60000.0,Mon Oct 28 2024 16:01:16 GMT-0400 (Eastern Daylight Time),724428.5,A,,I,backspace,179,1,3183.4000000953674,721245.0999999046,9004,WL,B,8.0
5,25.01699995994568,learn,60000.0,Mon Oct 28 2024 16:01:16 GMT-0400 (Eastern Daylight Time),724578.5,A,,I,backspace,131,1,3333.4000000953674,721245.0999999046,9004,WL,B,8.0
5,25.59999990463257,learn,60000.0,Mon Oct 28 2024 16:01:16 GMT-0400 (Eastern Daylight Time),725162.0,A,l,I,l,557,1,3916.9000000953674,721245.0999999046,9004,WL,B,8.0
5,25.799999952316284,learn,60000.0,Mon Oct 28 2024 16:01:16 GMT-0400 (Eastern Daylight Time),725361.6999998093,A,la,I,a,188,1,4116.599999904633,721245.0999999046,9004,WL,B,8.0
5,26.33299994468689,learn,60000.0,Mon Oct 28 2024 16:01:16 GMT-0400 (Eastern Daylight Time),725895.1999998093,A,lak,I,k,516,1,4650.099999904633,721245.0999999046,9004,WL,B,8.0
5,26.66700005531311,learn,60000.0,Mon Oct 28 2024 16:01:16 GMT-0400 (Eastern Daylight Time),726228.4000000954,A,lake,I,e,320,1,4983.300000190735,721245.0999999046,9004,WL,B,8.0
5,26.99899983406067,learn,60000.0,Mon Oct 28 2024 16:01:16 GMT-0400 (Eastern Daylight Time),726561.2999997139,A,lakeenter,I,enter,321,1,5316.199999809265,721245.0999999046,9004,WL,B,8.0
5,27.632999897003174,learn,60000.0,Mon Oct 28 2024 16:01:16 GMT-0400 (Eastern Daylight Time),727195.1999998093,A,s,I,s,616,1,633.5999999046326,726561.5999999046,9004,WL,B,9.0
5,27.84999990463257,learn,60000.0,Mon Oct 28 2024 16:01:16 GMT-0400 (Eastern Daylight Time),727411.9000000954,A,st,I,t,204,1,850.3000001907349,726561.5999999046,9004,WL,B,9.0
5,28.032999992370605,learn,60000.0,Mon Oct 28 2024 16:01:16 GMT-0400 (Eastern Daylight Time),727595.2999997139,A,str,I,r,161,1,1033.6999998092651,726561.5999999046,9004,WL,B,9.0
5,28.33299994468689,learn,60000.0,Mon Oct 28 2024 16:01:16 GMT-0400 (Eastern Daylight Time),727895.0999999046,A,stre,I,e,283,1,1333.5,726561.5999999046,9004,WL,B,9.0
5,28.51699995994568,learn,60000.0,Mon Oct 28 2024 16:01:16 GMT-0400 (Eastern Daylight Time),728078.5,A,stree,I,e,160,1,1516.9000000953674,726561.5999999046,9004,WL,B,9.0
5,28.58299994468689,learn,60000.0,Mon Oct 28 2024 16:01:16 GMT-0400 (Eastern Daylight Time),728144.6999998093,A,street,I,t,56,1,1583.0999999046326,726561.5999999046,9004,WL,B,9.0
5,29.700000047683716,learn,60000.0,Mon Oct 28 2024 16:01:16 GMT-0400 (Eastern Daylight Time),729261.2999997139,A,streetenter,I,enter,1092,1,2699.699999809265,726561.5999999046,9004,WL,B,9.0
5,31.032999992370605,learn,60000.0,Mon Oct 28 2024 16:01:16 GMT-0400 (Eastern Daylight Time),730595.1999998093,A,f,I,f,1324,1,1333.5,729261.6999998093,9004,WL,B,10.0
5,31.182999849319458,learn,60000.0,Mon Oct 28 2024 16:01:16 GMT-0400 (Eastern Daylight Time),730745.1999998093,A,fi,I,i,131,1,1483.5,729261.6999998093,9004,WL,B,10.0
5,31.41700005531311,learn,60000.0,Mon Oct 28 2024 16:01:16 GMT-0400 (Eastern Daylight Time),730978.4000000954,A,fir,I,r,214,1,1716.7000002861023,729261.6999998093,9004,WL,B,10.0
5,31.799999952316284,learn,60000.0,Mon Oct 28 2024 16:01:16 GMT-0400 (Eastern Daylight Time),731361.6999998093,A,fire,I,e,365,1,2100.0,729261.6999998093,9004,WL,B,10.0
5,32.71599984169006,learn,60000.0,Mon Oct 28 2024 16:01:16 GMT-0400 (Eastern Daylight Time),732278.1999998093,A,fireenter,I,enter,900,1,3016.5,729261.6999998093,9004,WL,B,10.0
5,33.282999992370605,learn,60000.0,Mon Oct 28 2024 16:01:16 GMT-0400 (Eastern Daylight Time),732845.2999997139,A,s,I,s,547,1,566.7999997138977,732278.5,9004,WL,B,11.0
5,33.48300004005432,learn,60000.0,Mon Oct 28 2024 16:01:16 GMT-0400 (Eastern Daylight Time),733045.1999998093,A,st,I,t,185,1,766.6999998092651,732278.5,9004,WL,B,11.0
5,33.66700005531311,learn,60000.0,Mon Oct 28 2024 16:01:16 GMT-0400 (Eastern Daylight Time),733228.5,A,sta,I,a,153,1,950.0,732278.5,9004,WL,B,11.0
5,33.91700005531311,learn,60000.0,Mon Oct 28 2024 16:01:16 GMT-0400 (Eastern Daylight Time),733478.4000000954,A,star,I,r,234,1,1199.9000000953674,732278.5,9004,WL,B,11.0
5,34.64999985694885,learn,60000.0,Mon Oct 28 2024 16:01:16 GMT-0400 (Eastern Daylight Time),734211.4000000954,A,starenter,I,enter,720,1,1932.9000000953674,732278.5,9004,WL,B,11.0
5,40.08299994468689,learn,60000.0,Mon Oct 28 2024 16:01:16 GMT-0400 (Eastern Daylight Time),739645.2999997139,A,g,I,g,5414,1,5433.599999904633,734211.6999998093,9004,WL,B,12.0
5,40.26699995994568,learn,60000.0,Mon Oct 28 2024 16:01:16 GMT-0400 (Eastern Daylight Time),739828.5,A,gr,I,r,169,1,5616.800000190735,734211.6999998093,9004,WL,B,12.0
5,40.58299994468689,learn,60000.0,Mon Oct 28 2024 16:01:16 GMT-0400 (Eastern Daylight Time),740145.0,A,gra,I,a,306,1,5933.300000190735,734211.6999998093,9004,WL,B,12.0
5,40.86699986457825,learn,60000.0,Mon Oct 28 2024 16:01:16 GMT-0400 (Eastern Daylight Time),740428.5,A,gras,I,s,264,1,6216.800000190735,734211.6999998093,9004,WL,B,12.0
5,41.0,learn,60000.0,Mon Oct 28 2024 16:01:16 GMT-0400 (Eastern Daylight Time),740561.6999998093,A,grass,I,s,122,1,6350.0,734211.6999998093,9004,WL,B,12.0
5,41.132999897003174,learn,60000.0,Mon Oct 28 2024 16:01:16 GMT-0400 (Eastern Daylight Time),740694.7999997139,A,grassenter,I,enter,117,1,6483.099999904633,734211.6999998093,9004,WL,B,12.0
5,48.66700005531311,learn,60000.0,Mon Oct 28 2024 16:01:16 GMT-0400 (Eastern Daylight Time),748228.4000000954,A,c,I,c,7522,1,7533.300000190735,740695.0999999046,9004,WL,B,13.0
5,48.799999952316284,learn,60000.0,Mon Oct 28 2024 16:01:16 GMT-0400 (Eastern Daylight Time),748361.9000000954,A,ci,I,i,112,1,7666.800000190735,740695.0999999046,9004,WL,B,13.0
5,49.58299994468689,learn,60000.0,Mon Oct 28 2024 16:01:16 GMT-0400 (Eastern Daylight Time),749145.1999998093,A,c,I,backspace,765,1,8450.099999904633,740695.0999999046,9004,WL,B,13.0
5,49.799999952316284,learn,60000.0,Mon Oct 28 2024 16:01:16 GMT-0400 (Eastern Daylight Time),749361.5999999046,A,,I,backspace,206,1,8666.5,740695.0999999046,9004,WL,B,13.0
5,50.59999990463257,learn,60000.0,Mon Oct 28 2024 16:01:16 GMT-0400 (Eastern Daylight Time),750161.6999998093,A,c,I,c,782,1,9466.599999904633,740695.0999999046,9004,WL,B,13.0
5,50.75,learn,60000.0,Mon Oct 28 2024 16:01:16 GMT-0400 (Eastern Daylight Time),750311.7999997139,A,ci,I,i,133,1,9616.699999809265,740695.0999999046,9004,WL,B,13.0
5,52.950000047683716,learn,60000.0,Mon Oct 28 2024 16:01:16 GMT-0400 (Eastern Daylight Time),752512.0,A,c,I,backspace,2174,1,11816.900000095367,740695.0999999046,9004,WL,B,13.0
5,53.11699986457825,learn,60000.0,Mon Oct 28 2024 16:01:16 GMT-0400 (Eastern Daylight Time),752678.5,A,,I,backspace,151,1,11983.400000095367,740695.0999999046,9004,WL,B,13.0
5,53.299999952316284,learn,60000.0,Mon Oct 28 2024 16:01:16 GMT-0400 (Eastern Daylight Time),752861.9000000954,A,,I,backspace,161,1,12166.800000190735,740695.0999999046,9004,WL,B,13.0
5,53.967000007629395,learn,60000.0,Mon Oct 28 2024 16:01:16 GMT-0400 (Eastern Daylight Time),753528.5999999046,A,d,I,d,649,1,12833.5,740695.0999999046,9004,WL,B,13.0
5,54.14999985694885,learn,60000.0,Mon Oct 28 2024 16:01:16 GMT-0400 (Eastern Daylight Time),753711.6999998093,A,do,I,o,158,1,13016.599999904633,740695.0999999046,9004,WL,B,13.0
5,54.33299994468689,learn,60000.0,Mon Oct 28 2024 16:01:16 GMT-0400 (Eastern Daylight Time),753895.2999997139,A,doo,I,o,160,1,13200.199999809265,740695.0999999046,9004,WL,B,13.0
5,54.632999897003174,learn,60000.0,Mon Oct 28 2024 16:01:16 GMT-0400 (Eastern Daylight Time),754195.1999998093,A,door,I,r,287,1,13500.099999904633,740695.0999999046,9004,WL,B,13.0
5,55.132999897003174,learn,60000.0,Mon Oct 28 2024 16:01:16 GMT-0400 (Eastern Daylight Time),754695.1999998093,A,doorw,I,w,484,1,14000.099999904633,740695.0999999046,9004,WL,B,13.0
5,55.75,learn,60000.0,Mon Oct 28 2024 16:01:16 GMT-0400 (Eastern Daylight Time),755311.7999997139,A,door,I,backspace,591,1,14616.699999809265,740695.0999999046,9004,WL,B,13.0
5,56.56599998474121,learn,60000.0,Mon Oct 28 2024 16:01:16 GMT-0400 (Eastern Daylight Time),756128.0999999046,A,doorenter,I,enter,791,1,15433.0,740695.0999999046,9004,WL,B,13.0
5,57.34999990463257,learn,60000.0,Mon Oct 28 2024 16:01:16 GMT-0400 (Eastern Daylight Time),756911.9000000954,A,w,I,w,761,1,783.4000000953674,756128.5,9004,WL,B,14.0
5,57.51699995994568,learn,60000.0,Mon Oct 28 2024 16:01:16 GMT-0400 (Eastern Daylight Time),757078.5999999046,A,wi,I,i,150,1,950.0999999046326,756128.5,9004,WL,B,14.0
5,57.76699995994568,learn,60000.0,Mon Oct 28 2024 16:01:16 GMT-0400 (Eastern Daylight Time),757328.6999998093,A,win,I,n,217,1,1200.1999998092651,756128.5,9004,WL,B,14.0
5,58.049999952316284,learn,60000.0,Mon Oct 28 2024 16:01:16 GMT-0400 (Eastern Daylight Time),757611.9000000954,A,wind,I,d,262,1,1483.4000000953674,756128.5,9004,WL,B,14.0
5,58.200000047683716,learn,60000.0,Mon Oct 28 2024 16:01:16 GMT-0400 (Eastern Daylight Time),757761.5999999046,A,windo,I,o,138,1,1633.0999999046326,756128.5,9004,WL,B,14.0
5,58.450000047683716,learn,60000.0,Mon Oct 28 2024 16:01:16 GMT-0400 (Eastern Daylight Time),758011.7999997139,A,window,I,w,222,1,1883.2999997138977,756128.5,9004,WL,B,14.0
5,58.615999937057495,learn,60000.0,Mon Oct 28 2024 16:01:16 GMT-0400 (Eastern Daylight Time),758178.0999999046,A,windowenter,I,enter,155,1,2049.5999999046326,756128.5,9004,WL,B,14.0
5,118.63399982452393,learn,60000.0,Mon Oct 28 2024 16:01:16 GMT-0400 (Eastern Daylight Time),818195.2999997139,A,None,I,None,60010,1,60016.7999997139,758178.5,9004,WL,B,15.0
6,1.1669998168945312,distr,58833.00018310547,Mon Oct 28 2024 16:01:16 GMT-0400 (Eastern Daylight Time),895678.7999997139,B,c,I,c,1143,1,1166.3999996185303,894512.4000000954,9004,WL,B,1.0
6,1.4839999675750732,distr,58516.00003242493,Mon Oct 28 2024 16:01:16 GMT-0400 (Eastern Daylight Time),895995.4000000954,B,ca,I,a,296,1,1483.0,894512.4000000954,9004,WL,B,1.0
6,2.0169999599456787,distr,57983.00004005432,Mon Oct 28 2024 16:01:16 GMT-0400 (Eastern Daylight Time),896528.6999998093,B,c,I,backspace,507,1,2016.2999997138977,894512.4000000954,9004,WL,B,1.0
6,3.2170000076293945,distr,56782.999992370605,Mon Oct 28 2024 16:01:16 GMT-0400 (Eastern Daylight Time),897728.7999997139,B,ce,I,e,1174,1,3216.3999996185303,894512.4000000954,9004,WL,B,1.0
6,3.4499998092651367,distr,56550.00019073486,Mon Oct 28 2024 16:01:16 GMT-0400 (Eastern Daylight Time),897962.0999999046,B,cel,I,l,215,1,3449.699999809265,894512.4000000954,9004,WL,B,1.0
6,3.616999864578247,distr,56383.00013542175,Mon Oct 28 2024 16:01:16 GMT-0400 (Eastern Daylight Time),898128.5999999046,B,cell,I,l,141,1,3616.199999809265,894512.4000000954,9004,WL,B,1.0
6,4.199999809265137,distr,55800.00019073486,Mon Oct 28 2024 16:01:16 GMT-0400 (Eastern Daylight Time),898711.5999999046,B,cellenter,I,enter,565,1,4199.199999809265,894512.4000000954,9004,WL,B,1.0
6,5.232999801635742,distr,54767.00019836426,Mon Oct 28 2024 16:01:16 GMT-0400 (Eastern Daylight Time),899745.1999998093,B,v,I,v,1027,1,1033.2999997138977,898711.9000000954,9004,WL,B,2.0
6,5.416999816894531,distr,54583.00018310547,Mon Oct 28 2024 16:01:16 GMT-0400 (Eastern Daylight Time),899928.5999999046,B,vi,I,i,166,1,1216.6999998092651,898711.9000000954,9004,WL,B,2.0
6,5.68399977684021,distr,54316.00022315979,Mon Oct 28 2024 16:01:16 GMT-0400 (Eastern Daylight Time),900195.5,B,vil,I,l,255,1,1483.5999999046326,898711.9000000954,9004,WL,B,2.0
6,5.83299994468689,distr,54167.00005531311,Mon Oct 28 2024 16:01:16 GMT-0400 (Eastern Daylight Time),900345.4000000954,B,vill,I,l,131,1,1633.5,898711.9000000954,9004,WL,B,2.0
6,6.033999919891357,distr,53966.00008010864,Mon Oct 28 2024 16:01:16 GMT-0400 (Eastern Daylight Time),900545.9000000954,B,villa,I,a,174,1,1834.0,898711.9000000954,9004,WL,B,2.0
6,6.533999919891357,distr,53466.00008010864,Mon Oct 28 2024 16:01:16 GMT-0400 (Eastern Daylight Time),901045.6999998093,B,villag,I,g,477,1,2333.7999997138977,898711.9000000954,9004,WL,B,2.0
6,6.733999967575073,distr,53266.00003242493,Mon Oct 28 2024 16:01:16 GMT-0400 (Eastern Daylight Time),901245.5,B,village,I,e,178,1,2533.5999999046326,898711.9000000954,9004,WL,B,2.0
6,7.415999889373779,distr,52584.00011062622,Mon Oct 28 2024 16:01:16 GMT-0400 (Eastern Daylight Time),901928.2999997139,B,villageenter,I,enter,665,1,3216.3999996185303,898711.9000000954,9004,WL,B,2.0
6,8.316999912261963,distr,51683.00008773804,Mon Oct 28 2024 16:01:16 GMT-0400 (Eastern Daylight Time),902828.7999997139,B,a,I,a,882,1,900.0,901928.7999997139,9004,WL,B,3.0
6,8.849999904632568,distr,51150.00009536743,Mon Oct 28 2024 16:01:16 GMT-0400 (Eastern Daylight Time),903361.5999999046,B,ar,I,r,519,1,1432.8000001907349,901928.7999997139,9004,WL,B,3.0
6,9.133999824523926,distr,50866.000175476074,Mon Oct 28 2024 16:01:16 GMT-0400 (Eastern Daylight Time),903645.4000000954,B,arm,I,m,265,1,1716.6000003814697,901928.7999997139,9004,WL,B,3.0
6,9.533999919891357,distr,50466.00008010864,Mon Oct 28 2024 16:01:16 GMT-0400 (Eastern Daylight Time),904045.2999997139,B,army,I,y,378,1,2116.5,901928.7999997139,9004,WL,B,3.0
6,10.149999856948853,distr,49850.00014305115,Mon Oct 28 2024 16:01:16 GMT-0400 (Eastern Daylight Time),904661.5,B,armyenter,I,enter,601,1,2732.7000002861023,901928.7999997139,9004,WL,B,3.0
6,10.883999824523926,distr,49116.000175476074,Mon Oct 28 2024 16:01:16 GMT-0400 (Eastern Daylight Time),905395.5,B,f,I,f,725,1,733.5999999046326,904661.9000000954,9004,WL,B,4.0
6,11.133999824523926,distr,48866.000175476074,Mon Oct 28 2024 16:01:16 GMT-0400 (Eastern Daylight Time),905645.5,B,fr,I,r,228,1,983.5999999046326,904661.9000000954,9004,WL,B,4.0
6,11.549999952316284,distr,48450.000047683716,Mon Oct 28 2024 16:01:16 GMT-0400 (Eastern Daylight Time),906062.1999998093,B,fri,I,i,394,1,1400.2999997138977,904661.9000000954,9004,WL,B,4.0
6,11.899999856948853,distr,48100.00014305115,Mon Oct 28 2024 16:01:16 GMT-0400 (Eastern Daylight Time),906412.0999999046,B,frie,I,e,329,1,1750.1999998092651,904661.9000000954,9004,WL,B,4.0
6,12.316999912261963,distr,47683.00008773804,Mon Oct 28 2024 16:01:16 GMT-0400 (Eastern Daylight Time),906828.7999997139,B,frien,I,n,393,1,2166.8999996185303,904661.9000000954,9004,WL,B,4.0
6,12.516999959945679,distr,47483.00004005432,Mon Oct 28 2024 16:01:16 GMT-0400 (Eastern Daylight Time),907028.5999999046,B,friend,I,d,186,1,2366.699999809265,904661.9000000954,9004,WL,B,4.0
6,13.217000007629395,distr,46782.999992370605,Mon Oct 28 2024 16:01:16 GMT-0400 (Eastern Daylight Time),907728.4000000954,B,friendenter,I,enter,688,1,3066.5,904661.9000000954,9004,WL,B,4.0
6,14.016999959945679,distr,45983.00004005432,Mon Oct 28 2024 16:01:16 GMT-0400 (Eastern Daylight Time),908528.7999997139,B,l,I,l,778,1,800.0,907728.7999997139,9004,WL,B,5.0
6,14.43399977684021,distr,45566.00022315979,Mon Oct 28 2024 16:01:16 GMT-0400 (Eastern Daylight Time),908945.5,B,li,I,i,391,1,1216.7000002861023,907728.7999997139,9004,WL,B,5.0
6,14.666999816894531,distr,45333.00018310547,Mon Oct 28 2024 16:01:16 GMT-0400 (Eastern Daylight Time),909178.6999998093,B,lip,I,p,214,1,1449.9000000953674,907728.7999997139,9004,WL,B,5.0
6,15.265999794006348,distr,44734.00020599365,Mon Oct 28 2024 16:01:16 GMT-0400 (Eastern Daylight Time),909778.1999998093,B,lipenter,I,enter,588,1,2049.4000000953674,907728.7999997139,9004,WL,B,5.0
6,16.316999912261963,distr,43683.00008773804,Mon Oct 28 2024 16:01:16 GMT-0400 (Eastern Daylight Time),910828.5999999046,B,b,I,b,1032,1,1050.0999999046326,909778.5,9004,WL,B,6.0
6,16.51699995994568,distr,43483.00004005432,Mon Oct 28 2024 16:01:16 GMT-0400 (Eastern Daylight Time),911028.6999998093,B,ba,I,a,187,1,1250.1999998092651,909778.5,9004,WL,B,6.0
6,16.816999912261963,distr,43183.00008773804,Mon Oct 28 2024 16:01:16 GMT-0400 (Eastern Daylight Time),911328.9000000954,B,bab,I,b,282,1,1550.4000000953674,909778.5,9004,WL,B,6.0
6,17.149999856948853,distr,42850.00014305115,Mon Oct 28 2024 16:01:16 GMT-0400 (Eastern Daylight Time),911662.1999998093,B,baby,I,y,311,1,1883.6999998092651,909778.5,9004,WL,B,6.0
6,17.482999801635742,distr,42517.00019836426,Mon Oct 28 2024 16:01:16 GMT-0400 (Eastern Daylight Time),911994.7999997139,B,babyenter,I,enter,312,1,2216.2999997138977,909778.5,9004,WL,B,6.0
6,18.133999824523926,distr,41866.000175476074,Mon Oct 28 2024 16:01:16 GMT-0400 (Eastern Daylight Time),912645.4000000954,B,p,I,p,640,1,650.2000002861023,911995.1999998093,9004,WL,B,7.0
6,18.33399987220764,distr,41666.00012779236,Mon Oct 28 2024 16:01:16 GMT-0400 (Eastern Daylight Time),912845.4000000954,B,pa,I,a,178,1,850.2000002861023,911995.1999998093,9004,WL,B,7.0
6,18.549999952316284,distr,41450.000047683716,Mon Oct 28 2024 16:01:16 GMT-0400 (Eastern Daylight Time),913062.0999999046,B,pal,I,l,195,1,1066.9000000953674,911995.1999998093,9004,WL,B,7.0
6,18.782999992370605,distr,41217.000007629395,Mon Oct 28 2024 16:01:16 GMT-0400 (Eastern Daylight Time),913295.2999997139,B,pala,I,a,200,1,1300.0999999046326,911995.1999998093,9004,WL,B,7.0
6,19.199999809265137,distr,40800.00019073486,Mon Oct 28 2024 16:01:16 GMT-0400 (Eastern Daylight Time),913712.0999999046,B,palac,I,c,384,1,1716.9000000953674,911995.1999998093,9004,WL,B,7.0
6,20.483999967575073,distr,39516.00003242493,Mon Oct 28 2024 16:01:16 GMT-0400 (Eastern Daylight Time),914995.4000000954,B,palace,I,e,1271,1,3000.2000002861023,911995.1999998093,9004,WL,B,7.0
6,21.34999990463257,distr,38650.00009536743,Mon Oct 28 2024 16:01:16 GMT-0400 (Eastern Daylight Time),915861.5999999046,B,palaceenter,I,enter,851,1,3866.4000000953674,911995.1999998093,9004,WL,B,7.0
6,22.91699981689453,distr,37083.00018310547,Mon Oct 28 2024 16:01:16 GMT-0400 (Eastern Daylight Time),917428.6999998093,B,o,I,o,1557,1,1566.7999997138977,915861.9000000954,9004,WL,B,8.0
6,23.217000007629395,distr,36782.999992370605,Mon Oct 28 2024 16:01:16 GMT-0400 (Eastern Daylight Time),917728.7999997139,B,oc,I,c,273,1,1866.8999996185303,915861.9000000954,9004,WL,B,8.0
6,23.467000007629395,distr,36532.999992370605,Mon Oct 28 2024 16:01:16 GMT-0400 (Eastern Daylight Time),917978.6999998093,B,oce,I,e,230,1,2116.7999997138977,915861.9000000954,9004,WL,B,8.0
6,23.93399977684021,distr,36066.00022315979,Mon Oct 28 2024 16:01:16 GMT-0400 (Eastern Daylight Time),918445.5,B,ocea,I,a,445,1,2583.5999999046326,915861.9000000954,9004,WL,B,8.0
6,24.066999912261963,distr,35933.00008773804,Mon Oct 28 2024 16:01:16 GMT-0400 (Eastern Daylight Time),918578.5999999046,B,ocean,I,n,122,1,2716.699999809265,915861.9000000954,9004,WL,B,8.0
6,24.899999856948853,distr,35100.00014305115,Mon Oct 28 2024 16:01:16 GMT-0400 (Eastern Daylight Time),919411.5999999046,B,oceanenter,I,enter,820,1,3549.699999809265,915861.9000000954,9004,WL,B,8.0
6,25.967000007629395,distr,34032.999992370605,Mon Oct 28 2024 16:01:16 GMT-0400 (Eastern Daylight Time),920478.6999998093,B,r,I,r,1047,1,1066.7999997138977,919411.9000000954,9004,WL,B,9.0
6,26.5,distr,33500.0,Mon Oct 28 2024 16:01:16 GMT-0400 (Eastern Daylight Time),921012.0,B,ro,I,o,520,1,1600.0999999046326,919411.9000000954,9004,WL,B,9.0
6,26.816999912261963,distr,33183.00008773804,Mon Oct 28 2024 16:01:16 GMT-0400 (Eastern Daylight Time),921328.7999997139,B,roc,I,c,292,1,1916.8999996185303,919411.9000000954,9004,WL,B,9.0
6,27.299999952316284,distr,32700.000047683716,Mon Oct 28 2024 16:01:16 GMT-0400 (Eastern Daylight Time),921812.0999999046,B,rock,I,k,470,1,2400.199999809265,919411.9000000954,9004,WL,B,9.0
6,28.232999801635742,distr,31767.000198364258,Mon Oct 28 2024 16:01:16 GMT-0400 (Eastern Daylight Time),922745.0,B,rockenter,I,enter,914,1,3333.0999999046326,919411.9000000954,9004,WL,B,9.0
6,36.549999952316284,distr,23450.000047683716,Mon Oct 28 2024 16:01:16 GMT-0400 (Eastern Daylight Time),931062.0999999046,B,c,I,c,8306,1,8316.900000095367,922745.1999998093,9004,WL,B,10.0
6,36.967000007629395,distr,23032.999992370605,Mon Oct 28 2024 16:01:16 GMT-0400 (Eastern Daylight Time),931478.6999998093,B,ce,I,e,402,1,8733.5,922745.1999998093,9004,WL,B,10.0
6,37.28399991989136,distr,22716.000080108643,Mon Oct 28 2024 16:01:16 GMT-0400 (Eastern Daylight Time),931795.5,B,cel,I,l,305,1,9050.300000190735,922745.1999998093,9004,WL,B,10.0
6,38.01699995994568,distr,21983.00004005432,Mon Oct 28 2024 16:01:16 GMT-0400 (Eastern Daylight Time),932528.7999997139,B,ce,I,backspace,708,1,9783.599999904633,922745.1999998093,9004,WL,B,10.0
6,38.217000007629395,distr,21782.999992370605,Mon Oct 28 2024 16:01:16 GMT-0400 (Eastern Daylight Time),932728.6999998093,B,c,I,backspace,183,1,9983.5,922745.1999998093,9004,WL,B,10.0
6,38.41699981689453,distr,21583.00018310547,Mon Oct 28 2024 16:01:16 GMT-0400 (Eastern Daylight Time),932928.6999998093,B,,I,backspace,175,1,10183.5,922745.1999998093,9004,WL,B,10.0
6,43.69999980926514,distr,16300.000190734863,Mon Oct 28 2024 16:01:16 GMT-0400 (Eastern Daylight Time),938212.0999999046,B,c,I,c,5265,1,15466.900000095367,922745.1999998093,9004,WL,B,10.0
6,46.08399987220764,distr,13916.000127792358,Mon Oct 28 2024 16:01:16 GMT-0400 (Eastern Daylight Time),940595.5,B,,I,backspace,2372,1,17850.300000190735,922745.1999998093,9004,WL,B,10.0
6,46.799999952316284,distr,13200.000047683716,Mon Oct 28 2024 16:01:16 GMT-0400 (Eastern Daylight Time),941312.0999999046,B,d,I,d,692,1,18566.900000095367,922745.1999998093,9004,WL,B,10.0
6,47.06699991226196,distr,12933.000087738037,Mon Oct 28 2024 16:01:16 GMT-0400 (Eastern Daylight Time),941578.6999998093,B,dr,I,r,247,1,18833.5,922745.1999998093,9004,WL,B,10.0
6,47.26699995994568,distr,12733.000040054321,Mon Oct 28 2024 16:01:16 GMT-0400 (Eastern Daylight Time),941778.4000000954,B,dre,I,e,188,1,19033.200000286102,922745.1999998093,9004,WL,B,10.0
6,47.56699991226196,distr,12433.000087738037,Mon Oct 28 2024 16:01:16 GMT-0400 (Eastern Daylight Time),942078.7999997139,B,dres,I,s,278,1,19333.599999904633,922745.1999998093,9004,WL,B,10.0
6,47.73399996757507,distr,12266.000032424927,Mon Oct 28 2024 16:01:16 GMT-0400 (Eastern Daylight Time),942245.4000000954,B,dress,I,s,152,1,19500.200000286102,922745.1999998093,9004,WL,B,10.0
6,47.98299980163574,distr,12017.000198364258,Mon Oct 28 2024 16:01:16 GMT-0400 (Eastern Daylight Time),942494.9000000954,B,dressenter,I,enter,218,1,19749.700000286102,922745.1999998093,9004,WL,B,10.0
6,60.01699995994568,distr,-16.99995994567871,Mon Oct 28 2024 16:01:16 GMT-0400 (Eastern Daylight Time),954528.6999998093,B,None,I,None,12027,1,12033.400000095367,942495.2999997139,9004,WL,B,11.0
7,3.2170000076293945,immed,56782.999992370605,Mon Oct 28 2024 16:01:16 GMT-0400 (Eastern Daylight Time),967995.4000000954,A,s,I,s,3197,1,3216.2000002861023,964779.1999998093,9004,WL,B,1.0
7,3.432999849319458,immed,56567.00015068054,Mon Oct 28 2024 16:01:16 GMT-0400 (Eastern Daylight Time),968212.2999997139,A,st,I,t,204,1,3433.0999999046326,964779.1999998093,9004,WL,B,1.0
7,3.682999849319458,immed,56317.00015068054,Mon Oct 28 2024 16:01:16 GMT-0400 (Eastern Daylight Time),968462.0999999046,A,sta,I,a,220,1,3682.9000000953674,964779.1999998093,9004,WL,B,1.0
7,4.366999864578247,immed,55633.00013542175,Mon Oct 28 2024 16:01:16 GMT-0400 (Eastern Daylight Time),969145.5,A,star,I,r,664,1,4366.300000190735,964779.1999998093,9004,WL,B,1.0
7,5.349999904632568,immed,54650.00009536743,Mon Oct 28 2024 16:01:16 GMT-0400 (Eastern Daylight Time),970128.4000000954,A,starenter,I,enter,957,1,5349.200000286102,964779.1999998093,9004,WL,B,1.0
7,6.166999816894531,immed,53833.00018310547,Mon Oct 28 2024 16:01:16 GMT-0400 (Eastern Daylight Time),970945.5,A,s,I,s,794,1,816.8000001907349,970128.6999998093,9004,WL,B,2.0
7,6.366999864578247,immed,53633.00013542175,Mon Oct 28 2024 16:01:16 GMT-0400 (Eastern Daylight Time),971145.4000000954,A,st,I,t,182,1,1016.7000002861023,970128.6999998093,9004,WL,B,2.0
7,6.599999904632568,immed,53400.00009536743,Mon Oct 28 2024 16:01:16 GMT-0400 (Eastern Daylight Time),971378.6999998093,A,str,I,r,221,1,1250.0,970128.6999998093,9004,WL,B,2.0
7,7.066999912261963,immed,52933.00008773804,Mon Oct 28 2024 16:01:16 GMT-0400 (Eastern Daylight Time),971845.5,A,stre,I,e,453,1,1716.8000001907349,970128.6999998093,9004,WL,B,2.0
7,7.266999959945679,immed,52733.00004005432,Mon Oct 28 2024 16:01:16 GMT-0400 (Eastern Daylight Time),972045.5,A,stree,I,e,179,1,1916.8000001907349,970128.6999998093,9004,WL,B,2.0
7,7.416999816894531,immed,52583.00018310547,Mon Oct 28 2024 16:01:16 GMT-0400 (Eastern Daylight Time),972195.4000000954,A,street,I,t,130,1,2066.7000002861023,970128.6999998093,9004,WL,B,2.0
7,7.932999849319458,immed,52067.00015068054,Mon Oct 28 2024 16:01:16 GMT-0400 (Eastern Daylight Time),972711.5999999046,A,streetenter,I,enter,492,1,2582.9000000953674,970128.6999998093,9004,WL,B,2.0
7,8.649999856948853,immed,51350.00014305115,Mon Oct 28 2024 16:01:16 GMT-0400 (Eastern Daylight Time),973428.9000000954,A,g,I,g,707,1,716.9000000953674,972712.0,9004,WL,B,3.0
7,8.782999992370605,immed,51217.000007629395,Mon Oct 28 2024 16:01:16 GMT-0400 (Eastern Daylight Time),973562.1999998093,A,gr,I,r,114,1,850.1999998092651,972712.0,9004,WL,B,3.0
7,9.132999897003174,immed,50867.000102996826,Mon Oct 28 2024 16:01:16 GMT-0400 (Eastern Daylight Time),973912.1999998093,A,gra,I,a,334,1,1200.1999998092651,972712.0,9004,WL,B,3.0
7,9.5,immed,50500.0,Mon Oct 28 2024 16:01:16 GMT-0400 (Eastern Daylight Time),974278.7999997139,A,gras,I,s,351,1,1566.7999997138977,972712.0,9004,WL,B,3.0
7,9.666999816894531,immed,50333.00018310547,Mon Oct 28 2024 16:01:16 GMT-0400 (Eastern Daylight Time),974445.5,A,grass,I,s,144,1,1733.5,972712.0,9004,WL,B,3.0
7,10.132999897003174,immed,49867.000102996826,Mon Oct 28 2024 16:01:16 GMT-0400 (Eastern Daylight Time),974911.5999999046,A,grassenter,I,enter,440,1,2199.5999999046326,972712.0,9004,WL,B,3.0
7,10.899999856948853,immed,49100.00014305115,Mon Oct 28 2024 16:01:16 GMT-0400 (Eastern Daylight Time),975678.7999997139,A,l,I,l,747,1,766.7999997138977,974912.0,9004,WL,B,4.0
7,11.016999959945679,immed,48983.00004005432,Mon Oct 28 2024 16:01:16 GMT-0400 (Eastern Daylight Time),975795.5999999046,A,la,I,a,105,1,883.5999999046326,974912.0,9004,WL,B,4.0
7,11.566999912261963,immed,48433.00008773804,Mon Oct 28 2024 16:01:16 GMT-0400 (Eastern Daylight Time),976345.5999999046,A,lak,I,k,525,1,1433.5999999046326,974912.0,9004,WL,B,4.0
7,11.682999849319458,immed,48317.00015068054,Mon Oct 28 2024 16:01:16 GMT-0400 (Eastern Daylight Time),976462.1999998093,A,lake,I,e,93,1,1550.1999998092651,974912.0,9004,WL,B,4.0
7,12.465999841690063,immed,47534.00015830994,Mon Oct 28 2024 16:01:16 GMT-0400 (Eastern Daylight Time),977245.0,A,lakeenter,I,enter,759,1,2333.0,974912.0,9004,WL,B,4.0
7,13.382999897003174,immed,46617.000102996826,Mon Oct 28 2024 16:01:16 GMT-0400 (Eastern Daylight Time),978161.7999997139,A,f,I,f,909,1,916.5,977245.2999997139,9004,WL,B,5.0
7,13.549999952316284,immed,46450.000047683716,Mon Oct 28 2024 16:01:16 GMT-0400 (Eastern Daylight Time),978328.6999998093,A,fi,I,i,150,1,1083.4000000953674,977245.2999997139,9004,WL,B,5.0
7,13.83299994468689,immed,46167.00005531311,Mon Oct 28 2024 16:01:16 GMT-0400 (Eastern Daylight Time),978612.2999997139,A,fir,I,r,272,1,1367.0,977245.2999997139,9004,WL,B,5.0
7,14.032999992370605,immed,45967.000007629395,Mon Oct 28 2024 16:01:16 GMT-0400 (Eastern Daylight Time),978812.1999998093,A,fire,I,e,179,1,1566.9000000953674,977245.2999997139,9004,WL,B,5.0
7,14.632999897003174,immed,45367.000102996826,Mon Oct 28 2024 16:01:16 GMT-0400 (Eastern Daylight Time),979411.5999999046,A,fireenter,I,enter,587,1,2166.300000190735,977245.2999997139,9004,WL,B,5.0
7,16.09999990463257,immed,43900.00009536743,Mon Oct 28 2024 16:01:16 GMT-0400 (Eastern Daylight Time),980878.6999998093,A,d,I,d,1447,1,1466.6999998092651,979412.0,9004,WL,B,6.0
7,16.316999912261963,immed,43683.00008773804,Mon Oct 28 2024 16:01:16 GMT-0400 (Eastern Daylight Time),981095.5,A,do,I,o,200,1,1683.5,979412.0,9004,WL,B,6.0
7,16.5,immed,43500.0,Mon Oct 28 2024 16:01:16 GMT-0400 (Eastern Daylight Time),981278.6999998093,A,doo,I,o,160,1,1866.6999998092651,979412.0,9004,WL,B,6.0
7,16.899999856948853,immed,43100.00014305115,Mon Oct 28 2024 16:01:16 GMT-0400 (Eastern Daylight Time),981678.6999998093,A,door,I,r,377,1,2266.699999809265,979412.0,9004,WL,B,6.0
7,17.299999952316284,immed,42700.000047683716,Mon Oct 28 2024 16:01:16 GMT-0400 (Eastern Daylight Time),982078.4000000954,A,doorenter,I,enter,375,1,2666.4000000953674,979412.0,9004,WL,B,6.0
7,18.132999897003174,immed,41867.000102996826,Mon Oct 28 2024 16:01:16 GMT-0400 (Eastern Daylight Time),982912.0999999046,A,w,I,w,811,1,833.4000000953674,982078.6999998093,9004,WL,B,7.0
7,18.282999992370605,immed,41717.000007629395,Mon Oct 28 2024 16:01:16 GMT-0400 (Eastern Daylight Time),983062.0999999046,A,wi,I,i,135,1,983.4000000953674,982078.6999998093,9004,WL,B,7.0
7,18.566999912261963,immed,41433.00008773804,Mon Oct 28 2024 16:01:16 GMT-0400 (Eastern Daylight Time),983345.5999999046,A,win,I,n,257,1,1266.9000000953674,982078.6999998093,9004,WL,B,7.0
7,18.84999990463257,immed,41150.00009536743,Mon Oct 28 2024 16:01:16 GMT-0400 (Eastern Daylight Time),983628.7999997139,A,wind,I,d,262,1,1550.0999999046326,982078.6999998093,9004,WL,B,7.0
7,18.967000007629395,immed,41032.999992370605,Mon Oct 28 2024 16:01:16 GMT-0400 (Eastern Daylight Time),983745.2999997139,A,windo,I,o,107,1,1666.5999999046326,982078.6999998093,9004,WL,B,7.0
7,19.532999992370605,immed,40467.000007629395,Mon Oct 28 2024 16:01:16 GMT-0400 (Eastern Daylight Time),984312.0,A,window,I,w,550,1,2233.300000190735,982078.6999998093,9004,WL,B,7.0
7,19.91599988937378,immed,40084.00011062622,Mon Oct 28 2024 16:01:16 GMT-0400 (Eastern Daylight Time),984695.0,A,windowenter,I,enter,366,1,2616.300000190735,982078.6999998093,9004,WL,B,7.0
7,20.682999849319458,immed,39317.00015068054,Mon Oct 28 2024 16:01:16 GMT-0400 (Eastern Daylight Time),985462.1999998093,A,p,I,p,756,1,766.9000000953674,984695.2999997139,9004,WL,B,8.0
7,20.967000007629395,immed,39032.999992370605,Mon Oct 28 2024 16:01:16 GMT-0400 (Eastern Daylight Time),985745.4000000954,A,pi,I,i,255,1,1050.1000003814697,984695.2999997139,9004,WL,B,8.0
7,21.217000007629395,immed,38782.999992370605,Mon Oct 28 2024 16:01:16 GMT-0400 (Eastern Daylight Time),985995.4000000954,A,pip,I,p,229,1,1300.1000003814697,984695.2999997139,9004,WL,B,8.0
7,21.73300004005432,immed,38266.99995994568,Mon Oct 28 2024 16:01:16 GMT-0400 (Eastern Daylight Time),986512.0999999046,A,pipe,I,e,492,1,1816.8000001907349,984695.2999997139,9004,WL,B,8.0
7,22.58299994468689,immed,37417.00005531311,Mon Oct 28 2024 16:01:16 GMT-0400 (Eastern Daylight Time),987361.5999999046,A,pipeenter,I,enter,838,1,2666.300000190735,984695.2999997139,9004,WL,B,8.0
7,23.382999897003174,immed,36617.000102996826,Mon Oct 28 2024 16:01:16 GMT-0400 (Eastern Daylight Time),988161.9000000954,A,w,I,w,793,1,800.0,987361.9000000954,9004,WL,B,9.0
7,23.816999912261963,immed,36183.00008773804,Mon Oct 28 2024 16:01:16 GMT-0400 (Eastern Daylight Time),988595.5,A,wi,I,i,421,1,1233.5999999046326,987361.9000000954,9004,WL,B,9.0
7,24.049999952316284,immed,35950.000047683716,Mon Oct 28 2024 16:01:16 GMT-0400 (Eastern Daylight Time),988828.9000000954,A,wif,I,f,211,1,1467.0,987361.9000000954,9004,WL,B,9.0
7,24.282999992370605,immed,35717.000007629395,Mon Oct 28 2024 16:01:16 GMT-0400 (Eastern Daylight Time),989062.0999999046,A,wife,I,e,210,1,1700.1999998092651,987361.9000000954,9004,WL,B,9.0
7,24.950000047683716,immed,35049.999952316284,Mon Oct 28 2024 16:01:16 GMT-0400 (Eastern Daylight Time),989728.4000000954,A,wifeenter,I,enter,656,1,2366.5,987361.9000000954,9004,WL,B,9.0
7,32.049999952316284,immed,27950.000047683716,Mon Oct 28 2024 16:01:16 GMT-0400 (Eastern Daylight Time),996828.7999997139,A,c,I,c,7083,1,7100.199999809265,989728.5999999046,9004,WL,B,10.0
7,32.36699986457825,immed,27633.000135421753,Mon Oct 28 2024 16:01:16 GMT-0400 (Eastern Daylight Time),997145.4000000954,A,ca,I,a,298,1,7416.800000190735,989728.5999999046,9004,WL,B,10.0
7,32.532999992370605,immed,27467.000007629395,Mon Oct 28 2024 16:01:16 GMT-0400 (Eastern Daylight Time),997312.1999998093,A,cab,I,b,142,1,7583.599999904633,989728.5999999046,9004,WL,B,10.0
7,32.799999952316284,immed,27200.000047683716,Mon Oct 28 2024 16:01:16 GMT-0400 (Eastern Daylight Time),997578.7999997139,A,cabi,I,i,240,1,7850.199999809265,989728.5999999046,9004,WL,B,10.0
7,33.16699981689453,immed,26833.00018310547,Mon Oct 28 2024 16:01:16 GMT-0400 (Eastern Daylight Time),997945.5,A,cabin,I,n,349,1,8216.900000095367,989728.5999999046,9004,WL,B,10.0
7,33.532999992370605,immed,26467.000007629395,Mon Oct 28 2024 16:01:16 GMT-0400 (Eastern Daylight Time),998311.6999998093,A,cabinenter,I,enter,349,1,8583.099999904633,989728.5999999046,9004,WL,B,10.0
7,35.81699991226196,immed,24183.000087738037,Mon Oct 28 2024 16:01:16 GMT-0400 (Eastern Daylight Time),1000595.5,A,l,I,l,2275,1,2283.5,998312.0,9004,WL,B,11.0
7,35.967000007629395,immed,24032.999992370605,Mon Oct 28 2024 16:01:16 GMT-0400 (Eastern Daylight Time),1000745.5,A,la,I,a,131,1,2433.5,998312.0,9004,WL,B,11.0
7,36.217000007629395,immed,23782.999992370605,Mon Oct 28 2024 16:01:16 GMT-0400 (Eastern Daylight Time),1000995.5,A,lak,I,k,237,1,2683.5,998312.0,9004,WL,B,11.0
7,36.382999897003174,immed,23617.000102996826,Mon Oct 28 2024 16:01:16 GMT-0400 (Eastern Daylight Time),1001162.1999998093,A,lake,I,e,148,1,2850.199999809265,998312.0,9004,WL,B,11.0
7,36.615999937057495,immed,23384.000062942505,Mon Oct 28 2024 16:01:16 GMT-0400 (Eastern Daylight Time),1001395.0,A,lakeenter,I,enter,220,1,3083.0,998312.0,9004,WL,B,11.0
7,56.200000047683716,immed,3799.999952316284,Mon Oct 28 2024 16:01:16 GMT-0400 (Eastern Daylight Time),1020978.6999998093,A,p,I,p,19575,1,19583.299999713898,1001395.4000000954,9004,WL,B,12.0
7,56.549999952316284,immed,3450.000047683716,Mon Oct 28 2024 16:01:16 GMT-0400 (Eastern Daylight Time),1021328.7999997139,A,pu,I,u,321,1,19933.39999961853,1001395.4000000954,9004,WL,B,12.0
7,56.93299984931946,immed,3067.000150680542,Mon Oct 28 2024 16:01:16 GMT-0400 (Eastern Daylight Time),1021712.1999998093,A,pup,I,p,360,1,20316.799999713898,1001395.4000000954,9004,WL,B,12.0
7,57.18299984931946,immed,2817.000150680542,Mon Oct 28 2024 16:01:16 GMT-0400 (Eastern Daylight Time),1021962.2999997139,A,pupi,I,i,229,1,20566.89999961853,1001395.4000000954,9004,WL,B,12.0
7,57.365999937057495,immed,2634.000062942505,Mon Oct 28 2024 16:01:16 GMT-0400 (Eastern Daylight Time),1022145.2999997139,A,pupil,I,l,173,1,20749.89999961853,1001395.4000000954,9004,WL,B,12.0
7,57.75,immed,2250.0,Mon Oct 28 2024 16:01:16 GMT-0400 (Eastern Daylight Time),1022528.4000000954,A,pupilenter,I,enter,372,1,21133.0,1001395.4000000954,9004,WL,B,12.0
7,60.01699995994568,immed,-16.99995994567871,Mon Oct 28 2024 16:01:16 GMT-0400 (Eastern Daylight Time),1024796.0999999046,A,None,I,None,2260,1,2267.300000190735,1022528.7999997139,9004,WL,B,13.0
