acc_sum,block,block_c,block_cond,con_img,correct,correct_response,datetime,endtime,face,jitter,line,project,response,response_time,row_sel,session_number,start_end,starttime,subject_id,task,task_vers,trial
0,prac,1,A,haborder.png,0,z,Thu Nov 07 2024 13:38:50 GMT-0600 (Central Standard Time),61305.0,CFD-WF-003-014-A.jpg,1600,solid,O,None,1514,10,1,3899.699999809265,57405.300000190735,7027,ATS,A,1
1,prac,1,A,haborder.png,1,z,Thu Nov 07 2024 13:38:50 GMT-0600 (Central Standard Time),64537.60000014305,CFD-BF-039-039-A.jpg,1200,solid,O,z,1209,6,1,7132.299999952316,57405.300000190735,7027,ATS,A,2
2,prac,1,A,haborder.png,1,m,Thu Nov 07 2024 13:38:50 GMT-0600 (Central Standard Time),67619.80000019073,CFD-BM-029-026-HC.jpg,1500,solid,O,m,764,3,1,10214.5,57405.300000190735,7027,ATS,A,3
3,prac,1,A,haborder.png,1,z,Thu Nov 07 2024 13:38:50 GMT-0600 (Central Standard Time),71101.80000019073,CFD-WM-013-015-A.jpg,1900,solid,O,z,754,8,1,13696.5,57405.300000190735,7027,ATS,A,4
4,prac,1,A,haborder.png,1,m,Thu Nov 07 2024 13:38:50 GMT-0600 (Central Standard Time),74250.90000009537,CFD-WF-017-016-HC.jpg,1500,solid,O,m,824,11,1,16845.599999904633,57405.300000190735,7027,ATS,A,5
5,prac,1,A,haborder.png,1,z,Thu Nov 07 2024 13:38:50 GMT-0600 (Central Standard Time),76700.0,CFD-WF-019-015-A.jpg,1000,solid,O,z,631,12,1,19294.699999809265,57405.300000190735,7027,ATS,A,6
6,prac,1,A,haborder.png,1,m,Thu Nov 07 2024 13:38:50 GMT-0600 (Central Standard Time),79797.80000019073,CFD-WM-004-005-HC.jpg,1400,solid,O,m,869,7,1,22392.5,57405.300000190735,7027,ATS,A,7
7,prac,1,A,haborder.png,1,m,Thu Nov 07 2024 13:38:50 GMT-0600 (Central Standard Time),83397.60000014305,CFD-WM-006-013-HC.jpg,1700,solid,O,m,1104,9,1,25992.299999952316,57405.300000190735,7027,ATS,A,8
8,prac,1,A,haborder.png,1,m,Thu Nov 07 2024 13:38:50 GMT-0600 (Central Standard Time),86730.0,CFD-BM-017-052-HC.jpg,1700,solid,O,m,800,1,1,29324.699999809265,57405.300000190735,7027,ATS,A,9
9,prac,1,A,haborder.png,1,m,Thu Nov 07 2024 13:38:50 GMT-0600 (Central Standard Time),90578.80000019073,CFD-BF-028-020-HC.jpg,2000,solid,O,m,1016,5,1,33173.5,57405.300000190735,7027,ATS,A,10
10,prac,1,A,haborder.png,1,z,Thu Nov 07 2024 13:38:50 GMT-0600 (Central Standard Time),93177.90000009537,CFD-BF-023-013-A.jpg,1000,solid,O,z,776,4,1,35772.59999990463,57405.300000190735,7027,ATS,A,11
11,prac,1,A,haborder.png,1,z,Thu Nov 07 2024 13:38:50 GMT-0600 (Central Standard Time),96760.10000014305,CFD-BM-005-010-A.jpg,1600,solid,O,z,1152,2,1,39354.799999952316,57405.300000190735,7027,ATS,A,12
1,prac,1,B,mfborder.png,1,z,Thu Nov 07 2024 13:38:50 GMT-0600 (Central Standard Time),122751.30000019073,CFD-WF-002-008-HC.jpg,1900,dash,O,z,869,8,1,3598.9000000953674,119152.40000009537,7027,ATS,A,1
2,prac,1,B,mfborder.png,1,m,Thu Nov 07 2024 13:38:50 GMT-0600 (Central Standard Time),125467.20000004768,CFD-WM-019-013-A.jpg,1200,dash,O,m,698,6,1,6314.799999952316,119152.40000009537,7027,ATS,A,2
3,prac,1,B,mfborder.png,1,z,Thu Nov 07 2024 13:38:50 GMT-0600 (Central Standard Time),128016.20000004768,CFD-WF-017-016-HC.jpg,1000,dash,O,z,726,12,1,8863.799999952316,119152.40000009537,7027,ATS,A,3
4,prac,1,B,mfborder.png,1,z,Thu Nov 07 2024 13:38:50 GMT-0600 (Central Standard Time),131232.0,CFD-BF-028-020-HC.jpg,1400,dash,O,z,985,7,1,12079.599999904633,119152.40000009537,7027,ATS,A,4
5,prac,1,B,mfborder.png,1,z,Thu Nov 07 2024 13:38:50 GMT-0600 (Central Standard Time),134347.5,CFD-BF-010-005-HC.jpg,1500,dash,O,z,797,3,1,15195.099999904633,119152.40000009537,7027,ATS,A,5
6,prac,1,B,mfborder.png,1,z,Thu Nov 07 2024 13:38:50 GMT-0600 (Central Standard Time),137430.10000014305,CFD-BF-023-013-A.jpg,1000,dash,O,z,1262,4,1,18277.700000047684,119152.40000009537,7027,ATS,A,6
7,prac,1,B,mfborder.png,1,m,Thu Nov 07 2024 13:38:50 GMT-0600 (Central Standard Time),140912.10000014305,CFD-WM-013-015-A.jpg,1700,dash,O,m,959,9,1,21759.700000047684,119152.40000009537,7027,ATS,A,7
8,prac,1,B,mfborder.png,1,m,Thu Nov 07 2024 13:38:50 GMT-0600 (Central Standard Time),144377.60000014305,CFD-BM-005-010-A.jpg,2000,dash,O,m,641,5,1,25225.200000047684,119152.40000009537,7027,ATS,A,8
9,prac,1,B,mfborder.png,1,m,Thu Nov 07 2024 13:38:50 GMT-0600 (Central Standard Time),147593.40000009537,CFD-BM-029-026-HC.jpg,1700,dash,O,m,691,1,1,28441.0,119152.40000009537,7027,ATS,A,9
10,prac,1,B,mfborder.png,1,m,Thu Nov 07 2024 13:38:50 GMT-0600 (Central Standard Time),150858.90000009537,CFD-WM-006-013-HC.jpg,1600,dash,O,m,832,10,1,31706.5,119152.40000009537,7027,ATS,A,10
11,prac,1,B,mfborder.png,1,z,Thu Nov 07 2024 13:38:50 GMT-0600 (Central Standard Time),153891.20000004768,CFD-WF-003-014-A.jpg,1500,dash,O,z,699,11,1,34738.799999952316,119152.40000009537,7027,ATS,A,11
12,prac,1,B,mfborder.png,1,m,Thu Nov 07 2024 13:38:50 GMT-0600 (Central Standard Time),157089.90000009537,CFD-BM-010-019-A.jpg,1600,dash,O,m,783,2,1,37937.5,119152.40000009537,7027,ATS,A,12
1,test,1,A,haborder.png,1,m,Thu Nov 07 2024 13:38:50 GMT-0600 (Central Standard Time),178716.30000019073,CFD-BM-029-026-HC.jpg,1500,solid,O,m,1140,3,1,2682.300000190735,176034.0,7027,ATS,A,1
2,test,1,A,haborder.png,1,z,Thu Nov 07 2024 13:38:50 GMT-0600 (Central Standard Time),181148.80000019073,CFD-WF-003-014-A.jpg,1600,solid,O,z,790,10,1,5114.800000190735,176034.0,7027,ATS,A,2
3,test,1,A,haborder.png,1,m,Thu Nov 07 2024 13:38:50 GMT-0600 (Central Standard Time),183880.90000009537,CFD-BF-028-020-HC.jpg,2000,solid,O,m,694,5,1,7846.900000095367,176034.0,7027,ATS,A,3
4,test,1,A,haborder.png,1,z,Thu Nov 07 2024 13:38:50 GMT-0600 (Central Standard Time),186896.70000004768,CFD-WM-013-015-A.jpg,1900,solid,O,z,1069,8,1,10862.700000047684,176034.0,7027,ATS,A,4
5,test,1,A,haborder.png,1,z,Thu Nov 07 2024 13:38:50 GMT-0600 (Central Standard Time),188996.60000014305,CFD-BF-039-039-A.jpg,1200,solid,O,z,865,6,1,12962.600000143051,176034.0,7027,ATS,A,5
6,test,1,A,haborder.png,1,z,Thu Nov 07 2024 13:38:50 GMT-0600 (Central Standard Time),190745.70000004768,CFD-WF-019-015-A.jpg,1000,solid,O,z,711,12,1,14711.700000047684,176034.0,7027,ATS,A,6
7,test,1,A,haborder.png,1,m,Thu Nov 07 2024 13:38:50 GMT-0600 (Central Standard Time),193328.0,CFD-BM-017-052-HC.jpg,1700,solid,O,m,844,1,1,17294.0,176034.0,7027,ATS,A,7
8,test,1,A,haborder.png,1,z,Thu Nov 07 2024 13:38:50 GMT-0600 (Central Standard Time),196127.10000014305,CFD-WM-013-015-A.jpg,1900,solid,O,z,862,8,1,20093.10000014305,176034.0,7027,ATS,A,8
9,test,1,A,haborder.png,1,m,Thu Nov 07 2024 13:38:50 GMT-0600 (Central Standard Time),198675.5,CFD-WM-006-013-HC.jpg,1700,solid,O,m,801,9,1,22641.5,176034.0,7027,ATS,A,9
10,test,1,A,haborder.png,1,m,Thu Nov 07 2024 13:38:50 GMT-0600 (Central Standard Time),201408.80000019073,CFD-BM-017-052-HC.jpg,1700,solid,O,m,994,1,1,25374.800000190735,176034.0,7027,ATS,A,10
11,test,1,A,haborder.png,1,m,Thu Nov 07 2024 13:38:50 GMT-0600 (Central Standard Time),203875.20000004768,CFD-WM-004-005-HC.jpg,1400,solid,O,m,1026,7,1,27841.200000047684,176034.0,7027,ATS,A,11
12,test,1,A,haborder.png,1,z,Thu Nov 07 2024 13:38:50 GMT-0600 (Central Standard Time),205857.30000019073,CFD-BF-023-013-A.jpg,1000,solid,O,z,935,4,1,29823.300000190735,176034.0,7027,ATS,A,12
13,test,1,A,haborder.png,1,m,Thu Nov 07 2024 13:38:50 GMT-0600 (Central Standard Time),208389.90000009537,CFD-WF-017-016-HC.jpg,1500,solid,O,m,988,11,1,32355.900000095367,176034.0,7027,ATS,A,13
14,test,1,A,haborder.png,1,m,Thu Nov 07 2024 13:38:50 GMT-0600 (Central Standard Time),211222.20000004768,CFD-BF-028-020-HC.jpg,2000,solid,O,m,789,5,1,35188.200000047684,176034.0,7027,ATS,A,14
15,test,1,A,haborder.png,1,m,Thu Nov 07 2024 13:38:50 GMT-0600 (Central Standard Time),213521.5,CFD-WM-004-005-HC.jpg,1400,solid,O,m,835,7,1,37487.5,176034.0,7027,ATS,A,15
16,test,1,A,haborder.png,1,z,Thu Nov 07 2024 13:38:50 GMT-0600 (Central Standard Time),216154.10000014305,CFD-BF-039-039-A.jpg,1200,solid,O,z,1384,6,1,40120.10000014305,176034.0,7027,ATS,A,16
17,test,1,A,haborder.png,1,z,Thu Nov 07 2024 13:38:50 GMT-0600 (Central Standard Time),218952.90000009537,CFD-BM-005-010-A.jpg,1600,solid,O,z,1152,2,1,42918.90000009537,176034.0,7027,ATS,A,17
18,test,1,A,haborder.png,1,z,Thu Nov 07 2024 13:38:50 GMT-0600 (Central Standard Time),220768.90000009537,CFD-BF-023-013-A.jpg,1000,solid,O,z,777,4,1,44734.90000009537,176034.0,7027,ATS,A,18
19,test,1,A,haborder.png,1,m,Thu Nov 07 2024 13:38:50 GMT-0600 (Central Standard Time),223151.60000014305,CFD-WM-006-013-HC.jpg,1700,solid,O,m,620,9,1,47117.60000014305,176034.0,7027,ATS,A,19
20,test,1,A,haborder.png,1,z,Thu Nov 07 2024 13:38:50 GMT-0600 (Central Standard Time),226167.20000004768,CFD-BM-005-010-A.jpg,1600,solid,O,z,1379,2,1,50133.200000047684,176034.0,7027,ATS,A,20
21,test,1,A,haborder.png,1,m,Thu Nov 07 2024 13:38:50 GMT-0600 (Central Standard Time),228416.80000019073,CFD-WF-017-016-HC.jpg,1500,solid,O,m,704,11,1,52382.800000190735,176034.0,7027,ATS,A,21
22,test,1,A,haborder.png,1,m,Thu Nov 07 2024 13:38:50 GMT-0600 (Central Standard Time),230848.60000014305,CFD-BM-029-026-HC.jpg,1500,solid,O,m,884,3,1,54814.60000014305,176034.0,7027,ATS,A,22
23,test,1,A,haborder.png,1,z,Thu Nov 07 2024 13:38:50 GMT-0600 (Central Standard Time),233264.90000009537,CFD-WF-003-014-A.jpg,1600,solid,O,z,768,10,1,57230.90000009537,176034.0,7027,ATS,A,23
24,test,1,A,haborder.png,1,z,Thu Nov 07 2024 13:38:50 GMT-0600 (Central Standard Time),235014.30000019073,CFD-WF-019-015-A.jpg,1000,solid,O,z,705,12,1,58980.300000190735,176034.0,7027,ATS,A,24
1,test,1,B,mfborder.png,1,m,Thu Nov 07 2024 13:38:50 GMT-0600 (Central Standard Time),244928.0,CFD-WM-006-013-HC.jpg,1600,dash,O,m,753,10,1,2399.2999999523163,242528.70000004768,7027,ATS,A,1
2,test,1,B,mfborder.png,1,m,Thu Nov 07 2024 13:38:50 GMT-0600 (Central Standard Time),247476.80000019073,CFD-WM-013-015-A.jpg,1700,dash,O,m,806,9,1,4948.100000143051,242528.70000004768,7027,ATS,A,2
3,test,1,B,mfborder.png,1,z,Thu Nov 07 2024 13:38:50 GMT-0600 (Central Standard Time),249409.60000014305,CFD-WF-017-016-HC.jpg,1000,dash,O,z,893,12,1,6880.900000095367,242528.70000004768,7027,ATS,A,3
4,test,1,B,mfborder.png,1,m,Thu Nov 07 2024 13:38:50 GMT-0600 (Central Standard Time),251559.10000014305,CFD-WM-019-013-A.jpg,1200,dash,O,m,912,6,1,9030.400000095367,242528.70000004768,7027,ATS,A,4
5,test,1,B,mfborder.png,1,z,Thu Nov 07 2024 13:38:50 GMT-0600 (Central Standard Time),254041.30000019073,CFD-WF-017-016-HC.jpg,1000,dash,O,z,1434,12,1,11512.600000143051,242528.70000004768,7027,ATS,A,5
6,test,1,B,mfborder.png,1,m,Thu Nov 07 2024 13:38:50 GMT-0600 (Central Standard Time),256790.5,CFD-BM-005-010-A.jpg,2000,dash,O,m,704,5,1,14261.799999952316,242528.70000004768,7027,ATS,A,6
7,test,1,B,mfborder.png,1,m,Thu Nov 07 2024 13:38:50 GMT-0600 (Central Standard Time),259272.20000004768,CFD-BM-010-019-A.jpg,1600,dash,O,m,834,2,1,16743.5,242528.70000004768,7027,ATS,A,7
8,test,1,B,mfborder.png,1,z,Thu Nov 07 2024 13:38:50 GMT-0600 (Central Standard Time),261505.60000014305,CFD-BF-028-020-HC.jpg,1400,dash,O,z,776,7,1,18976.900000095367,242528.70000004768,7027,ATS,A,8
9,test,1,B,mfborder.png,1,m,Thu Nov 07 2024 13:38:50 GMT-0600 (Central Standard Time),263438.30000019073,CFD-WM-019-013-A.jpg,1200,dash,O,m,696,6,1,20909.60000014305,242528.70000004768,7027,ATS,A,9
10,test,1,B,mfborder.png,1,z,Thu Nov 07 2024 13:38:50 GMT-0600 (Central Standard Time),265537.60000014305,CFD-BF-023-013-A.jpg,1000,dash,O,z,1059,4,1,23008.900000095367,242528.70000004768,7027,ATS,A,10
11,test,1,B,mfborder.png,1,z,Thu Nov 07 2024 13:38:50 GMT-0600 (Central Standard Time),267736.7000000477,CFD-WF-003-014-A.jpg,1500,dash,O,z,660,11,1,25208.0,242528.70000004768,7027,ATS,A,11
12,test,1,B,mfborder.png,1,z,Thu Nov 07 2024 13:38:50 GMT-0600 (Central Standard Time),269553.10000014305,CFD-BF-023-013-A.jpg,1000,dash,O,z,768,4,1,27024.400000095367,242528.70000004768,7027,ATS,A,12
13,test,1,B,mfborder.png,1,z,Thu Nov 07 2024 13:38:50 GMT-0600 (Central Standard Time),271802.30000019073,CFD-BF-010-005-HC.jpg,1500,dash,O,z,684,3,1,29273.60000014305,242528.70000004768,7027,ATS,A,13
14,test,1,B,mfborder.png,1,z,Thu Nov 07 2024 13:38:50 GMT-0600 (Central Standard Time),274568.0,CFD-BF-010-005-HC.jpg,1500,dash,O,z,1228,3,1,32039.299999952316,242528.70000004768,7027,ATS,A,14
15,test,1,B,mfborder.png,1,m,Thu Nov 07 2024 13:38:50 GMT-0600 (Central Standard Time),277101.0,CFD-BM-029-026-HC.jpg,1700,dash,O,m,781,1,1,34572.299999952316,242528.70000004768,7027,ATS,A,15
16,test,1,B,mfborder.png,1,z,Thu Nov 07 2024 13:38:50 GMT-0600 (Central Standard Time),279566.0,CFD-WF-003-014-A.jpg,1500,dash,O,z,929,11,1,37037.299999952316,242528.70000004768,7027,ATS,A,16
17,test,1,B,mfborder.png,1,m,Thu Nov 07 2024 13:38:50 GMT-0600 (Central Standard Time),281982.10000014305,CFD-BM-010-019-A.jpg,1600,dash,O,m,754,2,1,39453.40000009537,242528.70000004768,7027,ATS,A,17
18,test,1,B,mfborder.png,1,m,Thu Nov 07 2024 13:38:50 GMT-0600 (Central Standard Time),284764.80000019073,CFD-BM-029-026-HC.jpg,1700,dash,O,m,1023,1,1,42236.10000014305,242528.70000004768,7027,ATS,A,18
19,test,1,B,mfborder.png,1,z,Thu Nov 07 2024 13:38:50 GMT-0600 (Central Standard Time),287497.0,CFD-WF-002-008-HC.jpg,1900,dash,O,z,785,8,1,44968.299999952316,242528.70000004768,7027,ATS,A,19
20,test,1,B,mfborder.png,1,m,Thu Nov 07 2024 13:38:50 GMT-0600 (Central Standard Time),289929.5,CFD-WM-013-015-A.jpg,1700,dash,O,m,685,9,1,47400.799999952316,242528.70000004768,7027,ATS,A,20
21,test,1,B,mfborder.png,1,m,Thu Nov 07 2024 13:38:50 GMT-0600 (Central Standard Time),292778.80000019073,CFD-BM-005-010-A.jpg,2000,dash,O,m,808,5,1,50250.10000014305,242528.70000004768,7027,ATS,A,21
22,test,1,B,mfborder.png,1,z,Thu Nov 07 2024 13:38:50 GMT-0600 (Central Standard Time),295527.10000014305,CFD-WF-002-008-HC.jpg,1900,dash,O,z,804,8,1,52998.40000009537,242528.70000004768,7027,ATS,A,22
23,test,1,B,mfborder.png,1,m,Thu Nov 07 2024 13:38:50 GMT-0600 (Central Standard Time),298010.2000000477,CFD-WM-006-013-HC.jpg,1600,dash,O,m,848,10,1,55481.5,242528.70000004768,7027,ATS,A,23
24,test,1,B,mfborder.png,1,z,Thu Nov 07 2024 13:38:50 GMT-0600 (Central Standard Time),300209.5,CFD-BF-028-020-HC.jpg,1400,dash,O,z,752,7,1,57680.799999952316,242528.70000004768,7027,ATS,A,24
0,prac,1,C,mfborder.png,0,z,Thu Nov 07 2024 13:38:50 GMT-0600 (Central Standard Time),332582.30000019073,CFD-WF-017-016-HC.jpg,1600,dash,O,None,1515,1,1,3915.5,328666.80000019073,7027,ATS,A,1
1,prac,1,C,mfborder.png,1,m,Thu Nov 07 2024 13:38:50 GMT-0600 (Central Standard Time),335748.7000000477,CFD-BM-005-010-A.jpg,1200,dash,O,m,1156,5,1,7081.899999856949,328666.80000019073,7027,ATS,A,2
2,prac,1,C,mfborder.png,1,m,Thu Nov 07 2024 13:38:50 GMT-0600 (Central Standard Time),339147.30000019073,CFD-WM-013-015-A.jpg,1700,solid,O,m,890,6,1,10480.5,328666.80000019073,7027,ATS,A,3
3,prac,1,C,mfborder.png,1,m,Thu Nov 07 2024 13:38:50 GMT-0600 (Central Standard Time),343145.5,CFD-BM-017-052-HC.jpg,2000,solid,O,m,1184,4,1,14478.699999809265,328666.80000019073,7027,ATS,A,4
4,prac,1,C,haborder.png,1,z,Thu Nov 07 2024 13:38:50 GMT-0600 (Central Standard Time),346861.2000000477,CFD-BF-023-013-A.jpg,1900,dash,O,z,997,7,1,18194.39999985695,328666.80000019073,7027,ATS,A,5
4,prac,1,C,haborder.png,0,m,Thu Nov 07 2024 13:38:50 GMT-0600 (Central Standard Time),350693.0,CFD-BM-029-026-HC.jpg,1500,solid,O,None,1515,10,1,22026.199999809265,328666.80000019073,7027,ATS,A,6
5,prac,1,C,mfborder.png,1,z,Thu Nov 07 2024 13:38:50 GMT-0600 (Central Standard Time),354108.60000014305,CFD-WF-019-015-A.jpg,1500,solid,O,z,1089,2,1,25441.799999952316,328666.80000019073,7027,ATS,A,7
5,prac,1,C,haborder.png,0,z,Thu Nov 07 2024 13:38:50 GMT-0600 (Central Standard Time),358023.90000009537,CFD-WF-003-014-A.jpg,1600,dash,O,None,1515,9,1,29357.099999904633,328666.80000019073,7027,ATS,A,8
6,prac,1,C,haborder.png,1,z,Thu Nov 07 2024 13:38:50 GMT-0600 (Central Standard Time),361272.90000009537,CFD-BF-039-039-A.jpg,1700,solid,O,z,743,8,1,32606.099999904633,328666.80000019073,7027,ATS,A,9
6,prac,1,C,haborder.png,0,m,Thu Nov 07 2024 13:38:50 GMT-0600 (Central Standard Time),364021.80000019073,CFD-WM-004-005-HC.jpg,1000,dash,O,z,929,11,1,35355.0,328666.80000019073,7027,ATS,A,10
6,prac,1,C,mfborder.png,0,z,Thu Nov 07 2024 13:38:50 GMT-0600 (Central Standard Time),366921.10000014305,CFD-BF-028-020-HC.jpg,1000,dash,O,m,1076,3,1,38254.299999952316,328666.80000019073,7027,ATS,A,11
7,prac,1,C,haborder.png,1,m,Thu Nov 07 2024 13:38:50 GMT-0600 (Central Standard Time),370586.5,CFD-WM-004-005-HC.jpg,1400,solid,O,m,1449,12,1,41919.699999809265,328666.80000019073,7027,ATS,A,12
0,test,1,C,haborder.png,0,z,Thu Nov 07 2024 13:38:50 GMT-0600 (Central Standard Time),387914.30000019073,CFD-BM-005-010-A.jpg,1900,solid,O,None,1515,8,1,3449.100000143051,384465.2000000477,7027,ATS,A,1
0,test,1,C,mfborder.png,0,z,Thu Nov 07 2024 13:38:50 GMT-0600 (Central Standard Time),390963.7000000477,CFD-WF-003-014-A.jpg,1500,dash,O,None,1515,3,1,6498.5,384465.2000000477,7027,ATS,A,2
1,test,1,C,mfborder.png,1,z,Thu Nov 07 2024 13:38:50 GMT-0600 (Central Standard Time),393645.30000019073,CFD-BF-010-005-HC.jpg,1700,dash,O,z,939,1,1,9180.100000143051,384465.2000000477,7027,ATS,A,3
2,test,1,C,mfborder.png,1,m,Thu Nov 07 2024 13:38:50 GMT-0600 (Central Standard Time),396011.40000009537,CFD-BM-029-026-HC.jpg,1200,dash,O,m,1125,6,1,11546.200000047684,384465.2000000477,7027,ATS,A,4
3,test,1,C,mfborder.png,1,m,Thu Nov 07 2024 13:38:50 GMT-0600 (Central Standard Time),398977.10000014305,CFD-WM-019-013-A.jpg,2000,dash,O,m,918,5,1,14511.900000095367,384465.2000000477,7027,ATS,A,5
4,test,1,C,haborder.png,1,z,Thu Nov 07 2024 13:38:50 GMT-0600 (Central Standard Time),401892.5,CFD-WM-013-015-A.jpg,1400,solid,O,z,1474,7,1,17427.299999952316,384465.2000000477,7027,ATS,A,6
4,test,1,C,mfborder.png,0,z,Thu Nov 07 2024 13:38:50 GMT-0600 (Central Standard Time),405041.7000000477,CFD-BF-023-013-A.jpg,1600,dash,O,None,1514,2,1,20576.5,384465.2000000477,7027,ATS,A,7
5,test,1,C,mfborder.png,1,m,Thu Nov 07 2024 13:38:50 GMT-0600 (Central Standard Time),407157.7000000477,CFD-BM-029-026-HC.jpg,1200,dash,O,m,873,6,1,22692.5,384465.2000000477,7027,ATS,A,8
5,test,1,C,haborder.png,0,m,Thu Nov 07 2024 13:38:50 GMT-0600 (Central Standard Time),410306.80000019073,CFD-BF-028-020-HC.jpg,1600,solid,O,None,1516,10,1,25841.60000014305,384465.2000000477,7027,ATS,A,9
6,test,1,C,haborder.png,1,m,Thu Nov 07 2024 13:38:50 GMT-0600 (Central Standard Time),412089.5,CFD-WF-017-016-HC.jpg,1000,solid,O,m,735,12,1,27624.299999952316,384465.2000000477,7027,ATS,A,10
7,test,1,C,haborder.png,1,z,Thu Nov 07 2024 13:38:50 GMT-0600 (Central Standard Time),414888.60000014305,CFD-BM-010-019-A.jpg,1700,solid,O,z,1061,9,1,30423.400000095367,384465.2000000477,7027,ATS,A,11
8,test,1,C,haborder.png,1,z,Thu Nov 07 2024 13:38:50 GMT-0600 (Central Standard Time),417304.30000019073,CFD-WM-013-015-A.jpg,1400,solid,O,z,970,7,1,32839.10000014305,384465.2000000477,7027,ATS,A,12
8,test,1,C,haborder.png,0,m,Thu Nov 07 2024 13:38:50 GMT-0600 (Central Standard Time),420353.60000014305,CFD-WF-002-008-HC.jpg,1500,solid,O,None,1515,11,1,35888.40000009537,384465.2000000477,7027,ATS,A,13
9,test,1,C,mfborder.png,1,m,Thu Nov 07 2024 13:38:50 GMT-0600 (Central Standard Time),422236.2000000477,CFD-WM-006-013-HC.jpg,1000,dash,O,m,842,4,1,37771.0,384465.2000000477,7027,ATS,A,14
10,test,1,C,haborder.png,1,m,Thu Nov 07 2024 13:38:50 GMT-0600 (Central Standard Time),424701.7000000477,CFD-WF-017-016-HC.jpg,1000,solid,O,m,1430,12,1,40236.5,384465.2000000477,7027,ATS,A,15
11,test,1,C,mfborder.png,1,z,Thu Nov 07 2024 13:38:50 GMT-0600 (Central Standard Time),427051.10000014305,CFD-BF-023-013-A.jpg,1600,dash,O,z,710,2,1,42585.90000009537,384465.2000000477,7027,ATS,A,16
12,test,1,C,haborder.png,1,m,Thu Nov 07 2024 13:38:50 GMT-0600 (Central Standard Time),429683.30000019073,CFD-WF-002-008-HC.jpg,1500,solid,O,m,1084,11,1,45218.10000014305,384465.2000000477,7027,ATS,A,17
13,test,1,C,mfborder.png,1,z,Thu Nov 07 2024 13:38:50 GMT-0600 (Central Standard Time),432516.10000014305,CFD-WF-003-014-A.jpg,1500,dash,O,z,1299,3,1,48050.90000009537,384465.2000000477,7027,ATS,A,18
14,test,1,C,mfborder.png,1,m,Thu Nov 07 2024 13:38:50 GMT-0600 (Central Standard Time),434965.10000014305,CFD-WM-006-013-HC.jpg,1000,dash,O,m,1406,4,1,50499.90000009537,384465.2000000477,7027,ATS,A,19
14,test,1,C,haborder.png,0,m,Thu Nov 07 2024 13:38:50 GMT-0600 (Central Standard Time),438114.40000009537,CFD-BF-028-020-HC.jpg,1600,solid,O,None,1515,10,1,53649.200000047684,384465.2000000477,7027,ATS,A,20
15,test,1,C,haborder.png,1,z,Thu Nov 07 2024 13:38:50 GMT-0600 (Central Standard Time),440929.90000009537,CFD-BM-005-010-A.jpg,1900,solid,O,z,868,8,1,56464.700000047684,384465.2000000477,7027,ATS,A,21
16,test,1,C,haborder.png,1,z,Thu Nov 07 2024 13:38:50 GMT-0600 (Central Standard Time),443545.60000014305,CFD-BM-010-019-A.jpg,1700,solid,O,z,869,9,1,59080.40000009537,384465.2000000477,7027,ATS,A,22
16,test,1,C,mfborder.png,0,m,Thu Nov 07 2024 13:38:50 GMT-0600 (Central Standard Time),447094.7000000477,CFD-WM-019-013-A.jpg,2000,dash,O,None,1515,5,1,62629.5,384465.2000000477,7027,ATS,A,23
17,test,1,C,mfborder.png,1,z,Thu Nov 07 2024 13:38:50 GMT-0600 (Central Standard Time),450093.60000014305,CFD-BF-010-005-HC.jpg,1700,dash,O,z,1264,1,1,65628.40000009537,384465.2000000477,7027,ATS,A,24
0,test,2,C,mfborder.png,0,m,Thu Nov 07 2024 13:38:50 GMT-0600 (Central Standard Time),459790.80000019073,CFD-WM-013-015-A.jpg,1200,dash,O,None,1514,6,1,2749.2000000476837,457041.60000014305,7027,ATS,A,1
1,test,2,C,mfborder.png,1,m,Thu Nov 07 2024 13:38:50 GMT-0600 (Central Standard Time),463005.30000019073,CFD-BM-005-010-A.jpg,2000,dash,O,m,1171,5,1,5963.700000047684,457041.60000014305,7027,ATS,A,2
2,test,2,C,mfborder.png,1,m,Thu Nov 07 2024 13:38:50 GMT-0600 (Central Standard Time),465088.7000000477,CFD-BM-017-052-HC.jpg,1000,dash,O,m,1053,4,1,8047.099999904633,457041.60000014305,7027,ATS,A,3
3,test,2,C,haborder.png,1,z,Thu Nov 07 2024 13:38:50 GMT-0600 (Central Standard Time),467587.90000009537,CFD-BF-023-013-A.jpg,1400,solid,O,z,1049,7,1,10546.299999952316,457041.60000014305,7027,ATS,A,4
4,test,2,C,mfborder.png,1,z,Thu Nov 07 2024 13:38:50 GMT-0600 (Central Standard Time),470187.0,CFD-BF-028-020-HC.jpg,1500,dash,O,z,1058,3,1,13145.399999856949,457041.60000014305,7027,ATS,A,5
5,test,2,C,mfborder.png,1,m,Thu Nov 07 2024 13:38:50 GMT-0600 (Central Standard Time),472186.30000019073,CFD-BM-017-052-HC.jpg,1000,dash,O,m,959,4,1,15144.700000047684,457041.60000014305,7027,ATS,A,6
6,test,2,C,haborder.png,1,z,Thu Nov 07 2024 13:38:50 GMT-0600 (Central Standard Time),474935.2000000477,CFD-BF-039-039-A.jpg,1900,solid,O,z,783,8,1,17893.599999904633,457041.60000014305,7027,ATS,A,7
7,test,2,C,mfborder.png,1,z,Thu Nov 07 2024 13:38:50 GMT-0600 (Central Standard Time),477567.90000009537,CFD-WF-019-015-A.jpg,1600,dash,O,z,995,2,1,20526.299999952316,457041.60000014305,7027,ATS,A,8
7,test,2,C,haborder.png,0,z,Thu Nov 07 2024 13:38:50 GMT-0600 (Central Standard Time),480417.0,CFD-BF-039-039-A.jpg,1900,solid,O,m,910,8,1,23375.39999985695,457041.60000014305,7027,ATS,A,9
8,test,2,C,haborder.png,1,z,Thu Nov 07 2024 13:38:50 GMT-0600 (Central Standard Time),483266.10000014305,CFD-WF-003-014-A.jpg,1700,solid,O,z,1102,9,1,26224.5,457041.60000014305,7027,ATS,A,10
8,test,2,C,mfborder.png,0,z,Thu Nov 07 2024 13:38:50 GMT-0600 (Central Standard Time),486147.90000009537,CFD-WF-017-016-HC.jpg,1700,dash,O,m,1140,1,1,29106.299999952316,457041.60000014305,7027,ATS,A,11
9,test,2,C,haborder.png,1,m,Thu Nov 07 2024 13:38:50 GMT-0600 (Central Standard Time),488830.90000009537,CFD-WM-004-005-HC.jpg,1500,solid,O,m,1154,11,1,31789.299999952316,457041.60000014305,7027,ATS,A,12
10,test,2,C,haborder.png,1,z,Thu Nov 07 2024 13:38:50 GMT-0600 (Central Standard Time),491096.7000000477,CFD-BF-023-013-A.jpg,1400,solid,O,z,827,7,1,34055.09999990463,457041.60000014305,7027,ATS,A,13
11,test,2,C,mfborder.png,1,m,Thu Nov 07 2024 13:38:50 GMT-0600 (Central Standard Time),493445.10000014305,CFD-WM-013-015-A.jpg,1200,dash,O,m,1104,6,1,36403.5,457041.60000014305,7027,ATS,A,14
12,test,2,C,haborder.png,1,m,Thu Nov 07 2024 13:38:50 GMT-0600 (Central Standard Time),496060.80000019073,CFD-BM-029-026-HC.jpg,1600,solid,O,m,997,10,1,39019.200000047684,457041.60000014305,7027,ATS,A,15
13,test,2,C,mfborder.png,1,m,Thu Nov 07 2024 13:38:50 GMT-0600 (Central Standard Time),499127.2000000477,CFD-BM-005-010-A.jpg,2000,dash,O,m,1045,5,1,42085.59999990463,457041.60000014305,7027,ATS,A,16
14,test,2,C,haborder.png,1,m,Thu Nov 07 2024 13:38:50 GMT-0600 (Central Standard Time),501460.10000014305,CFD-WM-004-005-HC.jpg,1000,solid,O,m,1291,12,1,44418.5,457041.60000014305,7027,ATS,A,17
14,test,2,C,haborder.png,0,m,Thu Nov 07 2024 13:38:50 GMT-0600 (Central Standard Time),504609.2000000477,CFD-BM-029-026-HC.jpg,1600,solid,O,None,1515,10,1,47567.59999990463,457041.60000014305,7027,ATS,A,18
15,test,2,C,haborder.png,1,m,Thu Nov 07 2024 13:38:50 GMT-0600 (Central Standard Time),506241.80000019073,CFD-WM-004-005-HC.jpg,1000,solid,O,m,593,12,1,49200.200000047684,457041.60000014305,7027,ATS,A,19
16,test,2,C,mfborder.png,1,z,Thu Nov 07 2024 13:38:50 GMT-0600 (Central Standard Time),509240.7000000477,CFD-WF-017-016-HC.jpg,1700,dash,O,z,1261,1,1,52199.09999990463,457041.60000014305,7027,ATS,A,20
16,test,2,C,mfborder.png,0,z,Thu Nov 07 2024 13:38:50 GMT-0600 (Central Standard Time),512389.90000009537,CFD-WF-019-015-A.jpg,1600,dash,O,None,1516,2,1,55348.299999952316,457041.60000014305,7027,ATS,A,21
17,test,2,C,mfborder.png,1,z,Thu Nov 07 2024 13:38:50 GMT-0600 (Central Standard Time),514805.7000000477,CFD-BF-028-020-HC.jpg,1500,dash,O,z,872,3,1,57764.09999990463,457041.60000014305,7027,ATS,A,22
18,test,2,C,haborder.png,1,m,Thu Nov 07 2024 13:38:50 GMT-0600 (Central Standard Time),517754.90000009537,CFD-WM-004-005-HC.jpg,1500,solid,O,m,1410,11,1,60713.299999952316,457041.60000014305,7027,ATS,A,23
19,test,2,C,haborder.png,1,z,Thu Nov 07 2024 13:38:50 GMT-0600 (Central Standard Time),520470.30000019073,CFD-WF-003-014-A.jpg,1700,solid,O,z,973,9,1,63428.700000047684,457041.60000014305,7027,ATS,A,24
1,test,3,C,haborder.png,1,z,Thu Nov 07 2024 13:38:50 GMT-0600 (Central Standard Time),526585.4000000954,CFD-WM-013-015-A.jpg,1400,solid,O,z,960,7,1,2399.2999999523163,524186.10000014305,7027,ATS,A,1
2,test,3,C,haborder.png,1,m,Thu Nov 07 2024 13:38:50 GMT-0600 (Central Standard Time),528484.600000143,CFD-WF-017-016-HC.jpg,1000,solid,O,m,849,12,1,4298.5,524186.10000014305,7027,ATS,A,2
3,test,3,C,haborder.png,1,m,Thu Nov 07 2024 13:38:50 GMT-0600 (Central Standard Time),531183.5,CFD-BF-028-020-HC.jpg,1600,solid,O,m,1062,10,1,6997.399999856949,524186.10000014305,7027,ATS,A,3
4,test,3,C,mfborder.png,1,m,Thu Nov 07 2024 13:38:50 GMT-0600 (Central Standard Time),534282.4000000954,CFD-WM-019-013-A.jpg,2000,dash,O,m,1051,5,1,10096.299999952316,524186.10000014305,7027,ATS,A,4
5,test,3,C,haborder.png,1,z,Thu Nov 07 2024 13:38:50 GMT-0600 (Central Standard Time),537481.600000143,CFD-BM-010-019-A.jpg,1700,solid,O,z,1460,9,1,13295.5,524186.10000014305,7027,ATS,A,5
5,test,3,C,mfborder.png,0,z,Thu Nov 07 2024 13:38:50 GMT-0600 (Central Standard Time),540563.8000001907,CFD-BF-023-013-A.jpg,1600,dash,O,m,1433,2,1,16377.700000047684,524186.10000014305,7027,ATS,A,6
6,test,3,C,mfborder.png,1,z,Thu Nov 07 2024 13:38:50 GMT-0600 (Central Standard Time),543179.600000143,CFD-BF-010-005-HC.jpg,1700,dash,O,z,866,1,1,18993.5,524186.10000014305,7027,ATS,A,7
6,test,3,C,haborder.png,0,z,Thu Nov 07 2024 13:38:50 GMT-0600 (Central Standard Time),546128.9000000954,CFD-WM-013-015-A.jpg,1400,solid,O,None,1514,7,1,21942.799999952316,524186.10000014305,7027,ATS,A,8
7,test,3,C,mfborder.png,1,m,Thu Nov 07 2024 13:38:50 GMT-0600 (Central Standard Time),548178.0,CFD-BM-029-026-HC.jpg,1200,dash,O,m,802,6,1,23991.89999985695,524186.10000014305,7027,ATS,A,9
7,test,3,C,haborder.png,0,m,Thu Nov 07 2024 13:38:50 GMT-0600 (Central Standard Time),550443.9000000954,CFD-WF-017-016-HC.jpg,1000,solid,O,z,1224,12,1,26257.799999952316,524186.10000014305,7027,ATS,A,10
7,test,3,C,mfborder.png,0,m,Thu Nov 07 2024 13:38:50 GMT-0600 (Central Standard Time),553193.100000143,CFD-BM-029-026-HC.jpg,1200,dash,O,None,1515,6,1,29007.0,524186.10000014305,7027,ATS,A,11
8,test,3,C,mfborder.png,1,m,Thu Nov 07 2024 13:38:50 GMT-0600 (Central Standard Time),555342.2000000477,CFD-WM-006-013-HC.jpg,1000,dash,O,m,1113,4,1,31156.099999904633,524186.10000014305,7027,ATS,A,12
9,test,3,C,haborder.png,1,z,Thu Nov 07 2024 13:38:50 GMT-0600 (Central Standard Time),558408.0,CFD-BM-005-010-A.jpg,1900,solid,O,z,1120,8,1,34221.89999985695,524186.10000014305,7027,ATS,A,13
10,test,3,C,haborder.png,1,z,Thu Nov 07 2024 13:38:50 GMT-0600 (Central Standard Time),560989.4000000954,CFD-BM-010-019-A.jpg,1700,solid,O,z,847,9,1,36803.299999952316,524186.10000014305,7027,ATS,A,14
11,test,3,C,mfborder.png,1,z,Thu Nov 07 2024 13:38:50 GMT-0600 (Central Standard Time),563139.7000000477,CFD-WF-003-014-A.jpg,1500,dash,O,z,625,3,1,38953.59999990463,524186.10000014305,7027,ATS,A,15
12,test,3,C,haborder.png,1,m,Thu Nov 07 2024 13:38:50 GMT-0600 (Central Standard Time),566021.9000000954,CFD-BF-028-020-HC.jpg,1600,solid,O,m,1246,10,1,41835.799999952316,524186.10000014305,7027,ATS,A,16
13,test,3,C,mfborder.png,1,m,Thu Nov 07 2024 13:38:50 GMT-0600 (Central Standard Time),568421.2000000477,CFD-WM-006-013-HC.jpg,1000,dash,O,m,1364,4,1,44235.09999990463,524186.10000014305,7027,ATS,A,17
13,test,3,C,haborder.png,0,m,Thu Nov 07 2024 13:38:50 GMT-0600 (Central Standard Time),571470.600000143,CFD-WF-002-008-HC.jpg,1500,solid,O,None,1515,11,1,47284.5,524186.10000014305,7027,ATS,A,18
14,test,3,C,mfborder.png,1,z,Thu Nov 07 2024 13:38:50 GMT-0600 (Central Standard Time),573719.600000143,CFD-WF-003-014-A.jpg,1500,dash,O,z,704,3,1,49533.5,524186.10000014305,7027,ATS,A,19
15,test,3,C,haborder.png,1,m,Thu Nov 07 2024 13:38:50 GMT-0600 (Central Standard Time),576118.7000000477,CFD-WF-002-008-HC.jpg,1500,solid,O,m,863,11,1,51932.59999990463,524186.10000014305,7027,ATS,A,20
16,test,3,C,mfborder.png,1,m,Thu Nov 07 2024 13:38:50 GMT-0600 (Central Standard Time),579201.600000143,CFD-WM-019-013-A.jpg,2000,dash,O,m,1035,5,1,55015.5,524186.10000014305,7027,ATS,A,21
17,test,3,C,haborder.png,1,z,Thu Nov 07 2024 13:38:50 GMT-0600 (Central Standard Time),581983.5,CFD-BM-005-010-A.jpg,1900,solid,O,z,821,8,1,57797.39999985695,524186.10000014305,7027,ATS,A,22
18,test,3,C,mfborder.png,1,z,Thu Nov 07 2024 13:38:50 GMT-0600 (Central Standard Time),584765.7000000477,CFD-BF-023-013-A.jpg,1600,dash,O,z,1145,2,1,60579.59999990463,524186.10000014305,7027,ATS,A,23
19,test,3,C,mfborder.png,1,z,Thu Nov 07 2024 13:38:50 GMT-0600 (Central Standard Time),587515.0,CFD-BF-010-005-HC.jpg,1700,dash,O,z,1002,1,1,63328.89999985695,524186.10000014305,7027,ATS,A,24
1,test,4,C,mfborder.png,1,m,Thu Nov 07 2024 13:38:50 GMT-0600 (Central Standard Time),592863.3000001907,CFD-BM-017-052-HC.jpg,1000,dash,O,m,871,4,1,1916.0,590947.3000001907,7027,ATS,A,1
1,test,4,C,haborder.png,0,m,Thu Nov 07 2024 13:38:50 GMT-0600 (Central Standard Time),595413.0,CFD-WM-004-005-HC.jpg,1000,solid,O,None,1516,12,1,4465.699999809265,590947.3000001907,7027,ATS,A,2
2,test,4,C,mfborder.png,1,z,Thu Nov 07 2024 13:38:50 GMT-0600 (Central Standard Time),597878.2000000477,CFD-WF-019-015-A.jpg,1600,dash,O,z,829,2,1,6930.899999856949,590947.3000001907,7027,ATS,A,3
3,test,4,C,mfborder.png,1,z,Thu Nov 07 2024 13:38:50 GMT-0600 (Central Standard Time),600510.9000000954,CFD-BF-028-020-HC.jpg,1500,dash,O,z,1088,3,1,9563.599999904633,590947.3000001907,7027,ATS,A,4
4,test,4,C,haborder.png,1,z,Thu Nov 07 2024 13:38:50 GMT-0600 (Central Standard Time),603559.7000000477,CFD-WF-003-014-A.jpg,1700,solid,O,z,1305,9,1,12612.399999856949,590947.3000001907,7027,ATS,A,5
4,test,4,C,haborder.png,0,m,Thu Nov 07 2024 13:38:50 GMT-0600 (Central Standard Time),606708.8000001907,CFD-BM-029-026-HC.jpg,1600,solid,O,None,1516,10,1,15761.5,590947.3000001907,7027,ATS,A,6
5,test,4,C,mfborder.png,1,z,Thu Nov 07 2024 13:38:50 GMT-0600 (Central Standard Time),608941.0,CFD-BF-028-020-HC.jpg,1500,dash,O,z,698,3,1,17993.699999809265,590947.3000001907,7027,ATS,A,7
6,test,4,C,mfborder.png,1,m,Thu Nov 07 2024 13:38:50 GMT-0600 (Central Standard Time),611407.100000143,CFD-WM-013-015-A.jpg,1200,dash,O,m,1229,6,1,20459.799999952316,590947.3000001907,7027,ATS,A,8
7,test,4,C,haborder.png,1,m,Thu Nov 07 2024 13:38:50 GMT-0600 (Central Standard Time),613656.4000000954,CFD-WM-004-005-HC.jpg,1000,solid,O,m,1211,12,1,22709.099999904633,590947.3000001907,7027,ATS,A,9
8,test,4,C,mfborder.png,1,z,Thu Nov 07 2024 13:38:50 GMT-0600 (Central Standard Time),616105.5,CFD-WF-019-015-A.jpg,1600,dash,O,z,810,2,1,25158.199999809265,590947.3000001907,7027,ATS,A,10
9,test,4,C,haborder.png,1,z,Thu Nov 07 2024 13:38:50 GMT-0600 (Central Standard Time),618954.600000143,CFD-BF-023-013-A.jpg,1400,solid,O,z,1401,7,1,28007.299999952316,590947.3000001907,7027,ATS,A,11
10,test,4,C,haborder.png,1,m,Thu Nov 07 2024 13:38:50 GMT-0600 (Central Standard Time),621737.2000000477,CFD-WM-004-005-HC.jpg,1500,solid,O,m,1219,11,1,30789.89999985695,590947.3000001907,7027,ATS,A,12
11,test,4,C,haborder.png,1,m,Thu Nov 07 2024 13:38:50 GMT-0600 (Central Standard Time),624118.8000001907,CFD-BM-029-026-HC.jpg,1600,solid,O,m,737,10,1,33171.5,590947.3000001907,7027,ATS,A,13
11,test,4,C,mfborder.png,0,z,Thu Nov 07 2024 13:38:50 GMT-0600 (Central Standard Time),627352.2000000477,CFD-WF-017-016-HC.jpg,1700,dash,O,None,1516,1,1,36404.89999985695,590947.3000001907,7027,ATS,A,14
12,test,4,C,haborder.png,1,z,Thu Nov 07 2024 13:38:50 GMT-0600 (Central Standard Time),630084.2000000477,CFD-BF-023-013-A.jpg,1400,solid,O,z,1290,7,1,39136.89999985695,590947.3000001907,7027,ATS,A,15
13,test,4,C,haborder.png,1,z,Thu Nov 07 2024 13:38:50 GMT-0600 (Central Standard Time),633516.8000001907,CFD-BF-039-039-A.jpg,1900,solid,O,z,1490,8,1,42569.5,590947.3000001907,7027,ATS,A,16
13,test,4,C,mfborder.png,0,m,Thu Nov 07 2024 13:38:50 GMT-0600 (Central Standard Time),636065.100000143,CFD-WM-013-015-A.jpg,1200,dash,O,z,1301,6,1,45117.799999952316,590947.3000001907,7027,ATS,A,17
14,test,4,C,mfborder.png,1,z,Thu Nov 07 2024 13:38:50 GMT-0600 (Central Standard Time),638914.7000000477,CFD-WF-017-016-HC.jpg,1700,dash,O,z,1125,1,1,47967.39999985695,590947.3000001907,7027,ATS,A,18
15,test,4,C,mfborder.png,1,m,Thu Nov 07 2024 13:38:50 GMT-0600 (Central Standard Time),641881.100000143,CFD-BM-005-010-A.jpg,2000,dash,O,m,933,5,1,50933.799999952316,590947.3000001907,7027,ATS,A,19
16,test,4,C,haborder.png,1,z,Thu Nov 07 2024 13:38:50 GMT-0600 (Central Standard Time),644463.0,CFD-WF-003-014-A.jpg,1700,solid,O,z,838,9,1,53515.699999809265,590947.3000001907,7027,ATS,A,20
17,test,4,C,haborder.png,1,m,Thu Nov 07 2024 13:38:50 GMT-0600 (Central Standard Time),647179.100000143,CFD-WM-004-005-HC.jpg,1500,solid,O,m,1167,11,1,56231.799999952316,590947.3000001907,7027,ATS,A,21
18,test,4,C,mfborder.png,1,m,Thu Nov 07 2024 13:38:50 GMT-0600 (Central Standard Time),649444.600000143,CFD-BM-017-052-HC.jpg,1000,dash,O,m,1224,4,1,58497.299999952316,590947.3000001907,7027,ATS,A,22
19,test,4,C,haborder.png,1,z,Thu Nov 07 2024 13:38:50 GMT-0600 (Central Standard Time),652860.4000000954,CFD-BF-039-039-A.jpg,1900,solid,O,z,1474,8,1,61913.09999990463,590947.3000001907,7027,ATS,A,23
20,test,4,C,mfborder.png,1,m,Thu Nov 07 2024 13:38:50 GMT-0600 (Central Standard Time),655825.8000001907,CFD-BM-005-010-A.jpg,2000,dash,O,m,926,5,1,64878.5,590947.3000001907,7027,ATS,A,24
