acc_sum,block,block_c,change,condition,correct,correct_response,datetime,endtime,face,project,response,response_time,row_sel,session_number,start_end,starttime,subject_id,task,task_vers,trial
0,prac,1,,1-Back,,,Fri Jan 10 2025 09:58:49 GMT-0500 (Eastern Standard Time),,050_m_f_n_a.png,I,space,6558,1,1,,,9007,NNB,A,0
1,prac,1,0.0,1-Back,1,m,Fri Jan 10 2025 09:58:49 GMT-0500 (Eastern Standard Time),133682.39999961853,063_y_f_n_a.png,I,m,1534,2,1,2367.2999992370605,131315.10000038147,9007,NNB,A,1
2,prac,1,1.0,1-Back,1,z,Fri Jan 10 2025 09:58:49 GMT-0500 (Eastern Standard Time),136065.5,063_y_f_n_a.png,I,z,1587,3,1,2368.8999996185303,133696.60000038147,9007,NNB,A,2
3,prac,1,0.0,1-Back,1,m,Fri Jan 10 2025 09:58:49 GMT-0500 (Eastern Standard Time),138398.39999961853,053_o_m_n_a.png,I,m,1499,4,1,2318.5999994277954,136079.80000019073,9007,NNB,A,3
4,prac,1,0.0,1-Back,1,m,Fri Jan 10 2025 09:58:49 GMT-0500 (Eastern Standard Time),140332.10000038147,058_m_m_n_a.png,I,m,1103,5,1,1920.3000001907349,138411.80000019073,9007,NNB,A,4
5,prac,1,1.0,1-Back,1,z,Fri Jan 10 2025 09:58:49 GMT-0500 (Eastern Standard Time),142232.10000038147,058_m_m_n_a.png,I,z,1112,6,1,1885.8000001907349,140346.30000019073,9007,NNB,A,5
5,prac,1,0.0,1-Back,0,m,Fri Jan 10 2025 09:58:49 GMT-0500 (Eastern Standard Time),145114.89999961853,047_o_f_n_a.png,I,None,2012,7,1,2867.7999992370605,142247.10000038147,9007,NNB,A,6
5,prac,1,0.0,1-Back,0,m,Fri Jan 10 2025 09:58:49 GMT-0500 (Eastern Standard Time),147948.5,045_m_m_n_a.png,I,None,2011,8,1,2820.699999809265,145127.80000019073,9007,NNB,A,7
6,prac,1,0.0,1-Back,1,m,Fri Jan 10 2025 09:58:49 GMT-0500 (Eastern Standard Time),150349.0,050_m_f_n_a.png,I,m,1563,9,1,2383.699999809265,147965.30000019073,9007,NNB,A,8
7,prac,1,1.0,1-Back,1,z,Fri Jan 10 2025 09:58:49 GMT-0500 (Eastern Standard Time),152149.0,050_m_f_n_a.png,I,z,1014,10,1,1783.5,150365.5,9007,NNB,A,9
8,prac,1,0.0,1-Back,1,m,Fri Jan 10 2025 09:58:49 GMT-0500 (Eastern Standard Time),153982.10000038147,053_o_m_n_a.png,I,m,1040,11,1,1817.8000001907349,152164.30000019073,9007,NNB,A,10
9,prac,1,0.0,1-Back,1,m,Fri Jan 10 2025 09:58:49 GMT-0500 (Eastern Standard Time),155899.0,010_y_f_n_a.png,I,m,1040,12,1,1897.3000001907349,154001.69999980927,9007,NNB,A,11
0,test,1,0.0,1-Back,,,Fri Jan 10 2025 09:58:49 GMT-0500 (Eastern Standard Time),155899.0,063_y_f_n_a.png,I,space,11633,1,1,1897.3000001907349,154001.69999980927,9007,NNB,A,0
1,test,1,0.0,1-Back,1,m,Fri Jan 10 2025 09:58:49 GMT-0500 (Eastern Standard Time),187898.80000019073,043_m_f_n_a.png,I,m,1092,2,1,2103.1000003814697,185795.69999980927,9007,NNB,A,1
2,test,1,0.0,1-Back,1,m,Fri Jan 10 2025 09:58:49 GMT-0500 (Eastern Standard Time),190248.80000019073,010_y_f_n_a.png,I,m,1328,3,1,2336.800000190735,187912.0,9007,NNB,A,2
3,test,1,1.0,1-Back,1,z,Fri Jan 10 2025 09:58:49 GMT-0500 (Eastern Standard Time),192131.69999980927,010_y_f_n_a.png,I,z,832,4,1,1866.0999994277954,190265.60000038147,9007,NNB,A,3
4,test,1,0.0,1-Back,1,m,Fri Jan 10 2025 09:58:49 GMT-0500 (Eastern Standard Time),194965.5,043_m_f_n_a.png,I,m,1798,5,1,2823.1000003814697,192142.39999961853,9007,NNB,A,4
5,test,1,0.0,1-Back,1,m,Fri Jan 10 2025 09:58:49 GMT-0500 (Eastern Standard Time),196948.60000038147,053_o_m_n_a.png,I,m,949,6,1,1969.6000003814697,194979.0,9007,NNB,A,5
6,test,1,1.0,1-Back,1,z,Fri Jan 10 2025 09:58:49 GMT-0500 (Eastern Standard Time),198532.0,053_o_m_n_a.png,I,z,550,7,1,1569.0,196963.0,9007,NNB,A,6
7,test,1,0.0,1-Back,1,m,Fri Jan 10 2025 09:58:49 GMT-0500 (Eastern Standard Time),200431.80000019073,058_m_m_n_a.png,I,m,870,8,1,1886.6000003814697,198545.19999980927,9007,NNB,A,7
8,test,1,0.0,1-Back,1,m,Fri Jan 10 2025 09:58:49 GMT-0500 (Eastern Standard Time),202932.19999980927,047_o_f_n_a.png,I,m,1468,9,1,2488.0,200444.19999980927,9007,NNB,A,8
9,test,1,0.0,1-Back,1,m,Fri Jan 10 2025 09:58:49 GMT-0500 (Eastern Standard Time),205215.39999961853,058_m_m_n_a.png,I,m,1254,10,1,2269.7999992370605,202945.60000038147,9007,NNB,A,9
10,test,1,0.0,1-Back,1,m,Fri Jan 10 2025 09:58:49 GMT-0500 (Eastern Standard Time),207532.19999980927,041_y_m_n_a.png,I,m,1291,11,1,2303.8999996185303,205228.30000019073,9007,NNB,A,10
11,test,1,1.0,1-Back,1,z,Fri Jan 10 2025 09:58:49 GMT-0500 (Eastern Standard Time),209015.10000038147,041_y_m_n_a.png,I,z,462,12,1,1468.1000003814697,207547.0,9007,NNB,A,11
12,test,1,0.0,1-Back,1,m,Fri Jan 10 2025 09:58:49 GMT-0500 (Eastern Standard Time),210898.69999980927,044_o_f_n_a.png,I,m,851,13,1,1871.1999998092651,209027.5,9007,NNB,A,12
13,test,1,1.0,1-Back,1,z,Fri Jan 10 2025 09:58:49 GMT-0500 (Eastern Standard Time),212815.10000038147,044_o_f_n_a.png,I,z,887,14,1,1903.9000005722046,210911.19999980927,9007,NNB,A,13
14,test,1,0.0,1-Back,1,m,Fri Jan 10 2025 09:58:49 GMT-0500 (Eastern Standard Time),214765.5,008_y_m_n_a.png,I,m,925,15,1,1939.0,212826.5,9007,NNB,A,14
15,test,1,0.0,1-Back,1,m,Fri Jan 10 2025 09:58:49 GMT-0500 (Eastern Standard Time),216748.69999980927,050_m_f_n_a.png,I,m,957,16,1,1969.8000001907349,214778.89999961853,9007,NNB,A,15
16,test,1,0.0,1-Back,1,m,Fri Jan 10 2025 09:58:49 GMT-0500 (Eastern Standard Time),218632.0,046_o_m_n_a.png,I,m,845,17,1,1865.1000003814697,216766.89999961853,9007,NNB,A,16
17,test,1,0.0,1-Back,1,m,Fri Jan 10 2025 09:58:49 GMT-0500 (Eastern Standard Time),220598.30000019073,050_m_f_n_a.png,I,m,929,18,1,1950.5,218647.80000019073,9007,NNB,A,17
0,test,2,0.0,1-Back,,,Fri Jan 10 2025 09:58:49 GMT-0500 (Eastern Standard Time),220598.30000019073,058_m_m_n_a.png,I,space,3855,1,1,1950.5,218647.80000019073,9007,NNB,A,0
1,test,2,0.0,1-Back,1,m,Fri Jan 10 2025 09:58:49 GMT-0500 (Eastern Standard Time),228232.10000038147,043_m_f_n_a.png,I,m,729,2,1,1736.7000007629395,226495.39999961853,9007,NNB,A,1
2,test,2,1.0,1-Back,1,z,Fri Jan 10 2025 09:58:49 GMT-0500 (Eastern Standard Time),230515.5,043_m_f_n_a.png,I,z,1250,3,1,2269.3999996185303,228246.10000038147,9007,NNB,A,2
3,test,2,0.0,1-Back,1,m,Fri Jan 10 2025 09:58:49 GMT-0500 (Eastern Standard Time),232348.80000019073,058_m_m_n_a.png,I,m,808,4,1,1819.3000001907349,230529.5,9007,NNB,A,3
4,test,2,0.0,1-Back,1,m,Fri Jan 10 2025 09:58:49 GMT-0500 (Eastern Standard Time),234348.80000019073,041_y_m_n_a.png,I,m,974,5,1,1986.6000003814697,232362.19999980927,9007,NNB,A,4
5,test,2,0.0,1-Back,1,m,Fri Jan 10 2025 09:58:49 GMT-0500 (Eastern Standard Time),236115.5,063_y_f_n_a.png,I,m,734,6,1,1753.1999998092651,234362.30000019073,9007,NNB,A,5
6,test,2,1.0,1-Back,1,z,Fri Jan 10 2025 09:58:49 GMT-0500 (Eastern Standard Time),237798.89999961853,063_y_f_n_a.png,I,z,648,7,1,1670.5999994277954,236128.30000019073,9007,NNB,A,6
7,test,2,0.0,1-Back,1,m,Fri Jan 10 2025 09:58:49 GMT-0500 (Eastern Standard Time),239565.5,041_y_m_n_a.png,I,m,740,8,1,1752.3000001907349,237813.19999980927,9007,NNB,A,7
8,test,2,0.0,1-Back,1,m,Fri Jan 10 2025 09:58:49 GMT-0500 (Eastern Standard Time),241398.69999980927,044_o_f_n_a.png,I,m,797,9,1,1820.0999994277954,239578.60000038147,9007,NNB,A,8
9,test,2,0.0,1-Back,1,m,Fri Jan 10 2025 09:58:49 GMT-0500 (Eastern Standard Time),243232.0,045_m_m_n_a.png,I,m,804,10,1,1817.8999996185303,241414.10000038147,9007,NNB,A,9
10,test,2,1.0,1-Back,1,z,Fri Jan 10 2025 09:58:49 GMT-0500 (Eastern Standard Time),245198.80000019073,045_m_m_n_a.png,I,z,938,11,1,1954.0,243244.80000019073,9007,NNB,A,10
11,test,2,0.0,1-Back,1,m,Fri Jan 10 2025 09:58:49 GMT-0500 (Eastern Standard Time),247015.19999980927,044_o_f_n_a.png,I,m,796,12,1,1803.8999996185303,245211.30000019073,9007,NNB,A,11
11,test,2,0.0,1-Back,0,m,Fri Jan 10 2025 09:58:49 GMT-0500 (Eastern Standard Time),248931.89999961853,047_o_f_n_a.png,I,z,883,13,1,1901.8999996185303,247030.0,9007,NNB,A,12
12,test,2,0.0,1-Back,1,m,Fri Jan 10 2025 09:58:49 GMT-0500 (Eastern Standard Time),250948.89999961853,053_o_m_n_a.png,I,m,982,14,1,2004.6999998092651,248944.19999980927,9007,NNB,A,13
13,test,2,0.0,1-Back,1,m,Fri Jan 10 2025 09:58:49 GMT-0500 (Eastern Standard Time),253215.5,046_o_m_n_a.png,I,m,1238,15,1,2251.3999996185303,250964.10000038147,9007,NNB,A,14
14,test,2,1.0,1-Back,1,z,Fri Jan 10 2025 09:58:49 GMT-0500 (Eastern Standard Time),255198.5,046_o_m_n_a.png,I,z,954,16,1,1969.8000001907349,253228.69999980927,9007,NNB,A,15
15,test,2,0.0,1-Back,1,m,Fri Jan 10 2025 09:58:49 GMT-0500 (Eastern Standard Time),257132.19999980927,008_y_m_n_a.png,I,m,909,17,1,1921.5999994277954,255210.60000038147,9007,NNB,A,16
16,test,2,1.0,1-Back,1,z,Fri Jan 10 2025 09:58:49 GMT-0500 (Eastern Standard Time),259082.10000038147,008_y_m_n_a.png,I,z,928,18,1,1936.6000003814697,257145.5,9007,NNB,A,17
0,test,3,1.0,1-Back,,,Fri Jan 10 2025 09:58:49 GMT-0500 (Eastern Standard Time),259082.10000038147,010_y_f_n_a.png,I,space,1722,1,1,1936.6000003814697,257145.5,9007,NNB,A,0
1,test,3,0.0,1-Back,1,m,Fri Jan 10 2025 09:58:49 GMT-0500 (Eastern Standard Time),264665.60000038147,046_o_m_n_a.png,I,m,729,2,1,1738.6000003814697,262927.0,9007,NNB,A,1
2,test,3,1.0,1-Back,1,z,Fri Jan 10 2025 09:58:49 GMT-0500 (Eastern Standard Time),266515.19999980927,046_o_m_n_a.png,I,z,819,3,1,1837.3000001907349,264677.89999961853,9007,NNB,A,2
3,test,3,0.0,1-Back,1,m,Fri Jan 10 2025 09:58:49 GMT-0500 (Eastern Standard Time),268581.89999961853,050_m_f_n_a.png,I,m,1048,4,1,2054.8999996185303,266527.0,9007,NNB,A,3
4,test,3,1.0,1-Back,1,z,Fri Jan 10 2025 09:58:49 GMT-0500 (Eastern Standard Time),270332.10000038147,050_m_f_n_a.png,I,z,725,5,1,1739.0,268593.10000038147,9007,NNB,A,4
5,test,3,0.0,1-Back,1,m,Fri Jan 10 2025 09:58:49 GMT-0500 (Eastern Standard Time),272265.39999961853,044_o_f_n_a.png,I,m,910,6,1,1920.0999994277954,270345.30000019073,9007,NNB,A,5
6,test,3,0.0,1-Back,1,m,Fri Jan 10 2025 09:58:49 GMT-0500 (Eastern Standard Time),274665.5,041_y_m_n_a.png,I,m,1378,7,1,2388.800000190735,272276.69999980927,9007,NNB,A,6
7,test,3,0.0,1-Back,1,m,Fri Jan 10 2025 09:58:49 GMT-0500 (Eastern Standard Time),276582.60000038147,044_o_f_n_a.png,I,m,898,8,1,1901.9000005722046,274680.69999980927,9007,NNB,A,7
8,test,3,0.0,1-Back,1,m,Fri Jan 10 2025 09:58:49 GMT-0500 (Eastern Standard Time),278515.5,008_y_m_n_a.png,I,m,901,9,1,1919.8999996185303,276595.60000038147,9007,NNB,A,8
9,test,3,1.0,1-Back,1,z,Fri Jan 10 2025 09:58:49 GMT-0500 (Eastern Standard Time),280115.30000019073,008_y_m_n_a.png,I,z,567,10,1,1585.3000001907349,278530.0,9007,NNB,A,9
10,test,3,0.0,1-Back,1,m,Fri Jan 10 2025 09:58:49 GMT-0500 (Eastern Standard Time),282065.30000019073,043_m_f_n_a.png,I,m,918,11,1,1936.3000001907349,280129.0,9007,NNB,A,10
11,test,3,0.0,1-Back,1,m,Fri Jan 10 2025 09:58:49 GMT-0500 (Eastern Standard Time),284348.80000019073,063_y_f_n_a.png,I,m,1258,12,1,2270.0,282078.80000019073,9007,NNB,A,11
12,test,3,1.0,1-Back,1,z,Fri Jan 10 2025 09:58:49 GMT-0500 (Eastern Standard Time),286148.5,063_y_f_n_a.png,I,z,766,13,1,1784.6000003814697,284363.89999961853,9007,NNB,A,12
13,test,3,0.0,1-Back,1,m,Fri Jan 10 2025 09:58:49 GMT-0500 (Eastern Standard Time),287932.10000038147,043_m_f_n_a.png,I,m,758,14,1,1773.5,286158.60000038147,9007,NNB,A,13
14,test,3,0.0,1-Back,1,m,Fri Jan 10 2025 09:58:49 GMT-0500 (Eastern Standard Time),289798.30000019073,058_m_m_n_a.png,I,m,846,15,1,1853.4000005722046,287944.89999961853,9007,NNB,A,14
15,test,3,1.0,1-Back,1,z,Fri Jan 10 2025 09:58:49 GMT-0500 (Eastern Standard Time),291582.19999980927,058_m_m_n_a.png,I,z,757,16,1,1772.8000001907349,289809.39999961853,9007,NNB,A,15
16,test,3,0.0,1-Back,1,m,Fri Jan 10 2025 09:58:49 GMT-0500 (Eastern Standard Time),293565.5,047_o_f_n_a.png,I,m,940,17,1,1967.1999998092651,291598.30000019073,9007,NNB,A,16
17,test,3,1.0,1-Back,1,z,Fri Jan 10 2025 09:58:49 GMT-0500 (Eastern Standard Time),295415.19999980927,047_o_f_n_a.png,I,z,829,18,1,1836.0,293579.19999980927,9007,NNB,A,17
0,test,4,1.0,1-Back,,,Fri Jan 10 2025 09:58:49 GMT-0500 (Eastern Standard Time),295415.19999980927,050_m_f_n_a.png,I,space,1596,1,1,1836.0,293579.19999980927,9007,NNB,A,0
1,test,4,0.0,1-Back,1,m,Fri Jan 10 2025 09:58:49 GMT-0500 (Eastern Standard Time),300932.30000019073,046_o_m_n_a.png,I,m,867,2,1,1890.8000001907349,299041.5,9007,NNB,A,1
2,test,4,0.0,1-Back,1,m,Fri Jan 10 2025 09:58:49 GMT-0500 (Eastern Standard Time),302998.80000019073,050_m_f_n_a.png,I,m,1046,3,1,2053.199999809265,300945.60000038147,9007,NNB,A,2
3,test,4,0.0,1-Back,1,m,Fri Jan 10 2025 09:58:49 GMT-0500 (Eastern Standard Time),304832.30000019073,044_o_f_n_a.png,I,m,804,4,1,1819.9000005722046,303012.39999961853,9007,NNB,A,3
4,test,4,1.0,1-Back,1,z,Fri Jan 10 2025 09:58:49 GMT-0500 (Eastern Standard Time),306614.80000019073,044_o_f_n_a.png,I,z,761,5,1,1769.4000005722046,304845.39999961853,9007,NNB,A,4
5,test,4,0.0,1-Back,1,m,Fri Jan 10 2025 09:58:49 GMT-0500 (Eastern Standard Time),308532.30000019073,063_y_f_n_a.png,I,m,883,6,1,1905.6000003814697,306626.69999980927,9007,NNB,A,5
6,test,4,0.0,1-Back,1,m,Fri Jan 10 2025 09:58:49 GMT-0500 (Eastern Standard Time),310515.69999980927,041_y_m_n_a.png,I,m,951,7,1,1969.0,308546.69999980927,9007,NNB,A,6
7,test,4,1.0,1-Back,1,z,Fri Jan 10 2025 09:58:49 GMT-0500 (Eastern Standard Time),312798.69999980927,041_y_m_n_a.png,I,z,1256,8,1,2268.5,310530.19999980927,9007,NNB,A,7
8,test,4,0.0,1-Back,1,m,Fri Jan 10 2025 09:58:49 GMT-0500 (Eastern Standard Time),314631.89999961853,063_y_f_n_a.png,I,m,812,9,1,1820.0,312811.89999961853,9007,NNB,A,8
9,test,4,0.0,1-Back,1,m,Fri Jan 10 2025 09:58:49 GMT-0500 (Eastern Standard Time),316515.60000038147,045_m_m_n_a.png,I,m,852,10,1,1871.0,314644.60000038147,9007,NNB,A,9
10,test,4,1.0,1-Back,1,z,Fri Jan 10 2025 09:58:49 GMT-0500 (Eastern Standard Time),318798.80000019073,045_m_m_n_a.png,I,z,1255,11,1,2270.199999809265,316528.60000038147,9007,NNB,A,10
11,test,4,0.0,1-Back,1,m,Fri Jan 10 2025 09:58:49 GMT-0500 (Eastern Standard Time),320582.5,047_o_f_n_a.png,I,m,764,12,1,1768.3999996185303,318814.10000038147,9007,NNB,A,11
12,test,4,0.0,1-Back,1,m,Fri Jan 10 2025 09:58:49 GMT-0500 (Eastern Standard Time),322515.60000038147,053_o_m_n_a.png,I,m,884,13,1,1914.4000005722046,320601.19999980927,9007,NNB,A,12
13,test,4,0.0,1-Back,1,m,Fri Jan 10 2025 09:58:49 GMT-0500 (Eastern Standard Time),324615.19999980927,047_o_f_n_a.png,I,m,1079,14,1,2084.5999994277954,322530.60000038147,9007,NNB,A,13
14,test,4,0.0,1-Back,1,m,Fri Jan 10 2025 09:58:49 GMT-0500 (Eastern Standard Time),326515.60000038147,010_y_f_n_a.png,I,m,869,15,1,1888.0,324627.60000038147,9007,NNB,A,14
15,test,4,1.0,1-Back,1,z,Fri Jan 10 2025 09:58:49 GMT-0500 (Eastern Standard Time),328315.60000038147,010_y_f_n_a.png,I,z,775,16,1,1786.9000005722046,326528.69999980927,9007,NNB,A,15
16,test,4,0.0,1-Back,1,m,Fri Jan 10 2025 09:58:49 GMT-0500 (Eastern Standard Time),330548.69999980927,043_m_f_n_a.png,I,m,1199,17,1,2219.5999994277954,328329.10000038147,9007,NNB,A,16
17,test,4,1.0,1-Back,1,z,Fri Jan 10 2025 09:58:49 GMT-0500 (Eastern Standard Time),332632.19999980927,043_m_f_n_a.png,I,z,1062,18,1,2069.5999994277954,330562.60000038147,9007,NNB,A,17
0,test,5,1.0,1-Back,,,Fri Jan 10 2025 09:58:49 GMT-0500 (Eastern Standard Time),332632.19999980927,053_o_m_n_a.png,I,space,1516,1,1,2069.5999994277954,330562.60000038147,9007,NNB,A,0
1,test,5,1.0,1-Back,1,z,Fri Jan 10 2025 09:58:49 GMT-0500 (Eastern Standard Time),338265.5,053_o_m_n_a.png,I,z,1060,2,1,2069.300000190735,336196.19999980927,9007,NNB,A,1
2,test,5,0.0,1-Back,1,m,Fri Jan 10 2025 09:58:49 GMT-0500 (Eastern Standard Time),340432.0,063_y_f_n_a.png,I,m,1137,3,1,2153.699999809265,338278.30000019073,9007,NNB,A,2
3,test,5,0.0,1-Back,1,m,Fri Jan 10 2025 09:58:49 GMT-0500 (Eastern Standard Time),342565.5,041_y_m_n_a.png,I,m,1099,4,1,2121.0,340444.5,9007,NNB,A,3
4,test,5,0.0,1-Back,1,m,Fri Jan 10 2025 09:58:49 GMT-0500 (Eastern Standard Time),344515.30000019073,063_y_f_n_a.png,I,m,917,5,1,1935.3000001907349,342580.0,9007,NNB,A,4
5,test,5,0.0,1-Back,1,m,Fri Jan 10 2025 09:58:49 GMT-0500 (Eastern Standard Time),346399.10000038147,058_m_m_n_a.png,I,m,856,6,1,1872.9000005722046,344526.19999980927,9007,NNB,A,5
6,test,5,1.0,1-Back,1,z,Fri Jan 10 2025 09:58:49 GMT-0500 (Eastern Standard Time),348232.19999980927,058_m_m_n_a.png,I,z,812,7,1,1819.0999994277954,346413.10000038147,9007,NNB,A,6
7,test,5,0.0,1-Back,1,m,Fri Jan 10 2025 09:58:49 GMT-0500 (Eastern Standard Time),350198.60000038147,010_y_f_n_a.png,I,m,931,8,1,1953.5,348245.10000038147,9007,NNB,A,7
8,test,5,0.0,1-Back,1,m,Fri Jan 10 2025 09:58:49 GMT-0500 (Eastern Standard Time),352082.10000038147,008_y_m_n_a.png,I,m,852,9,1,1871.7000007629395,350210.39999961853,9007,NNB,A,8
9,test,5,0.0,1-Back,1,m,Fri Jan 10 2025 09:58:49 GMT-0500 (Eastern Standard Time),354498.89999961853,010_y_f_n_a.png,I,m,1384,10,1,2402.699999809265,352096.19999980927,9007,NNB,A,9
10,test,5,0.0,1-Back,1,m,Fri Jan 10 2025 09:58:49 GMT-0500 (Eastern Standard Time),356365.5,047_o_f_n_a.png,I,m,840,11,1,1852.1000003814697,354513.39999961853,9007,NNB,A,10
11,test,5,1.0,1-Back,1,z,Fri Jan 10 2025 09:58:49 GMT-0500 (Eastern Standard Time),358382.30000019073,047_o_f_n_a.png,I,z,991,12,1,2002.9000005722046,356379.39999961853,9007,NNB,A,11
12,test,5,0.0,1-Back,1,m,Fri Jan 10 2025 09:58:49 GMT-0500 (Eastern Standard Time),360349.0,046_o_m_n_a.png,I,m,940,13,1,1954.0,358395.0,9007,NNB,A,12
13,test,5,0.0,1-Back,1,m,Fri Jan 10 2025 09:58:49 GMT-0500 (Eastern Standard Time),362915.60000038147,050_m_f_n_a.png,I,m,1517,14,1,2549.6000003814697,360366.0,9007,NNB,A,13
14,test,5,1.0,1-Back,1,z,Fri Jan 10 2025 09:58:49 GMT-0500 (Eastern Standard Time),364698.60000038147,050_m_f_n_a.png,I,z,758,15,1,1769.0,362929.60000038147,9007,NNB,A,14
15,test,5,0.0,1-Back,1,m,Fri Jan 10 2025 09:58:49 GMT-0500 (Eastern Standard Time),366498.89999961853,046_o_m_n_a.png,I,m,769,16,1,1790.0,364708.89999961853,9007,NNB,A,15
16,test,5,0.0,1-Back,1,m,Fri Jan 10 2025 09:58:49 GMT-0500 (Eastern Standard Time),368332.0,043_m_f_n_a.png,I,m,791,17,1,1816.6000003814697,366515.39999961853,9007,NNB,A,16
17,test,5,0.0,1-Back,1,m,Fri Jan 10 2025 09:58:49 GMT-0500 (Eastern Standard Time),370132.30000019073,045_m_m_n_a.png,I,m,768,18,1,1788.9000005722046,368343.39999961853,9007,NNB,A,17
0,prac,1,0.0,2-Back,,,Fri Jan 10 2025 09:58:49 GMT-0500 (Eastern Standard Time),370132.30000019073,008_y_m_n_a.png,I,space,10910,1,1,1788.9000005722046,368343.39999961853,9007,NNB,A,0
0,prac,1,0.0,2-Back,,,Fri Jan 10 2025 09:58:49 GMT-0500 (Eastern Standard Time),370132.30000019073,043_m_f_n_a.png,I,space,10910,2,1,1788.9000005722046,368343.39999961853,9007,NNB,A,0
0,prac,1,1.0,2-Back,0,m,Fri Jan 10 2025 09:58:49 GMT-0500 (Eastern Standard Time),570732.3999996185,046_o_m_n_a.png,I,None,2010,3,1,2885.0999994277954,567847.3000001907,9007,NNB,A,1
0,prac,1,0.0,2-Back,0,m,Fri Jan 10 2025 09:58:49 GMT-0500 (Eastern Standard Time),573715.3999996185,047_o_f_n_a.png,I,None,2012,4,1,2967.0,570748.3999996185,9007,NNB,A,2
1,prac,1,0.0,2-Back,1,z,Fri Jan 10 2025 09:58:49 GMT-0500 (Eastern Standard Time),576165.6999998093,046_o_m_n_a.png,I,z,1486,5,1,2435.0,573730.6999998093,9007,NNB,A,3
2,prac,1,1.0,2-Back,1,z,Fri Jan 10 2025 09:58:49 GMT-0500 (Eastern Standard Time),578715.6999998093,047_o_f_n_a.png,I,z,1613,6,1,2533.8999996185303,576181.8000001907,9007,NNB,A,4
3,prac,1,0.0,2-Back,1,m,Fri Jan 10 2025 09:58:49 GMT-0500 (Eastern Standard Time),580782.6999998093,045_m_m_n_a.png,I,m,1193,7,1,2052.0999994277954,578730.6000003815,9007,NNB,A,5
3,prac,1,0.0,2-Back,0,m,Fri Jan 10 2025 09:58:49 GMT-0500 (Eastern Standard Time),583182.1999998093,053_o_m_n_a.png,I,z,1544,8,1,2379.699999809265,580802.5,9007,NNB,A,6
3,prac,1,0.0,2-Back,0,m,Fri Jan 10 2025 09:58:49 GMT-0500 (Eastern Standard Time),585783.1999998093,010_y_f_n_a.png,I,z,1654,9,1,2586.0999994277954,583197.1000003815,9007,NNB,A,7
3,prac,1,1.0,2-Back,0,z,Fri Jan 10 2025 09:58:49 GMT-0500 (Eastern Standard Time),588199.1999998093,053_o_m_n_a.png,I,m,1630,10,1,2400.0,585799.1999998093,9007,NNB,A,8
3,prac,1,0.0,2-Back,0,m,Fri Jan 10 2025 09:58:49 GMT-0500 (Eastern Standard Time),590665.8000001907,063_y_f_n_a.png,I,z,1547,11,1,2449.5,588216.3000001907,9007,NNB,A,9
3,prac,1,0.0,2-Back,0,m,Fri Jan 10 2025 09:58:49 GMT-0500 (Eastern Standard Time),592865.6999998093,045_m_m_n_a.png,I,z,1361,12,1,2181.300000190735,590684.3999996185,9007,NNB,A,10
0,prac,2,0.0,2-Back,,,Fri Jan 10 2025 09:58:49 GMT-0500 (Eastern Standard Time),592865.6999998093,008_y_m_n_a.png,I,a,8315,1,1,2181.300000190735,590684.3999996185,9007,NNB,A,0
0,prac,2,0.0,2-Back,,,Fri Jan 10 2025 09:58:49 GMT-0500 (Eastern Standard Time),592865.6999998093,043_m_f_n_a.png,I,a,8315,2,1,2181.300000190735,590684.3999996185,9007,NNB,A,0
0,prac,2,1.0,2-Back,0,m,Fri Jan 10 2025 09:58:49 GMT-0500 (Eastern Standard Time),607482.1000003815,046_o_m_n_a.png,I,z,6,3,1,817.9000005722046,606664.1999998093,9007,NNB,A,1
0,prac,2,0.0,2-Back,0,m,Fri Jan 10 2025 09:58:49 GMT-0500 (Eastern Standard Time),610365.6999998093,047_o_f_n_a.png,I,None,2011,4,1,2871.3999996185303,607494.3000001907,9007,NNB,A,2
0,prac,2,0.0,2-Back,0,z,Fri Jan 10 2025 09:58:49 GMT-0500 (Eastern Standard Time),613165.3999996185,046_o_m_n_a.png,I,None,2015,5,1,2783.8999996185303,610381.5,9007,NNB,A,3
1,prac,2,1.0,2-Back,1,z,Fri Jan 10 2025 09:58:49 GMT-0500 (Eastern Standard Time),615349.6000003815,047_o_f_n_a.png,I,z,1386,6,1,2171.4000005722046,613178.1999998093,9007,NNB,A,4
2,prac,2,0.0,2-Back,1,m,Fri Jan 10 2025 09:58:49 GMT-0500 (Eastern Standard Time),617482.8000001907,045_m_m_n_a.png,I,m,1344,7,1,2119.1000003814697,615363.6999998093,9007,NNB,A,5
3,prac,2,0.0,2-Back,1,m,Fri Jan 10 2025 09:58:49 GMT-0500 (Eastern Standard Time),619315.8999996185,053_o_m_n_a.png,I,m,993,8,1,1818.1999998092651,617497.6999998093,9007,NNB,A,6
4,prac,2,0.0,2-Back,1,m,Fri Jan 10 2025 09:58:49 GMT-0500 (Eastern Standard Time),620932.1999998093,010_y_f_n_a.png,I,m,734,9,1,1600.3999996185303,619331.8000001907,9007,NNB,A,7
4,prac,2,1.0,2-Back,0,z,Fri Jan 10 2025 09:58:49 GMT-0500 (Eastern Standard Time),622666.0,053_o_m_n_a.png,I,m,946,10,1,1719.8999996185303,620946.1000003815,9007,NNB,A,8
5,prac,2,0.0,2-Back,1,m,Fri Jan 10 2025 09:58:49 GMT-0500 (Eastern Standard Time),624966.0,063_y_f_n_a.png,I,m,1434,11,1,2285.8999996185303,622680.1000003815,9007,NNB,A,9
6,prac,2,0.0,2-Back,1,m,Fri Jan 10 2025 09:58:49 GMT-0500 (Eastern Standard Time),626966.0,045_m_m_n_a.png,I,m,1214,12,1,1982.6999998092651,624983.3000001907,9007,NNB,A,10
0,test,1,0.0,2-Back,,,Fri Jan 10 2025 09:58:49 GMT-0500 (Eastern Standard Time),626966.0,041_y_m_n_a.png,I,space,7463,1,1,1982.6999998092651,624983.3000001907,9007,NNB,A,0
0,test,1,0.0,2-Back,,,Fri Jan 10 2025 09:58:49 GMT-0500 (Eastern Standard Time),626966.0,041_y_m_n_a.png,I,space,7463,2,1,1982.6999998092651,624983.3000001907,9007,NNB,A,0
0,test,1,0.0,2-Back,0,m,Fri Jan 10 2025 09:58:49 GMT-0500 (Eastern Standard Time),684149.3000001907,047_o_f_n_a.png,I,z,1416,3,1,2437.5,681711.8000001907,9007,NNB,A,1
0,test,1,0.0,2-Back,0,m,Fri Jan 10 2025 09:58:49 GMT-0500 (Eastern Standard Time),687182.8999996185,058_m_m_n_a.png,I,None,2013,4,1,3018.0,684164.8999996185,9007,NNB,A,2
0,test,1,1.0,2-Back,0,z,Fri Jan 10 2025 09:58:49 GMT-0500 (Eastern Standard Time),689665.8000001907,047_o_f_n_a.png,I,m,1452,5,1,2469.5,687196.3000001907,9007,NNB,A,3
1,test,1,0.0,2-Back,1,m,Fri Jan 10 2025 09:58:49 GMT-0500 (Eastern Standard Time),692315.5,063_y_f_n_a.png,I,m,1626,6,1,2635.3999996185303,689680.1000003815,9007,NNB,A,4
1,test,1,0.0,2-Back,0,m,Fri Jan 10 2025 09:58:49 GMT-0500 (Eastern Standard Time),694832.3000001907,058_m_m_n_a.png,I,z,1487,7,1,2505.699999809265,692326.6000003815,9007,NNB,A,5
1,test,1,1.0,2-Back,0,z,Fri Jan 10 2025 09:58:49 GMT-0500 (Eastern Standard Time),697466.0,063_y_f_n_a.png,I,m,1612,8,1,2621.3999996185303,694844.6000003815,9007,NNB,A,6
2,test,1,0.0,2-Back,1,m,Fri Jan 10 2025 09:58:49 GMT-0500 (Eastern Standard Time),699899.3000001907,008_y_m_n_a.png,I,m,1409,9,1,2419.5,697479.8000001907,9007,NNB,A,7
3,test,1,0.0,2-Back,1,m,Fri Jan 10 2025 09:58:49 GMT-0500 (Eastern Standard Time),702166.1000003815,044_o_f_n_a.png,I,m,1232,10,1,2251.2000007629395,699914.8999996185,9007,NNB,A,8
3,test,1,1.0,2-Back,0,z,Fri Jan 10 2025 09:58:49 GMT-0500 (Eastern Standard Time),704582.6999998093,008_y_m_n_a.png,I,m,1397,11,1,2403.0999994277954,702179.6000003815,9007,NNB,A,9
3,test,1,0.0,2-Back,0,m,Fri Jan 10 2025 09:58:49 GMT-0500 (Eastern Standard Time),706849.0,043_m_f_n_a.png,I,z,1237,12,1,2253.300000190735,704595.6999998093,9007,NNB,A,10
4,test,1,0.0,2-Back,1,m,Fri Jan 10 2025 09:58:49 GMT-0500 (Eastern Standard Time),709099.3000001907,043_m_f_n_a.png,I,m,1226,13,1,2238.699999809265,706860.6000003815,9007,NNB,A,11
5,test,1,0.0,2-Back,1,m,Fri Jan 10 2025 09:58:49 GMT-0500 (Eastern Standard Time),711582.6999998093,046_o_m_n_a.png,I,m,1456,14,1,2468.8999996185303,709113.8000001907,9007,NNB,A,12
5,test,1,0.0,2-Back,0,m,Fri Jan 10 2025 09:58:49 GMT-0500 (Eastern Standard Time),714082.5,044_o_f_n_a.png,I,z,1469,15,1,2485.6000003814697,711596.8999996185,9007,NNB,A,13
6,test,1,1.0,2-Back,1,z,Fri Jan 10 2025 09:58:49 GMT-0500 (Eastern Standard Time),716615.8000001907,046_o_m_n_a.png,I,z,1513,16,1,2519.9000005722046,714095.8999996185,9007,NNB,A,14
6,test,1,0.0,2-Back,0,m,Fri Jan 10 2025 09:58:49 GMT-0500 (Eastern Standard Time),718682.5,050_m_f_n_a.png,I,z,1043,17,1,2053.199999809265,716629.3000001907,9007,NNB,A,15
7,test,1,0.0,2-Back,1,m,Fri Jan 10 2025 09:58:49 GMT-0500 (Eastern Standard Time),721116.0,045_m_m_n_a.png,I,m,1409,18,1,2419.8999996185303,718696.1000003815,9007,NNB,A,16
0,test,2,0.0,2-Back,,,Fri Jan 10 2025 09:58:49 GMT-0500 (Eastern Standard Time),721116.0,045_m_m_n_a.png,I,space,4073,1,1,2419.8999996185303,718696.1000003815,9007,NNB,A,0
0,test,2,0.0,2-Back,,,Fri Jan 10 2025 09:58:49 GMT-0500 (Eastern Standard Time),721116.0,010_y_f_n_a.png,I,space,4073,2,1,2419.8999996185303,718696.1000003815,9007,NNB,A,0
0,test,2,1.0,2-Back,0,z,Fri Jan 10 2025 09:58:49 GMT-0500 (Eastern Standard Time),733366.0,045_m_m_n_a.png,I,None,2014,3,1,3019.300000190735,730346.6999998093,9007,NNB,A,1
0,test,2,0.0,2-Back,0,m,Fri Jan 10 2025 09:58:49 GMT-0500 (Eastern Standard Time),735982.6000003815,050_m_f_n_a.png,I,z,1590,4,1,2603.7000007629395,733378.8999996185,9007,NNB,A,2
1,test,2,0.0,2-Back,1,m,Fri Jan 10 2025 09:58:49 GMT-0500 (Eastern Standard Time),738882.6000003815,010_y_f_n_a.png,I,m,1869,5,1,2885.6000003814697,735997.0,9007,NNB,A,3
1,test,2,0.0,2-Back,0,m,Fri Jan 10 2025 09:58:49 GMT-0500 (Eastern Standard Time),741899.3000001907,046_o_m_n_a.png,I,z,1992,6,1,3002.1000003814697,738897.1999998093,9007,NNB,A,4
2,test,2,0.0,2-Back,1,m,Fri Jan 10 2025 09:58:49 GMT-0500 (Eastern Standard Time),744382.3999996185,063_y_f_n_a.png,I,m,1457,7,1,2469.0,741913.3999996185,9007,NNB,A,5
2,test,2,1.0,2-Back,0,z,Fri Jan 10 2025 09:58:49 GMT-0500 (Eastern Standard Time),746715.8000001907,046_o_m_n_a.png,I,m,1311,8,1,2320.300000190735,744395.5,9007,NNB,A,6
2,test,2,0.0,2-Back,0,m,Fri Jan 10 2025 09:58:49 GMT-0500 (Eastern Standard Time),749115.8999996185,008_y_m_n_a.png,I,z,1358,9,1,2383.0999994277954,746732.8000001907,9007,NNB,A,7
2,test,2,0.0,2-Back,0,m,Fri Jan 10 2025 09:58:49 GMT-0500 (Eastern Standard Time),751165.6999998093,008_y_m_n_a.png,I,z,1024,10,1,2036.0999994277954,749129.6000003815,9007,NNB,A,8
2,test,2,0.0,2-Back,0,m,Fri Jan 10 2025 09:58:49 GMT-0500 (Eastern Standard Time),754199.6000003815,043_m_f_n_a.png,I,None,2015,11,1,3022.4000005722046,751177.1999998093,9007,NNB,A,9
3,test,2,0.0,2-Back,1,m,Fri Jan 10 2025 09:58:49 GMT-0500 (Eastern Standard Time),756732.6999998093,010_y_f_n_a.png,I,m,1508,12,1,2518.0999994277954,754214.6000003815,9007,NNB,A,10
4,test,2,1.0,2-Back,1,z,Fri Jan 10 2025 09:58:49 GMT-0500 (Eastern Standard Time),758932.3999996185,043_m_f_n_a.png,I,z,1166,13,1,2187.0,756745.3999996185,9007,NNB,A,11
5,test,2,0.0,2-Back,1,m,Fri Jan 10 2025 09:58:49 GMT-0500 (Eastern Standard Time),761832.5,053_o_m_n_a.png,I,m,1881,14,1,2887.6000003814697,758944.8999996185,9007,NNB,A,12
5,test,2,0.0,2-Back,0,m,Fri Jan 10 2025 09:58:49 GMT-0500 (Eastern Standard Time),764582.3000001907,053_o_m_n_a.png,I,z,1730,15,1,2736.0,761846.3000001907,9007,NNB,A,13
5,test,2,0.0,2-Back,0,m,Fri Jan 10 2025 09:58:49 GMT-0500 (Eastern Standard Time),767616.1999998093,044_o_f_n_a.png,I,None,2016,16,1,3023.5999994277954,764592.6000003815,9007,NNB,A,14
5,test,2,0.0,2-Back,0,m,Fri Jan 10 2025 09:58:49 GMT-0500 (Eastern Standard Time),770332.8000001907,058_m_m_n_a.png,I,z,1691,17,1,2702.699999809265,767630.1000003815,9007,NNB,A,15
6,test,2,1.0,2-Back,1,z,Fri Jan 10 2025 09:58:49 GMT-0500 (Eastern Standard Time),773132.8000001907,044_o_f_n_a.png,I,z,1776,18,1,2786.300000190735,770346.5,9007,NNB,A,16
0,test,3,1.0,2-Back,,,Fri Jan 10 2025 09:58:49 GMT-0500 (Eastern Standard Time),773132.8000001907,041_y_m_n_a.png,I,space,1751,1,1,2786.300000190735,770346.5,9007,NNB,A,0
0,test,3,1.0,2-Back,,,Fri Jan 10 2025 09:58:49 GMT-0500 (Eastern Standard Time),773132.8000001907,041_y_m_n_a.png,I,space,1751,2,1,2786.300000190735,770346.5,9007,NNB,A,0
0,test,3,0.0,2-Back,0,m,Fri Jan 10 2025 09:58:49 GMT-0500 (Eastern Standard Time),783015.6000003815,044_o_f_n_a.png,I,None,2013,3,1,3019.800000190735,779995.8000001907,9007,NNB,A,1
1,test,3,0.0,2-Back,1,m,Fri Jan 10 2025 09:58:49 GMT-0500 (Eastern Standard Time),785682.6999998093,045_m_m_n_a.png,I,m,1636,4,1,2654.5,783028.1999998093,9007,NNB,A,2
1,test,3,1.0,2-Back,0,z,Fri Jan 10 2025 09:58:49 GMT-0500 (Eastern Standard Time),788716.0,044_o_f_n_a.png,I,None,2014,5,1,3018.800000190735,785697.1999998093,9007,NNB,A,3
1,test,3,0.0,2-Back,0,m,Fri Jan 10 2025 09:58:49 GMT-0500 (Eastern Standard Time),791165.8999996185,008_y_m_n_a.png,I,z,1424,6,1,2435.8999996185303,788730.0,9007,NNB,A,4
2,test,3,0.0,2-Back,1,m,Fri Jan 10 2025 09:58:49 GMT-0500 (Eastern Standard Time),793666.0,045_m_m_n_a.png,I,m,1470,7,1,2486.1000003814697,791179.8999996185,9007,NNB,A,5
3,test,3,1.0,2-Back,1,z,Fri Jan 10 2025 09:58:49 GMT-0500 (Eastern Standard Time),795932.6999998093,008_y_m_n_a.png,I,z,1242,8,1,2251.800000190735,793680.8999996185,9007,NNB,A,6
3,test,3,0.0,2-Back,0,m,Fri Jan 10 2025 09:58:49 GMT-0500 (Eastern Standard Time),798966.1000003815,010_y_f_n_a.png,I,None,2014,9,1,3019.6000003814697,795946.5,9007,NNB,A,7
3,test,3,0.0,2-Back,0,m,Fri Jan 10 2025 09:58:49 GMT-0500 (Eastern Standard Time),801999.3000001907,058_m_m_n_a.png,I,None,2014,10,1,3019.800000190735,798979.5,9007,NNB,A,8
3,test,3,1.0,2-Back,0,z,Fri Jan 10 2025 09:58:49 GMT-0500 (Eastern Standard Time),804499.5,010_y_f_n_a.png,I,m,1468,11,1,2484.699999809265,802014.8000001907,9007,NNB,A,9
4,test,3,1.0,2-Back,1,z,Fri Jan 10 2025 09:58:49 GMT-0500 (Eastern Standard Time),807332.8000001907,058_m_m_n_a.png,I,z,1802,12,1,2819.9000005722046,804512.8999996185,9007,NNB,A,10
4,test,3,0.0,2-Back,0,m,Fri Jan 10 2025 09:58:49 GMT-0500 (Eastern Standard Time),810365.8999996185,044_o_f_n_a.png,I,None,2014,13,1,3017.699999809265,807348.1999998093,9007,NNB,A,11
5,test,3,0.0,2-Back,1,m,Fri Jan 10 2025 09:58:49 GMT-0500 (Eastern Standard Time),813282.3999996185,050_m_f_n_a.png,I,m,1885,14,1,2903.199999809265,810379.1999998093,9007,NNB,A,12
6,test,3,0.0,2-Back,1,m,Fri Jan 10 2025 09:58:49 GMT-0500 (Eastern Standard Time),815682.8999996185,046_o_m_n_a.png,I,m,1369,15,1,2390.0999994277954,813292.8000001907,9007,NNB,A,13
7,test,3,1.0,2-Back,1,z,Fri Jan 10 2025 09:58:49 GMT-0500 (Eastern Standard Time),818266.0,050_m_f_n_a.png,I,z,1561,16,1,2569.199999809265,815696.8000001907,9007,NNB,A,14
7,test,3,0.0,2-Back,0,m,Fri Jan 10 2025 09:58:49 GMT-0500 (Eastern Standard Time),821049.3999996185,047_o_f_n_a.png,I,z,1763,17,1,2769.5999994277954,818279.8000001907,9007,NNB,A,15
8,test,3,0.0,2-Back,1,m,Fri Jan 10 2025 09:58:49 GMT-0500 (Eastern Standard Time),823799.3000001907,047_o_f_n_a.png,I,m,1714,18,1,2736.0,821063.3000001907,9007,NNB,A,16
0,test,4,0.0,2-Back,,,Fri Jan 10 2025 09:58:49 GMT-0500 (Eastern Standard Time),823799.3000001907,053_o_m_n_a.png,I,space,1950,1,1,2736.0,821063.3000001907,9007,NNB,A,0
0,test,4,0.0,2-Back,,,Fri Jan 10 2025 09:58:49 GMT-0500 (Eastern Standard Time),823799.3000001907,063_y_f_n_a.png,I,space,1950,2,1,2736.0,821063.3000001907,9007,NNB,A,0
1,test,4,1.0,2-Back,1,z,Fri Jan 10 2025 09:58:49 GMT-0500 (Eastern Standard Time),833766.1999998093,053_o_m_n_a.png,I,z,1815,3,1,2836.5999994277954,830929.6000003815,9007,NNB,A,1
2,test,4,1.0,2-Back,1,z,Fri Jan 10 2025 09:58:49 GMT-0500 (Eastern Standard Time),836332.8999996185,063_y_f_n_a.png,I,z,1542,4,1,2552.5,833780.3999996185,9007,NNB,A,2
2,test,4,0.0,2-Back,0,m,Fri Jan 10 2025 09:58:49 GMT-0500 (Eastern Standard Time),839249.3999996185,044_o_f_n_a.png,I,z,1887,5,1,2902.5,836346.8999996185,9007,NNB,A,3
2,test,4,0.0,2-Back,0,m,Fri Jan 10 2025 09:58:49 GMT-0500 (Eastern Standard Time),841565.6999998093,044_o_f_n_a.png,I,z,1272,6,1,2300.5,839265.1999998093,9007,NNB,A,4
2,test,4,0.0,2-Back,0,m,Fri Jan 10 2025 09:58:49 GMT-0500 (Eastern Standard Time),844266.1999998093,043_m_f_n_a.png,I,z,1678,7,1,2690.5999994277954,841575.6000003815,9007,NNB,A,5
2,test,4,0.0,2-Back,0,m,Fri Jan 10 2025 09:58:49 GMT-0500 (Eastern Standard Time),846466.1999998093,008_y_m_n_a.png,I,z,1170,8,1,2185.5999994277954,844280.6000003815,9007,NNB,A,6
3,test,4,1.0,2-Back,1,z,Fri Jan 10 2025 09:58:49 GMT-0500 (Eastern Standard Time),848982.8999996185,043_m_f_n_a.png,I,z,1482,9,1,2503.199999809265,846479.6999998093,9007,NNB,A,7
3,test,4,0.0,2-Back,0,m,Fri Jan 10 2025 09:58:49 GMT-0500 (Eastern Standard Time),851082.6999998093,058_m_m_n_a.png,I,z,1077,10,1,2085.699999809265,848997.0,9007,NNB,A,8
3,test,4,0.0,2-Back,0,m,Fri Jan 10 2025 09:58:49 GMT-0500 (Eastern Standard Time),853149.6000003815,008_y_m_n_a.png,I,z,1041,11,1,2053.5,851096.1000003815,9007,NNB,A,9
3,test,4,0.0,2-Back,0,m,Fri Jan 10 2025 09:58:49 GMT-0500 (Eastern Standard Time),855266.1000003815,047_o_f_n_a.png,I,z,1086,12,1,2102.300000190735,853163.8000001907,9007,NNB,A,10
3,test,4,0.0,2-Back,0,m,Fri Jan 10 2025 09:58:49 GMT-0500 (Eastern Standard Time),857432.6000003815,041_y_m_n_a.png,I,z,1146,13,1,2152.800000190735,855279.8000001907,9007,NNB,A,11
3,test,4,1.0,2-Back,0,z,Fri Jan 10 2025 09:58:49 GMT-0500 (Eastern Standard Time),859932.8999996185,047_o_f_n_a.png,I,m,1458,14,1,2482.3999996185303,857450.5,9007,NNB,A,12
4,test,4,1.0,2-Back,1,z,Fri Jan 10 2025 09:58:49 GMT-0500 (Eastern Standard Time),862299.3000001907,041_y_m_n_a.png,I,z,1342,15,1,2352.1000003814697,859947.1999998093,9007,NNB,A,13
5,test,4,0.0,2-Back,1,m,Fri Jan 10 2025 09:58:49 GMT-0500 (Eastern Standard Time),864716.1999998093,045_m_m_n_a.png,I,m,1394,16,1,2402.5,862313.6999998093,9007,NNB,A,14
5,test,4,0.0,2-Back,0,m,Fri Jan 10 2025 09:58:49 GMT-0500 (Eastern Standard Time),867749.6000003815,050_m_f_n_a.png,I,None,2014,17,1,3019.6000003814697,864730.0,9007,NNB,A,15
5,test,4,1.0,2-Back,0,z,Fri Jan 10 2025 09:58:49 GMT-0500 (Eastern Standard Time),869966.0,045_m_m_n_a.png,I,m,1190,18,1,2203.1000003814697,867762.8999996185,9007,NNB,A,16
0,test,5,1.0,2-Back,,,Fri Jan 10 2025 09:58:49 GMT-0500 (Eastern Standard Time),869966.0,041_y_m_n_a.png,I,space,1527,1,1,2203.1000003814697,867762.8999996185,9007,NNB,A,0
0,test,5,1.0,2-Back,,,Fri Jan 10 2025 09:58:49 GMT-0500 (Eastern Standard Time),869966.0,050_m_f_n_a.png,I,space,1527,2,1,2203.1000003814697,867762.8999996185,9007,NNB,A,0
0,test,5,1.0,2-Back,0,z,Fri Jan 10 2025 09:58:49 GMT-0500 (Eastern Standard Time),879649.3999996185,041_y_m_n_a.png,I,None,2014,3,1,3019.199999809265,876630.1999998093,9007,NNB,A,1
1,test,5,1.0,2-Back,1,z,Fri Jan 10 2025 09:58:49 GMT-0500 (Eastern Standard Time),882182.5,050_m_f_n_a.png,I,z,1498,4,1,2519.199999809265,879663.3000001907,9007,NNB,A,2
2,test,5,0.0,2-Back,1,m,Fri Jan 10 2025 09:58:49 GMT-0500 (Eastern Standard Time),884582.8999996185,047_o_f_n_a.png,I,m,1365,5,1,2385.7999992370605,882197.1000003815,9007,NNB,A,3
2,test,5,0.0,2-Back,0,m,Fri Jan 10 2025 09:58:49 GMT-0500 (Eastern Standard Time),887232.8000001907,041_y_m_n_a.png,I,z,1605,6,1,2631.699999809265,884601.1000003815,9007,NNB,A,4
2,test,5,0.0,2-Back,0,m,Fri Jan 10 2025 09:58:49 GMT-0500 (Eastern Standard Time),889799.6000003815,010_y_f_n_a.png,I,z,1531,7,1,2553.0,887246.6000003815,9007,NNB,A,5
3,test,5,0.0,2-Back,1,m,Fri Jan 10 2025 09:58:49 GMT-0500 (Eastern Standard Time),892499.3999996185,047_o_f_n_a.png,I,m,1668,8,1,2684.5999994277954,889814.8000001907,9007,NNB,A,6
3,test,5,1.0,2-Back,0,z,Fri Jan 10 2025 09:58:49 GMT-0500 (Eastern Standard Time),895249.6000003815,010_y_f_n_a.png,I,m,1720,9,1,2736.300000190735,892513.3000001907,9007,NNB,A,7
3,test,5,0.0,2-Back,0,m,Fri Jan 10 2025 09:58:49 GMT-0500 (Eastern Standard Time),897666.1999998093,046_o_m_n_a.png,I,z,1386,10,1,2403.0999994277954,895263.1000003815,9007,NNB,A,8
3,test,5,0.0,2-Back,0,m,Fri Jan 10 2025 09:58:49 GMT-0500 (Eastern Standard Time),899698.8999996185,043_m_f_n_a.png,I,z,1001,11,1,2018.5,897680.3999996185,9007,NNB,A,9
3,test,5,0.0,2-Back,0,m,Fri Jan 10 2025 09:58:49 GMT-0500 (Eastern Standard Time),902298.8999996185,058_m_m_n_a.png,I,z,1577,12,1,2589.2999992370605,899709.6000003815,9007,NNB,A,10
3,test,5,0.0,2-Back,0,m,Fri Jan 10 2025 09:58:49 GMT-0500 (Eastern Standard Time),904432.8000001907,046_o_m_n_a.png,I,z,1105,13,1,2122.9000005722046,902309.8999996185,9007,NNB,A,11
4,test,5,1.0,2-Back,1,z,Fri Jan 10 2025 09:58:49 GMT-0500 (Eastern Standard Time),905999.5,058_m_m_n_a.png,I,z,539,14,1,1554.1000003814697,904445.3999996185,9007,NNB,A,12
4,test,5,0.0,2-Back,0,m,Fri Jan 10 2025 09:58:49 GMT-0500 (Eastern Standard Time),908032.1000003815,063_y_f_n_a.png,I,z,1006,15,1,2019.0,906013.1000003815,9007,NNB,A,13
4,test,5,0.0,2-Back,0,m,Fri Jan 10 2025 09:58:49 GMT-0500 (Eastern Standard Time),910666.3000001907,053_o_m_n_a.png,I,z,1611,16,1,2624.0,908042.3000001907,9007,NNB,A,14
4,test,5,0.0,2-Back,0,m,Fri Jan 10 2025 09:58:49 GMT-0500 (Eastern Standard Time),912516.3999996185,043_m_f_n_a.png,I,z,818,17,1,1836.0999994277954,910680.3000001907,9007,NNB,A,15
5,test,5,1.0,2-Back,1,z,Fri Jan 10 2025 09:58:49 GMT-0500 (Eastern Standard Time),914316.1000003815,053_o_m_n_a.png,I,z,776,18,1,1785.7000007629395,912530.3999996185,9007,NNB,A,16
