acc_sum,block,block_c,change,condition,correct,correct_response,datetime,endtime,face,project,response,response_time,row_sel,session_number,start_end,starttime,subject_id,task,task_vers,trial
0,prac,1,,1-Back,,,Thu Apr 03 2025 15:28:32 GMT-0500 (Central Daylight Time),,093_m_f_n_a.png,O,space,5675,1,1,,,7110,NNB,C,0
0,prac,1,0.0,1-Back,0,m,Thu Apr 03 2025 15:28:32 GMT-0500 (Central Daylight Time),120201.20000000298,098_y_f_n_a.png,O,z,805,2,1,1655.6000000014901,118545.60000000149,7110,NNB,C,1
0,prac,1,1.0,1-Back,0,z,Thu Apr 03 2025 15:28:32 GMT-0500 (Central Daylight Time),122121.20000000298,098_y_f_n_a.png,O,m,1147,3,1,1908.8999999985099,120212.30000000447,7110,NNB,C,2
1,prac,1,0.0,1-Back,1,m,Thu Apr 03 2025 15:28:32 GMT-0500 (Central Daylight Time),124184.20000000298,059_o_m_n_a.png,O,m,1182,4,1,2054.2000000029802,122130.0,7110,NNB,C,3
2,prac,1,0.0,1-Back,1,m,Thu Apr 03 2025 15:28:32 GMT-0500 (Central Daylight Time),126053.10000000149,092_m_m_n_a.png,O,m,1000,5,1,1858.2999999970198,124194.80000000447,7110,NNB,C,4
3,prac,1,1.0,1-Back,1,z,Thu Apr 03 2025 15:28:32 GMT-0500 (Central Daylight Time),127417.10000000149,092_m_m_n_a.png,O,z,582,6,1,1358.0,126059.10000000149,7110,NNB,C,5
3,prac,1,0.0,1-Back,0,m,Thu Apr 03 2025 15:28:32 GMT-0500 (Central Daylight Time),129381.70000000298,130_o_f_n_a.png,O,z,1085,7,1,1955.5,127426.20000000298,7110,NNB,C,6
4,prac,1,0.0,1-Back,1,m,Thu Apr 03 2025 15:28:32 GMT-0500 (Central Daylight Time),132099.6000000015,082_m_m_n_a.png,O,m,1842,8,1,2708.2999999970198,129391.30000000447,7110,NNB,C,7
5,prac,1,0.0,1-Back,1,m,Thu Apr 03 2025 15:28:32 GMT-0500 (Central Daylight Time),134098.70000000298,093_m_f_n_a.png,O,m,1145,9,1,1989.1000000014901,132109.6000000015,7110,NNB,C,8
6,prac,1,1.0,1-Back,1,z,Thu Apr 03 2025 15:28:32 GMT-0500 (Central Daylight Time),135847.6000000015,093_m_f_n_a.png,O,z,956,10,1,1740.2000000029802,134107.3999999985,7110,NNB,C,9
7,prac,1,0.0,1-Back,1,m,Thu Apr 03 2025 15:28:32 GMT-0500 (Central Daylight Time),137680.6000000015,059_o_m_n_a.png,O,m,1049,11,1,1823.8999999985099,135856.70000000298,7110,NNB,C,10
8,prac,1,0.0,1-Back,1,m,Thu Apr 03 2025 15:28:32 GMT-0500 (Central Daylight Time),139463.80000000447,028_y_f_n_a.png,O,m,916,12,1,1775.3000000044703,137688.5,7110,NNB,C,11
0,test,1,0.0,1-Back,,,Thu Apr 03 2025 15:28:32 GMT-0500 (Central Daylight Time),139463.80000000447,098_y_f_n_a.png,O,space,12850,1,1,1775.3000000044703,137688.5,7110,NNB,C,0
1,test,1,0.0,1-Back,1,m,Thu Apr 03 2025 15:28:32 GMT-0500 (Central Daylight Time),162621.6000000015,006_m_f_n_a.png,O,m,543,2,1,1557.6000000014901,161064.0,7110,NNB,C,1
2,test,1,0.0,1-Back,1,m,Thu Apr 03 2025 15:28:32 GMT-0500 (Central Daylight Time),164603.30000000447,028_y_f_n_a.png,O,m,953,3,1,1975.5,162627.80000000447,7110,NNB,C,2
3,test,1,1.0,1-Back,1,z,Thu Apr 03 2025 15:28:32 GMT-0500 (Central Daylight Time),166004.20000000298,028_y_f_n_a.png,O,z,382,4,1,1393.8000000044703,164610.3999999985,7110,NNB,C,3
4,test,1,0.0,1-Back,1,m,Thu Apr 03 2025 15:28:32 GMT-0500 (Central Daylight Time),168170.6000000015,006_m_f_n_a.png,O,m,1141,5,1,2158.5,166012.1000000015,7110,NNB,C,4
5,test,1,0.0,1-Back,1,m,Thu Apr 03 2025 15:28:32 GMT-0500 (Central Daylight Time),169903.5,059_o_m_n_a.png,O,m,702,6,1,1725.8999999985099,168177.6000000015,7110,NNB,C,5
6,test,1,1.0,1-Back,1,z,Thu Apr 03 2025 15:28:32 GMT-0500 (Central Daylight Time),171586.30000000447,059_o_m_n_a.png,O,z,666,7,1,1676.2000000029802,169910.1000000015,7110,NNB,C,6
7,test,1,0.0,1-Back,1,m,Thu Apr 03 2025 15:28:32 GMT-0500 (Central Daylight Time),173451.8999999985,092_m_m_n_a.png,O,m,846,8,1,1858.7999999970198,171593.1000000015,7110,NNB,C,7
8,test,1,0.0,1-Back,1,m,Thu Apr 03 2025 15:28:32 GMT-0500 (Central Daylight Time),175166.3999999985,130_o_f_n_a.png,O,m,684,9,1,1708.0,173458.3999999985,7110,NNB,C,8
8,test,1,0.0,1-Back,0,m,Thu Apr 03 2025 15:28:32 GMT-0500 (Central Daylight Time),176784.6000000015,092_m_m_n_a.png,O,z,583,10,1,1609.7999999970198,175174.80000000447,7110,NNB,C,9
8,test,1,0.0,1-Back,0,m,Thu Apr 03 2025 15:28:32 GMT-0500 (Central Daylight Time),179332.8999999985,057_y_m_n_a.png,O,z,1519,11,1,2541.39999999851,176791.5,7110,NNB,C,10
9,test,1,1.0,1-Back,1,z,Thu Apr 03 2025 15:28:32 GMT-0500 (Central Daylight Time),181582.6000000015,057_y_m_n_a.png,O,z,1217,12,1,2243.0,179339.6000000015,7110,NNB,C,11
10,test,1,0.0,1-Back,1,m,Thu Apr 03 2025 15:28:32 GMT-0500 (Central Daylight Time),183482.70000000298,030_o_f_n_a.png,O,m,865,13,1,1892.8000000044703,181589.8999999985,7110,NNB,C,12
11,test,1,1.0,1-Back,1,z,Thu Apr 03 2025 15:28:32 GMT-0500 (Central Daylight Time),185466.20000000298,030_o_f_n_a.png,O,z,967,14,1,1975.3999999985099,183490.80000000447,7110,NNB,C,13
12,test,1,0.0,1-Back,1,m,Thu Apr 03 2025 15:28:32 GMT-0500 (Central Daylight Time),187380.1000000015,031_y_m_n_a.png,O,m,885,15,1,1907.5,185472.6000000015,7110,NNB,C,14
12,test,1,0.0,1-Back,0,m,Thu Apr 03 2025 15:28:32 GMT-0500 (Central Daylight Time),189330.5,093_m_f_n_a.png,O,z,932,16,1,1943.2999999970198,187387.20000000298,7110,NNB,C,15
13,test,1,0.0,1-Back,1,m,Thu Apr 03 2025 15:28:32 GMT-0500 (Central Daylight Time),191779.8999999985,146_o_m_n_a.png,O,m,1422,17,1,2442.5999999940395,189337.30000000447,7110,NNB,C,16
14,test,1,0.0,1-Back,1,m,Thu Apr 03 2025 15:28:32 GMT-0500 (Central Daylight Time),193978.20000000298,093_m_f_n_a.png,O,m,1173,18,1,2191.0,191787.20000000298,7110,NNB,C,17
0,test,2,0.0,1-Back,,,Thu Apr 03 2025 15:28:32 GMT-0500 (Central Daylight Time),193978.20000000298,092_m_m_n_a.png,O,space,1926,1,1,2191.0,191787.20000000298,7110,NNB,C,0
1,test,2,0.0,1-Back,1,m,Thu Apr 03 2025 15:28:32 GMT-0500 (Central Daylight Time),199959.80000000447,006_m_f_n_a.png,O,m,1001,2,1,2026.9000000059605,197932.8999999985,7110,NNB,C,1
2,test,2,1.0,1-Back,1,z,Thu Apr 03 2025 15:28:32 GMT-0500 (Central Daylight Time),202258.80000000447,006_m_f_n_a.png,O,z,1272,3,1,2292.2000000029802,199966.6000000015,7110,NNB,C,2
3,test,2,0.0,1-Back,1,m,Thu Apr 03 2025 15:28:32 GMT-0500 (Central Daylight Time),204626.80000000447,092_m_m_n_a.png,O,m,1351,4,1,2361.9000000059605,202264.8999999985,7110,NNB,C,3
4,test,2,0.0,1-Back,1,m,Thu Apr 03 2025 15:28:32 GMT-0500 (Central Daylight Time),206756.70000000298,057_y_m_n_a.png,O,m,1102,5,1,2125.10000000149,204631.6000000015,7110,NNB,C,4
5,test,2,0.0,1-Back,1,m,Thu Apr 03 2025 15:28:32 GMT-0500 (Central Daylight Time),209256.5,098_y_f_n_a.png,O,m,1466,6,1,2491.2999999970198,206765.20000000298,7110,NNB,C,5
6,test,2,1.0,1-Back,1,z,Thu Apr 03 2025 15:28:32 GMT-0500 (Central Daylight Time),211040.0,098_y_f_n_a.png,O,z,758,7,1,1775.6999999955297,209264.30000000447,7110,NNB,C,6
7,test,2,0.0,1-Back,1,m,Thu Apr 03 2025 15:28:32 GMT-0500 (Central Daylight Time),212921.80000000447,057_y_m_n_a.png,O,m,855,8,1,1875.6000000014901,211046.20000000298,7110,NNB,C,7
8,test,2,0.0,1-Back,1,m,Thu Apr 03 2025 15:28:32 GMT-0500 (Central Daylight Time),215272.5,030_o_f_n_a.png,O,m,1317,9,1,2344.0,212928.5,7110,NNB,C,8
9,test,2,0.0,1-Back,1,m,Thu Apr 03 2025 15:28:32 GMT-0500 (Central Daylight Time),216971.0,082_m_m_n_a.png,O,m,671,10,1,1692.1000000014901,215278.8999999985,7110,NNB,C,9
10,test,2,1.0,1-Back,1,z,Thu Apr 03 2025 15:28:32 GMT-0500 (Central Daylight Time),218619.1000000015,082_m_m_n_a.png,O,z,620,11,1,1641.3999999985099,216977.70000000298,7110,NNB,C,10
11,test,2,0.0,1-Back,1,m,Thu Apr 03 2025 15:28:32 GMT-0500 (Central Daylight Time),220386.0,030_o_f_n_a.png,O,m,739,12,1,1761.1999999955297,218624.80000000447,7110,NNB,C,11
12,test,2,0.0,1-Back,1,m,Thu Apr 03 2025 15:28:32 GMT-0500 (Central Daylight Time),222120.80000000447,130_o_f_n_a.png,O,m,700,13,1,1727.3000000044703,220393.5,7110,NNB,C,12
13,test,2,0.0,1-Back,1,m,Thu Apr 03 2025 15:28:32 GMT-0500 (Central Daylight Time),223936.0,059_o_m_n_a.png,O,m,783,14,1,1807.8999999985099,222128.1000000015,7110,NNB,C,13
14,test,2,0.0,1-Back,1,m,Thu Apr 03 2025 15:28:32 GMT-0500 (Central Daylight Time),225902.1000000015,146_o_m_n_a.png,O,m,944,15,1,1959.1000000014901,223943.0,7110,NNB,C,14
15,test,2,1.0,1-Back,1,z,Thu Apr 03 2025 15:28:32 GMT-0500 (Central Daylight Time),227601.30000000447,146_o_m_n_a.png,O,z,675,16,1,1692.6000000014901,225908.70000000298,7110,NNB,C,15
16,test,2,0.0,1-Back,1,m,Thu Apr 03 2025 15:28:32 GMT-0500 (Central Daylight Time),229834.6000000015,031_y_m_n_a.png,O,m,1205,17,1,2226.7000000029802,227607.8999999985,7110,NNB,C,16
17,test,2,1.0,1-Back,1,z,Thu Apr 03 2025 15:28:32 GMT-0500 (Central Daylight Time),231618.1000000015,031_y_m_n_a.png,O,z,767,18,1,1776.5,229841.6000000015,7110,NNB,C,17
0,test,3,1.0,1-Back,,,Thu Apr 03 2025 15:28:32 GMT-0500 (Central Daylight Time),231618.1000000015,028_y_f_n_a.png,O,space,1829,1,1,1776.5,229841.6000000015,7110,NNB,C,0
1,test,3,0.0,1-Back,1,m,Thu Apr 03 2025 15:28:32 GMT-0500 (Central Daylight Time),237198.0,146_o_m_n_a.png,O,m,628,1,1,1643.2999999970198,235554.70000000298,7110,NNB,C,1
2,test,3,1.0,1-Back,1,z,Thu Apr 03 2025 15:28:32 GMT-0500 (Central Daylight Time),239013.8999999985,146_o_m_n_a.png,O,z,786,1,1,1808.6999999955297,237205.20000000298,7110,NNB,C,2
3,test,3,0.0,1-Back,1,m,Thu Apr 03 2025 15:28:32 GMT-0500 (Central Daylight Time),240796.3999999985,093_m_f_n_a.png,O,m,762,1,1,1775.5999999940395,239020.80000000447,7110,NNB,C,3
4,test,3,1.0,1-Back,1,z,Thu Apr 03 2025 15:28:32 GMT-0500 (Central Daylight Time),242645.3999999985,093_m_f_n_a.png,O,z,818,1,1,1842.5,240802.8999999985,7110,NNB,C,4
5,test,3,0.0,1-Back,1,m,Thu Apr 03 2025 15:28:32 GMT-0500 (Central Daylight Time),244345.5,030_o_f_n_a.png,O,m,680,1,1,1695.1000000014901,242650.3999999985,7110,NNB,C,5
6,test,3,0.0,1-Back,1,m,Thu Apr 03 2025 15:28:32 GMT-0500 (Central Daylight Time),246142.70000000298,057_y_m_n_a.png,O,m,776,1,1,1790.8999999985099,244351.80000000447,7110,NNB,C,6
7,test,3,0.0,1-Back,1,m,Thu Apr 03 2025 15:28:32 GMT-0500 (Central Daylight Time),248059.3999999985,030_o_f_n_a.png,O,m,896,1,1,1914.0999999940395,246145.30000000447,7110,NNB,C,7
8,test,3,0.0,1-Back,1,m,Thu Apr 03 2025 15:28:32 GMT-0500 (Central Daylight Time),250424.70000000298,031_y_m_n_a.png,O,m,1347,1,1,2362.60000000149,248062.1000000015,7110,NNB,C,8
9,test,3,1.0,1-Back,1,z,Thu Apr 03 2025 15:28:32 GMT-0500 (Central Daylight Time),252157.5,031_y_m_n_a.png,O,z,709,1,1,1729.6000000014901,250427.8999999985,7110,NNB,C,9
10,test,3,0.0,1-Back,1,m,Thu Apr 03 2025 15:28:32 GMT-0500 (Central Daylight Time),253957.8999999985,006_m_f_n_a.png,O,m,778,1,1,1797.6999999955297,252160.20000000298,7110,NNB,C,10
11,test,3,0.0,1-Back,1,m,Thu Apr 03 2025 15:28:32 GMT-0500 (Central Daylight Time),256140.8999999985,098_y_f_n_a.png,O,m,1162,1,1,2178.6999999955297,253962.20000000298,7110,NNB,C,11
12,test,3,1.0,1-Back,1,z,Thu Apr 03 2025 15:28:32 GMT-0500 (Central Daylight Time),258039.8999999985,098_y_f_n_a.png,O,z,868,1,1,1896.2999999970198,256143.6000000015,7110,NNB,C,12
13,test,3,0.0,1-Back,1,m,Thu Apr 03 2025 15:28:32 GMT-0500 (Central Daylight Time),260005.8999999985,006_m_f_n_a.png,O,m,936,1,1,1963.0,258042.8999999985,7110,NNB,C,13
14,test,3,0.0,1-Back,1,m,Thu Apr 03 2025 15:28:32 GMT-0500 (Central Daylight Time),262038.6000000015,092_m_m_n_a.png,O,m,1001,1,1,2029.8999999985099,260008.70000000298,7110,NNB,C,14
15,test,3,1.0,1-Back,1,z,Thu Apr 03 2025 15:28:32 GMT-0500 (Central Daylight Time),263937.3999999985,092_m_m_n_a.png,O,z,872,1,1,1895.6999999955297,262041.70000000298,7110,NNB,C,15
16,test,3,0.0,1-Back,1,m,Thu Apr 03 2025 15:28:32 GMT-0500 (Central Daylight Time),265754.5,130_o_f_n_a.png,O,m,783,1,1,1814.1999999955297,263940.30000000447,7110,NNB,C,16
17,test,3,1.0,1-Back,1,z,Thu Apr 03 2025 15:28:32 GMT-0500 (Central Daylight Time),267520.3999999985,130_o_f_n_a.png,O,z,742,1,1,1762.7999999970198,265757.6000000015,7110,NNB,C,17
0,test,4,1.0,1-Back,,,Thu Apr 03 2025 15:28:32 GMT-0500 (Central Daylight Time),267520.3999999985,093_m_f_n_a.png,O,space,1871,1,1,1762.7999999970198,265757.6000000015,7110,NNB,C,0
1,test,4,0.0,1-Back,1,m,Thu Apr 03 2025 15:28:32 GMT-0500 (Central Daylight Time),273218.80000000447,146_o_m_n_a.png,O,m,687,2,1,1707.1000000014901,271511.700000003,7110,NNB,C,1
2,test,4,0.0,1-Back,1,m,Thu Apr 03 2025 15:28:32 GMT-0500 (Central Daylight Time),275285.8999999985,093_m_f_n_a.png,O,m,1036,3,1,2058.6999999955297,273227.200000003,7110,NNB,C,2
3,test,4,0.0,1-Back,1,m,Thu Apr 03 2025 15:28:32 GMT-0500 (Central Daylight Time),277136.200000003,030_o_f_n_a.png,O,m,817,4,1,1844.8999999985099,275291.30000000447,7110,NNB,C,3
3,test,4,1.0,1-Back,0,z,Thu Apr 03 2025 15:28:32 GMT-0500 (Central Daylight Time),278767.700000003,030_o_f_n_a.png,O,m,599,5,1,1624.8999999985099,277142.80000000447,7110,NNB,C,4
4,test,4,0.0,1-Back,1,m,Thu Apr 03 2025 15:28:32 GMT-0500 (Central Daylight Time),280884.6000000015,098_y_f_n_a.png,O,m,1088,6,1,2110.89999999851,278773.700000003,7110,NNB,C,5
5,test,4,0.0,1-Back,1,m,Thu Apr 03 2025 15:28:32 GMT-0500 (Central Daylight Time),283051.700000003,057_y_m_n_a.png,O,m,1149,7,1,2160.89999999851,280890.80000000447,7110,NNB,C,6
6,test,4,1.0,1-Back,1,z,Thu Apr 03 2025 15:28:32 GMT-0500 (Central Daylight Time),284549.700000003,057_y_m_n_a.png,O,z,479,8,1,1490.8999999985099,283058.80000000447,7110,NNB,C,7
7,test,4,0.0,1-Back,1,m,Thu Apr 03 2025 15:28:32 GMT-0500 (Central Daylight Time),286400.8999999985,098_y_f_n_a.png,O,m,817,9,1,1843.3999999985099,284557.5,7110,NNB,C,8
8,test,4,0.0,1-Back,1,m,Thu Apr 03 2025 15:28:32 GMT-0500 (Central Daylight Time),288398.3999999985,082_m_m_n_a.png,O,m,975,10,1,1989.8999999985099,286408.5,7110,NNB,C,9
9,test,4,1.0,1-Back,1,z,Thu Apr 03 2025 15:28:32 GMT-0500 (Central Daylight Time),289881.700000003,082_m_m_n_a.png,O,z,450,11,1,1477.8000000044703,288403.8999999985,7110,NNB,C,10
10,test,4,0.0,1-Back,1,m,Thu Apr 03 2025 15:28:32 GMT-0500 (Central Daylight Time),291530.80000000447,130_o_f_n_a.png,O,m,622,12,1,1640.7000000029802,289890.1000000015,7110,NNB,C,11
11,test,4,0.0,1-Back,1,m,Thu Apr 03 2025 15:28:32 GMT-0500 (Central Daylight Time),293413.0,059_o_m_n_a.png,O,m,862,13,1,1874.1000000014901,291538.8999999985,7110,NNB,C,12
12,test,4,0.0,1-Back,1,m,Thu Apr 03 2025 15:28:32 GMT-0500 (Central Daylight Time),295245.30000000447,130_o_f_n_a.png,O,m,811,14,1,1825.4000000059605,293419.8999999985,7110,NNB,C,13
13,test,4,0.0,1-Back,1,m,Thu Apr 03 2025 15:28:32 GMT-0500 (Central Daylight Time),297312.8999999985,028_y_f_n_a.png,O,m,1032,15,1,2059.89999999851,295253.0,7110,NNB,C,14
14,test,4,1.0,1-Back,1,z,Thu Apr 03 2025 15:28:32 GMT-0500 (Central Daylight Time),298879.200000003,028_y_f_n_a.png,O,z,545,16,1,1560.8999999985099,297318.30000000447,7110,NNB,C,15
15,test,4,0.0,1-Back,1,m,Thu Apr 03 2025 15:28:32 GMT-0500 (Central Daylight Time),300562.1000000015,006_m_f_n_a.png,O,m,659,17,1,1675.8999999985099,298886.200000003,7110,NNB,C,16
16,test,4,1.0,1-Back,1,z,Thu Apr 03 2025 15:28:32 GMT-0500 (Central Daylight Time),302094.3999999985,006_m_f_n_a.png,O,z,512,18,1,1525.8999999985099,300568.5,7110,NNB,C,17
0,test,5,1.0,1-Back,,,Thu Apr 03 2025 15:28:32 GMT-0500 (Central Daylight Time),302094.3999999985,059_o_m_n_a.png,O,space,1633,1,1,1525.8999999985099,300568.5,7110,NNB,C,0
1,test,5,1.0,1-Back,1,z,Thu Apr 03 2025 15:28:32 GMT-0500 (Central Daylight Time),307626.30000000447,059_o_m_n_a.png,O,z,833,2,1,1859.7000000029802,305766.6000000015,7110,NNB,C,1
2,test,5,0.0,1-Back,1,m,Thu Apr 03 2025 15:28:32 GMT-0500 (Central Daylight Time),309157.6000000015,098_y_f_n_a.png,O,m,509,3,1,1522.8999999985099,307634.700000003,7110,NNB,C,2
3,test,5,0.0,1-Back,1,m,Thu Apr 03 2025 15:28:32 GMT-0500 (Central Daylight Time),311190.80000000447,057_y_m_n_a.png,O,m,1001,4,1,2026.2000000029802,309164.6000000015,7110,NNB,C,3
4,test,5,0.0,1-Back,1,m,Thu Apr 03 2025 15:28:32 GMT-0500 (Central Daylight Time),313207.3999999985,098_y_f_n_a.png,O,m,993,5,1,2007.5999999940395,311199.80000000447,7110,NNB,C,4
5,test,5,0.0,1-Back,1,m,Thu Apr 03 2025 15:28:32 GMT-0500 (Central Daylight Time),315007.1000000015,092_m_m_n_a.png,O,m,775,6,1,1792.2000000029802,313214.8999999985,7110,NNB,C,5
6,test,5,1.0,1-Back,1,z,Thu Apr 03 2025 15:28:32 GMT-0500 (Central Daylight Time),316772.1000000015,092_m_m_n_a.png,O,z,736,7,1,1757.7000000029802,315014.3999999985,7110,NNB,C,6
7,test,5,0.0,1-Back,1,m,Thu Apr 03 2025 15:28:32 GMT-0500 (Central Daylight Time),318855.6000000015,028_y_f_n_a.png,O,m,1061,8,1,2076.7999999970198,316778.80000000447,7110,NNB,C,7
8,test,5,0.0,1-Back,1,m,Thu Apr 03 2025 15:28:32 GMT-0500 (Central Daylight Time),320971.3999999985,031_y_m_n_a.png,O,m,1087,9,1,2108.6999999955297,318862.700000003,7110,NNB,C,8
9,test,5,0.0,1-Back,1,m,Thu Apr 03 2025 15:28:32 GMT-0500 (Central Daylight Time),322851.8999999985,028_y_f_n_a.png,O,m,860,10,1,1871.8999999985099,320980.0,7110,NNB,C,9
10,test,5,0.0,1-Back,1,m,Thu Apr 03 2025 15:28:32 GMT-0500 (Central Daylight Time),324870.3999999985,130_o_f_n_a.png,O,m,997,11,1,2015.6999999955297,322854.700000003,7110,NNB,C,10
11,test,5,1.0,1-Back,1,z,Thu Apr 03 2025 15:28:32 GMT-0500 (Central Daylight Time),326752.80000000447,130_o_f_n_a.png,O,z,858,12,1,1876.4000000059605,324876.3999999985,7110,NNB,C,11
12,test,5,0.0,1-Back,1,m,Thu Apr 03 2025 15:28:32 GMT-0500 (Central Daylight Time),328868.5,146_o_m_n_a.png,O,m,1098,13,1,2109.0,326759.5,7110,NNB,C,12
13,test,5,0.0,1-Back,1,m,Thu Apr 03 2025 15:28:32 GMT-0500 (Central Daylight Time),330784.80000000447,093_m_f_n_a.png,O,m,891,14,1,1910.4000000059605,328874.3999999985,7110,NNB,C,13
14,test,5,1.0,1-Back,1,z,Thu Apr 03 2025 15:28:32 GMT-0500 (Central Daylight Time),332517.5,093_m_f_n_a.png,O,z,712,15,1,1725.7999999970198,330791.700000003,7110,NNB,C,14
15,test,5,0.0,1-Back,1,m,Thu Apr 03 2025 15:28:32 GMT-0500 (Central Daylight Time),334334.5,146_o_m_n_a.png,O,m,795,16,1,1810.7999999970198,332523.700000003,7110,NNB,C,15
16,test,5,0.0,1-Back,1,m,Thu Apr 03 2025 15:28:32 GMT-0500 (Central Daylight Time),336151.3999999985,006_m_f_n_a.png,O,m,786,17,1,1808.1999999955297,334343.200000003,7110,NNB,C,16
17,test,5,0.0,1-Back,1,m,Thu Apr 03 2025 15:28:32 GMT-0500 (Central Daylight Time),338217.0,082_m_m_n_a.png,O,m,1033,18,1,2058.7999999970198,336158.200000003,7110,NNB,C,17
0,prac,1,0.0,2-Back,,,Thu Apr 03 2025 15:28:32 GMT-0500 (Central Daylight Time),338217.0,031_y_m_n_a.png,O,space,6940,1,1,2058.7999999970198,336158.200000003,7110,NNB,C,0
0,prac,1,0.0,2-Back,,,Thu Apr 03 2025 15:28:32 GMT-0500 (Central Daylight Time),338217.0,006_m_f_n_a.png,O,space,6940,2,1,2058.7999999970198,336158.200000003,7110,NNB,C,0
1,prac,1,1.0,2-Back,1,m,Thu Apr 03 2025 15:28:32 GMT-0500 (Central Daylight Time),455762.8999999985,146_o_m_n_a.png,O,m,991,3,1,1840.6999999955297,453922.200000003,7110,NNB,C,1
2,prac,1,0.0,2-Back,1,m,Thu Apr 03 2025 15:28:32 GMT-0500 (Central Daylight Time),457578.5,130_o_f_n_a.png,O,m,925,4,1,1807.6000000014901,455770.8999999985,7110,NNB,C,2
3,prac,1,0.0,2-Back,1,z,Thu Apr 03 2025 15:28:32 GMT-0500 (Central Daylight Time),459529.0,146_o_m_n_a.png,O,z,1172,5,1,1940.5,457588.5,7110,NNB,C,3
4,prac,1,1.0,2-Back,1,z,Thu Apr 03 2025 15:28:32 GMT-0500 (Central Daylight Time),461726.8999999985,130_o_f_n_a.png,O,z,1417,6,1,2190.39999999851,459536.5,7110,NNB,C,4
5,prac,1,0.0,2-Back,1,m,Thu Apr 03 2025 15:28:32 GMT-0500 (Central Daylight Time),463508.5,082_m_m_n_a.png,O,m,1003,7,1,1773.6000000014901,461734.8999999985,7110,NNB,C,5
6,prac,1,0.0,2-Back,1,m,Thu Apr 03 2025 15:28:32 GMT-0500 (Central Daylight Time),465475.1000000015,059_o_m_n_a.png,O,m,1091,8,1,1959.0,463516.1000000015,7110,NNB,C,6
7,prac,1,0.0,2-Back,1,m,Thu Apr 03 2025 15:28:32 GMT-0500 (Central Daylight Time),467508.700000003,028_y_f_n_a.png,O,m,1183,9,1,2024.8000000044703,465483.8999999985,7110,NNB,C,7
8,prac,1,1.0,2-Back,1,z,Thu Apr 03 2025 15:28:32 GMT-0500 (Central Daylight Time),469574.700000003,059_o_m_n_a.png,O,z,1284,10,1,2058.60000000149,467516.1000000015,7110,NNB,C,8
9,prac,1,0.0,2-Back,1,m,Thu Apr 03 2025 15:28:32 GMT-0500 (Central Daylight Time),471657.700000003,098_y_f_n_a.png,O,m,1209,11,1,2074.5,469583.200000003,7110,NNB,C,9
10,prac,1,0.0,2-Back,1,m,Thu Apr 03 2025 15:28:32 GMT-0500 (Central Daylight Time),473623.30000000447,082_m_m_n_a.png,O,m,1183,12,1,1956.6000000014901,471666.700000003,7110,NNB,C,10
0,test,1,0.0,2-Back,,,Thu Apr 03 2025 15:28:32 GMT-0500 (Central Daylight Time),473623.30000000447,057_y_m_n_a.png,O,space,10680,1,1,1956.6000000014901,471666.700000003,7110,NNB,C,0
0,test,1,0.0,2-Back,,,Thu Apr 03 2025 15:28:32 GMT-0500 (Central Daylight Time),473623.30000000447,057_y_m_n_a.png,O,space,10680,2,1,1956.6000000014901,471666.700000003,7110,NNB,C,0
1,test,1,0.0,2-Back,1,m,Thu Apr 03 2025 15:28:32 GMT-0500 (Central Daylight Time),496984.5,130_o_f_n_a.png,O,m,828,3,1,1848.5,495136.0,7110,NNB,C,1
2,test,1,0.0,2-Back,1,m,Thu Apr 03 2025 15:28:32 GMT-0500 (Central Daylight Time),498848.1000000015,092_m_m_n_a.png,O,m,833,4,1,1857.3999999985099,496990.700000003,7110,NNB,C,2
3,test,1,1.0,2-Back,1,z,Thu Apr 03 2025 15:28:32 GMT-0500 (Central Daylight Time),500647.80000000447,130_o_f_n_a.png,O,z,769,5,1,1794.8000000044703,498853.0,7110,NNB,C,3
4,test,1,0.0,2-Back,1,m,Thu Apr 03 2025 15:28:32 GMT-0500 (Central Daylight Time),502497.200000003,098_y_f_n_a.png,O,m,815,6,1,1843.3999999985099,500653.80000000447,7110,NNB,C,4
5,test,1,0.0,2-Back,1,m,Thu Apr 03 2025 15:28:32 GMT-0500 (Central Daylight Time),504446.1000000015,092_m_m_n_a.png,O,m,928,7,1,1942.3999999985099,502503.700000003,7110,NNB,C,5
6,test,1,1.0,2-Back,1,z,Thu Apr 03 2025 15:28:32 GMT-0500 (Central Daylight Time),506229.6000000015,098_y_f_n_a.png,O,z,753,8,1,1777.7999999970198,504451.80000000447,7110,NNB,C,6
7,test,1,0.0,2-Back,1,m,Thu Apr 03 2025 15:28:32 GMT-0500 (Central Daylight Time),508260.5,031_y_m_n_a.png,O,m,1010,9,1,2024.0,506236.5,7110,NNB,C,7
8,test,1,0.0,2-Back,1,m,Thu Apr 03 2025 15:28:32 GMT-0500 (Central Daylight Time),510244.6000000015,030_o_f_n_a.png,O,m,952,10,1,1981.6000000014901,508263.0,7110,NNB,C,8
9,test,1,1.0,2-Back,1,z,Thu Apr 03 2025 15:28:32 GMT-0500 (Central Daylight Time),511959.8999999985,031_y_m_n_a.png,O,z,692,11,1,1708.0999999940395,510251.80000000447,7110,NNB,C,9
10,test,1,0.0,2-Back,1,m,Thu Apr 03 2025 15:28:32 GMT-0500 (Central Daylight Time),513692.80000000447,006_m_f_n_a.png,O,m,713,12,1,1727.1000000014901,511965.700000003,7110,NNB,C,10
10,test,1,0.0,2-Back,0,m,Thu Apr 03 2025 15:28:32 GMT-0500 (Central Daylight Time),516475.80000000447,006_m_f_n_a.png,O,z,1754,13,1,2776.0,513699.80000000447,7110,NNB,C,11
11,test,1,0.0,2-Back,1,m,Thu Apr 03 2025 15:28:32 GMT-0500 (Central Daylight Time),518457.80000000447,146_o_m_n_a.png,O,m,956,14,1,1974.8000000044703,516483.0,7110,NNB,C,12
12,test,1,0.0,2-Back,1,m,Thu Apr 03 2025 15:28:32 GMT-0500 (Central Daylight Time),520374.5,030_o_f_n_a.png,O,m,891,15,1,1911.5,518463.0,7110,NNB,C,13
13,test,1,1.0,2-Back,1,z,Thu Apr 03 2025 15:28:32 GMT-0500 (Central Daylight Time),522040.3999999985,146_o_m_n_a.png,O,z,640,16,1,1661.0999999940395,520379.30000000447,7110,NNB,C,14
14,test,1,0.0,2-Back,1,m,Thu Apr 03 2025 15:28:32 GMT-0500 (Central Daylight Time),524008.5,093_m_f_n_a.png,O,m,942,17,1,1961.6999999955297,522046.80000000447,7110,NNB,C,15
15,test,1,0.0,2-Back,1,m,Thu Apr 03 2025 15:28:32 GMT-0500 (Central Daylight Time),526222.700000003,082_m_m_n_a.png,O,m,1186,18,1,2206.8000000044703,524015.8999999985,7110,NNB,C,16
0,test,2,0.0,2-Back,,,Thu Apr 03 2025 15:28:32 GMT-0500 (Central Daylight Time),526222.700000003,082_m_m_n_a.png,O,space,1345,1,1,2206.8000000044703,524015.8999999985,7110,NNB,C,0
0,test,2,0.0,2-Back,,,Thu Apr 03 2025 15:28:32 GMT-0500 (Central Daylight Time),526222.700000003,028_y_f_n_a.png,O,space,1345,2,1,2206.8000000044703,524015.8999999985,7110,NNB,C,0
1,test,2,1.0,2-Back,1,z,Thu Apr 03 2025 15:28:32 GMT-0500 (Central Daylight Time),534619.6000000015,082_m_m_n_a.png,O,z,872,3,1,1892.2000000029802,532727.3999999985,7110,NNB,C,1
2,test,2,0.0,2-Back,1,m,Thu Apr 03 2025 15:28:32 GMT-0500 (Central Daylight Time),536436.1000000015,093_m_f_n_a.png,O,m,782,4,1,1811.2000000029802,534624.8999999985,7110,NNB,C,2
3,test,2,0.0,2-Back,1,m,Thu Apr 03 2025 15:28:32 GMT-0500 (Central Daylight Time),538535.0,028_y_f_n_a.png,O,m,1076,5,1,2092.60000000149,536442.3999999985,7110,NNB,C,3
4,test,2,0.0,2-Back,1,m,Thu Apr 03 2025 15:28:32 GMT-0500 (Central Daylight Time),540485.0,146_o_m_n_a.png,O,m,920,6,1,1943.2999999970198,538541.700000003,7110,NNB,C,4
4,test,2,0.0,2-Back,0,m,Thu Apr 03 2025 15:28:32 GMT-0500 (Central Daylight Time),542386.5,098_y_f_n_a.png,O,z,883,7,1,1894.1999999955297,540492.3000000045,7110,NNB,C,5
4,test,2,1.0,2-Back,0,z,Thu Apr 03 2025 15:28:32 GMT-0500 (Central Daylight Time),545350.0,146_o_m_n_a.png,O,m,1934,8,1,2957.6999999955297,542392.3000000045,7110,NNB,C,6
5,test,2,0.0,2-Back,1,m,Thu Apr 03 2025 15:28:32 GMT-0500 (Central Daylight Time),547517.1000000015,031_y_m_n_a.png,O,m,1150,9,1,2159.7000000029802,545357.3999999985,7110,NNB,C,7
5,test,2,0.0,2-Back,0,m,Thu Apr 03 2025 15:28:32 GMT-0500 (Central Daylight Time),550532.3000000045,031_y_m_n_a.png,O,None,2002,10,1,3008.2000000029802,547524.1000000015,7110,NNB,C,8
6,test,2,0.0,2-Back,1,m,Thu Apr 03 2025 15:28:32 GMT-0500 (Central Daylight Time),552578.3999999985,006_m_f_n_a.png,O,m,1027,11,1,2039.2999999970198,550539.1000000015,7110,NNB,C,9
7,test,2,0.0,2-Back,1,m,Thu Apr 03 2025 15:28:32 GMT-0500 (Central Daylight Time),554345.200000003,028_y_f_n_a.png,O,m,739,12,1,1763.8000000044703,552581.3999999985,7110,NNB,C,10
8,test,2,1.0,2-Back,1,z,Thu Apr 03 2025 15:28:32 GMT-0500 (Central Daylight Time),556194.5,006_m_f_n_a.png,O,z,830,13,1,1845.3999999985099,554349.1000000015,7110,NNB,C,11
9,test,2,0.0,2-Back,1,m,Thu Apr 03 2025 15:28:32 GMT-0500 (Central Daylight Time),558045.3000000045,059_o_m_n_a.png,O,m,818,14,1,1847.1000000014901,556198.200000003,7110,NNB,C,12
10,test,2,0.0,2-Back,1,m,Thu Apr 03 2025 15:28:32 GMT-0500 (Central Daylight Time),560861.6000000015,059_o_m_n_a.png,O,m,1784,15,1,2811.10000000149,558050.5,7110,NNB,C,13
11,test,2,0.0,2-Back,1,m,Thu Apr 03 2025 15:28:32 GMT-0500 (Central Daylight Time),562928.5,030_o_f_n_a.png,O,m,1037,16,1,2060.89999999851,560867.6000000015,7110,NNB,C,14
12,test,2,0.0,2-Back,1,m,Thu Apr 03 2025 15:28:32 GMT-0500 (Central Daylight Time),564876.700000003,092_m_m_n_a.png,O,m,929,17,1,1942.7000000029802,562934.0,7110,NNB,C,15
12,test,2,1.0,2-Back,0,z,Thu Apr 03 2025 15:28:32 GMT-0500 (Central Daylight Time),567209.5,030_o_f_n_a.png,O,m,1299,18,1,2327.0,564882.5,7110,NNB,C,16
0,test,3,1.0,2-Back,,,Thu Apr 03 2025 15:28:32 GMT-0500 (Central Daylight Time),567209.5,057_y_m_n_a.png,O,space,1081,1,1,2327.0,564882.5,7110,NNB,C,0
0,test,3,1.0,2-Back,,,Thu Apr 03 2025 15:28:32 GMT-0500 (Central Daylight Time),567209.5,057_y_m_n_a.png,O,space,1081,2,1,2327.0,564882.5,7110,NNB,C,0
1,test,3,0.0,2-Back,1,m,Thu Apr 03 2025 15:28:32 GMT-0500 (Central Daylight Time),575291.8000000045,030_o_f_n_a.png,O,m,833,3,1,1844.1000000014901,573447.700000003,7110,NNB,C,1
2,test,3,0.0,2-Back,1,m,Thu Apr 03 2025 15:28:32 GMT-0500 (Central Daylight Time),577039.5,082_m_m_n_a.png,O,m,725,4,1,1741.1000000014901,575298.3999999985,7110,NNB,C,2
3,test,3,1.0,2-Back,1,z,Thu Apr 03 2025 15:28:32 GMT-0500 (Central Daylight Time),578973.0,030_o_f_n_a.png,O,z,915,5,1,1926.6000000014901,577046.3999999985,7110,NNB,C,3
4,test,3,0.0,2-Back,1,m,Thu Apr 03 2025 15:28:32 GMT-0500 (Central Daylight Time),581339.3000000045,031_y_m_n_a.png,O,m,1349,6,1,2360.0,578979.3000000045,7110,NNB,C,4
5,test,3,0.0,2-Back,1,m,Thu Apr 03 2025 15:28:32 GMT-0500 (Central Daylight Time),583952.3000000045,082_m_m_n_a.png,O,m,1588,7,1,2606.60000000149,581345.700000003,7110,NNB,C,5
6,test,3,1.0,2-Back,1,z,Thu Apr 03 2025 15:28:32 GMT-0500 (Central Daylight Time),585819.8000000045,031_y_m_n_a.png,O,z,847,8,1,1860.0,583959.8000000045,7110,NNB,C,6
7,test,3,0.0,2-Back,1,m,Thu Apr 03 2025 15:28:32 GMT-0500 (Central Daylight Time),587886.0,028_y_f_n_a.png,O,m,1043,9,1,2059.39999999851,585826.6000000015,7110,NNB,C,7
8,test,3,0.0,2-Back,1,m,Thu Apr 03 2025 15:28:32 GMT-0500 (Central Daylight Time),589851.700000003,092_m_m_n_a.png,O,m,946,10,1,1959.0,587892.700000003,7110,NNB,C,8
9,test,3,1.0,2-Back,1,z,Thu Apr 03 2025 15:28:32 GMT-0500 (Central Daylight Time),591736.3000000045,028_y_f_n_a.png,O,z,861,11,1,1881.4000000059605,589854.8999999985,7110,NNB,C,9
9,test,3,1.0,2-Back,0,z,Thu Apr 03 2025 15:28:32 GMT-0500 (Central Daylight Time),593469.5,092_m_m_n_a.png,O,m,717,12,1,1727.6999999955297,591741.8000000045,7110,NNB,C,10
10,test,3,0.0,2-Back,1,m,Thu Apr 03 2025 15:28:32 GMT-0500 (Central Daylight Time),595567.700000003,030_o_f_n_a.png,O,m,1076,13,1,2091.10000000149,593476.6000000015,7110,NNB,C,11
11,test,3,0.0,2-Back,1,m,Thu Apr 03 2025 15:28:32 GMT-0500 (Central Daylight Time),597533.700000003,093_m_f_n_a.png,O,m,945,14,1,1959.3000000044703,595574.3999999985,7110,NNB,C,12
12,test,3,0.0,2-Back,1,m,Thu Apr 03 2025 15:28:32 GMT-0500 (Central Daylight Time),599416.0,146_o_m_n_a.png,O,m,851,15,1,1875.2999999970198,597540.700000003,7110,NNB,C,13
13,test,3,1.0,2-Back,1,z,Thu Apr 03 2025 15:28:32 GMT-0500 (Central Daylight Time),601349.3999999985,093_m_f_n_a.png,O,z,900,16,1,1926.5999999940395,599422.8000000045,7110,NNB,C,14
14,test,3,0.0,2-Back,1,m,Thu Apr 03 2025 15:28:32 GMT-0500 (Central Daylight Time),603148.8000000045,130_o_f_n_a.png,O,m,766,17,1,1792.7000000029802,601356.1000000015,7110,NNB,C,15
15,test,3,0.0,2-Back,1,m,Thu Apr 03 2025 15:28:32 GMT-0500 (Central Daylight Time),605732.200000003,130_o_f_n_a.png,O,m,1567,18,1,2577.0,603155.200000003,7110,NNB,C,16
0,test,4,0.0,2-Back,,,Thu Apr 03 2025 15:28:32 GMT-0500 (Central Daylight Time),605732.200000003,059_o_m_n_a.png,O,space,1116,1,1,2577.0,603155.200000003,7110,NNB,C,0
0,test,4,0.0,2-Back,,,Thu Apr 03 2025 15:28:32 GMT-0500 (Central Daylight Time),605732.200000003,098_y_f_n_a.png,O,space,1116,2,1,2577.0,603155.200000003,7110,NNB,C,0
1,test,4,1.0,2-Back,1,z,Thu Apr 03 2025 15:28:32 GMT-0500 (Central Daylight Time),613846.8000000045,059_o_m_n_a.png,O,z,744,3,1,1761.9000000059605,612084.8999999985,7110,NNB,C,1
2,test,4,1.0,2-Back,1,z,Thu Apr 03 2025 15:28:32 GMT-0500 (Central Daylight Time),615747.3000000045,098_y_f_n_a.png,O,z,884,4,1,1893.5,613853.8000000045,7110,NNB,C,2
3,test,4,0.0,2-Back,1,m,Thu Apr 03 2025 15:28:32 GMT-0500 (Central Daylight Time),617744.3000000045,030_o_f_n_a.png,O,m,975,5,1,1989.6000000014901,615754.700000003,7110,NNB,C,3
4,test,4,0.0,2-Back,1,m,Thu Apr 03 2025 15:28:32 GMT-0500 (Central Daylight Time),620159.6000000015,030_o_f_n_a.png,O,m,1383,6,1,2411.7000000029802,617747.8999999985,7110,NNB,C,4
5,test,4,0.0,2-Back,1,m,Thu Apr 03 2025 15:28:32 GMT-0500 (Central Daylight Time),622559.3000000045,006_m_f_n_a.png,O,m,1367,7,1,2392.60000000149,620166.700000003,7110,NNB,C,5
6,test,4,0.0,2-Back,1,m,Thu Apr 03 2025 15:28:32 GMT-0500 (Central Daylight Time),624675.8999999985,031_y_m_n_a.png,O,m,1099,8,1,2109.6999999955297,622566.200000003,7110,NNB,C,6
7,test,4,1.0,2-Back,1,z,Thu Apr 03 2025 15:28:32 GMT-0500 (Central Daylight Time),626842.700000003,006_m_f_n_a.png,O,z,1149,9,1,2160.10000000149,624682.6000000015,7110,NNB,C,7
8,test,4,0.0,2-Back,1,m,Thu Apr 03 2025 15:28:32 GMT-0500 (Central Daylight Time),628641.3000000045,092_m_m_n_a.png,O,m,783,10,1,1791.6000000014901,626849.700000003,7110,NNB,C,8
9,test,4,0.0,2-Back,1,m,Thu Apr 03 2025 15:28:32 GMT-0500 (Central Daylight Time),630939.6000000015,031_y_m_n_a.png,O,m,1280,11,1,2291.5,628648.1000000015,7110,NNB,C,9
10,test,4,0.0,2-Back,1,m,Thu Apr 03 2025 15:28:32 GMT-0500 (Central Daylight Time),632955.8999999985,130_o_f_n_a.png,O,m,988,12,1,2009.7999999970198,630946.1000000015,7110,NNB,C,10
11,test,4,0.0,2-Back,1,m,Thu Apr 03 2025 15:28:32 GMT-0500 (Central Daylight Time),635054.700000003,057_y_m_n_a.png,O,m,1068,13,1,2091.8000000044703,632962.8999999985,7110,NNB,C,11
11,test,4,1.0,2-Back,0,z,Thu Apr 03 2025 15:28:32 GMT-0500 (Central Daylight Time),636837.3999999985,130_o_f_n_a.png,O,m,762,14,1,1776.3999999985099,635061.0,7110,NNB,C,12
12,test,4,1.0,2-Back,1,z,Thu Apr 03 2025 15:28:32 GMT-0500 (Central Daylight Time),638437.3000000045,057_y_m_n_a.png,O,z,569,15,1,1593.1000000014901,636844.200000003,7110,NNB,C,13
13,test,4,0.0,2-Back,1,m,Thu Apr 03 2025 15:28:32 GMT-0500 (Central Daylight Time),640253.3999999985,082_m_m_n_a.png,O,m,794,16,1,1808.6999999955297,638444.700000003,7110,NNB,C,14
14,test,4,0.0,2-Back,1,m,Thu Apr 03 2025 15:28:32 GMT-0500 (Central Daylight Time),642235.200000003,093_m_f_n_a.png,O,m,956,17,1,1973.3999999985099,640261.8000000045,7110,NNB,C,15
15,test,4,1.0,2-Back,1,z,Thu Apr 03 2025 15:28:32 GMT-0500 (Central Daylight Time),644134.1000000015,082_m_m_n_a.png,O,z,875,18,1,1892.2000000029802,642241.8999999985,7110,NNB,C,16
0,test,5,1.0,2-Back,,,Thu Apr 03 2025 15:28:32 GMT-0500 (Central Daylight Time),644134.1000000015,057_y_m_n_a.png,O,space,1139,1,1,1892.2000000029802,642241.8999999985,7110,NNB,C,0
0,test,5,1.0,2-Back,,,Thu Apr 03 2025 15:28:32 GMT-0500 (Central Daylight Time),644134.1000000015,093_m_f_n_a.png,O,space,1139,2,1,1892.2000000029802,642241.8999999985,7110,NNB,C,0
1,test,5,1.0,2-Back,1,z,Thu Apr 03 2025 15:28:32 GMT-0500 (Central Daylight Time),652100.8000000045,057_y_m_n_a.png,O,z,749,3,1,1762.6000000014901,650338.200000003,7110,NNB,C,1
2,test,5,1.0,2-Back,1,z,Thu Apr 03 2025 15:28:32 GMT-0500 (Central Daylight Time),654066.700000003,093_m_f_n_a.png,O,z,949,4,1,1959.7000000029802,652107.0,7110,NNB,C,2
3,test,5,0.0,2-Back,1,m,Thu Apr 03 2025 15:28:32 GMT-0500 (Central Daylight Time),655798.200000003,130_o_f_n_a.png,O,m,710,5,1,1727.0,654071.200000003,7110,NNB,C,3
4,test,5,0.0,2-Back,1,m,Thu Apr 03 2025 15:28:32 GMT-0500 (Central Daylight Time),657796.700000003,057_y_m_n_a.png,O,m,978,6,1,1991.6000000014901,655805.1000000015,7110,NNB,C,4
5,test,5,0.0,2-Back,1,m,Thu Apr 03 2025 15:28:32 GMT-0500 (Central Daylight Time),659697.3999999985,028_y_f_n_a.png,O,m,875,7,1,1893.0,657804.3999999985,7110,NNB,C,5
5,test,5,0.0,2-Back,0,m,Thu Apr 03 2025 15:28:32 GMT-0500 (Central Daylight Time),661647.200000003,130_o_f_n_a.png,O,z,918,8,1,1942.5,659704.700000003,7110,NNB,C,6
5,test,5,1.0,2-Back,0,z,Thu Apr 03 2025 15:28:32 GMT-0500 (Central Daylight Time),663663.1000000015,028_y_f_n_a.png,O,m,994,9,1,2009.7000000029802,661653.3999999985,7110,NNB,C,7
6,test,5,0.0,2-Back,1,m,Thu Apr 03 2025 15:28:32 GMT-0500 (Central Daylight Time),665644.700000003,146_o_m_n_a.png,O,m,954,10,1,1975.6000000014901,663669.1000000015,7110,NNB,C,8
7,test,5,0.0,2-Back,1,m,Thu Apr 03 2025 15:28:32 GMT-0500 (Central Daylight Time),667762.5,006_m_f_n_a.png,O,m,1081,11,1,2110.0,665652.5,7110,NNB,C,9
8,test,5,0.0,2-Back,1,m,Thu Apr 03 2025 15:28:32 GMT-0500 (Central Daylight Time),669644.0,092_m_m_n_a.png,O,m,855,12,1,1875.1000000014901,667768.8999999985,7110,NNB,C,10
9,test,5,0.0,2-Back,1,m,Thu Apr 03 2025 15:28:32 GMT-0500 (Central Daylight Time),671708.3000000045,146_o_m_n_a.png,O,m,1042,13,1,2056.7000000029802,669651.6000000015,7110,NNB,C,11
10,test,5,1.0,2-Back,1,z,Thu Apr 03 2025 15:28:32 GMT-0500 (Central Daylight Time),673676.3999999985,092_m_m_n_a.png,O,z,938,14,1,1963.8999999985099,671712.5,7110,NNB,C,12
11,test,5,0.0,2-Back,1,m,Thu Apr 03 2025 15:28:32 GMT-0500 (Central Daylight Time),675459.0,098_y_f_n_a.png,O,m,766,15,1,1778.8999999985099,673680.1000000015,7110,NNB,C,13
12,test,5,0.0,2-Back,1,m,Thu Apr 03 2025 15:28:32 GMT-0500 (Central Daylight Time),677391.200000003,059_o_m_n_a.png,O,m,901,16,1,1928.8000000044703,675462.3999999985,7110,NNB,C,14
13,test,5,0.0,2-Back,1,m,Thu Apr 03 2025 15:28:32 GMT-0500 (Central Daylight Time),679108.6000000015,006_m_f_n_a.png,O,m,700,17,1,1711.1000000014901,677397.5,7110,NNB,C,15
14,test,5,1.0,2-Back,1,z,Thu Apr 03 2025 15:28:32 GMT-0500 (Central Daylight Time),680841.3999999985,059_o_m_n_a.png,O,z,717,18,1,1728.6999999955297,679112.700000003,7110,NNB,C,16
