Q,Q1,Q2,Q3,Q4,acc_sum,block,block_c,correct,correct_response,datetime,endtime,project,response,response_time,row_sel,session_number,squiggle1,squiggle1x,squiggle1y,squiggle2,squiggle2x,squiggle2y,squiggle3,squiggle3x,squiggle3y,squiggle4,squiggle4x,squiggle4y,start_end,starttime,subject_id,target_congruent,task,task_vers,testsquiggle,testsquigglex,testsquiggley,time_practice_delay,time_practice_fixation,time_practice_stimuli,time_practice_study,time_test_delay,time_test_fixation,time_test_stimuli,time_test_study,trial
1,1,0,0,0,0,prac,1,0,z,Mon Apr 07 2025 10:08:40 GMT-0500 (Central Daylight Time),113492.79999995232,O,None,2014,1,1,116.bmp,-120,-120,117.bmp,120,-120,118.bmp,-120,120,119.bmp,120,120,10830.599999904633,102662.20000004768,7118,yes,SM,A,116.bmp,-120,-120,105486,99455,107504,101472,,,,,1
3,0,0,1,0,1,prac,1,1,m,Mon Apr 07 2025 10:08:40 GMT-0500 (Central Daylight Time),123672.89999997616,O,m,1346,2,1,120.bmp,-120,-120,121.bmp,120,-120,122.bmp,-120,120,123.bmp,120,120,10162.100000023842,113510.79999995232,7118,no,SM,A,123.bmp,-120,120,116333,110304,118350,112319,,,,,2
4,0,0,0,1,2,prac,1,1,m,Mon Apr 07 2025 10:08:40 GMT-0500 (Central Daylight Time),134452.60000002384,O,m,1942,3,1,124.bmp,-120,-120,125.bmp,120,-120,126.bmp,-120,120,127.bmp,120,120,10762.100000023842,123690.5,7118,no,SM,A,124.bmp,120,120,126513,120483,128530,122499,,,,,3
2,0,1,0,0,3,prac,1,1,z,Mon Apr 07 2025 10:08:40 GMT-0500 (Central Daylight Time),144582.39999997616,O,z,1290,4,1,128.bmp,-120,-120,129.bmp,120,-120,130.bmp,-120,120,131.bmp,120,120,10114.299999952316,134468.10000002384,7118,yes,SM,A,129.bmp,120,-120,137292,131261,139310,133278,,,,,4
3,0,0,1,0,4,prac,1,1,z,Mon Apr 07 2025 10:08:40 GMT-0500 (Central Daylight Time),154812.5,O,z,1408,5,1,132.bmp,-120,-120,133.bmp,120,-120,134.bmp,-120,120,135.bmp,120,120,10215.799999952316,144596.70000004768,7118,yes,SM,A,134.bmp,-120,120,147406,141389,149424,143391,,,,,5
1,1,0,0,0,5,prac,1,1,m,Mon Apr 07 2025 10:08:40 GMT-0500 (Central Daylight Time),165192.20000004768,O,m,1555,6,1,136.bmp,-120,-120,137.bmp,120,-120,138.bmp,-120,120,139.bmp,120,120,10365.800000071526,154826.39999997616,7118,no,SM,A,139.bmp,-120,-120,157636,151619,159653,153622,,,,,6
2,0,1,0,0,6,prac,1,1,m,Mon Apr 07 2025 10:08:40 GMT-0500 (Central Daylight Time),175921.79999995232,O,m,1886,7,1,140.bmp,-120,-120,141.bmp,120,-120,142.bmp,-120,120,143.bmp,120,120,10714.199999928474,165207.60000002384,7118,no,SM,A,140.bmp,120,-120,168032,162001,170050,164018,,,,,7
4,0,0,0,1,7,prac,1,1,z,Mon Apr 07 2025 10:08:40 GMT-0500 (Central Daylight Time),186569.0,O,z,1804,8,1,144.bmp,-120,-120,145.bmp,120,-120,146.bmp,-120,120,147.bmp,120,120,10632.0,175937.0,7118,yes,SM,A,147.bmp,120,120,178762,172731,180780,174748,,,,,8
4,0,0,0,1,0,test,1,0,m,Mon Apr 07 2025 10:08:40 GMT-0500 (Central Daylight Time),215009.39999997616,O,None,2014,1,1,148.bmp,-120,-120,149.bmp,120,-120,150.bmp,-120,120,143.bmp,120,120,10051.299999952316,204958.10000002384,7118,no,SM,A,150.bmp,120,120,178762,172731,180780,174748,207769.0,201751.0,209787.0,203755.0,1
2,0,1,0,0,0,test,1,0,m,Mon Apr 07 2025 10:08:40 GMT-0500 (Central Daylight Time),224389.70000004768,O,z,1317,2,1,101.bmp,-120,-120,102.bmp,120,-120,103.bmp,-120,120,104.bmp,120,120,9366.600000023842,215023.10000002384,7118,no,SM,A,103.bmp,120,-120,178762,172731,180780,174748,217833.0,211816.0,219850.0,213819.0,2
1,1,0,0,0,1,test,1,1,z,Mon Apr 07 2025 10:08:40 GMT-0500 (Central Daylight Time),233636.20000004768,O,z,1196,3,1,105.bmp,-120,-120,106.bmp,120,-120,107.bmp,-120,120,108.bmp,120,120,9233.600000023842,224402.60000002384,7118,yes,SM,A,105.bmp,-120,-120,178762,172731,180780,174748,227213.0,221195.0,229228.0,223199.0,3
3,0,0,1,0,1,test,1,0,m,Mon Apr 07 2025 10:08:40 GMT-0500 (Central Daylight Time),243716.29999995232,O,None,2013,4,1,109.bmp,-120,-120,110.bmp,120,-120,111.bmp,-120,120,112.bmp,120,120,10064.5,233651.79999995232,7118,no,SM,A,109.bmp,-120,120,178762,172731,180780,174748,236477.0,230445.0,238495.0,232463.0,4
2,0,1,0,0,1,test,1,0,z,Mon Apr 07 2025 10:08:40 GMT-0500 (Central Daylight Time),253413.29999995232,O,m,1618,5,1,113.bmp,-120,-120,114.bmp,120,-120,115.bmp,-120,120,116.bmp,120,120,9682.0,243731.29999995232,7118,yes,SM,A,114.bmp,120,-120,178762,172731,180780,174748,246557.0,240524.0,248574.0,242543.0,5
3,0,0,1,0,1,test,1,0,z,Mon Apr 07 2025 10:08:40 GMT-0500 (Central Daylight Time),263476.89999997616,O,None,2015,6,1,117.bmp,-120,-120,118.bmp,120,-120,119.bmp,-120,120,120.bmp,120,120,10050.699999928474,253426.20000004768,7118,yes,SM,A,119.bmp,-120,120,178762,172731,180780,174748,256237.0,250219.0,258254.0,252223.0,6
4,0,0,0,1,2,test,1,1,z,Mon Apr 07 2025 10:08:40 GMT-0500 (Central Daylight Time),273190.2000000477,O,z,1658,7,1,121.bmp,-120,-120,122.bmp,120,-120,123.bmp,-120,120,124.bmp,120,120,9700.100000023842,263490.10000002384,7118,yes,SM,A,124.bmp,120,120,178762,172731,180780,174748,266300.0,260283.0,268317.0,262286.0,7
2,0,1,0,0,2,test,1,0,m,Mon Apr 07 2025 10:08:40 GMT-0500 (Central Daylight Time),282737.0,O,z,1472,8,1,125.bmp,-120,-120,126.bmp,120,-120,127.bmp,-120,120,128.bmp,120,120,9532.399999976158,273204.60000002384,7118,no,SM,A,125.bmp,120,-120,178762,172731,180780,174748,276030.0,269998.0,278048.0,272016.0,8
3,0,0,1,0,3,test,1,1,m,Mon Apr 07 2025 10:08:40 GMT-0500 (Central Daylight Time),292733.5,O,m,1925,9,1,129.bmp,-120,-120,130.bmp,120,-120,131.bmp,-120,120,132.bmp,120,120,9981.0,282752.5,7118,no,SM,A,130.bmp,-120,120,178762,172731,180780,174748,285577.0,279545.0,287595.0,281563.0,9
4,0,0,0,1,3,test,1,0,z,Mon Apr 07 2025 10:08:40 GMT-0500 (Central Daylight Time),302380.5,O,m,1594,10,1,137.bmp,-120,-120,138.bmp,120,-120,139.bmp,-120,120,140.bmp,120,120,9634.799999952316,292745.7000000477,7118,yes,SM,A,140.bmp,120,120,178762,172731,180780,174748,295558.0,289538.0,297574.0,291543.0,10
3,0,0,1,0,3,test,1,0,z,Mon Apr 07 2025 10:08:40 GMT-0500 (Central Daylight Time),311694.2000000477,O,m,1233,11,1,133.bmp,-120,-120,134.bmp,120,-120,135.bmp,-120,120,136.bmp,120,120,9298.400000095367,302395.7999999523,7118,yes,SM,A,135.bmp,-120,120,178762,172731,180780,174748,305221.0,299189.0,307238.0,301206.0,11
2,0,1,0,0,3,test,1,0,m,Mon Apr 07 2025 10:08:40 GMT-0500 (Central Daylight Time),321757.5,O,None,2014,12,1,141.bmp,-120,-120,142.bmp,120,-120,143.bmp,-120,120,144.bmp,120,120,10050.100000023842,311707.39999997616,7118,no,SM,A,141.bmp,120,-120,178762,172731,180780,174748,314518.0,308500.0,316535.0,310504.0,12
3,0,0,1,0,3,test,1,0,m,Mon Apr 07 2025 10:08:40 GMT-0500 (Central Daylight Time),331821.2000000477,O,None,2014,13,1,145.bmp,-120,-120,146.bmp,120,-120,147.bmp,-120,120,148.bmp,120,120,10050.700000047684,321770.5,7118,no,SM,A,146.bmp,-120,120,178762,172731,180780,174748,324581.0,318563.0,326599.0,320567.0,13
1,1,0,0,0,3,test,1,0,z,Mon Apr 07 2025 10:08:40 GMT-0500 (Central Daylight Time),341850.89999997616,O,m,1978,14,1,149.bmp,-120,-120,150.bmp,120,-120,104.bmp,-120,120,101.bmp,120,120,10016.0,331834.89999997616,7118,yes,SM,A,149.bmp,-120,-120,178762,172731,180780,174748,334644.0,328628.0,336662.0,330630.0,14
4,0,0,0,1,3,test,1,0,m,Mon Apr 07 2025 10:08:40 GMT-0500 (Central Daylight Time),351914.5,O,None,2014,15,1,110.bmp,-120,-120,111.bmp,120,-120,112.bmp,-120,120,113.bmp,120,120,10048.899999976158,341865.60000002384,7118,no,SM,A,111.bmp,120,120,178762,172731,180780,174748,344675.0,338658.0,346692.0,340660.0,15
1,1,0,0,0,4,test,1,1,m,Mon Apr 07 2025 10:08:40 GMT-0500 (Central Daylight Time),361593.5,O,m,1612,16,1,102.bmp,-120,-120,103.bmp,120,-120,104.bmp,-120,120,105.bmp,120,120,9664.600000023842,351928.89999997616,7118,no,SM,A,105.bmp,-120,-120,178762,172731,180780,174748,354754.0,348722.0,356770.0,350741.0,16
3,0,0,1,0,5,test,1,1,m,Mon Apr 07 2025 10:08:40 GMT-0500 (Central Daylight Time),371191.2000000477,O,m,1532,17,1,122.bmp,-120,-120,123.bmp,120,-120,124.bmp,-120,120,125.bmp,120,120,9594.0,361597.2000000477,7118,no,SM,A,122.bmp,-120,120,178762,172731,180780,174748,364418.0,358389.0,366436.0,360402.0,17
1,1,0,0,0,5,test,1,0,z,Mon Apr 07 2025 10:08:40 GMT-0500 (Central Daylight Time),381254.60000002384,O,None,2014,18,1,106.bmp,-120,-120,107.bmp,120,-120,108.bmp,-120,120,109.bmp,120,120,10048.899999976158,371205.7000000477,7118,yes,SM,A,106.bmp,-120,-120,178762,172731,180780,174748,374015.0,367998.0,376032.0,370000.0,18
2,0,1,0,0,6,test,1,1,z,Mon Apr 07 2025 10:08:40 GMT-0500 (Central Daylight Time),390934.7000000477,O,z,1599,19,1,126.bmp,-120,-120,127.bmp,120,-120,128.bmp,-120,120,129.bmp,120,120,9665.700000047684,381269.0,7118,yes,SM,A,127.bmp,120,-120,178762,172731,180780,174748,384095.0,378062.0,386112.0,380081.0,19
3,0,0,1,0,6,test,1,0,z,Mon Apr 07 2025 10:08:40 GMT-0500 (Central Daylight Time),400148.2000000477,O,m,1152,20,1,130.bmp,-120,-120,131.bmp,120,-120,132.bmp,-120,120,133.bmp,120,120,9200.700000047684,390947.5,7118,yes,SM,A,132.bmp,-120,120,178762,172731,180780,174748,393758.0,387740.0,395776.0,389744.0,20
1,1,0,0,0,7,test,1,1,m,Mon Apr 07 2025 10:08:40 GMT-0500 (Central Daylight Time),410028.7000000477,O,m,1818,21,1,114.bmp,-120,-120,115.bmp,120,-120,116.bmp,-120,120,117.bmp,120,120,9867.700000047684,400161.0,7118,no,SM,A,116.bmp,-120,-120,178762,172731,180780,174748,402972.0,396954.0,404990.0,398956.0,21
4,0,0,0,1,7,test,1,0,z,Mon Apr 07 2025 10:08:40 GMT-0500 (Central Daylight Time),419408.60000002384,O,m,1323,22,1,118.bmp,-120,-120,119.bmp,120,-120,120.bmp,-120,120,121.bmp,120,120,9366.300000071526,410042.2999999523,7118,yes,SM,A,121.bmp,120,120,178762,172731,180780,174748,412852.0,406835.0,414869.0,408837.0,22
1,1,0,0,0,8,test,1,1,m,Mon Apr 07 2025 10:08:40 GMT-0500 (Central Daylight Time),428805.7000000477,O,m,1333,23,1,134.bmp,-120,-120,135.bmp,120,-120,136.bmp,-120,120,137.bmp,120,120,9384.400000095367,419421.2999999523,7118,no,SM,A,137.bmp,-120,-120,178762,172731,180780,174748,422233.0,416214.0,424250.0,418218.0,23
2,0,1,0,0,8,test,1,0,z,Mon Apr 07 2025 10:08:40 GMT-0500 (Central Daylight Time),438868.7999999523,O,None,2015,24,1,142.bmp,-120,-120,143.bmp,120,-120,144.bmp,-120,120,145.bmp,120,120,10049.699999928474,428819.10000002384,7118,yes,SM,A,143.bmp,120,-120,178762,172731,180780,174748,431629.0,425612.0,433646.0,427615.0,24
4,0,0,0,1,8,test,1,0,m,Mon Apr 07 2025 10:08:40 GMT-0500 (Central Daylight Time),448582.60000002384,O,z,1658,25,1,146.bmp,-120,-120,147.bmp,120,-120,148.bmp,-120,120,149.bmp,120,120,9699.399999976158,438883.2000000477,7118,no,SM,A,148.bmp,120,120,178762,172731,180780,174748,441693.0,435676.0,443710.0,437678.0,25
1,1,0,0,0,8,test,1,0,z,Mon Apr 07 2025 10:08:40 GMT-0500 (Central Daylight Time),458645.89999997616,O,None,2015,26,1,138.bmp,-120,-120,139.bmp,120,-120,140.bmp,-120,120,141.bmp,120,120,10050.5,448595.39999997616,7118,yes,SM,A,138.bmp,-120,-120,178762,172731,180780,174748,451406.0,445388.0,453423.0,447392.0,26
4,0,0,0,1,8,test,1,0,z,Mon Apr 07 2025 10:08:40 GMT-0500 (Central Daylight Time),468408.7999999523,O,m,1704,27,1,150.bmp,-120,-120,111.bmp,120,-120,101.bmp,-120,120,102.bmp,120,120,9750.099999904633,458658.7000000477,7118,yes,SM,A,102.bmp,120,120,178762,172731,180780,174748,461469.0,455451.0,463487.0,457456.0,27
3,0,0,1,0,9,test,1,1,m,Mon Apr 07 2025 10:08:40 GMT-0500 (Central Daylight Time),477606.2999999523,O,m,1133,28,1,103.bmp,-120,-120,104.bmp,120,-120,105.bmp,-120,120,106.bmp,120,120,9192.399999976158,468413.89999997616,7118,no,SM,A,103.bmp,-120,120,178762,172731,180780,174748,471233.0,465206.0,473251.0,467217.0,28
2,0,1,0,0,9,test,1,0,z,Mon Apr 07 2025 10:08:40 GMT-0500 (Central Daylight Time),487353.10000002384,O,m,1689,29,1,107.bmp,-120,-120,108.bmp,120,-120,109.bmp,-120,120,110.bmp,120,120,9733.100000023842,477620.0,7118,yes,SM,A,108.bmp,120,-120,178762,172731,180780,174748,480430.0,474413.0,482447.0,476416.0,29
3,0,0,1,0,9,test,1,0,z,Mon Apr 07 2025 10:08:40 GMT-0500 (Central Daylight Time),497416.7999999523,O,None,2015,30,1,111.bmp,-120,-120,112.bmp,120,-120,113.bmp,-120,120,114.bmp,120,120,10050.699999928474,487366.10000002384,7118,yes,SM,A,113.bmp,-120,120,178762,172731,180780,174748,490177.0,484159.0,492194.0,486162.0,30
1,1,0,0,0,10,test,1,1,z,Mon Apr 07 2025 10:08:40 GMT-0500 (Central Daylight Time),506097.0,O,z,614,31,1,115.bmp,-120,-120,116.bmp,120,-120,117.bmp,-120,120,118.bmp,120,120,8663.600000023842,497433.39999997616,7118,yes,SM,A,115.bmp,-120,-120,178762,172731,180780,174748,500257.0,494226.0,502274.0,496242.0,31
2,0,1,0,0,10,test,1,0,m,Mon Apr 07 2025 10:08:40 GMT-0500 (Central Daylight Time),516160.2000000477,O,None,2014,32,1,119.bmp,-120,-120,120.bmp,120,-120,121.bmp,-120,120,122.bmp,120,120,10050.0,506110.2000000477,7118,no,SM,A,119.bmp,120,-120,178762,172731,180780,174748,508921.0,502903.0,510938.0,504906.0,32
4,0,0,0,1,10,test,1,0,z,Mon Apr 07 2025 10:08:40 GMT-0500 (Central Daylight Time),526190.3999999762,O,m,1967,33,1,131.bmp,-120,-120,132.bmp,120,-120,133.bmp,-120,120,134.bmp,120,120,10017.199999928474,516173.2000000477,7118,yes,SM,A,134.bmp,120,120,178762,172731,180780,174748,518984.0,512966.0,521001.0,514969.0,33
2,0,1,0,0,11,test,1,1,z,Mon Apr 07 2025 10:08:40 GMT-0500 (Central Daylight Time),535753.8999999762,O,z,1488,34,1,123.bmp,-120,-120,124.bmp,120,-120,125.bmp,-120,120,126.bmp,120,120,9548.799999952316,526205.1000000238,7118,yes,SM,A,124.bmp,120,-120,178762,172731,180780,174748,529031.0,522998.0,531048.0,525016.0,34
4,0,0,0,1,11,test,1,0,m,Mon Apr 07 2025 10:08:40 GMT-0500 (Central Daylight Time),545817.1000000238,O,None,2016,35,1,127.bmp,-120,-120,128.bmp,120,-120,129.bmp,-120,120,130.bmp,120,120,10050.0,535767.1000000238,7118,no,SM,A,129.bmp,120,120,178762,172731,180780,174748,538577.0,532560.0,540593.0,534563.0,35
3,0,0,1,0,11,test,1,0,m,Mon Apr 07 2025 10:08:40 GMT-0500 (Central Daylight Time),554981.0,O,z,1102,36,1,135.bmp,-120,-120,136.bmp,120,-120,137.bmp,-120,120,138.bmp,120,120,9151.100000023842,545829.8999999762,7118,no,SM,A,135.bmp,-120,120,178762,172731,180780,174748,548641.0,542623.0,550658.0,544627.0,36
1,1,0,0,0,11,test,1,0,m,Mon Apr 07 2025 10:08:40 GMT-0500 (Central Daylight Time),564494.6000000238,O,z,1450,37,1,139.bmp,-120,-120,140.bmp,120,-120,141.bmp,-120,120,142.bmp,120,120,9499.700000047684,554994.8999999762,7118,no,SM,A,140.bmp,-120,-120,178762,172731,180780,174748,557804.0,551788.0,559822.0,553790.0,37
2,0,1,0,0,12,test,1,1,m,Mon Apr 07 2025 10:08:40 GMT-0500 (Central Daylight Time),574091.1000000238,O,m,1537,38,1,143.bmp,-120,-120,144.bmp,120,-120,145.bmp,-120,120,146.bmp,120,120,9584.600000023842,564506.5,7118,no,SM,A,145.bmp,120,-120,178762,172731,180780,174748,567318.0,561299.0,569335.0,563303.0,38
4,0,0,0,1,13,test,1,1,z,Mon Apr 07 2025 10:08:40 GMT-0500 (Central Daylight Time),583888.1000000238,O,z,1740,39,1,147.bmp,-120,-120,148.bmp,120,-120,149.bmp,-120,120,150.bmp,120,120,9784.100000023842,574104.0,7118,yes,SM,A,150.bmp,120,120,178762,172731,180780,174748,576915.0,570897.0,578932.0,572901.0,39
3,0,0,1,0,14,test,1,1,m,Mon Apr 07 2025 10:08:40 GMT-0500 (Central Daylight Time),593201.5,O,m,1263,40,1,104.bmp,-120,-120,105.bmp,120,-120,106.bmp,-120,120,107.bmp,120,120,9300.0,583901.5,7118,no,SM,A,105.bmp,-120,120,178762,172731,180780,174748,586712.0,580694.0,588729.0,582697.0,40
1,1,0,0,0,15,test,1,1,z,Mon Apr 07 2025 10:08:40 GMT-0500 (Central Daylight Time),602748.6000000238,O,z,1493,41,1,108.bmp,-120,-120,109.bmp,120,-120,110.bmp,-120,120,111.bmp,120,120,9534.300000071526,593214.2999999523,7118,yes,SM,A,108.bmp,-120,-120,178762,172731,180780,174748,596025.0,590007.0,598043.0,592011.0,41
4,0,0,0,1,15,test,1,0,z,Mon Apr 07 2025 10:08:40 GMT-0500 (Central Daylight Time),612811.8999999762,O,None,2015,42,1,112.bmp,-120,-120,113.bmp,120,-120,114.bmp,-120,120,115.bmp,120,120,10051.600000023842,602760.2999999523,7118,yes,SM,A,115.bmp,120,120,178762,172731,180780,174748,605572.0,599553.0,607589.0,601558.0,42
1,1,0,0,0,16,test,1,1,z,Mon Apr 07 2025 10:08:40 GMT-0500 (Central Daylight Time),622108.8999999762,O,z,1235,43,1,116.bmp,-120,-120,117.bmp,120,-120,118.bmp,-120,120,119.bmp,120,120,9284.699999928474,612824.2000000477,7118,yes,SM,A,116.bmp,-120,-120,178762,172731,180780,174748,615635.0,609617.0,617653.0,611621.0,43
4,0,0,0,1,16,test,1,0,m,Mon Apr 07 2025 10:08:40 GMT-0500 (Central Daylight Time),632172.2000000477,O,None,2015,44,1,104.bmp,-120,-120,101.bmp,120,-120,102.bmp,-120,120,103.bmp,120,120,10050.600000023842,622121.6000000238,7118,no,SM,A,104.bmp,120,120,178762,172731,180780,174748,624932.0,618914.0,626949.0,620917.0,44
1,1,0,0,0,17,test,1,1,m,Mon Apr 07 2025 10:08:40 GMT-0500 (Central Daylight Time),641302.7999999523,O,m,1075,45,1,128.bmp,-120,-120,129.bmp,120,-120,130.bmp,-120,120,131.bmp,120,120,9116.399999976158,632186.3999999762,7118,no,SM,A,131.bmp,-120,-120,178762,172731,180780,174748,634995.0,628979.0,637013.0,630982.0,45
1,1,0,0,0,18,test,1,1,m,Mon Apr 07 2025 10:08:40 GMT-0500 (Central Daylight Time),650383.0,O,m,1008,46,1,120.bmp,-120,-120,121.bmp,120,-120,122.bmp,-120,120,123.bmp,120,120,9065.799999952316,641317.2000000477,7118,no,SM,A,121.bmp,-120,-120,178762,172731,180780,174748,644143.0,638110.0,646160.0,640128.0,46
3,0,0,1,0,19,test,1,1,z,Mon Apr 07 2025 10:08:40 GMT-0500 (Central Daylight Time),659962.2000000477,O,z,1501,47,1,124.bmp,-120,-120,125.bmp,120,-120,126.bmp,-120,120,127.bmp,120,120,9564.700000047684,650397.5,7118,yes,SM,A,126.bmp,-120,120,178762,172731,180780,174748,653223.0,647191.0,655241.0,649209.0,47
3,0,0,1,0,20,test,1,1,z,Mon Apr 07 2025 10:08:40 GMT-0500 (Central Daylight Time),669292.7000000477,O,z,1268,48,1,140.bmp,-120,-120,141.bmp,120,-120,142.bmp,-120,120,143.bmp,120,120,9327.200000047684,659965.5,7118,yes,SM,A,142.bmp,-120,120,178762,172731,180780,174748,662787.0,656758.0,664804.0,658772.0,48
2,0,1,0,0,20,test,1,0,z,Mon Apr 07 2025 10:08:40 GMT-0500 (Central Daylight Time),679006.8999999762,O,m,1658,49,1,136.bmp,-120,-120,137.bmp,120,-120,138.bmp,-120,120,139.bmp,120,120,9706.399999976158,669300.5,7118,yes,SM,A,137.bmp,120,-120,178762,172731,180780,174748,672117.0,666093.0,674134.0,668103.0,49
3,0,0,1,0,21,test,1,1,m,Mon Apr 07 2025 10:08:40 GMT-0500 (Central Daylight Time),688820.1000000238,O,m,1760,50,1,132.bmp,-120,-120,133.bmp,120,-120,134.bmp,-120,120,135.bmp,120,120,9798.800000071526,679021.2999999523,7118,no,SM,A,132.bmp,-120,120,178762,172731,180780,174748,681831.0,675814.0,683848.0,677816.0,50
2,0,1,0,0,22,test,1,1,z,Mon Apr 07 2025 10:08:40 GMT-0500 (Central Daylight Time),698733.8999999762,O,z,1851,51,1,144.bmp,-120,-120,145.bmp,120,-120,146.bmp,-120,120,147.bmp,120,120,9901.699999928474,688832.2000000477,7118,yes,SM,A,145.bmp,120,-120,178762,172731,180780,174748,691644.0,685625.0,693661.0,687629.0,51
4,0,0,0,1,22,test,1,0,m,Mon Apr 07 2025 10:08:40 GMT-0500 (Central Daylight Time),708463.7999999523,O,z,1673,52,1,148.bmp,-120,-120,149.bmp,120,-120,150.bmp,-120,120,131.bmp,120,120,9717.299999952316,698746.5,7118,no,SM,A,148.bmp,120,120,178762,172731,180780,174748,701557.0,695539.0,703575.0,697543.0,52
3,0,0,1,0,22,test,1,0,z,Mon Apr 07 2025 10:08:40 GMT-0500 (Central Daylight Time),718277.2000000477,O,m,1752,53,1,101.bmp,-120,-120,102.bmp,120,-120,103.bmp,-120,120,104.bmp,120,120,9801.300000071526,708475.8999999762,7118,yes,SM,A,103.bmp,-120,120,178762,172731,180780,174748,711287.0,705269.0,713304.0,707273.0,53
1,1,0,0,0,22,test,1,0,m,Mon Apr 07 2025 10:08:40 GMT-0500 (Central Daylight Time),728257.5,O,z,1905,54,1,105.bmp,-120,-120,106.bmp,120,-120,107.bmp,-120,120,108.bmp,120,120,9966.100000023842,718291.3999999762,7118,no,SM,A,107.bmp,-120,-120,178762,172731,180780,174748,721118.0,715084.0,723135.0,717101.0,54
4,0,0,0,1,22,test,1,0,z,Mon Apr 07 2025 10:08:40 GMT-0500 (Central Daylight Time),737487.7000000477,O,m,1166,55,1,109.bmp,-120,-120,110.bmp,120,-120,111.bmp,-120,120,112.bmp,120,120,9218.100000023842,728269.6000000238,7118,yes,SM,A,112.bmp,120,120,178762,172731,180780,174748,731081.0,725062.0,733098.0,727065.0,55
2,0,1,0,0,22,test,1,0,m,Mon Apr 07 2025 10:08:40 GMT-0500 (Central Daylight Time),747551.6000000238,O,None,2016,56,1,113.bmp,-120,-120,114.bmp,120,-120,115.bmp,-120,120,116.bmp,120,120,10050.700000047684,737500.8999999762,7118,no,SM,A,113.bmp,120,-120,178762,172731,180780,174748,740312.0,734294.0,742327.0,736298.0,56
4,0,0,0,1,23,test,1,1,m,Mon Apr 07 2025 10:08:40 GMT-0500 (Central Daylight Time),757047.8999999762,O,m,1440,57,1,117.bmp,-120,-120,118.bmp,120,-120,119.bmp,-120,120,120.bmp,120,120,9483.600000023842,747564.2999999523,7118,no,SM,A,118.bmp,120,120,178762,172731,180780,174748,750375.0,744358.0,752392.0,746361.0,57
3,0,0,1,0,23,test,1,0,z,Mon Apr 07 2025 10:08:40 GMT-0500 (Central Daylight Time),766844.6000000238,O,m,1719,58,1,121.bmp,-120,-120,122.bmp,120,-120,123.bmp,-120,120,124.bmp,120,120,9781.700000047684,757062.8999999762,7118,yes,SM,A,123.bmp,-120,120,178762,172731,180780,174748,759888.0,753856.0,761905.0,755874.0,58
2,0,1,0,0,23,test,1,0,m,Mon Apr 07 2025 10:08:40 GMT-0500 (Central Daylight Time),776375.0,O,z,1466,59,1,125.bmp,-120,-120,126.bmp,120,-120,127.bmp,-120,120,128.bmp,120,120,9516.299999952316,766858.7000000477,7118,no,SM,A,128.bmp,120,-120,178762,172731,180780,174748,769668.0,763651.0,771686.0,765654.0,59
1,1,0,0,0,24,test,1,1,z,Mon Apr 07 2025 10:08:40 GMT-0500 (Central Daylight Time),785788.7000000477,O,z,1352,60,1,129.bmp,-120,-120,130.bmp,120,-120,131.bmp,-120,120,132.bmp,120,120,9399.900000095367,776388.7999999523,7118,yes,SM,A,129.bmp,-120,-120,178762,172731,180780,174748,779199.0,773181.0,781216.0,775184.0,60
2,0,1,0,0,24,test,1,0,z,Mon Apr 07 2025 10:08:40 GMT-0500 (Central Daylight Time),795068.7999999523,O,m,1226,61,1,133.bmp,-120,-120,134.bmp,120,-120,135.bmp,-120,120,136.bmp,120,120,9267.799999952316,785801.0,7118,yes,SM,A,134.bmp,120,-120,178762,172731,180780,174748,788612.0,782594.0,790629.0,784598.0,61
4,0,0,0,1,25,test,1,1,z,Mon Apr 07 2025 10:08:40 GMT-0500 (Central Daylight Time),804515.6000000238,O,z,1394,62,1,141.bmp,-120,-120,142.bmp,120,-120,143.bmp,-120,120,144.bmp,120,120,9434.200000047684,795081.3999999762,7118,yes,SM,A,144.bmp,120,120,178762,172731,180780,174748,797892.0,791874.0,799910.0,793878.0,62
1,1,0,0,0,26,test,1,1,m,Mon Apr 07 2025 10:08:40 GMT-0500 (Central Daylight Time),813996.0,O,m,1403,63,1,145.bmp,-120,-120,146.bmp,120,-120,147.bmp,-120,120,148.bmp,120,120,9465.799999952316,804530.2000000477,7118,no,SM,A,145.bmp,-120,120,178762,172731,180780,174748,807356.0,801323.0,809373.0,803341.0,63
2,0,1,0,0,26,test,1,0,z,Mon Apr 07 2025 10:08:40 GMT-0500 (Central Daylight Time),824059.2999999523,O,None,2016,64,1,149.bmp,-120,-120,150.bmp,120,-120,112.bmp,-120,120,101.bmp,120,120,10051.5,814007.7999999523,7118,yes,SM,A,150.bmp,120,-120,178762,172731,180780,174748,816819.0,810800.0,818835.0,812805.0,64
4,0,0,0,1,27,test,1,1,m,Mon Apr 07 2025 10:08:40 GMT-0500 (Central Daylight Time),833522.7000000477,O,m,1405,65,1,102.bmp,-120,-120,103.bmp,120,-120,104.bmp,-120,120,105.bmp,120,120,9450.5,824072.2000000477,7118,no,SM,A,104.bmp,120,120,178762,172731,180780,174748,826883.0,820865.0,828900.0,822869.0,65
3,0,0,1,0,28,test,1,1,m,Mon Apr 07 2025 10:08:40 GMT-0500 (Central Daylight Time),842786.3999999762,O,m,1204,66,1,106.bmp,-120,-120,107.bmp,120,-120,108.bmp,-120,120,109.bmp,120,120,9250.399999976158,833536.0,7118,no,SM,A,109.bmp,-120,120,178762,172731,180780,174748,836347.0,830329.0,838364.0,832332.0,66
2,0,1,0,0,29,test,1,1,m,Mon Apr 07 2025 10:08:40 GMT-0500 (Central Daylight Time),852483.2999999523,O,m,1645,67,1,137.bmp,-120,-120,138.bmp,120,-120,139.bmp,-120,120,140.bmp,120,120,9684.799999952316,842798.5,7118,no,SM,A,139.bmp,120,-120,178762,172731,180780,174748,845609.0,839591.0,847627.0,841596.0,67
3,0,0,1,0,30,test,1,1,z,Mon Apr 07 2025 10:08:40 GMT-0500 (Central Daylight Time),861996.7000000477,O,z,1452,68,1,110.bmp,-120,-120,111.bmp,120,-120,112.bmp,-120,120,113.bmp,120,120,9501.100000023842,852495.6000000238,7118,yes,SM,A,112.bmp,-120,120,178762,172731,180780,174748,855307.0,849288.0,857324.0,851291.0,68
1,1,0,0,0,31,test,1,1,m,Mon Apr 07 2025 10:08:40 GMT-0500 (Central Daylight Time),871277.1000000238,O,m,1226,69,1,114.bmp,-120,-120,115.bmp,120,-120,116.bmp,-120,120,117.bmp,120,120,9268.0,862009.1000000238,7118,no,SM,A,115.bmp,-120,-120,178762,172731,180780,174748,864820.0,858802.0,866838.0,860806.0,69
2,0,1,0,0,32,test,1,1,m,Mon Apr 07 2025 10:08:40 GMT-0500 (Central Daylight Time),881140.6000000238,O,m,1802,70,1,118.bmp,-120,-120,119.bmp,120,-120,120.bmp,-120,120,121.bmp,120,120,9848.899999976158,871291.7000000477,7118,no,SM,A,120.bmp,120,-120,178762,172731,180780,174748,874101.0,868084.0,876118.0,870086.0,70
4,0,0,0,1,33,test,1,1,z,Mon Apr 07 2025 10:08:40 GMT-0500 (Central Daylight Time),890820.6000000238,O,z,1602,71,1,122.bmp,-120,-120,123.bmp,120,-120,124.bmp,-120,120,125.bmp,120,120,9664.800000071526,881155.7999999523,7118,yes,SM,A,125.bmp,120,120,178762,172731,180780,174748,883981.0,877949.0,885998.0,879967.0,71
1,1,0,0,0,33,test,1,0,z,Mon Apr 07 2025 10:08:40 GMT-0500 (Central Daylight Time),900884.2000000477,O,None,2015,72,1,126.bmp,-120,-120,127.bmp,120,-120,128.bmp,-120,120,129.bmp,120,120,10050.700000047684,890833.5,7118,yes,SM,A,126.bmp,-120,-120,178762,172731,180780,174748,893644.0,887626.0,895661.0,889630.0,72
2,0,1,0,0,33,test,1,0,z,Mon Apr 07 2025 10:08:40 GMT-0500 (Central Daylight Time),910114.3999999762,O,m,1179,73,1,130.bmp,-120,-120,131.bmp,120,-120,132.bmp,-120,120,133.bmp,120,120,9218.0,900896.3999999762,7118,yes,SM,A,131.bmp,120,-120,178762,172731,180780,174748,903708.0,897689.0,905725.0,899693.0,73
4,0,0,0,1,34,test,1,1,m,Mon Apr 07 2025 10:08:40 GMT-0500 (Central Daylight Time),919628.1000000238,O,m,1461,74,1,134.bmp,-120,-120,135.bmp,120,-120,136.bmp,-120,120,137.bmp,120,120,9501.100000023842,910127.0,7118,no,SM,A,136.bmp,120,120,178762,172731,180780,174748,912938.0,906920.0,914955.0,908924.0,74
2,0,1,0,0,35,test,1,1,m,Mon Apr 07 2025 10:08:40 GMT-0500 (Central Daylight Time),928841.1000000238,O,m,1179,75,1,138.bmp,-120,-120,139.bmp,120,-120,140.bmp,-120,120,141.bmp,120,120,9198.800000071526,919642.2999999523,7118,no,SM,A,141.bmp,120,-120,178762,172731,180780,174748,922451.0,916435.0,924453.0,918437.0,75
1,1,0,0,0,36,test,1,1,z,Mon Apr 07 2025 10:08:40 GMT-0500 (Central Daylight Time),938604.7999999523,O,z,1713,76,1,142.bmp,-120,-120,143.bmp,120,-120,144.bmp,-120,120,145.bmp,120,120,9750.099999904633,928854.7000000477,7118,yes,SM,A,142.bmp,-120,-120,178762,172731,180780,174748,931665.0,925647.0,933680.0,927651.0,76
3,0,0,1,0,37,test,1,1,z,Mon Apr 07 2025 10:08:40 GMT-0500 (Central Daylight Time),948085.2000000477,O,z,1419,77,1,150.bmp,-120,-120,111.bmp,120,-120,101.bmp,-120,120,102.bmp,120,120,9467.5,938617.7000000477,7118,yes,SM,A,101.bmp,-120,120,178762,172731,180780,174748,941429.0,935410.0,943445.0,937414.0,77
1,1,0,0,0,37,test,1,0,m,Mon Apr 07 2025 10:08:40 GMT-0500 (Central Daylight Time),957465.2999999523,O,z,1331,78,1,146.bmp,-120,-120,147.bmp,120,-120,148.bmp,-120,120,149.bmp,120,120,9366.699999928474,948098.6000000238,7118,no,SM,A,147.bmp,-120,-120,178762,172731,180780,174748,950909.0,944891.0,952926.0,946893.0,78
4,0,0,0,1,38,test,1,1,m,Mon Apr 07 2025 10:08:40 GMT-0500 (Central Daylight Time),966795.7000000477,O,m,1253,79,1,107.bmp,-120,-120,108.bmp,120,-120,109.bmp,-120,120,110.bmp,120,120,9313.400000095367,957482.2999999523,7118,no,SM,A,107.bmp,120,120,178762,172731,180780,174748,960306.0,954275.0,962323.0,956291.0,79
3,0,0,1,0,38,test,1,0,m,Mon Apr 07 2025 10:08:40 GMT-0500 (Central Daylight Time),976825.7000000477,O,z,1972,80,1,103.bmp,-120,-120,104.bmp,120,-120,105.bmp,-120,120,106.bmp,120,120,10016.800000071526,966808.8999999762,7118,no,SM,A,106.bmp,-120,120,178762,172731,180780,174748,969619.0,963602.0,971636.0,965605.0,80
