block_c,block_dur,condition,countdown,datetime,endtime,list,multichar_response,project,response,response_time,session_number,start_end,starttime,subject_id,task,task_vers,trial
,,,,Thu Apr 17 2025 17:22:43 GMT-0500 (Central Daylight Time),,,,O,space,1395,1,,,7111,WL,C,
prac,,0,,Thu Apr 17 2025 17:22:43 GMT-0500 (Central Daylight Time),,NA,b,O,b,2000,1,,,7111,WL,C,1.0
prac,,0,,Thu Apr 17 2025 17:22:43 GMT-0500 (Central Daylight Time),,NA,bo,O,o,339,1,,,7111,WL,C,1.0
prac,,0,,Thu Apr 17 2025 17:22:43 GMT-0500 (Central Daylight Time),,NA,boo,O,o,150,1,,,7111,WL,C,1.0
prac,,0,,Thu Apr 17 2025 17:22:43 GMT-0500 (Central Daylight Time),,NA,boos,O,s,168,1,,,7111,WL,C,1.0
prac,,0,,Thu Apr 17 2025 17:22:43 GMT-0500 (Central Daylight Time),,NA,boost,O,t,185,1,,,7111,WL,C,1.0
prac,,0,,Thu Apr 17 2025 17:22:43 GMT-0500 (Central Daylight Time),,NA,boostenter,O,enter,1617,1,,,7111,WL,C,1.0
1,2.7829999923706055,learn,57217.000007629395,Thu Apr 17 2025 17:22:43 GMT-0500 (Central Daylight Time),289819.299999997,A,t,O,t,2758,1,2782.6999999955297,287036.6000000015,7111,WL,C,1.0
1,3.0329999923706055,learn,56967.000007629395,Thu Apr 17 2025 17:22:43 GMT-0500 (Central Daylight Time),290068.799999997,A,to,O,o,234,1,3032.1999999955297,287036.6000000015,7111,WL,C,1.0
1,3.2330000400543213,learn,56766.99995994568,Thu Apr 17 2025 17:22:43 GMT-0500 (Central Daylight Time),290268.700000003,A,tow,O,w,184,1,3232.10000000149,287036.6000000015,7111,WL,C,1.0
1,3.5160000324249268,learn,56483.99996757507,Thu Apr 17 2025 17:22:43 GMT-0500 (Central Daylight Time),290552.1000000015,A,towe,O,e,265,1,3515.5,287036.6000000015,7111,WL,C,1.0
1,3.7990000247955322,learn,56200.99997520447,Thu Apr 17 2025 17:22:43 GMT-0500 (Central Daylight Time),290835.200000003,A,tower,O,r,262,1,3798.60000000149,287036.6000000015,7111,WL,C,1.0
1,5.116000175476074,learn,54883.999824523926,Thu Apr 17 2025 17:22:43 GMT-0500 (Central Daylight Time),292151.3999999985,A,towerenter,O,enter,1307,1,5114.79999999702,287036.6000000015,7111,WL,C,1.0
1,6.582000017166138,learn,53417.99998283386,Thu Apr 17 2025 17:22:43 GMT-0500 (Central Daylight Time),293617.700000003,A,w,O,w,1445,1,1465.7000000029802,292152.0,7111,WL,C,2.0
1,6.932000160217285,learn,53067.999839782715,Thu Apr 17 2025 17:22:43 GMT-0500 (Central Daylight Time),293967.6000000015,A,wh,O,h,340,1,1815.6000000014901,292152.0,7111,WL,C,2.0
1,7.215000152587891,learn,52784.99984741211,Thu Apr 17 2025 17:22:43 GMT-0500 (Central Daylight Time),294251.0,A,whe,O,e,262,1,2099.0,292152.0,7111,WL,C,2.0
1,7.631999969482422,learn,52368.00003051758,Thu Apr 17 2025 17:22:43 GMT-0500 (Central Daylight Time),294667.3999999985,A,whea,O,a,395,1,2515.39999999851,292152.0,7111,WL,C,2.0
1,7.8480000495910645,learn,52151.999950408936,Thu Apr 17 2025 17:22:43 GMT-0500 (Central Daylight Time),294884.200000003,A,wheat,O,t,202,1,2732.2000000029802,292152.0,7111,WL,C,2.0
1,8.531000137329102,learn,51468.9998626709,Thu Apr 17 2025 17:22:43 GMT-0500 (Central Daylight Time),295567.200000003,A,wheatenter,O,enter,665,1,3415.2000000029802,292152.0,7111,WL,C,2.0
1,9.398000001907349,learn,50601.99999809265,Thu Apr 17 2025 17:22:43 GMT-0500 (Central Daylight Time),296433.3999999985,A,q,O,q,854,1,865.7999999970198,295567.6000000015,7111,WL,C,3.0
1,9.764000177383423,learn,50235.99982261658,Thu Apr 17 2025 17:22:43 GMT-0500 (Central Daylight Time),296800.1000000015,A,qu,O,u,356,1,1232.5,295567.6000000015,7111,WL,C,3.0
1,10.314000129699707,learn,49685.99987030029,Thu Apr 17 2025 17:22:43 GMT-0500 (Central Daylight Time),297350.0,A,que,O,e,534,1,1782.3999999985099,295567.6000000015,7111,WL,C,3.0
1,10.581000089645386,learn,49418.999910354614,Thu Apr 17 2025 17:22:43 GMT-0500 (Central Daylight Time),297616.3999999985,A,quee,O,e,257,1,2048.7999999970198,295567.6000000015,7111,WL,C,3.0
1,10.894999980926514,learn,49105.000019073486,Thu Apr 17 2025 17:22:43 GMT-0500 (Central Daylight Time),297932.8999999985,A,queen,O,n,301,1,2365.2999999970198,295567.6000000015,7111,WL,C,3.0
1,11.495000123977661,learn,48504.99987602234,Thu Apr 17 2025 17:22:43 GMT-0500 (Central Daylight Time),298532.8999999985,A,queenenter,O,enter,593,1,2965.2999999970198,295567.6000000015,7111,WL,C,3.0
1,11.878000020980835,learn,48121.999979019165,Thu Apr 17 2025 17:22:43 GMT-0500 (Central Daylight Time),298915.8999999985,A,s,O,s,377,1,382.6000000014901,298533.299999997,7111,WL,C,4.0
1,12.094000101089478,learn,47905.99989891052,Thu Apr 17 2025 17:22:43 GMT-0500 (Central Daylight Time),299132.5,A,su,O,u,210,1,599.2000000029802,298533.299999997,7111,WL,C,4.0
1,12.42799997329712,learn,47572.00002670288,Thu Apr 17 2025 17:22:43 GMT-0500 (Central Daylight Time),299465.8999999985,A,sug,O,g,321,1,932.6000000014901,298533.299999997,7111,WL,C,4.0
1,12.67799997329712,learn,47322.00002670288,Thu Apr 17 2025 17:22:43 GMT-0500 (Central Daylight Time),299715.700000003,A,suga,O,a,244,1,1182.4000000059605,298533.299999997,7111,WL,C,4.0
1,13.394000053405762,learn,46605.99994659424,Thu Apr 17 2025 17:22:43 GMT-0500 (Central Daylight Time),300432.299999997,A,sugar,O,r,706,1,1899.0,298533.299999997,7111,WL,C,4.0
1,14.24400019645691,learn,45755.99980354309,Thu Apr 17 2025 17:22:43 GMT-0500 (Central Daylight Time),301282.0,A,sugarenter,O,enter,830,1,2748.7000000029802,298533.299999997,7111,WL,C,4.0
1,15.577000141143799,learn,44422.9998588562,Thu Apr 17 2025 17:22:43 GMT-0500 (Central Daylight Time),302614.799999997,A,f,O,f,1316,1,1332.5,301282.299999997,7111,WL,C,5.0
1,15.843000173568726,learn,44156.999826431274,Thu Apr 17 2025 17:22:43 GMT-0500 (Central Daylight Time),302881.3999999985,A,fl,O,l,247,1,1599.1000000014901,301282.299999997,7111,WL,C,5.0
1,16.094000101089478,learn,43905.99989891052,Thu Apr 17 2025 17:22:43 GMT-0500 (Central Daylight Time),303131.8999999985,A,fla,O,a,228,1,1849.6000000014901,301282.299999997,7111,WL,C,5.0
1,16.610000133514404,learn,43389.999866485596,Thu Apr 17 2025 17:22:43 GMT-0500 (Central Daylight Time),303647.799999997,A,flag,O,g,506,1,2365.5,301282.299999997,7111,WL,C,5.0
1,17.093000173568726,learn,42906.999826431274,Thu Apr 17 2025 17:22:43 GMT-0500 (Central Daylight Time),304131.1000000015,A,flagenter,O,enter,470,1,2848.8000000044703,301282.299999997,7111,WL,C,5.0
1,17.39300012588501,learn,42606.99987411499,Thu Apr 17 2025 17:22:43 GMT-0500 (Central Daylight Time),304431.0,A,c,O,c,282,1,299.6000000014901,304131.3999999985,7111,WL,C,6.0
1,17.676000118255615,learn,42323.999881744385,Thu Apr 17 2025 17:22:43 GMT-0500 (Central Daylight Time),304714.299999997,A,co,O,o,262,1,582.8999999985099,304131.3999999985,7111,WL,C,6.0
1,17.960000038146973,learn,42039.99996185303,Thu Apr 17 2025 17:22:43 GMT-0500 (Central Daylight Time),304997.700000003,A,cor,O,r,276,1,866.3000000044703,304131.3999999985,7111,WL,C,6.0
1,18.176000118255615,learn,41823.999881744385,Thu Apr 17 2025 17:22:43 GMT-0500 (Central Daylight Time),305214.200000003,A,corn,O,n,200,1,1082.8000000044703,304131.3999999985,7111,WL,C,6.0
1,18.676000118255615,learn,41323.999881744385,Thu Apr 17 2025 17:22:43 GMT-0500 (Central Daylight Time),305714.200000003,A,cornenter,O,enter,480,1,1582.8000000044703,304131.3999999985,7111,WL,C,6.0
1,20.192000150680542,learn,39807.99984931946,Thu Apr 17 2025 17:22:43 GMT-0500 (Central Daylight Time),307230.200000003,A,f,O,f,1507,1,1515.6000000014901,305714.6000000015,7111,WL,C,7.0
1,20.407999992370605,learn,39592.000007629395,Thu Apr 17 2025 17:22:43 GMT-0500 (Central Daylight Time),307446.5,A,fl,O,l,207,1,1731.8999999985099,305714.6000000015,7111,WL,C,7.0
1,20.725000143051147,learn,39274.99985694885,Thu Apr 17 2025 17:22:43 GMT-0500 (Central Daylight Time),307763.5,A,fla,O,a,302,1,2048.89999999851,305714.6000000015,7111,WL,C,7.0
1,20.892000198364258,learn,39107.99980163574,Thu Apr 17 2025 17:22:43 GMT-0500 (Central Daylight Time),307930.0,A,flag,O,g,155,1,2215.39999999851,305714.6000000015,7111,WL,C,7.0
1,21.558000087738037,learn,38441.99991226196,Thu Apr 17 2025 17:22:43 GMT-0500 (Central Daylight Time),308596.299999997,A,flagenter,O,enter,652,1,2881.6999999955297,305714.6000000015,7111,WL,C,7.0
1,26.623000144958496,learn,33376.999855041504,Thu Apr 17 2025 17:22:43 GMT-0500 (Central Daylight Time),313661.3999999985,A,b,O,b,5050,1,5064.69999999553,308596.700000003,7111,WL,C,8.0
1,26.84000015258789,learn,33159.99984741211,Thu Apr 17 2025 17:22:43 GMT-0500 (Central Daylight Time),313878.200000003,A,bo,O,o,200,1,5281.5,308596.700000003,7111,WL,C,8.0
1,27.17300009727478,learn,32826.99990272522,Thu Apr 17 2025 17:22:43 GMT-0500 (Central Daylight Time),314211.3999999985,A,boy,O,y,312,1,5614.69999999553,308596.700000003,7111,WL,C,8.0
1,27.606000185012817,learn,32393.999814987183,Thu Apr 17 2025 17:22:43 GMT-0500 (Central Daylight Time),314644.5,A,boyenter,O,enter,419,1,6047.79999999702,308596.700000003,7111,WL,C,8.0
1,27.956000089645386,learn,32043.999910354614,Thu Apr 17 2025 17:22:43 GMT-0500 (Central Daylight Time),314994.6000000015,A,c,O,c,338,1,349.70000000298023,314644.8999999985,7111,WL,C,9.0
1,28.25600004196167,learn,31743.99995803833,Thu Apr 17 2025 17:22:43 GMT-0500 (Central Daylight Time),315294.3999999985,A,ca,O,a,284,1,649.5,314644.8999999985,7111,WL,C,9.0
1,28.456000089645386,learn,31543.999910354614,Thu Apr 17 2025 17:22:43 GMT-0500 (Central Daylight Time),315494.1000000015,A,cam,O,m,184,1,849.2000000029802,314644.8999999985,7111,WL,C,9.0
1,28.83899998664856,learn,31161.00001335144,Thu Apr 17 2025 17:22:43 GMT-0500 (Central Daylight Time),315877.3999999985,A,camp,O,p,368,1,1232.5,314644.8999999985,7111,WL,C,9.0
1,29.305999994277954,learn,30694.000005722046,Thu Apr 17 2025 17:22:43 GMT-0500 (Central Daylight Time),316344.0,A,campenter,O,enter,449,1,1699.1000000014901,314644.8999999985,7111,WL,C,9.0
1,32.3050000667572,learn,27694.999933242798,Thu Apr 17 2025 17:22:43 GMT-0500 (Central Daylight Time),319343.1000000015,A,c,O,c,2990,1,2998.89999999851,316344.200000003,7111,WL,C,10.0
1,32.57100009918213,learn,27428.99990081787,Thu Apr 17 2025 17:22:43 GMT-0500 (Central Daylight Time),319609.3999999985,A,ca,O,a,247,1,3265.1999999955297,316344.200000003,7111,WL,C,10.0
1,32.8050000667572,learn,27194.999933242798,Thu Apr 17 2025 17:22:43 GMT-0500 (Central Daylight Time),319842.799999997,A,cat,O,t,213,1,3498.5999999940395,316344.200000003,7111,WL,C,10.0
1,32.97100019454956,learn,27028.99980545044,Thu Apr 17 2025 17:22:43 GMT-0500 (Central Daylight Time),320009.3999999985,A,catt,O,t,155,1,3665.1999999955297,316344.200000003,7111,WL,C,10.0
1,33.47100019454956,learn,26528.99980545044,Thu Apr 17 2025 17:22:43 GMT-0500 (Central Daylight Time),320509.5,A,cattl,O,l,485,1,4165.29999999702,316344.200000003,7111,WL,C,10.0
1,33.65400004386902,learn,26345.99995613098,Thu Apr 17 2025 17:22:43 GMT-0500 (Central Daylight Time),320692.6000000015,A,cattle,O,e,177,1,4348.39999999851,316344.200000003,7111,WL,C,10.0
1,34.30400013923645,learn,25695.99986076355,Thu Apr 17 2025 17:22:43 GMT-0500 (Central Daylight Time),321342.200000003,A,cattleenter,O,enter,642,1,4998.0,316344.200000003,7111,WL,C,10.0
1,44.634000062942505,learn,15365.999937057495,Thu Apr 17 2025 17:22:43 GMT-0500 (Central Daylight Time),331672.200000003,A,enter,O,enter,10320,1,10329.70000000298,321342.5,7111,WL,C,11.0
1,45.66700005531311,learn,14332.99994468689,Thu Apr 17 2025 17:22:43 GMT-0500 (Central Daylight Time),332705.5,A,enter,O,enter,1022,1,1032.8999999985099,331672.6000000015,7111,WL,C,12.0
1,46.51700019836426,learn,13482.999801635742,Thu Apr 17 2025 17:22:43 GMT-0500 (Central Daylight Time),333555.3999999985,A,enter,O,enter,845,1,849.5,332705.8999999985,7111,WL,C,13.0
1,47.782999992370605,learn,12217.000007629395,Thu Apr 17 2025 17:22:43 GMT-0500 (Central Daylight Time),334821.5,A,enter,O,enter,1259,1,1265.7999999970198,333555.700000003,7111,WL,C,14.0
1,48.85000014305115,learn,11149.999856948853,Thu Apr 17 2025 17:22:43 GMT-0500 (Central Daylight Time),335887.8999999985,A,enter,O,enter,1057,1,1066.0,334821.8999999985,7111,WL,C,15.0
2,1.5829999446868896,learn,58417.00005531311,Thu Apr 17 2025 17:22:43 GMT-0500 (Central Daylight Time),407698.799999997,A,h,O,h,1563,1,1582.7999999970198,406116.0,7111,WL,C,1.0
2,1.883000135421753,learn,58116.99986457825,Thu Apr 17 2025 17:22:43 GMT-0500 (Central Daylight Time),407998.6000000015,A,ho,O,o,291,1,1882.6000000014901,406116.0,7111,WL,C,1.0
2,2.1500000953674316,learn,57849.99990463257,Thu Apr 17 2025 17:22:43 GMT-0500 (Central Daylight Time),408265.299999997,A,hom,O,m,248,1,2149.2999999970198,406116.0,7111,WL,C,1.0
2,2.4660000801086426,learn,57533.99991989136,Thu Apr 17 2025 17:22:43 GMT-0500 (Central Daylight Time),408581.6000000015,A,home,O,e,301,1,2465.60000000149,406116.0,7111,WL,C,1.0
2,2.949000120162964,learn,57050.999879837036,Thu Apr 17 2025 17:22:43 GMT-0500 (Central Daylight Time),409064.799999997,A,homeenter,O,enter,472,1,2948.7999999970198,406116.0,7111,WL,C,1.0
2,3.4160001277923584,learn,56583.99987220764,Thu Apr 17 2025 17:22:43 GMT-0500 (Central Daylight Time),409531.5,A,b,O,b,461,1,466.1000000014901,409065.3999999985,7111,WL,C,2.0
2,3.615999937057495,learn,56384.000062942505,Thu Apr 17 2025 17:22:43 GMT-0500 (Central Daylight Time),409731.200000003,A,bo,O,o,179,1,665.8000000044703,409065.3999999985,7111,WL,C,2.0
2,3.9160001277923584,learn,56083.99987220764,Thu Apr 17 2025 17:22:43 GMT-0500 (Central Daylight Time),410031.3999999985,A,boy,O,y,291,1,966.0,409065.3999999985,7111,WL,C,2.0
2,4.332000017166138,learn,55667.99998283386,Thu Apr 17 2025 17:22:43 GMT-0500 (Central Daylight Time),410447.799999997,A,boyenter,O,enter,407,1,1382.3999999985099,409065.3999999985,7111,WL,C,2.0
2,4.916000127792358,learn,55083.99987220764,Thu Apr 17 2025 17:22:43 GMT-0500 (Central Daylight Time),411031.0,A,b,O,b,567,1,582.8999999985099,410448.1000000015,7111,WL,C,3.0
2,5.2820000648498535,learn,54717.99993515015,Thu Apr 17 2025 17:22:43 GMT-0500 (Central Daylight Time),411397.3999999985,A,bo,O,o,359,1,949.2999999970198,410448.1000000015,7111,WL,C,3.0
2,5.732000112533569,learn,54267.99988746643,Thu Apr 17 2025 17:22:43 GMT-0500 (Central Daylight Time),411847.5,A,bod,O,d,441,1,1399.3999999985099,410448.1000000015,7111,WL,C,3.0
2,6.215000152587891,learn,53784.99984741211,Thu Apr 17 2025 17:22:43 GMT-0500 (Central Daylight Time),412330.799999997,A,body,O,y,463,1,1882.6999999955297,410448.1000000015,7111,WL,C,3.0
2,7.131999969482422,learn,52868.00003051758,Thu Apr 17 2025 17:22:43 GMT-0500 (Central Daylight Time),413247.0,A,bodyenter,O,enter,900,1,2798.89999999851,410448.1000000015,7111,WL,C,3.0
2,8.21500015258789,learn,51784.99984741211,Thu Apr 17 2025 17:22:43 GMT-0500 (Central Daylight Time),414329.8999999985,A,t,O,t,1071,1,1082.6000000014901,413247.299999997,7111,WL,C,4.0
2,8.46399998664856,learn,51536.00001335144,Thu Apr 17 2025 17:22:43 GMT-0500 (Central Daylight Time),414579.700000003,A,to,O,o,245,1,1332.4000000059605,413247.299999997,7111,WL,C,4.0
2,8.697999954223633,learn,51302.00004577637,Thu Apr 17 2025 17:22:43 GMT-0500 (Central Daylight Time),414813.1000000015,A,tow,O,w,219,1,1565.8000000044703,413247.299999997,7111,WL,C,4.0
2,8.96399998664856,learn,51036.00001335144,Thu Apr 17 2025 17:22:43 GMT-0500 (Central Daylight Time),415079.5,A,towe,O,e,249,1,1832.2000000029802,413247.299999997,7111,WL,C,4.0
2,9.197999954223633,learn,50802.00004577637,Thu Apr 17 2025 17:22:43 GMT-0500 (Central Daylight Time),415313.200000003,A,tower,O,r,223,1,2065.9000000059605,413247.299999997,7111,WL,C,4.0
2,9.531000137329102,learn,50468.9998626709,Thu Apr 17 2025 17:22:43 GMT-0500 (Central Daylight Time),415646.1000000015,A,towerenter,O,enter,317,1,2398.8000000044703,413247.299999997,7111,WL,C,4.0
2,9.864000082015991,learn,50135.99991798401,Thu Apr 17 2025 17:22:43 GMT-0500 (Central Daylight Time),415979.3999999985,A,w,O,w,313,1,332.8999999985099,415646.5,7111,WL,C,5.0
2,10.097000122070312,learn,49902.99987792969,Thu Apr 17 2025 17:22:43 GMT-0500 (Central Daylight Time),416212.6000000015,A,wh,O,h,226,1,566.1000000014901,415646.5,7111,WL,C,5.0
2,10.329999923706055,learn,49670.000076293945,Thu Apr 17 2025 17:22:43 GMT-0500 (Central Daylight Time),416445.8999999985,A,whe,O,e,226,1,799.3999999985099,415646.5,7111,WL,C,5.0
2,10.697999954223633,learn,49302.00004577637,Thu Apr 17 2025 17:22:43 GMT-0500 (Central Daylight Time),416813.700000003,A,whea,O,a,352,1,1167.2000000029802,415646.5,7111,WL,C,5.0
2,10.980000019073486,learn,49019.999980926514,Thu Apr 17 2025 17:22:43 GMT-0500 (Central Daylight Time),417095.8999999985,A,wheat,O,t,264,1,1449.3999999985099,415646.5,7111,WL,C,5.0
2,11.597000122070312,learn,48402.99987792969,Thu Apr 17 2025 17:22:43 GMT-0500 (Central Daylight Time),417712.200000003,A,wheatenter,O,enter,606,1,2065.7000000029802,415646.5,7111,WL,C,5.0
2,12.710999965667725,learn,47289.000034332275,Thu Apr 17 2025 17:22:43 GMT-0500 (Central Daylight Time),418828.5,A,q,O,q,1102,1,1116.0,417712.5,7111,WL,C,6.0
2,12.944000005722046,learn,47055.999994277954,Thu Apr 17 2025 17:22:43 GMT-0500 (Central Daylight Time),419061.700000003,A,qu,O,u,218,1,1349.2000000029802,417712.5,7111,WL,C,6.0
2,13.128000020980835,learn,46871.999979019165,Thu Apr 17 2025 17:22:43 GMT-0500 (Central Daylight Time),419245.1000000015,A,que,O,e,176,1,1532.6000000014901,417712.5,7111,WL,C,6.0
2,13.394000053405762,learn,46605.99994659424,Thu Apr 17 2025 17:22:43 GMT-0500 (Central Daylight Time),419511.6000000015,A,quee,O,e,257,1,1799.1000000014901,417712.5,7111,WL,C,6.0
2,13.628000020980835,learn,46371.999979019165,Thu Apr 17 2025 17:22:43 GMT-0500 (Central Daylight Time),419744.8999999985,A,queen,O,n,215,1,2032.3999999985099,417712.5,7111,WL,C,6.0
2,14.378000020980835,learn,45621.999979019165,Thu Apr 17 2025 17:22:43 GMT-0500 (Central Daylight Time),420494.8999999985,A,queenenter,O,enter,733,1,2782.39999999851,417712.5,7111,WL,C,6.0
2,14.944000005722046,learn,45055.999994277954,Thu Apr 17 2025 17:22:43 GMT-0500 (Central Daylight Time),421061.200000003,A,c,O,c,559,1,566.0,420495.200000003,7111,WL,C,7.0
2,15.210000038146973,learn,44789.99996185303,Thu Apr 17 2025 17:22:43 GMT-0500 (Central Daylight Time),421327.700000003,A,co,O,o,249,1,832.5,420495.200000003,7111,WL,C,7.0
2,15.427000045776367,learn,44572.99995422363,Thu Apr 17 2025 17:22:43 GMT-0500 (Central Daylight Time),421544.200000003,A,cor,O,r,207,1,1049.0,420495.200000003,7111,WL,C,7.0
2,15.644000053405762,learn,44355.99994659424,Thu Apr 17 2025 17:22:43 GMT-0500 (Central Daylight Time),421760.8999999985,A,corn,O,n,206,1,1265.6999999955297,420495.200000003,7111,WL,C,7.0
2,15.960000038146973,learn,44039.99996185303,Thu Apr 17 2025 17:22:43 GMT-0500 (Central Daylight Time),422077.3999999985,A,cornenter,O,enter,301,1,1582.1999999955297,420495.200000003,7111,WL,C,7.0
2,16.22699999809265,learn,43773.00000190735,Thu Apr 17 2025 17:22:43 GMT-0500 (Central Daylight Time),422344.200000003,A,c,O,c,258,1,266.40000000596046,422077.799999997,7111,WL,C,8.0
2,16.493000030517578,learn,43506.99996948242,Thu Apr 17 2025 17:22:43 GMT-0500 (Central Daylight Time),422610.700000003,A,ca,O,a,246,1,532.9000000059605,422077.799999997,7111,WL,C,8.0
2,16.710000038146973,learn,43289.99996185303,Thu Apr 17 2025 17:22:43 GMT-0500 (Central Daylight Time),422827.3999999985,A,cat,O,t,196,1,749.6000000014901,422077.799999997,7111,WL,C,8.0
2,16.860000133514404,learn,43139.999866485596,Thu Apr 17 2025 17:22:43 GMT-0500 (Central Daylight Time),422977.200000003,A,catt,O,t,139,1,899.4000000059605,422077.799999997,7111,WL,C,8.0
2,17.342999935150146,learn,42657.00006484985,Thu Apr 17 2025 17:22:43 GMT-0500 (Central Daylight Time),423460.1000000015,A,cattl,O,l,477,1,1382.3000000044703,422077.799999997,7111,WL,C,8.0
2,17.575999975204468,learn,42424.00002479553,Thu Apr 17 2025 17:22:43 GMT-0500 (Central Daylight Time),423693.6000000015,A,cattle,O,e,218,1,1615.8000000044703,422077.799999997,7111,WL,C,8.0
2,18.509000062942505,learn,41490.999937057495,Thu Apr 17 2025 17:22:43 GMT-0500 (Central Daylight Time),424626.5,A,cattleenter,O,enter,921,1,2548.7000000029802,422077.799999997,7111,WL,C,8.0
2,18.9760000705719,learn,41023.9999294281,Thu Apr 17 2025 17:22:43 GMT-0500 (Central Daylight Time),425093.299999997,A,s,O,s,452,1,466.5,424626.799999997,7111,WL,C,9.0
2,19.125999927520752,learn,40874.00007247925,Thu Apr 17 2025 17:22:43 GMT-0500 (Central Daylight Time),425243.3999999985,A,sh,O,h,137,1,616.6000000014901,424626.799999997,7111,WL,C,9.0
2,19.39199995994568,learn,40608.00004005432,Thu Apr 17 2025 17:22:43 GMT-0500 (Central Daylight Time),425509.700000003,A,sho,O,o,251,1,882.9000000059605,424626.799999997,7111,WL,C,9.0
2,19.54200005531311,learn,40457.99994468689,Thu Apr 17 2025 17:22:43 GMT-0500 (Central Daylight Time),425659.799999997,A,shor,O,r,144,1,1033.0,424626.799999997,7111,WL,C,9.0
2,19.875999927520752,learn,40124.00007247925,Thu Apr 17 2025 17:22:43 GMT-0500 (Central Daylight Time),425993.0,A,shore,O,e,315,1,1366.2000000029802,424626.799999997,7111,WL,C,9.0
2,20.30900001525879,learn,39690.99998474121,Thu Apr 17 2025 17:22:43 GMT-0500 (Central Daylight Time),426426.6000000015,A,shoreenter,O,enter,413,1,1799.8000000044703,424626.799999997,7111,WL,C,9.0
2,21.20900011062622,learn,38790.99988937378,Thu Apr 17 2025 17:22:43 GMT-0500 (Central Daylight Time),427325.8999999985,A,c,O,c,892,1,899.1000000014901,426426.799999997,7111,WL,C,10.0
2,21.45799994468689,learn,38542.00005531311,Thu Apr 17 2025 17:22:43 GMT-0500 (Central Daylight Time),427575.6000000015,A,ca,O,a,240,1,1148.8000000044703,426426.799999997,7111,WL,C,10.0
2,21.592000007629395,learn,38407.999992370605,Thu Apr 17 2025 17:22:43 GMT-0500 (Central Daylight Time),427709.1000000015,A,cam,O,m,118,1,1282.3000000044703,426426.799999997,7111,WL,C,10.0
2,22.021000146865845,learn,37978.999853134155,Thu Apr 17 2025 17:22:43 GMT-0500 (Central Daylight Time),428138.3999999985,A,camp,O,p,424,1,1711.6000000014901,426426.799999997,7111,WL,C,10.0
2,22.575000047683716,learn,37424.999952316284,Thu Apr 17 2025 17:22:43 GMT-0500 (Central Daylight Time),428691.8999999985,A,campenter,O,enter,539,1,2265.10000000149,426426.799999997,7111,WL,C,10.0
2,24.54100012779236,learn,35458.99987220764,Thu Apr 17 2025 17:22:43 GMT-0500 (Central Daylight Time),430658.3999999985,A,c,O,c,1947,1,1966.1999999955297,428692.200000003,7111,WL,C,11.0
2,24.7739999294281,learn,35226.0000705719,Thu Apr 17 2025 17:22:43 GMT-0500 (Central Daylight Time),430891.5,A,ca,O,a,220,1,2199.2999999970198,428692.200000003,7111,WL,C,11.0
2,25.324000120162964,learn,34675.999879837036,Thu Apr 17 2025 17:22:43 GMT-0500 (Central Daylight Time),431441.299999997,A,cat,O,t,539,1,2749.0999999940395,428692.200000003,7111,WL,C,11.0
2,25.5239999294281,learn,34476.0000705719,Thu Apr 17 2025 17:22:43 GMT-0500 (Central Daylight Time),431641.0,A,catt,O,t,181,1,2948.7999999970198,428692.200000003,7111,WL,C,11.0
2,25.674000024795532,learn,34325.99997520447,Thu Apr 17 2025 17:22:43 GMT-0500 (Central Daylight Time),431791.1000000015,A,cattl,O,l,133,1,3098.89999999851,428692.200000003,7111,WL,C,11.0
2,25.874000072479248,learn,34125.99992752075,Thu Apr 17 2025 17:22:43 GMT-0500 (Central Daylight Time),431991.3999999985,A,cattle,O,e,191,1,3299.1999999955297,428692.200000003,7111,WL,C,11.0
2,26.59000015258789,learn,33409.99984741211,Thu Apr 17 2025 17:22:43 GMT-0500 (Central Daylight Time),432707.5,A,cattleenter,O,enter,711,1,4015.2999999970198,428692.200000003,7111,WL,C,11.0
2,29.039000034332275,learn,30960.999965667725,Thu Apr 17 2025 17:22:43 GMT-0500 (Central Daylight Time),435156.6000000015,A,c,O,c,2435,1,2448.8000000044703,432707.799999997,7111,WL,C,12.0
2,29.223000049591064,learn,30776.999950408936,Thu Apr 17 2025 17:22:43 GMT-0500 (Central Daylight Time),435340.0,A,co,O,o,170,1,2632.2000000029802,432707.799999997,7111,WL,C,12.0
2,29.456000089645386,learn,30543.999910354614,Thu Apr 17 2025 17:22:43 GMT-0500 (Central Daylight Time),435573.3999999985,A,cor,O,r,218,1,2865.60000000149,432707.799999997,7111,WL,C,12.0
2,29.57200002670288,learn,30427.99997329712,Thu Apr 17 2025 17:22:43 GMT-0500 (Central Daylight Time),435689.799999997,A,corn,O,n,97,1,2982.0,432707.799999997,7111,WL,C,12.0
2,30.022000074386597,learn,29977.999925613403,Thu Apr 17 2025 17:22:43 GMT-0500 (Central Daylight Time),436139.6000000015,A,cornenter,O,enter,444,1,3431.8000000044703,432707.799999997,7111,WL,C,12.0
2,33.021000146865845,learn,26978.999853134155,Thu Apr 17 2025 17:22:43 GMT-0500 (Central Daylight Time),439138.799999997,A,d,O,d,2979,1,2999.0,436139.799999997,7111,WL,C,13.0
2,33.22099995613098,learn,26779.00004386902,Thu Apr 17 2025 17:22:43 GMT-0500 (Central Daylight Time),439338.700000003,A,do,O,o,187,1,3198.9000000059605,436139.799999997,7111,WL,C,13.0
2,33.33800005912781,learn,26661.999940872192,Thu Apr 17 2025 17:22:43 GMT-0500 (Central Daylight Time),439455.6000000015,A,doc,O,c,108,1,3315.8000000044703,436139.799999997,7111,WL,C,13.0
2,33.65499997138977,learn,26345.00002861023,Thu Apr 17 2025 17:22:43 GMT-0500 (Central Daylight Time),439772.0,A,doct,O,t,303,1,3632.2000000029802,436139.799999997,7111,WL,C,13.0
2,33.9210000038147,learn,26078.999996185303,Thu Apr 17 2025 17:22:43 GMT-0500 (Central Daylight Time),440038.5,A,docto,O,o,259,1,3898.7000000029802,436139.799999997,7111,WL,C,13.0
2,34.07100009918213,learn,25928.99990081787,Thu Apr 17 2025 17:22:43 GMT-0500 (Central Daylight Time),440188.299999997,A,doctor,O,r,144,1,4048.5,436139.799999997,7111,WL,C,13.0
2,34.40499997138977,learn,25595.00002861023,Thu Apr 17 2025 17:22:43 GMT-0500 (Central Daylight Time),440521.8999999985,A,doctorenter,O,enter,322,1,4382.10000000149,436139.799999997,7111,WL,C,13.0
2,37.73699998855591,learn,22263.00001144409,Thu Apr 17 2025 17:22:43 GMT-0500 (Central Daylight Time),443854.1000000015,A,f,O,f,3317,1,3331.89999999851,440522.200000003,7111,WL,C,14.0
2,37.95300006866455,learn,22046.99993133545,Thu Apr 17 2025 17:22:43 GMT-0500 (Central Daylight Time),444070.6000000015,A,fl,O,l,208,1,3548.39999999851,440522.200000003,7111,WL,C,14.0
2,38.13700008392334,learn,21862.99991607666,Thu Apr 17 2025 17:22:43 GMT-0500 (Central Daylight Time),444254.0,A,fla,O,a,176,1,3731.7999999970198,440522.200000003,7111,WL,C,14.0
2,38.62000012397766,learn,21379.99987602234,Thu Apr 17 2025 17:22:43 GMT-0500 (Central Daylight Time),444737.299999997,A,flag,O,g,472,1,4215.0999999940395,440522.200000003,7111,WL,C,14.0
2,39.170000076293945,learn,20829.999923706055,Thu Apr 17 2025 17:22:43 GMT-0500 (Central Daylight Time),445286.8999999985,A,flagenter,O,enter,533,1,4764.69999999553,440522.200000003,7111,WL,C,14.0
2,51.24900007247925,learn,8750.999927520752,Thu Apr 17 2025 17:22:43 GMT-0500 (Central Daylight Time),457366.3999999985,A,s,O,s,12071,1,12079.10000000149,445287.299999997,7111,WL,C,15.0
2,51.54900002479553,learn,8450.999975204468,Thu Apr 17 2025 17:22:43 GMT-0500 (Central Daylight Time),457666.3999999985,A,su,O,u,280,1,12379.10000000149,445287.299999997,7111,WL,C,15.0
2,51.865999937057495,learn,8134.000062942505,Thu Apr 17 2025 17:22:43 GMT-0500 (Central Daylight Time),457982.8999999985,A,sug,O,g,308,1,12695.60000000149,445287.299999997,7111,WL,C,15.0
2,52.181999921798706,learn,7818.000078201294,Thu Apr 17 2025 17:22:43 GMT-0500 (Central Daylight Time),458299.799999997,A,suga,O,a,295,1,13012.5,445287.299999997,7111,WL,C,15.0
2,52.431999921798706,learn,7568.000078201294,Thu Apr 17 2025 17:22:43 GMT-0500 (Central Daylight Time),458549.299999997,A,sugar,O,r,235,1,13262.0,445287.299999997,7111,WL,C,15.0
2,52.681999921798706,learn,7318.000078201294,Thu Apr 17 2025 17:22:43 GMT-0500 (Central Daylight Time),458799.299999997,A,sugarenter,O,enter,233,1,13512.0,445287.299999997,7111,WL,C,15.0
3,1.25,learn,58750.0,Thu Apr 17 2025 17:22:43 GMT-0500 (Central Daylight Time),525878.299999997,A,s,O,s,1235,1,1249.6999999955297,524628.6000000015,7111,WL,C,1.0
3,1.5329999923706055,learn,58467.000007629395,Thu Apr 17 2025 17:22:43 GMT-0500 (Central Daylight Time),526161.3999999985,A,sh,O,h,264,1,1532.7999999970198,524628.6000000015,7111,WL,C,1.0
3,1.8499999046325684,learn,58150.00009536743,Thu Apr 17 2025 17:22:43 GMT-0500 (Central Daylight Time),526478.200000003,A,sho,O,o,301,1,1849.6000000014901,524628.6000000015,7111,WL,C,1.0
3,2.049999952316284,learn,57950.000047683716,Thu Apr 17 2025 17:22:43 GMT-0500 (Central Daylight Time),526678.299999997,A,shor,O,r,192,1,2049.6999999955297,524628.6000000015,7111,WL,C,1.0
3,2.3329999446868896,learn,57667.00005531311,Thu Apr 17 2025 17:22:43 GMT-0500 (Central Daylight Time),526961.299999997,A,shore,O,e,264,1,2332.6999999955297,524628.6000000015,7111,WL,C,1.0
3,2.632999897003174,learn,57367.000102996826,Thu Apr 17 2025 17:22:43 GMT-0500 (Central Daylight Time),527261.200000003,A,shoreenter,O,enter,285,1,2632.60000000149,524628.6000000015,7111,WL,C,1.0
3,3.0160000324249268,learn,56983.99996757507,Thu Apr 17 2025 17:22:43 GMT-0500 (Central Daylight Time),527644.3999999985,A,n,O,n,369,1,382.79999999701977,527261.6000000015,7111,WL,C,2.0
3,3.2330000400543213,learn,56766.99995994568,Thu Apr 17 2025 17:22:43 GMT-0500 (Central Daylight Time),527861.200000003,A,na,O,a,210,1,599.6000000014901,527261.6000000015,7111,WL,C,2.0
3,3.433000087738037,learn,56566.99991226196,Thu Apr 17 2025 17:22:43 GMT-0500 (Central Daylight Time),528061.0,A,nai,O,i,185,1,799.3999999985099,527261.6000000015,7111,WL,C,2.0
3,3.7330000400543213,learn,56266.99995994568,Thu Apr 17 2025 17:22:43 GMT-0500 (Central Daylight Time),528361.0,A,nail,O,l,289,1,1099.3999999985099,527261.6000000015,7111,WL,C,2.0
3,4.249000072479248,learn,55750.99992752075,Thu Apr 17 2025 17:22:43 GMT-0500 (Central Daylight Time),528877.299999997,A,nailenter,O,enter,509,1,1615.6999999955297,527261.6000000015,7111,WL,C,2.0
3,5.549000024795532,learn,54450.99997520447,Thu Apr 17 2025 17:22:43 GMT-0500 (Central Daylight Time),530176.8999999985,A,c,O,c,1281,1,1299.1999999955297,528877.700000003,7111,WL,C,3.0
3,5.7820000648498535,learn,54217.99993515015,Thu Apr 17 2025 17:22:43 GMT-0500 (Central Daylight Time),530410.1000000015,A,ca,O,a,221,1,1532.3999999985099,528877.700000003,7111,WL,C,3.0
3,6.165999889373779,learn,53834.00011062622,Thu Apr 17 2025 17:22:43 GMT-0500 (Central Daylight Time),530793.6000000015,A,cat,O,t,372,1,1915.8999999985099,528877.700000003,7111,WL,C,3.0
3,6.365000009536743,learn,53634.99999046326,Thu Apr 17 2025 17:22:43 GMT-0500 (Central Daylight Time),530993.3999999985,A,catt,O,t,189,1,2115.6999999955297,528877.700000003,7111,WL,C,3.0
3,6.598999977111816,learn,53401.00002288818,Thu Apr 17 2025 17:22:43 GMT-0500 (Central Daylight Time),531226.6000000015,A,cattl,O,l,221,1,2348.89999999851,528877.700000003,7111,WL,C,3.0
3,6.815000057220459,learn,53184.99994277954,Thu Apr 17 2025 17:22:43 GMT-0500 (Central Daylight Time),531443.3999999985,A,cattle,O,e,204,1,2565.6999999955297,528877.700000003,7111,WL,C,3.0
3,7.764999866485596,learn,52235.000133514404,Thu Apr 17 2025 17:22:43 GMT-0500 (Central Daylight Time),532393.0,A,cattleenter,O,enter,931,1,3515.2999999970198,528877.700000003,7111,WL,C,3.0
3,8.180999994277954,learn,51819.000005722046,Thu Apr 17 2025 17:22:43 GMT-0500 (Central Daylight Time),532809.3999999985,A,b,O,b,397,1,416.0,532393.3999999985,7111,WL,C,4.0
3,8.547999858856201,learn,51452.0001411438,Thu Apr 17 2025 17:22:43 GMT-0500 (Central Daylight Time),533176.0,A,bo,O,o,349,1,782.6000000014901,532393.3999999985,7111,WL,C,4.0
3,8.88100004196167,learn,51118.99995803833,Thu Apr 17 2025 17:22:43 GMT-0500 (Central Daylight Time),533509.200000003,A,bod,O,d,326,1,1115.8000000044703,532393.3999999985,7111,WL,C,4.0
3,9.081000089645386,learn,50918.999910354614,Thu Apr 17 2025 17:22:43 GMT-0500 (Central Daylight Time),533709.1000000015,A,body,O,y,193,1,1315.7000000029802,532393.3999999985,7111,WL,C,4.0
3,9.63100004196167,learn,50368.99995803833,Thu Apr 17 2025 17:22:43 GMT-0500 (Central Daylight Time),534259.1000000015,A,bodyenter,O,enter,529,1,1865.7000000029802,532393.3999999985,7111,WL,C,4.0
3,10.180999994277954,learn,49819.000005722046,Thu Apr 17 2025 17:22:43 GMT-0500 (Central Daylight Time),534808.700000003,A,h,O,h,531,1,549.3000000044703,534259.3999999985,7111,WL,C,5.0
3,10.563999891281128,learn,49436.00010871887,Thu Apr 17 2025 17:22:43 GMT-0500 (Central Daylight Time),535192.1000000015,A,ho,O,o,366,1,932.7000000029802,534259.3999999985,7111,WL,C,5.0
3,10.831000089645386,learn,49168.999910354614,Thu Apr 17 2025 17:22:43 GMT-0500 (Central Daylight Time),535458.799999997,A,hom,O,m,254,1,1199.3999999985099,534259.3999999985,7111,WL,C,5.0
3,11.047999858856201,learn,48952.0001411438,Thu Apr 17 2025 17:22:43 GMT-0500 (Central Daylight Time),535675.5,A,home,O,e,212,1,1416.1000000014901,534259.3999999985,7111,WL,C,5.0
3,11.246999979019165,learn,48753.000020980835,Thu Apr 17 2025 17:22:43 GMT-0500 (Central Daylight Time),535875.299999997,A,homeenter,O,enter,187,1,1615.8999999985099,534259.3999999985,7111,WL,C,5.0
3,11.647000074386597,learn,48352.9999256134,Thu Apr 17 2025 17:22:43 GMT-0500 (Central Daylight Time),536275.200000003,A,b,O,b,379,1,399.5,535875.700000003,7111,WL,C,6.0
3,11.94700002670288,learn,48052.99997329712,Thu Apr 17 2025 17:22:43 GMT-0500 (Central Daylight Time),536575.0,A,bo,O,o,283,1,699.2999999970198,535875.700000003,7111,WL,C,6.0
3,12.246999979019165,learn,47753.000020980835,Thu Apr 17 2025 17:22:43 GMT-0500 (Central Daylight Time),536874.8999999985,A,boy,O,y,279,1,999.1999999955297,535875.700000003,7111,WL,C,6.0
3,13.26200008392334,learn,46737.99991607666,Thu Apr 17 2025 17:22:43 GMT-0500 (Central Daylight Time),537891.299999997,A,boyenter,O,enter,995,1,2015.5999999940395,535875.700000003,7111,WL,C,6.0
3,14.027999877929688,learn,45972.00012207031,Thu Apr 17 2025 17:22:43 GMT-0500 (Central Daylight Time),538657.6000000015,A,s,O,s,747,1,766.0,537891.6000000015,7111,WL,C,7.0
3,14.111000061035156,learn,45888.999938964844,Thu Apr 17 2025 17:22:43 GMT-0500 (Central Daylight Time),538741.200000003,A,sh,O,h,69,1,849.6000000014901,537891.6000000015,7111,WL,C,7.0
3,14.394999980926514,learn,45605.000019073486,Thu Apr 17 2025 17:22:43 GMT-0500 (Central Daylight Time),539024.200000003,A,sho,O,o,265,1,1132.6000000014901,537891.6000000015,7111,WL,C,7.0
3,14.543999910354614,learn,45456.000089645386,Thu Apr 17 2025 17:22:43 GMT-0500 (Central Daylight Time),539174.0,A,shor,O,r,134,1,1282.3999999985099,537891.6000000015,7111,WL,C,7.0
3,14.810999870300293,learn,45189.00012969971,Thu Apr 17 2025 17:22:43 GMT-0500 (Central Daylight Time),539440.700000003,A,shore,O,e,249,1,1549.1000000014901,537891.6000000015,7111,WL,C,7.0
3,15.060999870300293,learn,44939.00012969971,Thu Apr 17 2025 17:22:43 GMT-0500 (Central Daylight Time),539690.700000003,A,shoreenter,O,enter,230,1,1799.1000000014901,537891.6000000015,7111,WL,C,7.0
3,16.194000005722046,learn,43805.999994277954,Thu Apr 17 2025 17:22:43 GMT-0500 (Central Daylight Time),540823.6000000015,A,t,O,t,1116,1,1132.6000000014901,539691.0,7111,WL,C,8.0
3,16.460999965667725,learn,43539.000034332275,Thu Apr 17 2025 17:22:43 GMT-0500 (Central Daylight Time),541090.3999999985,A,to,O,o,247,1,1399.3999999985099,539691.0,7111,WL,C,8.0
3,16.64400005340576,learn,43355.99994659424,Thu Apr 17 2025 17:22:43 GMT-0500 (Central Daylight Time),541273.5,A,tow,O,w,164,1,1582.5,539691.0,7111,WL,C,8.0
3,16.89400005340576,learn,43105.99994659424,Thu Apr 17 2025 17:22:43 GMT-0500 (Central Daylight Time),541523.3999999985,A,towe,O,e,237,1,1832.3999999985099,539691.0,7111,WL,C,8.0
3,17.14400005340576,learn,42855.99994659424,Thu Apr 17 2025 17:22:43 GMT-0500 (Central Daylight Time),541773.3999999985,A,tower,O,r,235,1,2082.39999999851,539691.0,7111,WL,C,8.0
3,17.41000008583069,learn,42589.99991416931,Thu Apr 17 2025 17:22:43 GMT-0500 (Central Daylight Time),542039.5,A,towerenter,O,enter,257,1,2348.5,539691.0,7111,WL,C,8.0
3,17.72699999809265,learn,42273.00000190735,Thu Apr 17 2025 17:22:43 GMT-0500 (Central Daylight Time),542356.200000003,A,w,O,w,303,1,316.40000000596046,542039.799999997,7111,WL,C,9.0
3,17.943000078201294,learn,42056.999921798706,Thu Apr 17 2025 17:22:43 GMT-0500 (Central Daylight Time),542572.799999997,A,wh,O,h,210,1,533.0,542039.799999997,7111,WL,C,9.0
3,18.16000008583069,learn,41839.99991416931,Thu Apr 17 2025 17:22:43 GMT-0500 (Central Daylight Time),542789.799999997,A,whe,O,e,201,1,750.0,542039.799999997,7111,WL,C,9.0
3,18.4760000705719,learn,41523.9999294281,Thu Apr 17 2025 17:22:43 GMT-0500 (Central Daylight Time),543105.8999999985,A,whea,O,a,305,1,1066.1000000014901,542039.799999997,7111,WL,C,9.0
3,18.675999879837036,learn,41324.000120162964,Thu Apr 17 2025 17:22:43 GMT-0500 (Central Daylight Time),543306.0,A,wheat,O,t,180,1,1266.2000000029802,542039.799999997,7111,WL,C,9.0
3,19.158999919891357,learn,40841.00008010864,Thu Apr 17 2025 17:22:43 GMT-0500 (Central Daylight Time),543789.1000000015,A,wheatenter,O,enter,476,1,1749.3000000044703,542039.799999997,7111,WL,C,9.0
3,19.693000078201294,learn,40306.999921798706,Thu Apr 17 2025 17:22:43 GMT-0500 (Central Daylight Time),544322.3999999985,A,s,O,s,521,1,533.0,543789.3999999985,7111,WL,C,10.0
3,19.908999919891357,learn,40091.00008010864,Thu Apr 17 2025 17:22:43 GMT-0500 (Central Daylight Time),544538.8999999985,A,su,O,u,204,1,749.5,543789.3999999985,7111,WL,C,10.0
3,20.608999967575073,learn,39391.00003242493,Thu Apr 17 2025 17:22:43 GMT-0500 (Central Daylight Time),545238.700000003,A,sug,O,g,683,1,1449.3000000044703,543789.3999999985,7111,WL,C,10.0
3,20.79200005531311,learn,39207.99994468689,Thu Apr 17 2025 17:22:43 GMT-0500 (Central Daylight Time),545422.0,A,suga,O,a,167,1,1632.6000000014901,543789.3999999985,7111,WL,C,10.0
3,21.453999996185303,learn,38546.0000038147,Thu Apr 17 2025 17:22:43 GMT-0500 (Central Daylight Time),546083.3999999985,A,sugar,O,r,510,1,2294.0,543789.3999999985,7111,WL,C,10.0
3,21.49399995803833,learn,38506.00004196167,Thu Apr 17 2025 17:22:43 GMT-0500 (Central Daylight Time),546124.1000000015,A,sugarenter,O,enter,25,1,2334.7000000029802,543789.3999999985,7111,WL,C,10.0
3,21.991999864578247,learn,38008.00013542175,Thu Apr 17 2025 17:22:43 GMT-0500 (Central Daylight Time),546621.8999999985,A,q,O,q,489,1,497.5,546124.3999999985,7111,WL,C,11.0
3,22.241999864578247,learn,37758.00013542175,Thu Apr 17 2025 17:22:43 GMT-0500 (Central Daylight Time),546871.799999997,A,qu,O,u,241,1,747.3999999985099,546124.3999999985,7111,WL,C,11.0
3,22.509000062942505,learn,37490.999937057495,Thu Apr 17 2025 17:22:43 GMT-0500 (Central Daylight Time),547138.3999999985,A,que,O,e,254,1,1014.0,546124.3999999985,7111,WL,C,11.0
3,22.72499990463257,learn,37275.00009536743,Thu Apr 17 2025 17:22:43 GMT-0500 (Central Daylight Time),547354.8999999985,A,quee,O,e,204,1,1230.5,546124.3999999985,7111,WL,C,11.0
3,22.908999919891357,learn,37091.00008010864,Thu Apr 17 2025 17:22:43 GMT-0500 (Central Daylight Time),547538.3999999985,A,queen,O,n,164,1,1414.0,546124.3999999985,7111,WL,C,11.0
3,23.52500009536743,learn,36474.99990463257,Thu Apr 17 2025 17:22:43 GMT-0500 (Central Daylight Time),548154.700000003,A,queenenter,O,enter,596,1,2030.3000000044703,546124.3999999985,7111,WL,C,11.0
3,24.591000080108643,learn,35408.99991989136,Thu Apr 17 2025 17:22:43 GMT-0500 (Central Daylight Time),549221.0,A,f,O,f,1052,1,1066.0,548155.0,7111,WL,C,12.0
3,24.825000047683716,learn,35174.999952316284,Thu Apr 17 2025 17:22:43 GMT-0500 (Central Daylight Time),549454.3999999985,A,fl,O,l,225,1,1299.3999999985099,548155.0,7111,WL,C,12.0
3,25.740999937057495,learn,34259.000062942505,Thu Apr 17 2025 17:22:43 GMT-0500 (Central Daylight Time),550370.6000000015,A,flg,O,g,904,1,2215.60000000149,548155.0,7111,WL,C,12.0
3,26.5239999294281,learn,33476.0000705719,Thu Apr 17 2025 17:22:43 GMT-0500 (Central Daylight Time),551153.700000003,A,fl,O,backspace,772,1,2998.7000000029802,548155.0,7111,WL,C,12.0
3,26.723999977111816,learn,33276.00002288818,Thu Apr 17 2025 17:22:43 GMT-0500 (Central Daylight Time),551353.6000000015,A,fla,O,a,189,1,3198.60000000149,548155.0,7111,WL,C,12.0
3,27.573999881744385,learn,32426.000118255615,Thu Apr 17 2025 17:22:43 GMT-0500 (Central Daylight Time),552203.299999997,A,flag,O,g,837,1,4048.2999999970198,548155.0,7111,WL,C,12.0
3,28.006999969482422,learn,31993.000030517578,Thu Apr 17 2025 17:22:43 GMT-0500 (Central Daylight Time),552636.5,A,flagenter,O,enter,419,1,4481.5,548155.0,7111,WL,C,12.0
3,29.240000009536743,learn,30759.999990463257,Thu Apr 17 2025 17:22:43 GMT-0500 (Central Daylight Time),553869.5,A,s,O,s,1218,1,1232.6000000014901,552636.8999999985,7111,WL,C,13.0
3,29.407000064849854,learn,30592.999935150146,Thu Apr 17 2025 17:22:43 GMT-0500 (Central Daylight Time),554036.299999997,A,sh,O,h,153,1,1399.3999999985099,552636.8999999985,7111,WL,C,13.0
3,29.6729998588562,learn,30327.0001411438,Thu Apr 17 2025 17:22:43 GMT-0500 (Central Daylight Time),554302.6000000015,A,sho,O,o,259,1,1665.7000000029802,552636.8999999985,7111,WL,C,13.0
3,29.85699987411499,learn,30143.00012588501,Thu Apr 17 2025 17:22:43 GMT-0500 (Central Daylight Time),554486.200000003,A,shor,O,r,176,1,1849.3000000044703,552636.8999999985,7111,WL,C,13.0
3,30.139999866485596,learn,29860.000133514404,Thu Apr 17 2025 17:22:43 GMT-0500 (Central Daylight Time),554769.299999997,A,shore,O,e,264,1,2132.39999999851,552636.8999999985,7111,WL,C,13.0
3,30.60599994659424,learn,29394.00005340576,Thu Apr 17 2025 17:22:43 GMT-0500 (Central Daylight Time),555235.8999999985,A,shoreenter,O,enter,446,1,2599.0,552636.8999999985,7111,WL,C,13.0
3,34.954999923706055,learn,25045.000076293945,Thu Apr 17 2025 17:22:43 GMT-0500 (Central Daylight Time),559584.3999999985,A,c,O,c,4339,1,4348.10000000149,555236.299999997,7111,WL,C,14.0
3,35.1710000038147,learn,24828.999996185303,Thu Apr 17 2025 17:22:43 GMT-0500 (Central Daylight Time),559800.8999999985,A,co,O,o,198,1,4564.60000000149,555236.299999997,7111,WL,C,14.0
3,35.355000019073486,learn,24644.999980926514,Thu Apr 17 2025 17:22:43 GMT-0500 (Central Daylight Time),559984.200000003,A,cor,O,r,166,1,4747.9000000059605,555236.299999997,7111,WL,C,14.0
3,35.520999908447266,learn,24479.000091552734,Thu Apr 17 2025 17:22:43 GMT-0500 (Central Daylight Time),560150.799999997,A,corn,O,n,159,1,4914.5,555236.299999997,7111,WL,C,14.0
3,35.87100005149841,learn,24128.999948501587,Thu Apr 17 2025 17:22:43 GMT-0500 (Central Daylight Time),560500.799999997,A,cornenter,O,enter,344,1,5264.5,555236.299999997,7111,WL,C,14.0
3,49.78399991989136,learn,10216.000080108643,Thu Apr 17 2025 17:22:43 GMT-0500 (Central Daylight Time),574413.299999997,A,enter,O,enter,13905,1,13912.09999999404,560501.200000003,7111,WL,C,15.0
4,1.5829999446868896,learn,58417.00005531311,Thu Apr 17 2025 17:22:43 GMT-0500 (Central Daylight Time),642225.299999997,A,c,O,c,1572,1,1582.5999999940395,640642.700000003,7111,WL,C,1.0
4,1.883000135421753,learn,58116.99986457825,Thu Apr 17 2025 17:22:43 GMT-0500 (Central Daylight Time),642525.200000003,A,ca,O,a,285,1,1882.5,640642.700000003,7111,WL,C,1.0
4,2.1660001277923584,learn,57833.99987220764,Thu Apr 17 2025 17:22:43 GMT-0500 (Central Daylight Time),642808.3999999985,A,cat,O,t,265,1,2165.6999999955297,640642.700000003,7111,WL,C,1.0
4,2.866000175476074,learn,57133.999824523926,Thu Apr 17 2025 17:22:43 GMT-0500 (Central Daylight Time),643508.0,A,catt,O,t,694,1,2865.2999999970198,640642.700000003,7111,WL,C,1.0
4,3.449000120162964,learn,56550.999879837036,Thu Apr 17 2025 17:22:43 GMT-0500 (Central Daylight Time),644091.5,A,cattl,O,l,562,1,3448.7999999970198,640642.700000003,7111,WL,C,1.0
4,3.6490001678466797,learn,56350.99983215332,Thu Apr 17 2025 17:22:43 GMT-0500 (Central Daylight Time),644291.3999999985,A,cattle,O,e,195,1,3648.6999999955297,640642.700000003,7111,WL,C,1.0
4,4.049000024795532,learn,55950.99997520447,Thu Apr 17 2025 17:22:43 GMT-0500 (Central Daylight Time),644691.200000003,A,cattleenter,O,enter,379,1,4048.5,640642.700000003,7111,WL,C,1.0
4,4.932000160217285,learn,55067.999839782715,Thu Apr 17 2025 17:22:43 GMT-0500 (Central Daylight Time),645574.299999997,A,n,O,n,875,1,882.7999999970198,644691.5,7111,WL,C,2.0
4,5.131999969482422,learn,54868.00003051758,Thu Apr 17 2025 17:22:43 GMT-0500 (Central Daylight Time),645774.1000000015,A,na,O,a,184,1,1082.6000000014901,644691.5,7111,WL,C,2.0
4,5.249000072479248,learn,54750.99992752075,Thu Apr 17 2025 17:22:43 GMT-0500 (Central Daylight Time),645890.8999999985,A,nai,O,i,96,1,1199.3999999985099,644691.5,7111,WL,C,2.0
4,5.565000057220459,learn,54434.99994277954,Thu Apr 17 2025 17:22:43 GMT-0500 (Central Daylight Time),646207.3999999985,A,nail,O,l,308,1,1515.8999999985099,644691.5,7111,WL,C,2.0
4,5.998000144958496,learn,54001.999855041504,Thu Apr 17 2025 17:22:43 GMT-0500 (Central Daylight Time),646640.3999999985,A,nailenter,O,enter,415,1,1948.8999999985099,644691.5,7111,WL,C,2.0
4,6.281000137329102,learn,53718.9998626709,Thu Apr 17 2025 17:22:43 GMT-0500 (Central Daylight Time),646923.700000003,A,c,O,c,278,1,282.90000000596046,646640.799999997,7111,WL,C,3.0
4,6.515000104904175,learn,53484.999895095825,Thu Apr 17 2025 17:22:43 GMT-0500 (Central Daylight Time),647157.200000003,A,ca,O,a,219,1,516.4000000059605,646640.799999997,7111,WL,C,3.0
4,6.664999961853027,learn,53335.00003814697,Thu Apr 17 2025 17:22:43 GMT-0500 (Central Daylight Time),647306.8999999985,A,cam,O,m,137,1,666.1000000014901,646640.799999997,7111,WL,C,3.0
4,6.947999954223633,learn,53052.00004577637,Thu Apr 17 2025 17:22:43 GMT-0500 (Central Daylight Time),647590.200000003,A,camp,O,p,267,1,949.4000000059605,646640.799999997,7111,WL,C,3.0
4,7.414000034332275,learn,52585.999965667725,Thu Apr 17 2025 17:22:43 GMT-0500 (Central Daylight Time),648056.700000003,A,campenter,O,enter,448,1,1415.9000000059605,646640.799999997,7111,WL,C,3.0
4,7.8480000495910645,learn,52151.999950408936,Thu Apr 17 2025 17:22:43 GMT-0500 (Central Daylight Time),648489.8999999985,A,f,O,f,421,1,432.8999999985099,648057.0,7111,WL,C,4.0
4,8.081000089645386,learn,51918.999910354614,Thu Apr 17 2025 17:22:43 GMT-0500 (Central Daylight Time),648723.1000000015,A,fl,O,l,220,1,666.1000000014901,648057.0,7111,WL,C,4.0
4,8.21399998664856,learn,51786.00001335144,Thu Apr 17 2025 17:22:43 GMT-0500 (Central Daylight Time),648856.3999999985,A,fla,O,a,116,1,799.3999999985099,648057.0,7111,WL,C,4.0
4,8.564000129699707,learn,51435.99987030029,Thu Apr 17 2025 17:22:43 GMT-0500 (Central Daylight Time),649206.700000003,A,flag,O,g,334,1,1149.7000000029802,648057.0,7111,WL,C,4.0
4,8.930999994277954,learn,51069.000005722046,Thu Apr 17 2025 17:22:43 GMT-0500 (Central Daylight Time),649572.8999999985,A,flagenter,O,enter,360,1,1515.8999999985099,648057.0,7111,WL,C,4.0
4,9.314000129699707,learn,50685.99987030029,Thu Apr 17 2025 17:22:43 GMT-0500 (Central Daylight Time),649956.200000003,A,s,O,s,370,1,383.1000000014901,649573.1000000015,7111,WL,C,5.0
4,9.496999979019165,learn,50503.000020980835,Thu Apr 17 2025 17:22:43 GMT-0500 (Central Daylight Time),650139.5,A,sh,O,h,178,1,566.3999999985099,649573.1000000015,7111,WL,C,5.0
4,9.764000177383423,learn,50235.99982261658,Thu Apr 17 2025 17:22:43 GMT-0500 (Central Daylight Time),650406.1000000015,A,sho,O,o,259,1,833.0,649573.1000000015,7111,WL,C,5.0
4,9.930000066757202,learn,50069.9999332428,Thu Apr 17 2025 17:22:43 GMT-0500 (Central Daylight Time),650572.5,A,shor,O,r,160,1,999.3999999985099,649573.1000000015,7111,WL,C,5.0
4,10.180000066757202,learn,49819.9999332428,Thu Apr 17 2025 17:22:43 GMT-0500 (Central Daylight Time),650822.299999997,A,shore,O,e,242,1,1249.1999999955297,649573.1000000015,7111,WL,C,5.0
4,10.364000082015991,learn,49635.99991798401,Thu Apr 17 2025 17:22:43 GMT-0500 (Central Daylight Time),651005.799999997,A,shoreenter,O,enter,176,1,1432.6999999955297,649573.1000000015,7111,WL,C,5.0
4,11.547000169754028,learn,48452.99983024597,Thu Apr 17 2025 17:22:43 GMT-0500 (Central Daylight Time),652189.0,A,t,O,t,1177,1,1182.7999999970198,651006.200000003,7111,WL,C,6.0
4,11.830000162124634,learn,48169.999837875366,Thu Apr 17 2025 17:22:43 GMT-0500 (Central Daylight Time),652472.1000000015,A,to,O,o,265,1,1465.8999999985099,651006.200000003,7111,WL,C,6.0
4,12.046000003814697,learn,47953.9999961853,Thu Apr 17 2025 17:22:43 GMT-0500 (Central Daylight Time),652688.6000000015,A,tow,O,w,198,1,1682.3999999985099,651006.200000003,7111,WL,C,6.0
4,12.296000003814697,learn,47703.9999961853,Thu Apr 17 2025 17:22:43 GMT-0500 (Central Daylight Time),652938.5,A,towe,O,e,238,1,1932.2999999970198,651006.200000003,7111,WL,C,6.0
4,12.546000003814697,learn,47453.9999961853,Thu Apr 17 2025 17:22:43 GMT-0500 (Central Daylight Time),653188.3999999985,A,tower,O,r,236,1,2182.1999999955297,651006.200000003,7111,WL,C,6.0
4,13.746000051498413,learn,46253.99994850159,Thu Apr 17 2025 17:22:43 GMT-0500 (Central Daylight Time),654388.0,A,towerenter,O,enter,1186,1,3381.7999999970198,651006.200000003,7111,WL,C,6.0
4,14.562000036239624,learn,45437.999963760376,Thu Apr 17 2025 17:22:43 GMT-0500 (Central Daylight Time),655204.5,A,w,O,w,803,1,816.2000000029802,654388.299999997,7111,WL,C,7.0
4,14.896000146865845,learn,45103.999853134155,Thu Apr 17 2025 17:22:43 GMT-0500 (Central Daylight Time),655538.0,A,wh,O,h,314,1,1149.7000000029802,654388.299999997,7111,WL,C,7.0
4,15.111999988555908,learn,44888.00001144409,Thu Apr 17 2025 17:22:43 GMT-0500 (Central Daylight Time),655754.299999997,A,whe,O,e,196,1,1366.0,654388.299999997,7111,WL,C,7.0
4,15.479000091552734,learn,44520.999908447266,Thu Apr 17 2025 17:22:43 GMT-0500 (Central Daylight Time),656120.8999999985,A,whea,O,a,356,1,1732.6000000014901,654388.299999997,7111,WL,C,7.0
4,15.76200008392334,learn,44237.99991607666,Thu Apr 17 2025 17:22:43 GMT-0500 (Central Daylight Time),656404.0,A,wheat,O,t,277,1,2015.7000000029802,654388.299999997,7111,WL,C,7.0
4,16.361000061035156,learn,43638.999938964844,Thu Apr 17 2025 17:22:43 GMT-0500 (Central Daylight Time),657003.799999997,A,wheatenter,O,enter,594,1,2615.5,654388.299999997,7111,WL,C,7.0
4,17.509999990463257,learn,42490.00000953674,Thu Apr 17 2025 17:22:43 GMT-0500 (Central Daylight Time),658153.5,A,q,O,q,1139,1,1149.5,657004.0,7111,WL,C,8.0
4,17.825999975204468,learn,42174.00002479553,Thu Apr 17 2025 17:22:43 GMT-0500 (Central Daylight Time),658470.200000003,A,qu,O,u,309,1,1466.2000000029802,657004.0,7111,WL,C,8.0
4,18.14300012588501,learn,41856.99987411499,Thu Apr 17 2025 17:22:43 GMT-0500 (Central Daylight Time),658786.8999999985,A,que,O,e,296,1,1782.8999999985099,657004.0,7111,WL,C,8.0
4,18.37600016593933,learn,41623.99983406067,Thu Apr 17 2025 17:22:43 GMT-0500 (Central Daylight Time),659020.0,A,quee,O,e,219,1,2016.0,657004.0,7111,WL,C,8.0
4,18.509000062942505,learn,41490.999937057495,Thu Apr 17 2025 17:22:43 GMT-0500 (Central Daylight Time),659153.299999997,A,queen,O,n,114,1,2149.2999999970198,657004.0,7111,WL,C,8.0
4,19.009000062942505,learn,40990.999937057495,Thu Apr 17 2025 17:22:43 GMT-0500 (Central Daylight Time),659652.799999997,A,queenenter,O,enter,494,1,2648.7999999970198,657004.0,7111,WL,C,8.0
4,20.342000007629395,learn,39657.999992370605,Thu Apr 17 2025 17:22:43 GMT-0500 (Central Daylight Time),660986.1000000015,A,s,O,s,1313,1,1333.0,659653.1000000015,7111,WL,C,9.0
4,20.625,learn,39375.0,Thu Apr 17 2025 17:22:43 GMT-0500 (Central Daylight Time),661269.299999997,A,su,O,u,268,1,1616.1999999955297,659653.1000000015,7111,WL,C,9.0
4,20.960000038146973,learn,39039.99996185303,Thu Apr 17 2025 17:22:43 GMT-0500 (Central Daylight Time),661603.700000003,A,sug,O,g,313,1,1950.6000000014901,659653.1000000015,7111,WL,C,9.0
4,21.125,learn,38875.0,Thu Apr 17 2025 17:22:43 GMT-0500 (Central Daylight Time),661769.1000000015,A,suga,O,a,155,1,2116.0,659653.1000000015,7111,WL,C,9.0
4,21.625,learn,38375.0,Thu Apr 17 2025 17:22:43 GMT-0500 (Central Daylight Time),662268.8999999985,A,sugar,O,r,485,1,2615.7999999970198,659653.1000000015,7111,WL,C,9.0
4,22.174999952316284,learn,37825.000047683716,Thu Apr 17 2025 17:22:43 GMT-0500 (Central Daylight Time),662818.700000003,A,sugarenter,O,enter,530,1,3165.60000000149,659653.1000000015,7111,WL,C,9.0
4,24.457000017166138,learn,35542.99998283386,Thu Apr 17 2025 17:22:43 GMT-0500 (Central Daylight Time),665101.3999999985,A,c,O,c,2276,1,2282.2999999970198,662819.1000000015,7111,WL,C,10.0
4,24.756999969482422,learn,35243.00003051758,Thu Apr 17 2025 17:22:43 GMT-0500 (Central Daylight Time),665401.3999999985,A,ca,O,a,281,1,2582.2999999970198,662819.1000000015,7111,WL,C,10.0
4,24.891000032424927,learn,35108.99996757507,Thu Apr 17 2025 17:22:43 GMT-0500 (Central Daylight Time),665534.6000000015,A,cam,O,m,117,1,2715.5,662819.1000000015,7111,WL,C,10.0
4,25.141000032424927,learn,34858.99996757507,Thu Apr 17 2025 17:22:43 GMT-0500 (Central Daylight Time),665784.5,A,camp,O,p,240,1,2965.39999999851,662819.1000000015,7111,WL,C,10.0
4,25.457000017166138,learn,34542.99998283386,Thu Apr 17 2025 17:22:43 GMT-0500 (Central Daylight Time),666101.200000003,A,campenter,O,enter,310,1,3282.10000000149,662819.1000000015,7111,WL,C,10.0
4,27.789999961853027,learn,32210.000038146973,Thu Apr 17 2025 17:22:43 GMT-0500 (Central Daylight Time),668433.700000003,A,d,O,d,2321,1,2332.2000000029802,666101.5,7111,WL,C,11.0
4,28.039000034332275,learn,31960.999965667725,Thu Apr 17 2025 17:22:43 GMT-0500 (Central Daylight Time),668683.5,A,do,O,o,236,1,2582.0,666101.5,7111,WL,C,11.0
4,28.189000129699707,learn,31810.999870300293,Thu Apr 17 2025 17:22:43 GMT-0500 (Central Daylight Time),668833.5,A,doc,O,c,139,1,2732.0,666101.5,7111,WL,C,11.0
4,28.456000089645386,learn,31543.999910354614,Thu Apr 17 2025 17:22:43 GMT-0500 (Central Daylight Time),669099.700000003,A,doco,O,o,261,1,2998.2000000029802,666101.5,7111,WL,C,11.0
4,28.6560001373291,learn,31343.9998626709,Thu Apr 17 2025 17:22:43 GMT-0500 (Central Daylight Time),669299.8999999985,A,docot,O,t,186,1,3198.39999999851,666101.5,7111,WL,C,11.0
4,28.939000129699707,learn,31060.999870300293,Thu Apr 17 2025 17:22:43 GMT-0500 (Central Daylight Time),669583.299999997,A,docotr,O,r,266,1,3481.7999999970198,666101.5,7111,WL,C,11.0
4,29.389000177383423,learn,30610.999822616577,Thu Apr 17 2025 17:22:43 GMT-0500 (Central Daylight Time),670032.799999997,A,docotrenter,O,enter,439,1,3931.2999999970198,666101.5,7111,WL,C,11.0
4,32.187999963760376,learn,27812.000036239624,Thu Apr 17 2025 17:22:43 GMT-0500 (Central Daylight Time),672832.3999999985,A,l,O,l,2780,1,2799.2999999970198,670033.1000000015,7111,WL,C,12.0
4,33.371999979019165,learn,26628.000020980835,Thu Apr 17 2025 17:22:43 GMT-0500 (Central Daylight Time),674015.5,A,le,O,e,1166,1,3982.39999999851,670033.1000000015,7111,WL,C,12.0
4,33.771000146865845,learn,26228.999853134155,Thu Apr 17 2025 17:22:43 GMT-0500 (Central Daylight Time),674415.200000003,A,let,O,t,391,1,4382.10000000149,670033.1000000015,7111,WL,C,12.0
4,33.955000162124634,learn,26044.999837875366,Thu Apr 17 2025 17:22:43 GMT-0500 (Central Daylight Time),674598.799999997,A,lett,O,t,167,1,4565.69999999553,670033.1000000015,7111,WL,C,12.0
4,34.28800010681152,learn,25711.999893188477,Thu Apr 17 2025 17:22:43 GMT-0500 (Central Daylight Time),674931.799999997,A,lette,O,e,313,1,4898.69999999553,670033.1000000015,7111,WL,C,12.0
4,34.437999963760376,learn,25562.000036239624,Thu Apr 17 2025 17:22:43 GMT-0500 (Central Daylight Time),675081.700000003,A,letter,O,r,131,1,5048.60000000149,670033.1000000015,7111,WL,C,12.0
4,34.88800001144409,learn,25111.99998855591,Thu Apr 17 2025 17:22:43 GMT-0500 (Central Daylight Time),675531.5,A,letterenter,O,enter,429,1,5498.39999999851,670033.1000000015,7111,WL,C,12.0
4,38.63600015640259,learn,21363.999843597412,Thu Apr 17 2025 17:22:43 GMT-0500 (Central Daylight Time),679280.299999997,A,c,O,c,3731,1,3748.39999999851,675531.8999999985,7111,WL,C,13.0
4,38.835999965667725,learn,21164.000034332275,Thu Apr 17 2025 17:22:43 GMT-0500 (Central Daylight Time),679480.5,A,co,O,o,190,1,3948.60000000149,675531.8999999985,7111,WL,C,13.0
4,39.03600001335144,learn,20963.99998664856,Thu Apr 17 2025 17:22:43 GMT-0500 (Central Daylight Time),679680.3999999985,A,cor,O,r,182,1,4148.5,675531.8999999985,7111,WL,C,13.0
4,39.16900014877319,learn,20830.999851226807,Thu Apr 17 2025 17:22:43 GMT-0500 (Central Daylight Time),679813.3999999985,A,corn,O,n,126,1,4281.5,675531.8999999985,7111,WL,C,13.0
4,39.53600001335144,learn,20463.99998664856,Thu Apr 17 2025 17:22:43 GMT-0500 (Central Daylight Time),680179.799999997,A,cornenter,O,enter,361,1,4647.89999999851,675531.8999999985,7111,WL,C,13.0
4,46.93400001525879,learn,13065.999984741211,Thu Apr 17 2025 17:22:43 GMT-0500 (Central Daylight Time),687577.799999997,A,b,O,b,7386,1,7397.69999999553,680180.1000000015,7111,WL,C,14.0
4,47.117000102996826,learn,12882.999897003174,Thu Apr 17 2025 17:22:43 GMT-0500 (Central Daylight Time),687761.0,A,bo,O,o,172,1,7580.89999999851,680180.1000000015,7111,WL,C,14.0
4,47.367000102996826,learn,12632.999897003174,Thu Apr 17 2025 17:22:43 GMT-0500 (Central Daylight Time),688010.799999997,A,boy,O,y,237,1,7830.69999999553,680180.1000000015,7111,WL,C,14.0
4,48.03400015830994,learn,11965.999841690063,Thu Apr 17 2025 17:22:43 GMT-0500 (Central Daylight Time),688677.5,A,boyenter,O,enter,651,1,8497.39999999851,680180.1000000015,7111,WL,C,14.0
4,60.01300001144409,learn,-13.000011444091797,Thu Apr 17 2025 17:22:43 GMT-0500 (Central Daylight Time),700656.8999999985,A,None,O,None,11975,1,11979.10000000149,688677.799999997,7111,WL,C,15.0
5,0.5829999446868896,learn,60000.0,Thu Apr 17 2025 17:22:43 GMT-0500 (Central Daylight Time),768252.299999997,A,h,O,h,578,1,583.2999999970198,767669.0,7111,WL,C,1.0
5,1.0999999046325684,learn,60000.0,Thu Apr 17 2025 17:22:43 GMT-0500 (Central Daylight Time),768769.0,A,ho,O,o,506,1,1100.0,767669.0,7111,WL,C,1.0
5,1.432999849319458,learn,60000.0,Thu Apr 17 2025 17:22:43 GMT-0500 (Central Daylight Time),769102.1000000015,A,hom,O,m,325,1,1433.1000000014901,767669.0,7111,WL,C,1.0
5,2.2819998264312744,learn,60000.0,Thu Apr 17 2025 17:22:43 GMT-0500 (Central Daylight Time),769951.700000003,A,home,O,e,840,1,2282.7000000029802,767669.0,7111,WL,C,1.0
5,2.748999834060669,learn,60000.0,Thu Apr 17 2025 17:22:43 GMT-0500 (Central Daylight Time),770418.299999997,A,homeenter,O,enter,447,1,2749.2999999970198,767669.0,7111,WL,C,1.0
5,3.365999937057495,learn,60000.0,Thu Apr 17 2025 17:22:43 GMT-0500 (Central Daylight Time),771035.0,A,b,O,b,596,1,616.2999999970198,770418.700000003,7111,WL,C,2.0
5,3.7319998741149902,learn,60000.0,Thu Apr 17 2025 17:22:43 GMT-0500 (Central Daylight Time),771401.6000000015,A,bo,O,o,355,1,982.8999999985099,770418.700000003,7111,WL,C,2.0
5,4.098999977111816,learn,60000.0,Thu Apr 17 2025 17:22:43 GMT-0500 (Central Daylight Time),771768.0,A,boy,O,y,349,1,1349.2999999970198,770418.700000003,7111,WL,C,2.0
5,5.06499981880188,learn,60000.0,Thu Apr 17 2025 17:22:43 GMT-0500 (Central Daylight Time),772734.3999999985,A,boyd,O,d,950,1,2315.6999999955297,770418.700000003,7111,WL,C,2.0
5,5.297999858856201,learn,60000.0,Thu Apr 17 2025 17:22:43 GMT-0500 (Central Daylight Time),772967.5,A,boydo,O,o,216,1,2548.7999999970198,770418.700000003,7111,WL,C,2.0
5,5.447999954223633,learn,60000.0,Thu Apr 17 2025 17:22:43 GMT-0500 (Central Daylight Time),773117.700000003,A,boydoc,O,c,143,1,2699.0,770418.700000003,7111,WL,C,2.0
5,5.847999811172485,learn,60000.0,Thu Apr 17 2025 17:22:43 GMT-0500 (Central Daylight Time),773517.5,A,boydoct,O,t,393,1,3098.7999999970198,770418.700000003,7111,WL,C,2.0
5,6.148000001907349,learn,60000.0,Thu Apr 17 2025 17:22:43 GMT-0500 (Central Daylight Time),773817.3999999985,A,boydocto,O,o,281,1,3398.6999999955297,770418.700000003,7111,WL,C,2.0
5,6.398000001907349,learn,60000.0,Thu Apr 17 2025 17:22:43 GMT-0500 (Central Daylight Time),774067.200000003,A,boydoctor,O,r,238,1,3648.5,770418.700000003,7111,WL,C,2.0
5,7.313999891281128,learn,60000.0,Thu Apr 17 2025 17:22:43 GMT-0500 (Central Daylight Time),774983.700000003,A,boydoctorenter,O,enter,907,1,4565.0,770418.700000003,7111,WL,C,2.0
5,7.846999883651733,learn,60000.0,Thu Apr 17 2025 17:22:43 GMT-0500 (Central Daylight Time),775516.700000003,A,c,O,c,519,1,532.7000000029802,774984.0,7111,WL,C,3.0
5,8.113999843597412,learn,60000.0,Thu Apr 17 2025 17:22:43 GMT-0500 (Central Daylight Time),775783.3999999985,A,ca,O,a,257,1,799.3999999985099,774984.0,7111,WL,C,3.0
5,8.396999835968018,learn,60000.0,Thu Apr 17 2025 17:22:43 GMT-0500 (Central Daylight Time),776066.700000003,A,cam,O,m,263,1,1082.7000000029802,774984.0,7111,WL,C,3.0
5,8.863999843597412,learn,60000.0,Thu Apr 17 2025 17:22:43 GMT-0500 (Central Daylight Time),776533.299999997,A,camp,O,p,460,1,1549.2999999970198,774984.0,7111,WL,C,3.0
5,9.54699993133545,learn,60000.0,Thu Apr 17 2025 17:22:43 GMT-0500 (Central Daylight Time),777216.299999997,A,campenter,O,enter,665,1,2232.2999999970198,774984.0,7111,WL,C,3.0
5,10.163999795913696,learn,60000.0,Thu Apr 17 2025 17:22:43 GMT-0500 (Central Daylight Time),777833.0,A,f,O,f,607,1,616.2999999970198,777216.700000003,7111,WL,C,4.0
5,10.444999933242798,learn,60000.0,Thu Apr 17 2025 17:22:43 GMT-0500 (Central Daylight Time),778116.0,A,fl,O,l,270,1,899.2999999970198,777216.700000003,7111,WL,C,4.0
5,10.59499979019165,learn,60000.0,Thu Apr 17 2025 17:22:43 GMT-0500 (Central Daylight Time),778266.1000000015,A,fla,O,a,139,1,1049.3999999985099,777216.700000003,7111,WL,C,4.0
5,10.978999853134155,learn,60000.0,Thu Apr 17 2025 17:22:43 GMT-0500 (Central Daylight Time),778649.200000003,A,flag,O,g,372,1,1432.5,777216.700000003,7111,WL,C,4.0
5,11.794999837875366,learn,60000.0,Thu Apr 17 2025 17:22:43 GMT-0500 (Central Daylight Time),779465.5,A,flagenter,O,enter,797,1,2248.7999999970198,777216.700000003,7111,WL,C,4.0
5,12.610999822616577,learn,60000.0,Thu Apr 17 2025 17:22:43 GMT-0500 (Central Daylight Time),780281.8999999985,A,l,O,l,797,1,816.1000000014901,779465.799999997,7111,WL,C,5.0
5,12.777999877929688,learn,60000.0,Thu Apr 17 2025 17:22:43 GMT-0500 (Central Daylight Time),780448.6000000015,A,le,O,e,156,1,982.8000000044703,779465.799999997,7111,WL,C,5.0
5,13.260999917984009,learn,60000.0,Thu Apr 17 2025 17:22:43 GMT-0500 (Central Daylight Time),780931.799999997,A,let,O,t,463,1,1466.0,779465.799999997,7111,WL,C,5.0
5,13.460999965667725,learn,60000.0,Thu Apr 17 2025 17:22:43 GMT-0500 (Central Daylight Time),781131.700000003,A,lett,O,t,179,1,1665.9000000059605,779465.799999997,7111,WL,C,5.0
5,13.905999898910522,learn,60000.0,Thu Apr 17 2025 17:22:43 GMT-0500 (Central Daylight Time),781576.5,A,lette,O,e,423,1,2110.7000000029802,779465.799999997,7111,WL,C,5.0
5,14.010999917984009,learn,60000.0,Thu Apr 17 2025 17:22:43 GMT-0500 (Central Daylight Time),781681.700000003,A,letter,O,r,93,1,2215.9000000059605,779465.799999997,7111,WL,C,5.0
5,14.277999877929688,learn,60000.0,Thu Apr 17 2025 17:22:43 GMT-0500 (Central Daylight Time),781948.299999997,A,letterenter,O,enter,253,1,2482.5,779465.799999997,7111,WL,C,5.0
5,14.543999910354614,learn,60000.0,Thu Apr 17 2025 17:22:43 GMT-0500 (Central Daylight Time),782214.5,A,c,O,c,250,1,265.8999999985099,781948.6000000015,7111,WL,C,6.0
5,14.776999950408936,learn,60000.0,Thu Apr 17 2025 17:22:43 GMT-0500 (Central Daylight Time),782448.0,A,co,O,o,216,1,499.3999999985099,781948.6000000015,7111,WL,C,6.0
5,14.977999925613403,learn,60000.0,Thu Apr 17 2025 17:22:43 GMT-0500 (Central Daylight Time),782648.1000000015,A,cor,O,r,191,1,699.5,781948.6000000015,7111,WL,C,6.0
5,15.194000005722046,learn,60000.0,Thu Apr 17 2025 17:22:43 GMT-0500 (Central Daylight Time),782864.5,A,corn,O,n,198,1,915.8999999985099,781948.6000000015,7111,WL,C,6.0
5,15.843999862670898,learn,60000.0,Thu Apr 17 2025 17:22:43 GMT-0500 (Central Daylight Time),783514.1000000015,A,cornenter,O,enter,630,1,1565.5,781948.6000000015,7111,WL,C,6.0
5,17.109999895095825,learn,60000.0,Thu Apr 17 2025 17:22:43 GMT-0500 (Central Daylight Time),784780.6000000015,A,s,O,s,1252,1,1266.2000000029802,783514.3999999985,7111,WL,C,7.0
5,17.276999950408936,learn,60000.0,Thu Apr 17 2025 17:22:43 GMT-0500 (Central Daylight Time),784947.299999997,A,sh,O,h,154,1,1432.8999999985099,783514.3999999985,7111,WL,C,7.0
5,17.65999984741211,learn,60000.0,Thu Apr 17 2025 17:22:43 GMT-0500 (Central Daylight Time),785330.299999997,A,sho,O,o,363,1,1815.8999999985099,783514.3999999985,7111,WL,C,7.0
5,17.82699990272522,learn,60000.0,Thu Apr 17 2025 17:22:43 GMT-0500 (Central Daylight Time),785497.1000000015,A,shor,O,r,157,1,1982.7000000029802,783514.3999999985,7111,WL,C,7.0
5,18.126999855041504,learn,60000.0,Thu Apr 17 2025 17:22:43 GMT-0500 (Central Daylight Time),785797.8999999985,A,shore,O,e,293,1,2283.5,783514.3999999985,7111,WL,C,7.0
5,19.092999935150146,learn,60000.0,Thu Apr 17 2025 17:22:43 GMT-0500 (Central Daylight Time),786763.6000000015,A,shoreenter,O,enter,961,1,3249.2000000029802,783514.3999999985,7111,WL,C,7.0
5,20.025999784469604,learn,60000.0,Thu Apr 17 2025 17:22:43 GMT-0500 (Central Daylight Time),787696.3999999985,A,c,O,c,923,1,932.5,786763.8999999985,7111,WL,C,8.0
5,20.22599983215332,learn,60000.0,Thu Apr 17 2025 17:22:43 GMT-0500 (Central Daylight Time),787896.299999997,A,ca,O,a,182,1,1132.3999999985099,786763.8999999985,7111,WL,C,8.0
5,20.608999967575073,learn,60000.0,Thu Apr 17 2025 17:22:43 GMT-0500 (Central Daylight Time),788279.5,A,cat,O,t,374,1,1515.6000000014901,786763.8999999985,7111,WL,C,8.0
5,20.825999975204468,learn,60000.0,Thu Apr 17 2025 17:22:43 GMT-0500 (Central Daylight Time),788496.1000000015,A,catt,O,t,199,1,1732.2000000029802,786763.8999999985,7111,WL,C,8.0
5,21.025999784469604,learn,60000.0,Thu Apr 17 2025 17:22:43 GMT-0500 (Central Daylight Time),788696.1000000015,A,cattl,O,l,182,1,1932.2000000029802,786763.8999999985,7111,WL,C,8.0
5,21.22499990463257,learn,60000.0,Thu Apr 17 2025 17:22:43 GMT-0500 (Central Daylight Time),788895.8999999985,A,cattle,O,e,182,1,2132.0,786763.8999999985,7111,WL,C,8.0
5,21.97499990463257,learn,60000.0,Thu Apr 17 2025 17:22:43 GMT-0500 (Central Daylight Time),789645.3999999985,A,cattleenter,O,enter,743,1,2881.5,786763.8999999985,7111,WL,C,8.0
5,22.824999809265137,learn,60000.0,Thu Apr 17 2025 17:22:43 GMT-0500 (Central Daylight Time),790495.299999997,A,n,O,n,832,1,849.5999999940395,789645.700000003,7111,WL,C,9.0
5,23.074999809265137,learn,60000.0,Thu Apr 17 2025 17:22:43 GMT-0500 (Central Daylight Time),790745.3999999985,A,na,O,a,231,1,1099.6999999955297,789645.700000003,7111,WL,C,9.0
5,23.241999864578247,learn,60000.0,Thu Apr 17 2025 17:22:43 GMT-0500 (Central Daylight Time),790912.1000000015,A,nai,O,i,149,1,1266.3999999985099,789645.700000003,7111,WL,C,9.0
5,23.70799994468689,learn,60000.0,Thu Apr 17 2025 17:22:43 GMT-0500 (Central Daylight Time),791378.3999999985,A,nail,O,l,454,1,1732.6999999955297,789645.700000003,7111,WL,C,9.0
5,24.20799994468689,learn,60000.0,Thu Apr 17 2025 17:22:43 GMT-0500 (Central Daylight Time),791878.3999999985,A,nailenter,O,enter,492,1,2232.6999999955297,789645.700000003,7111,WL,C,9.0
5,24.54099988937378,learn,60000.0,Thu Apr 17 2025 17:22:43 GMT-0500 (Central Daylight Time),792211.5,A,t,O,t,320,1,332.79999999701977,791878.700000003,7111,WL,C,10.0
5,24.757999897003174,learn,60000.0,Thu Apr 17 2025 17:22:43 GMT-0500 (Central Daylight Time),792428.200000003,A,to,O,o,203,1,549.5,791878.700000003,7111,WL,C,10.0
5,25.007999897003174,learn,60000.0,Thu Apr 17 2025 17:22:43 GMT-0500 (Central Daylight Time),792678.200000003,A,tow,O,w,234,1,799.5,791878.700000003,7111,WL,C,10.0
5,25.29099988937378,learn,60000.0,Thu Apr 17 2025 17:22:43 GMT-0500 (Central Daylight Time),792961.3999999985,A,towe,O,e,272,1,1082.6999999955297,791878.700000003,7111,WL,C,10.0
5,25.54099988937378,learn,60000.0,Thu Apr 17 2025 17:22:43 GMT-0500 (Central Daylight Time),793211.299999997,A,tower,O,r,229,1,1332.5999999940395,791878.700000003,7111,WL,C,10.0
5,25.823999881744385,learn,60000.0,Thu Apr 17 2025 17:22:43 GMT-0500 (Central Daylight Time),793494.6000000015,A,towerenter,O,enter,276,1,1615.8999999985099,791878.700000003,7111,WL,C,10.0
5,26.223999977111816,learn,60000.0,Thu Apr 17 2025 17:22:43 GMT-0500 (Central Daylight Time),793894.3999999985,A,w,O,w,384,1,399.5,793494.8999999985,7111,WL,C,11.0
5,26.45699977874756,learn,60000.0,Thu Apr 17 2025 17:22:43 GMT-0500 (Central Daylight Time),794127.5,A,wh,O,h,224,1,632.6000000014901,793494.8999999985,7111,WL,C,11.0
5,26.62399983406067,learn,60000.0,Thu Apr 17 2025 17:22:43 GMT-0500 (Central Daylight Time),794294.3999999985,A,whe,O,e,151,1,799.5,793494.8999999985,7111,WL,C,11.0
5,26.972999811172485,learn,60000.0,Thu Apr 17 2025 17:22:43 GMT-0500 (Central Daylight Time),794644.1000000015,A,whea,O,a,344,1,1149.2000000029802,793494.8999999985,7111,WL,C,11.0
5,27.20699977874756,learn,60000.0,Thu Apr 17 2025 17:22:43 GMT-0500 (Central Daylight Time),794877.700000003,A,wheat,O,t,227,1,1382.8000000044703,793494.8999999985,7111,WL,C,11.0
5,27.6729998588562,learn,60000.0,Thu Apr 17 2025 17:22:43 GMT-0500 (Central Daylight Time),795344.1000000015,A,wheatenter,O,enter,458,1,1849.2000000029802,793494.8999999985,7111,WL,C,11.0
5,28.289999961853027,learn,60000.0,Thu Apr 17 2025 17:22:43 GMT-0500 (Central Daylight Time),795960.299999997,A,q,O,q,607,1,616.0,795344.299999997,7111,WL,C,12.0
5,28.555999994277954,learn,60000.0,Thu Apr 17 2025 17:22:43 GMT-0500 (Central Daylight Time),796226.8999999985,A,qu,O,u,246,1,882.6000000014901,795344.299999997,7111,WL,C,12.0
5,28.789999961853027,learn,60000.0,Thu Apr 17 2025 17:22:43 GMT-0500 (Central Daylight Time),796460.1000000015,A,que,O,e,228,1,1115.8000000044703,795344.299999997,7111,WL,C,12.0
5,28.988999843597412,learn,60000.0,Thu Apr 17 2025 17:22:43 GMT-0500 (Central Daylight Time),796659.8999999985,A,quee,O,e,194,1,1315.6000000014901,795344.299999997,7111,WL,C,12.0
5,29.1729998588562,learn,60000.0,Thu Apr 17 2025 17:22:43 GMT-0500 (Central Daylight Time),796843.5,A,queen,O,n,179,1,1499.2000000029802,795344.299999997,7111,WL,C,12.0
5,29.83899998664856,learn,60000.0,Thu Apr 17 2025 17:22:43 GMT-0500 (Central Daylight Time),797510.0,A,queenenter,O,enter,651,1,2165.7000000029802,795344.299999997,7111,WL,C,12.0
5,30.188999891281128,learn,60000.0,Thu Apr 17 2025 17:22:43 GMT-0500 (Central Daylight Time),797859.799999997,A,s,O,s,337,1,349.5,797510.299999997,7111,WL,C,13.0
5,30.538999795913696,learn,60000.0,Thu Apr 17 2025 17:22:43 GMT-0500 (Central Daylight Time),798209.700000003,A,su,O,u,331,1,699.4000000059605,797510.299999997,7111,WL,C,13.0
5,30.788999795913696,learn,60000.0,Thu Apr 17 2025 17:22:43 GMT-0500 (Central Daylight Time),798459.6000000015,A,sug,O,g,237,1,949.3000000044703,797510.299999997,7111,WL,C,13.0
5,31.038999795913696,learn,60000.0,Thu Apr 17 2025 17:22:43 GMT-0500 (Central Daylight Time),798709.3999999985,A,suga,O,a,243,1,1199.1000000014901,797510.299999997,7111,WL,C,13.0
5,31.221999883651733,learn,60000.0,Thu Apr 17 2025 17:22:43 GMT-0500 (Central Daylight Time),798892.5,A,sugar,O,r,177,1,1382.2000000029802,797510.299999997,7111,WL,C,13.0
5,32.121999979019165,learn,60000.0,Thu Apr 17 2025 17:22:43 GMT-0500 (Central Daylight Time),799792.6000000015,A,sugarenter,O,enter,890,1,2282.3000000044703,797510.299999997,7111,WL,C,13.0
5,42.001999855041504,learn,60000.0,Thu Apr 17 2025 17:22:43 GMT-0500 (Central Daylight Time),809672.700000003,A,b,O,b,9861,1,9879.70000000298,799793.0,7111,WL,C,14.0
5,42.26899981498718,learn,60000.0,Thu Apr 17 2025 17:22:43 GMT-0500 (Central Daylight Time),809939.3999999985,A,bo,O,o,253,1,10146.39999999851,799793.0,7111,WL,C,14.0
5,42.501999855041504,learn,60000.0,Thu Apr 17 2025 17:22:43 GMT-0500 (Central Daylight Time),810172.8999999985,A,bod,O,d,220,1,10379.89999999851,799793.0,7111,WL,C,14.0
5,42.668999910354614,learn,60000.0,Thu Apr 17 2025 17:22:43 GMT-0500 (Central Daylight Time),810339.200000003,A,body,O,y,153,1,10546.20000000298,799793.0,7111,WL,C,14.0
5,43.168999910354614,learn,60000.0,Thu Apr 17 2025 17:22:43 GMT-0500 (Central Daylight Time),810839.200000003,A,bodyenter,O,enter,483,1,11046.20000000298,799793.0,7111,WL,C,14.0
5,50.33299994468689,learn,60000.0,Thu Apr 17 2025 17:22:43 GMT-0500 (Central Daylight Time),818003.1000000015,A,l,O,l,7143,1,7163.60000000149,810839.5,7111,WL,C,15.0
5,50.48299980163574,learn,60000.0,Thu Apr 17 2025 17:22:43 GMT-0500 (Central Daylight Time),818153.200000003,A,le,O,e,130,1,7313.70000000298,810839.5,7111,WL,C,15.0
5,50.782999992370605,learn,60000.0,Thu Apr 17 2025 17:22:43 GMT-0500 (Central Daylight Time),818453.6000000015,A,let,O,t,285,1,7614.10000000149,810839.5,7111,WL,C,15.0
5,50.98299980163574,learn,60000.0,Thu Apr 17 2025 17:22:43 GMT-0500 (Central Daylight Time),818653.5,A,lett,O,t,185,1,7814.0,810839.5,7111,WL,C,15.0
5,51.24899983406067,learn,60000.0,Thu Apr 17 2025 17:22:43 GMT-0500 (Central Daylight Time),818920.0,A,lette,O,e,257,1,8080.5,810839.5,7111,WL,C,15.0
5,51.66599988937378,learn,60000.0,Thu Apr 17 2025 17:22:43 GMT-0500 (Central Daylight Time),819336.299999997,A,letter,O,r,407,1,8496.79999999702,810839.5,7111,WL,C,15.0
5,52.115999937057495,learn,60000.0,Thu Apr 17 2025 17:22:43 GMT-0500 (Central Daylight Time),819786.3999999985,A,letterenter,O,enter,430,1,8946.89999999851,810839.5,7111,WL,C,15.0
6,0.9160001277923584,distr,59083.99987220764,Thu Apr 17 2025 17:22:43 GMT-0500 (Central Daylight Time),886648.700000003,B,s,O,s,907,1,916.1000000014901,885732.6000000015,7111,WL,C,1.0
6,1.1159999370574951,distr,58884.000062942505,Thu Apr 17 2025 17:22:43 GMT-0500 (Central Daylight Time),886848.6000000015,B,sk,O,k,182,1,1116.0,885732.6000000015,7111,WL,C,1.0
6,1.8320000171661377,distr,58167.99998283386,Thu Apr 17 2025 17:22:43 GMT-0500 (Central Daylight Time),887565.200000003,B,sky,O,y,710,1,1832.6000000014901,885732.6000000015,7111,WL,C,1.0
6,2.5820000171661377,distr,57417.99998283386,Thu Apr 17 2025 17:22:43 GMT-0500 (Central Daylight Time),888314.799999997,B,skyenter,O,enter,737,1,2582.1999999955297,885732.6000000015,7111,WL,C,1.0
6,3.065000057220459,distr,56934.99994277954,Thu Apr 17 2025 17:22:43 GMT-0500 (Central Daylight Time),888798.0,B,v,O,v,468,1,482.8999999985099,888315.1000000015,7111,WL,C,2.0
6,3.2820000648498535,distr,56717.99993515015,Thu Apr 17 2025 17:22:43 GMT-0500 (Central Daylight Time),889014.3999999985,B,va,O,a,208,1,699.2999999970198,888315.1000000015,7111,WL,C,2.0
6,3.5820000171661377,distr,56417.99998283386,Thu Apr 17 2025 17:22:43 GMT-0500 (Central Daylight Time),889314.5,B,val,O,l,288,1,999.3999999985099,888315.1000000015,7111,WL,C,2.0
6,3.765000104904175,distr,56234.999895095825,Thu Apr 17 2025 17:22:43 GMT-0500 (Central Daylight Time),889498.1000000015,B,vall,O,l,172,1,1183.0,888315.1000000015,7111,WL,C,2.0
6,3.997999906539917,distr,56002.00009346008,Thu Apr 17 2025 17:22:43 GMT-0500 (Central Daylight Time),889730.8999999985,B,valle,O,e,212,1,1415.7999999970198,888315.1000000015,7111,WL,C,2.0
6,4.2149999141693115,distr,55785.00008583069,Thu Apr 17 2025 17:22:43 GMT-0500 (Central Daylight Time),889947.6000000015,B,valley,O,y,211,1,1632.5,888315.1000000015,7111,WL,C,2.0
6,5.031000137329102,distr,54968.9998626709,Thu Apr 17 2025 17:22:43 GMT-0500 (Central Daylight Time),890764.0,B,valleyenter,O,enter,811,1,2448.89999999851,888315.1000000015,7111,WL,C,2.0
6,5.680999994277954,distr,54319.000005722046,Thu Apr 17 2025 17:22:43 GMT-0500 (Central Daylight Time),891413.799999997,B,b,O,b,635,1,649.5999999940395,890764.200000003,7111,WL,C,3.0
6,5.914000034332275,distr,54085.999965667725,Thu Apr 17 2025 17:22:43 GMT-0500 (Central Daylight Time),891647.200000003,B,bu,O,u,217,1,883.0,890764.200000003,7111,WL,C,3.0
6,6.164000034332275,distr,53835.999965667725,Thu Apr 17 2025 17:22:43 GMT-0500 (Central Daylight Time),891897.1000000015,B,but,O,t,239,1,1132.8999999985099,890764.200000003,7111,WL,C,3.0
6,6.3480000495910645,distr,53651.999950408936,Thu Apr 17 2025 17:22:43 GMT-0500 (Central Daylight Time),892080.3999999985,B,butt,O,t,173,1,1316.1999999955297,890764.200000003,7111,WL,C,3.0
6,6.730999946594238,distr,53269.00005340576,Thu Apr 17 2025 17:22:43 GMT-0500 (Central Daylight Time),892463.700000003,B,butte,O,e,375,1,1699.5,890764.200000003,7111,WL,C,3.0
6,6.96399998664856,distr,53036.00001335144,Thu Apr 17 2025 17:22:43 GMT-0500 (Central Daylight Time),892696.799999997,B,butter,O,r,215,1,1932.5999999940395,890764.200000003,7111,WL,C,3.0
6,7.930000066757202,distr,52069.9999332428,Thu Apr 17 2025 17:22:43 GMT-0500 (Central Daylight Time),893663.1000000015,B,butterenter,O,enter,950,1,2898.89999999851,890764.200000003,7111,WL,C,3.0
6,10.430000066757202,distr,49569.9999332428,Thu Apr 17 2025 17:22:43 GMT-0500 (Central Daylight Time),896162.6000000015,B,h,O,h,2487,1,2499.3000000044703,893663.299999997,7111,WL,C,4.0
6,10.763000011444092,distr,49236.99998855591,Thu Apr 17 2025 17:22:43 GMT-0500 (Central Daylight Time),896495.6000000015,B,ho,O,o,324,1,2832.3000000044703,893663.299999997,7111,WL,C,4.0
6,11.046000003814697,distr,48953.9999961853,Thu Apr 17 2025 17:22:43 GMT-0500 (Central Daylight Time),896778.799999997,B,hot,O,t,263,1,3115.5,893663.299999997,7111,WL,C,4.0
6,11.413000106811523,distr,48586.99989318848,Thu Apr 17 2025 17:22:43 GMT-0500 (Central Daylight Time),897145.3999999985,B,hote,O,e,355,1,3482.10000000149,893663.299999997,7111,WL,C,4.0
6,11.595999956130981,distr,48404.00004386902,Thu Apr 17 2025 17:22:43 GMT-0500 (Central Daylight Time),897328.5,B,hotel,O,l,165,1,3665.2000000029802,893663.299999997,7111,WL,C,4.0
6,12.278000116348267,distr,47721.99988365173,Thu Apr 17 2025 17:22:43 GMT-0500 (Central Daylight Time),898011.8999999985,B,hotelenter,O,enter,678,1,4348.60000000149,893663.299999997,7111,WL,C,4.0
6,13.111000061035156,distr,46888.999938964844,Thu Apr 17 2025 17:22:43 GMT-0500 (Central Daylight Time),898844.8999999985,B,t,O,t,827,1,832.7999999970198,898012.1000000015,7111,WL,C,5.0
6,13.424000024795532,distr,46575.99997520447,Thu Apr 17 2025 17:22:43 GMT-0500 (Central Daylight Time),899158.299999997,B,to,O,o,309,1,1146.1999999955297,898012.1000000015,7111,WL,C,5.0
6,13.57200002670288,distr,46427.99997329712,Thu Apr 17 2025 17:22:43 GMT-0500 (Central Daylight Time),899305.8999999985,B,too,O,o,143,1,1293.7999999970198,898012.1000000015,7111,WL,C,5.0
6,13.760999917984009,distr,46239.00008201599,Thu Apr 17 2025 17:22:43 GMT-0500 (Central Daylight Time),899494.6000000015,B,tool,O,l,180,1,1482.5,898012.1000000015,7111,WL,C,5.0
6,14.559999942779541,distr,45440.00005722046,Thu Apr 17 2025 17:22:43 GMT-0500 (Central Daylight Time),900294.3999999985,B,toolenter,O,enter,792,1,2282.2999999970198,898012.1000000015,7111,WL,C,5.0
6,17.55999994277954,distr,42440.00005722046,Thu Apr 17 2025 17:22:43 GMT-0500 (Central Daylight Time),903293.5,B,c,O,c,2992,1,2998.7000000029802,900294.799999997,7111,WL,C,6.0
6,17.792999982833862,distr,42207.00001716614,Thu Apr 17 2025 17:22:43 GMT-0500 (Central Daylight Time),903526.799999997,B,ch,O,h,217,1,3232.0,900294.799999997,7111,WL,C,6.0
6,18.04200005531311,distr,41957.99994468689,Thu Apr 17 2025 17:22:43 GMT-0500 (Central Daylight Time),903776.3999999985,B,chr,O,r,240,1,3481.60000000149,900294.799999997,7111,WL,C,6.0
6,18.242000102996826,distr,41757.999897003174,Thu Apr 17 2025 17:22:43 GMT-0500 (Central Daylight Time),903976.5,B,chri,O,i,190,1,3681.7000000029802,900294.799999997,7111,WL,C,6.0
6,18.926000118255615,distr,41073.999881744385,Thu Apr 17 2025 17:22:43 GMT-0500 (Central Daylight Time),904659.700000003,B,chrit,O,t,670,1,4364.9000000059605,900294.799999997,7111,WL,C,6.0
6,20.358999967575073,distr,39641.00003242493,Thu Apr 17 2025 17:22:43 GMT-0500 (Central Daylight Time),906092.700000003,B,chri,O,backspace,1419,1,5797.9000000059605,900294.799999997,7111,WL,C,6.0
6,20.657999992370605,distr,39342.000007629395,Thu Apr 17 2025 17:22:43 GMT-0500 (Central Daylight Time),906392.3999999985,B,chris,O,s,290,1,6097.60000000149,900294.799999997,7111,WL,C,6.0
6,21.157999992370605,distr,38842.000007629395,Thu Apr 17 2025 17:22:43 GMT-0500 (Central Daylight Time),906892.299999997,B,christ,O,t,487,1,6597.5,900294.799999997,7111,WL,C,6.0
6,21.72499990463257,distr,38275.00009536743,Thu Apr 17 2025 17:22:43 GMT-0500 (Central Daylight Time),907458.799999997,B,christm,O,m,554,1,7164.0,900294.799999997,7111,WL,C,6.0
6,21.97499990463257,distr,38025.00009536743,Thu Apr 17 2025 17:22:43 GMT-0500 (Central Daylight Time),907708.8999999985,B,christma,O,a,236,1,7414.10000000149,900294.799999997,7111,WL,C,6.0
6,22.258000135421753,distr,37741.99986457825,Thu Apr 17 2025 17:22:43 GMT-0500 (Central Daylight Time),907992.1000000015,B,christmas,O,s,266,1,7697.30000000447,900294.799999997,7111,WL,C,6.0
6,24.390000104904175,distr,35609.999895095825,Thu Apr 17 2025 17:22:43 GMT-0500 (Central Daylight Time),910124.299999997,B,christmasenter,O,enter,2126,1,9829.5,900294.799999997,7111,WL,C,6.0
6,25.574000120162964,distr,34425.999879837036,Thu Apr 17 2025 17:22:43 GMT-0500 (Central Daylight Time),911307.6000000015,B,m,O,m,1161,1,1183.0,910124.6000000015,7111,WL,C,7.0
6,25.806999921798706,distr,34193.000078201294,Thu Apr 17 2025 17:22:43 GMT-0500 (Central Daylight Time),911541.0,B,mo,O,o,227,1,1416.3999999985099,910124.6000000015,7111,WL,C,7.0
6,25.957000017166138,distr,34042.99998283386,Thu Apr 17 2025 17:22:43 GMT-0500 (Central Daylight Time),911691.1000000015,B,mot,O,t,129,1,1566.5,910124.6000000015,7111,WL,C,7.0
6,26.157000064849854,distr,33842.99993515015,Thu Apr 17 2025 17:22:43 GMT-0500 (Central Daylight Time),911890.6000000015,B,moth,O,h,187,1,1766.0,910124.6000000015,7111,WL,C,7.0
6,26.35700011253357,distr,33642.99988746643,Thu Apr 17 2025 17:22:43 GMT-0500 (Central Daylight Time),912090.799999997,B,mothe,O,e,188,1,1966.1999999955297,910124.6000000015,7111,WL,C,7.0
6,26.506999969482422,distr,33493.00003051758,Thu Apr 17 2025 17:22:43 GMT-0500 (Central Daylight Time),912240.700000003,B,mother,O,r,140,1,2116.10000000149,910124.6000000015,7111,WL,C,7.0
6,27.006999969482422,distr,32993.00003051758,Thu Apr 17 2025 17:22:43 GMT-0500 (Central Daylight Time),912740.6000000015,B,motherenter,O,enter,486,1,2616.0,910124.6000000015,7111,WL,C,7.0
6,38.15300011634827,distr,21846.999883651733,Thu Apr 17 2025 17:22:43 GMT-0500 (Central Daylight Time),923887.200000003,B,enter,O,enter,11129,1,11146.40000000596,912740.799999997,7111,WL,C,8.0
6,38.55299997329712,distr,21447.00002670288,Thu Apr 17 2025 17:22:43 GMT-0500 (Central Daylight Time),924286.799999997,B,enter,O,enter,383,1,399.19999999552965,923887.6000000015,7111,WL,C,9.0
6,38.88599991798401,distr,21114.00008201599,Thu Apr 17 2025 17:22:43 GMT-0500 (Central Daylight Time),924620.1000000015,B,enter,O,enter,313,1,332.8999999985099,924287.200000003,7111,WL,C,10.0
6,39.15300011634827,distr,20846.999883651733,Thu Apr 17 2025 17:22:43 GMT-0500 (Central Daylight Time),924886.799999997,B,enter,O,enter,250,1,266.29999999701977,924620.5,7111,WL,C,11.0
6,39.45300006866455,distr,20546.99993133545,Thu Apr 17 2025 17:22:43 GMT-0500 (Central Daylight Time),925186.6000000015,B,enter,O,enter,288,1,299.3999999985099,924887.200000003,7111,WL,C,12.0
6,39.75200009346008,distr,20247.999906539917,Thu Apr 17 2025 17:22:43 GMT-0500 (Central Daylight Time),925486.299999997,B,enter,O,enter,284,1,299.3999999985099,925186.8999999985,7111,WL,C,13.0
6,40.10199999809265,distr,19898.00000190735,Thu Apr 17 2025 17:22:43 GMT-0500 (Central Daylight Time),925836.299999997,B,enter,O,enter,336,1,349.59999999403954,925486.700000003,7111,WL,C,14.0
6,40.48699998855591,distr,19513.00001144409,Thu Apr 17 2025 17:22:43 GMT-0500 (Central Daylight Time),926220.700000003,B,enter,O,enter,370,1,384.1000000014901,925836.6000000015,7111,WL,C,15.0
7,7.664000034332275,immed,52335.999965667725,Thu Apr 17 2025 17:22:43 GMT-0500 (Central Daylight Time),935350.200000003,A,h,O,h,7657,1,7664.30000000447,927685.8999999985,7111,WL,C,1.0
7,8.064000129699707,immed,51935.99987030029,Thu Apr 17 2025 17:22:43 GMT-0500 (Central Daylight Time),935749.700000003,A,ho,O,o,392,1,8063.80000000447,927685.8999999985,7111,WL,C,1.0
7,8.214000225067139,immed,51785.99977493286,Thu Apr 17 2025 17:22:43 GMT-0500 (Central Daylight Time),935899.700000003,A,hot,O,t,145,1,8213.80000000447,927685.8999999985,7111,WL,C,1.0
7,8.514000177383423,immed,51485.99982261658,Thu Apr 17 2025 17:22:43 GMT-0500 (Central Daylight Time),936199.8999999985,A,hote,O,e,283,1,8514.0,927685.8999999985,7111,WL,C,1.0
7,8.814000129699707,immed,51185.99987030029,Thu Apr 17 2025 17:22:43 GMT-0500 (Central Daylight Time),936499.799999997,A,hotel,O,l,286,1,8813.89999999851,927685.8999999985,7111,WL,C,1.0
7,9.347000122070312,immed,50652.99987792969,Thu Apr 17 2025 17:22:43 GMT-0500 (Central Daylight Time),937032.799999997,A,hotels,O,s,515,1,9346.89999999851,927685.8999999985,7111,WL,C,1.0
7,9.647000074386597,immed,50352.9999256134,Thu Apr 17 2025 17:22:43 GMT-0500 (Central Daylight Time),937332.8999999985,A,hotelsk,O,k,286,1,9647.0,927685.8999999985,7111,WL,C,1.0
7,10.03000020980835,immed,49969.99979019165,Thu Apr 17 2025 17:22:43 GMT-0500 (Central Daylight Time),937716.1000000015,A,hotelsky,O,y,369,1,10030.20000000298,927685.8999999985,7111,WL,C,1.0
7,11.379000186920166,immed,48620.999813079834,Thu Apr 17 2025 17:22:43 GMT-0500 (Central Daylight Time),939065.5,A,hotelsk,O,backspace,1330,1,11379.60000000149,927685.8999999985,7111,WL,C,1.0
7,11.61300015449524,immed,48386.99984550476,Thu Apr 17 2025 17:22:43 GMT-0500 (Central Daylight Time),939298.8999999985,A,hotels,O,backspace,213,1,11613.0,927685.8999999985,7111,WL,C,1.0
7,11.84600019454956,immed,48153.99980545044,Thu Apr 17 2025 17:22:43 GMT-0500 (Central Daylight Time),939531.8999999985,A,hotel,O,backspace,228,1,11846.0,927685.8999999985,7111,WL,C,1.0
7,12.413000106811523,immed,47586.99989318848,Thu Apr 17 2025 17:22:43 GMT-0500 (Central Daylight Time),940098.5,A,hotelenter,O,enter,547,1,12412.60000000149,927685.8999999985,7111,WL,C,1.0
7,13.09600019454956,immed,46903.99980545044,Thu Apr 17 2025 17:22:43 GMT-0500 (Central Daylight Time),940781.799999997,A,s,O,s,669,1,682.8999999985099,940098.8999999985,7111,WL,C,2.0
7,13.34600019454956,immed,46653.99980545044,Thu Apr 17 2025 17:22:43 GMT-0500 (Central Daylight Time),941031.8999999985,A,sk,O,k,233,1,933.0,940098.8999999985,7111,WL,C,2.0
7,13.629000186920166,immed,46370.999813079834,Thu Apr 17 2025 17:22:43 GMT-0500 (Central Daylight Time),941314.700000003,A,sky,O,y,271,1,1215.8000000044703,940098.8999999985,7111,WL,C,2.0
7,14.229000091552734,immed,45770.999908447266,Thu Apr 17 2025 17:22:43 GMT-0500 (Central Daylight Time),941914.6000000015,A,skyv,O,v,580,1,1815.7000000029802,940098.8999999985,7111,WL,C,2.0
7,14.42900013923645,immed,45570.99986076355,Thu Apr 17 2025 17:22:43 GMT-0500 (Central Daylight Time),942114.700000003,A,skyva,O,a,188,1,2015.8000000044703,940098.8999999985,7111,WL,C,2.0
7,14.712000131607056,immed,45287.999868392944,Thu Apr 17 2025 17:22:43 GMT-0500 (Central Daylight Time),942397.700000003,A,skyval,O,l,268,1,2298.8000000044703,940098.8999999985,7111,WL,C,2.0
7,14.879000186920166,immed,45120.999813079834,Thu Apr 17 2025 17:22:43 GMT-0500 (Central Daylight Time),942564.5,A,skyvall,O,l,153,1,2465.60000000149,940098.8999999985,7111,WL,C,2.0
7,15.09500002861023,immed,44904.99997138977,Thu Apr 17 2025 17:22:43 GMT-0500 (Central Daylight Time),942781.200000003,A,skyvalle,O,e,210,1,2682.3000000044703,940098.8999999985,7111,WL,C,2.0
7,15.295000076293945,immed,44704.999923706055,Thu Apr 17 2025 17:22:43 GMT-0500 (Central Daylight Time),942981.0,A,skyvalley,O,y,185,1,2882.10000000149,940098.8999999985,7111,WL,C,2.0
7,16.545000076293945,immed,43454.999923706055,Thu Apr 17 2025 17:22:43 GMT-0500 (Central Daylight Time),944230.8999999985,A,skyvalleyenter,O,enter,1234,1,4132.0,940098.8999999985,7111,WL,C,2.0
7,19.5770001411438,immed,40422.9998588562,Thu Apr 17 2025 17:22:43 GMT-0500 (Central Daylight Time),947263.0,A,h,O,h,3023,1,3031.89999999851,944231.1000000015,7111,WL,C,3.0
7,19.91000008583069,immed,40089.99991416931,Thu Apr 17 2025 17:22:43 GMT-0500 (Central Daylight Time),947596.3999999985,A,ho,O,o,320,1,3365.2999999970198,944231.1000000015,7111,WL,C,3.0
7,20.127000093460083,immed,39872.99990653992,Thu Apr 17 2025 17:22:43 GMT-0500 (Central Daylight Time),947812.799999997,A,hot,O,t,210,1,3581.6999999955297,944231.1000000015,7111,WL,C,3.0
7,20.47700023651123,immed,39522.99976348877,Thu Apr 17 2025 17:22:43 GMT-0500 (Central Daylight Time),948162.700000003,A,hote,O,e,338,1,3931.60000000149,944231.1000000015,7111,WL,C,3.0
7,20.66000008583069,immed,39339.99991416931,Thu Apr 17 2025 17:22:43 GMT-0500 (Central Daylight Time),948346.200000003,A,hotel,O,l,164,1,4115.10000000149,944231.1000000015,7111,WL,C,3.0
7,21.04300022125244,immed,38956.99977874756,Thu Apr 17 2025 17:22:43 GMT-0500 (Central Daylight Time),948729.200000003,A,hotelenter,O,enter,372,1,4498.10000000149,944231.1000000015,7111,WL,C,3.0
7,21.843000173568726,immed,38156.999826431274,Thu Apr 17 2025 17:22:43 GMT-0500 (Central Daylight Time),949528.8999999985,A,b,O,b,789,1,799.2999999970198,948729.6000000015,7111,WL,C,4.0
7,22.426000118255615,immed,37573.999881744385,Thu Apr 17 2025 17:22:43 GMT-0500 (Central Daylight Time),950112.200000003,A,bu,O,u,573,1,1382.6000000014901,948729.6000000015,7111,WL,C,4.0
7,22.743000030517578,immed,37256.99996948242,Thu Apr 17 2025 17:22:43 GMT-0500 (Central Daylight Time),950428.6000000015,A,but,O,t,302,1,1699.0,948729.6000000015,7111,WL,C,4.0
7,22.909000158309937,immed,37090.99984169006,Thu Apr 17 2025 17:22:43 GMT-0500 (Central Daylight Time),950595.3999999985,A,butt,O,t,154,1,1865.7999999970198,948729.6000000015,7111,WL,C,4.0
7,23.2260000705719,immed,36773.9999294281,Thu Apr 17 2025 17:22:43 GMT-0500 (Central Daylight Time),950911.8999999985,A,butte,O,e,299,1,2182.2999999970198,948729.6000000015,7111,WL,C,4.0
7,23.426000118255615,immed,36573.999881744385,Thu Apr 17 2025 17:22:43 GMT-0500 (Central Daylight Time),951111.700000003,A,butter,O,r,191,1,2382.10000000149,948729.6000000015,7111,WL,C,4.0
7,24.12600016593933,immed,35873.99983406067,Thu Apr 17 2025 17:22:43 GMT-0500 (Central Daylight Time),951811.8999999985,A,butterenter,O,enter,686,1,3082.2999999970198,948729.6000000015,7111,WL,C,4.0
7,26.659000158309937,immed,33340.99984169006,Thu Apr 17 2025 17:22:43 GMT-0500 (Central Daylight Time),954345.299999997,A,n,O,n,2523,1,2533.0999999940395,951812.200000003,7111,WL,C,5.0
7,26.85800004005432,immed,33141.99995994568,Thu Apr 17 2025 17:22:43 GMT-0500 (Central Daylight Time),954544.1000000015,A,na,O,a,190,1,2731.89999999851,951812.200000003,7111,WL,C,5.0
7,26.974000215530396,immed,33025.999784469604,Thu Apr 17 2025 17:22:43 GMT-0500 (Central Daylight Time),954660.3999999985,A,nai,O,i,110,1,2848.1999999955297,951812.200000003,7111,WL,C,5.0
7,27.276000022888184,immed,32723.999977111816,Thu Apr 17 2025 17:22:43 GMT-0500 (Central Daylight Time),954961.8999999985,A,nail,O,l,282,1,3149.6999999955297,951812.200000003,7111,WL,C,5.0
7,27.675000190734863,immed,32324.999809265137,Thu Apr 17 2025 17:22:43 GMT-0500 (Central Daylight Time),955360.5,A,nailenter,O,enter,390,1,3548.2999999970198,951812.200000003,7111,WL,C,5.0
7,29.69000005722046,immed,30309.99994277954,Thu Apr 17 2025 17:22:43 GMT-0500 (Central Daylight Time),957376.3999999985,A,d,O,d,2006,1,2015.6000000014901,955360.799999997,7111,WL,C,6.0
7,29.924000024795532,immed,30075.999975204468,Thu Apr 17 2025 17:22:43 GMT-0500 (Central Daylight Time),957609.700000003,A,do,O,o,222,1,2248.9000000059605,955360.799999997,7111,WL,C,6.0
7,30.272000074386597,immed,29727.999925613403,Thu Apr 17 2025 17:22:43 GMT-0500 (Central Daylight Time),957959.5,A,doc,O,c,333,1,2598.7000000029802,955360.799999997,7111,WL,C,6.0
7,30.52300000190735,immed,29476.99999809265,Thu Apr 17 2025 17:22:43 GMT-0500 (Central Daylight Time),958209.700000003,A,doco,O,o,239,1,2848.9000000059605,955360.799999997,7111,WL,C,6.0
7,30.689000129699707,immed,29310.999870300293,Thu Apr 17 2025 17:22:43 GMT-0500 (Central Daylight Time),958376.299999997,A,docot,O,t,149,1,3015.5,955360.799999997,7111,WL,C,6.0
7,30.939000129699707,immed,29060.999870300293,Thu Apr 17 2025 17:22:43 GMT-0500 (Central Daylight Time),958626.299999997,A,docotr,O,r,238,1,3265.5,955360.799999997,7111,WL,C,6.0
7,31.222000122070312,immed,28777.999877929688,Thu Apr 17 2025 17:22:43 GMT-0500 (Central Daylight Time),958909.3999999985,A,docotrenter,O,enter,276,1,3548.60000000149,955360.799999997,7111,WL,C,6.0
7,37.104000091552734,immed,22895.999908447266,Thu Apr 17 2025 17:22:43 GMT-0500 (Central Daylight Time),964790.8999999985,A,b,O,b,5865,1,5881.19999999553,958909.700000003,7111,WL,C,7.0
7,37.32100009918213,immed,22678.99990081787,Thu Apr 17 2025 17:22:43 GMT-0500 (Central Daylight Time),965007.700000003,A,bo,O,o,199,1,6098.0,958909.700000003,7111,WL,C,7.0
7,38.004000186920166,immed,21995.999813079834,Thu Apr 17 2025 17:22:43 GMT-0500 (Central Daylight Time),965690.700000003,A,bod,O,d,671,1,6781.0,958909.700000003,7111,WL,C,7.0
7,38.15300011634827,immed,21846.999883651733,Thu Apr 17 2025 17:22:43 GMT-0500 (Central Daylight Time),965840.3999999985,A,body,O,y,139,1,6930.69999999553,958909.700000003,7111,WL,C,7.0
7,38.5530002117157,immed,21446.9997882843,Thu Apr 17 2025 17:22:43 GMT-0500 (Central Daylight Time),966240.299999997,A,bodyenter,O,enter,391,1,7330.5999999940395,958909.700000003,7111,WL,C,7.0
7,39.02000021934509,immed,20979.999780654907,Thu Apr 17 2025 17:22:43 GMT-0500 (Central Daylight Time),966707.200000003,A,b,O,b,446,1,466.6000000014901,966240.6000000015,7111,WL,C,8.0
7,39.3030002117157,immed,20696.9997882843,Thu Apr 17 2025 17:22:43 GMT-0500 (Central Daylight Time),966990.200000003,A,bo,O,o,275,1,749.6000000014901,966240.6000000015,7111,WL,C,8.0
7,39.586000204086304,immed,20413.999795913696,Thu Apr 17 2025 17:22:43 GMT-0500 (Central Daylight Time),967273.299999997,A,boy,O,y,264,1,1032.6999999955297,966240.6000000015,7111,WL,C,8.0
7,40.63600015640259,immed,19363.999843597412,Thu Apr 17 2025 17:22:43 GMT-0500 (Central Daylight Time),968323.3999999985,A,boyenter,O,enter,1029,1,2082.7999999970198,966240.6000000015,7111,WL,C,8.0
7,45.3510000705719,immed,14648.9999294281,Thu Apr 17 2025 17:22:43 GMT-0500 (Central Daylight Time),973038.299999997,A,h,O,h,4707,1,4714.69999999553,968323.6000000015,7111,WL,C,9.0
7,45.634000062942505,immed,14365.999937057495,Thu Apr 17 2025 17:22:43 GMT-0500 (Central Daylight Time),973321.5,A,ho,O,o,272,1,4997.89999999851,968323.6000000015,7111,WL,C,9.0
7,45.8510000705719,immed,14148.9999294281,Thu Apr 17 2025 17:22:43 GMT-0500 (Central Daylight Time),973538.3999999985,A,hom,O,m,197,1,5214.79999999702,968323.6000000015,7111,WL,C,9.0
7,46.03400015830994,immed,13965.999841690063,Thu Apr 17 2025 17:22:43 GMT-0500 (Central Daylight Time),973721.5,A,home,O,e,164,1,5397.89999999851,968323.6000000015,7111,WL,C,9.0
7,46.384000062942505,immed,13615.999937057495,Thu Apr 17 2025 17:22:43 GMT-0500 (Central Daylight Time),974071.299999997,A,homeenter,O,enter,341,1,5747.69999999553,968323.6000000015,7111,WL,C,9.0
7,47.867000102996826,immed,12132.999897003174,Thu Apr 17 2025 17:22:43 GMT-0500 (Central Daylight Time),975554.200000003,A,b,O,b,1463,1,1482.5,974071.700000003,7111,WL,C,10.0
7,49.217000007629395,immed,10782.999992370605,Thu Apr 17 2025 17:22:43 GMT-0500 (Central Daylight Time),976903.799999997,A,,O,backspace,1340,1,2832.0999999940395,974071.700000003,7111,WL,C,10.0
7,51.89900016784668,immed,8100.99983215332,Thu Apr 17 2025 17:22:43 GMT-0500 (Central Daylight Time),979586.3999999985,A,c,O,c,2672,1,5514.69999999553,974071.700000003,7111,WL,C,10.0
7,52.116000175476074,immed,7883.999824523926,Thu Apr 17 2025 17:22:43 GMT-0500 (Central Daylight Time),979802.799999997,A,ca,O,a,204,1,5731.0999999940395,974071.700000003,7111,WL,C,10.0
7,52.39900016784668,immed,7600.99983215332,Thu Apr 17 2025 17:22:43 GMT-0500 (Central Daylight Time),980086.0,A,cat,O,t,268,1,6014.29999999702,974071.700000003,7111,WL,C,10.0
7,52.54900002479553,immed,7450.999975204468,Thu Apr 17 2025 17:22:43 GMT-0500 (Central Daylight Time),980236.0,A,catt,O,t,136,1,6164.29999999702,974071.700000003,7111,WL,C,10.0
7,53.31500005722046,immed,6684.999942779541,Thu Apr 17 2025 17:22:43 GMT-0500 (Central Daylight Time),981002.299999997,A,cattl,O,l,746,1,6930.5999999940395,974071.700000003,7111,WL,C,10.0
7,53.58200001716614,immed,6417.999982833862,Thu Apr 17 2025 17:22:43 GMT-0500 (Central Daylight Time),981269.0,A,cattle,O,e,261,1,7197.29999999702,974071.700000003,7111,WL,C,10.0
7,53.915000200271606,immed,6084.999799728394,Thu Apr 17 2025 17:22:43 GMT-0500 (Central Daylight Time),981602.200000003,A,cattleenter,O,enter,321,1,7530.5,974071.700000003,7111,WL,C,10.0
7,59.71300005912781,immed,286.9999408721924,Thu Apr 17 2025 17:22:43 GMT-0500 (Central Daylight Time),987400.3999999985,A,s,O,s,5788,1,5797.79999999702,981602.6000000015,7111,WL,C,11.0
7,60.01300001144409,immed,-13.000011444091797,Thu Apr 17 2025 17:22:43 GMT-0500 (Central Daylight Time),987700.5,A,sNone,O,None,295,1,6097.89999999851,981602.6000000015,7111,WL,C,11.0
