acc_sum,block,block_c,change,condition,correct,correct_response,datetime,endtime,face,project,response,response_time,row_sel,session_number,start_end,starttime,subject_id,task,task_vers,trial
0,prac,1,,1-Back,,,Wed Apr 16 2025 13:26:12 GMT-0400 (Eastern Daylight Time),,097_m_f_n_a.png,I,space,14841,1,1,,,9014,NNB,B,0
0,prac,1,0.0,1-Back,0,m,Wed Apr 16 2025 13:26:12 GMT-0400 (Eastern Daylight Time),139502.60000038147,152_y_f_n_a.png,I,None,2015,2,1,2990.0,136512.60000038147,9014,NNB,B,1
0,prac,1,1.0,1-Back,0,z,Wed Apr 16 2025 13:26:12 GMT-0400 (Eastern Daylight Time),141752.80000019073,152_y_f_n_a.png,I,m,1454,3,1,2225.5999994277954,139527.20000076294,9014,NNB,B,2
1,prac,1,0.0,1-Back,1,m,Wed Apr 16 2025 13:26:12 GMT-0400 (Eastern Daylight Time),144552.60000038147,176_o_m_n_a.png,I,m,1846,4,1,2774.6000003814697,141778.0,9014,NNB,B,3
2,prac,1,0.0,1-Back,1,m,Wed Apr 16 2025 13:26:12 GMT-0400 (Eastern Daylight Time),146569.4000005722,126_m_m_n_a.png,I,m,1086,5,1,1992.3000001907349,144577.10000038147,9014,NNB,B,4
3,prac,1,1.0,1-Back,1,z,Wed Apr 16 2025 13:26:12 GMT-0400 (Eastern Daylight Time),148252.5,126_m_m_n_a.png,I,z,881,6,1,1657.2999992370605,146595.20000076294,9014,NNB,B,5
4,prac,1,0.0,1-Back,1,m,Wed Apr 16 2025 13:26:12 GMT-0400 (Eastern Daylight Time),150336.0,086_o_f_n_a.png,I,m,978,7,1,2055.0,148281.0,9014,NNB,B,6
5,prac,1,0.0,1-Back,1,m,Wed Apr 16 2025 13:26:12 GMT-0400 (Eastern Daylight Time),152186.0,178_m_m_n_a.png,I,m,915,8,1,1825.3999996185303,150360.60000038147,9014,NNB,B,7
6,prac,1,0.0,1-Back,1,m,Wed Apr 16 2025 13:26:12 GMT-0400 (Eastern Daylight Time),153952.70000076294,097_m_f_n_a.png,I,m,961,9,1,1741.6000003814697,152211.10000038147,9014,NNB,B,8
7,prac,1,1.0,1-Back,1,z,Wed Apr 16 2025 13:26:12 GMT-0400 (Eastern Daylight Time),155569.4000005722,097_m_f_n_a.png,I,z,809,10,1,1588.8000001907349,153980.60000038147,9014,NNB,B,9
8,prac,1,0.0,1-Back,1,m,Wed Apr 16 2025 13:26:12 GMT-0400 (Eastern Daylight Time),157202.70000076294,176_o_m_n_a.png,I,m,825,11,1,1607.5,155595.20000076294,9014,NNB,B,10
9,prac,1,0.0,1-Back,1,m,Wed Apr 16 2025 13:26:12 GMT-0400 (Eastern Daylight Time),158852.80000019073,173_y_f_n_a.png,I,m,696,12,1,1626.3000001907349,157226.5,9014,NNB,B,11
0,test,1,0.0,1-Back,,,Wed Apr 16 2025 13:26:12 GMT-0400 (Eastern Daylight Time),158852.80000019073,152_y_f_n_a.png,I,space,12299,1,1,1626.3000001907349,157226.5,9014,NNB,B,0
1,test,1,0.0,1-Back,1,m,Wed Apr 16 2025 13:26:12 GMT-0400 (Eastern Daylight Time),185452.60000038147,029_m_f_n_a.png,I,m,992,2,1,2009.6999998092651,183442.9000005722,9014,NNB,B,1
2,test,1,0.0,1-Back,1,m,Wed Apr 16 2025 13:26:12 GMT-0400 (Eastern Daylight Time),187152.5,173_y_f_n_a.png,I,m,654,3,1,1679.8999996185303,185472.60000038147,9014,NNB,B,2
3,test,1,1.0,1-Back,1,z,Wed Apr 16 2025 13:26:12 GMT-0400 (Eastern Daylight Time),188785.80000019073,173_y_f_n_a.png,I,z,586,4,1,1608.3999996185303,187177.4000005722,9014,NNB,B,3
4,test,1,0.0,1-Back,1,m,Wed Apr 16 2025 13:26:12 GMT-0400 (Eastern Daylight Time),190452.30000019073,029_m_f_n_a.png,I,m,617,5,1,1645.8000001907349,188806.5,9014,NNB,B,4
5,test,1,0.0,1-Back,1,m,Wed Apr 16 2025 13:26:12 GMT-0400 (Eastern Daylight Time),192135.60000038147,176_o_m_n_a.png,I,m,647,6,1,1658.1999998092651,190477.4000005722,9014,NNB,B,5
6,test,1,1.0,1-Back,1,z,Wed Apr 16 2025 13:26:12 GMT-0400 (Eastern Daylight Time),193852.4000005722,176_o_m_n_a.png,I,z,675,7,1,1691.5,192160.9000005722,9014,NNB,B,6
7,test,1,0.0,1-Back,1,m,Wed Apr 16 2025 13:26:12 GMT-0400 (Eastern Daylight Time),195502.5,126_m_m_n_a.png,I,m,606,8,1,1627.5,193875.0,9014,NNB,B,7
7,test,1,0.0,1-Back,0,m,Wed Apr 16 2025 13:26:12 GMT-0400 (Eastern Daylight Time),197219.20000076294,086_o_f_n_a.png,I,z,668,9,1,1695.0,195524.20000076294,9014,NNB,B,8
8,test,1,0.0,1-Back,1,m,Wed Apr 16 2025 13:26:12 GMT-0400 (Eastern Daylight Time),198985.70000076294,126_m_m_n_a.png,I,m,727,10,1,1742.9000005722046,197242.80000019073,9014,NNB,B,9
8,test,1,0.0,1-Back,0,m,Wed Apr 16 2025 13:26:12 GMT-0400 (Eastern Daylight Time),200669.20000076294,153_y_m_n_a.png,I,z,642,11,1,1661.3000001907349,199007.9000005722,9014,NNB,B,10
8,test,1,1.0,1-Back,0,z,Wed Apr 16 2025 13:26:12 GMT-0400 (Eastern Daylight Time),202685.60000038147,153_y_m_n_a.png,I,m,974,12,1,1993.3999996185303,200692.20000076294,9014,NNB,B,11
9,test,1,0.0,1-Back,1,m,Wed Apr 16 2025 13:26:12 GMT-0400 (Eastern Daylight Time),204519.0,110_o_f_n_a.png,I,m,797,13,1,1811.8999996185303,202707.10000038147,9014,NNB,B,12
9,test,1,1.0,1-Back,0,z,Wed Apr 16 2025 13:26:12 GMT-0400 (Eastern Daylight Time),206385.80000019073,110_o_f_n_a.png,I,m,819,14,1,1843.3999996185303,204542.4000005722,9014,NNB,B,13
10,test,1,0.0,1-Back,1,m,Wed Apr 16 2025 13:26:12 GMT-0400 (Eastern Daylight Time),208252.4000005722,013_y_m_n_a.png,I,m,825,15,1,1843.3000001907349,206409.10000038147,9014,NNB,B,14
11,test,1,0.0,1-Back,1,m,Wed Apr 16 2025 13:26:12 GMT-0400 (Eastern Daylight Time),210052.5,097_m_f_n_a.png,I,m,750,16,1,1776.7999992370605,208275.70000076294,9014,NNB,B,15
12,test,1,0.0,1-Back,1,m,Wed Apr 16 2025 13:26:12 GMT-0400 (Eastern Daylight Time),211702.30000019073,065_o_m_n_a.png,I,m,615,17,1,1628.5999994277954,210073.70000076294,9014,NNB,B,16
13,test,1,0.0,1-Back,1,m,Wed Apr 16 2025 13:26:12 GMT-0400 (Eastern Daylight Time),213552.5,097_m_f_n_a.png,I,m,805,18,1,1826.1999998092651,211726.30000019073,9014,NNB,B,17
0,test,2,0.0,1-Back,,,Wed Apr 16 2025 13:26:12 GMT-0400 (Eastern Daylight Time),213552.5,126_m_m_n_a.png,I,space,7443,1,1,1826.1999998092651,211726.30000019073,9014,NNB,B,0
1,test,2,0.0,1-Back,1,m,Wed Apr 16 2025 13:26:12 GMT-0400 (Eastern Daylight Time),225102.4000005722,029_m_f_n_a.png,I,m,1041,2,1,2060.9000005722046,223041.5,9014,NNB,B,1
2,test,2,1.0,1-Back,1,z,Wed Apr 16 2025 13:26:12 GMT-0400 (Eastern Daylight Time),226819.0,029_m_f_n_a.png,I,z,668,3,1,1692.7999992370605,225126.20000076294,9014,NNB,B,2
3,test,2,0.0,1-Back,1,m,Wed Apr 16 2025 13:26:12 GMT-0400 (Eastern Daylight Time),228502.20000076294,126_m_m_n_a.png,I,m,647,4,1,1660.9000005722046,226841.30000019073,9014,NNB,B,3
3,test,2,0.0,1-Back,0,m,Wed Apr 16 2025 13:26:12 GMT-0400 (Eastern Daylight Time),230302.30000019073,153_y_m_n_a.png,I,z,756,5,1,1780.1999998092651,228522.10000038147,9014,NNB,B,4
4,test,2,0.0,1-Back,1,m,Wed Apr 16 2025 13:26:12 GMT-0400 (Eastern Daylight Time),232235.60000038147,152_y_f_n_a.png,I,m,892,6,1,1910.5,230325.10000038147,9014,NNB,B,5
4,test,2,1.0,1-Back,0,z,Wed Apr 16 2025 13:26:12 GMT-0400 (Eastern Daylight Time),234102.20000076294,152_y_f_n_a.png,I,m,832,7,1,1843.1000003814697,232259.10000038147,9014,NNB,B,6
5,test,2,0.0,1-Back,1,m,Wed Apr 16 2025 13:26:12 GMT-0400 (Eastern Daylight Time),236035.70000076294,153_y_m_n_a.png,I,m,885,8,1,1911.1000003814697,234124.60000038147,9014,NNB,B,7
5,test,2,0.0,1-Back,0,m,Wed Apr 16 2025 13:26:12 GMT-0400 (Eastern Daylight Time),237652.5,110_o_f_n_a.png,I,z,567,9,1,1594.5,236058.0,9014,NNB,B,8
6,test,2,0.0,1-Back,1,m,Wed Apr 16 2025 13:26:12 GMT-0400 (Eastern Daylight Time),239368.70000076294,178_m_m_n_a.png,I,m,679,10,1,1696.0,237672.70000076294,9014,NNB,B,9
6,test,2,1.0,1-Back,0,z,Wed Apr 16 2025 13:26:12 GMT-0400 (Eastern Daylight Time),241585.9000005722,178_m_m_n_a.png,I,m,1169,11,1,2193.6000003814697,239392.30000019073,9014,NNB,B,10
7,test,2,0.0,1-Back,1,m,Wed Apr 16 2025 13:26:12 GMT-0400 (Eastern Daylight Time),243385.80000019073,110_o_f_n_a.png,I,m,761,12,1,1776.5999994277954,241609.20000076294,9014,NNB,B,11
8,test,2,0.0,1-Back,1,m,Wed Apr 16 2025 13:26:12 GMT-0400 (Eastern Daylight Time),245135.70000076294,086_o_f_n_a.png,I,m,706,13,1,1728.6000003814697,243407.10000038147,9014,NNB,B,12
9,test,2,0.0,1-Back,1,m,Wed Apr 16 2025 13:26:12 GMT-0400 (Eastern Daylight Time),246918.80000019073,176_o_m_n_a.png,I,m,748,14,1,1758.3000001907349,245160.5,9014,NNB,B,13
10,test,2,0.0,1-Back,1,m,Wed Apr 16 2025 13:26:12 GMT-0400 (Eastern Daylight Time),248702.4000005722,065_o_m_n_a.png,I,m,739,15,1,1759.6999998092651,246942.70000076294,9014,NNB,B,14
11,test,2,1.0,1-Back,1,z,Wed Apr 16 2025 13:26:12 GMT-0400 (Eastern Daylight Time),250335.70000076294,065_o_m_n_a.png,I,z,588,16,1,1610.2000007629395,248725.5,9014,NNB,B,15
12,test,2,0.0,1-Back,1,m,Wed Apr 16 2025 13:26:12 GMT-0400 (Eastern Daylight Time),252018.80000019073,013_y_m_n_a.png,I,m,635,17,1,1660.0999994277954,250358.70000076294,9014,NNB,B,16
13,test,2,1.0,1-Back,1,z,Wed Apr 16 2025 13:26:12 GMT-0400 (Eastern Daylight Time),253852.5,013_y_m_n_a.png,I,z,792,18,1,1810.6999998092651,252041.80000019073,9014,NNB,B,17
0,test,3,1.0,1-Back,,,Wed Apr 16 2025 13:26:12 GMT-0400 (Eastern Daylight Time),253852.5,173_y_f_n_a.png,I,space,2247,1,1,1810.6999998092651,252041.80000019073,9014,NNB,B,0
1,test,3,0.0,1-Back,1,m,Wed Apr 16 2025 13:26:12 GMT-0400 (Eastern Daylight Time),260518.70000076294,065_o_m_n_a.png,I,m,1215,1,1,2224.6000003814697,258294.10000038147,9014,NNB,B,1
2,test,3,1.0,1-Back,1,z,Wed Apr 16 2025 13:26:12 GMT-0400 (Eastern Daylight Time),262485.70000076294,065_o_m_n_a.png,I,z,916,1,1,1944.3000001907349,260541.4000005722,9014,NNB,B,2
3,test,3,0.0,1-Back,1,m,Wed Apr 16 2025 13:26:12 GMT-0400 (Eastern Daylight Time),264219.0,097_m_f_n_a.png,I,m,693,1,1,1711.8999996185303,262507.10000038147,9014,NNB,B,3
4,test,3,1.0,1-Back,1,z,Wed Apr 16 2025 13:26:12 GMT-0400 (Eastern Daylight Time),266251.60000038147,097_m_f_n_a.png,I,z,990,1,1,2008.8000001907349,264242.80000019073,9014,NNB,B,4
5,test,3,0.0,1-Back,1,m,Wed Apr 16 2025 13:26:12 GMT-0400 (Eastern Daylight Time),267952.30000019073,110_o_f_n_a.png,I,m,654,1,1,1671.3999996185303,266280.9000005722,9014,NNB,B,5
6,test,3,0.0,1-Back,1,m,Wed Apr 16 2025 13:26:12 GMT-0400 (Eastern Daylight Time),269852.4000005722,153_y_m_n_a.png,I,m,859,1,1,1875.0,267977.4000005722,9014,NNB,B,6
7,test,3,0.0,1-Back,1,m,Wed Apr 16 2025 13:26:12 GMT-0400 (Eastern Daylight Time),271635.60000038147,110_o_f_n_a.png,I,m,734,1,1,1759.1000003814697,269876.5,9014,NNB,B,7
8,test,3,0.0,1-Back,1,m,Wed Apr 16 2025 13:26:12 GMT-0400 (Eastern Daylight Time),273552.30000019073,013_y_m_n_a.png,I,m,871,1,1,1891.8999996185303,271660.4000005722,9014,NNB,B,8
9,test,3,1.0,1-Back,1,z,Wed Apr 16 2025 13:26:12 GMT-0400 (Eastern Daylight Time),275185.70000076294,013_y_m_n_a.png,I,z,586,1,1,1610.4000005722046,273575.30000019073,9014,NNB,B,9
10,test,3,0.0,1-Back,1,m,Wed Apr 16 2025 13:26:12 GMT-0400 (Eastern Daylight Time),276969.10000038147,029_m_f_n_a.png,I,m,745,1,1,1761.3999996185303,275207.70000076294,9014,NNB,B,10
11,test,3,0.0,1-Back,1,m,Wed Apr 16 2025 13:26:12 GMT-0400 (Eastern Daylight Time),278735.4000005722,152_y_f_n_a.png,I,m,722,1,1,1742.9000005722046,276992.5,9014,NNB,B,11
12,test,3,1.0,1-Back,1,z,Wed Apr 16 2025 13:26:12 GMT-0400 (Eastern Daylight Time),280319.0,152_y_f_n_a.png,I,z,539,1,1,1559.7999992370605,278759.20000076294,9014,NNB,B,12
13,test,3,0.0,1-Back,1,m,Wed Apr 16 2025 13:26:12 GMT-0400 (Eastern Daylight Time),282002.5,029_m_f_n_a.png,I,m,636,1,1,1662.2999992370605,280340.20000076294,9014,NNB,B,13
13,test,3,0.0,1-Back,0,m,Wed Apr 16 2025 13:26:12 GMT-0400 (Eastern Daylight Time),283752.10000038147,126_m_m_n_a.png,I,z,713,1,1,1728.0,282024.10000038147,9014,NNB,B,14
14,test,3,1.0,1-Back,1,z,Wed Apr 16 2025 13:26:12 GMT-0400 (Eastern Daylight Time),285602.20000076294,126_m_m_n_a.png,I,z,802,1,1,1826.4000005722046,283775.80000019073,9014,NNB,B,15
15,test,3,0.0,1-Back,1,m,Wed Apr 16 2025 13:26:12 GMT-0400 (Eastern Daylight Time),287335.4000005722,086_o_f_n_a.png,I,m,696,1,1,1706.3000001907349,285629.10000038147,9014,NNB,B,16
16,test,3,1.0,1-Back,1,z,Wed Apr 16 2025 13:26:12 GMT-0400 (Eastern Daylight Time),289235.5,086_o_f_n_a.png,I,z,851,1,1,1875.5999994277954,287359.9000005722,9014,NNB,B,17
0,test,4,1.0,1-Back,,,Wed Apr 16 2025 13:26:12 GMT-0400 (Eastern Daylight Time),289235.5,097_m_f_n_a.png,I,space,2120,1,1,1875.5999994277954,287359.9000005722,9014,NNB,B,0
1,test,4,0.0,1-Back,1,m,Wed Apr 16 2025 13:26:12 GMT-0400 (Eastern Daylight Time),295835.5,065_o_m_n_a.png,I,m,1276,2,1,2292.5,293543.0,9014,NNB,B,1
2,test,4,0.0,1-Back,1,m,Wed Apr 16 2025 13:26:12 GMT-0400 (Eastern Daylight Time),297635.5,097_m_f_n_a.png,I,m,751,3,1,1776.8999996185303,295858.60000038147,9014,NNB,B,2
3,test,4,0.0,1-Back,1,m,Wed Apr 16 2025 13:26:12 GMT-0400 (Eastern Daylight Time),299618.9000005722,110_o_f_n_a.png,I,m,935,4,1,1958.6999998092651,297660.20000076294,9014,NNB,B,3
4,test,4,1.0,1-Back,1,z,Wed Apr 16 2025 13:26:12 GMT-0400 (Eastern Daylight Time),301302.10000038147,110_o_f_n_a.png,I,z,648,5,1,1658.3000001907349,299643.80000019073,9014,NNB,B,4
5,test,4,0.0,1-Back,1,m,Wed Apr 16 2025 13:26:12 GMT-0400 (Eastern Daylight Time),303152.30000019073,152_y_f_n_a.png,I,m,804,6,1,1826.0999994277954,301326.20000076294,9014,NNB,B,5
6,test,4,0.0,1-Back,1,m,Wed Apr 16 2025 13:26:12 GMT-0400 (Eastern Daylight Time),304902.0,153_y_m_n_a.png,I,m,716,7,1,1727.2999992370605,303174.70000076294,9014,NNB,B,6
7,test,4,1.0,1-Back,1,z,Wed Apr 16 2025 13:26:12 GMT-0400 (Eastern Daylight Time),306486.10000038147,153_y_m_n_a.png,I,z,548,8,1,1560.3000001907349,304925.80000019073,9014,NNB,B,7
8,test,4,0.0,1-Back,1,m,Wed Apr 16 2025 13:26:12 GMT-0400 (Eastern Daylight Time),308269.0,152_y_f_n_a.png,I,m,741,9,1,1756.1999998092651,306512.80000019073,9014,NNB,B,8
9,test,4,0.0,1-Back,1,m,Wed Apr 16 2025 13:26:12 GMT-0400 (Eastern Daylight Time),310235.60000038147,178_m_m_n_a.png,I,m,925,10,1,1942.0,308293.60000038147,9014,NNB,B,9
10,test,4,1.0,1-Back,1,z,Wed Apr 16 2025 13:26:12 GMT-0400 (Eastern Daylight Time),311802.4000005722,178_m_m_n_a.png,I,z,526,11,1,1538.8000001907349,310263.60000038147,9014,NNB,B,10
11,test,4,0.0,1-Back,1,m,Wed Apr 16 2025 13:26:12 GMT-0400 (Eastern Daylight Time),313519.0,086_o_f_n_a.png,I,m,672,12,1,1689.2999992370605,311829.70000076294,9014,NNB,B,11
12,test,4,0.0,1-Back,1,m,Wed Apr 16 2025 13:26:12 GMT-0400 (Eastern Daylight Time),315252.10000038147,176_o_m_n_a.png,I,m,684,13,1,1704.8000001907349,313547.30000019073,9014,NNB,B,12
13,test,4,0.0,1-Back,1,m,Wed Apr 16 2025 13:26:12 GMT-0400 (Eastern Daylight Time),316902.20000076294,086_o_f_n_a.png,I,m,615,14,1,1625.9000005722046,315276.30000019073,9014,NNB,B,13
14,test,4,0.0,1-Back,1,m,Wed Apr 16 2025 13:26:12 GMT-0400 (Eastern Daylight Time),318718.70000076294,173_y_f_n_a.png,I,m,772,15,1,1794.3000001907349,316924.4000005722,9014,NNB,B,14
15,test,4,1.0,1-Back,1,z,Wed Apr 16 2025 13:26:12 GMT-0400 (Eastern Daylight Time),320485.5,173_y_f_n_a.png,I,z,716,16,1,1743.5999994277954,318741.9000005722,9014,NNB,B,15
16,test,4,0.0,1-Back,1,m,Wed Apr 16 2025 13:26:12 GMT-0400 (Eastern Daylight Time),322202.30000019073,029_m_f_n_a.png,I,m,677,17,1,1692.5999994277954,320509.70000076294,9014,NNB,B,16
17,test,4,1.0,1-Back,1,z,Wed Apr 16 2025 13:26:12 GMT-0400 (Eastern Daylight Time),324135.5,029_m_f_n_a.png,I,z,896,18,1,1911.5999994277954,322223.9000005722,9014,NNB,B,17
0,test,5,1.0,1-Back,,,Wed Apr 16 2025 13:26:12 GMT-0400 (Eastern Daylight Time),324135.5,176_o_m_n_a.png,I,space,2020,1,1,1911.5999994277954,322223.9000005722,9014,NNB,B,0
1,test,5,1.0,1-Back,1,z,Wed Apr 16 2025 13:26:12 GMT-0400 (Eastern Daylight Time),329902.30000019073,176_o_m_n_a.png,I,z,674,2,1,1686.1999998092651,328216.10000038147,9014,NNB,B,1
2,test,5,0.0,1-Back,1,m,Wed Apr 16 2025 13:26:12 GMT-0400 (Eastern Daylight Time),331568.70000076294,152_y_f_n_a.png,I,m,620,3,1,1644.3000001907349,329924.4000005722,9014,NNB,B,2
3,test,5,0.0,1-Back,1,m,Wed Apr 16 2025 13:26:12 GMT-0400 (Eastern Daylight Time),333185.80000019073,153_y_m_n_a.png,I,m,570,4,1,1595.1999998092651,331590.60000038147,9014,NNB,B,3
4,test,5,0.0,1-Back,1,m,Wed Apr 16 2025 13:26:12 GMT-0400 (Eastern Daylight Time),335085.60000038147,152_y_f_n_a.png,I,m,857,5,1,1876.1000003814697,333209.5,9014,NNB,B,4
5,test,5,0.0,1-Back,1,m,Wed Apr 16 2025 13:26:12 GMT-0400 (Eastern Daylight Time),336918.60000038147,126_m_m_n_a.png,I,m,797,6,1,1809.5,335109.10000038147,9014,NNB,B,5
6,test,5,1.0,1-Back,1,z,Wed Apr 16 2025 13:26:12 GMT-0400 (Eastern Daylight Time),338518.5,126_m_m_n_a.png,I,z,564,7,1,1577.6999998092651,336940.80000019073,9014,NNB,B,6
7,test,5,0.0,1-Back,1,m,Wed Apr 16 2025 13:26:12 GMT-0400 (Eastern Daylight Time),340102.4000005722,173_y_f_n_a.png,I,m,549,8,1,1561.5,338540.9000005722,9014,NNB,B,7
8,test,5,0.0,1-Back,1,m,Wed Apr 16 2025 13:26:12 GMT-0400 (Eastern Daylight Time),341818.9000005722,013_y_m_n_a.png,I,m,677,9,1,1696.0,340122.9000005722,9014,NNB,B,8
9,test,5,0.0,1-Back,1,m,Wed Apr 16 2025 13:26:12 GMT-0400 (Eastern Daylight Time),343585.5,173_y_f_n_a.png,I,m,720,10,1,1743.5999994277954,341841.9000005722,9014,NNB,B,9
10,test,5,0.0,1-Back,1,m,Wed Apr 16 2025 13:26:12 GMT-0400 (Eastern Daylight Time),345252.20000076294,086_o_f_n_a.png,I,m,617,11,1,1645.0,343607.20000076294,9014,NNB,B,10
11,test,5,1.0,1-Back,1,z,Wed Apr 16 2025 13:26:12 GMT-0400 (Eastern Daylight Time),346886.0,086_o_f_n_a.png,I,z,598,12,1,1609.3999996185303,345276.60000038147,9014,NNB,B,11
12,test,5,0.0,1-Back,1,m,Wed Apr 16 2025 13:26:12 GMT-0400 (Eastern Daylight Time),348635.5,065_o_m_n_a.png,I,m,709,13,1,1726.6999998092651,346908.80000019073,9014,NNB,B,12
13,test,5,0.0,1-Back,1,m,Wed Apr 16 2025 13:26:12 GMT-0400 (Eastern Daylight Time),350352.20000076294,097_m_f_n_a.png,I,m,671,14,1,1690.3000001907349,348661.9000005722,9014,NNB,B,13
14,test,5,1.0,1-Back,1,z,Wed Apr 16 2025 13:26:12 GMT-0400 (Eastern Daylight Time),352052.20000076294,097_m_f_n_a.png,I,z,650,15,1,1675.2000007629395,350377.0,9014,NNB,B,14
15,test,5,0.0,1-Back,1,m,Wed Apr 16 2025 13:26:12 GMT-0400 (Eastern Daylight Time),353735.4000005722,065_o_m_n_a.png,I,m,647,16,1,1659.9000005722046,352075.5,9014,NNB,B,15
16,test,5,0.0,1-Back,1,m,Wed Apr 16 2025 13:26:12 GMT-0400 (Eastern Daylight Time),355385.60000038147,029_m_f_n_a.png,I,m,611,17,1,1628.1999998092651,353757.4000005722,9014,NNB,B,16
17,test,5,0.0,1-Back,1,m,Wed Apr 16 2025 13:26:12 GMT-0400 (Eastern Daylight Time),357135.60000038147,178_m_m_n_a.png,I,m,705,18,1,1726.6000003814697,355409.0,9014,NNB,B,17
0,prac,1,0.0,2-Back,,,Wed Apr 16 2025 13:26:12 GMT-0400 (Eastern Daylight Time),357135.60000038147,013_y_m_n_a.png,I,space,21657,1,1,1726.6000003814697,355409.0,9014,NNB,B,0
0,prac,1,0.0,2-Back,,,Wed Apr 16 2025 13:26:12 GMT-0400 (Eastern Daylight Time),357135.60000038147,029_m_f_n_a.png,I,space,21657,2,1,1726.6000003814697,355409.0,9014,NNB,B,0
1,prac,1,1.0,2-Back,1,m,Wed Apr 16 2025 13:26:12 GMT-0400 (Eastern Daylight Time),497985.80000019073,065_o_m_n_a.png,I,m,1382,3,1,2406.5,495579.30000019073,9014,NNB,B,1
1,prac,1,0.0,2-Back,0,m,Wed Apr 16 2025 13:26:12 GMT-0400 (Eastern Daylight Time),501102.0,086_o_f_n_a.png,I,None,2007,4,1,3090.5999994277954,498011.4000005722,9014,NNB,B,2
1,prac,1,0.0,2-Back,0,z,Wed Apr 16 2025 13:26:12 GMT-0400 (Eastern Daylight Time),503901.9000005722,065_o_m_n_a.png,I,None,2006,5,1,2773.1000003814697,501128.80000019073,9014,NNB,B,3
2,prac,1,1.0,2-Back,1,z,Wed Apr 16 2025 13:26:12 GMT-0400 (Eastern Daylight Time),505785.4000005722,086_o_f_n_a.png,I,z,1083,6,1,1854.6999998092651,503930.70000076294,9014,NNB,B,4
3,prac,1,0.0,2-Back,1,m,Wed Apr 16 2025 13:26:12 GMT-0400 (Eastern Daylight Time),507918.80000019073,178_m_m_n_a.png,I,m,1109,7,1,2107.8999996185303,505810.9000005722,9014,NNB,B,5
4,prac,1,0.0,2-Back,1,m,Wed Apr 16 2025 13:26:12 GMT-0400 (Eastern Daylight Time),510252.20000076294,176_o_m_n_a.png,I,m,1291,8,1,2307.5,507944.70000076294,9014,NNB,B,6
4,prac,1,0.0,2-Back,0,m,Wed Apr 16 2025 13:26:12 GMT-0400 (Eastern Daylight Time),512302.0,173_y_f_n_a.png,I,z,1046,9,1,2020.3999996185303,510281.60000038147,9014,NNB,B,7
5,prac,1,1.0,2-Back,1,z,Wed Apr 16 2025 13:26:12 GMT-0400 (Eastern Daylight Time),514835.30000019073,176_o_m_n_a.png,I,z,1581,10,1,2507.300000190735,512328.0,9014,NNB,B,8
6,prac,1,0.0,2-Back,1,m,Wed Apr 16 2025 13:26:12 GMT-0400 (Eastern Daylight Time),517618.5,152_y_f_n_a.png,I,m,1773,11,1,2757.199999809265,514861.30000019073,9014,NNB,B,9
6,prac,1,0.0,2-Back,0,m,Wed Apr 16 2025 13:26:12 GMT-0400 (Eastern Daylight Time),520268.60000038147,178_m_m_n_a.png,I,z,1708,12,1,2620.5,517648.10000038147,9014,NNB,B,10
0,prac,2,0.0,2-Back,,,Wed Apr 16 2025 13:26:12 GMT-0400 (Eastern Daylight Time),520268.60000038147,013_y_m_n_a.png,I,a,12489,1,1,2620.5,517648.10000038147,9014,NNB,B,0
0,prac,2,0.0,2-Back,,,Wed Apr 16 2025 13:26:12 GMT-0400 (Eastern Daylight Time),520268.60000038147,029_m_f_n_a.png,I,a,12489,2,1,2620.5,517648.10000038147,9014,NNB,B,0
1,prac,2,1.0,2-Back,1,m,Wed Apr 16 2025 13:26:12 GMT-0400 (Eastern Daylight Time),540452.1000003815,065_o_m_n_a.png,I,m,1365,3,1,2289.3999996185303,538162.7000007629,9014,NNB,B,1
2,prac,2,0.0,2-Back,1,m,Wed Apr 16 2025 13:26:12 GMT-0400 (Eastern Daylight Time),543118.7000007629,086_o_f_n_a.png,I,m,1697,4,1,2641.300000190735,540477.4000005722,9014,NNB,B,2
3,prac,2,0.0,2-Back,1,z,Wed Apr 16 2025 13:26:12 GMT-0400 (Eastern Daylight Time),545185.3000001907,065_o_m_n_a.png,I,z,1117,5,1,2040.6999998092651,543144.6000003815,9014,NNB,B,3
3,prac,2,1.0,2-Back,0,z,Wed Apr 16 2025 13:26:12 GMT-0400 (Eastern Daylight Time),547452.1000003815,086_o_f_n_a.png,I,m,1466,6,1,2241.8999996185303,545210.2000007629,9014,NNB,B,4
4,prac,2,0.0,2-Back,1,m,Wed Apr 16 2025 13:26:12 GMT-0400 (Eastern Daylight Time),549568.5,178_m_m_n_a.png,I,m,1174,7,1,2090.5,547478.0,9014,NNB,B,5
5,prac,2,0.0,2-Back,1,m,Wed Apr 16 2025 13:26:12 GMT-0400 (Eastern Daylight Time),551918.7000007629,176_o_m_n_a.png,I,m,1402,8,1,2324.5,549594.2000007629,9014,NNB,B,6
6,prac,2,0.0,2-Back,1,m,Wed Apr 16 2025 13:26:12 GMT-0400 (Eastern Daylight Time),553785.1000003815,173_y_f_n_a.png,I,m,923,9,1,1841.3999996185303,551943.7000007629,9014,NNB,B,7
6,prac,2,1.0,2-Back,0,z,Wed Apr 16 2025 13:26:12 GMT-0400 (Eastern Daylight Time),555651.9000005722,176_o_m_n_a.png,I,m,1059,10,1,1842.1999998092651,553809.7000007629,9014,NNB,B,8
6,prac,2,0.0,2-Back,0,m,Wed Apr 16 2025 13:26:12 GMT-0400 (Eastern Daylight Time),557652.0,152_y_f_n_a.png,I,z,1074,11,1,1972.0999994277954,555679.9000005722,9014,NNB,B,9
6,prac,2,0.0,2-Back,0,m,Wed Apr 16 2025 13:26:12 GMT-0400 (Eastern Daylight Time),559735.4000005722,178_m_m_n_a.png,I,z,1151,12,1,2058.1000003814697,557677.3000001907,9014,NNB,B,10
0,test,1,0.0,2-Back,,,Wed Apr 16 2025 13:26:12 GMT-0400 (Eastern Daylight Time),559735.4000005722,153_y_m_n_a.png,I,space,12180,1,1,2058.1000003814697,557677.3000001907,9014,NNB,B,0
0,test,1,0.0,2-Back,,,Wed Apr 16 2025 13:26:12 GMT-0400 (Eastern Daylight Time),559735.4000005722,153_y_m_n_a.png,I,space,12180,2,1,2058.1000003814697,557677.3000001907,9014,NNB,B,0
1,test,1,0.0,2-Back,1,m,Wed Apr 16 2025 13:26:12 GMT-0400 (Eastern Daylight Time),599685.6000003815,086_o_f_n_a.png,I,m,1865,3,1,2879.3999996185303,596806.2000007629,9014,NNB,B,1
2,test,1,0.0,2-Back,1,m,Wed Apr 16 2025 13:26:12 GMT-0400 (Eastern Daylight Time),602502.0,126_m_m_n_a.png,I,m,1781,4,1,2791.0999994277954,599710.9000005722,9014,NNB,B,2
3,test,1,1.0,2-Back,1,z,Wed Apr 16 2025 13:26:12 GMT-0400 (Eastern Daylight Time),605018.7000007629,086_o_f_n_a.png,I,z,1477,5,1,2494.4000005722046,602524.3000001907,9014,NNB,B,3
4,test,1,0.0,2-Back,1,m,Wed Apr 16 2025 13:26:12 GMT-0400 (Eastern Daylight Time),607235.1000003815,152_y_f_n_a.png,I,m,1168,6,1,2186.800000190735,605048.3000001907,9014,NNB,B,4
4,test,1,0.0,2-Back,0,m,Wed Apr 16 2025 13:26:12 GMT-0400 (Eastern Daylight Time),609068.6000003815,126_m_m_n_a.png,I,z,791,7,1,1812.6000003814697,607256.0,9014,NNB,B,5
4,test,1,1.0,2-Back,0,z,Wed Apr 16 2025 13:26:12 GMT-0400 (Eastern Daylight Time),611168.5,152_y_f_n_a.png,I,m,1054,8,1,2076.2999992370605,609092.2000007629,9014,NNB,B,6
5,test,1,0.0,2-Back,1,m,Wed Apr 16 2025 13:26:12 GMT-0400 (Eastern Daylight Time),613418.6000003815,013_y_m_n_a.png,I,m,1210,9,1,2228.300000190735,611190.3000001907,9014,NNB,B,7
6,test,1,0.0,2-Back,1,m,Wed Apr 16 2025 13:26:12 GMT-0400 (Eastern Daylight Time),615601.8000001907,110_o_f_n_a.png,I,m,1136,10,1,2159.699999809265,613442.1000003815,9014,NNB,B,8
7,test,1,1.0,2-Back,1,z,Wed Apr 16 2025 13:26:12 GMT-0400 (Eastern Daylight Time),617818.6000003815,013_y_m_n_a.png,I,z,1177,11,1,2196.1000003814697,615622.5,9014,NNB,B,9
8,test,1,0.0,2-Back,1,m,Wed Apr 16 2025 13:26:12 GMT-0400 (Eastern Daylight Time),619818.5,029_m_f_n_a.png,I,m,960,12,1,1975.8999996185303,617842.6000003815,9014,NNB,B,10
8,test,1,0.0,2-Back,0,m,Wed Apr 16 2025 13:26:12 GMT-0400 (Eastern Daylight Time),622085.1000003815,029_m_f_n_a.png,I,z,1216,13,1,2243.699999809265,619841.4000005722,9014,NNB,B,11
9,test,1,0.0,2-Back,1,m,Wed Apr 16 2025 13:26:12 GMT-0400 (Eastern Daylight Time),624885.0,065_o_m_n_a.png,I,m,1750,14,1,2776.5,622108.5,9014,NNB,B,12
9,test,1,0.0,2-Back,0,m,Wed Apr 16 2025 13:26:12 GMT-0400 (Eastern Daylight Time),627101.7000007629,110_o_f_n_a.png,I,z,1173,15,1,2193.0,624908.7000007629,9014,NNB,B,13
9,test,1,1.0,2-Back,0,z,Wed Apr 16 2025 13:26:12 GMT-0400 (Eastern Daylight Time),629568.6000003815,065_o_m_n_a.png,I,m,1421,16,1,2446.300000190735,627122.3000001907,9014,NNB,B,14
10,test,1,0.0,2-Back,1,m,Wed Apr 16 2025 13:26:12 GMT-0400 (Eastern Daylight Time),632218.4000005722,097_m_f_n_a.png,I,m,1610,17,1,2625.800000190735,629592.6000003815,9014,NNB,B,15
10,test,1,0.0,2-Back,0,m,Wed Apr 16 2025 13:26:12 GMT-0400 (Eastern Daylight Time),635268.4000005722,178_m_m_n_a.png,I,None,2015,18,1,3026.199999809265,632242.2000007629,9014,NNB,B,16
0,test,2,0.0,2-Back,,,Wed Apr 16 2025 13:26:12 GMT-0400 (Eastern Daylight Time),635268.4000005722,178_m_m_n_a.png,I,space,1991,1,1,3026.199999809265,632242.2000007629,9014,NNB,B,0
0,test,2,0.0,2-Back,,,Wed Apr 16 2025 13:26:12 GMT-0400 (Eastern Daylight Time),635268.4000005722,173_y_f_n_a.png,I,space,1991,2,1,3026.199999809265,632242.2000007629,9014,NNB,B,0
1,test,2,1.0,2-Back,1,z,Wed Apr 16 2025 13:26:12 GMT-0400 (Eastern Daylight Time),645085.1000003815,178_m_m_n_a.png,I,z,1591,3,1,2609.5,642475.6000003815,9014,NNB,B,1
2,test,2,0.0,2-Back,1,m,Wed Apr 16 2025 13:26:12 GMT-0400 (Eastern Daylight Time),647285.6000003815,097_m_f_n_a.png,I,m,1166,4,1,2179.3999996185303,645106.2000007629,9014,NNB,B,2
2,test,2,0.0,2-Back,0,m,Wed Apr 16 2025 13:26:12 GMT-0400 (Eastern Daylight Time),649318.0,173_y_f_n_a.png,I,z,996,5,1,2010.2999992370605,647307.7000007629,9014,NNB,B,3
3,test,2,0.0,2-Back,1,m,Wed Apr 16 2025 13:26:12 GMT-0400 (Eastern Daylight Time),651435.0,065_o_m_n_a.png,I,m,1076,6,1,2095.5999994277954,649339.4000005722,9014,NNB,B,4
4,test,2,0.0,2-Back,1,m,Wed Apr 16 2025 13:26:12 GMT-0400 (Eastern Daylight Time),653951.9000005722,152_y_f_n_a.png,I,m,1472,7,1,2491.9000005722046,651460.0,9014,NNB,B,5
5,test,2,1.0,2-Back,1,z,Wed Apr 16 2025 13:26:12 GMT-0400 (Eastern Daylight Time),656101.5,065_o_m_n_a.png,I,z,1115,8,1,2122.0,653979.5,9014,NNB,B,6
6,test,2,0.0,2-Back,1,m,Wed Apr 16 2025 13:26:12 GMT-0400 (Eastern Daylight Time),658118.1000003815,013_y_m_n_a.png,I,m,981,9,1,1994.1999998092651,656123.9000005722,9014,NNB,B,7
7,test,2,0.0,2-Back,1,m,Wed Apr 16 2025 13:26:12 GMT-0400 (Eastern Daylight Time),660451.6000003815,013_y_m_n_a.png,I,m,1284,10,1,2313.199999809265,658138.4000005722,9014,NNB,B,8
8,test,2,0.0,2-Back,1,m,Wed Apr 16 2025 13:26:12 GMT-0400 (Eastern Daylight Time),662918.1000003815,029_m_f_n_a.png,I,m,1431,11,1,2441.300000190735,660476.8000001907,9014,NNB,B,9
9,test,2,0.0,2-Back,1,m,Wed Apr 16 2025 13:26:12 GMT-0400 (Eastern Daylight Time),665051.7000007629,173_y_f_n_a.png,I,m,1092,12,1,2113.1000003814697,662938.6000003815,9014,NNB,B,10
9,test,2,1.0,2-Back,0,z,Wed Apr 16 2025 13:26:12 GMT-0400 (Eastern Daylight Time),667634.8000001907,029_m_f_n_a.png,I,m,1534,13,1,2560.199999809265,665074.6000003815,9014,NNB,B,11
10,test,2,0.0,2-Back,1,m,Wed Apr 16 2025 13:26:12 GMT-0400 (Eastern Daylight Time),670067.9000005722,176_o_m_n_a.png,I,m,1383,14,1,2410.699999809265,667657.2000007629,9014,NNB,B,12
11,test,2,0.0,2-Back,1,m,Wed Apr 16 2025 13:26:12 GMT-0400 (Eastern Daylight Time),672534.9000005722,176_o_m_n_a.png,I,m,1430,15,1,2443.5,670091.4000005722,9014,NNB,B,13
12,test,2,0.0,2-Back,1,m,Wed Apr 16 2025 13:26:12 GMT-0400 (Eastern Daylight Time),674951.7000007629,110_o_f_n_a.png,I,m,1380,16,1,2395.6000003814697,672556.1000003815,9014,NNB,B,14
13,test,2,0.0,2-Back,1,m,Wed Apr 16 2025 13:26:12 GMT-0400 (Eastern Daylight Time),677168.4000005722,126_m_m_n_a.png,I,m,1167,17,1,2192.6000003814697,674975.8000001907,9014,NNB,B,15
14,test,2,1.0,2-Back,1,z,Wed Apr 16 2025 13:26:12 GMT-0400 (Eastern Daylight Time),679334.8000001907,110_o_f_n_a.png,I,z,1130,18,1,2146.0999994277954,677188.7000007629,9014,NNB,B,16
0,test,3,1.0,2-Back,,,Wed Apr 16 2025 13:26:12 GMT-0400 (Eastern Daylight Time),679334.8000001907,153_y_m_n_a.png,I,space,2412,1,1,2146.0999994277954,677188.7000007629,9014,NNB,B,0
0,test,3,1.0,2-Back,,,Wed Apr 16 2025 13:26:12 GMT-0400 (Eastern Daylight Time),679334.8000001907,153_y_m_n_a.png,I,space,2412,2,1,2146.0999994277954,677188.7000007629,9014,NNB,B,0
1,test,3,0.0,2-Back,1,m,Wed Apr 16 2025 13:26:12 GMT-0400 (Eastern Daylight Time),688901.4000005722,110_o_f_n_a.png,I,m,931,3,1,1945.4000005722046,686956.0,9014,NNB,B,1
2,test,3,0.0,2-Back,1,m,Wed Apr 16 2025 13:26:12 GMT-0400 (Eastern Daylight Time),690885.5,178_m_m_n_a.png,I,m,949,4,1,1963.0,688922.5,9014,NNB,B,2
2,test,3,1.0,2-Back,0,z,Wed Apr 16 2025 13:26:12 GMT-0400 (Eastern Daylight Time),693135.4000005722,110_o_f_n_a.png,I,m,1207,5,1,2225.9000005722046,690909.5,9014,NNB,B,3
3,test,3,0.0,2-Back,1,m,Wed Apr 16 2025 13:26:12 GMT-0400 (Eastern Daylight Time),695118.4000005722,013_y_m_n_a.png,I,m,940,6,1,1962.1999998092651,693156.2000007629,9014,NNB,B,4
3,test,3,0.0,2-Back,0,m,Wed Apr 16 2025 13:26:12 GMT-0400 (Eastern Daylight Time),697135.2000007629,178_m_m_n_a.png,I,z,974,7,1,1991.0,695144.2000007629,9014,NNB,B,5
3,test,3,1.0,2-Back,0,z,Wed Apr 16 2025 13:26:12 GMT-0400 (Eastern Daylight Time),699235.0,013_y_m_n_a.png,I,m,1052,8,1,2073.3999996185303,697161.6000003815,9014,NNB,B,6
4,test,3,0.0,2-Back,1,m,Wed Apr 16 2025 13:26:12 GMT-0400 (Eastern Daylight Time),701551.4000005722,173_y_f_n_a.png,I,m,1271,9,1,2292.9000005722046,699258.5,9014,NNB,B,7
4,test,3,0.0,2-Back,0,m,Wed Apr 16 2025 13:26:12 GMT-0400 (Eastern Daylight Time),703717.9000005722,126_m_m_n_a.png,I,z,1131,10,1,2144.6000003814697,701573.3000001907,9014,NNB,B,8
5,test,3,1.0,2-Back,1,z,Wed Apr 16 2025 13:26:12 GMT-0400 (Eastern Daylight Time),705901.7000007629,173_y_f_n_a.png,I,z,1140,11,1,2160.5,703741.2000007629,9014,NNB,B,9
5,test,3,1.0,2-Back,0,z,Wed Apr 16 2025 13:26:12 GMT-0400 (Eastern Daylight Time),708035.1000003815,126_m_m_n_a.png,I,m,1085,12,1,2110.1000003814697,705925.0,9014,NNB,B,10
6,test,3,0.0,2-Back,1,m,Wed Apr 16 2025 13:26:12 GMT-0400 (Eastern Daylight Time),710485.3000001907,110_o_f_n_a.png,I,m,1415,13,1,2427.699999809265,708057.6000003815,9014,NNB,B,11
7,test,3,0.0,2-Back,1,m,Wed Apr 16 2025 13:26:12 GMT-0400 (Eastern Daylight Time),713218.5,097_m_f_n_a.png,I,m,1686,14,1,2709.699999809265,710508.8000001907,9014,NNB,B,12
8,test,3,0.0,2-Back,1,m,Wed Apr 16 2025 13:26:12 GMT-0400 (Eastern Daylight Time),715351.6000003815,065_o_m_n_a.png,I,m,1096,15,1,2111.3999996185303,713240.2000007629,9014,NNB,B,13
9,test,3,1.0,2-Back,1,z,Wed Apr 16 2025 13:26:12 GMT-0400 (Eastern Daylight Time),717284.9000005722,097_m_f_n_a.png,I,z,883,16,1,1908.6000003814697,715376.3000001907,9014,NNB,B,14
10,test,3,0.0,2-Back,1,m,Wed Apr 16 2025 13:26:12 GMT-0400 (Eastern Daylight Time),719351.6000003815,086_o_f_n_a.png,I,m,1030,17,1,2045.8999996185303,717305.7000007629,9014,NNB,B,15
11,test,3,0.0,2-Back,1,m,Wed Apr 16 2025 13:26:12 GMT-0400 (Eastern Daylight Time),721951.6000003815,086_o_f_n_a.png,I,m,1554,18,1,2576.699999809265,719374.9000005722,9014,NNB,B,16
0,test,4,0.0,2-Back,,,Wed Apr 16 2025 13:26:12 GMT-0400 (Eastern Daylight Time),721951.6000003815,176_o_m_n_a.png,I,space,1869,1,1,2576.699999809265,719374.9000005722,9014,NNB,B,0
0,test,4,0.0,2-Back,,,Wed Apr 16 2025 13:26:12 GMT-0400 (Eastern Daylight Time),721951.6000003815,152_y_f_n_a.png,I,space,1869,2,1,2576.699999809265,719374.9000005722,9014,NNB,B,0
1,test,4,1.0,2-Back,1,z,Wed Apr 16 2025 13:26:12 GMT-0400 (Eastern Daylight Time),731001.8000001907,176_o_m_n_a.png,I,z,811,3,1,1825.3999996185303,729176.4000005722,9014,NNB,B,1
1,test,4,1.0,2-Back,0,z,Wed Apr 16 2025 13:26:12 GMT-0400 (Eastern Daylight Time),734051.8000001907,152_y_f_n_a.png,I,None,2015,4,1,3026.300000190735,731025.5,9014,NNB,B,2
2,test,4,0.0,2-Back,1,m,Wed Apr 16 2025 13:26:12 GMT-0400 (Eastern Daylight Time),736285.1000003815,110_o_f_n_a.png,I,m,1191,5,1,2211.800000190735,734073.3000001907,9014,NNB,B,3
3,test,4,0.0,2-Back,1,m,Wed Apr 16 2025 13:26:12 GMT-0400 (Eastern Daylight Time),738634.9000005722,110_o_f_n_a.png,I,m,1309,6,1,2328.800000190735,736306.1000003815,9014,NNB,B,4
4,test,4,0.0,2-Back,1,m,Wed Apr 16 2025 13:26:12 GMT-0400 (Eastern Daylight Time),741318.0,029_m_f_n_a.png,I,m,1648,7,1,2659.5999994277954,738658.4000005722,9014,NNB,B,5
5,test,4,0.0,2-Back,1,m,Wed Apr 16 2025 13:26:12 GMT-0400 (Eastern Daylight Time),743285.5,013_y_m_n_a.png,I,m,932,8,1,1944.7999992370605,741340.7000007629,9014,NNB,B,6
6,test,4,1.0,2-Back,1,z,Wed Apr 16 2025 13:26:12 GMT-0400 (Eastern Daylight Time),745385.0,029_m_f_n_a.png,I,z,1061,9,1,2076.699999809265,743308.3000001907,9014,NNB,B,7
7,test,4,0.0,2-Back,1,m,Wed Apr 16 2025 13:26:12 GMT-0400 (Eastern Daylight Time),747985.0,126_m_m_n_a.png,I,m,1553,10,1,2578.0999994277954,745406.9000005722,9014,NNB,B,8
7,test,4,0.0,2-Back,0,m,Wed Apr 16 2025 13:26:12 GMT-0400 (Eastern Daylight Time),750551.5,013_y_m_n_a.png,I,z,1530,11,1,2540.8999996185303,748010.6000003815,9014,NNB,B,9
8,test,4,0.0,2-Back,1,m,Wed Apr 16 2025 13:26:12 GMT-0400 (Eastern Daylight Time),752601.5,086_o_f_n_a.png,I,m,1014,12,1,2028.1999998092651,750573.3000001907,9014,NNB,B,10
9,test,4,0.0,2-Back,1,m,Wed Apr 16 2025 13:26:12 GMT-0400 (Eastern Daylight Time),754651.6000003815,153_y_m_n_a.png,I,m,1009,13,1,2026.5,752625.1000003815,9014,NNB,B,11
10,test,4,1.0,2-Back,1,z,Wed Apr 16 2025 13:26:12 GMT-0400 (Eastern Daylight Time),756318.4000005722,086_o_f_n_a.png,I,z,623,14,1,1645.8000001907349,754672.6000003815,9014,NNB,B,12
10,test,4,1.0,2-Back,0,z,Wed Apr 16 2025 13:26:12 GMT-0400 (Eastern Daylight Time),758351.6000003815,153_y_m_n_a.png,I,m,988,15,1,2009.3999996185303,756342.2000007629,9014,NNB,B,13
10,test,4,0.0,2-Back,0,m,Wed Apr 16 2025 13:26:12 GMT-0400 (Eastern Daylight Time),760334.8000001907,178_m_m_n_a.png,I,z,939,16,1,1962.3000001907349,758372.5,9014,NNB,B,14
11,test,4,0.0,2-Back,1,m,Wed Apr 16 2025 13:26:12 GMT-0400 (Eastern Daylight Time),762567.7000007629,097_m_f_n_a.png,I,m,1195,17,1,2210.0,760357.7000007629,9014,NNB,B,15
12,test,4,1.0,2-Back,1,z,Wed Apr 16 2025 13:26:12 GMT-0400 (Eastern Daylight Time),764417.8000001907,178_m_m_n_a.png,I,z,802,18,1,1829.8999996185303,762587.9000005722,9014,NNB,B,16
0,test,5,1.0,2-Back,,,Wed Apr 16 2025 13:26:12 GMT-0400 (Eastern Daylight Time),764417.8000001907,153_y_m_n_a.png,I,space,2490,1,1,1829.8999996185303,762587.9000005722,9014,NNB,B,0
0,test,5,1.0,2-Back,,,Wed Apr 16 2025 13:26:12 GMT-0400 (Eastern Daylight Time),764417.8000001907,097_m_f_n_a.png,I,space,2490,2,1,1829.8999996185303,762587.9000005722,9014,NNB,B,0
1,test,5,1.0,2-Back,1,z,Wed Apr 16 2025 13:26:12 GMT-0400 (Eastern Daylight Time),774168.3000001907,153_y_m_n_a.png,I,z,1029,3,1,2044.8000001907349,772123.5,9014,NNB,B,1
1,test,5,1.0,2-Back,0,z,Wed Apr 16 2025 13:26:12 GMT-0400 (Eastern Daylight Time),777218.4000005722,097_m_f_n_a.png,I,None,2015,4,1,3027.300000190735,774191.1000003815,9014,NNB,B,2
2,test,5,0.0,2-Back,1,m,Wed Apr 16 2025 13:26:12 GMT-0400 (Eastern Daylight Time),779384.8000001907,086_o_f_n_a.png,I,m,1128,5,1,2143.0999994277954,777241.7000007629,9014,NNB,B,3
2,test,5,0.0,2-Back,0,m,Wed Apr 16 2025 13:26:12 GMT-0400 (Eastern Daylight Time),782401.6000003815,153_y_m_n_a.png,I,z,1970,6,1,2995.5,779406.1000003815,9014,NNB,B,4
3,test,5,0.0,2-Back,1,m,Wed Apr 16 2025 13:26:12 GMT-0400 (Eastern Daylight Time),784517.9000005722,173_y_f_n_a.png,I,m,1081,7,1,2091.300000190735,782426.6000003815,9014,NNB,B,5
3,test,5,0.0,2-Back,0,m,Wed Apr 16 2025 13:26:12 GMT-0400 (Eastern Daylight Time),786384.5,086_o_f_n_a.png,I,z,819,8,1,1853.1999998092651,784531.3000001907,9014,NNB,B,6
3,test,5,1.0,2-Back,0,z,Wed Apr 16 2025 13:26:12 GMT-0400 (Eastern Daylight Time),788384.8000001907,173_y_f_n_a.png,I,m,954,9,1,1978.8000001907349,786406.0,9014,NNB,B,7
3,test,5,0.0,2-Back,0,m,Wed Apr 16 2025 13:26:12 GMT-0400 (Eastern Daylight Time),791018.2000007629,065_o_m_n_a.png,I,z,1594,10,1,2610.0,788408.2000007629,9014,NNB,B,8
4,test,5,0.0,2-Back,1,m,Wed Apr 16 2025 13:26:12 GMT-0400 (Eastern Daylight Time),793101.6000003815,029_m_f_n_a.png,I,m,1040,11,1,2059.5,791042.1000003815,9014,NNB,B,9
5,test,5,0.0,2-Back,1,m,Wed Apr 16 2025 13:26:12 GMT-0400 (Eastern Daylight Time),795818.3000001907,126_m_m_n_a.png,I,m,1677,12,1,2695.5,793122.8000001907,9014,NNB,B,10
5,test,5,0.0,2-Back,0,m,Wed Apr 16 2025 13:26:12 GMT-0400 (Eastern Daylight Time),797701.3000001907,065_o_m_n_a.png,I,z,848,13,1,1858.3999996185303,795842.9000005722,9014,NNB,B,11
6,test,5,1.0,2-Back,1,z,Wed Apr 16 2025 13:26:12 GMT-0400 (Eastern Daylight Time),800451.5,126_m_m_n_a.png,I,z,1701,14,1,2726.0999994277954,797725.4000005722,9014,NNB,B,12
7,test,5,0.0,2-Back,1,m,Wed Apr 16 2025 13:26:12 GMT-0400 (Eastern Daylight Time),802651.5,152_y_f_n_a.png,I,m,1159,15,1,2177.0,800474.5,9014,NNB,B,13
8,test,5,0.0,2-Back,1,m,Wed Apr 16 2025 13:26:12 GMT-0400 (Eastern Daylight Time),804801.5,176_o_m_n_a.png,I,m,1103,16,1,2127.0999994277954,802674.4000005722,9014,NNB,B,14
9,test,5,0.0,2-Back,1,m,Wed Apr 16 2025 13:26:12 GMT-0400 (Eastern Daylight Time),807501.6000003815,029_m_f_n_a.png,I,m,1657,17,1,2679.0,804822.6000003815,9014,NNB,B,15
10,test,5,1.0,2-Back,1,z,Wed Apr 16 2025 13:26:12 GMT-0400 (Eastern Daylight Time),809418.4000005722,176_o_m_n_a.png,I,z,877,18,1,1895.0,807523.4000005722,9014,NNB,B,16
