acc_sum,block,block_c,block_cond,con_img,correct,correct_response,datetime,endtime,face,jitter,line,project,response,response_time,row_sel,session_number,start_end,starttime,subject_id,task,task_vers,trial
1,prac,1,A,haborder.png,1,z,Fri Apr 11 2025 09:52:14 GMT-0500 (Central Daylight Time),56034.5,CFD-BF-051-043-A.jpg,1000,solid,O,z,1209,4,1,2984.39999999851,53050.10000000149,7123,ATS,B,1
2,prac,1,A,haborder.png,1,z,Fri Apr 11 2025 09:52:14 GMT-0500 (Central Daylight Time),59064.10000000149,CFD-WF-013-015-A.jpg,1000,solid,O,z,1218,12,1,6014.0,53050.10000000149,7123,ATS,B,2
3,prac,1,A,haborder.png,1,m,Fri Apr 11 2025 09:52:14 GMT-0500 (Central Daylight Time),61863.80000000447,CFD-WM-011-006-HC.jpg,1400,solid,O,m,616,7,1,8813.70000000298,53050.10000000149,7123,ATS,B,3
4,prac,1,A,haborder.png,1,m,Fri Apr 11 2025 09:52:14 GMT-0500 (Central Daylight Time),65547.40000000596,CFD-BM-015-017-HC.jpg,1700,solid,O,m,1209,1,1,12497.30000000447,53050.10000000149,7123,ATS,B,4
5,prac,1,A,haborder.png,1,z,Fri Apr 11 2025 09:52:14 GMT-0500 (Central Daylight Time),68926.30000000447,CFD-BM-037-041-A.jpg,1600,solid,O,z,985,2,1,15876.20000000298,53050.10000000149,7123,ATS,B,5
6,prac,1,A,haborder.png,1,z,Fri Apr 11 2025 09:52:14 GMT-0500 (Central Daylight Time),71544.10000000149,CFD-BF-050-012-A.jpg,1200,solid,O,z,644,6,1,18494.0,53050.10000000149,7123,ATS,B,6
7,prac,1,A,haborder.png,1,z,Fri Apr 11 2025 09:52:14 GMT-0500 (Central Daylight Time),74460.20000000298,CFD-WF-026-008-A.jpg,1600,solid,O,z,548,10,1,21410.10000000149,53050.10000000149,7123,ATS,B,7
8,prac,1,A,haborder.png,1,m,Fri Apr 11 2025 09:52:14 GMT-0500 (Central Daylight Time),77392.0,CFD-BM-020-024-HC.jpg,1500,solid,O,m,644,3,1,24341.89999999851,53050.10000000149,7123,ATS,B,8
9,prac,1,A,haborder.png,1,m,Fri Apr 11 2025 09:52:14 GMT-0500 (Central Daylight Time),80507.10000000149,CFD-WM-012-007-HC.jpg,1700,solid,O,m,623,9,1,27457.0,53050.10000000149,7123,ATS,B,9
10,prac,1,A,haborder.png,1,z,Fri Apr 11 2025 09:52:14 GMT-0500 (Central Daylight Time),83940.40000000596,CFD-WM-009-009-A.jpg,1900,solid,O,z,733,8,1,30890.30000000447,53050.10000000149,7123,ATS,B,10
11,prac,1,A,haborder.png,1,m,Fri Apr 11 2025 09:52:14 GMT-0500 (Central Daylight Time),86989.5,CFD-WF-011-006-HC.jpg,1500,solid,O,m,772,11,1,33939.39999999851,53050.10000000149,7123,ATS,B,11
12,prac,1,A,haborder.png,1,m,Fri Apr 11 2025 09:52:14 GMT-0500 (Central Daylight Time),90372.80000000447,CFD-BF-035-007-HC.jpg,2000,solid,O,m,616,5,1,37322.70000000298,53050.10000000149,7123,ATS,B,12
1,prac,1,B,mfborder.png,1,m,Fri Apr 11 2025 09:52:14 GMT-0500 (Central Daylight Time),127741.90000000596,CFD-WM-012-007-HC.jpg,1600,dash,O,m,1288,10,1,3682.9000000059605,124059.0,7123,ATS,B,1
2,prac,1,B,mfborder.png,1,m,Fri Apr 11 2025 09:52:14 GMT-0500 (Central Daylight Time),130924.60000000149,CFD-WM-009-009-A.jpg,1700,dash,O,m,664,9,1,6865.60000000149,124059.0,7123,ATS,B,2
2,prac,1,B,mfborder.png,0,z,Fri Apr 11 2025 09:52:14 GMT-0500 (Central Daylight Time),134573.20000000298,CFD-BF-035-007-HC.jpg,1400,dash,O,m,1477,7,1,10514.20000000298,124059.0,7123,ATS,B,3
3,prac,1,B,mfborder.png,1,m,Fri Apr 11 2025 09:52:14 GMT-0500 (Central Daylight Time),137955.40000000596,CFD-BM-041-048-A.jpg,1600,dash,O,m,999,2,1,13896.40000000596,124059.0,7123,ATS,B,4
4,prac,1,B,mfborder.png,1,m,Fri Apr 11 2025 09:52:14 GMT-0500 (Central Daylight Time),141205.80000000447,CFD-WM-037-060-A.jpg,1200,dash,O,m,1271,6,1,17146.80000000447,124059.0,7123,ATS,B,5
5,prac,1,B,mfborder.png,1,z,Fri Apr 11 2025 09:52:14 GMT-0500 (Central Daylight Time),143703.0,CFD-WF-011-006-HC.jpg,1000,dash,O,z,709,12,1,19644.0,124059.0,7123,ATS,B,6
6,prac,1,B,mfborder.png,1,z,Fri Apr 11 2025 09:52:14 GMT-0500 (Central Daylight Time),146770.20000000298,CFD-BF-051-043-A.jpg,1000,dash,O,z,1264,4,1,22711.20000000298,124059.0,7123,ATS,B,7
7,prac,1,B,mfborder.png,1,z,Fri Apr 11 2025 09:52:14 GMT-0500 (Central Daylight Time),150251.30000000447,CFD-WF-027-007-HC.jpg,1900,dash,O,z,800,8,1,26192.30000000447,124059.0,7123,ATS,B,8
8,prac,1,B,mfborder.png,1,m,Fri Apr 11 2025 09:52:14 GMT-0500 (Central Daylight Time),153768.40000000596,CFD-BM-020-024-HC.jpg,1700,dash,O,m,1035,1,1,29709.40000000596,124059.0,7123,ATS,B,9
9,prac,1,B,mfborder.png,1,z,Fri Apr 11 2025 09:52:14 GMT-0500 (Central Daylight Time),156734.20000000298,CFD-WF-026-008-A.jpg,1500,dash,O,z,687,11,1,32675.20000000298,124059.0,7123,ATS,B,10
10,prac,1,B,mfborder.png,1,z,Fri Apr 11 2025 09:52:14 GMT-0500 (Central Daylight Time),160131.6000000015,CFD-BF-027-013-HC.jpg,1500,dash,O,z,1101,3,1,36072.60000000149,124059.0,7123,ATS,B,11
11,prac,1,B,mfborder.png,1,m,Fri Apr 11 2025 09:52:14 GMT-0500 (Central Daylight Time),163965.5,CFD-BM-037-041-A.jpg,2000,dash,O,m,1038,5,1,39906.5,124059.0,7123,ATS,B,12
1,test,1,A,haborder.png,1,z,Fri Apr 11 2025 09:52:14 GMT-0500 (Central Daylight Time),190754.40000000596,CFD-BF-051-043-A.jpg,1000,solid,O,z,803,4,1,1832.0,188922.40000000596,7123,ATS,B,1
1,test,1,A,haborder.png,0,z,Fri Apr 11 2025 09:52:14 GMT-0500 (Central Daylight Time),193491.20000000298,CFD-BF-050-012-A.jpg,1200,solid,O,None,1519,6,1,4568.79999999702,188922.40000000596,7123,ATS,B,2
2,test,1,A,haborder.png,1,m,Fri Apr 11 2025 09:52:14 GMT-0500 (Central Daylight Time),196136.20000000298,CFD-BM-015-017-HC.jpg,1700,solid,O,m,920,1,1,7213.79999999702,188922.40000000596,7123,ATS,B,3
3,test,1,A,haborder.png,1,m,Fri Apr 11 2025 09:52:14 GMT-0500 (Central Daylight Time),198636.40000000596,CFD-BM-015-017-HC.jpg,1700,solid,O,m,782,1,1,9714.0,188922.40000000596,7123,ATS,B,4
4,test,1,A,haborder.png,1,z,Fri Apr 11 2025 09:52:14 GMT-0500 (Central Daylight Time),200618.80000000447,CFD-WF-013-015-A.jpg,1000,solid,O,z,959,12,1,11696.39999999851,188922.40000000596,7123,ATS,B,5
5,test,1,A,haborder.png,1,z,Fri Apr 11 2025 09:52:14 GMT-0500 (Central Daylight Time),203102.0,CFD-BM-037-041-A.jpg,1600,solid,O,z,856,2,1,14179.59999999404,188922.40000000596,7123,ATS,B,6
6,test,1,A,haborder.png,1,m,Fri Apr 11 2025 09:52:14 GMT-0500 (Central Daylight Time),206049.6000000015,CFD-BM-020-024-HC.jpg,1500,solid,O,m,1417,3,1,17127.19999999553,188922.40000000596,7123,ATS,B,7
7,test,1,A,haborder.png,1,z,Fri Apr 11 2025 09:52:14 GMT-0500 (Central Daylight Time),207698.40000000596,CFD-WF-013-015-A.jpg,1000,solid,O,z,623,12,1,18776.0,188922.40000000596,7123,ATS,B,8
8,test,1,A,haborder.png,1,z,Fri Apr 11 2025 09:52:14 GMT-0500 (Central Daylight Time),210198.80000000447,CFD-WM-009-009-A.jpg,1900,solid,O,z,580,8,1,21276.39999999851,188922.40000000596,7123,ATS,B,9
9,test,1,A,haborder.png,1,z,Fri Apr 11 2025 09:52:14 GMT-0500 (Central Daylight Time),213165.90000000596,CFD-WM-009-009-A.jpg,1900,solid,O,z,1034,8,1,24243.5,188922.40000000596,7123,ATS,B,10
10,test,1,A,haborder.png,1,m,Fri Apr 11 2025 09:52:14 GMT-0500 (Central Daylight Time),215879.5,CFD-BF-035-007-HC.jpg,2000,solid,O,m,685,5,1,26957.09999999404,188922.40000000596,7123,ATS,B,11
11,test,1,A,haborder.png,1,m,Fri Apr 11 2025 09:52:14 GMT-0500 (Central Daylight Time),218663.6000000015,CFD-WF-011-006-HC.jpg,1500,solid,O,m,1243,11,1,29741.19999999553,188922.40000000596,7123,ATS,B,12
12,test,1,A,haborder.png,1,z,Fri Apr 11 2025 09:52:14 GMT-0500 (Central Daylight Time),220694.6000000015,CFD-BF-050-012-A.jpg,1200,solid,O,z,812,6,1,31772.19999999553,188922.40000000596,7123,ATS,B,13
12,test,1,A,haborder.png,0,m,Fri Apr 11 2025 09:52:14 GMT-0500 (Central Daylight Time),223634.80000000447,CFD-WM-011-006-HC.jpg,1400,solid,O,None,1515,7,1,34712.39999999851,188922.40000000596,7123,ATS,B,14
13,test,1,A,haborder.png,1,m,Fri Apr 11 2025 09:52:14 GMT-0500 (Central Daylight Time),226012.0,CFD-WM-012-007-HC.jpg,1700,solid,O,m,667,9,1,37089.59999999404,188922.40000000596,7123,ATS,B,15
14,test,1,A,haborder.png,1,z,Fri Apr 11 2025 09:52:14 GMT-0500 (Central Daylight Time),228245.5,CFD-WF-026-008-A.jpg,1600,solid,O,z,610,10,1,39323.09999999404,188922.40000000596,7123,ATS,B,16
15,test,1,A,haborder.png,1,m,Fri Apr 11 2025 09:52:14 GMT-0500 (Central Daylight Time),230608.90000000596,CFD-WF-011-006-HC.jpg,1500,solid,O,m,835,11,1,41686.5,188922.40000000596,7123,ATS,B,17
16,test,1,A,haborder.png,1,m,Fri Apr 11 2025 09:52:14 GMT-0500 (Central Daylight Time),233024.5,CFD-WM-012-007-HC.jpg,1700,solid,O,m,693,9,1,44102.09999999404,188922.40000000596,7123,ATS,B,18
17,test,1,A,haborder.png,1,m,Fri Apr 11 2025 09:52:14 GMT-0500 (Central Daylight Time),235158.5,CFD-BM-020-024-HC.jpg,1500,solid,O,m,599,3,1,46236.09999999404,188922.40000000596,7123,ATS,B,19
18,test,1,A,haborder.png,1,z,Fri Apr 11 2025 09:52:14 GMT-0500 (Central Daylight Time),236856.70000000298,CFD-BF-051-043-A.jpg,1000,solid,O,z,676,4,1,47934.29999999702,188922.40000000596,7123,ATS,B,20
19,test,1,A,haborder.png,1,m,Fri Apr 11 2025 09:52:14 GMT-0500 (Central Daylight Time),240006.90000000596,CFD-BF-035-007-HC.jpg,2000,solid,O,m,1130,5,1,51084.5,188922.40000000596,7123,ATS,B,21
20,test,1,A,haborder.png,1,z,Fri Apr 11 2025 09:52:14 GMT-0500 (Central Daylight Time),242639.20000000298,CFD-WF-026-008-A.jpg,1600,solid,O,z,1016,10,1,53716.79999999702,188922.40000000596,7123,ATS,B,22
21,test,1,A,haborder.png,1,z,Fri Apr 11 2025 09:52:14 GMT-0500 (Central Daylight Time),245121.5,CFD-BM-037-041-A.jpg,1600,solid,O,z,852,2,1,56199.09999999404,188922.40000000596,7123,ATS,B,23
22,test,1,A,haborder.png,1,m,Fri Apr 11 2025 09:52:14 GMT-0500 (Central Daylight Time),247171.1000000015,CFD-WM-011-006-HC.jpg,1400,solid,O,m,617,7,1,58248.69999999553,188922.40000000596,7123,ATS,B,24
0,test,1,B,mfborder.png,0,z,Fri Apr 11 2025 09:52:14 GMT-0500 (Central Daylight Time),257316.6000000015,CFD-WF-026-008-A.jpg,1500,dash,O,None,1514,11,1,3031.6999999955297,254284.90000000596,7123,ATS,B,1
1,test,1,B,mfborder.png,1,m,Fri Apr 11 2025 09:52:14 GMT-0500 (Central Daylight Time),259517.80000000447,CFD-BM-041-048-A.jpg,1600,dash,O,m,566,2,1,5232.89999999851,254284.90000000596,7123,ATS,B,2
2,test,1,B,mfborder.png,1,z,Fri Apr 11 2025 09:52:14 GMT-0500 (Central Daylight Time),261115.90000000596,CFD-WF-011-006-HC.jpg,1000,dash,O,z,573,12,1,6831.0,254284.90000000596,7123,ATS,B,3
3,test,1,B,mfborder.png,1,m,Fri Apr 11 2025 09:52:14 GMT-0500 (Central Daylight Time),263231.40000000596,CFD-WM-012-007-HC.jpg,1600,dash,O,m,494,10,1,8946.5,254284.90000000596,7123,ATS,B,4
4,test,1,B,mfborder.png,1,m,Fri Apr 11 2025 09:52:14 GMT-0500 (Central Daylight Time),264950.0,CFD-WM-037-060-A.jpg,1200,dash,O,m,501,6,1,10665.09999999404,254284.90000000596,7123,ATS,B,5
5,test,1,B,mfborder.png,1,z,Fri Apr 11 2025 09:52:14 GMT-0500 (Central Daylight Time),267346.40000000596,CFD-WF-027-007-HC.jpg,1900,dash,O,z,474,8,1,13061.5,254284.90000000596,7123,ATS,B,6
6,test,1,B,mfborder.png,1,m,Fri Apr 11 2025 09:52:14 GMT-0500 (Central Daylight Time),269930.90000000596,CFD-BM-037-041-A.jpg,2000,dash,O,m,559,5,1,15646.0,254284.90000000596,7123,ATS,B,7
7,test,1,B,mfborder.png,1,z,Fri Apr 11 2025 09:52:14 GMT-0500 (Central Daylight Time),272095.700000003,CFD-BF-051-043-A.jpg,1000,dash,O,z,1144,4,1,17810.79999999702,254284.90000000596,7123,ATS,B,8
8,test,1,B,mfborder.png,1,z,Fri Apr 11 2025 09:52:14 GMT-0500 (Central Daylight Time),274796.30000000447,CFD-WF-027-007-HC.jpg,1900,dash,O,z,783,8,1,20511.39999999851,254284.90000000596,7123,ATS,B,9
9,test,1,B,mfborder.png,1,m,Fri Apr 11 2025 09:52:14 GMT-0500 (Central Daylight Time),276611.700000003,CFD-WM-037-060-A.jpg,1200,dash,O,m,590,6,1,22326.79999999702,254284.90000000596,7123,ATS,B,10
10,test,1,B,mfborder.png,1,m,Fri Apr 11 2025 09:52:14 GMT-0500 (Central Daylight Time),279279.0,CFD-BM-020-024-HC.jpg,1700,dash,O,m,947,1,1,24994.09999999404,254284.90000000596,7123,ATS,B,11
11,test,1,B,mfborder.png,1,m,Fri Apr 11 2025 09:52:14 GMT-0500 (Central Daylight Time),281726.1000000015,CFD-BM-041-048-A.jpg,1600,dash,O,m,814,2,1,27441.19999999553,254284.90000000596,7123,ATS,B,12
12,test,1,B,mfborder.png,1,z,Fri Apr 11 2025 09:52:14 GMT-0500 (Central Daylight Time),284077.5,CFD-BF-027-013-HC.jpg,1500,dash,O,z,832,3,1,29792.59999999404,254284.90000000596,7123,ATS,B,13
13,test,1,B,mfborder.png,1,m,Fri Apr 11 2025 09:52:14 GMT-0500 (Central Daylight Time),286508.90000000596,CFD-WM-009-009-A.jpg,1700,dash,O,m,717,9,1,32224.0,254284.90000000596,7123,ATS,B,14
14,test,1,B,mfborder.png,1,m,Fri Apr 11 2025 09:52:14 GMT-0500 (Central Daylight Time),288742.80000000447,CFD-WM-009-009-A.jpg,1700,dash,O,m,516,9,1,34457.89999999851,254284.90000000596,7123,ATS,B,15
15,test,1,B,mfborder.png,1,z,Fri Apr 11 2025 09:52:14 GMT-0500 (Central Daylight Time),290324.700000003,CFD-WF-011-006-HC.jpg,1000,dash,O,z,556,12,1,36039.79999999702,254284.90000000596,7123,ATS,B,16
16,test,1,B,mfborder.png,1,m,Fri Apr 11 2025 09:52:14 GMT-0500 (Central Daylight Time),293006.1000000015,CFD-BM-037-041-A.jpg,2000,dash,O,m,651,5,1,38721.19999999553,254284.90000000596,7123,ATS,B,17
17,test,1,B,mfborder.png,1,m,Fri Apr 11 2025 09:52:14 GMT-0500 (Central Daylight Time),295305.90000000596,CFD-BM-020-024-HC.jpg,1700,dash,O,m,577,1,1,41021.0,254284.90000000596,7123,ATS,B,18
18,test,1,B,mfborder.png,1,z,Fri Apr 11 2025 09:52:14 GMT-0500 (Central Daylight Time),297488.30000000447,CFD-WF-026-008-A.jpg,1500,dash,O,z,652,11,1,43203.39999999851,254284.90000000596,7123,ATS,B,19
19,test,1,B,mfborder.png,1,z,Fri Apr 11 2025 09:52:14 GMT-0500 (Central Daylight Time),299222.40000000596,CFD-BF-051-043-A.jpg,1000,dash,O,z,715,4,1,44937.5,254284.90000000596,7123,ATS,B,20
20,test,1,B,mfborder.png,1,z,Fri Apr 11 2025 09:52:14 GMT-0500 (Central Daylight Time),301587.30000000447,CFD-BF-027-013-HC.jpg,1500,dash,O,z,834,3,1,47302.39999999851,254284.90000000596,7123,ATS,B,21
21,test,1,B,mfborder.png,1,z,Fri Apr 11 2025 09:52:14 GMT-0500 (Central Daylight Time),303836.90000000596,CFD-BF-035-007-HC.jpg,1400,dash,O,z,815,7,1,49552.0,254284.90000000596,7123,ATS,B,22
22,test,1,B,mfborder.png,1,m,Fri Apr 11 2025 09:52:14 GMT-0500 (Central Daylight Time),306120.80000000447,CFD-WM-012-007-HC.jpg,1600,dash,O,m,665,10,1,51835.89999999851,254284.90000000596,7123,ATS,B,23
23,test,1,B,mfborder.png,1,z,Fri Apr 11 2025 09:52:14 GMT-0500 (Central Daylight Time),308134.700000003,CFD-BF-035-007-HC.jpg,1400,dash,O,z,588,7,1,53849.79999999702,254284.90000000596,7123,ATS,B,24
0,11,1,C,haborder.png,0,m,Fri Apr 11 2025 09:52:14 GMT-0500 (Central Daylight Time),365351.200000003,CFD-WM-011-006-HC.jpg,1000,dash,O,None,1514,prac,1,3298.7999999970198,362052.40000000596,7123,ATS,B,1
1,9,1,C,haborder.png,1,z,Fri Apr 11 2025 09:52:14 GMT-0500 (Central Daylight Time),368932.80000000447,CFD-WF-026-008-A.jpg,1600,dash,O,z,1190,prac,1,6880.39999999851,362052.40000000596,7123,ATS,B,2
1,6,1,C,mfborder.png,0,m,Fri Apr 11 2025 09:52:14 GMT-0500 (Central Daylight Time),372913.200000003,CFD-WM-009-009-A.jpg,1700,solid,O,z,1497,prac,1,10860.79999999702,362052.40000000596,7123,ATS,B,3
2,12,1,C,haborder.png,1,m,Fri Apr 11 2025 09:52:14 GMT-0500 (Central Daylight Time),376246.30000000447,CFD-WM-011-006-HC.jpg,1400,solid,O,m,1136,prac,1,14193.89999999851,362052.40000000596,7123,ATS,B,4
3,4,1,C,mfborder.png,1,m,Fri Apr 11 2025 09:52:14 GMT-0500 (Central Daylight Time),380461.90000000596,CFD-BM-015-017-HC.jpg,2000,solid,O,m,1421,prac,1,18409.5,362052.40000000596,7123,ATS,B,5
4,8,1,C,haborder.png,1,z,Fri Apr 11 2025 09:52:14 GMT-0500 (Central Daylight Time),384194.700000003,CFD-BF-050-012-A.jpg,1700,solid,O,z,1232,prac,1,22142.29999999702,362052.40000000596,7123,ATS,B,6
5,2,1,C,mfborder.png,1,z,Fri Apr 11 2025 09:52:14 GMT-0500 (Central Daylight Time),387243.80000000447,CFD-WF-013-015-A.jpg,1500,solid,O,z,766,prac,1,25191.39999999851,362052.40000000596,7123,ATS,B,7
6,10,1,C,haborder.png,1,m,Fri Apr 11 2025 09:52:14 GMT-0500 (Central Daylight Time),390609.30000000447,CFD-BM-020-024-HC.jpg,1500,solid,O,m,1092,prac,1,28556.89999999851,362052.40000000596,7123,ATS,B,8
7,3,1,C,mfborder.png,1,z,Fri Apr 11 2025 09:52:14 GMT-0500 (Central Daylight Time),393507.90000000596,CFD-BF-035-007-HC.jpg,1000,dash,O,z,1107,prac,1,31455.5,362052.40000000596,7123,ATS,B,9
8,5,1,C,mfborder.png,1,m,Fri Apr 11 2025 09:52:14 GMT-0500 (Central Daylight Time),396522.1000000015,CFD-BM-037-041-A.jpg,1200,dash,O,m,1022,prac,1,34469.69999999553,362052.40000000596,7123,ATS,B,10
9,1,1,C,mfborder.png,1,z,Fri Apr 11 2025 09:52:14 GMT-0500 (Central Daylight Time),399821.40000000596,CFD-WF-011-006-HC.jpg,1600,dash,O,z,914,prac,1,37769.0,362052.40000000596,7123,ATS,B,11
10,7,1,C,haborder.png,1,z,Fri Apr 11 2025 09:52:14 GMT-0500 (Central Daylight Time),403839.30000000447,CFD-BF-051-043-A.jpg,1900,dash,O,z,1316,prac,1,41786.89999999851,362052.40000000596,7123,ATS,B,12
0,test,1,C,haborder.png,0,m,Fri Apr 11 2025 09:52:14 GMT-0500 (Central Daylight Time),426079.40000000596,CFD-BF-035-007-HC.jpg,1600,solid,O,z,910,10,1,2532.8000000044703,423546.6000000015,7123,ATS,B,1
0,test,1,C,mfborder.png,0,m,Fri Apr 11 2025 09:52:14 GMT-0500 (Central Daylight Time),428611.90000000596,CFD-WM-012-007-HC.jpg,1000,dash,O,None,1508,4,1,5065.30000000447,423546.6000000015,7123,ATS,B,2
0,test,1,C,mfborder.png,0,z,Fri Apr 11 2025 09:52:14 GMT-0500 (Central Daylight Time),431246.90000000596,CFD-BF-051-043-A.jpg,1600,dash,O,m,1015,2,1,7700.30000000447,423546.6000000015,7123,ATS,B,3
0,test,1,C,haborder.png,0,m,Fri Apr 11 2025 09:52:14 GMT-0500 (Central Daylight Time),434093.90000000596,CFD-WF-027-007-HC.jpg,1500,solid,O,z,1322,11,1,10547.30000000447,423546.6000000015,7123,ATS,B,4
0,test,1,C,haborder.png,0,z,Fri Apr 11 2025 09:52:14 GMT-0500 (Central Daylight Time),437310.700000003,CFD-BM-041-048-A.jpg,1700,solid,O,None,1501,9,1,13764.10000000149,423546.6000000015,7123,ATS,B,5
1,test,1,C,haborder.png,1,m,Fri Apr 11 2025 09:52:14 GMT-0500 (Central Daylight Time),439526.90000000596,CFD-WF-027-007-HC.jpg,1500,solid,O,m,688,11,1,15980.30000000447,423546.6000000015,7123,ATS,B,6
1,test,1,C,haborder.png,0,z,Fri Apr 11 2025 09:52:14 GMT-0500 (Central Daylight Time),442342.30000000447,CFD-BM-041-048-A.jpg,1700,solid,O,m,1089,9,1,18795.70000000298,423546.6000000015,7123,ATS,B,7
1,test,1,C,haborder.png,0,z,Fri Apr 11 2025 09:52:14 GMT-0500 (Central Daylight Time),445775.200000003,CFD-BM-037-041-A.jpg,1900,solid,O,None,1511,8,1,22228.60000000149,423546.6000000015,7123,ATS,B,8
2,test,1,C,mfborder.png,1,m,Fri Apr 11 2025 09:52:14 GMT-0500 (Central Daylight Time),448226.90000000596,CFD-BM-020-024-HC.jpg,1200,dash,O,m,1228,6,1,24680.30000000447,423546.6000000015,7123,ATS,B,9
3,test,1,C,haborder.png,1,z,Fri Apr 11 2025 09:52:14 GMT-0500 (Central Daylight Time),450705.200000003,CFD-WM-009-009-A.jpg,1400,solid,O,z,1060,7,1,27158.60000000149,423546.6000000015,7123,ATS,B,10
4,test,1,C,mfborder.png,1,z,Fri Apr 11 2025 09:52:14 GMT-0500 (Central Daylight Time),453556.700000003,CFD-WF-026-008-A.jpg,1500,dash,O,z,1333,3,1,30010.10000000149,423546.6000000015,7123,ATS,B,11
4,test,1,C,haborder.png,0,m,Fri Apr 11 2025 09:52:14 GMT-0500 (Central Daylight Time),456087.6000000015,CFD-WF-011-006-HC.jpg,1000,solid,O,None,1515,12,1,32541.0,423546.6000000015,7123,ATS,B,12
5,test,1,C,mfborder.png,1,z,Fri Apr 11 2025 09:52:14 GMT-0500 (Central Daylight Time),458202.0,CFD-WF-026-008-A.jpg,1500,dash,O,z,590,3,1,34655.39999999851,423546.6000000015,7123,ATS,B,13
6,test,1,C,mfborder.png,1,z,Fri Apr 11 2025 09:52:14 GMT-0500 (Central Daylight Time),460585.1000000015,CFD-BF-027-013-HC.jpg,1700,dash,O,z,658,1,1,37038.5,423546.6000000015,7123,ATS,B,14
6,test,1,C,haborder.png,0,z,Fri Apr 11 2025 09:52:14 GMT-0500 (Central Daylight Time),463659.5,CFD-BM-037-041-A.jpg,1900,solid,O,m,1140,8,1,40112.89999999851,423546.6000000015,7123,ATS,B,15
7,test,1,C,mfborder.png,1,z,Fri Apr 11 2025 09:52:14 GMT-0500 (Central Daylight Time),466200.80000000447,CFD-BF-051-043-A.jpg,1600,dash,O,z,928,2,1,42654.20000000298,423546.6000000015,7123,ATS,B,16
8,test,1,C,mfborder.png,1,m,Fri Apr 11 2025 09:52:14 GMT-0500 (Central Daylight Time),469350.200000003,CFD-WM-037-060-A.jpg,2000,dash,O,m,1122,5,1,45803.60000000149,423546.6000000015,7123,ATS,B,17
9,test,1,C,mfborder.png,1,m,Fri Apr 11 2025 09:52:14 GMT-0500 (Central Daylight Time),471700.1000000015,CFD-WM-012-007-HC.jpg,1000,dash,O,m,1315,4,1,48153.5,423546.6000000015,7123,ATS,B,18
10,test,1,C,mfborder.png,1,m,Fri Apr 11 2025 09:52:14 GMT-0500 (Central Daylight Time),473865.6000000015,CFD-BM-020-024-HC.jpg,1200,dash,O,m,943,6,1,50319.0,423546.6000000015,7123,ATS,B,19
11,test,1,C,haborder.png,1,m,Fri Apr 11 2025 09:52:14 GMT-0500 (Central Daylight Time),476114.40000000596,CFD-BF-035-007-HC.jpg,1600,solid,O,m,625,10,1,52567.80000000447,423546.6000000015,7123,ATS,B,20
11,test,1,C,haborder.png,0,m,Fri Apr 11 2025 09:52:14 GMT-0500 (Central Daylight Time),478614.0,CFD-WF-011-006-HC.jpg,1000,solid,O,z,1464,12,1,55067.39999999851,423546.6000000015,7123,ATS,B,21
11,test,1,C,mfborder.png,0,z,Fri Apr 11 2025 09:52:14 GMT-0500 (Central Daylight Time),481846.30000000447,CFD-BF-027-013-HC.jpg,1700,dash,O,None,1515,1,1,58299.70000000298,423546.6000000015,7123,ATS,B,22
11,test,1,C,haborder.png,0,z,Fri Apr 11 2025 09:52:14 GMT-0500 (Central Daylight Time),483979.0,CFD-WM-009-009-A.jpg,1400,solid,O,m,699,7,1,60432.39999999851,423546.6000000015,7123,ATS,B,23
12,test,1,C,mfborder.png,1,m,Fri Apr 11 2025 09:52:14 GMT-0500 (Central Daylight Time),486611.90000000596,CFD-WM-037-060-A.jpg,2000,dash,O,m,599,5,1,63065.30000000447,423546.6000000015,7123,ATS,B,24
1,test,2,C,mfborder.png,1,m,Fri Apr 11 2025 09:52:14 GMT-0500 (Central Daylight Time),545708.3000000045,CFD-WM-009-009-A.jpg,1200,dash,O,m,1048,6,1,2282.3000000044703,543426.0,7123,ATS,B,1
2,test,2,C,haborder.png,1,m,Fri Apr 11 2025 09:52:14 GMT-0500 (Central Daylight Time),547726.3000000045,CFD-WM-011-006-HC.jpg,1000,solid,O,m,1000,12,1,4300.30000000447,543426.0,7123,ATS,B,2
3,test,2,C,haborder.png,1,z,Fri Apr 11 2025 09:52:14 GMT-0500 (Central Daylight Time),550422.1000000015,CFD-WF-026-008-A.jpg,1700,solid,O,z,975,9,1,6996.10000000149,543426.0,7123,ATS,B,3
4,test,2,C,haborder.png,1,m,Fri Apr 11 2025 09:52:14 GMT-0500 (Central Daylight Time),552906.5,CFD-WM-011-006-HC.jpg,1500,solid,O,m,958,11,1,9480.5,543426.0,7123,ATS,B,4
4,test,2,C,haborder.png,0,z,Fri Apr 11 2025 09:52:14 GMT-0500 (Central Daylight Time),556146.8000000045,CFD-WF-026-008-A.jpg,1700,solid,O,None,1513,9,1,12720.80000000447,543426.0,7123,ATS,B,5
5,test,2,C,mfborder.png,1,z,Fri Apr 11 2025 09:52:14 GMT-0500 (Central Daylight Time),558922.3000000045,CFD-BF-035-007-HC.jpg,1500,dash,O,z,1260,3,1,15496.30000000447,543426.0,7123,ATS,B,6
5,test,2,C,haborder.png,0,z,Fri Apr 11 2025 09:52:14 GMT-0500 (Central Daylight Time),562354.700000003,CFD-BF-050-012-A.jpg,1900,solid,O,None,1516,8,1,18928.70000000298,543426.0,7123,ATS,B,7
6,test,2,C,mfborder.png,1,m,Fri Apr 11 2025 09:52:14 GMT-0500 (Central Daylight Time),564354.3000000045,CFD-BM-015-017-HC.jpg,1000,dash,O,m,966,4,1,20928.30000000447,543426.0,7123,ATS,B,8
7,test,2,C,mfborder.png,1,m,Fri Apr 11 2025 09:52:14 GMT-0500 (Central Daylight Time),566118.3000000045,CFD-BM-015-017-HC.jpg,1000,dash,O,m,746,4,1,22692.30000000447,543426.0,7123,ATS,B,9
8,test,2,C,mfborder.png,1,m,Fri Apr 11 2025 09:52:14 GMT-0500 (Central Daylight Time),569517.5,CFD-BM-037-041-A.jpg,2000,dash,O,m,1380,5,1,26091.5,543426.0,7123,ATS,B,10
9,test,2,C,haborder.png,1,m,Fri Apr 11 2025 09:52:14 GMT-0500 (Central Daylight Time),571984.1000000015,CFD-BM-020-024-HC.jpg,1600,solid,O,m,837,10,1,28558.10000000149,543426.0,7123,ATS,B,11
10,test,2,C,haborder.png,1,z,Fri Apr 11 2025 09:52:14 GMT-0500 (Central Daylight Time),574783.3000000045,CFD-BF-050-012-A.jpg,1900,solid,O,z,864,8,1,31357.30000000447,543426.0,7123,ATS,B,12
11,test,2,C,mfborder.png,1,z,Fri Apr 11 2025 09:52:14 GMT-0500 (Central Daylight Time),577700.200000003,CFD-BF-035-007-HC.jpg,1500,dash,O,z,1399,3,1,34274.20000000298,543426.0,7123,ATS,B,13
12,test,2,C,mfborder.png,1,z,Fri Apr 11 2025 09:52:14 GMT-0500 (Central Daylight Time),580046.8000000045,CFD-WF-011-006-HC.jpg,1700,dash,O,z,620,1,1,36620.80000000447,543426.0,7123,ATS,B,14
13,test,2,C,haborder.png,1,m,Fri Apr 11 2025 09:52:14 GMT-0500 (Central Daylight Time),582480.1000000015,CFD-WM-011-006-HC.jpg,1500,solid,O,m,910,11,1,39054.10000000149,543426.0,7123,ATS,B,15
14,test,2,C,haborder.png,1,m,Fri Apr 11 2025 09:52:14 GMT-0500 (Central Daylight Time),584113.700000003,CFD-WM-011-006-HC.jpg,1000,solid,O,m,610,12,1,40687.70000000298,543426.0,7123,ATS,B,16
15,test,2,C,haborder.png,1,z,Fri Apr 11 2025 09:52:14 GMT-0500 (Central Daylight Time),586413.700000003,CFD-BF-051-043-A.jpg,1400,solid,O,z,883,7,1,42987.70000000298,543426.0,7123,ATS,B,17
16,test,2,C,mfborder.png,1,z,Fri Apr 11 2025 09:52:14 GMT-0500 (Central Daylight Time),588795.1000000015,CFD-WF-013-015-A.jpg,1600,dash,O,z,750,2,1,45369.10000000149,543426.0,7123,ATS,B,18
17,test,2,C,mfborder.png,1,m,Fri Apr 11 2025 09:52:14 GMT-0500 (Central Daylight Time),591127.0,CFD-WM-009-009-A.jpg,1200,dash,O,m,1112,6,1,47701.0,543426.0,7123,ATS,B,19
18,test,2,C,mfborder.png,1,z,Fri Apr 11 2025 09:52:14 GMT-0500 (Central Daylight Time),593642.5,CFD-WF-011-006-HC.jpg,1700,dash,O,z,791,1,1,50216.5,543426.0,7123,ATS,B,20
19,test,2,C,haborder.png,1,z,Fri Apr 11 2025 09:52:14 GMT-0500 (Central Daylight Time),596158.8000000045,CFD-BF-051-043-A.jpg,1400,solid,O,z,1094,7,1,52732.80000000447,543426.0,7123,ATS,B,21
20,test,2,C,mfborder.png,1,m,Fri Apr 11 2025 09:52:14 GMT-0500 (Central Daylight Time),599574.700000003,CFD-BM-037-041-A.jpg,2000,dash,O,m,1382,5,1,56148.70000000298,543426.0,7123,ATS,B,22
21,test,2,C,haborder.png,1,m,Fri Apr 11 2025 09:52:14 GMT-0500 (Central Daylight Time),602091.200000003,CFD-BM-020-024-HC.jpg,1600,solid,O,m,884,10,1,58665.20000000298,543426.0,7123,ATS,B,23
22,test,2,C,mfborder.png,1,z,Fri Apr 11 2025 09:52:14 GMT-0500 (Central Daylight Time),604590.0,CFD-WF-013-015-A.jpg,1600,dash,O,z,871,2,1,61164.0,543426.0,7123,ATS,B,24
0,test,3,C,haborder.png,0,z,Fri Apr 11 2025 09:52:14 GMT-0500 (Central Daylight Time),617736.200000003,CFD-BM-041-048-A.jpg,1700,solid,O,m,794,9,1,2514.0,615222.200000003,7123,ATS,B,1
0,test,3,C,haborder.png,0,m,Fri Apr 11 2025 09:52:14 GMT-0500 (Central Daylight Time),620068.700000003,CFD-WF-027-007-HC.jpg,1500,solid,O,z,814,11,1,4846.5,615222.200000003,7123,ATS,B,2
1,test,3,C,mfborder.png,1,z,Fri Apr 11 2025 09:52:14 GMT-0500 (Central Daylight Time),622550.3000000045,CFD-WF-026-008-A.jpg,1500,dash,O,z,963,3,1,7328.10000000149,615222.200000003,7123,ATS,B,3
2,test,3,C,mfborder.png,1,m,Fri Apr 11 2025 09:52:14 GMT-0500 (Central Daylight Time),624700.8000000045,CFD-WM-012-007-HC.jpg,1000,dash,O,m,1125,4,1,9478.60000000149,615222.200000003,7123,ATS,B,4
3,test,3,C,haborder.png,1,m,Fri Apr 11 2025 09:52:14 GMT-0500 (Central Daylight Time),627316.5,CFD-BF-035-007-HC.jpg,1600,solid,O,m,992,10,1,12094.29999999702,615222.200000003,7123,ATS,B,5
4,test,3,C,mfborder.png,1,m,Fri Apr 11 2025 09:52:14 GMT-0500 (Central Daylight Time),630764.5,CFD-WM-037-060-A.jpg,2000,dash,O,m,1425,5,1,15542.29999999702,615222.200000003,7123,ATS,B,6
5,test,3,C,mfborder.png,1,z,Fri Apr 11 2025 09:52:14 GMT-0500 (Central Daylight Time),633182.700000003,CFD-BF-051-043-A.jpg,1600,dash,O,z,799,2,1,17960.5,615222.200000003,7123,ATS,B,7
5,test,3,C,haborder.png,0,z,Fri Apr 11 2025 09:52:14 GMT-0500 (Central Daylight Time),635764.5,CFD-WM-009-009-A.jpg,1400,solid,O,m,1158,7,1,20542.29999999702,615222.200000003,7123,ATS,B,8
6,test,3,C,mfborder.png,1,z,Fri Apr 11 2025 09:52:14 GMT-0500 (Central Daylight Time),638545.8000000045,CFD-WF-026-008-A.jpg,1500,dash,O,z,1250,3,1,23323.60000000149,615222.200000003,7123,ATS,B,9
7,test,3,C,mfborder.png,1,m,Fri Apr 11 2025 09:52:14 GMT-0500 (Central Daylight Time),641464.6000000015,CFD-WM-037-060-A.jpg,2000,dash,O,m,898,5,1,26242.39999999851,615222.200000003,7123,ATS,B,10
7,test,3,C,haborder.png,0,z,Fri Apr 11 2025 09:52:14 GMT-0500 (Central Daylight Time),643979.1000000015,CFD-WM-009-009-A.jpg,1400,solid,O,m,1084,7,1,28756.89999999851,615222.200000003,7123,ATS,B,11
8,test,3,C,haborder.png,1,z,Fri Apr 11 2025 09:52:14 GMT-0500 (Central Daylight Time),647126.6000000015,CFD-BM-037-041-A.jpg,1900,solid,O,z,1221,8,1,31904.39999999851,615222.200000003,7123,ATS,B,12
9,test,3,C,mfborder.png,1,z,Fri Apr 11 2025 09:52:14 GMT-0500 (Central Daylight Time),650024.700000003,CFD-BF-027-013-HC.jpg,1700,dash,O,z,1166,1,1,34802.5,615222.200000003,7123,ATS,B,13
9,test,3,C,haborder.png,0,m,Fri Apr 11 2025 09:52:14 GMT-0500 (Central Daylight Time),652558.8000000045,CFD-WF-011-006-HC.jpg,1000,solid,O,None,1515,12,1,37336.60000000149,615222.200000003,7123,ATS,B,14
10,test,3,C,haborder.png,1,m,Fri Apr 11 2025 09:52:14 GMT-0500 (Central Daylight Time),655273.6000000015,CFD-WF-027-007-HC.jpg,1500,solid,O,m,1193,11,1,40051.39999999851,615222.200000003,7123,ATS,B,15
11,test,3,C,mfborder.png,1,z,Fri Apr 11 2025 09:52:14 GMT-0500 (Central Daylight Time),657774.400000006,CFD-BF-051-043-A.jpg,1600,dash,O,z,881,2,1,42552.20000000298,615222.200000003,7123,ATS,B,16
12,test,3,C,mfborder.png,1,m,Fri Apr 11 2025 09:52:14 GMT-0500 (Central Daylight Time),659772.900000006,CFD-WM-012-007-HC.jpg,1000,dash,O,m,961,4,1,44550.70000000298,615222.200000003,7123,ATS,B,17
13,test,3,C,haborder.png,1,m,Fri Apr 11 2025 09:52:14 GMT-0500 (Central Daylight Time),662754.5,CFD-BF-035-007-HC.jpg,1600,solid,O,m,1358,10,1,47532.29999999702,615222.200000003,7123,ATS,B,18
14,test,3,C,haborder.png,1,z,Fri Apr 11 2025 09:52:14 GMT-0500 (Central Daylight Time),665453.400000006,CFD-BM-041-048-A.jpg,1700,solid,O,z,970,9,1,50231.20000000298,615222.200000003,7123,ATS,B,19
15,test,3,C,mfborder.png,1,m,Fri Apr 11 2025 09:52:14 GMT-0500 (Central Daylight Time),667787.0,CFD-BM-020-024-HC.jpg,1200,dash,O,m,1109,6,1,52564.79999999702,615222.200000003,7123,ATS,B,20
15,test,3,C,haborder.png,0,m,Fri Apr 11 2025 09:52:14 GMT-0500 (Central Daylight Time),670319.900000006,CFD-WF-011-006-HC.jpg,1000,solid,O,None,1516,12,1,55097.70000000298,615222.200000003,7123,ATS,B,21
16,test,3,C,mfborder.png,1,m,Fri Apr 11 2025 09:52:14 GMT-0500 (Central Daylight Time),672585.1000000015,CFD-BM-020-024-HC.jpg,1200,dash,O,m,1044,6,1,57362.89999999851,615222.200000003,7123,ATS,B,22
16,test,3,C,mfborder.png,0,z,Fri Apr 11 2025 09:52:14 GMT-0500 (Central Daylight Time),675335.3000000045,CFD-BF-027-013-HC.jpg,1700,dash,O,m,1033,1,1,60113.10000000149,615222.200000003,7123,ATS,B,23
17,test,3,C,haborder.png,1,z,Fri Apr 11 2025 09:52:14 GMT-0500 (Central Daylight Time),678215.900000006,CFD-BM-037-041-A.jpg,1900,solid,O,z,952,8,1,62993.70000000298,615222.200000003,7123,ATS,B,24
1,test,4,C,haborder.png,1,z,Fri Apr 11 2025 09:52:14 GMT-0500 (Central Daylight Time),708907.6000000015,CFD-BF-051-043-A.jpg,1400,solid,O,z,1160,7,1,2583.5,706324.1000000015,7123,ATS,B,1
2,test,4,C,haborder.png,1,z,Fri Apr 11 2025 09:52:14 GMT-0500 (Central Daylight Time),711407.5,CFD-WF-026-008-A.jpg,1700,solid,O,z,775,9,1,5083.39999999851,706324.1000000015,7123,ATS,B,2
3,test,4,C,haborder.png,1,m,Fri Apr 11 2025 09:52:14 GMT-0500 (Central Daylight Time),713904.700000003,CFD-BM-020-024-HC.jpg,1600,solid,O,m,877,10,1,7580.60000000149,706324.1000000015,7123,ATS,B,3
4,test,4,C,haborder.png,1,m,Fri Apr 11 2025 09:52:14 GMT-0500 (Central Daylight Time),715589.3000000045,CFD-WM-011-006-HC.jpg,1000,solid,O,m,649,12,1,9265.20000000298,706324.1000000015,7123,ATS,B,4
5,test,4,C,haborder.png,1,m,Fri Apr 11 2025 09:52:14 GMT-0500 (Central Daylight Time),717188.0,CFD-WM-011-006-HC.jpg,1000,solid,O,m,566,12,1,10863.89999999851,706324.1000000015,7123,ATS,B,5
5,test,4,C,mfborder.png,0,z,Fri Apr 11 2025 09:52:14 GMT-0500 (Central Daylight Time),720036.6000000015,CFD-BF-035-007-HC.jpg,1500,dash,O,m,1323,3,1,13712.5,706324.1000000015,7123,ATS,B,6
6,test,4,C,haborder.png,1,z,Fri Apr 11 2025 09:52:14 GMT-0500 (Central Daylight Time),723452.1000000015,CFD-BF-050-012-A.jpg,1900,solid,O,z,1490,8,1,17128.0,706324.1000000015,7123,ATS,B,7
7,test,4,C,mfborder.png,1,m,Fri Apr 11 2025 09:52:14 GMT-0500 (Central Daylight Time),726300.400000006,CFD-BM-037-041-A.jpg,2000,dash,O,m,821,5,1,19976.30000000447,706324.1000000015,7123,ATS,B,8
8,test,4,C,mfborder.png,1,m,Fri Apr 11 2025 09:52:14 GMT-0500 (Central Daylight Time),728350.400000006,CFD-WM-009-009-A.jpg,1200,dash,O,m,822,6,1,22026.30000000447,706324.1000000015,7123,ATS,B,9
9,test,4,C,haborder.png,1,m,Fri Apr 11 2025 09:52:14 GMT-0500 (Central Daylight Time),731183.200000003,CFD-WM-011-006-HC.jpg,1500,solid,O,m,1297,11,1,24859.10000000149,706324.1000000015,7123,ATS,B,10
10,test,4,C,haborder.png,1,z,Fri Apr 11 2025 09:52:14 GMT-0500 (Central Daylight Time),733982.200000003,CFD-BF-051-043-A.jpg,1400,solid,O,z,1374,7,1,27658.10000000149,706324.1000000015,7123,ATS,B,11
10,test,4,C,mfborder.png,0,z,Fri Apr 11 2025 09:52:14 GMT-0500 (Central Daylight Time),737213.900000006,CFD-WF-011-006-HC.jpg,1700,dash,O,None,1515,1,1,30889.80000000447,706324.1000000015,7123,ATS,B,12
11,test,4,C,mfborder.png,1,z,Fri Apr 11 2025 09:52:14 GMT-0500 (Central Daylight Time),740064.200000003,CFD-WF-013-015-A.jpg,1600,dash,O,z,1221,2,1,33740.10000000149,706324.1000000015,7123,ATS,B,13
12,test,4,C,haborder.png,1,z,Fri Apr 11 2025 09:52:14 GMT-0500 (Central Daylight Time),743061.900000006,CFD-WF-026-008-A.jpg,1700,solid,O,z,1271,9,1,36737.80000000447,706324.1000000015,7123,ATS,B,14
13,test,4,C,haborder.png,1,m,Fri Apr 11 2025 09:52:14 GMT-0500 (Central Daylight Time),745995.700000003,CFD-BM-020-024-HC.jpg,1600,solid,O,m,1316,10,1,39671.60000000149,706324.1000000015,7123,ATS,B,15
14,test,4,C,haborder.png,1,m,Fri Apr 11 2025 09:52:14 GMT-0500 (Central Daylight Time),748229.5,CFD-WM-011-006-HC.jpg,1500,solid,O,m,700,11,1,41905.39999999851,706324.1000000015,7123,ATS,B,16
15,test,4,C,mfborder.png,1,z,Fri Apr 11 2025 09:52:14 GMT-0500 (Central Daylight Time),751160.0,CFD-WF-013-015-A.jpg,1600,dash,O,z,1311,2,1,44835.89999999851,706324.1000000015,7123,ATS,B,17
15,test,4,C,haborder.png,0,z,Fri Apr 11 2025 09:52:14 GMT-0500 (Central Daylight Time),754592.900000006,CFD-BF-050-012-A.jpg,1900,solid,O,None,1516,8,1,48268.80000000447,706324.1000000015,7123,ATS,B,18
15,test,4,C,mfborder.png,0,m,Fri Apr 11 2025 09:52:14 GMT-0500 (Central Daylight Time),756791.1000000015,CFD-WM-009-009-A.jpg,1200,dash,O,z,976,6,1,50467.0,706324.1000000015,7123,ATS,B,19
16,test,4,C,mfborder.png,1,z,Fri Apr 11 2025 09:52:14 GMT-0500 (Central Daylight Time),759456.700000003,CFD-WF-011-006-HC.jpg,1700,dash,O,z,943,1,1,53132.60000000149,706324.1000000015,7123,ATS,B,20
17,test,4,C,mfborder.png,1,m,Fri Apr 11 2025 09:52:14 GMT-0500 (Central Daylight Time),761057.1000000015,CFD-BM-015-017-HC.jpg,1000,dash,O,m,576,4,1,54733.0,706324.1000000015,7123,ATS,B,21
18,test,4,C,mfborder.png,1,z,Fri Apr 11 2025 09:52:14 GMT-0500 (Central Daylight Time),763622.8000000045,CFD-BF-035-007-HC.jpg,1500,dash,O,z,1037,3,1,57298.70000000298,706324.1000000015,7123,ATS,B,22
19,test,4,C,mfborder.png,1,m,Fri Apr 11 2025 09:52:14 GMT-0500 (Central Daylight Time),766304.8000000045,CFD-BM-037-041-A.jpg,2000,dash,O,m,653,5,1,59980.70000000298,706324.1000000015,7123,ATS,B,23
20,test,4,C,mfborder.png,1,m,Fri Apr 11 2025 09:52:14 GMT-0500 (Central Daylight Time),768004.6000000015,CFD-BM-015-017-HC.jpg,1000,dash,O,m,672,4,1,61680.5,706324.1000000015,7123,ATS,B,24
