acc_sum,block,block_c,block_cond,con_img,correct,correct_response,datetime,endtime,face,jitter,line,project,response,response_time,row_sel,session_number,start_end,starttime,subject_id,task,task_vers,trial
1,prac,1,A,haborder.png,1,m,Mon Mar 17 2025 15:12:59 GMT-0500 (Central Daylight Time),56889.09999999404,CFD-WM-004-005-HC.jpg,1400,solid,O,m,925,7,1,3118.0,53771.09999999404,7085,ATS,A,1
2,prac,1,A,haborder.png,1,z,Mon Mar 17 2025 15:12:59 GMT-0500 (Central Daylight Time),59488.5,CFD-BF-023-013-A.jpg,1000,solid,O,z,809,4,1,5717.4000000059605,53771.09999999404,7085,ATS,A,2
3,prac,1,A,haborder.png,1,m,Mon Mar 17 2025 15:12:59 GMT-0500 (Central Daylight Time),62670.59999999404,CFD-BM-017-052-HC.jpg,1700,solid,O,m,694,1,1,8899.5,53771.09999999404,7085,ATS,A,3
4,prac,1,A,haborder.png,1,z,Mon Mar 17 2025 15:12:59 GMT-0500 (Central Daylight Time),65236.69999998808,CFD-WF-019-015-A.jpg,1000,solid,O,z,780,12,1,11465.59999999404,53771.09999999404,7085,ATS,A,4
5,prac,1,A,haborder.png,1,m,Mon Mar 17 2025 15:12:59 GMT-0500 (Central Daylight Time),68285.79999998212,CFD-WM-006-013-HC.jpg,1700,solid,O,m,562,9,1,14514.699999988079,53771.09999999404,7085,ATS,A,5
6,prac,1,A,haborder.png,1,z,Mon Mar 17 2025 15:12:59 GMT-0500 (Central Daylight Time),70751.69999998808,CFD-BF-039-039-A.jpg,1200,solid,O,z,476,6,1,16980.59999999404,53771.09999999404,7085,ATS,A,6
7,prac,1,A,haborder.png,1,z,Mon Mar 17 2025 15:12:59 GMT-0500 (Central Daylight Time),74133.69999998808,CFD-WM-013-015-A.jpg,1900,solid,O,z,688,8,1,20362.59999999404,53771.09999999404,7085,ATS,A,7
8,prac,1,A,haborder.png,1,m,Mon Mar 17 2025 15:12:59 GMT-0500 (Central Daylight Time),77549.29999998212,CFD-BF-028-020-HC.jpg,2000,solid,O,m,621,5,1,23778.19999998808,53771.09999999404,7085,ATS,A,8
9,prac,1,A,haborder.png,1,m,Mon Mar 17 2025 15:12:59 GMT-0500 (Central Daylight Time),80981.59999999404,CFD-BM-029-026-HC.jpg,1500,solid,O,m,1145,3,1,27210.5,53771.09999999404,7085,ATS,A,9
10,prac,1,A,haborder.png,1,z,Mon Mar 17 2025 15:12:59 GMT-0500 (Central Daylight Time),84080.89999997616,CFD-WF-003-014-A.jpg,1600,solid,O,z,700,10,1,30309.79999998212,53771.09999999404,7085,ATS,A,10
11,prac,1,A,haborder.png,1,z,Mon Mar 17 2025 15:12:59 GMT-0500 (Central Daylight Time),87113.19999998808,CFD-BM-005-010-A.jpg,1600,solid,O,z,642,2,1,33342.09999999404,53771.09999999404,7085,ATS,A,11
12,prac,1,A,haborder.png,1,m,Mon Mar 17 2025 15:12:59 GMT-0500 (Central Daylight Time),90012.19999998808,CFD-WF-017-016-HC.jpg,1500,solid,O,m,613,11,1,36241.09999999404,53771.09999999404,7085,ATS,A,12
1,prac,1,B,mfborder.png,1,m,Mon Mar 17 2025 15:12:59 GMT-0500 (Central Daylight Time),117153.69999998808,CFD-WM-006-013-HC.jpg,1600,dash,O,m,666,10,1,3049.0,114104.69999998808,7085,ATS,A,1
2,prac,1,B,mfborder.png,1,m,Mon Mar 17 2025 15:12:59 GMT-0500 (Central Daylight Time),120352.79999998212,CFD-WM-013-015-A.jpg,1700,dash,O,m,701,9,1,6248.0999999940395,114104.69999998808,7085,ATS,A,2
3,prac,1,B,mfborder.png,1,m,Mon Mar 17 2025 15:12:59 GMT-0500 (Central Daylight Time),122851.89999997616,CFD-WM-019-013-A.jpg,1200,dash,O,m,515,6,1,8747.199999988079,114104.69999998808,7085,ATS,A,3
4,prac,1,B,mfborder.png,1,m,Mon Mar 17 2025 15:12:59 GMT-0500 (Central Daylight Time),125934.19999998808,CFD-BM-010-019-A.jpg,1600,dash,O,m,560,2,1,11829.5,114104.69999998808,7085,ATS,A,4
5,prac,1,B,mfborder.png,1,z,Mon Mar 17 2025 15:12:59 GMT-0500 (Central Daylight Time),128733.09999999404,CFD-WF-017-016-HC.jpg,1000,dash,O,z,1012,12,1,14628.40000000596,114104.69999998808,7085,ATS,A,5
6,prac,1,B,mfborder.png,1,z,Mon Mar 17 2025 15:12:59 GMT-0500 (Central Daylight Time),131549.09999999404,CFD-BF-023-013-A.jpg,1000,dash,O,z,1030,4,1,17444.40000000596,114104.69999998808,7085,ATS,A,6
7,prac,1,B,mfborder.png,1,m,Mon Mar 17 2025 15:12:59 GMT-0500 (Central Daylight Time),134631.59999999404,CFD-BM-029-026-HC.jpg,1700,dash,O,m,585,1,1,20526.90000000596,114104.69999998808,7085,ATS,A,7
8,prac,1,B,mfborder.png,1,z,Mon Mar 17 2025 15:12:59 GMT-0500 (Central Daylight Time),137780.79999998212,CFD-WF-003-014-A.jpg,1500,dash,O,z,862,11,1,23676.09999999404,114104.69999998808,7085,ATS,A,8
9,prac,1,B,mfborder.png,1,m,Mon Mar 17 2025 15:12:59 GMT-0500 (Central Daylight Time),141546.29999998212,CFD-BM-005-010-A.jpg,2000,dash,O,m,967,5,1,27441.59999999404,114104.69999998808,7085,ATS,A,9
10,prac,1,B,mfborder.png,1,z,Mon Mar 17 2025 15:12:59 GMT-0500 (Central Daylight Time),145128.29999998212,CFD-WF-002-008-HC.jpg,1900,dash,O,z,884,8,1,31023.59999999404,114104.69999998808,7085,ATS,A,10
11,prac,1,B,mfborder.png,1,z,Mon Mar 17 2025 15:12:59 GMT-0500 (Central Daylight Time),148154.59999999404,CFD-BF-010-005-HC.jpg,1500,dash,O,z,678,3,1,34049.90000000596,114104.69999998808,7085,ATS,A,11
12,prac,1,B,mfborder.png,1,z,Mon Mar 17 2025 15:12:59 GMT-0500 (Central Daylight Time),151342.89999997616,CFD-BF-028-020-HC.jpg,1400,dash,O,z,994,7,1,37238.19999998808,114104.69999998808,7085,ATS,A,12
1,test,1,A,haborder.png,1,m,Mon Mar 17 2025 15:12:59 GMT-0500 (Central Daylight Time),174818.89999997616,CFD-WM-006-013-HC.jpg,1700,solid,O,m,925,9,1,2649.0999999940395,172169.79999998212,7085,ATS,A,1
2,test,1,A,haborder.png,1,m,Mon Mar 17 2025 15:12:59 GMT-0500 (Central Daylight Time),176985.0,CFD-WM-004-005-HC.jpg,1400,solid,O,m,735,7,1,4815.200000017881,172169.79999998212,7085,ATS,A,2
2,test,1,A,haborder.png,0,z,Mon Mar 17 2025 15:12:59 GMT-0500 (Central Daylight Time),180117.5,CFD-BM-005-010-A.jpg,1600,solid,O,None,1515,2,1,7947.700000017881,172169.79999998212,7085,ATS,A,3
2,test,1,A,haborder.png,0,z,Mon Mar 17 2025 15:12:59 GMT-0500 (Central Daylight Time),183549.5,CFD-WM-013-015-A.jpg,1900,solid,O,None,1515,8,1,11379.700000017881,172169.79999998212,7085,ATS,A,4
3,test,1,A,haborder.png,1,z,Mon Mar 17 2025 15:12:59 GMT-0500 (Central Daylight Time),186448.79999998212,CFD-WM-013-015-A.jpg,1900,solid,O,z,968,8,1,14279.0,172169.79999998212,7085,ATS,A,5
4,test,1,A,haborder.png,1,z,Mon Mar 17 2025 15:12:59 GMT-0500 (Central Daylight Time),188897.79999998212,CFD-WF-003-014-A.jpg,1600,solid,O,z,827,10,1,16728.0,172169.79999998212,7085,ATS,A,6
5,test,1,A,haborder.png,1,m,Mon Mar 17 2025 15:12:59 GMT-0500 (Central Daylight Time),191713.59999999404,CFD-BF-028-020-HC.jpg,2000,solid,O,m,792,5,1,19543.80000001192,172169.79999998212,7085,ATS,A,7
6,test,1,A,haborder.png,1,m,Mon Mar 17 2025 15:12:59 GMT-0500 (Central Daylight Time),194779.5,CFD-BF-028-020-HC.jpg,2000,solid,O,m,1041,5,1,22609.70000001788,172169.79999998212,7085,ATS,A,8
7,test,1,A,haborder.png,1,z,Mon Mar 17 2025 15:12:59 GMT-0500 (Central Daylight Time),196945.29999998212,CFD-BF-039-039-A.jpg,1200,solid,O,z,936,6,1,24775.5,172169.79999998212,7085,ATS,A,9
8,test,1,A,haborder.png,1,m,Mon Mar 17 2025 15:12:59 GMT-0500 (Central Daylight Time),199861.29999998212,CFD-BM-017-052-HC.jpg,1700,solid,O,m,1196,1,1,27691.5,172169.79999998212,7085,ATS,A,10
9,test,1,A,haborder.png,1,z,Mon Mar 17 2025 15:12:59 GMT-0500 (Central Daylight Time),201843.59999999404,CFD-BF-023-013-A.jpg,1000,solid,O,z,950,4,1,29673.80000001192,172169.79999998212,7085,ATS,A,11
10,test,1,A,haborder.png,1,m,Mon Mar 17 2025 15:12:59 GMT-0500 (Central Daylight Time),204426.29999998212,CFD-BM-029-026-HC.jpg,1500,solid,O,m,1050,3,1,32256.5,172169.79999998212,7085,ATS,A,12
11,test,1,A,haborder.png,1,z,Mon Mar 17 2025 15:12:59 GMT-0500 (Central Daylight Time),206892.5,CFD-BM-005-010-A.jpg,1600,solid,O,z,840,2,1,34722.70000001788,172169.79999998212,7085,ATS,A,13
12,test,1,A,haborder.png,1,m,Mon Mar 17 2025 15:12:59 GMT-0500 (Central Daylight Time),209241.5,CFD-WF-017-016-HC.jpg,1500,solid,O,m,818,11,1,37071.70000001788,172169.79999998212,7085,ATS,A,14
13,test,1,A,haborder.png,1,z,Mon Mar 17 2025 15:12:59 GMT-0500 (Central Daylight Time),211674.19999998808,CFD-WF-003-014-A.jpg,1600,solid,O,z,801,10,1,39504.40000000596,172169.79999998212,7085,ATS,A,15
14,test,1,A,haborder.png,1,m,Mon Mar 17 2025 15:12:59 GMT-0500 (Central Daylight Time),214306.89999997616,CFD-BM-017-052-HC.jpg,1700,solid,O,m,900,1,1,42137.09999999404,172169.79999998212,7085,ATS,A,16
15,test,1,A,haborder.png,1,z,Mon Mar 17 2025 15:12:59 GMT-0500 (Central Daylight Time),216323.89999997616,CFD-WF-019-015-A.jpg,1000,solid,O,z,983,12,1,44154.09999999404,172169.79999998212,7085,ATS,A,17
16,test,1,A,haborder.png,1,z,Mon Mar 17 2025 15:12:59 GMT-0500 (Central Daylight Time),218172.0,CFD-BF-023-013-A.jpg,1000,solid,O,z,831,4,1,46002.20000001788,172169.79999998212,7085,ATS,A,18
17,test,1,A,haborder.png,1,m,Mon Mar 17 2025 15:12:59 GMT-0500 (Central Daylight Time),220487.69999998808,CFD-BM-029-026-HC.jpg,1500,solid,O,m,795,3,1,48317.90000000596,172169.79999998212,7085,ATS,A,19
18,test,1,A,haborder.png,1,z,Mon Mar 17 2025 15:12:59 GMT-0500 (Central Daylight Time),222220.59999999404,CFD-WF-019-015-A.jpg,1000,solid,O,z,715,12,1,50050.80000001192,172169.79999998212,7085,ATS,A,20
19,test,1,A,haborder.png,1,m,Mon Mar 17 2025 15:12:59 GMT-0500 (Central Daylight Time),224636.5,CFD-WM-006-013-HC.jpg,1700,solid,O,m,698,9,1,52466.70000001788,172169.79999998212,7085,ATS,A,21
20,test,1,A,haborder.png,1,z,Mon Mar 17 2025 15:12:59 GMT-0500 (Central Daylight Time),226619.5,CFD-BF-039-039-A.jpg,1200,solid,O,z,749,6,1,54449.70000001788,172169.79999998212,7085,ATS,A,22
21,test,1,A,haborder.png,1,m,Mon Mar 17 2025 15:12:59 GMT-0500 (Central Daylight Time),228721.79999998212,CFD-WM-004-005-HC.jpg,1400,solid,O,m,672,7,1,56552.0,172169.79999998212,7085,ATS,A,23
22,test,1,A,haborder.png,1,m,Mon Mar 17 2025 15:12:59 GMT-0500 (Central Daylight Time),231051.29999998212,CFD-WF-017-016-HC.jpg,1500,solid,O,m,808,11,1,58881.5,172169.79999998212,7085,ATS,A,24
1,test,1,B,mfborder.png,1,z,Mon Mar 17 2025 15:12:59 GMT-0500 (Central Daylight Time),248645.89999997616,CFD-BF-028-020-HC.jpg,1400,dash,O,z,834,7,1,2265.7999999821186,246380.09999999404,7085,ATS,A,1
2,test,1,B,mfborder.png,1,m,Mon Mar 17 2025 15:12:59 GMT-0500 (Central Daylight Time),250978.5,CFD-WM-013-015-A.jpg,1700,dash,O,m,610,9,1,4598.4000000059605,246380.09999999404,7085,ATS,A,2
3,test,1,B,mfborder.png,1,z,Mon Mar 17 2025 15:12:59 GMT-0500 (Central Daylight Time),252627.79999998212,CFD-BF-023-013-A.jpg,1000,dash,O,z,633,4,1,6247.699999988079,246380.09999999404,7085,ATS,A,3
4,test,1,B,mfborder.png,1,m,Mon Mar 17 2025 15:12:59 GMT-0500 (Central Daylight Time),254427.39999997616,CFD-WM-019-013-A.jpg,1200,dash,O,m,566,6,1,8047.299999982119,246380.09999999404,7085,ATS,A,4
5,test,1,B,mfborder.png,1,m,Mon Mar 17 2025 15:12:59 GMT-0500 (Central Daylight Time),257311.09999999404,CFD-BM-005-010-A.jpg,2000,dash,O,m,864,5,1,10931.0,246380.09999999404,7085,ATS,A,5
6,test,1,B,mfborder.png,1,z,Mon Mar 17 2025 15:12:59 GMT-0500 (Central Daylight Time),259659.39999997616,CFD-BF-010-005-HC.jpg,1500,dash,O,z,816,3,1,13279.299999982119,246380.09999999404,7085,ATS,A,6
7,test,1,B,mfborder.png,1,z,Mon Mar 17 2025 15:12:59 GMT-0500 (Central Daylight Time),261508.5,CFD-WF-017-016-HC.jpg,1000,dash,O,z,823,12,1,15128.40000000596,246380.09999999404,7085,ATS,A,7
8,test,1,B,mfborder.png,1,z,Mon Mar 17 2025 15:12:59 GMT-0500 (Central Daylight Time),264057.6999999881,CFD-WF-002-008-HC.jpg,1900,dash,O,z,627,8,1,17677.59999999404,246380.09999999404,7085,ATS,A,8
9,test,1,B,mfborder.png,1,m,Mon Mar 17 2025 15:12:59 GMT-0500 (Central Daylight Time),266590.2999999821,CFD-BM-005-010-A.jpg,2000,dash,O,m,505,5,1,20210.19999998808,246380.09999999404,7085,ATS,A,9
10,test,1,B,mfborder.png,1,z,Mon Mar 17 2025 15:12:59 GMT-0500 (Central Daylight Time),268822.6999999881,CFD-WF-003-014-A.jpg,1500,dash,O,z,704,11,1,22442.59999999404,246380.09999999404,7085,ATS,A,10
11,test,1,B,mfborder.png,1,z,Mon Mar 17 2025 15:12:59 GMT-0500 (Central Daylight Time),270888.89999997616,CFD-BF-028-020-HC.jpg,1400,dash,O,z,644,7,1,24508.79999998212,246380.09999999404,7085,ATS,A,11
12,test,1,B,mfborder.png,1,m,Mon Mar 17 2025 15:12:59 GMT-0500 (Central Daylight Time),273221.6999999881,CFD-BM-010-019-A.jpg,1600,dash,O,m,705,2,1,26841.59999999404,246380.09999999404,7085,ATS,A,12
13,test,1,B,mfborder.png,1,m,Mon Mar 17 2025 15:12:59 GMT-0500 (Central Daylight Time),275403.89999997616,CFD-WM-006-013-HC.jpg,1600,dash,O,m,565,10,1,29023.79999998212,246380.09999999404,7085,ATS,A,13
14,test,1,B,mfborder.png,1,m,Mon Mar 17 2025 15:12:59 GMT-0500 (Central Daylight Time),277686.6999999881,CFD-BM-029-026-HC.jpg,1700,dash,O,m,555,1,1,31306.59999999404,246380.09999999404,7085,ATS,A,14
15,test,1,B,mfborder.png,1,m,Mon Mar 17 2025 15:12:59 GMT-0500 (Central Daylight Time),280335.89999997616,CFD-WM-013-015-A.jpg,1700,dash,O,m,921,9,1,33955.79999998212,246380.09999999404,7085,ATS,A,15
16,test,1,B,mfborder.png,1,z,Mon Mar 17 2025 15:12:59 GMT-0500 (Central Daylight Time),282085.2999999821,CFD-BF-023-013-A.jpg,1000,dash,O,z,730,4,1,35705.19999998808,246380.09999999404,7085,ATS,A,16
17,test,1,B,mfborder.png,1,z,Mon Mar 17 2025 15:12:59 GMT-0500 (Central Daylight Time),284819.09999999404,CFD-BF-010-005-HC.jpg,1500,dash,O,z,1201,3,1,38439.0,246380.09999999404,7085,ATS,A,17
18,test,1,B,mfborder.png,1,m,Mon Mar 17 2025 15:12:59 GMT-0500 (Central Daylight Time),286650.6999999881,CFD-WM-019-013-A.jpg,1200,dash,O,m,600,6,1,40270.59999999404,246380.09999999404,7085,ATS,A,18
19,test,1,B,mfborder.png,1,z,Mon Mar 17 2025 15:12:59 GMT-0500 (Central Daylight Time),289049.89999997616,CFD-WF-003-014-A.jpg,1500,dash,O,z,868,11,1,42669.79999998212,246380.09999999404,7085,ATS,A,19
20,test,1,B,mfborder.png,1,z,Mon Mar 17 2025 15:12:59 GMT-0500 (Central Daylight Time),291649.09999999404,CFD-WF-002-008-HC.jpg,1900,dash,O,z,677,8,1,45269.0,246380.09999999404,7085,ATS,A,20
21,test,1,B,mfborder.png,1,m,Mon Mar 17 2025 15:12:59 GMT-0500 (Central Daylight Time),293998.39999997616,CFD-BM-029-026-HC.jpg,1700,dash,O,m,622,1,1,47618.29999998212,246380.09999999404,7085,ATS,A,21
22,test,1,B,mfborder.png,1,m,Mon Mar 17 2025 15:12:59 GMT-0500 (Central Daylight Time),296297.59999999404,CFD-BM-010-019-A.jpg,1600,dash,O,m,677,2,1,49917.5,246380.09999999404,7085,ATS,A,22
23,test,1,B,mfborder.png,1,z,Mon Mar 17 2025 15:12:59 GMT-0500 (Central Daylight Time),298013.6999999881,CFD-WF-017-016-HC.jpg,1000,dash,O,z,687,12,1,51633.59999999404,246380.09999999404,7085,ATS,A,23
24,test,1,B,mfborder.png,1,m,Mon Mar 17 2025 15:12:59 GMT-0500 (Central Daylight Time),300196.39999997616,CFD-WM-006-013-HC.jpg,1600,dash,O,m,555,10,1,53816.29999998212,246380.09999999404,7085,ATS,A,24
1,prac,1,C,mfborder.png,1,z,Mon Mar 17 2025 15:12:59 GMT-0500 (Central Daylight Time),349481.09999999404,CFD-WF-019-015-A.jpg,1500,solid,O,z,1455,2,1,3748.800000011921,345732.2999999821,7085,ATS,A,1
2,prac,1,C,haborder.png,1,z,Mon Mar 17 2025 15:12:59 GMT-0500 (Central Daylight Time),353129.7999999821,CFD-BF-039-039-A.jpg,1700,solid,O,z,1157,8,1,7397.5,345732.2999999821,7085,ATS,A,2
2,prac,1,C,mfborder.png,0,m,Mon Mar 17 2025 15:12:59 GMT-0500 (Central Daylight Time),357128.59999999404,CFD-WM-013-015-A.jpg,1700,solid,O,None,1515,6,1,11396.300000011921,345732.2999999821,7085,ATS,A,3
3,prac,1,C,mfborder.png,1,m,Mon Mar 17 2025 15:12:59 GMT-0500 (Central Daylight Time),360877.39999997616,CFD-BM-017-052-HC.jpg,2000,solid,O,m,975,4,1,15145.09999999404,345732.2999999821,7085,ATS,A,4
4,prac,1,C,haborder.png,1,m,Mon Mar 17 2025 15:12:59 GMT-0500 (Central Daylight Time),363793.39999997616,CFD-BM-029-026-HC.jpg,1500,solid,O,m,625,10,1,18061.09999999404,345732.2999999821,7085,ATS,A,5
5,prac,1,C,haborder.png,1,m,Mon Mar 17 2025 15:12:59 GMT-0500 (Central Daylight Time),366492.5,CFD-WM-004-005-HC.jpg,1000,dash,O,m,906,11,1,20760.20000001788,345732.2999999821,7085,ATS,A,6
6,prac,1,C,haborder.png,1,z,Mon Mar 17 2025 15:12:59 GMT-0500 (Central Daylight Time),369807.89999997616,CFD-BF-023-013-A.jpg,1900,dash,O,z,618,7,1,24075.59999999404,345732.2999999821,7085,ATS,A,7
6,prac,1,C,mfborder.png,0,m,Mon Mar 17 2025 15:12:59 GMT-0500 (Central Daylight Time),372907.0,CFD-BM-005-010-A.jpg,1200,dash,O,z,1107,5,1,27174.70000001788,345732.2999999821,7085,ATS,A,8
7,prac,1,C,haborder.png,1,z,Mon Mar 17 2025 15:12:59 GMT-0500 (Central Daylight Time),376272.5,CFD-WF-003-014-A.jpg,1600,dash,O,z,975,9,1,30540.20000001788,345732.2999999821,7085,ATS,A,9
8,prac,1,C,mfborder.png,1,z,Mon Mar 17 2025 15:12:59 GMT-0500 (Central Daylight Time),379005.39999997616,CFD-BF-028-020-HC.jpg,1000,dash,O,z,938,3,1,33273.09999999404,345732.2999999821,7085,ATS,A,10
8,prac,1,C,mfborder.png,0,z,Mon Mar 17 2025 15:12:59 GMT-0500 (Central Daylight Time),382254.09999999404,CFD-WF-017-016-HC.jpg,1600,dash,O,m,854,1,1,36521.80000001192,345732.2999999821,7085,ATS,A,11
9,prac,1,C,haborder.png,1,m,Mon Mar 17 2025 15:12:59 GMT-0500 (Central Daylight Time),385453.1999999881,CFD-WM-004-005-HC.jpg,1400,solid,O,m,1004,12,1,39720.90000000596,345732.2999999821,7085,ATS,A,12
0,test,1,C,haborder.png,0,m,Mon Mar 17 2025 15:12:59 GMT-0500 (Central Daylight Time),403147.6999999881,CFD-WF-002-008-HC.jpg,1500,solid,O,z,836,11,1,2365.300000011921,400782.39999997616,7085,ATS,A,1
0,test,1,C,haborder.png,0,m,Mon Mar 17 2025 15:12:59 GMT-0500 (Central Daylight Time),404996.7999999821,CFD-WF-017-016-HC.jpg,1000,solid,O,z,831,12,1,4214.4000000059605,400782.39999997616,7085,ATS,A,2
1,test,1,C,mfborder.png,1,m,Mon Mar 17 2025 15:12:59 GMT-0500 (Central Daylight Time),407190.0,CFD-WM-006-013-HC.jpg,1000,dash,O,m,1158,4,1,6407.600000023842,400782.39999997616,7085,ATS,A,3
1,test,1,C,mfborder.png,0,m,Mon Mar 17 2025 15:12:59 GMT-0500 (Central Daylight Time),410428.39999997616,CFD-WM-019-013-A.jpg,2000,dash,O,z,1231,5,1,9646.0,400782.39999997616,7085,ATS,A,4
2,test,1,C,mfborder.png,1,z,Mon Mar 17 2025 15:12:59 GMT-0500 (Central Daylight Time),413244.1999999881,CFD-BF-023-013-A.jpg,1600,dash,O,z,1199,2,1,12461.800000011921,400782.39999997616,7085,ATS,A,5
2,test,1,C,haborder.png,0,z,Mon Mar 17 2025 15:12:59 GMT-0500 (Central Daylight Time),416476.6999999881,CFD-BM-010-019-A.jpg,1700,solid,O,None,1516,9,1,15694.300000011921,400782.39999997616,7085,ATS,A,6
3,test,1,C,mfborder.png,1,m,Mon Mar 17 2025 15:12:59 GMT-0500 (Central Daylight Time),418142.89999997616,CFD-WM-006-013-HC.jpg,1000,dash,O,m,645,4,1,17360.5,400782.39999997616,7085,ATS,A,7
3,test,1,C,haborder.png,0,m,Mon Mar 17 2025 15:12:59 GMT-0500 (Central Daylight Time),420442.09999999404,CFD-BF-028-020-HC.jpg,1600,solid,O,z,668,10,1,19659.70000001788,400782.39999997616,7085,ATS,A,8
3,test,1,C,haborder.png,0,m,Mon Mar 17 2025 15:12:59 GMT-0500 (Central Daylight Time),422424.7999999821,CFD-WF-017-016-HC.jpg,1000,solid,O,z,960,12,1,21642.40000000596,400782.39999997616,7085,ATS,A,9
4,test,1,C,mfborder.png,1,z,Mon Mar 17 2025 15:12:59 GMT-0500 (Central Daylight Time),425373.89999997616,CFD-WF-003-014-A.jpg,1500,dash,O,z,1431,3,1,24591.5,400782.39999997616,7085,ATS,A,10
5,test,1,C,haborder.png,1,z,Mon Mar 17 2025 15:12:59 GMT-0500 (Central Daylight Time),428289.59999999404,CFD-BM-005-010-A.jpg,1900,solid,O,z,993,8,1,27507.20000001788,400782.39999997616,7085,ATS,A,11
5,test,1,C,haborder.png,0,z,Mon Mar 17 2025 15:12:59 GMT-0500 (Central Daylight Time),431172.09999999404,CFD-BM-010-019-A.jpg,1700,solid,O,m,1158,9,1,30389.70000001788,400782.39999997616,7085,ATS,A,12
6,test,1,C,haborder.png,1,z,Mon Mar 17 2025 15:12:59 GMT-0500 (Central Daylight Time),433471.39999997616,CFD-WM-013-015-A.jpg,1400,solid,O,z,871,7,1,32689.0,400782.39999997616,7085,ATS,A,13
6,test,1,C,haborder.png,0,m,Mon Mar 17 2025 15:12:59 GMT-0500 (Central Daylight Time),436470.5,CFD-BF-028-020-HC.jpg,1600,solid,O,z,1372,10,1,35688.10000002384,400782.39999997616,7085,ATS,A,14
7,test,1,C,haborder.png,1,z,Mon Mar 17 2025 15:12:59 GMT-0500 (Central Daylight Time),439602.7999999821,CFD-BM-005-010-A.jpg,1900,solid,O,z,1209,8,1,38820.40000000596,400782.39999997616,7085,ATS,A,15
8,test,1,C,mfborder.png,1,z,Mon Mar 17 2025 15:12:59 GMT-0500 (Central Daylight Time),442701.6999999881,CFD-BF-010-005-HC.jpg,1700,dash,O,z,1379,1,1,41919.30000001192,400782.39999997616,7085,ATS,A,16
9,test,1,C,mfborder.png,1,z,Mon Mar 17 2025 15:12:59 GMT-0500 (Central Daylight Time),445267.5,CFD-WF-003-014-A.jpg,1500,dash,O,z,1041,3,1,44485.10000002384,400782.39999997616,7085,ATS,A,17
10,test,1,C,mfborder.png,1,z,Mon Mar 17 2025 15:12:59 GMT-0500 (Central Daylight Time),447883.6999999881,CFD-BF-023-013-A.jpg,1600,dash,O,z,983,2,1,47101.30000001192,400782.39999997616,7085,ATS,A,18
10,test,1,C,mfborder.png,0,m,Mon Mar 17 2025 15:12:59 GMT-0500 (Central Daylight Time),451116.0,CFD-WM-019-013-A.jpg,2000,dash,O,z,1216,5,1,50333.60000002384,400782.39999997616,7085,ATS,A,19
11,test,1,C,mfborder.png,1,m,Mon Mar 17 2025 15:12:59 GMT-0500 (Central Daylight Time),453498.5,CFD-BM-029-026-HC.jpg,1200,dash,O,m,1150,6,1,52716.10000002384,400782.39999997616,7085,ATS,A,20
12,test,1,C,haborder.png,1,z,Mon Mar 17 2025 15:12:59 GMT-0500 (Central Daylight Time),456047.6999999881,CFD-WM-013-015-A.jpg,1400,solid,O,z,1121,7,1,55265.30000001192,400782.39999997616,7085,ATS,A,21
13,test,1,C,mfborder.png,1,m,Mon Mar 17 2025 15:12:59 GMT-0500 (Central Daylight Time),458030.39999997616,CFD-BM-029-026-HC.jpg,1200,dash,O,m,756,6,1,57248.0,400782.39999997616,7085,ATS,A,22
13,test,1,C,mfborder.png,0,z,Mon Mar 17 2025 15:12:59 GMT-0500 (Central Daylight Time),461179.59999999404,CFD-BF-010-005-HC.jpg,1700,dash,O,m,1416,1,1,60397.20000001788,400782.39999997616,7085,ATS,A,23
14,test,1,C,haborder.png,1,m,Mon Mar 17 2025 15:12:59 GMT-0500 (Central Daylight Time),463678.89999997616,CFD-WF-002-008-HC.jpg,1500,solid,O,m,972,11,1,62896.5,400782.39999997616,7085,ATS,A,24
0,test,2,C,haborder.png,0,m,Mon Mar 17 2025 15:12:59 GMT-0500 (Central Daylight Time),481939.89999997616,CFD-WM-004-005-HC.jpg,1000,solid,O,None,1512,12,1,2532.5999999940395,479407.2999999821,7085,ATS,A,1
1,test,2,C,haborder.png,1,z,Mon Mar 17 2025 15:12:59 GMT-0500 (Central Daylight Time),485221.7999999821,CFD-BF-039-039-A.jpg,1900,solid,O,z,1355,8,1,5814.5,479407.2999999821,7085,ATS,A,2
2,test,2,C,haborder.png,1,z,Mon Mar 17 2025 15:12:59 GMT-0500 (Central Daylight Time),487987.5,CFD-BF-023-013-A.jpg,1400,solid,O,z,1334,7,1,8580.200000017881,479407.2999999821,7085,ATS,A,3
2,test,2,C,mfborder.png,0,z,Mon Mar 17 2025 15:12:59 GMT-0500 (Central Daylight Time),491120.09999999404,CFD-WF-019-015-A.jpg,1600,dash,O,None,1512,2,1,11712.800000011921,479407.2999999821,7085,ATS,A,4
3,test,2,C,mfborder.png,1,z,Mon Mar 17 2025 15:12:59 GMT-0500 (Central Daylight Time),494085.59999999404,CFD-WF-017-016-HC.jpg,1700,dash,O,z,1246,1,1,14678.300000011921,479407.2999999821,7085,ATS,A,5
4,test,2,C,mfborder.png,1,z,Mon Mar 17 2025 15:12:59 GMT-0500 (Central Daylight Time),496935.0,CFD-WF-019-015-A.jpg,1600,dash,O,z,1230,2,1,17527.70000001788,479407.2999999821,7085,ATS,A,6
5,test,2,C,haborder.png,1,m,Mon Mar 17 2025 15:12:59 GMT-0500 (Central Daylight Time),499667.1999999881,CFD-WM-004-005-HC.jpg,1500,solid,O,m,1200,11,1,20259.90000000596,479407.2999999821,7085,ATS,A,7
6,test,2,C,haborder.png,1,z,Mon Mar 17 2025 15:12:59 GMT-0500 (Central Daylight Time),502266.59999999404,CFD-WF-003-014-A.jpg,1700,solid,O,z,874,9,1,22859.30000001192,479407.2999999821,7085,ATS,A,8
6,test,2,C,mfborder.png,0,m,Mon Mar 17 2025 15:12:59 GMT-0500 (Central Daylight Time),505798.6999999881,CFD-BM-005-010-A.jpg,2000,dash,O,None,1516,5,1,26391.40000000596,479407.2999999821,7085,ATS,A,9
6,test,2,C,mfborder.png,0,m,Mon Mar 17 2025 15:12:59 GMT-0500 (Central Daylight Time),508064.89999997616,CFD-WM-013-015-A.jpg,1200,dash,O,z,1037,6,1,28657.59999999404,479407.2999999821,7085,ATS,A,10
7,test,2,C,haborder.png,1,m,Mon Mar 17 2025 15:12:59 GMT-0500 (Central Daylight Time),510514.09999999404,CFD-BM-029-026-HC.jpg,1600,solid,O,m,819,10,1,31106.80000001192,479407.2999999821,7085,ATS,A,11
8,test,2,C,mfborder.png,1,z,Mon Mar 17 2025 15:12:59 GMT-0500 (Central Daylight Time),513379.6999999881,CFD-WF-017-016-HC.jpg,1700,dash,O,z,1142,1,1,33972.40000000596,479407.2999999821,7085,ATS,A,12
9,test,2,C,mfborder.png,1,z,Mon Mar 17 2025 15:12:59 GMT-0500 (Central Daylight Time),515728.89999997616,CFD-BF-028-020-HC.jpg,1500,dash,O,z,820,3,1,36321.59999999404,479407.2999999821,7085,ATS,A,13
9,test,2,C,haborder.png,0,m,Mon Mar 17 2025 15:12:59 GMT-0500 (Central Daylight Time),517844.5,CFD-WM-004-005-HC.jpg,1000,solid,O,z,1098,12,1,38437.20000001788,479407.2999999821,7085,ATS,A,14
10,test,2,C,haborder.png,1,m,Mon Mar 17 2025 15:12:59 GMT-0500 (Central Daylight Time),520410.39999997616,CFD-WM-004-005-HC.jpg,1500,solid,O,m,1034,11,1,41003.09999999404,479407.2999999821,7085,ATS,A,15
11,test,2,C,haborder.png,1,z,Mon Mar 17 2025 15:12:59 GMT-0500 (Central Daylight Time),522693.0,CFD-BF-023-013-A.jpg,1400,solid,O,z,864,7,1,43285.70000001788,479407.2999999821,7085,ATS,A,16
12,test,2,C,haborder.png,1,m,Mon Mar 17 2025 15:12:59 GMT-0500 (Central Daylight Time),525042.1999999881,CFD-BM-029-026-HC.jpg,1600,solid,O,m,717,10,1,45634.90000000596,479407.2999999821,7085,ATS,A,17
12,test,2,C,mfborder.png,0,z,Mon Mar 17 2025 15:12:59 GMT-0500 (Central Daylight Time),527758.0,CFD-BF-028-020-HC.jpg,1500,dash,O,m,1188,3,1,48350.70000001788,479407.2999999821,7085,ATS,A,18
13,test,2,C,mfborder.png,1,m,Mon Mar 17 2025 15:12:59 GMT-0500 (Central Daylight Time),529924.099999994,CFD-BM-017-052-HC.jpg,1000,dash,O,m,1140,4,1,50516.80000001192,479407.2999999821,7085,ATS,A,19
13,test,2,C,mfborder.png,0,m,Mon Mar 17 2025 15:12:59 GMT-0500 (Central Daylight Time),532256.7999999821,CFD-WM-013-015-A.jpg,1200,dash,O,z,1110,6,1,52849.5,479407.2999999821,7085,ATS,A,20
13,test,2,C,mfborder.png,0,m,Mon Mar 17 2025 15:12:59 GMT-0500 (Central Daylight Time),534439.2999999821,CFD-BM-017-052-HC.jpg,1000,dash,O,z,1161,4,1,55032.0,479407.2999999821,7085,ATS,A,21
14,test,2,C,haborder.png,1,z,Mon Mar 17 2025 15:12:59 GMT-0500 (Central Daylight Time),537005.1999999881,CFD-WF-003-014-A.jpg,1700,solid,O,z,839,9,1,57597.90000000596,479407.2999999821,7085,ATS,A,22
14,test,2,C,mfborder.png,0,m,Mon Mar 17 2025 15:12:59 GMT-0500 (Central Daylight Time),540454.1999999881,CFD-BM-005-010-A.jpg,2000,dash,O,z,1421,5,1,61046.90000000596,479407.2999999821,7085,ATS,A,23
15,test,2,C,haborder.png,1,z,Mon Mar 17 2025 15:12:59 GMT-0500 (Central Daylight Time),543720.0,CFD-BF-039-039-A.jpg,1900,solid,O,z,1336,8,1,64312.70000001788,479407.2999999821,7085,ATS,A,24
1,test,3,C,mfborder.png,1,z,Mon Mar 17 2025 15:12:59 GMT-0500 (Central Daylight Time),553550.099999994,CFD-BF-010-005-HC.jpg,1700,dash,O,z,1059,1,1,2782.4000000059605,550767.6999999881,7085,ATS,A,1
1,test,3,C,haborder.png,0,m,Mon Mar 17 2025 15:12:59 GMT-0500 (Central Daylight Time),556082.7999999821,CFD-WF-017-016-HC.jpg,1000,solid,O,None,1516,12,1,5315.0999999940395,550767.6999999881,7085,ATS,A,2
2,test,3,C,haborder.png,1,m,Mon Mar 17 2025 15:12:59 GMT-0500 (Central Daylight Time),558748.5,CFD-BF-028-020-HC.jpg,1600,solid,O,m,1048,10,1,7980.800000011921,550767.6999999881,7085,ATS,A,3
2,test,3,C,haborder.png,0,z,Mon Mar 17 2025 15:12:59 GMT-0500 (Central Daylight Time),562180.7999999821,CFD-BM-005-010-A.jpg,1900,solid,O,None,1516,8,1,11413.09999999404,550767.6999999881,7085,ATS,A,4
3,test,3,C,mfborder.png,1,m,Mon Mar 17 2025 15:12:59 GMT-0500 (Central Daylight Time),564313.5,CFD-WM-006-013-HC.jpg,1000,dash,O,m,1109,4,1,13545.800000011921,550767.6999999881,7085,ATS,A,5
4,test,3,C,haborder.png,1,z,Mon Mar 17 2025 15:12:59 GMT-0500 (Central Daylight Time),566896.3999999762,CFD-WM-013-015-A.jpg,1400,solid,O,z,1149,7,1,16128.699999988079,550767.6999999881,7085,ATS,A,6
5,test,3,C,haborder.png,1,z,Mon Mar 17 2025 15:12:59 GMT-0500 (Central Daylight Time),570061.6999999881,CFD-BM-010-019-A.jpg,1700,solid,O,z,1446,9,1,19294.0,550767.6999999881,7085,ATS,A,7
6,test,3,C,mfborder.png,1,z,Mon Mar 17 2025 15:12:59 GMT-0500 (Central Daylight Time),572728.0,CFD-WF-003-014-A.jpg,1500,dash,O,z,1137,3,1,21960.30000001192,550767.6999999881,7085,ATS,A,8
7,test,3,C,mfborder.png,1,z,Mon Mar 17 2025 15:12:59 GMT-0500 (Central Daylight Time),574927.099999994,CFD-WF-003-014-A.jpg,1500,dash,O,z,671,3,1,24159.40000000596,550767.6999999881,7085,ATS,A,9
8,test,3,C,mfborder.png,1,m,Mon Mar 17 2025 15:12:59 GMT-0500 (Central Daylight Time),576960.099999994,CFD-WM-006-013-HC.jpg,1000,dash,O,m,1004,4,1,26192.40000000596,550767.6999999881,7085,ATS,A,10
8,test,3,C,mfborder.png,0,m,Mon Mar 17 2025 15:12:59 GMT-0500 (Central Daylight Time),579876.0,CFD-WM-019-013-A.jpg,2000,dash,O,z,900,5,1,29108.30000001192,550767.6999999881,7085,ATS,A,11
8,test,3,C,mfborder.png,0,m,Mon Mar 17 2025 15:12:59 GMT-0500 (Central Daylight Time),582608.0,CFD-BM-029-026-HC.jpg,1200,dash,O,None,1516,6,1,31840.30000001192,550767.6999999881,7085,ATS,A,12
9,test,3,C,mfborder.png,1,m,Mon Mar 17 2025 15:12:59 GMT-0500 (Central Daylight Time),584307.6999999881,CFD-BM-029-026-HC.jpg,1200,dash,O,m,482,6,1,33540.0,550767.6999999881,7085,ATS,A,13
9,test,3,C,haborder.png,0,z,Mon Mar 17 2025 15:12:59 GMT-0500 (Central Daylight Time),587539.7999999821,CFD-BM-010-019-A.jpg,1700,solid,O,None,1516,9,1,36772.09999999404,550767.6999999881,7085,ATS,A,14
9,test,3,C,haborder.png,0,m,Mon Mar 17 2025 15:12:59 GMT-0500 (Central Daylight Time),590572.2999999821,CFD-WF-002-008-HC.jpg,1500,solid,O,None,1515,11,1,39804.59999999404,550767.6999999881,7085,ATS,A,15
10,test,3,C,haborder.png,1,m,Mon Mar 17 2025 15:12:59 GMT-0500 (Central Daylight Time),593321.5,CFD-WF-002-008-HC.jpg,1500,solid,O,m,1227,11,1,42553.80000001192,550767.6999999881,7085,ATS,A,16
11,test,3,C,haborder.png,1,z,Mon Mar 17 2025 15:12:59 GMT-0500 (Central Daylight Time),596720.599999994,CFD-BM-005-010-A.jpg,1900,solid,O,z,1356,8,1,45952.90000000596,550767.6999999881,7085,ATS,A,17
12,test,3,C,haborder.png,1,z,Mon Mar 17 2025 15:12:59 GMT-0500 (Central Daylight Time),599069.5,CFD-WM-013-015-A.jpg,1400,solid,O,z,931,7,1,48301.80000001192,550767.6999999881,7085,ATS,A,18
13,test,3,C,haborder.png,1,m,Mon Mar 17 2025 15:12:59 GMT-0500 (Central Daylight Time),601018.8999999762,CFD-WF-017-016-HC.jpg,1000,solid,O,m,916,12,1,50251.19999998808,550767.6999999881,7085,ATS,A,19
14,test,3,C,mfborder.png,1,z,Mon Mar 17 2025 15:12:59 GMT-0500 (Central Daylight Time),603484.6999999881,CFD-BF-023-013-A.jpg,1600,dash,O,z,848,2,1,52717.0,550767.6999999881,7085,ATS,A,20
15,test,3,C,mfborder.png,1,m,Mon Mar 17 2025 15:12:59 GMT-0500 (Central Daylight Time),606350.5,CFD-WM-019-013-A.jpg,2000,dash,O,m,846,5,1,55582.80000001192,550767.6999999881,7085,ATS,A,21
16,test,3,C,haborder.png,1,m,Mon Mar 17 2025 15:12:59 GMT-0500 (Central Daylight Time),609166.5,CFD-BF-028-020-HC.jpg,1600,solid,O,m,1197,10,1,58398.80000001192,550767.6999999881,7085,ATS,A,22
17,test,3,C,mfborder.png,1,z,Mon Mar 17 2025 15:12:59 GMT-0500 (Central Daylight Time),612032.5,CFD-BF-023-013-A.jpg,1600,dash,O,z,1237,2,1,61264.80000001192,550767.6999999881,7085,ATS,A,23
17,test,3,C,mfborder.png,0,z,Mon Mar 17 2025 15:12:59 GMT-0500 (Central Daylight Time),615264.5,CFD-BF-010-005-HC.jpg,1700,dash,O,None,1511,1,1,64496.80000001192,550767.6999999881,7085,ATS,A,24
1,test,4,C,haborder.png,1,z,Mon Mar 17 2025 15:12:59 GMT-0500 (Central Daylight Time),626244.2999999821,CFD-BF-039-039-A.jpg,1900,solid,O,z,1082,8,1,2999.0,623245.2999999821,7085,ATS,A,1
2,test,4,C,mfborder.png,1,m,Mon Mar 17 2025 15:12:59 GMT-0500 (Central Daylight Time),628360.5,CFD-WM-013-015-A.jpg,1200,dash,O,m,887,6,1,5115.200000017881,623245.2999999821,7085,ATS,A,2
3,test,4,C,mfborder.png,1,m,Mon Mar 17 2025 15:12:59 GMT-0500 (Central Daylight Time),630093.1999999881,CFD-BM-017-052-HC.jpg,1000,dash,O,m,707,4,1,6847.9000000059605,623245.2999999821,7085,ATS,A,3
4,test,4,C,haborder.png,1,z,Mon Mar 17 2025 15:12:59 GMT-0500 (Central Daylight Time),632559.0,CFD-BF-023-013-A.jpg,1400,solid,O,z,1046,7,1,9313.700000017881,623245.2999999821,7085,ATS,A,4
5,test,4,C,haborder.png,1,z,Mon Mar 17 2025 15:12:59 GMT-0500 (Central Daylight Time),635574.8999999762,CFD-BF-039-039-A.jpg,1900,solid,O,z,1092,8,1,12329.59999999404,623245.2999999821,7085,ATS,A,5
6,test,4,C,haborder.png,1,z,Mon Mar 17 2025 15:12:59 GMT-0500 (Central Daylight Time),638240.7999999821,CFD-WF-003-014-A.jpg,1700,solid,O,z,937,9,1,14995.5,623245.2999999821,7085,ATS,A,6
7,test,4,C,haborder.png,1,z,Mon Mar 17 2025 15:12:59 GMT-0500 (Central Daylight Time),640873.099999994,CFD-WF-003-014-A.jpg,1700,solid,O,z,903,9,1,17627.80000001192,623245.2999999821,7085,ATS,A,7
8,test,4,C,mfborder.png,1,m,Mon Mar 17 2025 15:12:59 GMT-0500 (Central Daylight Time),643505.8999999762,CFD-WM-013-015-A.jpg,1200,dash,O,m,1410,6,1,20260.59999999404,623245.2999999821,7085,ATS,A,8
9,test,4,C,mfborder.png,1,z,Mon Mar 17 2025 15:12:59 GMT-0500 (Central Daylight Time),645954.8999999762,CFD-WF-019-015-A.jpg,1600,dash,O,z,816,2,1,22709.59999999404,623245.2999999821,7085,ATS,A,9
10,test,4,C,mfborder.png,1,m,Mon Mar 17 2025 15:12:59 GMT-0500 (Central Daylight Time),647604.599999994,CFD-BM-017-052-HC.jpg,1000,dash,O,m,624,4,1,24359.30000001192,623245.2999999821,7085,ATS,A,10
11,test,4,C,haborder.png,1,m,Mon Mar 17 2025 15:12:59 GMT-0500 (Central Daylight Time),650070.0,CFD-WM-004-005-HC.jpg,1500,solid,O,m,947,11,1,26824.70000001788,623245.2999999821,7085,ATS,A,11
12,test,4,C,haborder.png,1,m,Mon Mar 17 2025 15:12:59 GMT-0500 (Central Daylight Time),651753.0,CFD-WM-004-005-HC.jpg,1000,solid,O,m,661,12,1,28507.70000001788,623245.2999999821,7085,ATS,A,12
13,test,4,C,haborder.png,1,z,Mon Mar 17 2025 15:12:59 GMT-0500 (Central Daylight Time),654068.7999999821,CFD-BF-023-013-A.jpg,1400,solid,O,z,898,7,1,30823.5,623245.2999999821,7085,ATS,A,13
14,test,4,C,haborder.png,1,m,Mon Mar 17 2025 15:12:59 GMT-0500 (Central Daylight Time),656485.1999999881,CFD-BM-029-026-HC.jpg,1600,solid,O,m,790,10,1,33239.90000000596,623245.2999999821,7085,ATS,A,14
14,test,4,C,mfborder.png,0,m,Mon Mar 17 2025 15:12:59 GMT-0500 (Central Daylight Time),659733.8999999762,CFD-BM-005-010-A.jpg,2000,dash,O,z,1230,5,1,36488.59999999404,623245.2999999821,7085,ATS,A,15
15,test,4,C,mfborder.png,1,m,Mon Mar 17 2025 15:12:59 GMT-0500 (Central Daylight Time),662349.6999999881,CFD-BM-005-010-A.jpg,2000,dash,O,m,589,5,1,39104.40000000596,623245.2999999821,7085,ATS,A,16
16,test,4,C,mfborder.png,1,z,Mon Mar 17 2025 15:12:59 GMT-0500 (Central Daylight Time),664515.7999999821,CFD-BF-028-020-HC.jpg,1500,dash,O,z,641,3,1,41270.5,623245.2999999821,7085,ATS,A,17
17,test,4,C,haborder.png,1,m,Mon Mar 17 2025 15:12:59 GMT-0500 (Central Daylight Time),666331.599999994,CFD-WM-004-005-HC.jpg,1000,solid,O,m,790,12,1,43086.30000001192,623245.2999999821,7085,ATS,A,18
18,test,4,C,haborder.png,1,m,Mon Mar 17 2025 15:12:59 GMT-0500 (Central Daylight Time),668747.6999999881,CFD-WM-004-005-HC.jpg,1500,solid,O,m,884,11,1,45502.40000000596,623245.2999999821,7085,ATS,A,19
19,test,4,C,mfborder.png,1,z,Mon Mar 17 2025 15:12:59 GMT-0500 (Central Daylight Time),671280.5,CFD-WF-017-016-HC.jpg,1700,dash,O,z,810,1,1,48035.20000001788,623245.2999999821,7085,ATS,A,20
20,test,4,C,haborder.png,1,m,Mon Mar 17 2025 15:12:59 GMT-0500 (Central Daylight Time),673746.2999999821,CFD-BM-029-026-HC.jpg,1600,solid,O,m,843,10,1,50501.0,623245.2999999821,7085,ATS,A,21
21,test,4,C,mfborder.png,1,z,Mon Mar 17 2025 15:12:59 GMT-0500 (Central Daylight Time),676211.8999999762,CFD-WF-019-015-A.jpg,1600,dash,O,z,848,2,1,52966.59999999404,623245.2999999821,7085,ATS,A,22
22,test,4,C,mfborder.png,1,z,Mon Mar 17 2025 15:12:59 GMT-0500 (Central Daylight Time),679261.099999994,CFD-WF-017-016-HC.jpg,1700,dash,O,z,1323,1,1,56015.80000001192,623245.2999999821,7085,ATS,A,23
23,test,4,C,mfborder.png,1,z,Mon Mar 17 2025 15:12:59 GMT-0500 (Central Daylight Time),681528.2999999821,CFD-BF-028-020-HC.jpg,1500,dash,O,z,746,3,1,58283.0,623245.2999999821,7085,ATS,A,24
