acc_sum,block_c,block_dur,condition,correct,correct_response,countdown,datetime,endtime,project,response,response_time,response_time_test1_response,response_time_test2_response,row_sel,same,session_number,start_end,starttime,stim1,stim2,subject_id,task,task_vers,time_test1,time_test2,trial
0,1,0.0,prac,0,m,30000.0,Thu Oct 24 2024 13:53:27 GMT-0500 (Central Daylight Time),35574.69999998808,O,z,1525,,,3,no,1,3059.5,32515.19999998808,QHZXPC,QHZWPC,7026,LC,B,,,1
1,1,0.0,prac,1,z,30000.0,Thu Oct 24 2024 13:53:27 GMT-0500 (Central Daylight Time),38957.60000002384,O,z,1833,,,2,yes,1,3358.2000000476837,35599.39999997616,NBGFSM,NBGFSM,7026,LC,B,,,2
2,1,0.0,prac,1,z,30000.0,Thu Oct 24 2024 13:53:27 GMT-0500 (Central Daylight Time),41689.89999997616,O,z,1186,,,4,yes,1,2713.199999988079,38976.69999998808,RSM,RSM,7026,LC,B,,,3
3,1,0.0,prac,1,z,30000.0,Thu Oct 24 2024 13:53:27 GMT-0500 (Central Daylight Time),46221.19999998808,O,z,2993,,,6,yes,1,4513.800000011921,41707.39999997616,CSDBFPHXZ,CSDBFPHXZ,7026,LC,B,,,4
4,1,0.0,prac,1,m,30000.0,Thu Oct 24 2024 13:53:27 GMT-0500 (Central Daylight Time),48786.89999997616,O,m,1015,,,1,no,1,2544.0,46242.89999997616,RNV,FNV,7026,LC,B,,,5
5,1,0.0,prac,1,m,30000.0,Thu Oct 24 2024 13:53:27 GMT-0500 (Central Daylight Time),52835.69999998808,O,m,2504,,,5,no,1,4026.800000011921,48808.89999997616,LNDPRSKQB,LNDPRSJQB,7026,LC,B,,,6
1,1,0.8830001354217529,test,1,m,29116.999864578247,Thu Oct 24 2024 13:53:27 GMT-0500 (Central Daylight Time),62533.0,O,m,858,858,,1,no,1,868.3999999761581,61664.60000002384,HCF,RCF,7026,LC,B,56637,,1
1,1,3.0990002155303955,test,0,m,26900.999784469604,Thu Oct 24 2024 13:53:27 GMT-0500 (Central Daylight Time),64749.0,O,z,2180,2180,,2,no,1,2199.800000011921,62549.19999998808,QTPRJX,QTPNJX,7026,LC,B,57523,,2
2,1,5.698000192642212,test,1,m,24301.999807357788,Thu Oct 24 2024 13:53:27 GMT-0500 (Central Daylight Time),67347.5,O,m,2565,2565,,3,no,1,2583.0,64764.5,MZDYGVGKQ,MZDYGLBKQ,7026,LC,B,59739,,3
3,1,6.781000137329102,test,1,m,23218.9998626709,Thu Oct 24 2024 13:53:27 GMT-0500 (Central Daylight Time),68430.69999998808,O,m,1053,1053,,4,no,1,1066.8999999761581,67363.80000001192,FQTNMK,JQTNMK,7026,LC,B,62338,,4
4,1,7.8470001220703125,test,1,z,22152.999877929688,Thu Oct 24 2024 13:53:27 GMT-0500 (Central Daylight Time),69496.89999997616,O,z,1044,1044,,5,yes,1,1051.0999999642372,68445.80000001192,CLJ,CLJ,7026,LC,B,63419,,5
5,1,9.213000059127808,test,1,m,20786.999940872192,Thu Oct 24 2024 13:53:27 GMT-0500 (Central Daylight Time),70862.60000002384,O,m,1345,1345,,6,no,1,1350.9000000357628,69511.69999998808,JGDMNSVPW,JGZMNSVPW,7026,LC,B,64485,,6
5,1,11.546000003814697,test,0,z,18453.999996185303,Thu Oct 24 2024 13:53:27 GMT-0500 (Central Daylight Time),73195.69999998808,O,m,2319,2319,,7,yes,1,2327.5,70868.19999998808,FPTVHKCBJ,FPTVHKCBJ,7026,LC,B,65840,,7
6,1,12.84600019454956,test,1,m,17153.99980545044,Thu Oct 24 2024 13:53:27 GMT-0500 (Central Daylight Time),74495.39999997616,O,m,1279,1279,,8,no,1,1284.7999999523163,73210.60000002384,XRPZBS,ZRPBDH,7026,LC,B,68184,,8
7,1,13.828999996185303,test,1,m,16171.000003814697,Thu Oct 24 2024 13:53:27 GMT-0500 (Central Daylight Time),75478.39999997616,O,m,956,956,,9,no,1,968.5,74509.89999997616,ZSQ,ZSP,7026,LC,B,69483,,9
8,1,15.645000219345093,test,1,z,14354.999780654907,Thu Oct 24 2024 13:53:27 GMT-0500 (Central Daylight Time),77294.39999997616,O,z,1789,1789,,10,yes,1,1801.199999988079,75493.19999998808,MPZRXL,MPZRXL,7026,LC,B,70466,,10
9,1,16.6780002117157,test,1,m,13321.999788284302,Thu Oct 24 2024 13:53:27 GMT-0500 (Central Daylight Time),78327.39999997616,O,m,1005,1005,,11,no,1,1017.5999999642372,77309.80000001192,KJH,KRH,7026,LC,B,72283,,11
10,1,19.259999990463257,test,1,z,10740.000009536743,Thu Oct 24 2024 13:53:27 GMT-0500 (Central Daylight Time),80909.5,O,z,2564,2564,,12,yes,1,2567.399999976158,78342.10000002384,SMNHVTFCB,SMNHVTFCB,7026,LC,B,73315,,12
11,1,20.843000173568726,test,1,z,9156.999826431274,Thu Oct 24 2024 13:53:27 GMT-0500 (Central Daylight Time),82492.60000002384,O,z,1558,1558,,13,yes,1,1568.800000011921,80923.80000001192,KJWTQF,KJWTQF,7026,LC,B,75897,,13
12,1,24.009000062942505,test,1,z,5990.999937057495,Thu Oct 24 2024 13:53:27 GMT-0500 (Central Daylight Time),85658.30000001192,O,z,3142,3142,,14,yes,1,3150.800000011921,82507.5,CHDKQGLMB,CHDKQGLMB,7026,LC,B,77481,,14
13,1,25.009000062942505,test,1,z,4990.999937057495,Thu Oct 24 2024 13:53:27 GMT-0500 (Central Daylight Time),86658.0,O,z,969,969,,15,yes,1,984.5,85673.5,GHQ,GHQ,7026,LC,B,80646,,15
14,1,26.308000087738037,test,1,z,3691.999912261963,Thu Oct 24 2024 13:53:27 GMT-0500 (Central Daylight Time),87957.39999997616,O,z,1281,1281,,16,yes,1,1284.2999999523163,86673.10000002384,GFVMRH,GFVMRH,7026,LC,B,81646,,16
15,1,27.308000087738037,test,1,z,2691.999912261963,Thu Oct 24 2024 13:53:27 GMT-0500 (Central Daylight Time),88957.5,O,z,984,984,,17,yes,1,985.5,87972.0,RSM,RSM,7026,LC,B,82944,,17
15,1,30.02400016784668,test,0,m,-24.000167846679688,Thu Oct 24 2024 13:53:27 GMT-0500 (Central Daylight Time),91673.0,O,None,2696,2696,,18,no,1,2699.5,88973.5,BSRJTRMLG,BSFJTRMLG,7026,LC,B,83947,,18
1,2,2.1999998092651367,test,1,z,27800.000190734863,Thu Oct 24 2024 13:53:27 GMT-0500 (Central Daylight Time),98221.0,O,z,2183,,2183.0,1,yes,1,9247.5,88973.5,PRDBZTYFN,PRDBZTYFN,7026,LC,B,,91008.0,1
2,2,3.4159998893737793,test,1,m,26584.00011062622,Thu Oct 24 2024 13:53:27 GMT-0500 (Central Daylight Time),99437.39999997616,O,m,1201,,1201.0,2,no,1,10463.899999976158,88973.5,NCWJDZ,NCMJDZ,7026,LC,B,,93207.0,2
3,2,4.431999921798706,test,1,m,25568.000078201294,Thu Oct 24 2024 13:53:27 GMT-0500 (Central Daylight Time),100453.39999997616,O,m,999,,999.0,3,no,1,11479.899999976158,88973.5,KHW,KBW,7026,LC,B,,94424.0,3
4,2,5.747999906539917,test,1,m,24252.000093460083,Thu Oct 24 2024 13:53:27 GMT-0500 (Central Daylight Time),101769.10000002384,O,m,1286,,1286.0,4,no,1,12795.600000023842,88973.5,ZRBGMF,ZRBCMF,7026,LC,B,,95440.0,4
5,2,6.7809998989105225,test,1,m,23219.000101089478,Thu Oct 24 2024 13:53:27 GMT-0500 (Central Daylight Time),102802.89999997616,O,m,1018,,1018.0,5,no,1,13829.399999976158,88973.5,BTH,BYH,7026,LC,B,,96749.0,5
6,2,9.013999938964844,test,1,z,20986.000061035156,Thu Oct 24 2024 13:53:27 GMT-0500 (Central Daylight Time),105035.10000002384,O,z,2209,,2209.0,6,yes,1,16061.600000023842,88973.5,XWKQRYCNZ,XWKQRYCNZ,7026,LC,B,,97789.0,6
7,2,11.02999997138977,test,1,z,18970.00002861023,Thu Oct 24 2024 13:53:27 GMT-0500 (Central Daylight Time),107051.39999997616,O,z,1992,,1992.0,7,yes,1,18077.899999976158,88973.5,HNPDLK,HNPDLK,7026,LC,B,,100023.0,7
8,2,12.69599986076355,test,1,m,17304.00013923645,Thu Oct 24 2024 13:53:27 GMT-0500 (Central Daylight Time),108717.39999997616,O,m,1640,,1640.0,8,no,1,19743.899999976158,88973.5,WMQTRSGLZ,WMQTRZGLZ,7026,LC,B,,102039.0,8
9,2,13.77899980545044,test,1,z,16221.00019454956,Thu Oct 24 2024 13:53:27 GMT-0500 (Central Daylight Time),109800.30000001192,O,z,1063,,1063.0,9,yes,1,20826.80000001192,88973.5,JPN,JPN,7026,LC,B,,103705.0,9
10,2,15.044999837875366,test,1,m,14955.000162124634,Thu Oct 24 2024 13:53:27 GMT-0500 (Central Daylight Time),111066.60000002384,O,m,1235,,1235.0,10,no,1,22093.100000023842,88973.5,QLXSVT,QLNSVT,7026,LC,B,,104788.0,10
10,2,17.193999767303467,test,0,z,12806.000232696533,Thu Oct 24 2024 13:53:27 GMT-0500 (Central Daylight Time),113215.80000001192,O,m,2131,,2131.0,11,yes,1,24242.30000001192,88973.5,YXHKZVFPB,YXHKZVFPD,7026,LC,B,,106052.0,11
11,2,18.126999855041504,test,1,z,11873.000144958496,Thu Oct 24 2024 13:53:27 GMT-0500 (Central Daylight Time),114147.80000001192,O,z,908,,908.0,12,yes,1,25174.30000001192,88973.5,RJZ,RJZ,7026,LC,B,,108201.0,12
12,2,19.525999784469604,test,1,z,10474.000215530396,Thu Oct 24 2024 13:53:27 GMT-0500 (Central Daylight Time),115547.60000002384,O,z,1395,,1395.0,13,yes,1,26574.100000023842,88973.5,CLNPZD,CLNPZD,7026,LC,B,,109123.0,13
13,2,21.07699990272522,test,1,m,8923.00009727478,Thu Oct 24 2024 13:53:27 GMT-0500 (Central Daylight Time),117097.89999997616,O,m,1532,,1532.0,14,no,1,28124.399999976158,88973.5,DCBPFHXYJ,DCBPFHLYJ,7026,LC,B,,110523.0,14
14,2,22.025999784469604,test,1,m,7974.0002155303955,Thu Oct 24 2024 13:53:27 GMT-0500 (Central Daylight Time),118047.60000002384,O,m,931,,931.0,15,no,1,29074.100000023842,88973.5,MWR,ZWR,7026,LC,B,,112084.0,15
15,2,23.80899977684021,test,1,z,6191.00022315979,Thu Oct 24 2024 13:53:27 GMT-0500 (Central Daylight Time),119829.89999997616,O,z,1757,,1757.0,16,yes,1,30856.399999976158,88973.5,LPKXZW,LPKXZW,7026,LC,B,,113034.0,16
16,2,24.625999927520752,test,1,m,5374.000072479248,Thu Oct 24 2024 13:53:27 GMT-0500 (Central Daylight Time),120646.80000001192,O,m,805,,805.0,17,no,1,31673.30000001192,88973.5,TZL,TZQ,7026,LC,B,,114810.0,17
16,2,25.775999784469604,test,0,z,4224.0002155303955,Thu Oct 24 2024 13:53:27 GMT-0500 (Central Daylight Time),121796.39999997616,O,m,1117,,1117.0,18,yes,1,32822.89999997616,88973.5,CSDBFPHXZ,CSDBFPHXZ,7026,LC,B,,115634.0,18
17,2,26.89199995994568,test,1,m,3108.0000400543213,Thu Oct 24 2024 13:53:27 GMT-0500 (Central Daylight Time),122912.69999998808,O,m,1097,,1097.0,19,no,1,33939.19999998808,88973.5,QHZXPC,QHZWPC,7026,LC,B,,116782.0,19
18,2,27.674999952316284,test,1,z,2325.000047683716,Thu Oct 24 2024 13:53:27 GMT-0500 (Central Daylight Time),123695.80000001192,O,z,757,,757.0,20,yes,1,34722.30000001192,88973.5,GZN,GZN,7026,LC,B,,117898.0,20
19,2,29.840999841690063,test,1,m,159.00015830993652,Thu Oct 24 2024 13:53:27 GMT-0500 (Central Daylight Time),125861.39999997616,O,m,2149,,2149.0,21,no,1,36887.89999997616,88973.5,JNWXHPFBD,JNWXHPFMD,7026,LC,B,,118682.0,21
