acc_sum,block,block_c,condition,correct,correct_response,datetime,endtime,flanker,jitter,project,response,response_test_buffer_response,response_test_target_response,response_time,response_time_test_buffer_response,response_time_test_target_response,row_sel,session_number,start_end,starttime,subject_id,target,task,task_vers,time_test_buffer,time_test_buffer_response,time_test_constants,time_test_flanker,time_test_jitter,time_test_logger,time_test_target,time_test_target_response,time_test_variables,trial
0,prac,1,inc,0,m,Mon Jan 27 2025 17:02:41 GMT-0600 (Central Standard Time),105390.90000000037,pear,900,I,None,,,1799,,,14,1,4960.5,100430.40000000037,7041,iron,NF,C,,,,,,,,,,1
0,prac,1,inc,0,z,Mon Jan 27 2025 17:02:41 GMT-0600 (Central Standard Time),110356.29999999888,copper,900,I,None,,,1799,,,2,1,4959.89999999851,105396.40000000037,7041,cherry,NF,C,,,,,,,,,,2
1,prac,1,inc,1,m,Mon Jan 27 2025 17:02:41 GMT-0600 (Central Standard Time),113755.40000000037,plum,1100,I,m,,,996,,,16,1,3394.60000000149,110360.79999999888,7041,lead,NF,C,,,,,,,,,,3
2,prac,1,con,1,z,Mon Jan 27 2025 17:02:41 GMT-0600 (Central Standard Time),116504.29999999888,lime,800,I,z,,,633,,,5,1,2743.89999999851,113760.40000000037,7041,lime,NF,C,,,,,,,,,,4
2,prac,1,con,0,z,Mon Jan 27 2025 17:02:41 GMT-0600 (Central Standard Time),119353.40000000037,orange,1000,I,m,,,547,,,3,1,2844.4000000003725,116509.0,7041,orange,NF,C,,,,,,,,,,5
3,prac,1,con,1,m,Mon Jan 27 2025 17:02:41 GMT-0600 (Central Standard Time),122670.19999999925,zinc,1000,I,m,,,1012,,,15,1,3312.5,119357.69999999925,7041,zinc,NF,C,,,,,,,,,,6
4,prac,1,inc,1,m,Mon Jan 27 2025 17:02:41 GMT-0600 (Central Standard Time),125634.90000000037,cherry,900,I,m,,,755,,,10,1,2960.300000000745,122674.59999999963,7041,copper,NF,C,,,,,,,,,,7
5,prac,1,con,1,m,Mon Jan 27 2025 17:02:41 GMT-0600 (Central Standard Time),128417.5,bronze,800,I,m,,,665,,,9,1,2778.5999999996275,125638.90000000037,7041,bronze,NF,C,,,,,,,,,,8
6,prac,1,inc,1,z,Mon Jan 27 2025 17:02:41 GMT-0600 (Central Standard Time),131449.59999999963,lead,1100,I,z,,,623,,,8,1,3027.9000000003725,128421.69999999925,7041,plum,NF,C,,,,,,,,,,9
7,prac,1,inc,1,m,Mon Jan 27 2025 17:02:41 GMT-0600 (Central Standard Time),134681.69999999925,raisin,1100,I,m,,,830,,,12,1,3227.9000000003725,131453.79999999888,7041,cobalt,NF,C,,,,,,,,,,10
8,prac,1,inc,1,z,Mon Jan 27 2025 17:02:41 GMT-0600 (Central Standard Time),137481.19999999925,iron,900,I,z,,,582,,,6,1,2794.0,134687.19999999925,7041,pear,NF,C,,,,,,,,,,11
9,prac,1,con,1,z,Mon Jan 27 2025 17:02:41 GMT-0600 (Central Standard Time),140629.90000000037,kiwi,1000,I,z,,,843,,,7,1,3144.800000000745,137485.09999999963,7041,kiwi,NF,C,,,,,,,,,,12
10,prac,1,con,1,m,Mon Jan 27 2025 17:02:41 GMT-0600 (Central Standard Time),143347.69999999925,gold,800,I,m,,,615,,,13,1,2713.5,140634.19999999925,7041,gold,NF,C,,,,,,,,,,13
11,prac,1,inc,1,z,Mon Jan 27 2025 17:02:41 GMT-0600 (Central Standard Time),146495.09999999963,cobalt,1100,I,z,,,742,,,4,1,3143.300000000745,143351.79999999888,7041,raisin,NF,C,,,,,,,,,,14
12,prac,1,con,1,m,Mon Jan 27 2025 17:02:41 GMT-0600 (Central Standard Time),149510.69999999925,silver,1000,I,m,,,709,,,11,1,3010.7999999988824,146499.90000000037,7041,silver,NF,C,,,,,,,,,,15
13,prac,1,con,1,z,Mon Jan 27 2025 17:02:41 GMT-0600 (Central Standard Time),152859.90000000037,banana,800,I,z,,,1244,,,1,1,3344.300000000745,149515.59999999963,7041,banana,NF,C,,,,,,,,,,16
1,test,1,con,1,z,Mon Jan 27 2025 17:02:41 GMT-0600 (Central Standard Time),166771.79999999888,raisin,800,I,z,z,None,672,473.0,199.0,25,1,2012.5,164759.29999999888,7041,raisin,NF,C,159637,159637,158107,158921,158109,160120,159438,159438,160120,1
2,test,1,inc,1,z,Mon Jan 27 2025 17:02:41 GMT-0600 (Central Standard Time),168971.0,lead,1100,I,z,z,None,580,366.0,214.0,64,1,2194.5,166776.5,7041,plum,NF,C,161953,161953,160125,161237,160126,162319,161739,161739,162319,2
3,test,1,inc,1,m,Mon Jan 27 2025 17:02:41 GMT-0600 (Central Standard Time),170803.59999999963,lime,800,I,m,m,None,498,299.0,199.0,101,1,1828.300000000745,168975.29999999888,7041,gold,NF,C,163852,163852,162323,163136,162325,164152,163653,163653,164152,3
4,test,1,inc,1,z,Mon Jan 27 2025 17:02:41 GMT-0600 (Central Standard Time),172836.59999999963,iron,900,I,z,z,None,594,379.0,215.0,46,1,2028.800000000745,170807.79999999888,7041,pear,NF,C,165803,165803,164156,165069,164157,166185,165587,165587,166185,4
5,test,1,inc,1,m,Mon Jan 27 2025 17:02:41 GMT-0600 (Central Standard Time),174736.0,banana,800,I,m,m,None,559,344.0,215.0,93,1,1895.0999999996275,172840.90000000037,7041,cobalt,NF,C,167734,167734,166189,167002,166190,168084,167519,167519,168084,5
6,test,1,con,1,m,Mon Jan 27 2025 17:02:41 GMT-0600 (Central Standard Time),176868.59999999963,bronze,1000,I,m,m,None,597,397.0,200.0,67,1,2128.800000000745,174739.79999999888,7041,bronze,NF,C,169818,169818,168088,169100,168089,170217,169618,169618,170217,6
7,test,1,inc,1,z,Mon Jan 27 2025 17:02:41 GMT-0600 (Central Standard Time),179018.0,silver,1000,I,z,z,None,599,400.0,199.0,15,1,2145.300000000745,176872.69999999925,7041,cherry,NF,C,171950,171950,170221,171234,170222,172366,171751,171751,172366,7
8,test,1,con,1,m,Mon Jan 27 2025 17:02:41 GMT-0600 (Central Standard Time),181100.59999999963,silver,900,I,m,m,None,638,439.0,199.0,82,1,2078.4000000003725,179022.19999999925,7041,silver,NF,C,173999,173999,172370,173284,172372,174449,173800,173800,174449,8
9,test,1,inc,1,z,Mon Jan 27 2025 17:02:41 GMT-0600 (Central Standard Time),183316.5,lead,1100,I,z,z,None,579,380.0,199.0,48,1,2211.0999999996275,181105.40000000037,7041,pear,NF,C,176282,176282,174453,175566,174455,176665,176083,176083,176665,9
10,test,1,inc,1,z,Mon Jan 27 2025 17:02:41 GMT-0600 (Central Standard Time),185282.69999999925,bronze,800,I,z,z,None,631,432.0,199.0,13,1,1962.0999999996275,183320.59999999963,7041,cherry,NF,C,178198,178198,176669,177482,176670,178631,177999,177999,178631,10
11,test,1,inc,1,z,Mon Jan 27 2025 17:02:41 GMT-0600 (Central Standard Time),187298.5,iron,900,I,z,z,None,572,357.0,215.0,38,1,2011.4000000003725,185287.09999999963,7041,lime,NF,C,180281,180281,178635,179548,178636,180647,180065,180065,180647,11
12,test,1,inc,1,z,Mon Jan 27 2025 17:02:41 GMT-0600 (Central Standard Time),189248.09999999963,gold,800,I,z,z,None,609,394.0,215.0,45,1,1944.5999999996275,187303.5,7041,pear,NF,C,182197,182197,180652,181464,180653,182596,181981,181981,182596,12
13,test,1,con,1,z,Mon Jan 27 2025 17:02:41 GMT-0600 (Central Standard Time),191197.29999999888,kiwi,800,I,z,z,None,612,413.0,199.0,49,1,1945.0999999996275,189252.19999999925,7041,kiwi,NF,C,184129,184129,182600,183414,182602,184545,183930,183930,184545,13
14,test,1,inc,1,z,Mon Jan 27 2025 17:02:41 GMT-0600 (Central Standard Time),193214.69999999925,gold,800,I,z,z,None,677,462.0,215.0,61,1,2013.0,191201.69999999925,7041,plum,NF,C,186095,186096,184550,185363,184551,186563,185880,185880,186563,14
15,test,1,con,1,z,Mon Jan 27 2025 17:02:41 GMT-0600 (Central Standard Time),195180.59999999963,orange,800,I,z,z,None,631,416.0,215.0,17,1,1961.800000000745,193218.79999999888,7041,orange,NF,C,188111,188111,186567,187379,186568,188529,187896,187896,188529,15
16,test,1,con,1,m,Mon Jan 27 2025 17:02:41 GMT-0600 (Central Standard Time),197195.5,lead,900,I,m,m,None,573,374.0,199.0,122,1,2010.9000000003725,195184.59999999963,7041,lead,NF,C,190161,190161,188533,189446,188534,190544,189962,189962,190544,16
17,test,1,con,1,m,Mon Jan 27 2025 17:02:41 GMT-0600 (Central Standard Time),199145.0,lead,800,I,m,m,None,607,408.0,199.0,121,1,1945.4000000003725,197199.59999999963,7041,lead,NF,C,192078,192078,190548,191361,190549,192493,191878,191878,192493,17
18,test,1,inc,1,m,Mon Jan 27 2025 17:02:41 GMT-0600 (Central Standard Time),201127.59999999963,pear,900,I,m,m,None,533,319.0,214.0,126,1,1978.199999999255,199149.40000000037,7041,lead,NF,C,194143,194143,192497,193410,192499,194476,193927,193928,194476,18
19,test,1,con,1,m,Mon Jan 27 2025 17:02:41 GMT-0600 (Central Standard Time),203010.5,copper,800,I,m,m,None,540,341.0,199.0,73,1,1879.0999999996275,201131.40000000037,7041,copper,NF,C,196009,196009,194479,195293,194481,196359,195810,195810,196358,19
20,test,1,con,1,m,Mon Jan 27 2025 17:02:41 GMT-0600 (Central Standard Time),205126.40000000037,cobalt,1000,I,m,m,None,569,354.0,215.0,91,1,2112.2000000011176,203014.19999999925,7041,cobalt,NF,C,198108,198108,196362,197376,196364,198475,197893,197893,198474,20
21,test,1,con,1,m,Mon Jan 27 2025 17:02:41 GMT-0600 (Central Standard Time),207225.79999999888,gold,900,I,m,m,None,658,443.0,215.0,98,1,2095.0999999996275,205130.69999999925,7041,gold,NF,C,200124,200124,198479,199392,198480,200574,199909,199909,200574,21
22,test,1,inc,1,m,Mon Jan 27 2025 17:02:41 GMT-0600 (Central Standard Time),209524.90000000037,raisin,1100,I,m,m,None,663,464.0,199.0,96,1,2293.60000000149,207231.29999999888,7041,cobalt,NF,C,202407,202407,200579,201691,200581,202873,202208,202208,202873,22
23,test,1,inc,1,m,Mon Jan 27 2025 17:02:41 GMT-0600 (Central Standard Time),211607.79999999888,orange,1000,I,m,m,None,544,345.0,199.0,95,1,2079.2999999988824,209528.5,7041,cobalt,NF,C,204606,204606,202877,203890,202878,204956,204407,204407,204956,23
24,test,1,con,1,z,Mon Jan 27 2025 17:02:41 GMT-0600 (Central Standard Time),213690.69999999925,lime,900,I,z,z,None,641,442.0,199.0,34,1,2078.2999999988824,211612.40000000037,7041,lime,NF,C,206589,206589,204960,205873,204962,207039,206390,206390,207039,24
25,test,1,inc,1,m,Mon Jan 27 2025 17:02:41 GMT-0600 (Central Standard Time),215823.19999999925,pear,900,I,m,m,None,694,479.0,215.0,118,1,2128.5999999996275,213694.59999999963,7041,zinc,NF,C,208688,208688,207043,207956,207044,209171,208473,208473,209171,25
26,test,1,con,1,z,Mon Jan 27 2025 17:02:41 GMT-0600 (Central Standard Time),218089.09999999963,lime,1100,I,z,z,None,626,427.0,199.0,36,1,2261.9000000003725,215827.19999999925,7041,lime,NF,C,211004,211004,209175,210289,209177,211437,210805,210805,211437,26
27,test,1,inc,1,z,Mon Jan 27 2025 17:02:41 GMT-0600 (Central Standard Time),220055.19999999925,bronze,800,I,z,z,None,627,428.0,199.0,21,1,1962.199999999255,218093.0,7041,orange,NF,C,212970,212970,211441,212255,211442,213403,212771,212771,213403,27
28,test,1,inc,1,m,Mon Jan 27 2025 17:02:41 GMT-0600 (Central Standard Time),222221.09999999963,kiwi,1000,I,m,m,None,622,423.0,199.0,127,1,2161.800000000745,220059.29999999888,7041,lead,NF,C,215136,215136,213407,214421,213409,215569,214937,214937,215569,28
29,test,1,con,1,m,Mon Jan 27 2025 17:02:41 GMT-0600 (Central Standard Time),224387.09999999963,gold,1100,I,m,m,None,516,317.0,199.0,100,1,2161.699999999255,222225.40000000037,7041,gold,NF,C,217402,217402,215573,216686,215575,217735,217203,217203,217735,29
30,test,1,inc,1,z,Mon Jan 27 2025 17:02:41 GMT-0600 (Central Standard Time),226553.09999999963,zinc,1000,I,z,z,None,617,418.0,199.0,55,1,2162.300000000745,224390.79999999888,7041,kiwi,NF,C,219468,219468,217739,218753,217740,219901,219269,219269,219901,30
31,test,1,con,1,z,Mon Jan 27 2025 17:02:41 GMT-0600 (Central Standard Time),228952.09999999963,plum,900,I,z,z,None,951,752.0,199.0,58,1,2395.4000000003725,226556.69999999925,7041,plum,NF,C,221534,221534,219905,220819,219906,222300,221335,221335,222300,31
32,test,1,con,1,m,Mon Jan 27 2025 17:02:41 GMT-0600 (Central Standard Time),230902.09999999963,copper,900,I,m,m,None,504,305.0,199.0,74,1,1945.800000000745,228956.29999999888,7041,copper,NF,C,223933,223933,222304,223218,222306,224250,223734,223734,224250,32
33,test,1,con,1,z,Mon Jan 27 2025 17:02:41 GMT-0600 (Central Standard Time),233067.69999999925,orange,1000,I,z,z,None,629,414.0,215.0,19,1,2161.5999999996275,230906.09999999963,7041,orange,NF,C,226000,226000,224254,225267,224255,226416,225784,225784,226416,33
34,test,1,con,1,m,Mon Jan 27 2025 17:02:41 GMT-0600 (Central Standard Time),235250.5,zinc,1100,I,m,m,None,548,349.0,199.0,116,1,2179.0,233071.5,7041,zinc,NF,C,228249,228249,226420,227533,226421,228599,228050,228050,228599,34
35,test,1,inc,1,z,Mon Jan 27 2025 17:02:41 GMT-0600 (Central Standard Time),237466.40000000037,cobalt,1100,I,z,z,None,565,350.0,215.0,32,1,2212.2000000011176,235254.19999999925,7041,raisin,NF,C,230448,230448,228602,229716,228604,230814,230232,230233,230814,35
36,test,1,con,1,m,Mon Jan 27 2025 17:02:41 GMT-0600 (Central Standard Time),239649.0,bronze,900,I,m,m,None,733,518.0,215.0,66,1,2178.9000000003725,237470.09999999963,7041,bronze,NF,C,232464,232464,230818,231732,230820,232997,232249,232249,232997,36
37,test,1,con,1,z,Mon Jan 27 2025 17:02:41 GMT-0600 (Central Standard Time),241565.0,cherry,900,I,z,z,None,480,281.0,199.0,10,1,1912.300000000745,239652.69999999925,7041,cherry,NF,C,234630,234630,233001,233914,233002,234913,234431,234431,234913,37
38,test,1,con,1,m,Mon Jan 27 2025 17:02:41 GMT-0600 (Central Standard Time),243447.79999999888,bronze,800,I,m,m,None,535,336.0,199.0,65,1,1878.7999999988824,241569.0,7041,bronze,NF,C,236446,236446,234917,235730,234918,236796,236247,236247,236796,38
39,test,1,con,1,z,Mon Jan 27 2025 17:02:41 GMT-0600 (Central Standard Time),245530.59999999963,banana,900,I,z,z,None,633,434.0,199.0,2,1,2079.0,243451.59999999963,7041,banana,NF,C,238429,238429,236800,237713,236801,238879,238230,238230,238879,39
40,test,1,inc,1,z,Mon Jan 27 2025 17:02:41 GMT-0600 (Central Standard Time),248129.79999999888,lead,1100,I,z,z,None,949,749.0,200.0,56,1,2594.89999999851,245534.90000000037,7041,kiwi,NF,C,240713,240713,238883,239996,238884,241478,240512,240512,241478,40
41,test,1,con,1,z,Mon Jan 27 2025 17:02:41 GMT-0600 (Central Standard Time),250062.40000000037,pear,800,I,z,z,None,586,387.0,199.0,41,1,1928.9000000003725,248133.5,7041,pear,NF,C,243011,243011,241482,242295,241483,243411,242812,242812,243410,41
42,test,1,con,1,z,Mon Jan 27 2025 17:02:41 GMT-0600 (Central Standard Time),252245.0,cherry,1000,I,z,z,None,638,423.0,215.0,11,1,2178.7000000011176,250066.29999999888,7041,cherry,NF,C,245160,245160,243414,244428,243416,245593,244945,244945,245593,42
43,test,1,inc,1,m,Mon Jan 27 2025 17:02:41 GMT-0600 (Central Standard Time),254461.0,raisin,1100,I,m,m,None,572,373.0,199.0,88,1,2212.0999999996275,252248.90000000037,7041,silver,NF,C,247426,247426,245597,246710,245598,247809,247227,247227,247809,43
44,test,1,inc,1,z,Mon Jan 27 2025 17:02:41 GMT-0600 (Central Standard Time),256477.09999999963,copper,900,I,z,z,None,569,355.0,214.0,30,1,2012.199999999255,254464.90000000037,7041,raisin,NF,C,249459,249459,247813,248727,247814,249825,249245,249245,249825,44
45,test,1,con,1,m,Mon Jan 27 2025 17:02:41 GMT-0600 (Central Standard Time),258809.69999999925,iron,1100,I,m,m,None,692,493.0,199.0,108,1,2328.699999999255,256481.0,7041,iron,NF,C,251658,251658,249829,250942,249831,252158,251459,251459,252158,45
46,test,1,inc,1,z,Mon Jan 27 2025 17:02:41 GMT-0600 (Central Standard Time),261008.90000000037,silver,1000,I,z,z,None,649,435.0,214.0,31,1,2195.300000000745,258813.59999999963,7041,raisin,NF,C,253907,253907,252162,253175,252163,254357,253693,253693,254357,46
47,test,1,inc,1,z,Mon Jan 27 2025 17:02:41 GMT-0600 (Central Standard Time),263025.0999999996,copper,900,I,z,z,None,565,351.0,214.0,14,1,2011.0,261014.09999999963,7041,cherry,NF,C,256007,256007,254362,255276,254363,256373,255792,255792,256373,47
48,test,1,con,1,m,Mon Jan 27 2025 17:02:41 GMT-0600 (Central Standard Time),264924.5,cobalt,800,I,m,m,None,555,356.0,199.0,89,1,1895.7000000011176,263028.7999999989,7041,cobalt,NF,C,257906,257906,256377,257191,256378,258273,257707,257707,258272,48
49,test,1,inc,1,z,Mon Jan 27 2025 17:02:41 GMT-0600 (Central Standard Time),266974.9000000004,zinc,1000,I,z,z,None,511,296.0,215.0,47,1,2046.300000000745,264928.5999999996,7041,pear,NF,C,260022,260022,258277,259290,258278,260323,259807,259807,260323,49
50,test,1,inc,1,z,Mon Jan 27 2025 17:02:41 GMT-0600 (Central Standard Time),268889.69999999925,bronze,800,I,z,z,None,566,367.0,199.0,29,1,1910.9000000003725,266978.7999999989,7041,raisin,NF,C,261855,261855,260327,261139,260328,262238,261656,261656,262238,50
51,test,1,con,1,m,Mon Jan 27 2025 17:02:41 GMT-0600 (Central Standard Time),270922.7999999989,iron,1000,I,m,m,None,498,299.0,199.0,107,1,2029.0999999996275,268893.69999999925,7041,iron,NF,C,263971,263971,262242,263255,262243,264271,263772,263772,264271,51
52,test,1,con,1,z,Mon Jan 27 2025 17:02:41 GMT-0600 (Central Standard Time),272838.7999999989,lime,800,I,z,z,None,577,378.0,199.0,33,1,1912.5999999996275,270926.19999999925,7041,lime,NF,C,265804,265804,264274,265088,264276,266187,265605,265605,266187,52
53,test,1,con,1,m,Mon Jan 27 2025 17:02:41 GMT-0600 (Central Standard Time),274804.69999999925,silver,800,I,m,m,None,621,422.0,199.0,81,1,1962.2999999988824,272842.4000000004,7041,silver,NF,C,267720,267720,266190,267004,266192,268153,267521,267521,268153,53
54,test,1,inc,1,m,Mon Jan 27 2025 17:02:41 GMT-0600 (Central Standard Time),276920.5,plum,1100,I,m,m,None,476,261.0,215.0,112,1,2111.800000000745,274808.69999999925,7041,iron,NF,C,270002,270002,268157,269270,268158,270269,269787,269787,270269,54
55,test,1,con,1,m,Mon Jan 27 2025 17:02:41 GMT-0600 (Central Standard Time),278803.19999999925,zinc,800,I,m,m,None,547,348.0,199.0,113,1,1878.7999999988824,276924.4000000004,7041,zinc,NF,C,271802,271802,270272,271086,270274,272151,271603,271603,272151,55
56,test,1,inc,1,m,Mon Jan 27 2025 17:02:41 GMT-0600 (Central Standard Time),280986.0,plum,1100,I,m,m,None,540,325.0,215.0,128,1,2179.4000000003725,278806.5999999996,7041,lead,NF,C,274001,274001,272155,273269,272156,274334,273786,273786,274334,56
57,test,1,inc,1,m,Mon Jan 27 2025 17:02:41 GMT-0600 (Central Standard Time),282902.2999999989,lime,800,I,m,m,None,578,379.0,199.0,109,1,1912.5999999996275,280989.69999999925,7041,iron,NF,C,275867,275867,274338,275152,274339,276250,275668,275668,276250,57
58,test,1,inc,1,z,Mon Jan 27 2025 17:02:41 GMT-0600 (Central Standard Time),285018.2999999989,zinc,1000,I,z,z,None,566,367.0,199.0,39,1,2112.2999999988824,282906.0,7041,lime,NF,C,277983,277983,276254,277267,276255,278366,277784,277784,278366,58
59,test,1,con,1,m,Mon Jan 27 2025 17:02:41 GMT-0600 (Central Standard Time),287311.69999999925,copper,1100,I,m,m,None,660,461.0,199.0,76,1,2289.699999999255,285022.0,7041,copper,NF,C,280199,280199,278370,279483,278371,280660,280000,280000,280660,59
60,test,1,inc,1,z,Mon Jan 27 2025 17:02:41 GMT-0600 (Central Standard Time),289516.5999999996,lead,1100,I,z,z,None,563,348.0,215.0,40,1,2200.699999999255,287315.9000000004,7041,lime,NF,C,282515,282515,280664,281783,280666,282865,282300,282300,282865,60
61,test,1,con,1,m,Mon Jan 27 2025 17:02:41 GMT-0600 (Central Standard Time),291749.4000000004,bronze,1100,I,m,m,None,587,388.0,199.0,68,1,2228.800000000745,289520.5999999996,7041,bronze,NF,C,284698,284698,282869,283982,282870,285097,284499,284499,285097,61
62,test,1,con,1,z,Mon Jan 27 2025 17:02:41 GMT-0600 (Central Standard Time),294032.0,kiwi,1100,I,z,z,None,643,428.0,215.0,52,1,2279.0999999996275,291752.9000000004,7041,kiwi,NF,C,286947,286947,285101,286215,285102,287380,286732,286732,287380,62
63,test,1,inc,1,m,Mon Jan 27 2025 17:02:41 GMT-0600 (Central Standard Time),295998.0999999996,pear,900,I,m,m,None,521,322.0,199.0,102,1,1962.300000000745,294035.7999999989,7041,gold,NF,C,289013,289013,287384,288297,287385,289346,288814,288814,289346,63
64,test,1,con,1,z,Mon Jan 27 2025 17:02:41 GMT-0600 (Central Standard Time),298164.0999999996,plum,1100,I,z,z,None,530,331.0,199.0,60,1,2161.9000000003725,296002.19999999925,7041,plum,NF,C,291179,291179,289350,290463,289352,291512,290980,290980,291512,64
65,test,1,inc,1,m,Mon Jan 27 2025 17:02:41 GMT-0600 (Central Standard Time),300346.5999999996,orange,1000,I,m,m,None,633,434.0,199.0,87,1,2178.5999999996275,298168.0,7041,silver,NF,C,293245,293245,291516,292529,291517,293695,293046,293046,293695,65
66,test,1,con,1,m,Mon Jan 27 2025 17:02:41 GMT-0600 (Central Standard Time),302512.5,silver,1100,I,m,m,None,525,326.0,199.0,84,1,2161.9000000003725,300350.5999999996,7041,silver,NF,C,295528,295528,293699,294812,293700,295861,295329,295329,295861,66
67,test,1,inc,1,z,Mon Jan 27 2025 17:02:41 GMT-0600 (Central Standard Time),304712.0999999996,cobalt,1100,I,z,z,None,551,336.0,215.0,24,1,2195.5999999996275,302516.5,7041,orange,NF,C,297710,297710,295865,296978,295866,298060,297495,297495,298060,67
68,test,1,inc,1,z,Mon Jan 27 2025 17:02:41 GMT-0600 (Central Standard Time),306778.19999999925,iron,900,I,z,z,None,616,417.0,199.0,54,1,2061.9000000003725,304716.2999999989,7041,kiwi,NF,C,299693,299693,298064,298977,298066,300126,299494,299494,300126,68
69,test,1,inc,1,z,Mon Jan 27 2025 17:02:41 GMT-0600 (Central Standard Time),308677.4000000004,gold,800,I,z,z,None,562,363.0,199.0,53,1,1895.4000000003725,306782.0,7041,kiwi,NF,C,301659,301659,300130,300943,300131,302025,301460,301460,302025,69
70,test,1,con,1,m,Mon Jan 27 2025 17:02:41 GMT-0600 (Central Standard Time),310702.5,iron,900,I,m,m,None,590,375.0,215.0,106,1,2021.5,308681.0,7041,iron,NF,C,303675,303675,302029,302943,302030,304051,303460,303460,304051,70
71,test,1,con,1,m,Mon Jan 27 2025 17:02:41 GMT-0600 (Central Standard Time),312875.9000000004,copper,1000,I,m,m,None,646,431.0,215.0,75,1,2169.0,310706.9000000004,7041,copper,NF,C,305791,305791,304055,305059,304056,306224,305576,305576,306224,71
72,test,1,inc,1,m,Mon Jan 27 2025 17:02:41 GMT-0600 (Central Standard Time),314892.19999999925,cherry,900,I,m,m,None,580,380.0,200.0,86,1,2012.2999999988824,312879.9000000004,7041,silver,NF,C,307858,307858,306228,307141,306229,308240,307658,307658,308240,72
73,test,1,con,1,z,Mon Jan 27 2025 17:02:41 GMT-0600 (Central Standard Time),316891.19999999925,pear,900,I,z,z,None,564,365.0,199.0,42,1,1995.5,314895.69999999925,7041,pear,NF,C,309873,309873,308244,309158,308245,310239,309674,309674,310239,73
74,test,1,inc,1,m,Mon Jan 27 2025 17:02:41 GMT-0600 (Central Standard Time),318757.5,banana,800,I,m,m,None,519,304.0,215.0,69,1,1862.5,316895.0,7041,bronze,NF,C,311790,311790,310243,311057,310244,312106,311574,311574,312106,74
75,test,1,con,1,z,Mon Jan 27 2025 17:02:41 GMT-0600 (Central Standard Time),321057.0,orange,1100,I,z,z,None,658,459.0,199.0,20,1,2295.300000000745,318761.69999999925,7041,orange,NF,C,313939,313939,312110,313223,312111,314405,313740,313740,314405,75
76,test,1,con,1,z,Mon Jan 27 2025 17:02:41 GMT-0600 (Central Standard Time),323072.7999999989,plum,800,I,z,z,None,675,476.0,199.0,57,1,2011.7999999988824,321061.0,7041,plum,NF,C,315938,315938,314409,315222,314410,316421,315739,315739,316421,76
77,test,1,inc,1,m,Mon Jan 27 2025 17:02:41 GMT-0600 (Central Standard Time),324972.4000000004,cherry,900,I,m,m,None,463,264.0,199.0,78,1,1895.9000000003725,323076.5,7041,copper,NF,C,318054,318054,316425,317338,316426,318320,317855,317855,318320,77
78,test,1,con,1,z,Mon Jan 27 2025 17:02:41 GMT-0600 (Central Standard Time),327205.0,pear,1100,I,z,z,None,595,380.0,215.0,44,1,2228.9000000003725,324976.0999999996,7041,pear,NF,C,320170,320170,318324,319438,318326,320553,319955,319955,320553,78
79,test,1,con,1,m,Mon Jan 27 2025 17:02:41 GMT-0600 (Central Standard Time),329287.5999999996,lead,1000,I,m,m,None,535,336.0,199.0,123,1,2078.5999999996275,327209.0,7041,lead,NF,C,322286,322286,320557,321570,320558,322636,322087,322087,322636,79
80,test,1,inc,1,m,Mon Jan 27 2025 17:02:41 GMT-0600 (Central Standard Time),331287.0,lime,800,I,m,m,None,652,437.0,215.0,125,1,1994.4000000003725,329292.5999999996,7041,lead,NF,C,324185,324185,322641,323453,322642,324635,323970,323970,324635,80
81,test,1,con,1,z,Mon Jan 27 2025 17:02:41 GMT-0600 (Central Standard Time),333369.69999999925,plum,1000,I,z,z,None,541,342.0,199.0,59,1,2079.0,331290.69999999925,7041,plum,NF,C,326368,326368,324639,325652,324640,326718,326169,326169,326718,81
82,test,1,inc,1,m,Mon Jan 27 2025 17:02:41 GMT-0600 (Central Standard Time),335519.0,cherry,900,I,m,m,None,594,395.0,199.0,94,1,2145.7000000011176,333373.2999999989,7041,cobalt,NF,C,328467,328467,326721,327762,326723,328867,328268,328268,328867,82
83,test,1,con,1,z,Mon Jan 27 2025 17:02:41 GMT-0600 (Central Standard Time),337501.9000000004,raisin,900,I,z,z,None,545,346.0,199.0,26,1,1978.9000000003725,335523.0,7041,raisin,NF,C,330500,330500,328871,329784,328872,330850,330301,330301,330850,83
84,test,1,con,1,m,Mon Jan 27 2025 17:02:41 GMT-0600 (Central Standard Time),339684.5,cobalt,1100,I,m,m,None,537,322.0,215.0,92,1,2178.5999999996275,337505.9000000004,7041,cobalt,NF,C,332699,332700,330854,331967,330855,333033,332484,332484,333032,84
85,test,1,inc,1,m,Mon Jan 27 2025 17:02:41 GMT-0600 (Central Standard Time),341884.7999999989,plum,1100,I,m,m,None,564,365.0,199.0,104,1,2196.199999999255,339688.5999999996,7041,gold,NF,C,334866,334866,333037,334150,333038,335233,334666,334666,335233,85
86,test,1,con,1,z,Mon Jan 27 2025 17:02:41 GMT-0600 (Central Standard Time),344016.4000000004,lime,1000,I,z,z,None,592,393.0,199.0,35,1,2127.5,341888.9000000004,7041,lime,NF,C,336965,336965,335237,336249,335238,337365,336766,336766,337364,86
87,test,1,inc,1,z,Mon Jan 27 2025 17:02:41 GMT-0600 (Central Standard Time),345865.7999999989,bronze,800,I,z,z,None,499,284.0,215.0,5,1,1845.699999999255,344020.0999999996,7041,banana,NF,C,338914,338914,337368,338182,337369,339214,338699,338699,339214,87
88,test,1,con,1,z,Mon Jan 27 2025 17:02:41 GMT-0600 (Central Standard Time),347965.19999999925,cherry,1100,I,z,z,None,454,255.0,199.0,12,1,2095.7999999988824,345869.4000000004,7041,cherry,NF,C,341047,341047,339217,340331,339219,341313,340848,340848,341313,88
89,test,1,inc,1,z,Mon Jan 27 2025 17:02:41 GMT-0600 (Central Standard Time),350064.4000000004,cobalt,1100,I,z,z,None,460,261.0,199.0,16,1,2095.4000000003725,347969.0,7041,cherry,NF,C,343146,343146,341317,342430,341319,343413,342947,342947,343412,89
90,test,1,con,1,m,Mon Jan 27 2025 17:02:41 GMT-0600 (Central Standard Time),352197.19999999925,zinc,1000,I,m,m,None,595,380.0,215.0,115,1,2128.699999999255,350068.5,7041,zinc,NF,C,345162,345162,343417,344430,343418,345545,344947,344947,345545,90
91,test,1,inc,1,m,Mon Jan 27 2025 17:02:41 GMT-0600 (Central Standard Time),354179.69999999925,kiwi,1000,I,m,m,None,445,231.0,214.0,111,1,1978.699999999255,352201.0,7041,iron,NF,C,347295,347295,345549,346562,345550,347528,347079,347080,347528,91
92,test,1,inc,1,m,Mon Jan 27 2025 17:02:41 GMT-0600 (Central Standard Time),356095.7999999989,cherry,900,I,m,m,None,477,278.0,199.0,70,1,1912.5,354183.2999999989,7041,bronze,NF,C,349161,349161,347531,348445,347533,349444,348962,348962,349444,92
93,test,1,con,1,m,Mon Jan 27 2025 17:02:41 GMT-0600 (Central Standard Time),357906.0,iron,800,I,m,m,None,475,147.0,328.0,105,1,1806.7000000011176,356099.2999999989,7041,iron,NF,C,351107,351107,349447,350261,349449,351254,350778,350778,351254,93
94,test,1,inc,1,m,Mon Jan 27 2025 17:02:41 GMT-0600 (Central Standard Time),360028.0999999996,kiwi,1000,I,m,m,None,573,374.0,199.0,103,1,2118.0999999996275,357910.0,7041,gold,NF,C,352993,352993,351258,352277,351260,353376,352794,352794,353376,94
95,test,1,con,1,z,Mon Jan 27 2025 17:02:41 GMT-0600 (Central Standard Time),362010.9000000004,cherry,800,I,z,z,None,633,434.0,199.0,9,1,1979.0,360031.9000000004,7041,cherry,NF,C,354909,354909,353380,354193,353382,355359,354710,354710,355359,95
96,test,1,inc,1,m,Mon Jan 27 2025 17:02:41 GMT-0600 (Central Standard Time),364393.4000000004,raisin,1100,I,m,m,None,733,534.0,199.0,72,1,2378.800000000745,362014.5999999996,7041,bronze,NF,C,357192,357192,355363,356476,355364,357742,356993,356993,357741,96
97,test,1,con,1,m,Mon Jan 27 2025 17:02:41 GMT-0600 (Central Standard Time),366509.4000000004,gold,1000,I,m,m,None,570,371.0,199.0,99,1,2111.9000000003725,364397.5,7041,gold,NF,C,359475,359475,357746,358759,357747,359857,359275,359275,359857,97
98,test,1,con,1,z,Mon Jan 27 2025 17:02:41 GMT-0600 (Central Standard Time),368525.4000000004,kiwi,900,I,z,z,None,571,372.0,199.0,50,1,2012.300000000745,366513.0999999996,7041,kiwi,NF,C,361490,361490,359861,360775,359862,361873,361291,361291,361873,98
99,test,1,con,1,m,Mon Jan 27 2025 17:02:41 GMT-0600 (Central Standard Time),370558.0999999996,zinc,900,I,m,m,None,594,379.0,215.0,114,1,2028.9000000003725,368529.19999999925,7041,zinc,NF,C,363523,363523,361877,362791,361879,363906,363308,363308,363906,99
100,test,1,con,1,m,Mon Jan 27 2025 17:02:41 GMT-0600 (Central Standard Time),372557.19999999925,cobalt,900,I,m,m,None,562,363.0,199.0,90,1,1995.0999999996275,370562.0999999996,7041,cobalt,NF,C,365539,365539,363910,364823,363912,365905,365340,365340,365905,100
101,test,1,inc,1,z,Mon Jan 27 2025 17:02:41 GMT-0600 (Central Standard Time),374740.0999999996,cobalt,1100,I,z,z,None,538,323.0,215.0,8,1,2179.0999999996275,372561.0,7041,banana,NF,C,367755,367755,365909,367023,365910,368088,367540,367540,368088,101
102,test,1,inc,1,m,Mon Jan 27 2025 17:02:41 GMT-0600 (Central Standard Time),376889.19999999925,plum,1100,I,m,m,None,498,284.0,214.0,120,1,2145.4000000003725,374743.7999999989,7041,zinc,NF,C,369938,369938,368092,369206,368093,370237,369723,369723,370237,102
103,test,1,con,1,z,Mon Jan 27 2025 17:02:41 GMT-0600 (Central Standard Time),378989.0,pear,1000,I,z,z,None,554,339.0,215.0,43,1,2095.9000000003725,376893.0999999996,7041,pear,NF,C,371987,371987,370241,371255,370242,372337,371772,371772,372337,103
104,test,1,con,1,m,Mon Jan 27 2025 17:02:41 GMT-0600 (Central Standard Time),381337.7999999989,lead,1100,I,m,m,None,712,513.0,199.0,124,1,2345.0,378992.7999999989,7041,lead,NF,C,374170,374170,372341,373454,372342,374686,373971,373971,374686,104
105,test,1,con,1,z,Mon Jan 27 2025 17:02:41 GMT-0600 (Central Standard Time),383570.7999999989,kiwi,1000,I,z,z,None,698,499.0,199.0,51,1,2228.7999999988824,381342.0,7041,kiwi,NF,C,376419,376419,374690,375703,374691,376919,376220,376220,376919,105
106,test,1,inc,1,z,Mon Jan 27 2025 17:02:41 GMT-0600 (Central Standard Time),385420.0999999996,gold,800,I,z,z,None,514,315.0,199.0,37,1,1845.199999999255,383574.9000000004,7041,lime,NF,C,378452,378452,376923,377736,376925,378768,378253,378253,378768,106
107,test,1,inc,1,m,Mon Jan 27 2025 17:02:41 GMT-0600 (Central Standard Time),387369.4000000004,banana,800,I,m,m,None,608,409.0,199.0,77,1,1945.2000000011176,385424.19999999925,7041,copper,NF,C,380301,380301,378772,379586,378774,380718,380102,380102,380717,107
108,test,1,inc,1,z,Mon Jan 27 2025 17:02:41 GMT-0600 (Central Standard Time),389469.0,silver,1000,I,z,z,None,562,347.0,215.0,7,1,2095.7000000011176,387373.2999999989,7041,banana,NF,C,382467,382467,380721,381735,380723,382817,382252,382252,382817,108
109,test,1,inc,1,m,Mon Jan 27 2025 17:02:41 GMT-0600 (Central Standard Time),391534.7999999989,orange,1000,I,m,m,None,519,320.0,199.0,79,1,2062.0999999996275,389472.69999999925,7041,copper,NF,C,384550,384550,382821,383834,382822,384883,384351,384351,384883,109
110,test,1,inc,1,z,Mon Jan 27 2025 17:02:41 GMT-0600 (Central Standard Time),393584.2999999989,copper,900,I,z,z,None,610,410.0,200.0,6,1,2045.199999999255,391539.0999999996,7041,banana,NF,C,386517,386517,384887,385800,384889,386932,386317,386317,386932,110
111,test,1,con,1,z,Mon Jan 27 2025 17:02:41 GMT-0600 (Central Standard Time),395733.5,banana,1100,I,z,z,None,504,305.0,199.0,4,1,2144.9000000003725,393588.5999999996,7041,banana,NF,C,388765,388765,386937,388049,386938,389082,388566,388566,389082,111
112,test,1,inc,1,m,Mon Jan 27 2025 17:02:41 GMT-0600 (Central Standard Time),397782.9000000004,raisin,1100,I,m,m,None,410,195.0,215.0,80,1,2045.5,395737.4000000004,7041,copper,NF,C,390931,390931,389085,390199,389087,391131,390716,390716,391131,112
113,test,1,con,1,z,Mon Jan 27 2025 17:02:41 GMT-0600 (Central Standard Time),399865.5999999996,raisin,1000,I,z,z,None,541,342.0,199.0,27,1,2078.9000000003725,397786.69999999925,7041,raisin,NF,C,392864,392864,391135,392148,391136,393214,392665,392665,393214,113
114,test,1,con,1,m,Mon Jan 27 2025 17:02:41 GMT-0600 (Central Standard Time),401981.5,silver,1000,I,m,m,None,571,372.0,199.0,83,1,2112.300000000745,399869.19999999925,7041,silver,NF,C,394947,394947,393217,394232,393219,395330,394748,394748,395330,114
115,test,1,inc,1,z,Mon Jan 27 2025 17:02:41 GMT-0600 (Central Standard Time),403880.7999999989,copper,900,I,z,z,None,458,259.0,199.0,22,1,1895.199999999255,401985.5999999996,7041,orange,NF,C,396963,396963,395334,396247,395335,397229,396764,396764,397229,115
116,test,1,inc,1,z,Mon Jan 27 2025 17:02:41 GMT-0600 (Central Standard Time),406030.2999999989,silver,1000,I,z,z,None,611,412.0,199.0,23,1,2145.5,403884.7999999989,7041,orange,NF,C,398962,398962,397233,398245,397234,399378,398763,398763,399378,116
117,test,1,con,1,z,Mon Jan 27 2025 17:02:41 GMT-0600 (Central Standard Time),407963.0,orange,900,I,z,z,None,483,284.0,199.0,18,1,1929.0,406034.0,7041,orange,NF,C,401011,401011,399382,400296,399383,401311,400812,400812,401311,117
118,test,1,con,1,z,Mon Jan 27 2025 17:02:41 GMT-0600 (Central Standard Time),410212.4000000004,raisin,1100,I,z,z,None,613,414.0,199.0,28,1,2245.7000000011176,407966.69999999925,7041,raisin,NF,C,403144,403144,401315,402428,401316,403560,402945,402945,403560,118
119,test,1,inc,1,z,Mon Jan 27 2025 17:02:41 GMT-0600 (Central Standard Time),412228.4000000004,zinc,1000,I,z,z,None,479,264.0,215.0,63,1,2012.4000000003725,410216.0,7041,plum,NF,C,405310,405310,403564,404578,403565,405576,405095,405095,405576,119
120,test,1,con,1,z,Mon Jan 27 2025 17:02:41 GMT-0600 (Central Standard Time),414160.9000000004,banana,800,I,z,z,None,583,368.0,215.0,1,1,1928.6000000014901,412232.2999999989,7041,banana,NF,C,407126,407126,405580,406394,405582,407509,406911,406911,407509,120
121,test,1,inc,1,m,Mon Jan 27 2025 17:02:41 GMT-0600 (Central Standard Time),416077.0999999996,pear,900,I,m,m,None,480,281.0,199.0,110,1,1911.800000000745,414165.2999999989,7041,iron,NF,C,409142,409142,407513,408426,407515,409425,408943,408943,409425,121
122,test,1,inc,1,m,Mon Jan 27 2025 17:02:41 GMT-0600 (Central Standard Time),418076.5,lime,800,I,m,m,None,655,456.0,199.0,117,1,1995.5999999996275,416080.9000000004,7041,zinc,NF,C,410958,410958,409429,410243,409430,411425,410759,410759,411424,122
123,test,1,inc,1,z,Mon Jan 27 2025 17:02:41 GMT-0600 (Central Standard Time),420175.9000000004,iron,900,I,z,z,None,661,461.0,200.0,62,1,2095.5,418080.4000000004,7041,plum,NF,C,413058,413058,411428,412342,411430,413524,412858,412858,413524,123
124,test,1,inc,1,m,Mon Jan 27 2025 17:02:41 GMT-0600 (Central Standard Time),422208.5,orange,1000,I,m,m,None,484,285.0,199.0,71,1,2029.0,420179.5,7041,bronze,NF,C,415257,415257,413528,414541,413529,415557,415058,415058,415557,124
125,test,1,con,1,z,Mon Jan 27 2025 17:02:41 GMT-0600 (Central Standard Time),424324.69999999925,banana,1000,I,z,z,None,579,364.0,215.0,3,1,2112.4000000003725,422212.2999999989,7041,banana,NF,C,417306,417306,415560,416574,415562,417673,417091,417091,417673,125
126,test,1,con,1,m,Mon Jan 27 2025 17:02:41 GMT-0600 (Central Standard Time),426207.4000000004,gold,800,I,m,m,None,541,327.0,214.0,97,1,1878.800000000745,424328.5999999996,7041,gold,NF,C,419222,419223,417677,418490,417678,419555,419008,419008,419555,126
127,test,1,inc,1,m,Mon Jan 27 2025 17:02:41 GMT-0600 (Central Standard Time),427990.19999999925,banana,800,I,m,m,None,444,229.0,215.0,85,1,1779.199999999255,426211.0,7041,silver,NF,C,421105,421105,419559,420373,419561,421338,420890,420890,421338,127
128,test,1,inc,1,m,Mon Jan 27 2025 17:02:41 GMT-0600 (Central Standard Time),429989.5,kiwi,1000,I,m,m,None,454,255.0,199.0,119,1,1995.5999999996275,427993.9000000004,7041,zinc,NF,C,423071,423071,421342,422355,421343,423338,422872,422872,423337,128
