acc_sum,block,block_c,change,condition,correct,correct_response,datetime,endtime,face,project,response,response_time,row_sel,session_number,start_end,starttime,subject_id,task,task_vers,trial
0,prac,1,,1-Back,,,Fri Mar 21 2025 15:41:50 GMT-0500 (Central Daylight Time),,005_o_f_d_a.png,O,space,7929,1,1,,,7117,VNB,B,0
0,prac,1,0.0,1-Back,0,m,Fri Mar 21 2025 15:41:50 GMT-0500 (Central Daylight Time),162077.5,020_y_f_n_a.png,O,None,2006,2,1,2871.699999988079,159205.80000001192,7117,VNB,B,1
1,prac,1,0.0,1-Back,1,m,Fri Mar 21 2025 15:41:50 GMT-0500 (Central Daylight Time),162960.40000000596,007_m_m_h_a.png,O,m,1,3,1,875.6999999880791,162084.70000001788,7117,VNB,B,2
1,prac,1,0.0,1-Back,0,m,Fri Mar 21 2025 15:41:50 GMT-0500 (Central Daylight Time),165859.5,016_y_m_d_a.png,O,None,2003,4,1,2891.7999999821186,162967.70000001788,7117,VNB,B,3
1,prac,1,0.0,1-Back,0,m,Fri Mar 21 2025 15:41:50 GMT-0500 (Central Daylight Time),168025.80000001192,005_o_f_n_a.png,O,z,1271,5,1,2158.9000000059605,165866.90000000596,7117,VNB,B,4
1,prac,1,1.0,1-Back,0,z,Fri Mar 21 2025 15:41:50 GMT-0500 (Central Daylight Time),170225.30000001192,016_y_m_n_a.png,O,m,1295,6,1,2191.9000000059605,168033.40000000596,7117,VNB,B,5
1,prac,1,0.0,1-Back,0,m,Fri Mar 21 2025 15:41:50 GMT-0500 (Central Daylight Time),172357.59999999404,004_o_m_h_a.png,O,z,1250,7,1,2124.7999999821186,170232.80000001192,7117,VNB,B,6
2,prac,1,0.0,1-Back,1,m,Fri Mar 21 2025 15:41:50 GMT-0500 (Central Daylight Time),174740.30000001192,011_m_f_d_a.png,O,m,1483,8,1,2374.300000011921,172366.0,7117,VNB,B,7
3,prac,1,1.0,1-Back,1,z,Fri Mar 21 2025 15:41:50 GMT-0500 (Central Daylight Time),176889.59999999404,020_y_f_d_a.png,O,z,1263,9,1,2141.699999988079,174747.90000000596,7117,VNB,B,8
3,prac,1,0.0,1-Back,0,m,Fri Mar 21 2025 15:41:50 GMT-0500 (Central Daylight Time),178888.80000001192,007_m_m_n_a.png,O,z,1097,10,1,1991.4000000059605,176897.40000000596,7117,VNB,B,9
3,prac,1,0.0,1-Back,0,m,Fri Mar 21 2025 15:41:50 GMT-0500 (Central Daylight Time),181704.80000001192,005_o_f_h_a.png,O,z,1931,11,1,2809.5999999940395,178895.20000001788,7117,VNB,B,10
3,prac,1,0.0,1-Back,0,m,Fri Mar 21 2025 15:41:50 GMT-0500 (Central Daylight Time),184620.30000001192,016_y_m_d_a.png,O,None,2009,12,1,2907.0,181713.30000001192,7117,VNB,B,11
0,prac,2,0.0,1-Back,,,Fri Mar 21 2025 15:41:50 GMT-0500 (Central Daylight Time),184620.30000001192,005_o_f_d_a.png,O,a,5473,1,1,2907.0,181713.30000001192,7117,VNB,B,0
1,prac,2,0.0,1-Back,1,m,Fri Mar 21 2025 15:41:50 GMT-0500 (Central Daylight Time),195500.30000001192,020_y_f_n_a.png,O,m,1487,2,1,2358.4000000059605,193141.90000000596,7117,VNB,B,1
1,prac,2,0.0,1-Back,0,m,Fri Mar 21 2025 15:41:50 GMT-0500 (Central Daylight Time),198066.09999999404,007_m_m_h_a.png,O,z,1671,3,1,2558.399999976158,195507.70000001788,7117,VNB,B,2
2,prac,2,0.0,1-Back,1,m,Fri Mar 21 2025 15:41:50 GMT-0500 (Central Daylight Time),200189.90000000596,016_y_m_d_a.png,O,m,1304,4,1,2116.5,198073.40000000596,7117,VNB,B,3
3,prac,2,0.0,1-Back,1,m,Fri Mar 21 2025 15:41:50 GMT-0500 (Central Daylight Time),202131.80000001192,005_o_f_n_a.png,O,m,1012,5,1,1934.5,200197.30000001192,7117,VNB,B,4
3,prac,2,1.0,1-Back,0,z,Fri Mar 21 2025 15:41:50 GMT-0500 (Central Daylight Time),203997.70000001788,016_y_m_n_a.png,O,m,958,6,1,1858.800000011921,202138.90000000596,7117,VNB,B,5
4,prac,2,0.0,1-Back,1,m,Fri Mar 21 2025 15:41:50 GMT-0500 (Central Daylight Time),206613.70000001788,004_o_m_h_a.png,O,m,1744,7,1,2608.9000000059605,204004.80000001192,7117,VNB,B,6
5,prac,2,0.0,1-Back,1,m,Fri Mar 21 2025 15:41:50 GMT-0500 (Central Daylight Time),208679.59999999404,011_m_f_d_a.png,O,m,1162,8,1,2058.5999999940395,206621.0,7117,VNB,B,7
6,prac,2,1.0,1-Back,1,z,Fri Mar 21 2025 15:41:50 GMT-0500 (Central Daylight Time),210779.0,020_y_f_d_a.png,O,z,1221,9,1,2091.5999999940395,208687.40000000596,7117,VNB,B,8
6,prac,2,0.0,1-Back,0,m,Fri Mar 21 2025 15:41:50 GMT-0500 (Central Daylight Time),212895.0,007_m_m_n_a.png,O,z,1218,10,1,2110.0,210785.0,7117,VNB,B,9
7,prac,2,0.0,1-Back,1,m,Fri Mar 21 2025 15:41:50 GMT-0500 (Central Daylight Time),214977.59999999404,005_o_f_h_a.png,O,m,1187,11,1,2076.2999999821186,212901.30000001192,7117,VNB,B,10
8,prac,2,0.0,1-Back,1,m,Fri Mar 21 2025 15:41:50 GMT-0500 (Central Daylight Time),217093.5,016_y_m_d_a.png,O,m,1218,12,1,2108.2999999821186,214985.20000001788,7117,VNB,B,11
0,test,1,0.0,1-Back,,,Fri Mar 21 2025 15:41:50 GMT-0500 (Central Daylight Time),217093.5,020_y_f_d_a.png,O,space,15980,1,1,2108.2999999821186,214985.20000001788,7117,VNB,B,0
0,test,1,0.0,1-Back,0,m,Fri Mar 21 2025 15:41:50 GMT-0500 (Central Daylight Time),251516.0,011_m_f_n_a.png,O,z,1389,2,1,2411.0999999940395,249104.90000000596,7117,VNB,B,1
1,test,1,0.0,1-Back,1,m,Fri Mar 21 2025 15:41:50 GMT-0500 (Central Daylight Time),253632.09999999404,004_o_m_h_a.png,O,m,1085,3,1,2111.5999999940395,251520.5,7117,VNB,B,2
1,test,1,1.0,1-Back,0,z,Fri Mar 21 2025 15:41:50 GMT-0500 (Central Daylight Time),255647.90000000596,007_m_m_h_a.png,O,m,992,4,1,2011.199999988079,253636.70000001788,7117,VNB,B,3
1,test,1,0.0,1-Back,0,m,Fri Mar 21 2025 15:41:50 GMT-0500 (Central Daylight Time),257913.90000000596,005_o_f_n_a.png,O,z,1248,5,1,2262.0,255651.90000000596,7117,VNB,B,4
1,test,1,0.0,1-Back,0,m,Fri Mar 21 2025 15:41:50 GMT-0500 (Central Daylight Time),260829.5,016_y_m_d_a.png,O,z,1894,6,1,2911.0,257918.5,7117,VNB,B,5
2,test,1,1.0,1-Back,1,z,Fri Mar 21 2025 15:41:50 GMT-0500 (Central Daylight Time),262829.0,011_m_f_d_a.png,O,z,971,7,1,1995.0999999940395,260833.90000000596,7117,VNB,B,6
3,test,1,0.0,1-Back,1,m,Fri Mar 21 2025 15:41:50 GMT-0500 (Central Daylight Time),265278.5,020_y_f_h_a.png,O,m,1420,8,1,2445.5999999940395,262832.90000000596,7117,VNB,B,7
3,test,1,0.0,1-Back,0,m,Fri Mar 21 2025 15:41:50 GMT-0500 (Central Daylight Time),267260.8000000119,004_o_m_n_a.png,O,z,962,9,1,1978.0,265282.8000000119,7117,VNB,B,8
4,test,1,0.0,1-Back,1,m,Fri Mar 21 2025 15:41:50 GMT-0500 (Central Daylight Time),269227.0,016_y_m_h_a.png,O,m,940,10,1,1962.0999999940395,267264.90000000596,7117,VNB,B,9
4,test,1,0.0,1-Back,0,m,Fri Mar 21 2025 15:41:50 GMT-0500 (Central Daylight Time),271476.40000000596,004_o_m_d_a.png,O,z,1229,11,1,2244.5999999940395,269231.8000000119,7117,VNB,B,10
4,test,1,1.0,1-Back,0,z,Fri Mar 21 2025 15:41:50 GMT-0500 (Central Daylight Time),274508.7000000179,005_o_f_d_a.png,O,None,2016,12,1,3027.300000011921,271481.40000000596,7117,VNB,B,11
4,test,1,0.0,1-Back,0,m,Fri Mar 21 2025 15:41:50 GMT-0500 (Central Daylight Time),277541.2000000179,007_m_m_n_a.png,O,None,2016,13,1,3027.800000011921,274513.40000000596,7117,VNB,B,12
4,test,1,1.0,1-Back,0,z,Fri Mar 21 2025 15:41:50 GMT-0500 (Central Daylight Time),279857.09999999404,020_y_f_n_a.png,O,m,1292,14,1,2311.0999999940395,277546.0,7117,VNB,B,13
5,test,1,0.0,1-Back,1,m,Fri Mar 21 2025 15:41:50 GMT-0500 (Central Daylight Time),282106.3000000119,011_m_f_h_a.png,O,m,1231,15,1,2244.5,279861.8000000119,7117,VNB,B,14
6,test,1,0.0,1-Back,1,m,Fri Mar 21 2025 15:41:50 GMT-0500 (Central Daylight Time),285122.3000000119,007_m_m_d_a.png,O,m,1991,16,1,3011.7000000178814,282110.59999999404,7117,VNB,B,15
7,test,1,0.0,1-Back,1,m,Fri Mar 21 2025 15:41:50 GMT-0500 (Central Daylight Time),287621.2000000179,016_y_m_n_a.png,O,m,1478,17,1,2494.5,285126.7000000179,7117,VNB,B,16
8,test,1,0.0,1-Back,1,m,Fri Mar 21 2025 15:41:50 GMT-0500 (Central Daylight Time),290020.59999999404,005_o_f_h_a.png,O,m,1380,18,1,2395.399999976158,287625.2000000179,7117,VNB,B,17
0,test,2,0.0,1-Back,,,Fri Mar 21 2025 15:41:50 GMT-0500 (Central Daylight Time),290020.59999999404,016_y_m_n_a.png,O,space,9588,1,1,2395.399999976158,287625.2000000179,7117,VNB,B,0
1,test,2,0.0,1-Back,1,m,Fri Mar 21 2025 15:41:50 GMT-0500 (Central Daylight Time),304032.90000000596,020_y_f_h_a.png,O,m,1368,2,1,2394.0999999940395,301638.8000000119,7117,VNB,B,1
2,test,2,1.0,1-Back,1,m,Fri Mar 21 2025 15:41:50 GMT-0500 (Central Daylight Time),306632.09999999404,004_o_m_n_a.png,O,m,1568,3,1,2595.5999999940395,304036.5,7117,VNB,B,2
3,test,2,0.0,1-Back,1,m,Fri Mar 21 2025 15:41:50 GMT-0500 (Central Daylight Time),309014.59999999404,011_m_f_d_a.png,O,m,1361,4,1,2377.699999988079,306636.90000000596,7117,VNB,B,3
4,test,2,0.0,1-Back,1,z,Fri Mar 21 2025 15:41:50 GMT-0500 (Central Daylight Time),311880.40000000596,007_m_m_d_a.png,O,z,1842,5,1,2860.699999988079,309019.7000000179,7117,VNB,B,4
5,test,2,0.0,1-Back,1,m,Fri Mar 21 2025 15:41:50 GMT-0500 (Central Daylight Time),314462.8000000119,016_y_m_h_a.png,O,m,1552,6,1,2578.0,311884.8000000119,7117,VNB,B,5
5,test,2,1.0,1-Back,0,z,Fri Mar 21 2025 15:41:50 GMT-0500 (Central Daylight Time),316595.2000000179,005_o_f_h_a.png,O,m,1113,7,1,2128.0,314467.2000000179,7117,VNB,B,6
5,test,2,0.0,1-Back,0,m,Fri Mar 21 2025 15:41:50 GMT-0500 (Central Daylight Time),318811.3000000119,011_m_f_n_a.png,O,z,1189,8,1,2211.800000011921,316599.5,7117,VNB,B,7
6,test,2,0.0,1-Back,1,m,Fri Mar 21 2025 15:41:50 GMT-0500 (Central Daylight Time),321477.2000000179,020_y_f_d_a.png,O,m,1644,9,1,2660.300000011921,318816.90000000596,7117,VNB,B,8
7,test,2,0.0,1-Back,1,m,Fri Mar 21 2025 15:41:50 GMT-0500 (Central Daylight Time),323643.40000000596,007_m_m_n_a.png,O,m,1139,10,1,2161.5,321481.90000000596,7117,VNB,B,9
8,test,2,1.0,1-Back,1,m,Fri Mar 21 2025 15:41:50 GMT-0500 (Central Daylight Time),325776.3000000119,011_m_f_h_a.png,O,m,1110,11,1,2128.7000000178814,323647.59999999404,7117,VNB,B,10
8,test,2,0.0,1-Back,0,z,Fri Mar 21 2025 15:41:50 GMT-0500 (Central Daylight Time),327825.90000000596,004_o_m_h_a.png,O,m,1017,12,1,2045.0,325780.90000000596,7117,VNB,B,11
9,test,2,0.0,1-Back,1,m,Fri Mar 21 2025 15:41:50 GMT-0500 (Central Daylight Time),330391.59999999404,016_y_m_d_a.png,O,m,1544,13,1,2562.199999988079,327829.40000000596,7117,VNB,B,12
9,test,2,0.0,1-Back,0,m,Fri Mar 21 2025 15:41:50 GMT-0500 (Central Daylight Time),332973.90000000596,005_o_f_n_a.png,O,z,1554,14,1,2578.4000000059605,330395.5,7117,VNB,B,13
10,test,2,0.0,1-Back,1,z,Fri Mar 21 2025 15:41:50 GMT-0500 (Central Daylight Time),335023.40000000596,020_y_f_n_a.png,O,z,1026,15,1,2046.199999988079,332977.2000000179,7117,VNB,B,14
11,test,2,1.0,1-Back,1,m,Fri Mar 21 2025 15:41:50 GMT-0500 (Central Daylight Time),337122.3000000119,007_m_m_h_a.png,O,m,1074,16,1,2094.300000011921,335028.0,7117,VNB,B,15
11,test,2,0.0,1-Back,0,m,Fri Mar 21 2025 15:41:50 GMT-0500 (Central Daylight Time),339388.8000000119,005_o_f_d_a.png,O,z,1247,17,1,2262.0999999940395,337126.7000000179,7117,VNB,B,16
12,test,2,1.0,1-Back,1,z,Fri Mar 21 2025 15:41:50 GMT-0500 (Central Daylight Time),341604.3000000119,004_o_m_d_a.png,O,z,1196,18,1,2211.4000000059605,339392.90000000596,7117,VNB,B,17
0,test,3,1.0,1-Back,,,Fri Mar 21 2025 15:41:50 GMT-0500 (Central Daylight Time),341604.3000000119,005_o_f_h_a.png,O,space,8237,1,1,2211.4000000059605,339392.90000000596,7117,VNB,B,0
1,test,3,0.0,1-Back,1,m,Fri Mar 21 2025 15:41:50 GMT-0500 (Central Daylight Time),353784.09999999404,011_m_f_d_a.png,O,m,793,2,1,1811.2999999821186,351972.8000000119,7117,VNB,B,1
2,test,3,1.0,1-Back,1,m,Fri Mar 21 2025 15:41:50 GMT-0500 (Central Daylight Time),356366.7000000179,007_m_m_n_a.png,O,m,1561,3,1,2577.600000023842,353789.09999999404,7117,VNB,B,2
3,test,3,0.0,1-Back,1,z,Fri Mar 21 2025 15:41:50 GMT-0500 (Central Daylight Time),358732.5,005_o_f_n_a.png,O,z,1347,4,1,2360.9000000059605,356371.59999999404,7117,VNB,B,3
3,test,3,1.0,1-Back,0,m,Fri Mar 21 2025 15:41:50 GMT-0500 (Central Daylight Time),361065.0,004_o_m_d_a.png,O,z,1301,5,1,2328.199999988079,358736.8000000119,7117,VNB,B,4
4,test,3,0.0,1-Back,1,m,Fri Mar 21 2025 15:41:50 GMT-0500 (Central Daylight Time),363448.90000000596,020_y_f_h_a.png,O,m,1360,6,1,2379.699999988079,361069.2000000179,7117,VNB,B,5
5,test,3,0.0,1-Back,1,z,Fri Mar 21 2025 15:41:50 GMT-0500 (Central Daylight Time),366063.59999999404,016_y_m_h_a.png,O,z,1593,7,1,2608.0,363455.59999999404,7117,VNB,B,6
6,test,3,0.0,1-Back,1,m,Fri Mar 21 2025 15:41:50 GMT-0500 (Central Daylight Time),368812.90000000596,011_m_f_n_a.png,O,m,1722,8,1,2745.4000000059605,366067.5,7117,VNB,B,7
7,test,3,0.0,1-Back,1,m,Fri Mar 21 2025 15:41:50 GMT-0500 (Central Daylight Time),371329.7000000179,020_y_f_d_a.png,O,m,1484,9,1,2512.7000000178814,368817.0,7117,VNB,B,8
7,test,3,1.0,1-Back,0,m,Fri Mar 21 2025 15:41:50 GMT-0500 (Central Daylight Time),373727.90000000596,004_o_m_n_a.png,O,z,1377,10,1,2394.4000000059605,371333.5,7117,VNB,B,9
8,test,3,0.0,1-Back,1,m,Fri Mar 21 2025 15:41:50 GMT-0500 (Central Daylight Time),376626.7000000179,007_m_m_h_a.png,O,m,1881,11,1,2894.100000023842,373732.59999999404,7117,VNB,B,10
9,test,3,0.0,1-Back,1,z,Fri Mar 21 2025 15:41:50 GMT-0500 (Central Daylight Time),378993.0,011_m_f_h_a.png,O,z,1342,12,1,2362.199999988079,376630.8000000119,7117,VNB,B,11
10,test,3,1.0,1-Back,1,m,Fri Mar 21 2025 15:41:50 GMT-0500 (Central Daylight Time),381692.09999999404,005_o_f_d_a.png,O,m,1680,13,1,2694.7999999821186,378997.3000000119,7117,VNB,B,12
11,test,3,0.0,1-Back,1,z,Fri Mar 21 2025 15:41:50 GMT-0500 (Central Daylight Time),384041.3000000119,007_m_m_d_a.png,O,z,1317,14,1,2345.2000000178814,381696.09999999404,7117,VNB,B,13
11,test,3,0.0,1-Back,0,m,Fri Mar 21 2025 15:41:50 GMT-0500 (Central Daylight Time),386257.5,016_y_m_n_a.png,O,z,1184,15,1,2211.7999999821186,384045.7000000179,7117,VNB,B,14
12,test,3,1.0,1-Back,1,m,Fri Mar 21 2025 15:41:50 GMT-0500 (Central Daylight Time),388682.59999999404,004_o_m_h_a.png,O,m,1261,16,1,2421.0,386261.59999999404,7117,VNB,B,15
13,test,3,0.0,1-Back,1,m,Fri Mar 21 2025 15:41:50 GMT-0500 (Central Daylight Time),391522.40000000596,016_y_m_d_a.png,O,m,1816,17,1,2835.199999988079,388687.2000000179,7117,VNB,B,16
13,test,3,1.0,1-Back,0,m,Fri Mar 21 2025 15:41:50 GMT-0500 (Central Daylight Time),393771.8000000119,020_y_f_n_a.png,O,z,1223,18,1,2245.2000000178814,391526.59999999404,7117,VNB,B,17
0,test,4,1.0,1-Back,,,Fri Mar 21 2025 15:41:50 GMT-0500 (Central Daylight Time),393771.8000000119,007_m_m_d_a.png,O,space,1941,1,1,2245.2000000178814,391526.59999999404,7117,VNB,B,0
1,test,4,0.0,1-Back,1,z,Fri Mar 21 2025 15:41:50 GMT-0500 (Central Daylight Time),400269.5,004_o_m_d_a.png,O,z,1504,2,1,2527.699999988079,397741.8000000119,7117,VNB,B,1
2,test,4,0.0,1-Back,1,m,Fri Mar 21 2025 15:41:50 GMT-0500 (Central Daylight Time),402552.09999999404,016_y_m_h_a.png,O,m,1252,3,1,2278.199999988079,400273.90000000596,7117,VNB,B,2
2,test,4,0.0,1-Back,0,m,Fri Mar 21 2025 15:41:50 GMT-0500 (Central Daylight Time),404768.09999999404,011_m_f_n_a.png,O,z,1185,4,1,2212.699999988079,402555.40000000596,7117,VNB,B,3
3,test,4,1.0,1-Back,1,m,Fri Mar 21 2025 15:41:50 GMT-0500 (Central Daylight Time),407700.59999999404,005_o_f_h_a.png,O,m,1905,5,1,2928.199999988079,404772.40000000596,7117,VNB,B,4
4,test,4,0.0,1-Back,1,m,Fri Mar 21 2025 15:41:50 GMT-0500 (Central Daylight Time),410066.59999999404,007_m_m_n_a.png,O,m,1340,6,1,2362.7999999821186,407703.8000000119,7117,VNB,B,5
5,test,4,0.0,1-Back,1,m,Fri Mar 21 2025 15:41:50 GMT-0500 (Central Daylight Time),412748.90000000596,016_y_m_d_a.png,O,m,1655,7,1,2678.199999988079,410070.7000000179,7117,VNB,B,6
6,test,4,1.0,1-Back,1,z,Fri Mar 21 2025 15:41:50 GMT-0500 (Central Daylight Time),415331.59999999404,020_y_f_d_a.png,O,z,1564,8,1,2578.699999988079,412752.90000000596,7117,VNB,B,7
7,test,4,0.0,1-Back,1,m,Fri Mar 21 2025 15:41:50 GMT-0500 (Central Daylight Time),417480.8000000119,011_m_f_h_a.png,O,m,1117,9,1,2144.9000000059605,415335.90000000596,7117,VNB,B,8
8,test,4,0.0,1-Back,1,z,Fri Mar 21 2025 15:41:50 GMT-0500 (Central Daylight Time),419863.5,004_o_m_h_a.png,O,z,1352,10,1,2378.5999999940395,417484.90000000596,7117,VNB,B,9
9,test,4,1.0,1-Back,1,m,Fri Mar 21 2025 15:41:50 GMT-0500 (Central Daylight Time),422196.09999999404,005_o_f_n_a.png,O,m,1306,11,1,2329.5,419866.59999999404,7117,VNB,B,10
9,test,4,0.0,1-Back,0,m,Fri Mar 21 2025 15:41:50 GMT-0500 (Central Daylight Time),424962.09999999404,011_m_f_d_a.png,O,z,1749,12,1,2761.7999999821186,422200.3000000119,7117,VNB,B,11
9,test,4,0.0,1-Back,0,m,Fri Mar 21 2025 15:41:50 GMT-0500 (Central Daylight Time),427294.5,020_y_f_n_a.png,O,z,1303,13,1,2328.199999988079,424966.3000000119,7117,VNB,B,12
9,test,4,0.0,1-Back,0,m,Fri Mar 21 2025 15:41:50 GMT-0500 (Central Daylight Time),429594.0,005_o_f_d_a.png,O,z,1283,14,1,2295.0999999940395,427298.90000000596,7117,VNB,B,13
10,test,4,0.0,1-Back,1,m,Fri Mar 21 2025 15:41:50 GMT-0500 (Central Daylight Time),431776.40000000596,020_y_f_h_a.png,O,m,1151,15,1,2178.800000011921,429597.59999999404,7117,VNB,B,14
11,test,4,1.0,1-Back,1,z,Fri Mar 21 2025 15:41:50 GMT-0500 (Central Daylight Time),434025.8000000119,007_m_m_h_a.png,O,z,1217,16,1,2245.300000011921,431780.5,7117,VNB,B,15
12,test,4,0.0,1-Back,1,m,Fri Mar 21 2025 15:41:50 GMT-0500 (Central Daylight Time),436225.0,004_o_m_n_a.png,O,m,1167,17,1,2194.7999999821186,434030.2000000179,7117,VNB,B,16
13,test,4,1.0,1-Back,1,z,Fri Mar 21 2025 15:41:50 GMT-0500 (Central Daylight Time),438591.0,016_y_m_n_a.png,O,z,1336,18,1,2361.5999999940395,436229.40000000596,7117,VNB,B,17
0,test,5,1.0,1-Back,,,Fri Mar 21 2025 15:41:50 GMT-0500 (Central Daylight Time),438591.0,004_o_m_n_a.png,O,space,1778,1,1,2361.5999999940395,436229.40000000596,7117,VNB,B,0
1,test,5,1.0,1-Back,1,m,Fri Mar 21 2025 15:41:50 GMT-0500 (Central Daylight Time),444922.09999999404,005_o_f_h_a.png,O,m,1515,2,1,2528.399999976158,442393.7000000179,7117,VNB,B,1
1,test,5,0.0,1-Back,0,m,Fri Mar 21 2025 15:41:50 GMT-0500 (Central Daylight Time),447654.59999999404,016_y_m_d_a.png,O,z,1703,3,1,2728.399999976158,444926.2000000179,7117,VNB,B,2
1,test,5,0.0,1-Back,0,z,Fri Mar 21 2025 15:41:50 GMT-0500 (Central Daylight Time),450687.40000000596,004_o_m_d_a.png,O,None,2015,4,1,3028.800000011921,447658.59999999404,7117,VNB,B,3
2,test,5,0.0,1-Back,1,m,Fri Mar 21 2025 15:41:50 GMT-0500 (Central Daylight Time),453452.8000000119,011_m_f_h_a.png,O,m,1746,5,1,2761.300000011921,450691.5,7117,VNB,B,4
2,test,5,0.0,1-Back,0,m,Fri Mar 21 2025 15:41:50 GMT-0500 (Central Daylight Time),455618.8000000119,020_y_f_n_a.png,O,z,1139,6,1,2162.5999999940395,453456.2000000179,7117,VNB,B,5
2,test,5,1.0,1-Back,0,z,Fri Mar 21 2025 15:41:50 GMT-0500 (Central Daylight Time),458651.2000000179,005_o_f_n_a.png,O,None,2016,7,1,3028.2000000178814,455623.0,7117,VNB,B,6
2,test,5,0.0,1-Back,0,m,Fri Mar 21 2025 15:41:50 GMT-0500 (Central Daylight Time),461084.90000000596,011_m_f_d_a.png,O,z,1406,8,1,2429.699999988079,458655.2000000179,7117,VNB,B,7
3,test,5,0.0,1-Back,1,m,Fri Mar 21 2025 15:41:50 GMT-0500 (Central Daylight Time),463299.7000000179,016_y_m_h_a.png,O,m,1196,9,1,2210.4000000059605,461089.3000000119,7117,VNB,B,8
4,test,5,0.0,1-Back,1,m,Fri Mar 21 2025 15:41:50 GMT-0500 (Central Daylight Time),465499.09999999404,020_y_f_d_a.png,O,m,1173,10,1,2195.7999999821186,463303.3000000119,7117,VNB,B,9
4,test,5,0.0,1-Back,0,m,Fri Mar 21 2025 15:41:50 GMT-0500 (Central Daylight Time),468398.3000000119,007_m_m_n_a.png,O,z,1878,11,1,2895.9000000059605,465502.40000000596,7117,VNB,B,10
5,test,5,1.0,1-Back,1,z,Fri Mar 21 2025 15:41:50 GMT-0500 (Central Daylight Time),470880.90000000596,011_m_f_n_a.png,O,z,1459,12,1,2478.5,468402.40000000596,7117,VNB,B,11
6,test,5,0.0,1-Back,1,m,Fri Mar 21 2025 15:41:50 GMT-0500 (Central Daylight Time),472963.59999999404,004_o_m_h_a.png,O,m,1064,13,1,2078.5999999940395,470885.0,7117,VNB,B,12
7,test,5,0.0,1-Back,1,z,Fri Mar 21 2025 15:41:50 GMT-0500 (Central Daylight Time),475012.7000000179,007_m_m_h_a.png,O,z,1030,14,1,2045.4000000059605,472967.3000000119,7117,VNB,B,13
8,test,5,1.0,1-Back,1,m,Fri Mar 21 2025 15:41:50 GMT-0500 (Central Daylight Time),477112.0,005_o_f_d_a.png,O,m,1068,15,1,2095.4000000059605,475016.59999999404,7117,VNB,B,14
8,test,5,0.0,1-Back,0,m,Fri Mar 21 2025 15:41:50 GMT-0500 (Central Daylight Time),480144.59999999404,016_y_m_n_a.png,O,None,2016,16,1,3028.5999999940395,477116.0,7117,VNB,B,15
9,test,5,0.0,1-Back,1,m,Fri Mar 21 2025 15:41:50 GMT-0500 (Central Daylight Time),483143.7000000179,020_y_f_h_a.png,O,m,1969,17,1,2994.4000000059605,480149.3000000119,7117,VNB,B,16
10,test,5,0.0,1-Back,1,m,Fri Mar 21 2025 15:41:50 GMT-0500 (Central Daylight Time),485442.59999999404,007_m_m_d_a.png,O,m,1280,18,1,2294.899999976158,483147.7000000179,7117,VNB,B,17
0,prac,1,0.0,2-Back,,,Fri Mar 21 2025 15:41:50 GMT-0500 (Central Daylight Time),485442.59999999404,011_m_f_n_a.png,O,space,11565,1,1,2294.899999976158,483147.7000000179,7117,VNB,B,0
0,prac,1,0.0,2-Back,,,Fri Mar 21 2025 15:41:50 GMT-0500 (Central Daylight Time),485442.59999999404,005_o_f_h_a.png,O,space,11565,2,1,2294.899999976158,483147.7000000179,7117,VNB,B,0
0,prac,1,0.0,2-Back,0,m,Fri Mar 21 2025 15:41:50 GMT-0500 (Central Daylight Time),611137.0,004_o_m_d_a.png,O,z,1951,3,1,2809.5999999940395,608327.400000006,7117,VNB,B,1
0,prac,1,1.0,2-Back,0,z,Fri Mar 21 2025 15:41:50 GMT-0500 (Central Daylight Time),613436.2000000179,007_m_m_h_a.png,O,m,1396,4,1,2293.0,611143.2000000179,7117,VNB,B,2
1,prac,1,0.0,2-Back,1,m,Fri Mar 21 2025 15:41:50 GMT-0500 (Central Daylight Time),616169.099999994,020_y_f_n_a.png,O,m,1852,5,1,2726.399999976158,613442.7000000179,7117,VNB,B,3
1,prac,1,1.0,2-Back,0,z,Fri Mar 21 2025 15:41:50 GMT-0500 (Central Daylight Time),618551.2000000179,004_o_m_h_a.png,O,m,1508,6,1,2374.800000011921,616176.400000006,7117,VNB,B,4
1,prac,1,1.0,2-Back,0,z,Fri Mar 21 2025 15:41:50 GMT-0500 (Central Daylight Time),621450.3000000119,016_y_m_n_a.png,O,None,2004,7,1,2892.4000000059605,618557.900000006,7117,VNB,B,5
1,prac,1,0.0,2-Back,0,m,Fri Mar 21 2025 15:41:50 GMT-0500 (Central Daylight Time),624349.400000006,011_m_f_d_a.png,O,None,2015,8,1,2893.0999999940395,621456.3000000119,7117,VNB,B,6
1,prac,1,0.0,2-Back,0,m,Fri Mar 21 2025 15:41:50 GMT-0500 (Central Daylight Time),626415.599999994,005_o_f_d_a.png,O,z,1172,9,1,2059.5,624356.099999994,7117,VNB,B,7
2,prac,1,0.0,2-Back,1,m,Fri Mar 21 2025 15:41:50 GMT-0500 (Central Daylight Time),628181.400000006,007_m_m_h_a.png,O,m,989,10,1,1760.5,626420.900000006,7117,VNB,B,8
2,prac,1,1.0,2-Back,0,z,Fri Mar 21 2025 15:41:50 GMT-0500 (Central Daylight Time),630397.7000000179,020_y_f_d_a.png,O,m,1328,11,1,2209.7000000178814,628188.0,7117,VNB,B,9
2,prac,1,0.0,2-Back,0,m,Fri Mar 21 2025 15:41:50 GMT-0500 (Central Daylight Time),633096.900000006,004_o_m_n_a.png,O,z,1822,12,1,2692.5,630404.400000006,7117,VNB,B,10
0,prac,2,0.0,2-Back,,,Fri Mar 21 2025 15:41:50 GMT-0500 (Central Daylight Time),633096.900000006,011_m_f_n_a.png,O,a,6861,1,1,2692.5,630404.400000006,7117,VNB,B,0
0,prac,2,0.0,2-Back,,,Fri Mar 21 2025 15:41:50 GMT-0500 (Central Daylight Time),633096.900000006,005_o_f_h_a.png,O,a,6861,2,1,2692.5,630404.400000006,7117,VNB,B,0
1,prac,2,0.0,2-Back,1,m,Fri Mar 21 2025 15:41:50 GMT-0500 (Central Daylight Time),647618.099999994,004_o_m_d_a.png,O,m,1482,3,1,2385.2999999821186,645232.8000000119,7117,VNB,B,1
1,prac,2,1.0,2-Back,0,z,Fri Mar 21 2025 15:41:50 GMT-0500 (Central Daylight Time),649975.0,007_m_m_h_a.png,O,m,1577,4,1,2350.9000000059605,647624.099999994,7117,VNB,B,2
1,prac,2,0.0,2-Back,0,m,Fri Mar 21 2025 15:41:50 GMT-0500 (Central Daylight Time),652857.0,020_y_f_n_a.png,O,None,2015,5,1,2875.0,649982.0,7117,VNB,B,3
1,prac,2,1.0,2-Back,0,z,Fri Mar 21 2025 15:41:50 GMT-0500 (Central Daylight Time),655073.2000000179,004_o_m_h_a.png,O,m,1340,6,1,2210.2000000178814,652863.0,7117,VNB,B,4
2,prac,2,1.0,2-Back,1,z,Fri Mar 21 2025 15:41:50 GMT-0500 (Central Daylight Time),656772.599999994,016_y_m_n_a.png,O,z,802,7,1,1693.0,655079.599999994,7117,VNB,B,5
2,prac,2,0.0,2-Back,0,m,Fri Mar 21 2025 15:41:50 GMT-0500 (Central Daylight Time),658938.7000000179,011_m_f_d_a.png,O,z,1276,8,1,2158.9000000059605,656779.8000000119,7117,VNB,B,6
2,prac,2,0.0,2-Back,0,m,Fri Mar 21 2025 15:41:50 GMT-0500 (Central Daylight Time),661088.0,005_o_f_d_a.png,O,z,1247,9,1,2142.5999999940395,658945.400000006,7117,VNB,B,7
2,prac,2,0.0,2-Back,0,m,Fri Mar 21 2025 15:41:50 GMT-0500 (Central Daylight Time),662987.400000006,007_m_m_h_a.png,O,z,1114,10,1,1892.4000000059605,661095.0,7117,VNB,B,8
2,prac,2,1.0,2-Back,0,z,Fri Mar 21 2025 15:41:50 GMT-0500 (Central Daylight Time),664453.7000000179,020_y_f_d_a.png,O,m,587,11,1,1459.6000000238419,662994.099999994,7117,VNB,B,9
2,prac,2,0.0,2-Back,0,m,Fri Mar 21 2025 15:41:50 GMT-0500 (Central Daylight Time),666586.099999994,004_o_m_n_a.png,O,z,1254,12,1,2125.2999999821186,664460.8000000119,7117,VNB,B,10
0,test,1,0.0,2-Back,,,Fri Mar 21 2025 15:41:50 GMT-0500 (Central Daylight Time),666586.099999994,016_y_m_h_a.png,O,space,13814,1,1,2125.2999999821186,664460.8000000119,7117,VNB,B,0
0,test,1,0.0,2-Back,,,Fri Mar 21 2025 15:41:50 GMT-0500 (Central Daylight Time),666586.099999994,005_o_f_n_a.png,O,space,13814,2,1,2125.2999999821186,664460.8000000119,7117,VNB,B,0
1,test,1,0.0,2-Back,1,z,Fri Mar 21 2025 15:41:50 GMT-0500 (Central Daylight Time),698859.5,004_o_m_h_a.png,O,z,973,3,1,1995.5,696864.0,7117,VNB,B,1
2,test,1,0.0,2-Back,1,m,Fri Mar 21 2025 15:41:50 GMT-0500 (Central Daylight Time),701441.900000006,011_m_f_d_a.png,O,m,1550,4,1,2578.699999988079,698863.2000000179,7117,VNB,B,2
2,test,1,1.0,2-Back,0,m,Fri Mar 21 2025 15:41:50 GMT-0500 (Central Daylight Time),703991.0,016_y_m_n_a.png,O,z,1527,5,1,2545.4000000059605,701445.599999994,7117,VNB,B,3
2,test,1,0.0,2-Back,0,z,Fri Mar 21 2025 15:41:50 GMT-0500 (Central Daylight Time),706440.400000006,020_y_f_d_a.png,O,m,1426,6,1,2445.4000000059605,703995.0,7117,VNB,B,4
3,test,1,0.0,2-Back,1,m,Fri Mar 21 2025 15:41:50 GMT-0500 (Central Daylight Time),708706.2000000179,007_m_m_h_a.png,O,m,1249,7,1,2261.4000000059605,706444.8000000119,7117,VNB,B,5
3,test,1,1.0,2-Back,0,m,Fri Mar 21 2025 15:41:50 GMT-0500 (Central Daylight Time),711455.5,020_y_f_n_a.png,O,z,1727,8,1,2745.5,708710.0,7117,VNB,B,6
4,test,1,0.0,2-Back,1,z,Fri Mar 21 2025 15:41:50 GMT-0500 (Central Daylight Time),714287.8000000119,005_o_f_h_a.png,O,z,1810,9,1,2828.7000000178814,711459.099999994,7117,VNB,B,7
5,test,1,0.0,2-Back,1,m,Fri Mar 21 2025 15:41:50 GMT-0500 (Central Daylight Time),717087.2000000179,004_o_m_d_a.png,O,m,1777,10,1,2795.5,714291.7000000179,7117,VNB,B,8
6,test,1,1.0,2-Back,1,m,Fri Mar 21 2025 15:41:50 GMT-0500 (Central Daylight Time),719619.7000000179,007_m_m_d_a.png,O,m,1518,11,1,2528.7000000178814,717091.0,7117,VNB,B,9
6,test,1,0.0,2-Back,0,m,Fri Mar 21 2025 15:41:50 GMT-0500 (Central Daylight Time),722368.7000000179,011_m_f_n_a.png,O,z,1726,12,1,2744.800000011921,719623.900000006,7117,VNB,B,10
6,test,1,0.0,2-Back,0,m,Fri Mar 21 2025 15:41:50 GMT-0500 (Central Daylight Time),725401.0,020_y_f_h_a.png,O,None,2015,13,1,3028.5,722372.5,7117,VNB,B,11
6,test,1,0.0,2-Back,0,z,Fri Mar 21 2025 15:41:50 GMT-0500 (Central Daylight Time),727983.5,007_m_m_n_a.png,O,m,1552,14,1,2578.7999999821186,725404.7000000179,7117,VNB,B,12
6,test,1,0.0,2-Back,0,m,Fri Mar 21 2025 15:41:50 GMT-0500 (Central Daylight Time),730284.0,016_y_m_d_a.png,O,z,1281,15,1,2297.0999999940395,727986.900000006,7117,VNB,B,13
6,test,1,1.0,2-Back,0,m,Fri Mar 21 2025 15:41:50 GMT-0500 (Central Daylight Time),733298.400000006,011_m_f_h_a.png,O,z,1999,16,1,3010.4000000059605,730288.0,7117,VNB,B,14
6,test,1,0.0,2-Back,0,z,Fri Mar 21 2025 15:41:50 GMT-0500 (Central Daylight Time),735697.8000000119,005_o_f_d_a.png,O,m,1375,17,1,2395.5999999940395,733302.2000000179,7117,VNB,B,15
7,test,1,0.0,2-Back,1,m,Fri Mar 21 2025 15:41:50 GMT-0500 (Central Daylight Time),737930.3000000119,004_o_m_n_a.png,O,m,1215,18,1,2228.5999999940395,735701.7000000179,7117,VNB,B,16
0,test,2,0.0,2-Back,,,Fri Mar 21 2025 15:41:50 GMT-0500 (Central Daylight Time),737930.3000000119,007_m_m_h_a.png,O,space,2494,1,1,2228.5999999940395,735701.7000000179,7117,VNB,B,0
0,test,2,0.0,2-Back,,,Fri Mar 21 2025 15:41:50 GMT-0500 (Central Daylight Time),737930.3000000119,020_y_f_n_a.png,O,space,2494,2,1,2228.5999999940395,735701.7000000179,7117,VNB,B,0
0,test,2,1.0,2-Back,0,z,Fri Mar 21 2025 15:41:50 GMT-0500 (Central Daylight Time),748727.3000000119,005_o_f_h_a.png,O,None,2015,3,1,3029.0999999940395,745698.2000000179,7117,VNB,B,1
1,test,2,0.0,2-Back,1,m,Fri Mar 21 2025 15:41:50 GMT-0500 (Central Daylight Time),751009.900000006,004_o_m_d_a.png,O,m,1258,4,1,2278.699999988079,748731.2000000179,7117,VNB,B,2
1,test,2,0.0,2-Back,0,m,Fri Mar 21 2025 15:41:50 GMT-0500 (Central Daylight Time),754042.2000000179,011_m_f_d_a.png,O,None,2016,5,1,3027.800000011921,751014.400000006,7117,VNB,B,3
1,test,2,0.0,2-Back,0,m,Fri Mar 21 2025 15:41:50 GMT-0500 (Central Daylight Time),756941.2000000179,016_y_m_h_a.png,O,z,1879,6,1,2895.0,754046.2000000179,7117,VNB,B,4
1,test,2,0.0,2-Back,0,m,Fri Mar 21 2025 15:41:50 GMT-0500 (Central Daylight Time),759973.7000000179,005_o_f_n_a.png,O,None,2016,7,1,3028.600000023842,756945.099999994,7117,VNB,B,5
1,test,2,1.0,2-Back,0,z,Fri Mar 21 2025 15:41:50 GMT-0500 (Central Daylight Time),761990.2000000179,004_o_m_h_a.png,O,m,988,8,1,2013.0,759977.2000000179,7117,VNB,B,6
1,test,2,0.0,2-Back,0,m,Fri Mar 21 2025 15:41:50 GMT-0500 (Central Daylight Time),764938.7000000179,020_y_f_d_a.png,O,z,1924,9,1,2944.7000000178814,761994.0,7117,VNB,B,7
2,test,2,0.0,2-Back,1,m,Fri Mar 21 2025 15:41:50 GMT-0500 (Central Daylight Time),767704.7000000179,016_y_m_d_a.png,O,m,1734,10,1,2762.300000011921,764942.400000006,7117,VNB,B,8
2,test,2,0.0,2-Back,0,m,Fri Mar 21 2025 15:41:50 GMT-0500 (Central Daylight Time),770470.3000000119,007_m_m_n_a.png,O,z,1745,11,1,2761.800000011921,767708.5,7117,VNB,B,9
2,test,2,0.0,2-Back,0,m,Fri Mar 21 2025 15:41:50 GMT-0500 (Central Daylight Time),773502.900000006,011_m_f_h_a.png,O,None,2016,12,1,3028.800000011921,770474.099999994,7117,VNB,B,10
2,test,2,1.0,2-Back,0,z,Fri Mar 21 2025 15:41:50 GMT-0500 (Central Daylight Time),776118.599999994,004_o_m_n_a.png,O,m,1587,13,1,2611.7999999821186,773506.8000000119,7117,VNB,B,11
2,test,2,0.0,2-Back,0,m,Fri Mar 21 2025 15:41:50 GMT-0500 (Central Daylight Time),778451.099999994,005_o_f_d_a.png,O,z,1314,14,1,2328.0999999940395,776123.0,7117,VNB,B,12
3,test,2,0.0,2-Back,1,m,Fri Mar 21 2025 15:41:50 GMT-0500 (Central Daylight Time),781467.0,020_y_f_h_a.png,O,m,1990,15,1,3011.699999988079,778455.3000000119,7117,VNB,B,13
3,test,2,0.0,2-Back,0,z,Fri Mar 21 2025 15:41:50 GMT-0500 (Central Daylight Time),784382.8000000119,007_m_m_d_a.png,O,m,1894,16,1,2911.9000000059605,781470.900000006,7117,VNB,B,14
3,test,2,0.0,2-Back,0,m,Fri Mar 21 2025 15:41:50 GMT-0500 (Central Daylight Time),786998.5,016_y_m_n_a.png,O,z,1595,17,1,2611.7999999821186,784386.7000000179,7117,VNB,B,15
3,test,2,1.0,2-Back,0,m,Fri Mar 21 2025 15:41:50 GMT-0500 (Central Daylight Time),789547.400000006,011_m_f_n_a.png,O,z,1521,18,1,2544.199999988079,787003.2000000179,7117,VNB,B,16
0,test,3,1.0,2-Back,,,Fri Mar 21 2025 15:41:50 GMT-0500 (Central Daylight Time),789547.400000006,004_o_m_n_a.png,O,space,1854,1,1,2544.199999988079,787003.2000000179,7117,VNB,B,0
0,test,3,1.0,2-Back,,,Fri Mar 21 2025 15:41:50 GMT-0500 (Central Daylight Time),789547.400000006,005_o_f_d_a.png,O,space,1854,2,1,2544.199999988079,787003.2000000179,7117,VNB,B,0
1,test,3,0.0,2-Back,1,m,Fri Mar 21 2025 15:41:50 GMT-0500 (Central Daylight Time),799294.599999994,020_y_f_h_a.png,O,m,1620,3,1,2644.699999988079,796649.900000006,7117,VNB,B,1
2,test,3,0.0,2-Back,1,z,Fri Mar 21 2025 15:41:50 GMT-0500 (Central Daylight Time),801460.900000006,011_m_f_d_a.png,O,z,1139,4,1,2162.300000011921,799298.599999994,7117,VNB,B,2
2,test,3,1.0,2-Back,0,m,Fri Mar 21 2025 15:41:50 GMT-0500 (Central Daylight Time),803993.2000000179,016_y_m_n_a.png,O,z,1507,5,1,2527.800000011921,801465.400000006,7117,VNB,B,3
2,test,3,0.0,2-Back,0,m,Fri Mar 21 2025 15:41:50 GMT-0500 (Central Daylight Time),806875.599999994,004_o_m_h_a.png,O,z,1856,6,1,2878.399999976158,803997.2000000179,7117,VNB,B,4
2,test,3,0.0,2-Back,0,z,Fri Mar 21 2025 15:41:50 GMT-0500 (Central Daylight Time),809908.3000000119,020_y_f_n_a.png,O,None,2016,7,1,3028.5999999940395,806879.7000000179,7117,VNB,B,5
3,test,3,1.0,2-Back,1,m,Fri Mar 21 2025 15:41:50 GMT-0500 (Central Daylight Time),812453.3000000119,007_m_m_d_a.png,O,m,1511,8,1,2541.2000000178814,809912.099999994,7117,VNB,B,6
3,test,3,0.0,2-Back,0,m,Fri Mar 21 2025 15:41:50 GMT-0500 (Central Daylight Time),815489.599999994,016_y_m_d_a.png,O,None,2016,9,1,3031.899999976158,812457.7000000179,7117,VNB,B,7
4,test,3,0.0,2-Back,1,m,Fri Mar 21 2025 15:41:50 GMT-0500 (Central Daylight Time),818221.900000006,005_o_f_h_a.png,O,m,1704,10,1,2729.199999988079,815492.7000000179,7117,VNB,B,8
4,test,3,1.0,2-Back,0,m,Fri Mar 21 2025 15:41:50 GMT-0500 (Central Daylight Time),820687.7000000179,011_m_f_n_a.png,O,z,1443,11,1,2461.800000011921,818225.900000006,7117,VNB,B,9
4,test,3,1.0,2-Back,0,z,Fri Mar 21 2025 15:41:50 GMT-0500 (Central Daylight Time),823053.900000006,007_m_m_h_a.png,O,m,1337,12,1,2361.699999988079,820692.2000000179,7117,VNB,B,10
4,test,3,0.0,2-Back,0,m,Fri Mar 21 2025 15:41:50 GMT-0500 (Central Daylight Time),825653.099999994,020_y_f_d_a.png,O,z,1579,13,1,2595.899999976158,823057.2000000179,7117,VNB,B,11
5,test,3,0.0,2-Back,1,m,Fri Mar 21 2025 15:41:50 GMT-0500 (Central Daylight Time),828402.2000000179,005_o_f_n_a.png,O,m,1732,14,1,2745.300000011921,825656.900000006,7117,VNB,B,12
6,test,3,0.0,2-Back,1,z,Fri Mar 21 2025 15:41:50 GMT-0500 (Central Daylight Time),830784.7000000179,004_o_m_d_a.png,O,z,1359,15,1,2378.800000011921,828405.900000006,7117,VNB,B,13
7,test,3,1.0,2-Back,1,m,Fri Mar 21 2025 15:41:50 GMT-0500 (Central Daylight Time),833333.900000006,011_m_f_h_a.png,O,m,1520,16,1,2545.5,830788.400000006,7117,VNB,B,14
8,test,3,0.0,2-Back,1,m,Fri Mar 21 2025 15:41:50 GMT-0500 (Central Daylight Time),835979.0,007_m_m_n_a.png,O,m,1628,17,1,2641.0,833338.0,7117,VNB,B,15
9,test,3,0.0,2-Back,1,z,Fri Mar 21 2025 15:41:50 GMT-0500 (Central Daylight Time),838315.8000000119,016_y_m_h_a.png,O,z,1306,18,1,2332.5,835983.3000000119,7117,VNB,B,16
0,test,4,0.0,2-Back,,,Fri Mar 21 2025 15:41:50 GMT-0500 (Central Daylight Time),838315.8000000119,011_m_f_n_a.png,O,space,1645,1,1,2332.5,835983.3000000119,7117,VNB,B,0
0,test,4,0.0,2-Back,,,Fri Mar 21 2025 15:41:50 GMT-0500 (Central Daylight Time),838315.8000000119,004_o_m_n_a.png,O,space,1645,2,1,2332.5,835983.3000000119,7117,VNB,B,0
0,test,4,1.0,2-Back,0,m,Fri Mar 21 2025 15:41:50 GMT-0500 (Central Daylight Time),848229.599999994,016_y_m_h_a.png,O,None,2015,3,1,3029.399999976158,845200.2000000179,7117,VNB,B,1
0,test,4,1.0,2-Back,0,m,Fri Mar 21 2025 15:41:50 GMT-0500 (Central Daylight Time),850511.8000000119,005_o_f_d_a.png,O,z,1252,4,1,2278.300000011921,848233.5,7117,VNB,B,2
0,test,4,0.0,2-Back,0,z,Fri Mar 21 2025 15:41:50 GMT-0500 (Central Daylight Time),852611.2000000179,004_o_m_h_a.png,O,m,1081,5,1,2096.2000000178814,850515.0,7117,VNB,B,3
0,test,4,0.0,2-Back,0,m,Fri Mar 21 2025 15:41:50 GMT-0500 (Central Daylight Time),855643.7000000179,007_m_m_n_a.png,O,None,2016,6,1,3028.600000023842,852615.099999994,7117,VNB,B,4
0,test,4,0.0,2-Back,0,m,Fri Mar 21 2025 15:41:50 GMT-0500 (Central Daylight Time),858477.3000000119,011_m_f_d_a.png,O,z,1806,7,1,2829.5999999940395,855647.7000000179,7117,VNB,B,5
1,test,4,0.0,2-Back,1,z,Fri Mar 21 2025 15:41:50 GMT-0500 (Central Daylight Time),860842.099999994,020_y_f_n_a.png,O,z,1306,8,1,2360.5,858481.599999994,7117,VNB,B,6
2,test,4,1.0,2-Back,1,m,Fri Mar 21 2025 15:41:50 GMT-0500 (Central Daylight Time),863791.099999994,005_o_f_h_a.png,O,m,1927,9,1,2945.0999999940395,860846.0,7117,VNB,B,7
2,test,4,0.0,2-Back,0,m,Fri Mar 21 2025 15:41:50 GMT-0500 (Central Daylight Time),866823.5,007_m_m_h_a.png,O,None,2016,10,1,3028.2999999821186,863795.2000000179,7117,VNB,B,8
3,test,4,0.0,2-Back,1,m,Fri Mar 21 2025 15:41:50 GMT-0500 (Central Daylight Time),869622.599999994,020_y_f_d_a.png,O,m,1770,11,1,2795.199999988079,866827.400000006,7117,VNB,B,9
3,test,4,0.0,2-Back,0,m,Fri Mar 21 2025 15:41:50 GMT-0500 (Central Daylight Time),872123.099999994,016_y_m_n_a.png,O,z,1467,12,1,2497.199999988079,869625.900000006,7117,VNB,B,10
4,test,4,0.0,2-Back,1,z,Fri Mar 21 2025 15:41:50 GMT-0500 (Central Daylight Time),874904.3000000119,004_o_m_d_a.png,O,z,1759,13,1,2776.9000000059605,872127.400000006,7117,VNB,B,11
5,test,4,1.0,2-Back,1,m,Fri Mar 21 2025 15:41:50 GMT-0500 (Central Daylight Time),877870.0,011_m_f_h_a.png,O,m,1937,14,1,2961.9000000059605,874908.099999994,7117,VNB,B,12
5,test,4,1.0,2-Back,0,m,Fri Mar 21 2025 15:41:50 GMT-0500 (Central Daylight Time),880902.5,020_y_f_h_a.png,O,None,2015,15,1,3028.5999999940395,877873.900000006,7117,VNB,B,13
5,test,4,0.0,2-Back,0,m,Fri Mar 21 2025 15:41:50 GMT-0500 (Central Daylight Time),883045.8000000119,005_o_f_n_a.png,O,z,1126,16,1,2139.0999999940395,880906.7000000179,7117,VNB,B,14
5,test,4,0.0,2-Back,0,m,Fri Mar 21 2025 15:41:50 GMT-0500 (Central Daylight Time),886084.099999994,016_y_m_d_a.png,O,None,2016,17,1,3034.199999988079,883049.900000006,7117,VNB,B,15
5,test,4,1.0,2-Back,0,m,Fri Mar 21 2025 15:41:50 GMT-0500 (Central Daylight Time),888166.900000006,007_m_m_d_a.png,O,z,1061,18,1,2078.4000000059605,886088.5,7117,VNB,B,16
0,test,5,1.0,2-Back,,,Fri Mar 21 2025 15:41:50 GMT-0500 (Central Daylight Time),888166.900000006,020_y_f_d_a.png,O,space,2178,1,1,2078.4000000059605,886088.5,7117,VNB,B,0
0,test,5,1.0,2-Back,,,Fri Mar 21 2025 15:41:50 GMT-0500 (Central Daylight Time),888166.900000006,005_o_f_h_a.png,O,space,2178,2,1,2078.4000000059605,886088.5,7117,VNB,B,0
1,test,5,1.0,2-Back,1,z,Fri Mar 21 2025 15:41:50 GMT-0500 (Central Daylight Time),897730.599999994,004_o_m_d_a.png,O,z,1107,3,1,2128.7999999821186,895601.8000000119,7117,VNB,B,1
2,test,5,1.0,2-Back,1,m,Fri Mar 21 2025 15:41:50 GMT-0500 (Central Daylight Time),900629.599999994,011_m_f_n_a.png,O,m,1879,4,1,2895.0999999940395,897734.5,7117,VNB,B,2
2,test,5,0.0,2-Back,0,m,Fri Mar 21 2025 15:41:50 GMT-0500 (Central Daylight Time),903662.5,007_m_m_h_a.png,O,None,2015,5,1,3028.9000000059605,900633.599999994,7117,VNB,B,3
2,test,5,0.0,2-Back,0,z,Fri Mar 21 2025 15:41:50 GMT-0500 (Central Daylight Time),906044.599999994,020_y_f_n_a.png,O,m,1363,6,1,2377.7999999821186,903666.8000000119,7117,VNB,B,4
3,test,5,0.0,2-Back,1,m,Fri Mar 21 2025 15:41:50 GMT-0500 (Central Daylight Time),908460.599999994,005_o_f_d_a.png,O,m,1388,7,1,2412.0999999940395,906048.5,7117,VNB,B,5
4,test,5,0.0,2-Back,1,m,Fri Mar 21 2025 15:41:50 GMT-0500 (Central Daylight Time),911176.2000000179,004_o_m_h_a.png,O,m,1685,8,1,2711.7000000178814,908464.5,7117,VNB,B,6
5,test,5,1.0,2-Back,1,z,Fri Mar 21 2025 15:41:50 GMT-0500 (Central Daylight Time),913459.0,011_m_f_d_a.png,O,z,1257,9,1,2278.5,911180.5,7117,VNB,B,7
6,test,5,0.0,2-Back,1,m,Fri Mar 21 2025 15:41:50 GMT-0500 (Central Daylight Time),916074.5,016_y_m_n_a.png,O,m,1598,10,1,2611.4000000059605,913463.099999994,7117,VNB,B,8
7,test,5,0.0,2-Back,1,m,Fri Mar 21 2025 15:41:50 GMT-0500 (Central Daylight Time),918457.400000006,007_m_m_n_a.png,O,m,1358,11,1,2379.0,916078.400000006,7117,VNB,B,9
7,test,5,0.0,2-Back,0,m,Fri Mar 21 2025 15:41:50 GMT-0500 (Central Daylight Time),920789.8000000119,020_y_f_h_a.png,O,z,1312,12,1,2328.5,918461.3000000119,7117,VNB,B,10
7,test,5,0.0,2-Back,0,m,Fri Mar 21 2025 15:41:50 GMT-0500 (Central Daylight Time),923422.400000006,016_y_m_d_a.png,O,z,1603,13,1,2628.699999988079,920793.7000000179,7117,VNB,B,11
7,test,5,1.0,2-Back,0,z,Fri Mar 21 2025 15:41:50 GMT-0500 (Central Daylight Time),925571.7000000179,011_m_f_h_a.png,O,m,1131,14,1,2145.4000000059605,923426.3000000119,7117,VNB,B,12
7,test,5,0.0,2-Back,0,m,Fri Mar 21 2025 15:41:50 GMT-0500 (Central Daylight Time),928554.2000000179,004_o_m_n_a.png,O,z,1966,15,1,2978.600000023842,925575.599999994,7117,VNB,B,13
8,test,5,0.0,2-Back,1,m,Fri Mar 21 2025 15:41:50 GMT-0500 (Central Daylight Time),931136.7000000179,007_m_m_d_a.png,O,m,1551,16,1,2578.9000000059605,928557.8000000119,7117,VNB,B,14
9,test,5,0.0,2-Back,1,z,Fri Mar 21 2025 15:41:50 GMT-0500 (Central Daylight Time),933602.8000000119,005_o_f_n_a.png,O,z,1440,17,1,2462.300000011921,931140.5,7117,VNB,B,15
10,test,5,1.0,2-Back,1,m,Fri Mar 21 2025 15:41:50 GMT-0500 (Central Daylight Time),936501.7000000179,016_y_m_h_a.png,O,m,1879,18,1,2895.100000023842,933606.599999994,7117,VNB,B,16
