acc_sum,block,block_c,change,condition,correct,correct_response,datetime,endtime,face,project,response,response_time,row_sel,session_number,start_end,starttime,subject_id,task,task_vers,trial
0,prac,1,,1-Back,,,Fri Oct 11 2024 15:48:21 GMT-0500 (Central Daylight Time),,050_m_f_n_a.png,O,space,13754,1,1,,,7025,NNB,A,0
1,prac,1,0.0,1-Back,1,m,Fri Oct 11 2024 15:48:21 GMT-0500 (Central Daylight Time),149183.0,063_y_f_n_a.png,O,m,712,2,1,1524.6000000014901,147658.3999999985,7025,NNB,A,1
1,prac,1,1.0,1-Back,0,z,Fri Oct 11 2024 15:48:21 GMT-0500 (Central Daylight Time),151965.6000000015,063_y_f_n_a.png,O,None,2008,3,1,2775.10000000149,149190.5,7025,NNB,A,2
2,prac,1,0.0,1-Back,1,m,Fri Oct 11 2024 15:48:21 GMT-0500 (Central Daylight Time),153848.30000000447,053_o_m_n_a.png,O,m,1083,4,1,1875.5,151972.80000000447,7025,NNB,A,3
3,prac,1,0.0,1-Back,1,m,Fri Oct 11 2024 15:48:21 GMT-0500 (Central Daylight Time),155464.5,058_m_m_n_a.png,O,m,802,5,1,1609.2999999970198,153855.20000000298,7025,NNB,A,4
3,prac,1,1.0,1-Back,0,z,Fri Oct 11 2024 15:48:21 GMT-0500 (Central Daylight Time),156730.70000000298,058_m_m_n_a.png,O,m,490,6,1,1259.5,155471.20000000298,7025,NNB,A,5
4,prac,1,0.0,1-Back,1,m,Fri Oct 11 2024 15:48:21 GMT-0500 (Central Daylight Time),158513.70000000298,047_o_f_n_a.png,O,m,943,7,1,1775.5,156738.20000000298,7025,NNB,A,6
5,prac,1,0.0,1-Back,1,m,Fri Oct 11 2024 15:48:21 GMT-0500 (Central Daylight Time),159946.3999999985,045_m_m_n_a.png,O,m,633,8,1,1425.3999999985099,158521.0,7025,NNB,A,7
6,prac,1,0.0,1-Back,1,m,Fri Oct 11 2024 15:48:21 GMT-0500 (Central Daylight Time),161329.3999999985,050_m_f_n_a.png,O,m,600,9,1,1375.6999999955297,159953.70000000298,7025,NNB,A,8
7,prac,1,1.0,1-Back,1,z,Fri Oct 11 2024 15:48:21 GMT-0500 (Central Daylight Time),162645.5,050_m_f_n_a.png,O,z,529,10,1,1308.7999999970198,161336.70000000298,7025,NNB,A,9
8,prac,1,0.0,1-Back,1,m,Fri Oct 11 2024 15:48:21 GMT-0500 (Central Daylight Time),164095.0,053_o_m_n_a.png,O,m,661,11,1,1442.1000000014901,162652.8999999985,7025,NNB,A,10
9,prac,1,0.0,1-Back,1,m,Fri Oct 11 2024 15:48:21 GMT-0500 (Central Daylight Time),166227.8999999985,010_y_f_n_a.png,O,m,1314,12,1,2125.0999999940395,164102.80000000447,7025,NNB,A,11
0,test,1,0.0,1-Back,,,Fri Oct 11 2024 15:48:21 GMT-0500 (Central Daylight Time),166227.8999999985,063_y_f_n_a.png,O,space,13574,1,1,2125.0999999940395,164102.80000000447,7025,NNB,A,0
1,test,1,0.0,1-Back,1,m,Fri Oct 11 2024 15:48:21 GMT-0500 (Central Daylight Time),189503.70000000298,043_m_f_n_a.png,O,m,485,2,1,1625.8000000044703,187877.8999999985,7025,NNB,A,1
2,test,1,0.0,1-Back,1,m,Fri Oct 11 2024 15:48:21 GMT-0500 (Central Daylight Time),191503.0,010_y_f_n_a.png,O,m,970,3,1,1993.5,189509.5,7025,NNB,A,2
3,test,1,1.0,1-Back,1,z,Fri Oct 11 2024 15:48:21 GMT-0500 (Central Daylight Time),193319.20000000298,010_y_f_n_a.png,O,z,786,4,1,1810.1000000014901,191509.1000000015,7025,NNB,A,3
4,test,1,0.0,1-Back,1,m,Fri Oct 11 2024 15:48:21 GMT-0500 (Central Daylight Time),195018.3999999985,043_m_f_n_a.png,O,m,682,5,1,1693.2999999970198,193325.1000000015,7025,NNB,A,4
5,test,1,0.0,1-Back,1,m,Fri Oct 11 2024 15:48:21 GMT-0500 (Central Daylight Time),196668.0,053_o_m_n_a.png,O,m,623,6,1,1643.6999999955297,195024.30000000447,7025,NNB,A,5
6,test,1,1.0,1-Back,1,z,Fri Oct 11 2024 15:48:21 GMT-0500 (Central Daylight Time),198217.6000000015,053_o_m_n_a.png,O,z,532,7,1,1544.0,196673.6000000015,7025,NNB,A,6
7,test,1,0.0,1-Back,1,m,Fri Oct 11 2024 15:48:21 GMT-0500 (Central Daylight Time),199967.1000000015,058_m_m_n_a.png,O,m,720,8,1,1743.5,198223.6000000015,7025,NNB,A,7
7,test,1,0.0,1-Back,0,m,Fri Oct 11 2024 15:48:21 GMT-0500 (Central Daylight Time),201600.1000000015,047_o_f_n_a.png,O,z,602,9,1,1626.8999999985099,199973.20000000298,7025,NNB,A,8
8,test,1,0.0,1-Back,1,m,Fri Oct 11 2024 15:48:21 GMT-0500 (Central Daylight Time),203466.0,058_m_m_n_a.png,O,m,833,10,1,1859.7999999970198,201606.20000000298,7025,NNB,A,9
9,test,1,0.0,1-Back,1,m,Fri Oct 11 2024 15:48:21 GMT-0500 (Central Daylight Time),205215.5,041_y_m_n_a.png,O,m,728,11,1,1743.2999999970198,203472.20000000298,7025,NNB,A,10
10,test,1,1.0,1-Back,1,z,Fri Oct 11 2024 15:48:21 GMT-0500 (Central Daylight Time),206931.3999999985,041_y_m_n_a.png,O,z,698,12,1,1709.7999999970198,205221.6000000015,7025,NNB,A,11
11,test,1,0.0,1-Back,1,m,Fri Oct 11 2024 15:48:21 GMT-0500 (Central Daylight Time),208664.3999999985,044_o_f_n_a.png,O,m,702,13,1,1727.5999999940395,206936.80000000447,7025,NNB,A,12
12,test,1,1.0,1-Back,1,z,Fri Oct 11 2024 15:48:21 GMT-0500 (Central Daylight Time),210515.0,044_o_f_n_a.png,O,z,825,14,1,1844.6999999955297,208670.30000000447,7025,NNB,A,13
13,test,1,0.0,1-Back,1,m,Fri Oct 11 2024 15:48:21 GMT-0500 (Central Daylight Time),212213.30000000447,008_y_m_n_a.png,O,m,679,15,1,1692.1000000014901,210521.20000000298,7025,NNB,A,14
14,test,1,0.0,1-Back,1,m,Fri Oct 11 2024 15:48:21 GMT-0500 (Central Daylight Time),213979.30000000447,050_m_f_n_a.png,O,m,740,16,1,1759.9000000059605,212219.3999999985,7025,NNB,A,15
15,test,1,0.0,1-Back,1,m,Fri Oct 11 2024 15:48:21 GMT-0500 (Central Daylight Time),215562.20000000298,046_o_m_n_a.png,O,m,566,17,1,1576.8000000044703,213985.3999999985,7025,NNB,A,16
16,test,1,0.0,1-Back,1,m,Fri Oct 11 2024 15:48:21 GMT-0500 (Central Daylight Time),217161.80000000447,050_m_f_n_a.png,O,m,567,18,1,1593.5,215568.30000000447,7025,NNB,A,17
0,test,2,0.0,1-Back,,,Fri Oct 11 2024 15:48:21 GMT-0500 (Central Daylight Time),217161.80000000447,058_m_m_n_a.png,O,space,2232,1,1,1593.5,215568.30000000447,7025,NNB,A,0
1,test,2,0.0,1-Back,1,m,Fri Oct 11 2024 15:48:21 GMT-0500 (Central Daylight Time),222926.70000000298,043_m_f_n_a.png,O,m,494,2,1,1510.3000000044703,221416.3999999985,7025,NNB,A,1
2,test,2,1.0,1-Back,1,z,Fri Oct 11 2024 15:48:21 GMT-0500 (Central Daylight Time),224359.5,043_m_f_n_a.png,O,z,403,3,1,1427.0,222932.5,7025,NNB,A,2
3,test,2,0.0,1-Back,1,m,Fri Oct 11 2024 15:48:21 GMT-0500 (Central Daylight Time),225860.1000000015,058_m_m_n_a.png,O,m,474,4,1,1494.6000000014901,224365.5,7025,NNB,A,3
4,test,2,0.0,1-Back,1,m,Fri Oct 11 2024 15:48:21 GMT-0500 (Central Daylight Time),227459.6000000015,041_y_m_n_a.png,O,m,582,5,1,1592.8999999985099,225866.70000000298,7025,NNB,A,4
4,test,2,0.0,1-Back,0,m,Fri Oct 11 2024 15:48:21 GMT-0500 (Central Daylight Time),229174.80000000447,063_y_f_n_a.png,O,z,695,6,1,1709.7000000029802,227465.1000000015,7025,NNB,A,5
5,test,2,1.0,1-Back,1,z,Fri Oct 11 2024 15:48:21 GMT-0500 (Central Daylight Time),230974.1000000015,063_y_f_n_a.png,O,z,771,7,1,1793.1000000014901,229181.0,7025,NNB,A,6
6,test,2,0.0,1-Back,1,m,Fri Oct 11 2024 15:48:21 GMT-0500 (Central Daylight Time),232490.0,041_y_m_n_a.png,O,m,491,8,1,1509.6000000014901,230980.3999999985,7025,NNB,A,7
7,test,2,0.0,1-Back,1,m,Fri Oct 11 2024 15:48:21 GMT-0500 (Central Daylight Time),234073.1000000015,044_o_f_n_a.png,O,m,550,9,1,1577.0,232496.1000000015,7025,NNB,A,8
8,test,2,0.0,1-Back,1,m,Fri Oct 11 2024 15:48:21 GMT-0500 (Central Daylight Time),235969.8999999985,045_m_m_n_a.png,O,m,880,10,1,1890.3999999985099,234079.5,7025,NNB,A,9
9,test,2,1.0,1-Back,1,z,Fri Oct 11 2024 15:48:21 GMT-0500 (Central Daylight Time),237688.6000000015,045_m_m_n_a.png,O,z,685,11,1,1712.3999999985099,235976.20000000298,7025,NNB,A,10
10,test,2,0.0,1-Back,1,m,Fri Oct 11 2024 15:48:21 GMT-0500 (Central Daylight Time),239288.1000000015,044_o_f_n_a.png,O,m,569,12,1,1593.5,237694.6000000015,7025,NNB,A,11
11,test,2,0.0,1-Back,1,m,Fri Oct 11 2024 15:48:21 GMT-0500 (Central Daylight Time),240737.80000000447,047_o_f_n_a.png,O,m,417,13,1,1444.0,239293.80000000447,7025,NNB,A,12
12,test,2,0.0,1-Back,1,m,Fri Oct 11 2024 15:48:21 GMT-0500 (Central Daylight Time),242387.1000000015,053_o_m_n_a.png,O,m,632,14,1,1643.2000000029802,240743.8999999985,7025,NNB,A,13
13,test,2,0.0,1-Back,1,m,Fri Oct 11 2024 15:48:21 GMT-0500 (Central Daylight Time),243969.80000000447,046_o_m_n_a.png,O,m,550,15,1,1576.0,242393.80000000447,7025,NNB,A,14
14,test,2,1.0,1-Back,1,z,Fri Oct 11 2024 15:48:21 GMT-0500 (Central Daylight Time),245552.70000000298,046_o_m_n_a.png,O,z,559,16,1,1576.7000000029802,243976.0,7025,NNB,A,15
15,test,2,0.0,1-Back,1,m,Fri Oct 11 2024 15:48:21 GMT-0500 (Central Daylight Time),247020.1000000015,008_y_m_n_a.png,O,m,448,17,1,1461.0,245559.1000000015,7025,NNB,A,16
16,test,2,1.0,1-Back,1,z,Fri Oct 11 2024 15:48:21 GMT-0500 (Central Daylight Time),248719.70000000298,008_y_m_n_a.png,O,z,670,18,1,1693.5,247026.20000000298,7025,NNB,A,17
0,test,3,1.0,1-Back,,,Fri Oct 11 2024 15:48:21 GMT-0500 (Central Daylight Time),248719.70000000298,010_y_f_n_a.png,O,space,1361,1,1,1693.5,247026.20000000298,7025,NNB,A,0
1,test,3,0.0,1-Back,1,m,Fri Oct 11 2024 15:48:21 GMT-0500 (Central Daylight Time),253666.8999999985,046_o_m_n_a.png,O,m,491,2,1,1510.6999999955297,252156.20000000298,7025,NNB,A,1
1,test,3,1.0,1-Back,0,z,Fri Oct 11 2024 15:48:21 GMT-0500 (Central Daylight Time),255083.20000000298,046_o_m_n_a.png,O,m,389,3,1,1410.6000000014901,253672.6000000015,7025,NNB,A,2
2,test,3,0.0,1-Back,1,m,Fri Oct 11 2024 15:48:21 GMT-0500 (Central Daylight Time),257415.80000000447,050_m_f_n_a.png,O,m,1302,4,1,2326.3000000044703,255089.5,7025,NNB,A,3
3,test,3,1.0,1-Back,1,z,Fri Oct 11 2024 15:48:21 GMT-0500 (Central Daylight Time),258965.20000000298,050_m_f_n_a.png,O,z,530,5,1,1543.3999999985099,257421.80000000447,7025,NNB,A,4
4,test,3,0.0,1-Back,1,m,Fri Oct 11 2024 15:48:21 GMT-0500 (Central Daylight Time),260414.8999999985,044_o_f_n_a.png,O,m,428,6,1,1443.8999999985099,258971.0,7025,NNB,A,5
5,test,3,0.0,1-Back,1,m,Fri Oct 11 2024 15:48:21 GMT-0500 (Central Daylight Time),261882.1000000015,041_y_m_n_a.png,O,m,443,7,1,1461.2999999970198,260420.80000000447,7025,NNB,A,6
6,test,3,0.0,1-Back,1,m,Fri Oct 11 2024 15:48:21 GMT-0500 (Central Daylight Time),263547.0,044_o_f_n_a.png,O,m,648,8,1,1658.7999999970198,261888.20000000298,7025,NNB,A,7
7,test,3,0.0,1-Back,1,m,Fri Oct 11 2024 15:48:21 GMT-0500 (Central Daylight Time),265096.6000000015,008_y_m_n_a.png,O,m,517,9,1,1543.3999999985099,263553.200000003,7025,NNB,A,8
8,test,3,1.0,1-Back,1,z,Fri Oct 11 2024 15:48:21 GMT-0500 (Central Daylight Time),266479.3999999985,008_y_m_n_a.png,O,z,351,10,1,1376.5,265102.8999999985,7025,NNB,A,9
9,test,3,0.0,1-Back,1,m,Fri Oct 11 2024 15:48:21 GMT-0500 (Central Daylight Time),268096.700000003,043_m_f_n_a.png,O,m,586,11,1,1611.2000000029802,266485.5,7025,NNB,A,10
10,test,3,0.0,1-Back,1,m,Fri Oct 11 2024 15:48:21 GMT-0500 (Central Daylight Time),269561.8999999985,063_y_f_n_a.png,O,m,449,12,1,1459.1999999955297,268102.700000003,7025,NNB,A,11
11,test,3,1.0,1-Back,1,z,Fri Oct 11 2024 15:48:21 GMT-0500 (Central Daylight Time),271246.0,063_y_f_n_a.png,O,z,663,13,1,1678.0,269568.0,7025,NNB,A,12
12,test,3,0.0,1-Back,1,m,Fri Oct 11 2024 15:48:21 GMT-0500 (Central Daylight Time),272677.700000003,043_m_f_n_a.png,O,m,404,14,1,1425.3999999985099,271252.30000000447,7025,NNB,A,13
13,test,3,0.0,1-Back,1,m,Fri Oct 11 2024 15:48:21 GMT-0500 (Central Daylight Time),274210.30000000447,058_m_m_n_a.png,O,m,508,15,1,1526.6000000014901,272683.700000003,7025,NNB,A,14
14,test,3,1.0,1-Back,1,z,Fri Oct 11 2024 15:48:21 GMT-0500 (Central Daylight Time),275826.700000003,058_m_m_n_a.png,O,z,591,16,1,1610.2000000029802,274216.5,7025,NNB,A,15
15,test,3,0.0,1-Back,1,m,Fri Oct 11 2024 15:48:21 GMT-0500 (Central Daylight Time),277276.200000003,047_o_f_n_a.png,O,m,423,17,1,1443.8000000044703,275832.3999999985,7025,NNB,A,16
16,test,3,1.0,1-Back,1,z,Fri Oct 11 2024 15:48:21 GMT-0500 (Central Daylight Time),279209.1000000015,047_o_f_n_a.png,O,z,909,18,1,1926.6000000014901,277282.5,7025,NNB,A,17
0,test,4,1.0,1-Back,,,Fri Oct 11 2024 15:48:21 GMT-0500 (Central Daylight Time),279209.1000000015,050_m_f_n_a.png,O,space,1376,1,1,1926.6000000014901,277282.5,7025,NNB,A,0
1,test,4,0.0,1-Back,1,m,Fri Oct 11 2024 15:48:21 GMT-0500 (Central Daylight Time),284190.6000000015,046_o_m_n_a.png,O,m,562,2,1,1576.6000000014901,282614.0,7025,NNB,A,1
2,test,4,0.0,1-Back,1,m,Fri Oct 11 2024 15:48:21 GMT-0500 (Central Daylight Time),286173.5,050_m_f_n_a.png,O,m,963,3,1,1976.8999999985099,284196.6000000015,7025,NNB,A,2
3,test,4,0.0,1-Back,1,m,Fri Oct 11 2024 15:48:21 GMT-0500 (Central Daylight Time),287722.8999999985,044_o_f_n_a.png,O,m,524,4,1,1543.1999999955297,286179.700000003,7025,NNB,A,3
4,test,4,1.0,1-Back,1,z,Fri Oct 11 2024 15:48:21 GMT-0500 (Central Daylight Time),289355.700000003,044_o_f_n_a.png,O,z,605,5,1,1626.7000000029802,287729.0,7025,NNB,A,4
5,test,4,0.0,1-Back,1,m,Fri Oct 11 2024 15:48:21 GMT-0500 (Central Daylight Time),290988.5,063_y_f_n_a.png,O,m,606,6,1,1626.6000000014901,289361.8999999985,7025,NNB,A,5
6,test,4,0.0,1-Back,1,m,Fri Oct 11 2024 15:48:21 GMT-0500 (Central Daylight Time),292521.700000003,041_y_m_n_a.png,O,m,500,7,1,1526.8000000044703,290994.8999999985,7025,NNB,A,6
7,test,4,1.0,1-Back,1,z,Fri Oct 11 2024 15:48:21 GMT-0500 (Central Daylight Time),293987.30000000447,041_y_m_n_a.png,O,z,448,8,1,1459.5,292527.80000000447,7025,NNB,A,7
8,test,4,0.0,1-Back,1,m,Fri Oct 11 2024 15:48:21 GMT-0500 (Central Daylight Time),295520.5,063_y_f_n_a.png,O,m,501,9,1,1526.6000000014901,293993.8999999985,7025,NNB,A,8
9,test,4,0.0,1-Back,1,m,Fri Oct 11 2024 15:48:21 GMT-0500 (Central Daylight Time),297086.5,045_m_m_n_a.png,O,m,536,10,1,1560.1000000014901,295526.3999999985,7025,NNB,A,9
10,test,4,1.0,1-Back,1,z,Fri Oct 11 2024 15:48:21 GMT-0500 (Central Daylight Time),298569.80000000447,045_m_m_n_a.png,O,z,451,11,1,1477.3000000044703,297092.5,7025,NNB,A,10
11,test,4,0.0,1-Back,1,m,Fri Oct 11 2024 15:48:21 GMT-0500 (Central Daylight Time),300035.6000000015,047_o_f_n_a.png,O,m,447,12,1,1458.7000000029802,298576.8999999985,7025,NNB,A,11
12,test,4,0.0,1-Back,1,m,Fri Oct 11 2024 15:48:21 GMT-0500 (Central Daylight Time),301502.1000000015,053_o_m_n_a.png,O,m,438,13,1,1460.2999999970198,300041.80000000447,7025,NNB,A,12
13,test,4,0.0,1-Back,1,m,Fri Oct 11 2024 15:48:21 GMT-0500 (Central Daylight Time),303318.1000000015,047_o_f_n_a.png,O,m,796,14,1,1809.7000000029802,301508.3999999985,7025,NNB,A,13
14,test,4,0.0,1-Back,1,m,Fri Oct 11 2024 15:48:21 GMT-0500 (Central Daylight Time),304917.6000000015,010_y_f_n_a.png,O,m,571,15,1,1593.5,303324.1000000015,7025,NNB,A,14
15,test,4,1.0,1-Back,1,z,Fri Oct 11 2024 15:48:21 GMT-0500 (Central Daylight Time),306285.0,010_y_f_n_a.png,O,z,340,16,1,1361.1999999955297,304923.80000000447,7025,NNB,A,15
16,test,4,0.0,1-Back,1,m,Fri Oct 11 2024 15:48:21 GMT-0500 (Central Daylight Time),307849.8999999985,043_m_f_n_a.png,O,m,533,17,1,1558.6999999955297,306291.200000003,7025,NNB,A,16
16,test,4,1.0,1-Back,0,z,Fri Oct 11 2024 15:48:21 GMT-0500 (Central Daylight Time),309666.0,043_m_f_n_a.png,O,m,799,18,1,1810.0,307856.0,7025,NNB,A,17
0,test,5,1.0,1-Back,,,Fri Oct 11 2024 15:48:21 GMT-0500 (Central Daylight Time),309666.0,053_o_m_n_a.png,O,space,1263,1,1,1810.0,307856.0,7025,NNB,A,0
0,test,5,1.0,1-Back,0,z,Fri Oct 11 2024 15:48:21 GMT-0500 (Central Daylight Time),314497.80000000447,053_o_m_n_a.png,O,m,525,2,1,1543.5,312954.30000000447,7025,NNB,A,1
1,test,5,0.0,1-Back,1,m,Fri Oct 11 2024 15:48:21 GMT-0500 (Central Daylight Time),316013.8999999985,063_y_f_n_a.png,O,m,495,3,1,1510.6999999955297,314503.200000003,7025,NNB,A,2
2,test,5,0.0,1-Back,1,m,Fri Oct 11 2024 15:48:21 GMT-0500 (Central Daylight Time),317646.80000000447,041_y_m_n_a.png,O,m,611,4,1,1627.3000000044703,316019.5,7025,NNB,A,3
3,test,5,0.0,1-Back,1,m,Fri Oct 11 2024 15:48:21 GMT-0500 (Central Daylight Time),319079.700000003,063_y_f_n_a.png,O,m,401,5,1,1426.0,317653.700000003,7025,NNB,A,4
4,test,5,0.0,1-Back,1,m,Fri Oct 11 2024 15:48:21 GMT-0500 (Central Daylight Time),320579.30000000447,058_m_m_n_a.png,O,m,473,6,1,1493.4000000059605,319085.8999999985,7025,NNB,A,5
5,test,5,1.0,1-Back,1,z,Fri Oct 11 2024 15:48:21 GMT-0500 (Central Daylight Time),322195.30000000447,058_m_m_n_a.png,O,z,598,7,1,1609.9000000059605,320585.3999999985,7025,NNB,A,6
6,test,5,0.0,1-Back,1,m,Fri Oct 11 2024 15:48:21 GMT-0500 (Central Daylight Time),323811.700000003,010_y_f_n_a.png,O,m,598,8,1,1610.3000000044703,322201.3999999985,7025,NNB,A,7
7,test,5,0.0,1-Back,1,m,Fri Oct 11 2024 15:48:21 GMT-0500 (Central Daylight Time),325427.700000003,008_y_m_n_a.png,O,m,590,9,1,1609.8999999985099,323817.80000000447,7025,NNB,A,8
8,test,5,0.0,1-Back,1,m,Fri Oct 11 2024 15:48:21 GMT-0500 (Central Daylight Time),327210.6000000015,010_y_f_n_a.png,O,m,758,10,1,1776.5,325434.1000000015,7025,NNB,A,9
9,test,5,0.0,1-Back,1,m,Fri Oct 11 2024 15:48:21 GMT-0500 (Central Daylight Time),328743.5,047_o_f_n_a.png,O,m,511,11,1,1526.6000000014901,327216.8999999985,7025,NNB,A,10
10,test,5,1.0,1-Back,1,z,Fri Oct 11 2024 15:48:21 GMT-0500 (Central Daylight Time),330409.6000000015,047_o_f_n_a.png,O,z,633,12,1,1659.7999999970198,328749.80000000447,7025,NNB,A,11
11,test,5,0.0,1-Back,1,m,Fri Oct 11 2024 15:48:21 GMT-0500 (Central Daylight Time),331925.700000003,046_o_m_n_a.png,O,m,496,13,1,1509.8000000044703,330415.8999999985,7025,NNB,A,12
12,test,5,0.0,1-Back,1,m,Fri Oct 11 2024 15:48:21 GMT-0500 (Central Daylight Time),333541.80000000447,050_m_f_n_a.png,O,m,587,14,1,1610.4000000059605,331931.3999999985,7025,NNB,A,13
13,test,5,1.0,1-Back,1,z,Fri Oct 11 2024 15:48:21 GMT-0500 (Central Daylight Time),334974.80000000447,050_m_f_n_a.png,O,z,403,15,1,1426.8000000044703,333548.0,7025,NNB,A,14
14,test,5,0.0,1-Back,1,m,Fri Oct 11 2024 15:48:21 GMT-0500 (Central Daylight Time),336424.5,046_o_m_n_a.png,O,m,427,16,1,1443.6999999955297,334980.80000000447,7025,NNB,A,15
15,test,5,0.0,1-Back,1,m,Fri Oct 11 2024 15:48:21 GMT-0500 (Central Daylight Time),337990.3999999985,043_m_f_n_a.png,O,m,544,17,1,1559.3999999985099,336431.0,7025,NNB,A,16
16,test,5,0.0,1-Back,1,m,Fri Oct 11 2024 15:48:21 GMT-0500 (Central Daylight Time),339573.200000003,045_m_m_n_a.png,O,m,555,18,1,1576.6000000014901,337996.6000000015,7025,NNB,A,17
0,prac,1,0.0,2-Back,,,Fri Oct 11 2024 15:48:21 GMT-0500 (Central Daylight Time),339573.200000003,008_y_m_n_a.png,O,space,10648,1,1,1576.6000000014901,337996.6000000015,7025,NNB,A,0
0,prac,1,0.0,2-Back,,,Fri Oct 11 2024 15:48:21 GMT-0500 (Central Daylight Time),339573.200000003,043_m_f_n_a.png,O,space,10648,2,1,1576.6000000014901,337996.6000000015,7025,NNB,A,0
1,prac,1,1.0,2-Back,1,m,Fri Oct 11 2024 15:48:21 GMT-0500 (Central Daylight Time),448739.3999999985,046_o_m_n_a.png,O,m,1651,3,1,2442.0,446297.3999999985,7025,NNB,A,1
2,prac,1,0.0,2-Back,1,m,Fri Oct 11 2024 15:48:21 GMT-0500 (Central Daylight Time),450738.80000000447,047_o_f_n_a.png,O,m,1160,4,1,1992.5,448746.30000000447,7025,NNB,A,2
3,prac,1,0.0,2-Back,1,z,Fri Oct 11 2024 15:48:21 GMT-0500 (Central Daylight Time),452304.700000003,046_o_m_n_a.png,O,z,783,5,1,1558.3999999985099,450746.30000000447,7025,NNB,A,3
3,prac,1,1.0,2-Back,0,z,Fri Oct 11 2024 15:48:21 GMT-0500 (Central Daylight Time),453904.3999999985,047_o_f_n_a.png,O,m,809,6,1,1592.0,452312.3999999985,7025,NNB,A,4
3,prac,1,0.0,2-Back,0,m,Fri Oct 11 2024 15:48:21 GMT-0500 (Central Daylight Time),455953.6000000015,045_m_m_n_a.png,O,z,1252,7,1,2042.5,453911.1000000015,7025,NNB,A,5
4,prac,1,0.0,2-Back,1,m,Fri Oct 11 2024 15:48:21 GMT-0500 (Central Daylight Time),457986.6000000015,053_o_m_n_a.png,O,m,1233,8,1,2025.7999999970198,455960.80000000447,7025,NNB,A,6
5,prac,1,0.0,2-Back,1,m,Fri Oct 11 2024 15:48:21 GMT-0500 (Central Daylight Time),459602.6000000015,010_y_f_n_a.png,O,m,787,9,1,1608.6000000014901,457994.0,7025,NNB,A,7
6,prac,1,1.0,2-Back,1,z,Fri Oct 11 2024 15:48:21 GMT-0500 (Central Daylight Time),461085.200000003,053_o_m_n_a.png,O,z,703,10,1,1475.3999999985099,459609.80000000447,7025,NNB,A,8
7,prac,1,0.0,2-Back,1,m,Fri Oct 11 2024 15:48:21 GMT-0500 (Central Daylight Time),462751.3999999985,063_y_f_n_a.png,O,m,845,11,1,1659.1999999955297,461092.200000003,7025,NNB,A,9
8,prac,1,0.0,2-Back,1,m,Fri Oct 11 2024 15:48:21 GMT-0500 (Central Daylight Time),464301.1000000015,045_m_m_n_a.png,O,m,771,12,1,1542.3999999985099,462758.700000003,7025,NNB,A,10
0,test,1,0.0,2-Back,,,Fri Oct 11 2024 15:48:21 GMT-0500 (Central Daylight Time),464301.1000000015,041_y_m_n_a.png,O,space,12106,1,1,1542.3999999985099,462758.700000003,7025,NNB,A,0
0,test,1,0.0,2-Back,,,Fri Oct 11 2024 15:48:21 GMT-0500 (Central Daylight Time),464301.1000000015,041_y_m_n_a.png,O,space,12106,2,1,1542.3999999985099,462758.700000003,7025,NNB,A,0
1,test,1,0.0,2-Back,1,m,Fri Oct 11 2024 15:48:21 GMT-0500 (Central Daylight Time),492625.5,047_o_f_n_a.png,O,m,534,3,1,1560.1000000014901,491065.3999999985,7025,NNB,A,1
2,test,1,0.0,2-Back,1,m,Fri Oct 11 2024 15:48:21 GMT-0500 (Central Daylight Time),494424.80000000447,058_m_m_n_a.png,O,m,776,4,1,1793.6000000014901,492631.200000003,7025,NNB,A,2
3,test,1,1.0,2-Back,1,z,Fri Oct 11 2024 15:48:21 GMT-0500 (Central Daylight Time),496274.200000003,047_o_f_n_a.png,O,z,817,5,1,1842.8000000044703,494431.3999999985,7025,NNB,A,3
4,test,1,0.0,2-Back,1,m,Fri Oct 11 2024 15:48:21 GMT-0500 (Central Daylight Time),498140.3999999985,063_y_f_n_a.png,O,m,847,6,1,1859.6999999955297,496280.700000003,7025,NNB,A,4
4,test,1,0.0,2-Back,0,m,Fri Oct 11 2024 15:48:21 GMT-0500 (Central Daylight Time),500406.1000000015,058_m_m_n_a.png,O,z,1237,7,1,2259.0,498147.1000000015,7025,NNB,A,5
5,test,1,1.0,2-Back,1,z,Fri Oct 11 2024 15:48:21 GMT-0500 (Central Daylight Time),501922.3999999985,063_y_f_n_a.png,O,z,491,8,1,1509.7999999970198,500412.6000000015,7025,NNB,A,6
6,test,1,0.0,2-Back,1,m,Fri Oct 11 2024 15:48:21 GMT-0500 (Central Daylight Time),504105.1000000015,008_y_m_n_a.png,O,m,1159,9,1,2176.7999999970198,501928.30000000447,7025,NNB,A,7
7,test,1,0.0,2-Back,1,m,Fri Oct 11 2024 15:48:21 GMT-0500 (Central Daylight Time),505921.5,044_o_f_n_a.png,O,m,784,10,1,1810.1000000014901,504111.3999999985,7025,NNB,A,8
8,test,1,1.0,2-Back,1,z,Fri Oct 11 2024 15:48:21 GMT-0500 (Central Daylight Time),507804.0,008_y_m_n_a.png,O,z,856,11,1,1876.1000000014901,505927.8999999985,7025,NNB,A,9
9,test,1,0.0,2-Back,1,m,Fri Oct 11 2024 15:48:21 GMT-0500 (Central Daylight Time),509470.1000000015,043_m_f_n_a.png,O,m,637,12,1,1659.7000000029802,507810.3999999985,7025,NNB,A,10
10,test,1,0.0,2-Back,1,m,Fri Oct 11 2024 15:48:21 GMT-0500 (Central Daylight Time),511603.1000000015,043_m_f_n_a.png,O,m,1107,13,1,2126.7000000029802,509476.3999999985,7025,NNB,A,11
11,test,1,0.0,2-Back,1,m,Fri Oct 11 2024 15:48:21 GMT-0500 (Central Daylight Time),513618.8999999985,046_o_m_n_a.png,O,m,990,14,1,2009.5,511609.3999999985,7025,NNB,A,12
12,test,1,0.0,2-Back,1,m,Fri Oct 11 2024 15:48:21 GMT-0500 (Central Daylight Time),515751.5,044_o_f_n_a.png,O,m,1111,15,1,2126.1999999955297,513625.30000000447,7025,NNB,A,13
13,test,1,1.0,2-Back,1,z,Fri Oct 11 2024 15:48:21 GMT-0500 (Central Daylight Time),517468.200000003,046_o_m_n_a.png,O,z,690,16,1,1710.3999999985099,515757.80000000447,7025,NNB,A,14
14,test,1,0.0,2-Back,1,m,Fri Oct 11 2024 15:48:21 GMT-0500 (Central Daylight Time),519417.1000000015,050_m_f_n_a.png,O,m,839,17,1,1942.8999999985099,517474.200000003,7025,NNB,A,15
15,test,1,0.0,2-Back,1,m,Fri Oct 11 2024 15:48:21 GMT-0500 (Central Daylight Time),521233.1000000015,045_m_m_n_a.png,O,m,792,18,1,1809.3999999985099,519423.700000003,7025,NNB,A,16
0,test,2,0.0,2-Back,,,Fri Oct 11 2024 15:48:21 GMT-0500 (Central Daylight Time),521233.1000000015,045_m_m_n_a.png,O,space,2072,1,1,1809.3999999985099,519423.700000003,7025,NNB,A,0
0,test,2,0.0,2-Back,,,Fri Oct 11 2024 15:48:21 GMT-0500 (Central Daylight Time),521233.1000000015,010_y_f_n_a.png,O,space,2072,2,1,1809.3999999985099,519423.700000003,7025,NNB,A,0
1,test,2,1.0,2-Back,1,z,Fri Oct 11 2024 15:48:21 GMT-0500 (Central Daylight Time),530780.0,045_m_m_n_a.png,O,z,1347,3,1,2360.10000000149,528419.8999999985,7025,NNB,A,1
2,test,2,0.0,2-Back,1,m,Fri Oct 11 2024 15:48:21 GMT-0500 (Central Daylight Time),532529.700000003,050_m_f_n_a.png,O,m,717,4,1,1743.1000000014901,530786.6000000015,7025,NNB,A,2
2,test,2,0.0,2-Back,0,m,Fri Oct 11 2024 15:48:21 GMT-0500 (Central Daylight Time),535095.3999999985,010_y_f_n_a.png,O,z,1536,5,1,2559.2999999970198,532536.1000000015,7025,NNB,A,3
3,test,2,0.0,2-Back,1,m,Fri Oct 11 2024 15:48:21 GMT-0500 (Central Daylight Time),536728.1000000015,046_o_m_n_a.png,O,m,602,6,1,1626.2999999970198,535101.8000000045,7025,NNB,A,4
3,test,2,0.0,2-Back,0,m,Fri Oct 11 2024 15:48:21 GMT-0500 (Central Daylight Time),538844.3999999985,063_y_f_n_a.png,O,z,1089,7,1,2109.89999999851,536734.5,7025,NNB,A,5
4,test,2,1.0,2-Back,1,z,Fri Oct 11 2024 15:48:21 GMT-0500 (Central Daylight Time),541126.8000000045,046_o_m_n_a.png,O,z,1261,8,1,2276.0,538850.8000000045,7025,NNB,A,6
5,test,2,0.0,2-Back,1,m,Fri Oct 11 2024 15:48:21 GMT-0500 (Central Daylight Time),543043.0,008_y_m_n_a.png,O,m,887,9,1,1909.8999999985099,541133.1000000015,7025,NNB,A,7
6,test,2,0.0,2-Back,1,m,Fri Oct 11 2024 15:48:21 GMT-0500 (Central Daylight Time),545208.8000000045,008_y_m_n_a.png,O,m,1142,10,1,2159.7000000029802,543049.1000000015,7025,NNB,A,8
7,test,2,0.0,2-Back,1,m,Fri Oct 11 2024 15:48:21 GMT-0500 (Central Daylight Time),548141.3999999985,043_m_f_n_a.png,O,m,1912,11,1,2926.1999999955297,545215.200000003,7025,NNB,A,9
8,test,2,0.0,2-Back,1,m,Fri Oct 11 2024 15:48:21 GMT-0500 (Central Daylight Time),549974.1000000015,010_y_f_n_a.png,O,m,812,12,1,1826.2999999970198,548147.8000000045,7025,NNB,A,10
9,test,2,1.0,2-Back,1,z,Fri Oct 11 2024 15:48:21 GMT-0500 (Central Daylight Time),551391.3999999985,043_m_f_n_a.png,O,z,387,13,1,1410.8999999985099,549980.5,7025,NNB,A,11
10,test,2,0.0,2-Back,1,m,Fri Oct 11 2024 15:48:21 GMT-0500 (Central Daylight Time),553306.200000003,053_o_m_n_a.png,O,m,891,14,1,1908.6000000014901,551397.6000000015,7025,NNB,A,12
11,test,2,0.0,2-Back,1,m,Fri Oct 11 2024 15:48:21 GMT-0500 (Central Daylight Time),555172.5,053_o_m_n_a.png,O,m,847,15,1,1860.5,553312.0,7025,NNB,A,13
12,test,2,0.0,2-Back,1,m,Fri Oct 11 2024 15:48:21 GMT-0500 (Central Daylight Time),557171.8999999985,044_o_f_n_a.png,O,m,981,16,1,1992.7999999970198,555179.1000000015,7025,NNB,A,14
13,test,2,0.0,2-Back,1,m,Fri Oct 11 2024 15:48:21 GMT-0500 (Central Daylight Time),558954.6000000015,058_m_m_n_a.png,O,m,758,17,1,1776.2000000029802,557178.3999999985,7025,NNB,A,15
14,test,2,1.0,2-Back,1,z,Fri Oct 11 2024 15:48:21 GMT-0500 (Central Daylight Time),560420.8000000045,044_o_f_n_a.png,O,z,447,18,1,1459.8000000044703,558961.0,7025,NNB,A,16
0,test,3,1.0,2-Back,,,Fri Oct 11 2024 15:48:21 GMT-0500 (Central Daylight Time),560420.8000000045,041_y_m_n_a.png,O,space,1629,1,1,1459.8000000044703,558961.0,7025,NNB,A,0
0,test,3,1.0,2-Back,,,Fri Oct 11 2024 15:48:21 GMT-0500 (Central Daylight Time),560420.8000000045,041_y_m_n_a.png,O,space,1629,2,1,1459.8000000044703,558961.0,7025,NNB,A,0
1,test,3,0.0,2-Back,1,m,Fri Oct 11 2024 15:48:21 GMT-0500 (Central Daylight Time),568884.8000000045,044_o_f_n_a.png,O,m,747,3,1,1760.1000000014901,567124.700000003,7025,NNB,A,1
2,test,3,0.0,2-Back,1,m,Fri Oct 11 2024 15:48:21 GMT-0500 (Central Daylight Time),570884.3000000045,045_m_m_n_a.png,O,m,981,4,1,1993.3000000044703,568891.0,7025,NNB,A,2
3,test,3,1.0,2-Back,1,z,Fri Oct 11 2024 15:48:21 GMT-0500 (Central Daylight Time),572317.0,044_o_f_n_a.png,O,z,413,5,1,1426.2999999970198,570890.700000003,7025,NNB,A,3
4,test,3,0.0,2-Back,1,m,Fri Oct 11 2024 15:48:21 GMT-0500 (Central Daylight Time),574166.6000000015,008_y_m_n_a.png,O,m,819,6,1,1843.3999999985099,572323.200000003,7025,NNB,A,4
5,test,3,0.0,2-Back,1,m,Fri Oct 11 2024 15:48:21 GMT-0500 (Central Daylight Time),575949.3999999985,045_m_m_n_a.png,O,m,755,7,1,1776.5,574172.8999999985,7025,NNB,A,5
6,test,3,1.0,2-Back,1,z,Fri Oct 11 2024 15:48:21 GMT-0500 (Central Daylight Time),577548.8999999985,008_y_m_n_a.png,O,z,572,8,1,1593.0,575955.8999999985,7025,NNB,A,6
7,test,3,0.0,2-Back,1,m,Fri Oct 11 2024 15:48:21 GMT-0500 (Central Daylight Time),579364.8000000045,010_y_f_n_a.png,O,m,789,9,1,1809.4000000059605,577555.3999999985,7025,NNB,A,7
8,test,3,0.0,2-Back,1,m,Fri Oct 11 2024 15:48:21 GMT-0500 (Central Daylight Time),580980.8999999985,058_m_m_n_a.png,O,m,588,10,1,1610.3999999985099,579370.5,7025,NNB,A,8
9,test,3,1.0,2-Back,1,z,Fri Oct 11 2024 15:48:21 GMT-0500 (Central Daylight Time),582430.3000000045,010_y_f_n_a.png,O,z,420,11,1,1443.5,580986.8000000045,7025,NNB,A,9
9,test,3,1.0,2-Back,0,z,Fri Oct 11 2024 15:48:21 GMT-0500 (Central Daylight Time),583946.8000000045,058_m_m_n_a.png,O,m,491,12,1,1510.1000000014901,582436.700000003,7025,NNB,A,10
10,test,3,0.0,2-Back,1,m,Fri Oct 11 2024 15:48:21 GMT-0500 (Central Daylight Time),585729.3999999985,044_o_f_n_a.png,O,m,750,13,1,1776.3999999985099,583953.0,7025,NNB,A,11
11,test,3,0.0,2-Back,1,m,Fri Oct 11 2024 15:48:21 GMT-0500 (Central Daylight Time),587412.3000000045,050_m_f_n_a.png,O,m,664,14,1,1676.7000000029802,585735.6000000015,7025,NNB,A,12
12,test,3,0.0,2-Back,1,m,Fri Oct 11 2024 15:48:21 GMT-0500 (Central Daylight Time),589237.8999999985,046_o_m_n_a.png,O,m,808,15,1,1819.2999999970198,587418.6000000015,7025,NNB,A,13
13,test,3,1.0,2-Back,1,z,Fri Oct 11 2024 15:48:21 GMT-0500 (Central Daylight Time),591111.1000000015,050_m_f_n_a.png,O,z,844,16,1,1866.2999999970198,589244.8000000045,7025,NNB,A,14
14,test,3,0.0,2-Back,1,m,Fri Oct 11 2024 15:48:21 GMT-0500 (Central Daylight Time),592993.8999999985,047_o_f_n_a.png,O,m,857,17,1,1876.0999999940395,591117.8000000045,7025,NNB,A,15
15,test,3,0.0,2-Back,1,m,Fri Oct 11 2024 15:48:21 GMT-0500 (Central Daylight Time),594826.5,047_o_f_n_a.png,O,m,815,18,1,1826.1000000014901,593000.3999999985,7025,NNB,A,16
0,test,4,0.0,2-Back,,,Fri Oct 11 2024 15:48:21 GMT-0500 (Central Daylight Time),594826.5,053_o_m_n_a.png,O,space,1527,1,1,1826.1000000014901,593000.3999999985,7025,NNB,A,0
0,test,4,0.0,2-Back,,,Fri Oct 11 2024 15:48:21 GMT-0500 (Central Daylight Time),594826.5,063_y_f_n_a.png,O,space,1527,2,1,1826.1000000014901,593000.3999999985,7025,NNB,A,0
1,test,4,1.0,2-Back,1,z,Fri Oct 11 2024 15:48:21 GMT-0500 (Central Daylight Time),603740.8000000045,053_o_m_n_a.png,O,z,1264,3,1,2276.60000000149,601464.200000003,7025,NNB,A,1
2,test,4,1.0,2-Back,1,z,Fri Oct 11 2024 15:48:21 GMT-0500 (Central Daylight Time),605789.8000000045,063_y_f_n_a.png,O,z,1029,4,1,2042.4000000059605,603747.3999999985,7025,NNB,A,2
3,test,4,0.0,2-Back,1,m,Fri Oct 11 2024 15:48:21 GMT-0500 (Central Daylight Time),607722.3000000045,044_o_f_n_a.png,O,m,916,5,1,1925.9000000059605,605796.3999999985,7025,NNB,A,3
4,test,4,0.0,2-Back,1,m,Fri Oct 11 2024 15:48:21 GMT-0500 (Central Daylight Time),609572.200000003,044_o_f_n_a.png,O,m,831,6,1,1843.7000000029802,607728.5,7025,NNB,A,4
5,test,4,0.0,2-Back,1,m,Fri Oct 11 2024 15:48:21 GMT-0500 (Central Daylight Time),611588.200000003,043_m_f_n_a.png,O,m,997,7,1,2010.2000000029802,609578.0,7025,NNB,A,5
6,test,4,0.0,2-Back,1,m,Fri Oct 11 2024 15:48:21 GMT-0500 (Central Daylight Time),613387.6000000015,008_y_m_n_a.png,O,m,769,8,1,1792.7999999970198,611594.8000000045,7025,NNB,A,6
7,test,4,1.0,2-Back,1,z,Fri Oct 11 2024 15:48:21 GMT-0500 (Central Daylight Time),615186.8000000045,043_m_f_n_a.png,O,z,782,9,1,1792.9000000059605,613393.8999999985,7025,NNB,A,7
8,test,4,0.0,2-Back,1,m,Fri Oct 11 2024 15:48:21 GMT-0500 (Central Daylight Time),616736.3999999985,058_m_m_n_a.png,O,m,526,10,1,1543.2999999970198,615193.1000000015,7025,NNB,A,8
8,test,4,0.0,2-Back,0,m,Fri Oct 11 2024 15:48:21 GMT-0500 (Central Daylight Time),618669.3000000045,008_y_m_n_a.png,O,z,913,11,1,1926.5,616742.8000000045,7025,NNB,A,9
9,test,4,0.0,2-Back,1,m,Fri Oct 11 2024 15:48:21 GMT-0500 (Central Daylight Time),620685.3999999985,047_o_f_n_a.png,O,m,996,12,1,2009.3999999985099,618676.0,7025,NNB,A,10
10,test,4,0.0,2-Back,1,m,Fri Oct 11 2024 15:48:21 GMT-0500 (Central Daylight Time),622684.6000000015,041_y_m_n_a.png,O,m,972,13,1,1992.6000000014901,620692.0,7025,NNB,A,11
11,test,4,1.0,2-Back,1,z,Fri Oct 11 2024 15:48:21 GMT-0500 (Central Daylight Time),624517.3999999985,047_o_f_n_a.png,O,z,805,14,1,1826.0999999940395,622691.3000000045,7025,NNB,A,12
12,test,4,1.0,2-Back,1,z,Fri Oct 11 2024 15:48:21 GMT-0500 (Central Daylight Time),626333.5,041_y_m_n_a.png,O,z,788,15,1,1809.8999999985099,624523.6000000015,7025,NNB,A,13
13,test,4,0.0,2-Back,1,m,Fri Oct 11 2024 15:48:21 GMT-0500 (Central Daylight Time),628049.8000000045,045_m_m_n_a.png,O,m,692,16,1,1710.2000000029802,626339.6000000015,7025,NNB,A,14
14,test,4,0.0,2-Back,1,m,Fri Oct 11 2024 15:48:21 GMT-0500 (Central Daylight Time),629832.3000000045,050_m_f_n_a.png,O,m,752,17,1,1776.1000000014901,628056.200000003,7025,NNB,A,15
15,test,4,1.0,2-Back,1,z,Fri Oct 11 2024 15:48:21 GMT-0500 (Central Daylight Time),631681.8000000045,045_m_m_n_a.png,O,z,833,18,1,1843.2000000029802,629838.6000000015,7025,NNB,A,16
0,test,5,1.0,2-Back,,,Fri Oct 11 2024 15:48:21 GMT-0500 (Central Daylight Time),631681.8000000045,041_y_m_n_a.png,O,space,1608,1,1,1843.2000000029802,629838.6000000015,7025,NNB,A,0
0,test,5,1.0,2-Back,,,Fri Oct 11 2024 15:48:21 GMT-0500 (Central Daylight Time),631681.8000000045,050_m_f_n_a.png,O,space,1608,2,1,1843.2000000029802,629838.6000000015,7025,NNB,A,0
1,test,5,1.0,2-Back,1,z,Fri Oct 11 2024 15:48:21 GMT-0500 (Central Daylight Time),640262.3999999985,041_y_m_n_a.png,O,z,887,3,1,1910.0,638352.3999999985,7025,NNB,A,1
2,test,5,1.0,2-Back,1,z,Fri Oct 11 2024 15:48:21 GMT-0500 (Central Daylight Time),641728.700000003,050_m_f_n_a.png,O,z,435,4,1,1459.7000000029802,640269.0,7025,NNB,A,2
3,test,5,0.0,2-Back,1,m,Fri Oct 11 2024 15:48:21 GMT-0500 (Central Daylight Time),643494.8999999985,047_o_f_n_a.png,O,m,737,5,1,1759.6999999955297,641735.200000003,7025,NNB,A,3
4,test,5,0.0,2-Back,1,m,Fri Oct 11 2024 15:48:21 GMT-0500 (Central Daylight Time),645394.1000000015,041_y_m_n_a.png,O,m,867,6,1,1893.1000000014901,643501.0,7025,NNB,A,4
5,test,5,0.0,2-Back,1,m,Fri Oct 11 2024 15:48:21 GMT-0500 (Central Daylight Time),647060.200000003,010_y_f_n_a.png,O,m,647,7,1,1660.3000000044703,645399.8999999985,7025,NNB,A,5
6,test,5,0.0,2-Back,1,m,Fri Oct 11 2024 15:48:21 GMT-0500 (Central Daylight Time),649144.1000000015,047_o_f_n_a.png,O,m,1061,8,1,2077.2999999970198,647066.8000000045,7025,NNB,A,6
7,test,5,1.0,2-Back,1,z,Fri Oct 11 2024 15:48:21 GMT-0500 (Central Daylight Time),650842.6000000015,010_y_f_n_a.png,O,z,674,9,1,1692.2000000029802,649150.3999999985,7025,NNB,A,7
8,test,5,0.0,2-Back,1,m,Fri Oct 11 2024 15:48:21 GMT-0500 (Central Daylight Time),652475.200000003,046_o_m_n_a.png,O,m,607,10,1,1626.3999999985099,650848.8000000045,7025,NNB,A,8
9,test,5,0.0,2-Back,1,m,Fri Oct 11 2024 15:48:21 GMT-0500 (Central Daylight Time),654374.8000000045,043_m_f_n_a.png,O,m,871,11,1,1893.5,652481.3000000045,7025,NNB,A,9
10,test,5,0.0,2-Back,1,m,Fri Oct 11 2024 15:48:21 GMT-0500 (Central Daylight Time),656024.1000000015,058_m_m_n_a.png,O,m,619,12,1,1643.0,654381.1000000015,7025,NNB,A,10
11,test,5,0.0,2-Back,1,m,Fri Oct 11 2024 15:48:21 GMT-0500 (Central Daylight Time),657973.5,046_o_m_n_a.png,O,m,921,13,1,1943.0,656030.5,7025,NNB,A,11
11,test,5,1.0,2-Back,0,z,Fri Oct 11 2024 15:48:21 GMT-0500 (Central Daylight Time),660306.200000003,058_m_m_n_a.png,O,m,1316,14,1,2326.10000000149,657980.1000000015,7025,NNB,A,12
12,test,5,0.0,2-Back,1,m,Fri Oct 11 2024 15:48:21 GMT-0500 (Central Daylight Time),662305.700000003,063_y_f_n_a.png,O,m,975,15,1,1993.3999999985099,660312.3000000045,7025,NNB,A,13
13,test,5,0.0,2-Back,1,m,Fri Oct 11 2024 15:48:21 GMT-0500 (Central Daylight Time),663955.3000000045,053_o_m_n_a.png,O,m,624,16,1,1643.6000000014901,662311.700000003,7025,NNB,A,14
14,test,5,0.0,2-Back,1,m,Fri Oct 11 2024 15:48:21 GMT-0500 (Central Daylight Time),665871.3000000045,043_m_f_n_a.png,O,m,894,17,1,1910.1000000014901,663961.200000003,7025,NNB,A,15
14,test,5,1.0,2-Back,0,z,Fri Oct 11 2024 15:48:21 GMT-0500 (Central Daylight Time),668103.700000003,053_o_m_n_a.png,O,m,1210,18,1,2226.2000000029802,665877.5,7025,NNB,A,16
