acc_sum,block_c,block_dur,condition,correct,correct_response,countdown,datetime,endtime,project,response,response_time,response_time_test1_response,response_time_test2_response,row_sel,same,session_number,start_end,starttime,stim1,stim2,subject_id,task,task_vers,time_test1,time_test2,trial
1,1,0.0,prac,1,m,30000.0,Mon Mar 03 2025 16:08:26 GMT-0600 (Central Standard Time),36925.5,O,m,1347,,,2,no,1,2879.2000000001863,34046.299999999814,practrial2.png,practrial2b.png,7053,PC,A,,,1
2,1,0.0,prac,1,z,30000.0,Mon Mar 03 2025 16:08:26 GMT-0600 (Central Standard Time),39974.59999999963,O,z,1519,,,1,yes,1,3044.2999999998137,36930.299999999814,practrial1.png,practrial1.png,7053,PC,A,,,2
3,1,0.0,prac,1,z,30000.0,Mon Mar 03 2025 16:08:26 GMT-0600 (Central Standard Time),42490.0,O,z,982,,,3,yes,1,2511.800000000745,39978.199999999255,practrial3.png,practrial3.png,7053,PC,A,,,3
4,1,0.0,prac,1,z,30000.0,Mon Mar 03 2025 16:08:26 GMT-0600 (Central Standard Time),44939.5,O,z,915,,,5,yes,1,2445.600000000559,42493.89999999944,practrial5.png,practrial5.png,7053,PC,A,,,4
4,1,0.0,prac,0,m,30000.0,Mon Mar 03 2025 16:08:26 GMT-0600 (Central Standard Time),47522.0,O,z,1050,,,6,no,1,2579.0,44943.0,practrial6.png,practrial6b.png,7053,PC,A,,,5
5,1,0.0,prac,1,m,30000.0,Mon Mar 03 2025 16:08:26 GMT-0600 (Central Standard Time),50221.0,O,m,1162,,,4,no,1,2694.800000000745,47526.199999999255,practrial4.png,practrial4b.png,7053,PC,A,,,6
1,1,1.2999999523162842,test,1,z,28700.000047683716,Mon Mar 03 2025 16:08:26 GMT-0600 (Central Standard Time),53353.199999999255,O,z,1280,1280,,1,yes,1,1296.7999999998137,52056.39999999944,test1trial1.png,test1trial1.png,7053,PC,A,45037,,1
2,1,2.7990000247955322,test,1,m,27200.999975204468,Mon Mar 03 2025 16:08:26 GMT-0600 (Central Standard Time),54853.199999999255,O,m,1485,1485,,2,no,1,1497.2999999998137,53355.89999999944,test1trial2.png,test1trial2b.png,7053,PC,A,46337,,2
3,1,4.165999889373779,test,1,z,25834.00011062622,Mon Mar 03 2025 16:08:26 GMT-0600 (Central Standard Time),56219.39999999944,O,z,1352,1352,,3,yes,1,1363.2000000001863,54856.199999999255,test1trial3.png,test1trial3.png,7053,PC,A,47837,,3
4,1,5.147000074386597,test,1,m,24852.999925613403,Mon Mar 03 2025 16:08:26 GMT-0600 (Central Standard Time),57202.299999999814,O,m,979,979,,4,no,1,980.1000000005588,56222.199999999255,test1trial4.png,test1trial4b.png,7053,PC,A,49203,,4
5,1,6.346999883651733,test,1,z,23653.000116348267,Mon Mar 03 2025 16:08:26 GMT-0600 (Central Standard Time),58401.89999999944,O,z,1180,1180,,5,yes,1,1197.0999999996275,57204.799999999814,test1trial5.png,test1trial5.png,7053,PC,A,50185,,5
6,1,7.13100004196167,test,1,m,22868.99995803833,Mon Mar 03 2025 16:08:26 GMT-0600 (Central Standard Time),59186.199999999255,O,m,772,772,,6,no,1,781.2999999998137,58404.89999999944,test1trial6.png,test1trial6b.png,7053,PC,A,51386,,6
7,1,7.829999923706055,test,1,z,22170.000076293945,Mon Mar 03 2025 16:08:26 GMT-0600 (Central Standard Time),59884.5,O,z,683,683,,7,yes,1,695.2000000001863,59189.299999999814,test1trial7.png,test1trial7.png,7053,PC,A,52170,,7
8,1,9.246000051498413,test,1,m,20753.999948501587,Mon Mar 03 2025 16:08:26 GMT-0600 (Central Standard Time),61301.0,O,m,1410,1410,,8,no,1,1413.800000000745,59887.199999999255,test1trial8.png,test1trial8b.png,7053,PC,A,52868,,8
9,1,10.228999853134155,test,1,z,19771.000146865845,Mon Mar 03 2025 16:08:26 GMT-0600 (Central Standard Time),62284.0,O,z,977,977,,9,yes,1,980.4000000003725,61303.59999999963,test1trial9.png,test1trial9.png,7053,PC,A,54284,,9
10,1,11.09500002861023,test,1,m,18904.99997138977,Mon Mar 03 2025 16:08:26 GMT-0600 (Central Standard Time),63150.299999999814,O,m,850,850,,10,no,1,863.4000000003725,62286.89999999944,test1trial10.png,test1trial10b.png,7053,PC,A,55268,,10
11,1,11.894999980926514,test,1,z,18105.000019073486,Mon Mar 03 2025 16:08:26 GMT-0600 (Central Standard Time),63950.199999999255,O,z,791,791,,11,yes,1,797.0999999996275,63153.09999999963,test1trial11.png,test1trial11.png,7053,PC,A,56134,,11
12,1,12.82800006866455,test,1,m,17171.99993133545,Mon Mar 03 2025 16:08:26 GMT-0600 (Central Standard Time),64883.0,O,m,927,927,,12,no,1,930.1000000005588,63952.89999999944,test1trial12.png,test1trial12b.png,7053,PC,A,56934,,12
13,1,13.795000076293945,test,1,m,16204.999923706055,Mon Mar 03 2025 16:08:26 GMT-0600 (Central Standard Time),65849.79999999981,O,m,945,945,,13,no,1,964.0,64885.799999999814,test1trial13.png,test1trial13b.png,7053,PC,A,57869,,13
14,1,15.111999988555908,test,1,m,14888.000011444092,Mon Mar 03 2025 16:08:26 GMT-0600 (Central Standard Time),67167.09999999963,O,m,1301,1301,,14,no,1,1314.5,65852.59999999963,test1trial14.png,test1trial14b.png,7053,PC,A,58833,,14
15,1,15.810999870300293,test,1,z,14189.000129699707,Mon Mar 03 2025 16:08:26 GMT-0600 (Central Standard Time),67865.79999999981,O,z,686,686,,15,yes,1,695.7000000001863,67170.09999999963,test1trial15.png,test1trial15.png,7053,PC,A,60151,,15
16,1,16.57699990272522,test,1,m,13423.00009727478,Mon Mar 03 2025 16:08:26 GMT-0600 (Central Standard Time),68632.09999999963,O,m,756,756,,16,no,1,763.5,67868.59999999963,test1trial16.png,test1trial16b.png,7053,PC,A,60849,,16
17,1,17.342999935150146,test,1,z,12657.000064849854,Mon Mar 03 2025 16:08:26 GMT-0600 (Central Standard Time),69398.39999999944,O,z,749,749,,17,yes,1,763.3999999994412,68635.0,test1trial17.png,test1trial17.png,7053,PC,A,61616,,17
18,1,18.193000078201294,test,1,m,11806.999921798706,Mon Mar 03 2025 16:08:26 GMT-0600 (Central Standard Time),70248.29999999981,O,m,839,839,,18,no,1,847.0,69401.29999999981,test1trial18.png,test1trial18b.png,7053,PC,A,62382,,18
19,1,19.243000030517578,test,1,m,10756.999969482422,Mon Mar 03 2025 16:08:26 GMT-0600 (Central Standard Time),71298.09999999963,O,m,1038,1038,,19,no,1,1046.9000000003725,70251.19999999925,test1trial19.png,test1trial19b.png,7053,PC,A,63232,,19
20,1,20.292999982833862,test,1,z,9707.000017166138,Mon Mar 03 2025 16:08:26 GMT-0600 (Central Standard Time),72347.59999999963,O,z,1045,1045,,20,yes,1,1046.9000000003725,71300.69999999925,test1trial20.png,test1trial20.png,7053,PC,A,64281,,20
21,1,21.259000062942505,test,1,z,8740.999937057495,Mon Mar 03 2025 16:08:26 GMT-0600 (Central Standard Time),73314.0,O,z,963,963,,21,yes,1,963.3000000007451,72350.69999999925,test1trial21.png,test1trial21.png,7053,PC,A,65331,,21
22,1,22.175999879837036,test,1,z,7824.000120162964,Mon Mar 03 2025 16:08:26 GMT-0600 (Central Standard Time),74230.5,O,z,908,908,,22,yes,1,913.7000000001863,73316.79999999981,test1trial22.png,test1trial22.png,7053,PC,A,66297,,22
23,1,22.97499990463257,test,1,z,7025.000095367432,Mon Mar 03 2025 16:08:26 GMT-0600 (Central Standard Time),75030.09999999963,O,z,784,784,,23,yes,1,796.5999999996275,74233.5,test1trial23.png,test1trial23.png,7053,PC,A,67214,,23
24,1,23.691999912261963,test,1,z,6308.000087738037,Mon Mar 03 2025 16:08:26 GMT-0600 (Central Standard Time),75746.79999999981,O,z,697,697,,24,yes,1,714.1000000005588,75032.69999999925,test1trial24.png,test1trial24.png,7053,PC,A,68013,,24
25,1,24.60800004005432,test,1,m,5391.999959945679,Mon Mar 03 2025 16:08:26 GMT-0600 (Central Standard Time),76662.89999999944,O,m,900,900,,25,no,1,913.5,75749.39999999944,test1trial25.png,test1trial25b.png,7053,PC,A,68730,,25
25,1,25.374000072479248,test,0,m,4625.999927520752,Mon Mar 03 2025 16:08:26 GMT-0600 (Central Standard Time),77429.39999999944,O,z,751,751,,26,no,1,763.7999999998137,76665.59999999963,test1trial26.png,test1trial26b.png,7053,PC,A,69647,,26
26,1,27.006999969482422,test,1,m,2993.000030517578,Mon Mar 03 2025 16:08:26 GMT-0600 (Central Standard Time),79062.29999999981,O,m,1617,1617,,27,no,1,1630.0,77432.29999999981,practrial6.png,practrial6b.png,7053,PC,A,70413,,27
26,1,28.506999969482422,test,0,z,1493.0000305175781,Mon Mar 03 2025 16:08:26 GMT-0600 (Central Standard Time),80562.0,O,m,1496,1496,,28,yes,1,1496.9000000003725,79065.09999999963,practrial1.png,practrial1.png,7053,PC,A,72046,,28
27,1,29.9229998588562,test,1,m,77.00014114379883,Mon Mar 03 2025 16:08:26 GMT-0600 (Central Standard Time),81977.79999999981,O,m,1403,1403,,29,no,1,1413.0,80564.79999999981,practrial2.png,practrial2b.png,7053,PC,A,73546,,29
27,1,30.00600004196167,test,0,z,-6.000041961669922,Mon Mar 03 2025 16:08:26 GMT-0600 (Central Standard Time),82061.39999999944,O,None,79,79,,30,yes,1,80.29999999981374,81981.09999999963,test1trial30.png,test1trial30.png,7053,PC,A,74962,,30
1,2,6.047999858856201,test,1,m,23952.0001411438,Mon Mar 03 2025 16:08:26 GMT-0600 (Central Standard Time),89125.79999999981,O,m,6041,,6041.0,1,no,1,7144.700000000186,81981.09999999963,test2trial1.png,test2trial1b.png,7053,PC,A,,76061.0,1
2,2,8.664000034332275,test,1,m,21335.999965667725,Mon Mar 03 2025 16:08:26 GMT-0600 (Central Standard Time),91741.39999999944,O,m,2600,,2600.0,2,no,1,9760.299999999814,81981.09999999963,test2trial2.png,test2trial2b.png,7053,PC,A,,82110.0,2
3,2,9.897000074386597,test,1,z,20102.999925613403,Mon Mar 03 2025 16:08:26 GMT-0600 (Central Standard Time),92974.5,O,z,1217,,1217.0,3,yes,1,10993.400000000373,81981.09999999963,test2trial3.png,test2trial3.png,7053,PC,A,,84725.0,3
4,2,10.879999876022339,test,1,z,19120.00012397766,Mon Mar 03 2025 16:08:26 GMT-0600 (Central Standard Time),93957.69999999925,O,z,976,,976.0,4,yes,1,11976.599999999627,81981.09999999963,test2trial4.png,test2trial4.png,7053,PC,A,,85958.0,4
5,2,12.029000043869019,test,1,z,17970.99995613098,Mon Mar 03 2025 16:08:26 GMT-0600 (Central Standard Time),95107.19999999925,O,z,1145,,1145.0,5,yes,1,13126.099999999627,81981.09999999963,test2trial5.png,test2trial5.png,7053,PC,A,,86941.0,5
6,2,13.211999893188477,test,1,z,16788.000106811523,Mon Mar 03 2025 16:08:26 GMT-0600 (Central Standard Time),96290.39999999944,O,z,1163,,1163.0,6,yes,1,14309.299999999814,81981.09999999963,test2trial6.png,test2trial6.png,7053,PC,A,,88091.0,6
7,2,14.84500002861023,test,1,m,15154.99997138977,Mon Mar 03 2025 16:08:26 GMT-0600 (Central Standard Time),97923.09999999963,O,m,1620,,1620.0,7,no,1,15942.0,81981.09999999963,test2trial7.png,test2trial7b.png,7053,PC,A,,89274.0,7
8,2,15.727999925613403,test,1,m,14272.000074386597,Mon Mar 03 2025 16:08:26 GMT-0600 (Central Standard Time),98805.89999999944,O,m,866,,866.0,8,no,1,16824.799999999814,81981.09999999963,test2trial8.png,test2trial8b.png,7053,PC,A,,90907.0,8
8,2,17.24399995803833,test,0,z,12756.00004196167,Mon Mar 03 2025 16:08:26 GMT-0600 (Central Standard Time),100322.19999999925,O,m,1505,,1505.0,9,yes,1,18341.099999999627,81981.09999999963,test2trial9.png,test2trial9.png,7053,PC,A,,91789.0,9
9,2,18.694000005722046,test,1,z,11305.999994277954,Mon Mar 03 2025 16:08:26 GMT-0600 (Central Standard Time),101771.69999999925,O,z,1444,,1444.0,10,yes,1,19790.599999999627,81981.09999999963,test2trial10.png,test2trial10.png,7053,PC,A,,93306.0,10
10,2,19.89299988746643,test,1,m,10107.00011253357,Mon Mar 03 2025 16:08:26 GMT-0600 (Central Standard Time),102971.09999999963,O,m,1195,,1195.0,11,no,1,20990.0,81981.09999999963,test2trial11.png,test2trial11b.png,7053,PC,A,,94755.0,11
11,2,21.276000022888184,test,1,m,8723.999977111816,Mon Mar 03 2025 16:08:26 GMT-0600 (Central Standard Time),104354.39999999944,O,m,1372,,1372.0,12,no,1,22373.299999999814,81981.09999999963,test2trial12.png,test2trial12b.png,7053,PC,A,,95954.0,12
12,2,22.358999967575073,test,1,z,7641.000032424927,Mon Mar 03 2025 16:08:26 GMT-0600 (Central Standard Time),105437.29999999981,O,z,1075,,1075.0,13,yes,1,23456.200000000186,81981.09999999963,test2trial13.png,test2trial13.png,7053,PC,A,,97338.0,13
13,2,23.575999975204468,test,1,m,6424.000024795532,Mon Mar 03 2025 16:08:26 GMT-0600 (Central Standard Time),106653.69999999925,O,m,1200,,1200.0,14,no,1,24672.599999999627,81981.09999999963,test2trial14.png,test2trial14b.png,7053,PC,A,,98421.0,14
14,2,24.39199995994568,test,1,m,5608.000040054321,Mon Mar 03 2025 16:08:26 GMT-0600 (Central Standard Time),107469.89999999944,O,m,800,,800.0,15,no,1,25488.799999999814,81981.09999999963,test2trial15.png,test2trial15b.png,7053,PC,A,,99637.0,15
15,2,25.60800004005432,test,1,m,4391.999959945679,Mon Mar 03 2025 16:08:26 GMT-0600 (Central Standard Time),108686.29999999981,O,m,1201,,1201.0,16,no,1,26705.200000000186,81981.09999999963,test2trial16.png,test2trial16b.png,7053,PC,A,,100453.0,16
16,2,26.79099988937378,test,1,z,3209.0001106262207,Mon Mar 03 2025 16:08:26 GMT-0600 (Central Standard Time),109869.19999999925,O,z,1168,,1168.0,17,yes,1,27888.099999999627,81981.09999999963,test2trial17.png,test2trial17.png,7053,PC,A,,101670.0,17
17,2,27.69099998474121,test,1,z,2309.000015258789,Mon Mar 03 2025 16:08:26 GMT-0600 (Central Standard Time),110768.89999999944,O,z,889,,889.0,18,yes,1,28787.799999999814,81981.09999999963,test2trial18.png,test2trial18.png,7053,PC,A,,102853.0,18
18,2,28.67199993133545,test,1,z,1328.0000686645508,Mon Mar 03 2025 16:08:26 GMT-0600 (Central Standard Time),111749.5,O,z,977,,977.0,19,yes,1,29768.400000000373,81981.09999999963,test2trial19.png,test2trial19.png,7053,PC,A,,103752.0,19
19,2,29.756999969482422,test,1,z,243.00003051757812,Mon Mar 03 2025 16:08:26 GMT-0600 (Central Standard Time),112835.09999999963,O,z,1073,,1073.0,20,yes,1,30854.0,81981.09999999963,test2trial20.png,test2trial20.png,7053,PC,A,,104733.0,20
19,2,30.006999969482422,test,0,z,-6.999969482421875,Mon Mar 03 2025 16:08:26 GMT-0600 (Central Standard Time),113084.89999999944,O,None,247,,247.0,21,yes,1,31103.799999999814,81981.09999999963,test2trial21.png,test2trial21.png,7053,PC,A,,105818.0,21
