acc_sum,block,block_c,condition,correct,correct_response,datetime,endtime,flanker,jitter,project,response,response_test_buffer_response,response_test_target_response,response_time,response_time_test_buffer_response,response_time_test_target_response,row_sel,session_number,start_end,starttime,subject_id,target,task,task_vers,time_test_buffer,time_test_buffer_response,time_test_constants,time_test_flanker,time_test_jitter,time_test_logger,time_test_target,time_test_target_response,time_test_variables,trial
0,prac,1,inc,0,z,Fri Apr 04 2025 16:10:11 GMT-0500 (Central Daylight Time),99684.80000001192,napkin,1100,O,m,,,1945,,,12,1,4340.5,95344.30000001192,7112,friend,AF,B,,,,,,,,,,1
0,prac,1,con,0,z,Fri Apr 04 2025 16:10:11 GMT-0500 (Central Daylight Time),102633.69999998808,love,1000,O,m,,,624,,,11,1,2923.100000023842,99710.59999996424,7112,love,AF,B,,,,,,,,,,2
0,prac,1,inc,0,z,Fri Apr 04 2025 16:10:11 GMT-0500 (Central Daylight Time),106248.69999998808,window,1100,O,m,,,1183,,,16,1,3595.399999976158,102653.30000001192,7112,temper,AF,B,,,,,,,,,,3
1,prac,1,con,1,z,Fri Apr 04 2025 16:10:11 GMT-0500 (Central Daylight Time),109581.19999998808,rage,1000,O,z,,,1012,,,15,1,3317.100000023842,106264.09999996424,7112,rage,AF,B,,,,,,,,,,4
2,prac,1,inc,1,m,Fri Apr 04 2025 16:10:11 GMT-0500 (Central Daylight Time),112847.0,hate,1100,O,m,,,835,,,4,1,3240.900000035763,109606.09999996424,7112,film,AF,B,,,,,,,,,,5
2,prac,1,con,0,m,Fri Apr 04 2025 16:10:11 GMT-0500 (Central Daylight Time),115829.09999996424,remote,1000,O,z,,,653,,,7,1,2959.099999964237,112870.0,7112,remote,AF,B,,,,,,,,,,6
2,prac,1,inc,0,z,Fri Apr 04 2025 16:10:11 GMT-0500 (Central Daylight Time),118894.89999997616,film,900,O,m,,,844,,,14,1,3044.0,115850.89999997616,7112,hate,AF,B,,,,,,,,,,7
2,prac,1,con,0,z,Fri Apr 04 2025 16:10:11 GMT-0500 (Central Daylight Time),122793.39999997616,elated,800,O,m,,,1765,,,9,1,3875.599999964237,118917.80000001192,7112,elated,AF,B,,,,,,,,,,8
3,prac,1,inc,1,m,Fri Apr 04 2025 16:10:11 GMT-0500 (Central Daylight Time),126942.19999998808,kind,900,O,m,,,1919,,,2,1,4131.100000023842,122811.09999996424,7112,rock,AF,B,,,,,,,,,,9
4,prac,1,con,1,z,Fri Apr 04 2025 16:10:11 GMT-0500 (Central Daylight Time),130374.5,brutal,800,O,z,,,1306,,,13,1,3408.100000023842,126966.39999997616,7112,brutal,AF,B,,,,,,,,,,10
5,prac,1,con,1,m,Fri Apr 04 2025 16:10:11 GMT-0500 (Central Daylight Time),133356.69999998808,bell,1000,O,m,,,662,,,3,1,2958.199999988079,130398.5,7112,bell,AF,B,,,,,,,,,,11
6,prac,1,inc,1,z,Fri Apr 04 2025 16:10:11 GMT-0500 (Central Daylight Time),136805.69999998808,rock,900,O,z,,,1228,,,10,1,3426.699999988079,133379.0,7112,kind,AF,B,,,,,,,,,,12
7,prac,1,inc,1,m,Fri Apr 04 2025 16:10:11 GMT-0500 (Central Daylight Time),139688.09999996424,elated,900,O,m,,,659,,,6,1,2859.599999964237,136828.5,7112,napkin,AF,B,,,,,,,,,,13
8,prac,1,con,1,m,Fri Apr 04 2025 16:10:11 GMT-0500 (Central Daylight Time),142703.59999996424,jacket,800,O,m,,,884,,,5,1,2992.599999964237,139711.0,7112,jacket,AF,B,,,,,,,,,,14
9,prac,1,inc,1,m,Fri Apr 04 2025 16:10:11 GMT-0500 (Central Daylight Time),146002.69999998808,brutal,1100,O,m,,,873,,,8,1,3276.399999976158,142726.30000001192,7112,window,AF,B,,,,,,,,,,15
10,prac,1,con,1,m,Fri Apr 04 2025 16:10:11 GMT-0500 (Central Daylight Time),148868.39999997616,step,800,O,m,,,738,,,1,1,2843.699999988079,146024.69999998808,7112,step,AF,B,,,,,,,,,,16
1,prac,2,con,1,m,Fri Apr 04 2025 16:10:11 GMT-0500 (Central Daylight Time),159748.09999996424,step,800,O,m,,,1888,,,1,1,3991.899999976158,155756.19999998808,7112,step,AF,B,,,,,,,,,,1
2,prac,2,inc,1,m,Fri Apr 04 2025 16:10:11 GMT-0500 (Central Daylight Time),162797.0,kind,900,O,m,,,820,,,2,1,3025.900000035763,159771.09999996424,7112,rock,AF,B,,,,,,,,,,2
3,prac,2,con,1,m,Fri Apr 04 2025 16:10:11 GMT-0500 (Central Daylight Time),165763.0,bell,1000,O,m,,,639,,,3,1,2946.900000035763,162816.09999996424,7112,bell,AF,B,,,,,,,,,,3
4,prac,2,inc,1,m,Fri Apr 04 2025 16:10:11 GMT-0500 (Central Daylight Time),168795.19999998808,elated,900,O,m,,,830,,,6,1,3011.0,165784.19999998808,7112,napkin,AF,B,,,,,,,,,,4
5,prac,2,inc,1,m,Fri Apr 04 2025 16:10:11 GMT-0500 (Central Daylight Time),171911.09999996424,brutal,1100,O,m,,,685,,,8,1,3095.699999988079,168815.39999997616,7112,window,AF,B,,,,,,,,,,5
6,prac,2,inc,1,z,Fri Apr 04 2025 16:10:11 GMT-0500 (Central Daylight Time),175043.09999996424,window,1100,O,z,,,698,,,16,1,3109.699999988079,171933.39999997616,7112,temper,AF,B,,,,,,,,,,6
7,prac,2,con,1,z,Fri Apr 04 2025 16:10:11 GMT-0500 (Central Daylight Time),178292.09999996424,brutal,800,O,z,,,1129,,,13,1,3227.5,175064.59999996424,7112,brutal,AF,B,,,,,,,,,,7
8,prac,2,con,1,z,Fri Apr 04 2025 16:10:11 GMT-0500 (Central Daylight Time),181291.09999996424,rage,1000,O,z,,,664,,,15,1,2978.2999999523163,178312.80000001192,7112,rage,AF,B,,,,,,,,,,8
8,prac,2,inc,0,z,Fri Apr 04 2025 16:10:11 GMT-0500 (Central Daylight Time),184456.80000001192,napkin,1100,O,m,,,733,,,12,1,3144.300000011921,181312.5,7112,friend,AF,B,,,,,,,,,,9
9,prac,2,con,1,m,Fri Apr 04 2025 16:10:11 GMT-0500 (Central Daylight Time),187405.59999996424,jacket,800,O,m,,,821,,,5,1,2928.7999999523163,184476.80000001192,7112,jacket,AF,B,,,,,,,,,,10
9,prac,2,con,0,z,Fri Apr 04 2025 16:10:11 GMT-0500 (Central Daylight Time),190754.69999998808,love,1000,O,m,,,1015,,,11,1,3327.399999976158,187427.30000001192,7112,love,AF,B,,,,,,,,,,11
10,prac,2,inc,1,z,Fri Apr 04 2025 16:10:11 GMT-0500 (Central Daylight Time),194003.30000001192,film,900,O,z,,,1031,,,14,1,3227.400000035763,190775.89999997616,7112,hate,AF,B,,,,,,,,,,12
11,prac,2,con,1,m,Fri Apr 04 2025 16:10:11 GMT-0500 (Central Daylight Time),197219.09999996424,remote,1000,O,m,,,897,,,7,1,3193.899999976158,194025.19999998808,7112,remote,AF,B,,,,,,,,,,13
12,prac,2,inc,1,m,Fri Apr 04 2025 16:10:11 GMT-0500 (Central Daylight Time),200434.80000001192,hate,1100,O,m,,,789,,,4,1,3194.800000011921,197240.0,7112,film,AF,B,,,,,,,,,,14
13,prac,2,inc,1,z,Fri Apr 04 2025 16:10:11 GMT-0500 (Central Daylight Time),203500.39999997616,rock,900,O,z,,,838,,,10,1,3047.599999964237,200452.80000001192,7112,kind,AF,B,,,,,,,,,,15
14,prac,2,con,1,z,Fri Apr 04 2025 16:10:11 GMT-0500 (Central Daylight Time),206249.59999996424,elated,800,O,z,,,616,,,9,1,2728.099999964237,203521.5,7112,elated,AF,B,,,,,,,,,,16
1,test,1,inc,1,m,Fri Apr 04 2025 16:10:11 GMT-0500 (Central Daylight Time),223210.69999998808,friend,1100,O,m,m,None,900,701.0,199.0,112,1,2545.300000011921,220665.39999997616,7112,napkin,AF,B,214690,214690,212860,213974,212862,215406,214490,214490,215405,1
2,test,1,inc,1,z,Fri Apr 04 2025 16:10:11 GMT-0500 (Central Daylight Time),225908.89999997616,remote,1000,O,z,z,None,1137,938.0,199.0,39,1,2675.5,223233.39999997616,7112,brutal,AF,B,217156,217156,215428,216439,215430,218104,216956,216956,218104,2
3,test,1,inc,1,m,Fri Apr 04 2025 16:10:11 GMT-0500 (Central Daylight Time),228325.59999996424,temper,1000,O,m,m,None,871,656.0,215.0,119,1,2409.599999964237,225916.0,7112,remote,AF,B,219855,219855,218111,219121,218112,220521,219639,219639,220521,3
4,test,1,con,1,m,Fri Apr 04 2025 16:10:11 GMT-0500 (Central Daylight Time),230541.09999996424,film,900,O,m,m,None,763,564.0,199.0,90,1,2189.099999964237,228352.0,7112,film,AF,B,222171,222171,220547,221454,220548,222736,221971,221971,222736,4
5,test,1,con,1,z,Fri Apr 04 2025 16:10:11 GMT-0500 (Central Daylight Time),232907.30000001192,rage,900,O,z,z,None,908,709.0,199.0,50,1,2346.100000023842,230561.19999998808,7112,rage,AF,B,224387,224387,222756,223670,222758,225102,224187,224187,225102,5
6,test,1,con,1,z,Fri Apr 04 2025 16:10:11 GMT-0500 (Central Daylight Time),235389.30000001192,kind,1000,O,z,z,None,930,731.0,199.0,11,1,2461.100000023842,232928.19999998808,7112,kind,AF,B,226852,226852,225123,226136,225125,227584,226653,226653,227584,6
7,test,1,inc,1,z,Fri Apr 04 2025 16:10:11 GMT-0500 (Central Daylight Time),237805.69999998808,remote,1000,O,z,z,None,871,656.0,215.0,7,1,2404.699999988079,235401.0,7112,elated,AF,B,229335,229335,227596,228602,227597,230001,229119,229119,230001,7
8,test,1,inc,1,z,Fri Apr 04 2025 16:10:11 GMT-0500 (Central Daylight Time),239921.69999998808,jacket,800,O,z,z,None,759,560.0,199.0,5,1,2095.300000011921,237826.39999997616,7112,elated,AF,B,231551,231551,230021,230835,230023,232117,231351,231351,232117,8
9,test,1,inc,1,m,Fri Apr 04 2025 16:10:11 GMT-0500 (Central Daylight Time),242337.5,love,1000,O,m,m,None,851,652.0,199.0,71,1,2395.600000023842,239941.89999997616,7112,step,AF,B,233867,233867,232137,233151,232139,234533,233667,233667,234533,9
10,test,1,inc,1,z,Fri Apr 04 2025 16:10:11 GMT-0500 (Central Daylight Time),245036.69999998808,rock,900,O,z,z,None,1239,1040.0,199.0,22,1,2677.899999976158,242358.80000001192,7112,love,AF,B,236183,236183,234554,235466,234556,237232,235983,235983,237232,10
11,test,1,con,1,m,Fri Apr 04 2025 16:10:11 GMT-0500 (Central Daylight Time),247102.59999996424,napkin,800,O,m,m,None,704,489.0,215.0,105,1,2046.3999999761581,245056.19999998808,7112,napkin,AF,B,238798,238798,237251,238066,237253,239298,238582,238583,239298,11
12,test,1,inc,1,m,Fri Apr 04 2025 16:10:11 GMT-0500 (Central Daylight Time),249651.80000001192,friend,1100,O,m,m,None,890,691.0,199.0,104,1,2531.400000035763,247120.39999997616,7112,jacket,AF,B,241148,241148,239315,240431,239317,241847,240948,240948,241847,12
13,test,1,inc,1,m,Fri Apr 04 2025 16:10:11 GMT-0500 (Central Daylight Time),252217.5,friend,1100,O,m,m,None,909,710.0,199.0,120,1,2545.100000023842,249672.39999997616,7112,remote,AF,B,243697,243697,241867,242981,241869,244413,243497,243497,244412,13
14,test,1,con,1,z,Fri Apr 04 2025 16:10:11 GMT-0500 (Central Daylight Time),254633.5,rage,1000,O,z,z,None,851,652.0,199.0,51,1,2395.100000023842,252238.39999997616,7112,rage,AF,B,246163,246163,244433,245446,244435,246829,245963,245963,246829,14
15,test,1,inc,1,m,Fri Apr 04 2025 16:10:11 GMT-0500 (Central Daylight Time),257016.09999996424,elated,800,O,m,m,None,1019,820.0,199.0,125,1,2363.099999964237,254653.0,7112,window,AF,B,248379,248379,246848,247663,246850,249211,248179,248179,249211,15
16,test,1,inc,1,m,Fri Apr 04 2025 16:10:11 GMT-0500 (Central Daylight Time),260448.39999997616,temper,1000,O,m,m,None,1876,1661.0,215.0,111,1,3412.399999976158,257036.0,7112,napkin,AF,B,250978,250978,249231,250245,249233,252644,250762,250762,252643,16
17,test,1,inc,1,m,Fri Apr 04 2025 16:10:11 GMT-0500 (Central Daylight Time),262565.0,brutal,900,O,m,m,None,664,449.0,215.0,102,1,2096.800000011921,260468.19999998808,7112,jacket,AF,B,254310,254310,252663,253577,252665,254760,254094,254094,254760,17
18,test,1,inc,1,z,Fri Apr 04 2025 16:10:11 GMT-0500 (Central Daylight Time),264846.39999997616,jacket,800,O,z,z,None,927,728.0,199.0,37,1,2262.5,262583.89999997616,7112,brutal,AF,B,256309,256310,254779,255593,254780,257041,256110,256110,257041,18
19,test,1,con,1,z,Fri Apr 04 2025 16:10:11 GMT-0500 (Central Daylight Time),267096.09999996424,elated,800,O,z,z,None,904,705.0,199.0,1,1,2238.399999976158,264857.6999999881,7112,elated,AF,B,258575,258575,257053,257859,257054,259291,258376,258376,259291,19
20,test,1,con,1,z,Fri Apr 04 2025 16:10:11 GMT-0500 (Central Daylight Time),269478.5,brutal,900,O,z,z,None,929,730.0,199.0,34,1,2361.600000023842,267116.89999997616,7112,brutal,AF,B,260941,260941,259312,260225,259313,261674,260742,260742,261673,20
21,test,1,con,1,m,Fri Apr 04 2025 16:10:11 GMT-0500 (Central Daylight Time),272044.59999996424,step,1100,O,m,m,None,906,707.0,199.0,68,1,2545.5,269499.09999996424,7112,step,AF,B,263524,263524,261694,262807,261695,264240,263324,263324,264239,21
22,test,1,con,1,m,Fri Apr 04 2025 16:10:11 GMT-0500 (Central Daylight Time),274343.6999999881,bell,800,O,m,m,None,936,737.0,199.0,81,1,2279.199999988079,272064.5,7112,bell,AF,B,265789,265790,264259,265073,264261,266539,265590,265590,266539,22
23,test,1,inc,1,m,Fri Apr 04 2025 16:10:11 GMT-0500 (Central Daylight Time),276676.39999997616,friend,1100,O,m,m,None,665,466.0,199.0,128,1,2312.800000011921,274363.59999996424,7112,window,AF,B,268389,268389,266559,267673,266560,268871,268189,268189,268871,23
24,test,1,inc,1,m,Fri Apr 04 2025 16:10:11 GMT-0500 (Central Daylight Time),279341.8000000119,kind,900,O,m,m,None,1214,1015.0,199.0,78,1,2644.600000023842,276697.1999999881,7112,rock,AF,B,270521,270521,268892,269804,268894,271537,270322,270322,271537,24
25,test,1,inc,1,m,Fri Apr 04 2025 16:10:11 GMT-0500 (Central Daylight Time),281708.09999996424,hate,1100,O,m,m,None,698,483.0,215.0,72,1,2343.899999976158,279364.1999999881,7112,step,AF,B,273404,273404,271559,272671,271561,273903,273187,273188,273903,25
26,test,1,con,1,z,Fri Apr 04 2025 16:10:11 GMT-0500 (Central Daylight Time),284190.39999997616,love,1100,O,z,z,None,821,622.0,199.0,20,1,2463.099999964237,281727.3000000119,7112,love,AF,B,275753,275753,273922,275037,273924,276386,275553,275553,276385,26
27,test,1,inc,1,m,Fri Apr 04 2025 16:10:11 GMT-0500 (Central Daylight Time),287305.5,rage,800,O,m,m,None,1757,1558.0,199.0,69,1,3095.600000023842,284209.89999997616,7112,step,AF,B,277936,277936,276405,277219,276407,279501,277736,277736,279501,27
28,test,1,con,1,m,Fri Apr 04 2025 16:10:11 GMT-0500 (Central Daylight Time),289488.6999999881,napkin,1100,O,m,m,None,544,345.0,199.0,108,1,2176.699999988079,287312.0,7112,napkin,AF,B,281335,281335,279507,280618,279507,281684,281135,281135,281684,28
29,test,1,inc,1,m,Fri Apr 04 2025 16:10:11 GMT-0500 (Central Daylight Time),291804.6999999881,rage,800,O,m,m,None,948,733.0,215.0,77,1,2296.199999988079,289508.5,7112,rock,AF,B,283250,283251,281704,282518,281704,284000,283035,283035,284000,29
30,test,1,inc,1,z,Fri Apr 04 2025 16:10:11 GMT-0500 (Central Daylight Time),294353.8000000119,film,1100,O,z,z,None,892,693.0,199.0,16,1,2529.2000000476837,291824.59999996424,7112,kind,AF,B,285850,285850,284020,285133,284021,286549,285650,285650,286549,30
31,test,1,con,1,m,Fri Apr 04 2025 16:10:11 GMT-0500 (Central Daylight Time),296503.3000000119,remote,900,O,m,m,None,686,471.0,215.0,114,1,2129.900000035763,294373.39999997616,7112,remote,AF,B,288216,288216,286568,287483,286570,288699,287999,288000,288698,31
32,test,1,inc,1,m,Fri Apr 04 2025 16:10:11 GMT-0500 (Central Daylight Time),298919.0,temper,1000,O,m,m,None,853,638.0,215.0,103,1,2395.400000035763,296523.59999996424,7112,jacket,AF,B,290465,290465,288719,289732,288720,291114,290249,290249,291114,32
33,test,1,inc,1,z,Fri Apr 04 2025 16:10:11 GMT-0500 (Central Daylight Time),301368.1999999881,jacket,800,O,z,z,None,1086,887.0,199.0,61,1,2429.5,298938.6999999881,7112,temper,AF,B,292665,292665,291134,291948,291135,293563,292465,292465,293563,33
34,test,1,con,1,z,Fri Apr 04 2025 16:10:11 GMT-0500 (Central Daylight Time),303784.09999996424,rage,1100,O,z,z,None,752,537.0,215.0,52,1,2395.2999999523163,301388.8000000119,7112,rage,AF,B,295430,295430,293584,294697,293585,295979,295214,295214,295979,34
35,test,1,con,1,m,Fri Apr 04 2025 16:10:11 GMT-0500 (Central Daylight Time),306333.09999996424,remote,1100,O,m,m,None,897,682.0,215.0,116,1,2529.199999988079,303803.89999997616,7112,remote,AF,B,297846,297846,295999,297113,296000,298528,297630,297630,298528,35
36,test,1,con,1,m,Fri Apr 04 2025 16:10:11 GMT-0500 (Central Daylight Time),309415.1999999881,window,1100,O,m,m,None,1428,1213.0,215.0,124,1,3061.100000023842,306354.09999996424,7112,window,AF,B,300394,300394,298549,299662,298550,301610,300179,300179,301610,36
37,test,1,con,1,z,Fri Apr 04 2025 16:10:11 GMT-0500 (Central Daylight Time),311881.1999999881,hate,1100,O,z,z,None,810,611.0,199.0,44,1,2446.600000023842,309434.59999996424,7112,hate,AF,B,303460,303461,301630,302744,301631,304076,303261,303261,304076,37
38,test,1,con,1,m,Fri Apr 04 2025 16:10:11 GMT-0500 (Central Daylight Time),314014.0,step,900,O,m,m,None,671,472.0,199.0,66,1,2113.100000023842,311900.89999997616,7112,step,AF,B,305727,305727,304096,305010,304098,306209,305527,305527,306209,38
39,test,1,inc,1,m,Fri Apr 04 2025 16:10:11 GMT-0500 (Central Daylight Time),317113.0,hate,1100,O,m,m,None,1436,1236.0,200.0,88,1,3078.5,314034.5,7112,bell,AF,B,308059,308059,306230,307343,306231,309308,307859,307859,309308,39
40,test,1,inc,1,m,Fri Apr 04 2025 16:10:11 GMT-0500 (Central Daylight Time),319412.3000000119,brutal,900,O,m,m,None,831,616.0,215.0,126,1,2278.300000011921,317134.0,7112,window,AF,B,310975,310975,309329,310242,309331,311607,310759,310759,311607,40
41,test,1,con,1,z,Fri Apr 04 2025 16:10:11 GMT-0500 (Central Daylight Time),321978.0,hate,900,O,z,z,None,1110,911.0,199.0,42,1,2545.400000035763,319432.59999996424,7112,hate,AF,B,313257,313257,311628,312541,311629,314173,313058,313058,314173,41
42,test,1,con,1,m,Fri Apr 04 2025 16:10:11 GMT-0500 (Central Daylight Time),324760.59999996424,remote,1000,O,m,m,None,1226,1011.0,215.0,115,1,2762.7999999523163,321997.8000000119,7112,remote,AF,B,315940,315940,314193,315207,314195,316956,315724,315724,316956,42
43,test,1,inc,1,z,Fri Apr 04 2025 16:10:11 GMT-0500 (Central Daylight Time),326892.5,napkin,900,O,z,z,None,680,481.0,199.0,38,1,2111.400000035763,324781.09999996424,7112,brutal,AF,B,318606,318606,316976,317889,316978,319088,318406,318406,319088,43
44,test,1,con,1,m,Fri Apr 04 2025 16:10:11 GMT-0500 (Central Daylight Time),329109.5,jacket,1100,O,m,m,None,581,382.0,199.0,100,1,2205.900000035763,326903.59999996424,7112,jacket,AF,B,320922,320922,319099,320206,319100,321305,320722,320722,321304,44
45,test,1,inc,1,m,Fri Apr 04 2025 16:10:11 GMT-0500 (Central Daylight Time),332141.59999996424,temper,1000,O,m,m,None,1480,1265.0,215.0,127,1,3014.0,329127.59999996424,7112,window,AF,B,323071,323071,321323,322338,321323,324337,322854,322855,324336,45
46,test,1,inc,1,m,Fri Apr 04 2025 16:10:11 GMT-0500 (Central Daylight Time),334257.5,elated,800,O,m,m,None,751,552.0,199.0,101,1,2096.199999988079,332161.3000000119,7112,jacket,AF,B,325886,325887,324356,325170,324358,326453,325687,325687,326452,46
47,test,1,con,1,z,Fri Apr 04 2025 16:10:11 GMT-0500 (Central Daylight Time),336456.59999996424,temper,1000,O,z,z,None,635,436.0,199.0,59,1,2178.2999999523163,334278.3000000119,7112,temper,AF,B,328202,328203,326473,327486,326475,328652,328003,328003,328652,47
48,test,1,con,1,m,Fri Apr 04 2025 16:10:11 GMT-0500 (Central Daylight Time),338805.89999997616,bell,1100,O,m,m,None,688,489.0,199.0,84,1,2329.800000011921,336476.09999996424,7112,bell,AF,B,330502,330502,328671,329786,328672,331001,330302,330302,331001,48
49,test,1,con,1,m,Fri Apr 04 2025 16:10:11 GMT-0500 (Central Daylight Time),341088.5,step,1000,O,m,m,None,727,528.0,199.0,67,1,2262.400000035763,338826.09999996424,7112,step,AF,B,332751,332751,331021,332035,331023,333284,332551,332551,333283,49
50,test,1,con,1,m,Fri Apr 04 2025 16:10:11 GMT-0500 (Central Daylight Time),343354.3000000119,napkin,1000,O,m,m,None,709,510.0,199.0,107,1,2246.0,341108.3000000119,7112,napkin,AF,B,335033,335034,333303,334317,333305,335549,334834,334834,335549,50
51,test,1,con,1,z,Fri Apr 04 2025 16:10:11 GMT-0500 (Central Daylight Time),345803.6999999881,brutal,1000,O,z,z,None,890,691.0,199.0,35,1,2428.399999976158,343375.3000000119,7112,brutal,AF,B,337300,337300,335570,336583,335572,337999,337100,337100,337999,51
52,test,1,inc,1,m,Fri Apr 04 2025 16:10:11 GMT-0500 (Central Daylight Time),347852.0,kind,900,O,m,m,None,588,389.0,199.0,94,1,2028.300000011921,345823.6999999881,7112,film,AF,B,339649,339649,338019,338933,338020,340047,339449,339449,340047,52
52,test,1,inc,0,z,Fri Apr 04 2025 16:10:11 GMT-0500 (Central Daylight Time),350152.1999999881,remote,1000,O,m,m,None,752,553.0,199.0,31,1,2294.300000011921,347857.89999997616,7112,friend,AF,B,341781,341782,340053,341065,340053,342347,341582,341582,342347,53
53,test,1,inc,1,z,Fri Apr 04 2025 16:10:11 GMT-0500 (Central Daylight Time),352468.09999996424,rock,900,O,z,z,None,856,641.0,215.0,54,1,2296.199999988079,350171.89999997616,7112,rage,AF,B,344014,344014,342367,343281,342368,344663,343798,343798,344663,54
54,test,1,con,1,m,Fri Apr 04 2025 16:10:11 GMT-0500 (Central Daylight Time),354517.6999999881,step,800,O,m,m,None,699,500.0,199.0,65,1,2029.5,352488.1999999881,7112,step,AF,B,346212,346212,344683,345496,344685,346713,346013,346013,346713,55
55,test,1,con,1,m,Fri Apr 04 2025 16:10:11 GMT-0500 (Central Daylight Time),356983.3000000119,rock,800,O,m,m,None,1112,913.0,199.0,73,1,2446.7000000476837,354536.59999996424,7112,rock,AF,B,348262,348262,346732,347546,346733,349178,348063,348063,349178,56
56,test,1,con,1,z,Fri Apr 04 2025 16:10:11 GMT-0500 (Central Daylight Time),359898.8000000119,elated,900,O,z,z,None,1449,1250.0,199.0,2,1,2896.300000011921,357002.5,7112,elated,AF,B,350828,350829,349198,350112,349199,352094,350629,350629,352094,57
57,test,1,con,1,m,Fri Apr 04 2025 16:10:11 GMT-0500 (Central Daylight Time),361897.59999996424,jacket,800,O,m,m,None,640,426.0,214.0,97,1,1977.199999988079,359920.39999997616,7112,jacket,AF,B,353660,353660,352115,352928,352117,354093,353445,353445,354093,58
58,test,1,con,1,z,Fri Apr 04 2025 16:10:11 GMT-0500 (Central Daylight Time),364297.59999996424,kind,1100,O,z,z,None,752,537.0,215.0,12,1,2394.599999964237,361903.0,7112,kind,AF,B,355942,355942,354098,355209,354098,356493,355727,355727,356493,59
59,test,1,con,1,z,Fri Apr 04 2025 16:10:11 GMT-0500 (Central Daylight Time),366496.89999997616,hate,800,O,z,z,None,836,636.0,200.0,41,1,2179.699999988079,364317.1999999881,7112,hate,AF,B,358044,358044,356512,357327,356514,358692,357843,357843,358692,60
59,test,1,inc,0,z,Fri Apr 04 2025 16:10:11 GMT-0500 (Central Daylight Time),369246.09999996424,window,1100,O,m,m,None,1097,898.0,199.0,32,1,2728.399999976158,366517.6999999881,7112,friend,AF,B,360542,360542,358713,359826,358714,361441,360342,360342,361441,61
60,test,1,inc,1,z,Fri Apr 04 2025 16:10:11 GMT-0500 (Central Daylight Time),371811.6999999881,bell,1000,O,z,z,None,1006,791.0,215.0,47,1,2544.800000011921,369266.89999997616,7112,hate,AF,B,363208,363208,361462,362475,361463,364007,362991,362992,364007,62
61,test,1,inc,1,m,Fri Apr 04 2025 16:10:11 GMT-0500 (Central Daylight Time),374510.8000000119,hate,1100,O,m,m,None,1045,846.0,199.0,96,1,2679.800000011921,371831.0,7112,film,AF,B,365857,365857,364026,365140,364028,366706,365657,365657,366706,63
62,test,1,con,1,z,Fri Apr 04 2025 16:10:11 GMT-0500 (Central Daylight Time),376477.39999997616,rage,800,O,z,z,None,615,416.0,199.0,49,1,1946.699999988079,374530.6999999881,7112,rage,AF,B,368256,368256,366726,367540,366727,368673,368056,368056,368672,64
63,test,1,con,1,z,Fri Apr 04 2025 16:10:11 GMT-0500 (Central Daylight Time),378642.6999999881,elated,1100,O,z,z,None,508,293.0,215.0,4,1,2144.800000011921,376497.89999997616,7112,elated,AF,B,370539,370539,368693,369806,368694,370838,370322,370323,370838,65
64,test,1,inc,1,z,Fri Apr 04 2025 16:10:11 GMT-0500 (Central Daylight Time),380858.59999996424,bell,1000,O,z,z,None,658,459.0,199.0,23,1,2196.399999976158,378662.1999999881,7112,love,AF,B,372588,372588,370857,371872,370860,373054,372388,372388,373054,66
64,test,1,con,0,z,Fri Apr 04 2025 16:10:11 GMT-0500 (Central Daylight Time),383091.39999997616,friend,1100,O,m,m,None,574,375.0,199.0,28,1,2213.399999976158,380878.0,7112,friend,AF,B,374904,374904,373073,374188,373075,375286,374704,374704,375286,67
65,test,1,inc,1,m,Fri Apr 04 2025 16:10:11 GMT-0500 (Central Daylight Time),385341.0,love,1000,O,m,m,None,697,498.0,199.0,95,1,2230.5,383110.5,7112,film,AF,B,377037,377037,375306,376320,375307,377536,376837,376837,377536,68
66,test,1,con,1,z,Fri Apr 04 2025 16:10:11 GMT-0500 (Central Daylight Time),387590.0,hate,1000,O,z,z,None,688,489.0,199.0,43,1,2227.600000023842,385362.39999997616,7112,hate,AF,B,379286,379286,377557,378569,377558,379785,379086,379086,379785,69
66,test,1,inc,0,z,Fri Apr 04 2025 16:10:11 GMT-0500 (Central Daylight Time),389822.3000000119,window,1100,O,m,m,None,580,381.0,199.0,40,1,2212.2000000476837,387610.09999996424,7112,brutal,AF,B,381635,381635,379805,380919,379807,382017,381435,381435,382017,70
67,test,1,inc,1,z,Fri Apr 04 2025 16:10:11 GMT-0500 (Central Daylight Time),392321.8000000119,film,1100,O,z,z,None,835,636.0,199.0,56,1,2479.7000000476837,389842.09999996424,7112,rage,AF,B,383867,383867,382037,383151,382039,384517,383668,383668,384517,71
67,test,1,con,0,z,Fri Apr 04 2025 16:10:11 GMT-0500 (Central Daylight Time),395187.3000000119,friend,900,O,m,m,None,1407,1208.0,199.0,26,1,2845.800000011921,392341.5,7112,friend,AF,B,386167,386167,384537,385451,384538,387382,385967,385967,387382,72
68,test,1,inc,1,m,Fri Apr 04 2025 16:10:11 GMT-0500 (Central Daylight Time),397603.3000000119,brutal,900,O,m,m,None,957,758.0,199.0,118,1,2397.5,395205.8000000119,7112,remote,AF,B,389032,389033,387401,388316,387402,389798,388833,388833,389798,73
69,test,1,inc,1,m,Fri Apr 04 2025 16:10:11 GMT-0500 (Central Daylight Time),399619.09999996424,elated,800,O,m,m,None,658,459.0,199.0,109,1,1995.0999999642372,397624.0,7112,napkin,AF,B,391348,391348,389819,390632,389820,391814,391149,391149,391814,74
69,test,1,inc,0,z,Fri Apr 04 2025 16:10:11 GMT-0500 (Central Daylight Time),403084.8000000119,napkin,900,O,None,None,None,1815,1815.0,199.0,6,1,3446.400000035763,399638.39999997616,7112,elated,AF,B,393465,393465,391833,392748,391835,395280,393265,393265,395280,75
69,test,1,con,0,z,Fri Apr 04 2025 16:10:11 GMT-0500 (Central Daylight Time),405067.6999999881,friend,1000,O,m,m,None,424,225.0,199.0,27,1,1962.8999999761581,403104.8000000119,7112,friend,AF,B,397030,397030,395300,396314,395301,397263,396830,396830,397263,76
70,test,1,con,1,z,Fri Apr 04 2025 16:10:11 GMT-0500 (Central Daylight Time),407233.59999996424,love,900,O,z,z,None,702,487.0,215.0,18,1,2146.199999988079,405087.39999997616,7112,love,AF,B,398928,398928,397282,398196,397284,399429,398713,398713,399429,77
71,test,1,con,1,z,Fri Apr 04 2025 16:10:11 GMT-0500 (Central Daylight Time),409382.6999999881,kind,800,O,z,z,None,795,596.0,199.0,9,1,2129.0,407253.6999999881,7112,kind,AF,B,400979,400979,399449,400261,399450,401578,400779,400779,401578,78
72,test,1,inc,1,z,Fri Apr 04 2025 16:10:11 GMT-0500 (Central Daylight Time),411548.8000000119,step,800,O,z,z,None,799,600.0,199.0,13,1,2145.2000000476837,409403.59999996424,7112,kind,AF,B,403128,403128,401599,402413,401601,403744,402928,402928,403744,79
73,test,1,con,1,z,Fri Apr 04 2025 16:10:11 GMT-0500 (Central Daylight Time),413565.6999999881,friend,800,O,z,z,None,665,466.0,199.0,25,1,1996.5,411569.1999999881,7112,friend,AF,B,405294,405294,403764,404578,403766,405761,405094,405094,405761,80
74,test,1,inc,1,z,Fri Apr 04 2025 16:10:11 GMT-0500 (Central Daylight Time),415680.6999999881,step,800,O,z,z,None,761,562.0,199.0,53,1,2095.300000011921,413585.39999997616,7112,rage,AF,B,407310,407310,405780,406594,405782,407876,407110,407110,407876,81
75,test,1,con,1,z,Fri Apr 04 2025 16:10:11 GMT-0500 (Central Daylight Time),417480.09999996424,temper,800,O,z,z,None,436,221.0,215.0,57,1,1778.8999999761581,415701.1999999881,7112,temper,AF,B,409442,409442,407896,408710,407898,409675,409226,409227,409675,82
76,test,1,con,1,m,Fri Apr 04 2025 16:10:11 GMT-0500 (Central Daylight Time),419562.6999999881,window,900,O,m,m,None,625,426.0,199.0,122,1,2062.0,417500.6999999881,7112,window,AF,B,411325,411325,409696,410609,409697,411758,411125,411125,411758,83
77,test,1,inc,1,m,Fri Apr 04 2025 16:10:11 GMT-0500 (Central Daylight Time),421978.59999996424,kind,900,O,m,m,None,958,759.0,199.0,70,1,2395.899999976158,419582.6999999881,7112,step,AF,B,413408,413408,411778,412692,411779,414174,413208,413208,414174,84
78,test,1,inc,1,z,Fri Apr 04 2025 16:10:11 GMT-0500 (Central Daylight Time),424177.8000000119,napkin,900,O,z,z,None,734,535.0,199.0,30,1,2179.2000000476837,421998.59999996424,7112,friend,AF,B,415824,415824,414194,415107,414195,416373,415624,415624,416373,85
79,test,1,con,1,m,Fri Apr 04 2025 16:10:11 GMT-0500 (Central Daylight Time),426893.5,film,1000,O,m,m,None,1156,957.0,199.0,91,1,2695.900000035763,424197.59999996424,7112,film,AF,B,418123,418123,416393,417407,416394,419089,417923,417923,419088,86
80,test,1,con,1,z,Fri Apr 04 2025 16:10:11 GMT-0500 (Central Daylight Time),429225.3000000119,temper,1100,O,z,z,None,666,467.0,199.0,60,1,2311.7000000476837,426913.59999996424,7112,temper,AF,B,420939,420939,419109,420223,419110,421420,420739,420739,421420,87
81,test,1,inc,1,m,Fri Apr 04 2025 16:10:11 GMT-0500 (Central Daylight Time),431292.1999999881,rage,800,O,m,m,None,715,516.0,199.0,93,1,2061.899999976158,429230.3000000119,7112,film,AF,B,422955,422955,421425,422238,421426,423487,422755,422755,423487,88
82,test,1,inc,1,m,Fri Apr 04 2025 16:10:11 GMT-0500 (Central Daylight Time),433508.09999996424,love,1000,O,m,m,None,658,459.0,199.0,87,1,2196.199999988079,431311.89999997616,7112,bell,AF,B,425237,425237,423507,424521,423509,425703,425037,425038,425703,89
83,test,1,inc,1,z,Fri Apr 04 2025 16:10:11 GMT-0500 (Central Daylight Time),435924.09999996424,film,1100,O,z,z,None,750,551.0,199.0,24,1,2396.0,433528.09999996424,7112,love,AF,B,427553,427553,425723,426837,425725,428119,427354,427354,428119,90
84,test,1,con,1,m,Fri Apr 04 2025 16:10:11 GMT-0500 (Central Daylight Time),439073.0,rock,1000,O,m,m,None,1594,1395.0,199.0,75,1,3130.100000023842,435942.89999997616,7112,rock,AF,B,429869,429869,428138,429153,428139,431268,429669,429669,431268,91
85,test,1,con,1,m,Fri Apr 04 2025 16:10:11 GMT-0500 (Central Daylight Time),441472.09999996424,jacket,1000,O,m,m,None,835,620.0,215.0,99,1,2380.099999964237,439092.0,7112,jacket,AF,B,433035,433035,431287,432302,431288,433667,432819,432819,433667,92
86,test,1,inc,1,z,Fri Apr 04 2025 16:10:11 GMT-0500 (Central Daylight Time),443704.0,rock,900,O,z,z,None,775,576.0,199.0,46,1,2211.5,441492.5,7112,hate,AF,B,435317,435318,433688,434601,433689,435899,435118,435118,435899,93
87,test,1,con,1,z,Fri Apr 04 2025 16:10:11 GMT-0500 (Central Daylight Time),446670.39999997616,temper,900,O,z,z,None,1529,1330.0,199.0,58,1,2960.199999988079,443710.1999999881,7112,temper,AF,B,437533,437533,435905,436816,435906,438866,437334,437334,438865,94
88,test,1,con,1,m,Fri Apr 04 2025 16:10:11 GMT-0500 (Central Daylight Time),449202.89999997616,rock,1100,O,m,m,None,875,676.0,199.0,76,1,2511.300000011921,446691.59999996424,7112,rock,AF,B,440716,440716,438887,439999,438888,441398,440516,440516,441398,95
89,test,1,inc,1,m,Fri Apr 04 2025 16:10:11 GMT-0500 (Central Daylight Time),451485.39999997616,hate,1100,O,m,m,None,630,431.0,199.0,80,1,2263.699999988079,449221.6999999881,7112,rock,AF,B,443248,443248,441417,442532,441418,443681,443048,443048,443680,96
90,test,1,inc,1,z,Fri Apr 04 2025 16:10:11 GMT-0500 (Central Daylight Time),453518.09999996424,step,800,O,z,z,None,679,480.0,199.0,21,1,2012.0,451506.09999996424,7112,love,AF,B,445231,445231,443701,444515,443703,445713,445031,445031,445713,97
91,test,1,con,1,m,Fri Apr 04 2025 16:10:11 GMT-0500 (Central Daylight Time),455884.1999999881,window,1000,O,m,m,None,798,583.0,215.0,123,1,2346.100000023842,453538.09999996424,7112,window,AF,B,447480,447480,445733,446747,445735,448079,447264,447264,448079,98
92,test,1,con,1,m,Fri Apr 04 2025 16:10:11 GMT-0500 (Central Daylight Time),458083.39999997616,jacket,900,O,m,m,None,732,517.0,215.0,98,1,2180.099999964237,455903.3000000119,7112,jacket,AF,B,449746,449746,448098,449013,448100,450278,449530,449530,450278,99
93,test,1,inc,1,z,Fri Apr 04 2025 16:10:11 GMT-0500 (Central Daylight Time),460482.6999999881,bell,1000,O,z,z,None,842,643.0,199.0,15,1,2380.100000023842,458102.59999996424,7112,kind,AF,B,452028,452029,450298,451312,450299,452678,451829,451829,452678,100
94,test,1,inc,1,m,Fri Apr 04 2025 16:10:11 GMT-0500 (Central Daylight Time),462731.89999997616,love,1000,O,m,m,None,690,491.0,199.0,79,1,2228.800000011921,460503.09999996424,7112,rock,AF,B,454428,454428,452698,453711,452700,454927,454228,454228,454927,101
95,test,1,inc,1,m,Fri Apr 04 2025 16:10:11 GMT-0500 (Central Daylight Time),464980.3000000119,elated,800,O,m,m,None,887,672.0,215.0,117,1,2228.7000000476837,462751.59999996424,7112,remote,AF,B,456493,456494,454947,455761,454948,457175,456278,456278,457175,102
96,test,1,con,1,m,Fri Apr 04 2025 16:10:11 GMT-0500 (Central Daylight Time),467263.0,napkin,900,O,m,m,None,844,645.0,199.0,106,1,2277.600000023842,464985.39999997616,7112,napkin,AF,B,458809,458809,457180,458093,457181,459458,458610,458610,459458,103
97,test,1,con,1,m,Fri Apr 04 2025 16:10:11 GMT-0500 (Central Daylight Time),469179.89999997616,window,800,O,m,m,None,565,350.0,215.0,121,1,1911.800000011921,467268.09999996424,7112,window,AF,B,461009,461009,459463,460276,459464,461375,460793,460793,461375,104
98,test,1,inc,1,z,Fri Apr 04 2025 16:10:11 GMT-0500 (Central Daylight Time),471495.59999996424,film,1100,O,z,z,None,654,455.0,199.0,48,1,2295.5,469200.09999996424,7112,hate,AF,B,463225,463225,461395,462509,461397,463691,463025,463025,463691,105
99,test,1,con,1,z,Fri Apr 04 2025 16:10:11 GMT-0500 (Central Daylight Time),473494.1999999881,brutal,800,O,z,z,None,644,445.0,199.0,33,1,1979.8999999761581,471514.3000000119,7112,brutal,AF,B,465241,465241,463709,464524,463711,465689,465041,465041,465689,106
100,test,1,con,1,m,Fri Apr 04 2025 16:10:11 GMT-0500 (Central Daylight Time),475461.1999999881,remote,800,O,m,m,None,625,424.0,201.0,113,1,1960.300000011921,473500.89999997616,7112,remote,AF,B,467223,467223,465696,466506,465696,467656,467022,467022,467656,107
101,test,1,inc,1,z,Fri Apr 04 2025 16:10:11 GMT-0500 (Central Daylight Time),477543.59999996424,napkin,900,O,z,z,None,627,412.0,215.0,62,1,2062.599999964237,475481.0,7112,temper,AF,B,469323,469323,467676,468590,467677,469739,469107,469107,469739,108
102,test,1,inc,1,m,Fri Apr 04 2025 16:10:11 GMT-0500 (Central Daylight Time),479625.89999997616,kind,900,O,m,m,None,618,418.0,200.0,86,1,2062.0,477563.89999997616,7112,bell,AF,B,471389,471389,469759,470673,469760,471821,471188,471188,471821,109
103,test,1,con,1,z,Fri Apr 04 2025 16:10:11 GMT-0500 (Central Daylight Time),482858.59999996424,love,1000,O,z,z,None,1692,1493.0,199.0,19,1,3221.699999988079,479636.89999997616,7112,love,AF,B,473555,473555,471832,472839,471833,475054,473355,473355,475054,110
104,test,1,inc,1,m,Fri Apr 04 2025 16:10:11 GMT-0500 (Central Daylight Time),485058.0,brutal,900,O,m,m,None,734,535.0,199.0,110,1,2180.199999988079,482877.8000000119,7112,napkin,AF,B,476704,476704,475073,475987,475074,477253,476504,476504,477253,111
105,test,1,con,1,z,Fri Apr 04 2025 16:10:11 GMT-0500 (Central Daylight Time),487457.09999996424,brutal,1100,O,z,z,None,743,544.0,199.0,36,1,2379.399999976158,485077.6999999881,7112,brutal,AF,B,479103,479103,477273,478387,477274,479652,478903,478903,479652,112
106,test,1,con,1,z,Fri Apr 04 2025 16:10:11 GMT-0500 (Central Daylight Time),489706.39999997616,kind,900,O,z,z,None,794,593.0,201.0,10,1,2229.199999988079,487477.1999999881,7112,kind,AF,B,481302,481302,479672,480585,479674,481902,481101,481101,481901,113
107,test,1,con,1,z,Fri Apr 04 2025 16:10:11 GMT-0500 (Central Daylight Time),491805.0,love,800,O,z,z,None,739,524.0,215.0,17,1,2079.400000035763,489725.59999996424,7112,love,AF,B,483467,483467,481921,482735,481922,484000,483252,483252,484000,114
108,test,1,con,1,m,Fri Apr 04 2025 16:10:11 GMT-0500 (Central Daylight Time),494271.5,bell,1000,O,m,m,None,920,705.0,215.0,83,1,2456.5,491815.0,7112,bell,AF,B,485751,485751,484010,485019,484011,486467,485535,485535,486467,115
109,test,1,inc,1,z,Fri Apr 04 2025 16:10:11 GMT-0500 (Central Daylight Time),496687.3000000119,remote,1000,O,z,z,None,862,663.0,199.0,63,1,2395.800000011921,494291.5,7112,temper,AF,B,488216,488216,486487,487500,486487,488882,488017,488017,488882,116
110,test,1,inc,1,z,Fri Apr 04 2025 16:10:11 GMT-0500 (Central Daylight Time),498786.89999997616,step,800,O,z,z,None,741,542.0,199.0,45,1,2080.099999964237,496706.8000000119,7112,hate,AF,B,490433,490433,488902,489716,488903,490982,490233,490233,490982,117
111,test,1,con,1,m,Fri Apr 04 2025 16:10:11 GMT-0500 (Central Daylight Time),501235.1999999881,film,1100,O,m,m,None,789,590.0,199.0,92,1,2428.5,498806.6999999881,7112,film,AF,B,492832,492832,491002,492116,491003,493430,492632,492632,493430,118
112,test,1,con,1,m,Fri Apr 04 2025 16:10:11 GMT-0500 (Central Daylight Time),503268.59999996424,film,800,O,m,m,None,689,490.0,199.0,89,1,2027.5,501241.09999996424,7112,film,AF,B,494965,494965,493436,494248,493437,495464,494765,494765,495464,119
113,test,1,inc,1,z,Fri Apr 04 2025 16:10:11 GMT-0500 (Central Daylight Time),505651.1999999881,window,1100,O,z,z,None,725,526.0,199.0,64,1,2362.600000023842,503288.59999996424,7112,temper,AF,B,497313,497314,495484,496598,495485,497846,497114,497114,497846,120
114,test,1,con,1,m,Fri Apr 04 2025 16:10:11 GMT-0500 (Central Daylight Time),507950.1999999881,bell,900,O,m,m,None,846,647.0,199.0,82,1,2280.0,505670.1999999881,7112,bell,AF,B,499496,499496,497865,498780,497867,500145,499297,499297,500145,121
115,test,1,inc,1,z,Fri Apr 04 2025 16:10:11 GMT-0500 (Central Daylight Time),510616.1999999881,window,1100,O,z,z,None,1002,803.0,199.0,8,1,2647.0,507969.1999999881,7112,elated,AF,B,501996,501996,500164,501279,500166,502811,501796,501796,502811,122
116,test,1,con,1,z,Fri Apr 04 2025 16:10:11 GMT-0500 (Central Daylight Time),512615.39999997616,elated,1000,O,z,z,None,437,222.0,215.0,3,1,1979.3999999761581,510636.0,7112,elated,AF,B,504577,504577,502831,503845,502832,504810,504362,504362,504810,123
116,test,1,inc,0,z,Fri Apr 04 2025 16:10:11 GMT-0500 (Central Daylight Time),515114.6999999881,jacket,800,O,m,m,None,1149,934.0,215.0,29,1,2478.5,512636.1999999881,7112,friend,AF,B,506361,506361,504831,505643,504833,507310,506145,506145,507310,124
117,test,1,inc,1,m,Fri Apr 04 2025 16:10:11 GMT-0500 (Central Daylight Time),517280.6999999881,rage,800,O,m,m,None,803,604.0,199.0,85,1,2146.699999988079,515134.0,7112,bell,AF,B,508860,508860,507329,508144,507331,509476,508660,508660,509476,125
118,test,1,con,1,m,Fri Apr 04 2025 16:10:11 GMT-0500 (Central Daylight Time),519546.59999996424,rock,900,O,m,m,None,808,609.0,199.0,74,1,2246.2999999523163,517300.3000000119,7112,rock,AF,B,511126,511126,509495,510410,509497,511742,510926,510926,511742,126
119,test,1,inc,1,z,Fri Apr 04 2025 16:10:11 GMT-0500 (Central Daylight Time),521813.1999999881,bell,1000,O,z,z,None,715,516.0,199.0,55,1,2244.300000011921,519568.89999997616,7112,rage,AF,B,513492,513492,511764,512775,511765,514008,513292,513292,514008,127
120,test,1,inc,1,z,Fri Apr 04 2025 16:10:11 GMT-0500 (Central Daylight Time),524811.3999999762,rock,900,O,z,z,None,1541,1342.0,199.0,14,1,2979.199999988079,521832.1999999881,7112,kind,AF,B,515658,515658,514027,514941,514028,517007,515458,515458,517006,128
