acc_sum,block,block_c,change,condition,correct,correct_response,datetime,endtime,face,project,response,response_time,row_sel,session_number,start_end,starttime,subject_id,task,task_vers,trial
0,prac,1,,1-Back,,,Thu Oct 24 2024 13:05:02 GMT-0500 (Central Daylight Time),,005_o_f_d_a.png,O,space,10611,1,1,,,7026,VNB,B,0
1,prac,1,0.0,1-Back,1,m,Thu Oct 24 2024 13:05:02 GMT-0500 (Central Daylight Time),123507.40000003576,020_y_f_n_a.png,O,m,1049,2,1,1956.0,121551.40000003576,7026,VNB,B,1
2,prac,1,0.0,1-Back,1,m,Thu Oct 24 2024 13:05:02 GMT-0500 (Central Daylight Time),125456.80000001192,007_m_m_h_a.png,O,m,1013,3,1,1940.8999999761581,123515.90000003576,7026,VNB,B,2
3,prac,1,0.0,1-Back,1,m,Thu Oct 24 2024 13:05:02 GMT-0500 (Central Daylight Time),127439.40000003576,016_y_m_d_a.png,O,m,1054,4,1,1974.800000011921,125464.60000002384,7026,VNB,B,3
4,prac,1,0.0,1-Back,1,m,Thu Oct 24 2024 13:05:02 GMT-0500 (Central Daylight Time),129455.40000003576,005_o_f_n_a.png,O,m,1104,5,1,2008.0,127447.40000003576,7026,VNB,B,4
5,prac,1,1.0,1-Back,1,z,Thu Oct 24 2024 13:05:02 GMT-0500 (Central Daylight Time),131121.60000002384,016_y_m_n_a.png,O,z,727,6,1,1656.6000000238419,129465.0,7026,VNB,B,5
6,prac,1,0.0,1-Back,1,m,Thu Oct 24 2024 13:05:02 GMT-0500 (Central Daylight Time),132921.90000003576,004_o_m_h_a.png,O,m,897,7,1,1790.1000000238419,131131.80000001192,7026,VNB,B,6
7,prac,1,0.0,1-Back,1,m,Thu Oct 24 2024 13:05:02 GMT-0500 (Central Daylight Time),134954.60000002384,011_m_f_d_a.png,O,m,1092,8,1,2003.6000000238419,132951.0,7026,VNB,B,7
8,prac,1,1.0,1-Back,1,z,Thu Oct 24 2024 13:05:02 GMT-0500 (Central Daylight Time),137087.10000002384,020_y_f_d_a.png,O,z,1186,9,1,2097.199999988079,134989.90000003576,7026,VNB,B,8
9,prac,1,0.0,1-Back,1,m,Thu Oct 24 2024 13:05:02 GMT-0500 (Central Daylight Time),139068.80000001192,007_m_m_n_a.png,O,m,969,10,1,1898.1000000238419,137170.69999998808,7026,VNB,B,9
10,prac,1,0.0,1-Back,1,m,Thu Oct 24 2024 13:05:02 GMT-0500 (Central Daylight Time),141134.80000001192,005_o_f_h_a.png,O,m,1130,11,1,2058.399999976158,139076.40000003576,7026,VNB,B,10
11,prac,1,0.0,1-Back,1,m,Thu Oct 24 2024 13:05:02 GMT-0500 (Central Daylight Time),143317.69999998808,016_y_m_d_a.png,O,m,1246,12,1,2173.399999976158,141144.30000001192,7026,VNB,B,11
0,test,1,0.0,1-Back,,,Thu Oct 24 2024 13:05:02 GMT-0500 (Central Daylight Time),143317.69999998808,020_y_f_d_a.png,O,space,12280,1,1,2173.399999976158,141144.30000001192,7026,VNB,B,0
1,test,1,0.0,1-Back,1,m,Thu Oct 24 2024 13:05:02 GMT-0500 (Central Daylight Time),166427.40000003576,011_m_f_n_a.png,O,m,1258,2,1,2283.600000023842,164143.80000001192,7026,VNB,B,1
2,test,1,0.0,1-Back,1,m,Thu Oct 24 2024 13:05:02 GMT-0500 (Central Daylight Time),168360.19999998808,004_o_m_h_a.png,O,m,887,3,1,1905.199999988079,166455.0,7026,VNB,B,2
3,test,1,1.0,1-Back,1,z,Thu Oct 24 2024 13:05:02 GMT-0500 (Central Daylight Time),170309.40000003576,007_m_m_h_a.png,O,z,840,4,1,1856.9000000357628,168452.5,7026,VNB,B,3
4,test,1,0.0,1-Back,1,m,Thu Oct 24 2024 13:05:02 GMT-0500 (Central Daylight Time),171975.60000002384,005_o_f_n_a.png,O,m,629,5,1,1646.5,170329.10000002384,7026,VNB,B,4
5,test,1,0.0,1-Back,1,m,Thu Oct 24 2024 13:05:02 GMT-0500 (Central Daylight Time),173941.19999998808,016_y_m_d_a.png,O,m,864,6,1,1883.5999999642372,172057.60000002384,7026,VNB,B,5
6,test,1,1.0,1-Back,1,z,Thu Oct 24 2024 13:05:02 GMT-0500 (Central Daylight Time),176173.80000001192,011_m_f_d_a.png,O,z,1130,7,1,2202.699999988079,173971.10000002384,7026,VNB,B,6
7,test,1,0.0,1-Back,1,m,Thu Oct 24 2024 13:05:02 GMT-0500 (Central Daylight Time),178140.80000001192,020_y_f_h_a.png,O,m,882,8,1,1938.699999988079,176202.10000002384,7026,VNB,B,7
8,test,1,0.0,1-Back,1,m,Thu Oct 24 2024 13:05:02 GMT-0500 (Central Daylight Time),180189.10000002384,004_o_m_n_a.png,O,m,964,9,1,2028.4000000357628,178160.69999998808,7026,VNB,B,8
9,test,1,0.0,1-Back,1,m,Thu Oct 24 2024 13:05:02 GMT-0500 (Central Daylight Time),182338.69999998808,016_y_m_h_a.png,O,m,1042,10,1,2121.399999976158,180217.30000001192,7026,VNB,B,9
10,test,1,0.0,1-Back,1,m,Thu Oct 24 2024 13:05:02 GMT-0500 (Central Daylight Time),184487.90000003576,004_o_m_d_a.png,O,m,1061,11,1,2127.2000000476837,182360.69999998808,7026,VNB,B,10
11,test,1,1.0,1-Back,1,z,Thu Oct 24 2024 13:05:02 GMT-0500 (Central Daylight Time),186570.90000003576,005_o_f_d_a.png,O,z,985,12,1,2055.0,184515.90000003576,7026,VNB,B,11
12,test,1,0.0,1-Back,1,m,Thu Oct 24 2024 13:05:02 GMT-0500 (Central Daylight Time),188420.5,007_m_m_n_a.png,O,m,815,13,1,1823.300000011921,186597.19999998808,7026,VNB,B,12
13,test,1,1.0,1-Back,1,z,Thu Oct 24 2024 13:05:02 GMT-0500 (Central Daylight Time),190669.40000003576,020_y_f_n_a.png,O,z,1156,14,1,2222.900000035763,188446.5,7026,VNB,B,13
14,test,1,0.0,1-Back,1,m,Thu Oct 24 2024 13:05:02 GMT-0500 (Central Daylight Time),192585.40000003576,011_m_f_h_a.png,O,m,827,15,1,1891.7000000476837,190693.69999998808,7026,VNB,B,14
15,test,1,0.0,1-Back,1,m,Thu Oct 24 2024 13:05:02 GMT-0500 (Central Daylight Time),194651.40000003576,007_m_m_d_a.png,O,m,975,16,1,2038.800000011921,192612.60000002384,7026,VNB,B,15
16,test,1,0.0,1-Back,1,m,Thu Oct 24 2024 13:05:02 GMT-0500 (Central Daylight Time),196817.5,016_y_m_n_a.png,O,m,1077,17,1,2140.699999988079,194676.80000001192,7026,VNB,B,16
17,test,1,0.0,1-Back,1,m,Thu Oct 24 2024 13:05:02 GMT-0500 (Central Daylight Time),199433.10000002384,005_o_f_h_a.png,O,m,1494,18,1,2510.600000023842,196922.5,7026,VNB,B,17
0,test,2,0.0,1-Back,,,Thu Oct 24 2024 13:05:02 GMT-0500 (Central Daylight Time),199433.10000002384,016_y_m_n_a.png,O,space,1217,1,1,2510.600000023842,196922.5,7026,VNB,B,0
1,test,2,0.0,1-Back,1,m,Thu Oct 24 2024 13:05:02 GMT-0500 (Central Daylight Time),204547.19999998808,020_y_f_h_a.png,O,m,823,2,1,1838.5,202708.69999998808,7026,VNB,B,1
2,test,2,1.0,1-Back,1,m,Thu Oct 24 2024 13:05:02 GMT-0500 (Central Daylight Time),206647.30000001192,004_o_m_n_a.png,O,m,1070,3,1,2095.100000023842,204552.19999998808,7026,VNB,B,2
3,test,2,0.0,1-Back,1,m,Thu Oct 24 2024 13:05:02 GMT-0500 (Central Daylight Time),208713.5,011_m_f_d_a.png,O,m,1019,4,1,2040.5999999642372,206672.90000003576,7026,VNB,B,3
4,test,2,0.0,1-Back,1,z,Thu Oct 24 2024 13:05:02 GMT-0500 (Central Daylight Time),210729.5,007_m_m_d_a.png,O,z,969,5,1,1988.699999988079,208740.80000001192,7026,VNB,B,4
5,test,2,0.0,1-Back,1,m,Thu Oct 24 2024 13:05:02 GMT-0500 (Central Daylight Time),212579.30000001192,016_y_m_h_a.png,O,m,734,6,1,1766.8999999761581,210812.40000003576,7026,VNB,B,5
6,test,2,1.0,1-Back,1,z,Thu Oct 24 2024 13:05:02 GMT-0500 (Central Daylight Time),214261.60000002384,005_o_f_h_a.png,O,z,639,7,1,1655.300000011921,212606.30000001192,7026,VNB,B,6
7,test,2,0.0,1-Back,1,m,Thu Oct 24 2024 13:05:02 GMT-0500 (Central Daylight Time),215944.69999998808,011_m_f_n_a.png,O,m,571,8,1,1595.0999999642372,214349.60000002384,7026,VNB,B,7
8,test,2,0.0,1-Back,1,m,Thu Oct 24 2024 13:05:02 GMT-0500 (Central Daylight Time),217892.80000001192,020_y_f_d_a.png,O,m,854,9,1,1869.1000000238419,216023.69999998808,7026,VNB,B,8
9,test,2,0.0,1-Back,1,m,Thu Oct 24 2024 13:05:02 GMT-0500 (Central Daylight Time),219793.60000002384,007_m_m_n_a.png,O,m,877,10,1,1896.199999988079,217897.40000003576,7026,VNB,B,9
10,test,2,1.0,1-Back,1,m,Thu Oct 24 2024 13:05:02 GMT-0500 (Central Daylight Time),221859.0,011_m_f_h_a.png,O,m,951,11,1,1972.800000011921,219886.19999998808,7026,VNB,B,10
11,test,2,0.0,1-Back,1,z,Thu Oct 24 2024 13:05:02 GMT-0500 (Central Daylight Time),223524.90000003576,004_o_m_h_a.png,O,z,631,12,1,1647.2000000476837,221877.69999998808,7026,VNB,B,11
12,test,2,0.0,1-Back,1,m,Thu Oct 24 2024 13:05:02 GMT-0500 (Central Daylight Time),225257.80000001192,016_y_m_d_a.png,O,m,685,13,1,1705.6000000238419,223552.19999998808,7026,VNB,B,12
13,test,2,0.0,1-Back,1,m,Thu Oct 24 2024 13:05:02 GMT-0500 (Central Daylight Time),227224.10000002384,005_o_f_n_a.png,O,m,862,14,1,1937.9000000357628,225286.19999998808,7026,VNB,B,13
14,test,2,0.0,1-Back,1,z,Thu Oct 24 2024 13:05:02 GMT-0500 (Central Daylight Time),229040.30000001192,020_y_f_n_a.png,O,z,720,15,1,1788.5,227251.80000001192,7026,VNB,B,14
15,test,2,1.0,1-Back,1,m,Thu Oct 24 2024 13:05:02 GMT-0500 (Central Daylight Time),231156.60000002384,007_m_m_h_a.png,O,m,1015,16,1,2088.800000011921,229067.80000001192,7026,VNB,B,15
16,test,2,0.0,1-Back,1,m,Thu Oct 24 2024 13:05:02 GMT-0500 (Central Daylight Time),233372.10000002384,005_o_f_d_a.png,O,m,1116,17,1,2136.100000023842,231236.0,7026,VNB,B,16
17,test,2,1.0,1-Back,1,z,Thu Oct 24 2024 13:05:02 GMT-0500 (Central Daylight Time),235171.60000002384,004_o_m_d_a.png,O,z,699,18,1,1718.800000011921,233452.80000001192,7026,VNB,B,17
0,test,3,1.0,1-Back,,,Thu Oct 24 2024 13:05:02 GMT-0500 (Central Daylight Time),235171.60000002384,005_o_f_h_a.png,O,space,1358,1,1,1718.800000011921,233452.80000001192,7026,VNB,B,0
1,test,3,0.0,1-Back,1,m,Thu Oct 24 2024 13:05:02 GMT-0500 (Central Daylight Time),240603.0,011_m_f_d_a.png,O,m,767,2,1,1796.0,238807.0,7026,VNB,B,1
2,test,3,1.0,1-Back,1,m,Thu Oct 24 2024 13:05:02 GMT-0500 (Central Daylight Time),242601.69999998808,007_m_m_n_a.png,O,m,884,3,1,1971.5999999642372,240630.10000002384,7026,VNB,B,2
3,test,3,0.0,1-Back,1,z,Thu Oct 24 2024 13:05:02 GMT-0500 (Central Daylight Time),244601.80000001192,005_o_f_n_a.png,O,z,953,4,1,1984.8999999761581,242616.90000003576,7026,VNB,B,3
4,test,3,1.0,1-Back,1,m,Thu Oct 24 2024 13:05:02 GMT-0500 (Central Daylight Time),246317.80000001192,004_o_m_d_a.png,O,m,606,5,1,1688.3999999761581,244629.40000003576,7026,VNB,B,4
5,test,3,0.0,1-Back,1,m,Thu Oct 24 2024 13:05:02 GMT-0500 (Central Daylight Time),248699.90000003576,020_y_f_h_a.png,O,m,1289,6,1,2301.0,246398.90000003576,7026,VNB,B,5
6,test,3,0.0,1-Back,1,z,Thu Oct 24 2024 13:05:02 GMT-0500 (Central Daylight Time),250599.69999998808,016_y_m_h_a.png,O,z,813,7,1,1884.7999999523163,248714.90000003576,7026,VNB,B,6
7,test,3,0.0,1-Back,1,m,Thu Oct 24 2024 13:05:02 GMT-0500 (Central Daylight Time),252332.40000003576,011_m_f_n_a.png,O,m,691,8,1,1708.2000000476837,250624.19999998808,7026,VNB,B,7
8,test,3,0.0,1-Back,1,m,Thu Oct 24 2024 13:05:02 GMT-0500 (Central Daylight Time),254215.30000001192,020_y_f_d_a.png,O,m,838,9,1,1863.199999988079,252352.10000002384,7026,VNB,B,8
9,test,3,1.0,1-Back,1,m,Thu Oct 24 2024 13:05:02 GMT-0500 (Central Daylight Time),256181.30000001192,004_o_m_n_a.png,O,m,857,10,1,1878.3999999761581,254302.90000003576,7026,VNB,B,9
10,test,3,0.0,1-Back,1,m,Thu Oct 24 2024 13:05:02 GMT-0500 (Central Daylight Time),257963.90000003576,007_m_m_h_a.png,O,m,683,11,1,1752.6000000238419,256211.30000001192,7026,VNB,B,10
11,test,3,0.0,1-Back,1,z,Thu Oct 24 2024 13:05:02 GMT-0500 (Central Daylight Time),259680.0,011_m_f_h_a.png,O,z,604,12,1,1686.699999988079,257993.30000001192,7026,VNB,B,11
12,test,3,1.0,1-Back,1,m,Thu Oct 24 2024 13:05:02 GMT-0500 (Central Daylight Time),261429.5,005_o_f_d_a.png,O,m,639,13,1,1724.5999999642372,259704.90000003576,7026,VNB,B,12
13,test,3,0.0,1-Back,1,z,Thu Oct 24 2024 13:05:02 GMT-0500 (Central Daylight Time),263345.5,007_m_m_d_a.png,O,z,827,14,1,1838.0,261507.5,7026,VNB,B,13
14,test,3,0.0,1-Back,1,m,Thu Oct 24 2024 13:05:02 GMT-0500 (Central Daylight Time),265094.60000002384,016_y_m_n_a.png,O,m,654,15,1,1722.5,263372.10000002384,7026,VNB,B,14
15,test,3,1.0,1-Back,1,m,Thu Oct 24 2024 13:05:02 GMT-0500 (Central Daylight Time),267077.40000003576,004_o_m_h_a.png,O,m,964,16,1,1968.300000011921,265109.10000002384,7026,VNB,B,15
16,test,3,0.0,1-Back,1,m,Thu Oct 24 2024 13:05:02 GMT-0500 (Central Daylight Time),268993.5,016_y_m_d_a.png,O,m,820,17,1,1895.199999988079,267098.3000000119,7026,VNB,B,16
17,test,3,1.0,1-Back,1,m,Thu Oct 24 2024 13:05:02 GMT-0500 (Central Daylight Time),270759.90000003576,020_y_f_n_a.png,O,m,729,18,1,1742.9000000357628,269017.0,7026,VNB,B,17
0,test,4,1.0,1-Back,,,Thu Oct 24 2024 13:05:02 GMT-0500 (Central Daylight Time),270759.90000003576,007_m_m_d_a.png,O,space,898,1,1,1742.9000000357628,269017.0,7026,VNB,B,0
1,test,4,0.0,1-Back,1,z,Thu Oct 24 2024 13:05:02 GMT-0500 (Central Daylight Time),275691.3000000119,004_o_m_d_a.png,O,z,741,2,1,1810.800000011921,273880.5,7026,VNB,B,1
2,test,4,0.0,1-Back,1,m,Thu Oct 24 2024 13:05:02 GMT-0500 (Central Daylight Time),277824.0,016_y_m_h_a.png,O,m,1020,3,1,2104.300000011921,275719.6999999881,7026,VNB,B,2
3,test,4,0.0,1-Back,1,m,Thu Oct 24 2024 13:05:02 GMT-0500 (Central Daylight Time),279756.8000000119,011_m_f_n_a.png,O,m,890,4,1,1913.699999988079,277843.10000002384,7026,VNB,B,3
4,test,4,1.0,1-Back,1,m,Thu Oct 24 2024 13:05:02 GMT-0500 (Central Daylight Time),281456.10000002384,005_o_f_h_a.png,O,m,654,5,1,1672.1000000238419,279784.0,7026,VNB,B,4
5,test,4,0.0,1-Back,1,m,Thu Oct 24 2024 13:05:02 GMT-0500 (Central Daylight Time),283355.40000003576,007_m_m_n_a.png,O,m,857,6,1,1874.1000000238419,281481.3000000119,7026,VNB,B,5
6,test,4,0.0,1-Back,1,m,Thu Oct 24 2024 13:05:02 GMT-0500 (Central Daylight Time),285454.90000003576,016_y_m_d_a.png,O,m,1013,7,1,2071.400000035763,283383.5,7026,VNB,B,6
7,test,4,1.0,1-Back,1,z,Thu Oct 24 2024 13:05:02 GMT-0500 (Central Daylight Time),287271.10000002384,020_y_f_d_a.png,O,z,779,8,1,1795.1000000238419,285476.0,7026,VNB,B,7
8,test,4,0.0,1-Back,1,m,Thu Oct 24 2024 13:05:02 GMT-0500 (Central Daylight Time),289287.0,011_m_f_h_a.png,O,m,971,9,1,1988.8999999761581,287298.10000002384,7026,VNB,B,8
9,test,4,0.0,1-Back,1,z,Thu Oct 24 2024 13:05:02 GMT-0500 (Central Daylight Time),290986.40000003576,004_o_m_h_a.png,O,z,651,10,1,1670.300000011921,289316.10000002384,7026,VNB,B,9
10,test,4,1.0,1-Back,1,m,Thu Oct 24 2024 13:05:02 GMT-0500 (Central Daylight Time),292652.40000003576,005_o_f_n_a.png,O,m,616,11,1,1641.6000000238419,291010.8000000119,7026,VNB,B,10
11,test,4,0.0,1-Back,1,m,Thu Oct 24 2024 13:05:02 GMT-0500 (Central Daylight Time),294835.10000002384,011_m_f_d_a.png,O,m,1075,12,1,2154.100000023842,292681.0,7026,VNB,B,11
12,test,4,0.0,1-Back,1,m,Thu Oct 24 2024 13:05:02 GMT-0500 (Central Daylight Time),296634.5,020_y_f_n_a.png,O,m,685,13,1,1708.8999999761581,294925.60000002384,7026,VNB,B,12
13,test,4,0.0,1-Back,1,m,Thu Oct 24 2024 13:05:02 GMT-0500 (Central Daylight Time),298567.10000002384,005_o_f_d_a.png,O,m,829,14,1,1905.5,296661.60000002384,7026,VNB,B,13
14,test,4,0.0,1-Back,1,m,Thu Oct 24 2024 13:05:02 GMT-0500 (Central Daylight Time),300500.6999999881,020_y_f_h_a.png,O,m,832,15,1,1906.0,298594.6999999881,7026,VNB,B,14
15,test,4,1.0,1-Back,1,z,Thu Oct 24 2024 13:05:02 GMT-0500 (Central Daylight Time),302216.10000002384,007_m_m_h_a.png,O,z,620,16,1,1688.199999988079,300527.90000003576,7026,VNB,B,15
16,test,4,0.0,1-Back,1,m,Thu Oct 24 2024 13:05:02 GMT-0500 (Central Daylight Time),304548.8000000119,004_o_m_n_a.png,O,m,1248,17,1,2255.300000011921,302293.5,7026,VNB,B,16
17,test,4,1.0,1-Back,1,z,Thu Oct 24 2024 13:05:02 GMT-0500 (Central Daylight Time),306431.40000003576,016_y_m_n_a.png,O,z,788,18,1,1856.7000000476837,304574.6999999881,7026,VNB,B,17
0,test,5,1.0,1-Back,,,Thu Oct 24 2024 13:05:02 GMT-0500 (Central Daylight Time),306431.40000003576,004_o_m_n_a.png,O,space,1123,1,1,1856.7000000476837,304574.6999999881,7026,VNB,B,0
1,test,5,1.0,1-Back,1,m,Thu Oct 24 2024 13:05:02 GMT-0500 (Central Daylight Time),311479.60000002384,005_o_f_h_a.png,O,m,862,2,1,1869.1000000238419,309610.5,7026,VNB,B,1
2,test,5,0.0,1-Back,1,m,Thu Oct 24 2024 13:05:02 GMT-0500 (Central Daylight Time),313278.8000000119,016_y_m_d_a.png,O,m,755,3,1,1773.8999999761581,311504.90000003576,7026,VNB,B,2
3,test,5,0.0,1-Back,1,z,Thu Oct 24 2024 13:05:02 GMT-0500 (Central Daylight Time),315111.6999999881,004_o_m_d_a.png,O,z,787,4,1,1817.5999999642372,313294.10000002384,7026,VNB,B,3
4,test,5,0.0,1-Back,1,m,Thu Oct 24 2024 13:05:02 GMT-0500 (Central Daylight Time),316744.3000000119,011_m_f_h_a.png,O,m,594,5,1,1607.800000011921,315136.5,7026,VNB,B,4
5,test,5,0.0,1-Back,1,m,Thu Oct 24 2024 13:05:02 GMT-0500 (Central Daylight Time),318377.60000002384,020_y_f_n_a.png,O,m,594,6,1,1612.5,316765.10000002384,7026,VNB,B,5
6,test,5,1.0,1-Back,1,z,Thu Oct 24 2024 13:05:02 GMT-0500 (Central Daylight Time),320192.6999999881,005_o_f_n_a.png,O,z,777,7,1,1796.199999988079,318396.5,7026,VNB,B,6
7,test,5,0.0,1-Back,1,m,Thu Oct 24 2024 13:05:02 GMT-0500 (Central Daylight Time),321808.6999999881,011_m_f_d_a.png,O,m,594,8,1,1611.5,320197.1999999881,7026,VNB,B,7
8,test,5,0.0,1-Back,1,m,Thu Oct 24 2024 13:05:02 GMT-0500 (Central Daylight Time),323758.10000002384,016_y_m_h_a.png,O,m,930,9,1,1945.199999988079,321812.90000003576,7026,VNB,B,8
9,test,5,0.0,1-Back,1,m,Thu Oct 24 2024 13:05:02 GMT-0500 (Central Daylight Time),325540.8000000119,020_y_f_d_a.png,O,m,764,10,1,1777.3999999761581,323763.40000003576,7026,VNB,B,9
10,test,5,0.0,1-Back,1,m,Thu Oct 24 2024 13:05:02 GMT-0500 (Central Daylight Time),327390.1999999881,007_m_m_n_a.png,O,m,821,11,1,1843.2999999523163,325546.90000003576,7026,VNB,B,10
11,test,5,1.0,1-Back,1,z,Thu Oct 24 2024 13:05:02 GMT-0500 (Central Daylight Time),329089.6999999881,011_m_f_n_a.png,O,z,676,12,1,1694.199999988079,327395.5,7026,VNB,B,11
12,test,5,0.0,1-Back,1,m,Thu Oct 24 2024 13:05:02 GMT-0500 (Central Daylight Time),331105.6999999881,004_o_m_h_a.png,O,m,985,13,1,2011.699999988079,329094.0,7026,VNB,B,12
13,test,5,0.0,1-Back,1,z,Thu Oct 24 2024 13:05:02 GMT-0500 (Central Daylight Time),332955.0,007_m_m_h_a.png,O,z,833,14,1,1844.699999988079,331110.3000000119,7026,VNB,B,13
14,test,5,1.0,1-Back,1,m,Thu Oct 24 2024 13:05:02 GMT-0500 (Central Daylight Time),334504.5,005_o_f_d_a.png,O,m,526,15,1,1544.699999988079,332959.8000000119,7026,VNB,B,14
15,test,5,0.0,1-Back,1,m,Thu Oct 24 2024 13:05:02 GMT-0500 (Central Daylight Time),336170.6999999881,016_y_m_n_a.png,O,m,642,16,1,1661.8999999761581,334508.8000000119,7026,VNB,B,15
16,test,5,0.0,1-Back,1,m,Thu Oct 24 2024 13:05:02 GMT-0500 (Central Daylight Time),337936.8000000119,020_y_f_h_a.png,O,m,744,17,1,1762.0,336174.8000000119,7026,VNB,B,16
17,test,5,0.0,1-Back,1,m,Thu Oct 24 2024 13:05:02 GMT-0500 (Central Daylight Time),339869.40000003576,007_m_m_d_a.png,O,m,906,18,1,1925.800000011921,337943.60000002384,7026,VNB,B,17
0,prac,1,0.0,2-Back,,,Thu Oct 24 2024 13:05:02 GMT-0500 (Central Daylight Time),339869.40000003576,011_m_f_n_a.png,O,space,7422,1,1,1925.800000011921,337943.60000002384,7026,VNB,B,0
0,prac,1,0.0,2-Back,,,Thu Oct 24 2024 13:05:02 GMT-0500 (Central Daylight Time),339869.40000003576,005_o_f_h_a.png,O,space,7422,2,1,1925.800000011921,337943.60000002384,7026,VNB,B,0
1,prac,1,0.0,2-Back,1,m,Thu Oct 24 2024 13:05:02 GMT-0500 (Central Daylight Time),430957.3000000119,004_o_m_d_a.png,O,m,1064,3,1,1982.699999988079,428974.60000002384,7026,VNB,B,1
2,prac,1,1.0,2-Back,1,z,Thu Oct 24 2024 13:05:02 GMT-0500 (Central Daylight Time),433355.5,007_m_m_h_a.png,O,z,1408,4,1,2367.899999976158,430987.60000002384,7026,VNB,B,2
3,prac,1,0.0,2-Back,1,m,Thu Oct 24 2024 13:05:02 GMT-0500 (Central Daylight Time),435971.3000000119,020_y_f_n_a.png,O,m,1684,5,1,2602.600000023842,433368.6999999881,7026,VNB,B,3
4,prac,1,1.0,2-Back,1,z,Thu Oct 24 2024 13:05:02 GMT-0500 (Central Daylight Time),437671.90000003576,004_o_m_h_a.png,O,z,743,6,1,1635.1000000238419,436036.8000000119,7026,VNB,B,4
5,prac,1,1.0,2-Back,1,z,Thu Oct 24 2024 13:05:02 GMT-0500 (Central Daylight Time),440170.8000000119,016_y_m_n_a.png,O,z,1504,7,1,2441.300000011921,437729.5,7026,VNB,B,5
6,prac,1,0.0,2-Back,1,m,Thu Oct 24 2024 13:05:02 GMT-0500 (Central Daylight Time),441969.1999999881,011_m_f_d_a.png,O,m,765,8,1,1705.0,440264.1999999881,7026,VNB,B,6
7,prac,1,0.0,2-Back,1,m,Thu Oct 24 2024 13:05:02 GMT-0500 (Central Daylight Time),444218.5,005_o_f_d_a.png,O,m,1318,9,1,2241.699999988079,441976.8000000119,7026,VNB,B,7
8,prac,1,0.0,2-Back,1,m,Thu Oct 24 2024 13:05:02 GMT-0500 (Central Daylight Time),446168.8000000119,007_m_m_h_a.png,O,m,1018,10,1,1941.300000011921,444227.5,7026,VNB,B,8
9,prac,1,1.0,2-Back,1,z,Thu Oct 24 2024 13:05:02 GMT-0500 (Central Daylight Time),447968.1999999881,020_y_f_d_a.png,O,z,814,11,1,1716.0,446252.1999999881,7026,VNB,B,9
10,prac,1,0.0,2-Back,1,m,Thu Oct 24 2024 13:05:02 GMT-0500 (Central Daylight Time),449567.3000000119,004_o_m_n_a.png,O,m,613,12,1,1505.8999999761581,448061.40000003576,7026,VNB,B,10
0,test,1,0.0,2-Back,,,Thu Oct 24 2024 13:05:02 GMT-0500 (Central Daylight Time),449567.3000000119,016_y_m_h_a.png,O,space,9586,1,1,1505.8999999761581,448061.40000003576,7026,VNB,B,0
0,test,1,0.0,2-Back,,,Thu Oct 24 2024 13:05:02 GMT-0500 (Central Daylight Time),449567.3000000119,005_o_f_n_a.png,O,space,9586,2,1,1505.8999999761581,448061.40000003576,7026,VNB,B,0
1,test,1,0.0,2-Back,1,z,Thu Oct 24 2024 13:05:02 GMT-0500 (Central Daylight Time),473643.0,004_o_m_h_a.png,O,z,917,3,1,2003.699999988079,471639.3000000119,7026,VNB,B,1
2,test,1,0.0,2-Back,1,m,Thu Oct 24 2024 13:05:02 GMT-0500 (Central Daylight Time),475958.90000003576,011_m_f_d_a.png,O,m,1230,4,1,2287.100000023842,473671.8000000119,7026,VNB,B,2
3,test,1,1.0,2-Back,1,m,Thu Oct 24 2024 13:05:02 GMT-0500 (Central Daylight Time),478041.40000003576,016_y_m_n_a.png,O,m,950,5,1,1978.4000000357628,476063.0,7026,VNB,B,3
4,test,1,0.0,2-Back,1,z,Thu Oct 24 2024 13:05:02 GMT-0500 (Central Daylight Time),480090.8000000119,020_y_f_d_a.png,O,z,934,6,1,2021.5,478069.3000000119,7026,VNB,B,4
5,test,1,0.0,2-Back,1,m,Thu Oct 24 2024 13:05:02 GMT-0500 (Central Daylight Time),482123.5,007_m_m_h_a.png,O,m,925,7,1,1943.699999988079,480179.8000000119,7026,VNB,B,5
6,test,1,1.0,2-Back,1,m,Thu Oct 24 2024 13:05:02 GMT-0500 (Central Daylight Time),484056.1999999881,020_y_f_n_a.png,O,m,828,8,1,1899.8999999761581,482156.3000000119,7026,VNB,B,6
7,test,1,0.0,2-Back,1,z,Thu Oct 24 2024 13:05:02 GMT-0500 (Central Daylight Time),486005.3000000119,005_o_f_h_a.png,O,z,864,9,1,1925.6000000238419,484079.6999999881,7026,VNB,B,7
8,test,1,0.0,2-Back,1,m,Thu Oct 24 2024 13:05:02 GMT-0500 (Central Daylight Time),487755.10000002384,004_o_m_d_a.png,O,m,700,10,1,1728.0,486027.10000002384,7026,VNB,B,8
9,test,1,1.0,2-Back,1,m,Thu Oct 24 2024 13:05:02 GMT-0500 (Central Daylight Time),490153.6999999881,007_m_m_d_a.png,O,m,1350,11,1,2373.0,487780.6999999881,7026,VNB,B,9
10,test,1,0.0,2-Back,1,m,Thu Oct 24 2024 13:05:02 GMT-0500 (Central Daylight Time),492120.3000000119,011_m_f_n_a.png,O,m,937,12,1,1953.8999999761581,490166.40000003576,7026,VNB,B,10
11,test,1,0.0,2-Back,1,m,Thu Oct 24 2024 13:05:02 GMT-0500 (Central Daylight Time),493953.1999999881,020_y_f_h_a.png,O,m,786,13,1,1808.8999999761581,492144.3000000119,7026,VNB,B,11
12,test,1,0.0,2-Back,1,z,Thu Oct 24 2024 13:05:02 GMT-0500 (Central Daylight Time),495852.3000000119,007_m_m_n_a.png,O,z,807,14,1,1875.5,493976.8000000119,7026,VNB,B,12
13,test,1,0.0,2-Back,1,m,Thu Oct 24 2024 13:05:02 GMT-0500 (Central Daylight Time),497702.5,016_y_m_d_a.png,O,m,749,15,1,1818.3999999761581,495884.10000002384,7026,VNB,B,13
14,test,1,1.0,2-Back,1,m,Thu Oct 24 2024 13:05:02 GMT-0500 (Central Daylight Time),499967.5,011_m_f_h_a.png,O,m,1171,16,1,2240.199999988079,497727.3000000119,7026,VNB,B,14
15,test,1,0.0,2-Back,1,z,Thu Oct 24 2024 13:05:02 GMT-0500 (Central Daylight Time),502167.0,005_o_f_d_a.png,O,z,1155,17,1,2176.399999976158,499990.60000002384,7026,VNB,B,15
16,test,1,0.0,2-Back,1,m,Thu Oct 24 2024 13:05:02 GMT-0500 (Central Daylight Time),503933.0,004_o_m_n_a.png,O,m,723,18,1,1736.0,502197.0,7026,VNB,B,16
0,test,2,0.0,2-Back,,,Thu Oct 24 2024 13:05:02 GMT-0500 (Central Daylight Time),503933.0,007_m_m_h_a.png,O,space,1155,1,1,1736.0,502197.0,7026,VNB,B,0
0,test,2,0.0,2-Back,,,Thu Oct 24 2024 13:05:02 GMT-0500 (Central Daylight Time),503933.0,020_y_f_n_a.png,O,space,1155,2,1,1736.0,502197.0,7026,VNB,B,0
1,test,2,1.0,2-Back,1,z,Thu Oct 24 2024 13:05:02 GMT-0500 (Central Daylight Time),512097.0,005_o_f_h_a.png,O,z,611,3,1,1621.5,510475.5,7026,VNB,B,1
2,test,2,0.0,2-Back,1,m,Thu Oct 24 2024 13:05:02 GMT-0500 (Central Daylight Time),513913.1999999881,004_o_m_d_a.png,O,m,701,4,1,1725.699999988079,512187.5,7026,VNB,B,2
3,test,2,0.0,2-Back,1,m,Thu Oct 24 2024 13:05:02 GMT-0500 (Central Daylight Time),515745.90000003576,011_m_f_d_a.png,O,m,719,5,1,1749.7000000476837,513996.1999999881,7026,VNB,B,3
4,test,2,0.0,2-Back,1,m,Thu Oct 24 2024 13:05:02 GMT-0500 (Central Daylight Time),517828.5,016_y_m_h_a.png,O,m,1048,6,1,2057.800000011921,515770.6999999881,7026,VNB,B,4
5,test,2,0.0,2-Back,1,m,Thu Oct 24 2024 13:05:02 GMT-0500 (Central Daylight Time),520244.10000002384,005_o_f_n_a.png,O,m,1324,7,1,2387.400000035763,517856.6999999881,7026,VNB,B,5
6,test,2,1.0,2-Back,1,z,Thu Oct 24 2024 13:05:02 GMT-0500 (Central Daylight Time),521893.40000003576,004_o_m_h_a.png,O,z,547,8,1,1559.2000000476837,520334.1999999881,7026,VNB,B,6
7,test,2,0.0,2-Back,1,m,Thu Oct 24 2024 13:05:02 GMT-0500 (Central Daylight Time),523743.0,020_y_f_d_a.png,O,m,729,9,1,1821.199999988079,521921.8000000119,7026,VNB,B,7
8,test,2,0.0,2-Back,1,m,Thu Oct 24 2024 13:05:02 GMT-0500 (Central Daylight Time),526409.0,016_y_m_d_a.png,O,m,1577,10,1,2640.199999988079,523768.8000000119,7026,VNB,B,8
9,test,2,0.0,2-Back,1,m,Thu Oct 24 2024 13:05:02 GMT-0500 (Central Daylight Time),528808.4000000358,007_m_m_n_a.png,O,m,1295,11,1,2311.300000011921,526497.1000000238,7026,VNB,B,9
10,test,2,0.0,2-Back,1,m,Thu Oct 24 2024 13:05:02 GMT-0500 (Central Daylight Time),530740.8000000119,011_m_f_h_a.png,O,m,823,12,1,1902.3999999761581,528838.4000000358,7026,VNB,B,10
11,test,2,1.0,2-Back,1,z,Thu Oct 24 2024 13:05:02 GMT-0500 (Central Daylight Time),532573.3000000119,004_o_m_n_a.png,O,z,748,13,1,1802.8999999761581,530770.4000000358,7026,VNB,B,11
12,test,2,0.0,2-Back,1,m,Thu Oct 24 2024 13:05:02 GMT-0500 (Central Daylight Time),534456.1999999881,005_o_f_d_a.png,O,m,761,14,1,1856.199999988079,532600.0,7026,VNB,B,12
12,test,2,0.0,2-Back,0,m,Thu Oct 24 2024 13:05:02 GMT-0500 (Central Daylight Time),536905.5,020_y_f_h_a.png,O,z,1335,15,1,2421.5,534484.0,7026,VNB,B,13
12,test,2,0.0,2-Back,0,z,Thu Oct 24 2024 13:05:02 GMT-0500 (Central Daylight Time),540024.8000000119,007_m_m_d_a.png,O,None,2015,16,1,3023.399999976158,537001.4000000358,7026,VNB,B,14
13,test,2,0.0,2-Back,1,m,Thu Oct 24 2024 13:05:02 GMT-0500 (Central Daylight Time),542236.9000000358,016_y_m_n_a.png,O,m,1181,17,1,2185.400000035763,540051.5,7026,VNB,B,15
14,test,2,1.0,2-Back,1,m,Thu Oct 24 2024 13:05:02 GMT-0500 (Central Daylight Time),544386.6000000238,011_m_f_n_a.png,O,m,1051,18,1,2070.400000035763,542316.1999999881,7026,VNB,B,16
0,test,3,1.0,2-Back,,,Thu Oct 24 2024 13:05:02 GMT-0500 (Central Daylight Time),544386.6000000238,004_o_m_n_a.png,O,space,863,1,1,2070.400000035763,542316.1999999881,7026,VNB,B,0
0,test,3,1.0,2-Back,,,Thu Oct 24 2024 13:05:02 GMT-0500 (Central Daylight Time),544386.6000000238,005_o_f_d_a.png,O,space,863,2,1,2070.400000035763,542316.1999999881,7026,VNB,B,0
1,test,3,0.0,2-Back,1,m,Thu Oct 24 2024 13:05:02 GMT-0500 (Central Daylight Time),552349.5,020_y_f_h_a.png,O,m,692,3,1,1709.800000011921,550639.6999999881,7026,VNB,B,1
2,test,3,0.0,2-Back,1,z,Thu Oct 24 2024 13:05:02 GMT-0500 (Central Daylight Time),554449.6000000238,011_m_f_d_a.png,O,z,1069,4,1,2096.400000035763,552353.1999999881,7026,VNB,B,2
3,test,3,1.0,2-Back,1,m,Thu Oct 24 2024 13:05:02 GMT-0500 (Central Daylight Time),556648.1999999881,016_y_m_n_a.png,O,m,1147,5,1,2172.0,554476.1999999881,7026,VNB,B,3
4,test,3,0.0,2-Back,1,m,Thu Oct 24 2024 13:05:02 GMT-0500 (Central Daylight Time),559081.6999999881,004_o_m_h_a.png,O,m,1402,6,1,2422.899999976158,556658.8000000119,7026,VNB,B,4
5,test,3,0.0,2-Back,1,z,Thu Oct 24 2024 13:05:02 GMT-0500 (Central Daylight Time),560697.6999999881,020_y_f_n_a.png,O,z,577,7,1,1586.199999988079,559111.5,7026,VNB,B,5
6,test,3,1.0,2-Back,1,m,Thu Oct 24 2024 13:05:02 GMT-0500 (Central Daylight Time),562380.6000000238,007_m_m_d_a.png,O,m,591,8,1,1653.699999988079,560726.9000000358,7026,VNB,B,6
7,test,3,0.0,2-Back,1,m,Thu Oct 24 2024 13:05:02 GMT-0500 (Central Daylight Time),564796.1999999881,016_y_m_d_a.png,O,m,1374,9,1,2390.599999964237,562405.6000000238,7026,VNB,B,7
8,test,3,0.0,2-Back,1,m,Thu Oct 24 2024 13:05:02 GMT-0500 (Central Daylight Time),566762.3000000119,005_o_f_h_a.png,O,m,926,10,1,1941.8999999761581,564820.4000000358,7026,VNB,B,8
9,test,3,1.0,2-Back,1,m,Thu Oct 24 2024 13:05:02 GMT-0500 (Central Daylight Time),568578.5,011_m_f_n_a.png,O,m,726,11,1,1737.199999988079,566841.3000000119,7026,VNB,B,9
10,test,3,1.0,2-Back,1,z,Thu Oct 24 2024 13:05:02 GMT-0500 (Central Daylight Time),570511.0,007_m_m_h_a.png,O,z,845,12,1,1905.699999988079,568605.3000000119,7026,VNB,B,10
11,test,3,0.0,2-Back,1,m,Thu Oct 24 2024 13:05:02 GMT-0500 (Central Daylight Time),572644.1000000238,020_y_f_d_a.png,O,m,1049,13,1,2110.800000011921,570533.3000000119,7026,VNB,B,11
12,test,3,0.0,2-Back,1,m,Thu Oct 24 2024 13:05:02 GMT-0500 (Central Daylight Time),575242.8000000119,005_o_f_n_a.png,O,m,1559,14,1,2576.699999988079,572666.1000000238,7026,VNB,B,12
13,test,3,0.0,2-Back,1,z,Thu Oct 24 2024 13:05:02 GMT-0500 (Central Daylight Time),577092.4000000358,004_o_m_d_a.png,O,z,758,15,1,1822.6000000238419,575269.8000000119,7026,VNB,B,13
13,test,3,1.0,2-Back,0,m,Thu Oct 24 2024 13:05:02 GMT-0500 (Central Daylight Time),578924.6999999881,011_m_f_h_a.png,O,z,731,16,1,1804.0,577120.6999999881,7026,VNB,B,14
14,test,3,0.0,2-Back,1,m,Thu Oct 24 2024 13:05:02 GMT-0500 (Central Daylight Time),581540.8000000119,007_m_m_n_a.png,O,m,1531,17,1,2586.100000023842,578954.6999999881,7026,VNB,B,15
15,test,3,0.0,2-Back,1,z,Thu Oct 24 2024 13:05:02 GMT-0500 (Central Daylight Time),583340.3000000119,016_y_m_h_a.png,O,z,708,18,1,1773.1000000238419,581567.1999999881,7026,VNB,B,16
0,test,4,0.0,2-Back,,,Thu Oct 24 2024 13:05:02 GMT-0500 (Central Daylight Time),583340.3000000119,011_m_f_n_a.png,O,space,1182,1,1,1773.1000000238419,581567.1999999881,7026,VNB,B,0
0,test,4,0.0,2-Back,,,Thu Oct 24 2024 13:05:02 GMT-0500 (Central Daylight Time),583340.3000000119,004_o_m_n_a.png,O,space,1182,2,1,1773.1000000238419,581567.1999999881,7026,VNB,B,0
1,test,4,1.0,2-Back,1,m,Thu Oct 24 2024 13:05:02 GMT-0500 (Central Daylight Time),591605.1000000238,016_y_m_h_a.png,O,m,682,3,1,1694.1000000238419,589911.0,7026,VNB,B,1
2,test,4,1.0,2-Back,1,m,Thu Oct 24 2024 13:05:02 GMT-0500 (Central Daylight Time),593437.1000000238,005_o_f_d_a.png,O,m,781,4,1,1796.6000000238419,591640.5,7026,VNB,B,2
3,test,4,0.0,2-Back,1,z,Thu Oct 24 2024 13:05:02 GMT-0500 (Central Daylight Time),595319.5,004_o_m_h_a.png,O,z,841,5,1,1855.199999988079,593464.3000000119,7026,VNB,B,3
4,test,4,0.0,2-Back,1,m,Thu Oct 24 2024 13:05:02 GMT-0500 (Central Daylight Time),597185.6000000238,007_m_m_n_a.png,O,m,769,6,1,1842.699999988079,595342.9000000358,7026,VNB,B,4
4,test,4,0.0,2-Back,0,m,Thu Oct 24 2024 13:05:02 GMT-0500 (Central Daylight Time),600301.4000000358,011_m_f_d_a.png,O,None,2015,7,1,3023.5,597277.9000000358,7026,VNB,B,5
5,test,4,0.0,2-Back,1,z,Thu Oct 24 2024 13:05:02 GMT-0500 (Central Daylight Time),602217.4000000358,020_y_f_n_a.png,O,z,769,8,1,1790.1000000238419,600427.3000000119,7026,VNB,B,6
6,test,4,1.0,2-Back,1,m,Thu Oct 24 2024 13:05:02 GMT-0500 (Central Daylight Time),604332.9000000358,005_o_f_h_a.png,O,m,1031,9,1,2086.0,602246.9000000358,7026,VNB,B,7
7,test,4,0.0,2-Back,1,m,Thu Oct 24 2024 13:05:02 GMT-0500 (Central Daylight Time),606548.9000000358,007_m_m_h_a.png,O,m,1131,10,1,2194.0,604354.9000000358,7026,VNB,B,8
8,test,4,0.0,2-Back,1,m,Thu Oct 24 2024 13:05:02 GMT-0500 (Central Daylight Time),608482.1000000238,020_y_f_d_a.png,O,m,843,11,1,1907.199999988079,606574.9000000358,7026,VNB,B,9
9,test,4,0.0,2-Back,1,m,Thu Oct 24 2024 13:05:02 GMT-0500 (Central Daylight Time),610481.3000000119,016_y_m_n_a.png,O,m,894,12,1,1970.5,608510.8000000119,7026,VNB,B,10
10,test,4,0.0,2-Back,1,z,Thu Oct 24 2024 13:05:02 GMT-0500 (Central Daylight Time),612497.1999999881,004_o_m_d_a.png,O,z,919,13,1,1990.8999999761581,610506.3000000119,7026,VNB,B,11
11,test,4,1.0,2-Back,1,m,Thu Oct 24 2024 13:05:02 GMT-0500 (Central Daylight Time),614396.6000000238,011_m_f_h_a.png,O,m,798,14,1,1870.300000011921,612526.3000000119,7026,VNB,B,12
12,test,4,1.0,2-Back,1,m,Thu Oct 24 2024 13:05:02 GMT-0500 (Central Daylight Time),616428.9000000358,020_y_f_h_a.png,O,m,998,15,1,2010.9000000357628,614418.0,7026,VNB,B,13
13,test,4,0.0,2-Back,1,m,Thu Oct 24 2024 13:05:02 GMT-0500 (Central Daylight Time),618277.9000000358,005_o_f_n_a.png,O,m,762,16,1,1820.800000011921,616457.1000000238,7026,VNB,B,14
14,test,4,0.0,2-Back,1,m,Thu Oct 24 2024 13:05:02 GMT-0500 (Central Daylight Time),620214.5,016_y_m_d_a.png,O,m,918,17,1,1931.5999999642372,618282.9000000358,7026,VNB,B,15
15,test,4,1.0,2-Back,1,m,Thu Oct 24 2024 13:05:02 GMT-0500 (Central Daylight Time),622294.0,007_m_m_d_a.png,O,m,1063,18,1,2074.699999988079,620219.3000000119,7026,VNB,B,16
0,test,5,1.0,2-Back,,,Thu Oct 24 2024 13:05:02 GMT-0500 (Central Daylight Time),622294.0,020_y_f_d_a.png,O,space,746,1,1,2074.699999988079,620219.3000000119,7026,VNB,B,0
0,test,5,1.0,2-Back,,,Thu Oct 24 2024 13:05:02 GMT-0500 (Central Daylight Time),622294.0,005_o_f_h_a.png,O,space,746,2,1,2074.699999988079,620219.3000000119,7026,VNB,B,0
1,test,5,1.0,2-Back,1,z,Thu Oct 24 2024 13:05:02 GMT-0500 (Central Daylight Time),630624.6999999881,004_o_m_d_a.png,O,z,1177,3,1,2187.0,628437.6999999881,7026,VNB,B,1
2,test,5,1.0,2-Back,1,m,Thu Oct 24 2024 13:05:02 GMT-0500 (Central Daylight Time),632174.1999999881,011_m_f_n_a.png,O,m,492,4,1,1518.5,630655.6999999881,7026,VNB,B,2
3,test,5,0.0,2-Back,1,m,Thu Oct 24 2024 13:05:02 GMT-0500 (Central Daylight Time),634172.6999999881,007_m_m_h_a.png,O,m,881,5,1,1897.2999999523163,632275.4000000358,7026,VNB,B,3
4,test,5,0.0,2-Back,1,z,Thu Oct 24 2024 13:05:02 GMT-0500 (Central Daylight Time),636106.1000000238,020_y_f_n_a.png,O,z,901,6,1,1925.800000011921,634180.3000000119,7026,VNB,B,4
5,test,5,0.0,2-Back,1,m,Thu Oct 24 2024 13:05:02 GMT-0500 (Central Daylight Time),637755.8000000119,005_o_f_d_a.png,O,m,542,7,1,1619.699999988079,636136.1000000238,7026,VNB,B,5
5,test,5,0.0,2-Back,0,m,Thu Oct 24 2024 13:05:02 GMT-0500 (Central Daylight Time),640871.5,004_o_m_h_a.png,O,None,2015,8,1,3091.099999964237,637780.4000000358,7026,VNB,B,6
5,test,5,1.0,2-Back,0,z,Thu Oct 24 2024 13:05:02 GMT-0500 (Central Daylight Time),643619.6000000238,011_m_f_d_a.png,O,m,1647,9,1,2719.300000011921,640900.3000000119,7026,VNB,B,7
6,test,5,0.0,2-Back,1,m,Thu Oct 24 2024 13:05:02 GMT-0500 (Central Daylight Time),645236.4000000358,016_y_m_n_a.png,O,m,584,10,1,1605.1000000238419,643631.3000000119,7026,VNB,B,8
7,test,5,0.0,2-Back,1,m,Thu Oct 24 2024 13:05:02 GMT-0500 (Central Daylight Time),647102.5,007_m_m_n_a.png,O,m,763,11,1,1837.699999988079,645264.8000000119,7026,VNB,B,9
8,test,5,0.0,2-Back,1,m,Thu Oct 24 2024 13:05:02 GMT-0500 (Central Daylight Time),649869.1999999881,020_y_f_h_a.png,O,m,1680,12,1,2738.7999999523163,647130.4000000358,7026,VNB,B,10
8,test,5,0.0,2-Back,0,m,Thu Oct 24 2024 13:05:02 GMT-0500 (Central Daylight Time),651901.0,016_y_m_d_a.png,O,z,947,13,1,1952.300000011921,649948.6999999881,7026,VNB,B,11
9,test,5,1.0,2-Back,1,z,Thu Oct 24 2024 13:05:02 GMT-0500 (Central Daylight Time),653567.1000000238,011_m_f_h_a.png,O,z,621,14,1,1640.699999988079,651926.4000000358,7026,VNB,B,12
10,test,5,0.0,2-Back,1,m,Thu Oct 24 2024 13:05:02 GMT-0500 (Central Daylight Time),655600.0,004_o_m_n_a.png,O,m,937,15,1,2001.800000011921,653598.1999999881,7026,VNB,B,13
11,test,5,0.0,2-Back,1,m,Thu Oct 24 2024 13:05:02 GMT-0500 (Central Daylight Time),657532.6999999881,007_m_m_d_a.png,O,m,815,16,1,1833.699999988079,655699.0,7026,VNB,B,14
12,test,5,0.0,2-Back,1,z,Thu Oct 24 2024 13:05:02 GMT-0500 (Central Daylight Time),659365.1999999881,005_o_f_n_a.png,O,z,741,17,1,1751.8999999761581,657613.3000000119,7026,VNB,B,15
13,test,5,1.0,2-Back,1,m,Thu Oct 24 2024 13:05:02 GMT-0500 (Central Daylight Time),661264.6000000238,016_y_m_h_a.png,O,m,811,18,1,1873.800000011921,659390.8000000119,7026,VNB,B,16
