acc_sum,block,block_c,change,condition,correct,correct_response,datetime,endtime,face,project,response,response_time,row_sel,session_number,start_end,starttime,subject_id,task,task_vers,trial
0,prac,1,,1-Back,,,Fri Apr 11 2025 13:23:20 GMT-0500 (Central Daylight Time),,005_o_f_d_a.png,O,space,9360,1,1,,,7120,VNB,B,0
0,prac,1,0.0,1-Back,0,m,Fri Apr 11 2025 13:23:20 GMT-0500 (Central Daylight Time),139633.70000004768,020_y_f_n_a.png,O,z,1828,2,1,2731.100000023842,136902.60000002384,7120,VNB,B,1
0,prac,1,0.0,1-Back,0,m,Fri Apr 11 2025 13:23:20 GMT-0500 (Central Daylight Time),142582.89999997616,007_m_m_h_a.png,O,None,2007,3,1,2926.5999999046326,139656.30000007153,7120,VNB,B,2
0,prac,1,0.0,1-Back,0,m,Fri Apr 11 2025 13:23:20 GMT-0500 (Central Daylight Time),145231.89999997616,016_y_m_d_a.png,O,z,1678,4,1,2607.899999976158,142624.0,7120,VNB,B,3
1,prac,1,0.0,1-Back,1,m,Fri Apr 11 2025 13:23:20 GMT-0500 (Central Daylight Time),147914.70000004768,005_o_f_n_a.png,O,m,1728,5,1,2647.0,145267.70000004768,7120,VNB,B,4
1,prac,1,1.0,1-Back,0,z,Fri Apr 11 2025 13:23:20 GMT-0500 (Central Daylight Time),149964.60000002384,016_y_m_n_a.png,O,m,1087,6,1,2017.0,147947.60000002384,7120,VNB,B,5
2,prac,1,0.0,1-Back,1,m,Fri Apr 11 2025 13:23:20 GMT-0500 (Central Daylight Time),152212.60000002384,004_o_m_h_a.png,O,m,1307,7,1,2208.0,150004.60000002384,7120,VNB,B,6
2,prac,1,0.0,1-Back,0,m,Fri Apr 11 2025 13:23:20 GMT-0500 (Central Daylight Time),154578.70000004768,011_m_f_d_a.png,O,z,1422,8,1,2342.5,152236.20000004768,7120,VNB,B,7
2,prac,1,1.0,1-Back,0,z,Fri Apr 11 2025 13:23:20 GMT-0500 (Central Daylight Time),157478.0,020_y_f_d_a.png,O,m,1951,9,1,2855.1999999284744,154622.80000007153,7120,VNB,B,8
2,prac,1,0.0,1-Back,0,m,Fri Apr 11 2025 13:23:20 GMT-0500 (Central Daylight Time),160442.80000007153,007_m_m_n_a.png,O,None,2013,10,1,2930.2000000476837,157512.60000002384,7120,VNB,B,9
3,prac,1,0.0,1-Back,1,m,Fri Apr 11 2025 13:23:20 GMT-0500 (Central Daylight Time),162859.5,005_o_f_h_a.png,O,m,1490,11,1,2407.399999976158,160452.10000002384,7120,VNB,B,10
4,prac,1,0.0,1-Back,1,m,Fri Apr 11 2025 13:23:20 GMT-0500 (Central Daylight Time),165542.0,016_y_m_d_a.png,O,m,1717,12,1,2652.2999999523163,162889.70000004768,7120,VNB,B,11
0,prac,2,0.0,1-Back,,,Fri Apr 11 2025 13:23:20 GMT-0500 (Central Daylight Time),165542.0,005_o_f_d_a.png,O,a,11830,1,1,2652.2999999523163,162889.70000004768,7120,VNB,B,0
1,prac,2,0.0,1-Back,1,m,Fri Apr 11 2025 13:23:20 GMT-0500 (Central Daylight Time),183086.30000007153,020_y_f_n_a.png,O,m,1721,2,1,2624.4000000953674,180461.89999997616,7120,VNB,B,1
2,prac,2,0.0,1-Back,1,m,Fri Apr 11 2025 13:23:20 GMT-0500 (Central Daylight Time),185835.39999997616,007_m_m_h_a.png,O,m,1788,3,1,2708.399999976158,183127.0,7120,VNB,B,2
3,prac,2,0.0,1-Back,1,m,Fri Apr 11 2025 13:23:20 GMT-0500 (Central Daylight Time),188101.20000004768,016_y_m_d_a.png,O,m,1453,4,1,2231.3000000715256,185869.89999997616,7120,VNB,B,3
4,prac,2,0.0,1-Back,1,m,Fri Apr 11 2025 13:23:20 GMT-0500 (Central Daylight Time),190667.0,005_o_f_n_a.png,O,m,1613,5,1,2531.1999999284744,188135.80000007153,7120,VNB,B,4
4,prac,2,1.0,1-Back,0,z,Fri Apr 11 2025 13:23:20 GMT-0500 (Central Daylight Time),192866.20000004768,016_y_m_n_a.png,O,m,1234,6,1,2168.3000000715256,190697.89999997616,7120,VNB,B,5
5,prac,2,0.0,1-Back,1,m,Fri Apr 11 2025 13:23:20 GMT-0500 (Central Daylight Time),194865.70000004768,004_o_m_h_a.png,O,m,1057,7,1,1960.8999999761581,192904.80000007153,7120,VNB,B,6
6,prac,2,0.0,1-Back,1,m,Fri Apr 11 2025 13:23:20 GMT-0500 (Central Daylight Time),197248.30000007153,011_m_f_d_a.png,O,m,1420,8,1,2348.0,194900.30000007153,7120,VNB,B,7
6,prac,2,1.0,1-Back,0,z,Fri Apr 11 2025 13:23:20 GMT-0500 (Central Daylight Time),199646.70000004768,020_y_f_d_a.png,O,m,1458,9,1,2362.7000000476837,197284.0,7120,VNB,B,8
6,prac,2,0.0,1-Back,0,m,Fri Apr 11 2025 13:23:20 GMT-0500 (Central Daylight Time),202296.5,007_m_m_n_a.png,O,z,1702,10,1,2630.2999999523163,199666.20000004768,7120,VNB,B,9
7,prac,2,0.0,1-Back,1,m,Fri Apr 11 2025 13:23:20 GMT-0500 (Central Daylight Time),204145.10000002384,005_o_f_h_a.png,O,m,887,11,1,1809.6000000238419,202335.5,7120,VNB,B,10
7,prac,2,0.0,1-Back,0,m,Fri Apr 11 2025 13:23:20 GMT-0500 (Central Daylight Time),206727.60000002384,016_y_m_d_a.png,O,z,1639,12,1,2569.5,204158.10000002384,7120,VNB,B,11
0,test,1,0.0,1-Back,,,Fri Apr 11 2025 13:23:20 GMT-0500 (Central Daylight Time),206727.60000002384,020_y_f_d_a.png,O,space,10754,1,1,2569.5,204158.10000002384,7120,VNB,B,0
0,test,1,0.0,1-Back,0,m,Fri Apr 11 2025 13:23:20 GMT-0500 (Central Daylight Time),228804.70000004768,011_m_f_n_a.png,O,None,2015,2,1,3031.8000000715256,225772.89999997616,7120,VNB,B,1
1,test,1,0.0,1-Back,1,m,Fri Apr 11 2025 13:23:20 GMT-0500 (Central Daylight Time),230803.80000007153,004_o_m_h_a.png,O,m,941,3,1,1965.6000000238419,228838.20000004768,7120,VNB,B,2
2,test,1,1.0,1-Back,1,z,Fri Apr 11 2025 13:23:20 GMT-0500 (Central Daylight Time),232485.60000002384,007_m_m_h_a.png,O,z,643,4,1,1655.7000000476837,230829.89999997616,7120,VNB,B,3
3,test,1,0.0,1-Back,1,m,Fri Apr 11 2025 13:23:20 GMT-0500 (Central Daylight Time),234819.0,005_o_f_n_a.png,O,m,1300,5,1,2326.5,232492.5,7120,VNB,B,4
4,test,1,0.0,1-Back,1,m,Fri Apr 11 2025 13:23:20 GMT-0500 (Central Daylight Time),237434.89999997616,016_y_m_d_a.png,O,m,1567,6,1,2590.5,234844.39999997616,7120,VNB,B,5
5,test,1,1.0,1-Back,1,z,Fri Apr 11 2025 13:23:20 GMT-0500 (Central Daylight Time),239884.10000002384,011_m_f_d_a.png,O,z,1382,7,1,2415.600000023842,237468.5,7120,VNB,B,6
6,test,1,0.0,1-Back,1,m,Fri Apr 11 2025 13:23:20 GMT-0500 (Central Daylight Time),242066.70000004768,020_y_f_h_a.png,O,m,1116,8,1,2147.100000023842,239919.60000002384,7120,VNB,B,7
7,test,1,0.0,1-Back,1,m,Fri Apr 11 2025 13:23:20 GMT-0500 (Central Daylight Time),244198.5,004_o_m_n_a.png,O,m,1093,9,1,2104.1999999284744,242094.30000007153,7120,VNB,B,8
8,test,1,0.0,1-Back,1,m,Fri Apr 11 2025 13:23:20 GMT-0500 (Central Daylight Time),246215.30000007153,016_y_m_h_a.png,O,m,995,10,1,2006.0,244209.30000007153,7120,VNB,B,9
9,test,1,0.0,1-Back,1,m,Fri Apr 11 2025 13:23:20 GMT-0500 (Central Daylight Time),248081.39999997616,004_o_m_d_a.png,O,m,825,11,1,1837.1999999284744,246244.20000004768,7120,VNB,B,10
10,test,1,1.0,1-Back,1,z,Fri Apr 11 2025 13:23:20 GMT-0500 (Central Daylight Time),250164.70000004768,005_o_f_d_a.png,O,z,1048,12,1,2057.2000000476837,248107.5,7120,VNB,B,11
10,test,1,0.0,1-Back,0,m,Fri Apr 11 2025 13:23:20 GMT-0500 (Central Daylight Time),252896.30000007153,007_m_m_n_a.png,O,z,1685,13,1,2701.600000023842,250194.70000004768,7120,VNB,B,12
11,test,1,1.0,1-Back,1,z,Fri Apr 11 2025 13:23:20 GMT-0500 (Central Daylight Time),255879.0,020_y_f_n_a.png,O,z,1929,14,1,2946.7999999523163,252932.20000004768,7120,VNB,B,13
12,test,1,0.0,1-Back,1,m,Fri Apr 11 2025 13:23:20 GMT-0500 (Central Daylight Time),257695.0,011_m_f_h_a.png,O,m,772,15,1,1789.1000000238419,255905.89999997616,7120,VNB,B,14
13,test,1,0.0,1-Back,1,m,Fri Apr 11 2025 13:23:20 GMT-0500 (Central Daylight Time),260177.39999997616,007_m_m_d_a.png,O,m,1442,16,1,2456.399999976158,257721.0,7120,VNB,B,15
13,test,1,0.0,1-Back,0,m,Fri Apr 11 2025 13:23:20 GMT-0500 (Central Daylight Time),262893.2000000477,016_y_m_n_a.png,O,z,1672,17,1,2690.8000000715256,260202.39999997616,7120,VNB,B,16
14,test,1,0.0,1-Back,1,m,Fri Apr 11 2025 13:23:20 GMT-0500 (Central Daylight Time),265309.10000002384,005_o_f_h_a.png,O,m,1354,18,1,2380.5,262928.60000002384,7120,VNB,B,17
0,test,2,0.0,1-Back,,,Fri Apr 11 2025 13:23:20 GMT-0500 (Central Daylight Time),265309.10000002384,016_y_m_n_a.png,O,space,2109,1,1,2380.5,262928.60000002384,7120,VNB,B,0
1,test,2,0.0,1-Back,1,m,Fri Apr 11 2025 13:23:20 GMT-0500 (Central Daylight Time),272140.10000002384,020_y_f_h_a.png,O,m,1656,2,1,2671.0,269469.10000002384,7120,VNB,B,1
2,test,2,1.0,1-Back,1,m,Fri Apr 11 2025 13:23:20 GMT-0500 (Central Daylight Time),274606.0,004_o_m_n_a.png,O,m,1429,3,1,2436.7999999523163,272169.2000000477,7120,VNB,B,2
3,test,2,0.0,1-Back,1,m,Fri Apr 11 2025 13:23:20 GMT-0500 (Central Daylight Time),277204.60000002384,011_m_f_d_a.png,O,m,1553,4,1,2574.100000023842,274630.5,7120,VNB,B,3
4,test,2,0.0,1-Back,1,z,Fri Apr 11 2025 13:23:20 GMT-0500 (Central Daylight Time),279404.39999997616,007_m_m_d_a.png,O,z,1172,5,1,2189.0,277215.39999997616,7120,VNB,B,4
5,test,2,0.0,1-Back,1,m,Fri Apr 11 2025 13:23:20 GMT-0500 (Central Daylight Time),281453.8000000715,016_y_m_h_a.png,O,m,1015,6,1,2023.2000000476837,279430.60000002384,7120,VNB,B,5
5,test,2,1.0,1-Back,0,z,Fri Apr 11 2025 13:23:20 GMT-0500 (Central Daylight Time),283220.3000000715,005_o_f_h_a.png,O,m,732,7,1,1740.2000000476837,281480.10000002384,7120,VNB,B,6
6,test,2,0.0,1-Back,1,m,Fri Apr 11 2025 13:23:20 GMT-0500 (Central Daylight Time),285469.10000002384,011_m_f_n_a.png,O,m,1189,8,1,2213.7000000476837,283255.39999997616,7120,VNB,B,7
7,test,2,0.0,1-Back,1,m,Fri Apr 11 2025 13:23:20 GMT-0500 (Central Daylight Time),287568.39999997616,020_y_f_d_a.png,O,m,1044,9,1,2067.0999999046326,285501.3000000715,7120,VNB,B,8
7,test,2,0.0,1-Back,0,m,Fri Apr 11 2025 13:23:20 GMT-0500 (Central Daylight Time),290267.5,007_m_m_n_a.png,O,z,1649,10,1,2677.6999999284744,287589.8000000715,7120,VNB,B,9
8,test,2,1.0,1-Back,1,m,Fri Apr 11 2025 13:23:20 GMT-0500 (Central Daylight Time),292200.2000000477,011_m_f_h_a.png,O,m,876,11,1,1900.6000000238419,290299.60000002384,7120,VNB,B,10
9,test,2,0.0,1-Back,1,z,Fri Apr 11 2025 13:23:20 GMT-0500 (Central Daylight Time),294166.10000002384,004_o_m_h_a.png,O,z,906,12,1,1935.1000000238419,292231.0,7120,VNB,B,11
10,test,2,0.0,1-Back,1,m,Fri Apr 11 2025 13:23:20 GMT-0500 (Central Daylight Time),296315.60000002384,016_y_m_d_a.png,O,m,1099,13,1,2127.100000023842,294188.5,7120,VNB,B,12
11,test,2,0.0,1-Back,1,m,Fri Apr 11 2025 13:23:20 GMT-0500 (Central Daylight Time),299147.60000002384,005_o_f_n_a.png,O,m,1797,14,1,2805.0,296342.60000002384,7120,VNB,B,13
12,test,2,0.0,1-Back,1,z,Fri Apr 11 2025 13:23:20 GMT-0500 (Central Daylight Time),301830.39999997616,020_y_f_n_a.png,O,z,1654,15,1,2668.7999999523163,299161.60000002384,7120,VNB,B,14
13,test,2,1.0,1-Back,1,m,Fri Apr 11 2025 13:23:20 GMT-0500 (Central Daylight Time),303962.89999997616,007_m_m_h_a.png,O,m,1074,16,1,2101.7999999523163,301861.10000002384,7120,VNB,B,15
14,test,2,0.0,1-Back,1,m,Fri Apr 11 2025 13:23:20 GMT-0500 (Central Daylight Time),306028.3000000715,005_o_f_d_a.png,O,m,1029,17,1,2034.5,303993.8000000715,7120,VNB,B,16
15,test,2,1.0,1-Back,1,z,Fri Apr 11 2025 13:23:20 GMT-0500 (Central Daylight Time),308177.5,004_o_m_d_a.png,O,z,1125,18,1,2138.2999999523163,306039.2000000477,7120,VNB,B,17
0,test,3,1.0,1-Back,,,Fri Apr 11 2025 13:23:20 GMT-0500 (Central Daylight Time),308177.5,005_o_f_h_a.png,O,space,2482,1,1,2138.2999999523163,306039.2000000477,7120,VNB,B,0
1,test,3,0.0,1-Back,1,m,Fri Apr 11 2025 13:23:20 GMT-0500 (Central Daylight Time),315126.10000002384,011_m_f_d_a.png,O,m,1246,2,1,2261.0,312865.10000002384,7120,VNB,B,1
1,test,3,1.0,1-Back,0,m,Fri Apr 11 2025 13:23:20 GMT-0500 (Central Daylight Time),317691.89999997616,007_m_m_n_a.png,O,z,1515,3,1,2539.5,315152.39999997616,7120,VNB,B,2
2,test,3,0.0,1-Back,1,z,Fri Apr 11 2025 13:23:20 GMT-0500 (Central Daylight Time),320024.5,005_o_f_n_a.png,O,z,1285,4,1,2309.899999976158,317714.60000002384,7120,VNB,B,3
3,test,3,1.0,1-Back,1,m,Fri Apr 11 2025 13:23:20 GMT-0500 (Central Daylight Time),322323.7000000477,004_o_m_d_a.png,O,m,1256,5,1,2276.3000000715256,320047.39999997616,7120,VNB,B,4
4,test,3,0.0,1-Back,1,m,Fri Apr 11 2025 13:23:20 GMT-0500 (Central Daylight Time),324822.89999997616,020_y_f_h_a.png,O,m,1453,6,1,2470.5999999046326,322352.3000000715,7120,VNB,B,5
5,test,3,0.0,1-Back,1,z,Fri Apr 11 2025 13:23:20 GMT-0500 (Central Daylight Time),326955.60000002384,016_y_m_h_a.png,O,z,1083,7,1,2105.899999976158,324849.7000000477,7120,VNB,B,6
6,test,3,0.0,1-Back,1,m,Fri Apr 11 2025 13:23:20 GMT-0500 (Central Daylight Time),329204.8000000715,011_m_f_n_a.png,O,m,1197,8,1,2216.2000000476837,326988.60000002384,7120,VNB,B,7
6,test,3,0.0,1-Back,0,m,Fri Apr 11 2025 13:23:20 GMT-0500 (Central Daylight Time),331487.3000000715,020_y_f_d_a.png,O,z,1244,9,1,2258.4000000953674,329228.89999997616,7120,VNB,B,8
7,test,3,1.0,1-Back,1,m,Fri Apr 11 2025 13:23:20 GMT-0500 (Central Daylight Time),334503.0,004_o_m_n_a.png,O,m,1978,10,1,2991.2999999523163,331511.7000000477,7120,VNB,B,9
8,test,3,0.0,1-Back,1,m,Fri Apr 11 2025 13:23:20 GMT-0500 (Central Daylight Time),336952.2000000477,007_m_m_h_a.png,O,m,1409,11,1,2419.600000023842,334532.60000002384,7120,VNB,B,10
9,test,3,0.0,1-Back,1,z,Fri Apr 11 2025 13:23:20 GMT-0500 (Central Daylight Time),338601.3000000715,011_m_f_h_a.png,O,z,609,12,1,1622.1000000238419,336979.2000000477,7120,VNB,B,11
10,test,3,1.0,1-Back,1,m,Fri Apr 11 2025 13:23:20 GMT-0500 (Central Daylight Time),340566.89999997616,005_o_f_d_a.png,O,m,909,13,1,1934.1999999284744,338632.7000000477,7120,VNB,B,12
11,test,3,0.0,1-Back,1,z,Fri Apr 11 2025 13:23:20 GMT-0500 (Central Daylight Time),342816.8000000715,007_m_m_d_a.png,O,z,1227,14,1,2244.8000000715256,340572.0,7120,VNB,B,13
12,test,3,0.0,1-Back,1,m,Fri Apr 11 2025 13:23:20 GMT-0500 (Central Daylight Time),345682.7000000477,016_y_m_n_a.png,O,m,1816,15,1,2837.399999976158,342845.3000000715,7120,VNB,B,14
13,test,3,1.0,1-Back,1,m,Fri Apr 11 2025 13:23:20 GMT-0500 (Central Daylight Time),348032.10000002384,004_o_m_h_a.png,O,m,1286,16,1,2319.0,345713.10000002384,7120,VNB,B,15
14,test,3,0.0,1-Back,1,m,Fri Apr 11 2025 13:23:20 GMT-0500 (Central Daylight Time),350731.0,016_y_m_d_a.png,O,m,1658,17,1,2669.0,348062.0,7120,VNB,B,16
14,test,3,1.0,1-Back,0,m,Fri Apr 11 2025 13:23:20 GMT-0500 (Central Daylight Time),353113.5,020_y_f_n_a.png,O,z,1327,18,1,2349.2999999523163,350764.2000000477,7120,VNB,B,17
0,test,4,1.0,1-Back,,,Fri Apr 11 2025 13:23:20 GMT-0500 (Central Daylight Time),353113.5,007_m_m_d_a.png,O,space,2600,1,1,2349.2999999523163,350764.2000000477,7120,VNB,B,0
1,test,4,0.0,1-Back,1,z,Fri Apr 11 2025 13:23:20 GMT-0500 (Central Daylight Time),360028.0,004_o_m_d_a.png,O,z,1074,2,1,2087.899999976158,357940.10000002384,7120,VNB,B,1
2,test,4,0.0,1-Back,1,m,Fri Apr 11 2025 13:23:20 GMT-0500 (Central Daylight Time),362010.60000002384,016_y_m_h_a.png,O,m,918,3,1,1947.5,360063.10000002384,7120,VNB,B,2
3,test,4,0.0,1-Back,1,m,Fri Apr 11 2025 13:23:20 GMT-0500 (Central Daylight Time),364293.2000000477,011_m_f_n_a.png,O,m,1222,4,1,2250.899999976158,362042.3000000715,7120,VNB,B,3
4,test,4,1.0,1-Back,1,m,Fri Apr 11 2025 13:23:20 GMT-0500 (Central Daylight Time),366375.89999997616,005_o_f_h_a.png,O,m,1036,5,1,2067.399999976158,364308.5,7120,VNB,B,4
5,test,4,0.0,1-Back,1,m,Fri Apr 11 2025 13:23:20 GMT-0500 (Central Daylight Time),368425.5,007_m_m_n_a.png,O,m,1009,6,1,2023.2999999523163,366402.2000000477,7120,VNB,B,5
5,test,4,0.0,1-Back,0,m,Fri Apr 11 2025 13:23:20 GMT-0500 (Central Daylight Time),370507.89999997616,016_y_m_d_a.png,O,z,1032,7,1,2059.899999976158,368448.0,7120,VNB,B,6
6,test,4,1.0,1-Back,1,z,Fri Apr 11 2025 13:23:20 GMT-0500 (Central Daylight Time),372707.10000002384,020_y_f_d_a.png,O,z,1141,8,1,2167.899999976158,370539.2000000477,7120,VNB,B,7
7,test,4,0.0,1-Back,1,m,Fri Apr 11 2025 13:23:20 GMT-0500 (Central Daylight Time),374606.5,011_m_f_h_a.png,O,m,854,9,1,1871.6999999284744,372734.8000000715,7120,VNB,B,8
8,test,4,0.0,1-Back,1,z,Fri Apr 11 2025 13:23:20 GMT-0500 (Central Daylight Time),376689.10000002384,004_o_m_h_a.png,O,z,1026,10,1,2051.100000023842,374638.0,7120,VNB,B,9
9,test,4,1.0,1-Back,1,m,Fri Apr 11 2025 13:23:20 GMT-0500 (Central Daylight Time),378888.5,005_o_f_n_a.png,O,m,1139,11,1,2172.399999976158,376716.10000002384,7120,VNB,B,10
9,test,4,0.0,1-Back,0,m,Fri Apr 11 2025 13:23:20 GMT-0500 (Central Daylight Time),381637.39999997616,011_m_f_d_a.png,O,z,1713,12,1,2720.899999976158,378916.5,7120,VNB,B,11
9,test,4,0.0,1-Back,0,m,Fri Apr 11 2025 13:23:20 GMT-0500 (Central Daylight Time),384003.39999997616,020_y_f_n_a.png,O,z,1307,13,1,2337.899999976158,381665.5,7120,VNB,B,12
9,test,4,0.0,1-Back,0,m,Fri Apr 11 2025 13:23:20 GMT-0500 (Central Daylight Time),386052.8000000715,005_o_f_d_a.png,O,z,1006,14,1,2021.2000000476837,384031.60000002384,7120,VNB,B,13
10,test,4,0.0,1-Back,1,m,Fri Apr 11 2025 13:23:20 GMT-0500 (Central Daylight Time),387934.60000002384,020_y_f_h_a.png,O,m,843,15,1,1858.7000000476837,386075.89999997616,7120,VNB,B,14
11,test,4,1.0,1-Back,1,z,Fri Apr 11 2025 13:23:20 GMT-0500 (Central Daylight Time),390101.2000000477,007_m_m_h_a.png,O,z,1146,16,1,2162.100000023842,387939.10000002384,7120,VNB,B,15
12,test,4,0.0,1-Back,1,m,Fri Apr 11 2025 13:23:20 GMT-0500 (Central Daylight Time),392100.8000000715,004_o_m_n_a.png,O,m,957,17,1,1973.9000000953674,390126.89999997616,7120,VNB,B,16
13,test,4,1.0,1-Back,1,z,Fri Apr 11 2025 13:23:20 GMT-0500 (Central Daylight Time),394416.7000000477,016_y_m_n_a.png,O,z,1276,18,1,2284.899999976158,392131.8000000715,7120,VNB,B,17
0,test,5,1.0,1-Back,,,Fri Apr 11 2025 13:23:20 GMT-0500 (Central Daylight Time),394416.7000000477,004_o_m_n_a.png,O,space,2257,1,1,2284.899999976158,392131.8000000715,7120,VNB,B,0
1,test,5,1.0,1-Back,1,m,Fri Apr 11 2025 13:23:20 GMT-0500 (Central Daylight Time),400747.89999997616,005_o_f_h_a.png,O,m,1007,2,1,2023.0999999046326,398724.8000000715,7120,VNB,B,1
2,test,5,0.0,1-Back,1,m,Fri Apr 11 2025 13:23:20 GMT-0500 (Central Daylight Time),402979.7000000477,016_y_m_d_a.png,O,m,1171,3,1,2201.0,400778.7000000477,7120,VNB,B,2
3,test,5,0.0,1-Back,1,z,Fri Apr 11 2025 13:23:20 GMT-0500 (Central Daylight Time),404997.0,004_o_m_d_a.png,O,z,999,4,1,2013.0,402984.0,7120,VNB,B,3
4,test,5,0.0,1-Back,1,m,Fri Apr 11 2025 13:23:20 GMT-0500 (Central Daylight Time),406895.2000000477,011_m_f_h_a.png,O,m,860,5,1,1871.8999999761581,405023.3000000715,7120,VNB,B,4
5,test,5,0.0,1-Back,1,m,Fri Apr 11 2025 13:23:20 GMT-0500 (Central Daylight Time),408828.8000000715,020_y_f_n_a.png,O,m,914,6,1,1926.9000000953674,406901.89999997616,7120,VNB,B,5
6,test,5,1.0,1-Back,1,z,Fri Apr 11 2025 13:23:20 GMT-0500 (Central Daylight Time),410894.39999997616,005_o_f_n_a.png,O,z,1021,7,1,2044.5999999046326,408849.8000000715,7120,VNB,B,6
7,test,5,0.0,1-Back,1,m,Fri Apr 11 2025 13:23:20 GMT-0500 (Central Daylight Time),413660.3000000715,011_m_f_d_a.png,O,m,1698,8,1,2734.100000023842,410926.2000000477,7120,VNB,B,7
8,test,5,0.0,1-Back,1,m,Fri Apr 11 2025 13:23:20 GMT-0500 (Central Daylight Time),415792.89999997616,016_y_m_h_a.png,O,m,1085,9,1,2104.0,413688.89999997616,7120,VNB,B,8
9,test,5,0.0,1-Back,1,m,Fri Apr 11 2025 13:23:20 GMT-0500 (Central Daylight Time),417742.39999997616,020_y_f_d_a.png,O,m,904,10,1,1922.0999999046326,415820.3000000715,7120,VNB,B,9
9,test,5,0.0,1-Back,0,m,Fri Apr 11 2025 13:23:20 GMT-0500 (Central Daylight Time),420158.3000000715,007_m_m_n_a.png,O,z,1373,11,1,2387.100000023842,417771.2000000477,7120,VNB,B,10
10,test,5,1.0,1-Back,1,z,Fri Apr 11 2025 13:23:20 GMT-0500 (Central Daylight Time),422557.8000000715,011_m_f_n_a.png,O,z,1351,12,1,2369.7000000476837,420188.10000002384,7120,VNB,B,11
11,test,5,0.0,1-Back,1,m,Fri Apr 11 2025 13:23:20 GMT-0500 (Central Daylight Time),424440.2000000477,004_o_m_h_a.png,O,m,844,13,1,1857.3999999761581,422582.8000000715,7120,VNB,B,12
12,test,5,0.0,1-Back,1,z,Fri Apr 11 2025 13:23:20 GMT-0500 (Central Daylight Time),426373.10000002384,007_m_m_h_a.png,O,z,897,14,1,1908.6000000238419,424464.5,7120,VNB,B,13
13,test,5,1.0,1-Back,1,m,Fri Apr 11 2025 13:23:20 GMT-0500 (Central Daylight Time),428188.89999997616,005_o_f_d_a.png,O,m,756,15,1,1786.7999999523163,426402.10000002384,7120,VNB,B,14
13,test,5,0.0,1-Back,0,m,Fri Apr 11 2025 13:23:20 GMT-0500 (Central Daylight Time),431037.89999997616,016_y_m_n_a.png,O,z,1805,16,1,2822.899999976158,428215.0,7120,VNB,B,15
14,test,5,0.0,1-Back,1,m,Fri Apr 11 2025 13:23:20 GMT-0500 (Central Daylight Time),433637.0,020_y_f_h_a.png,O,m,1564,17,1,2574.2999999523163,431062.7000000477,7120,VNB,B,16
15,test,5,0.0,1-Back,1,m,Fri Apr 11 2025 13:23:20 GMT-0500 (Central Daylight Time),435569.8000000715,007_m_m_d_a.png,O,m,875,18,1,1900.8000000715256,433669.0,7120,VNB,B,17
0,prac,1,0.0,2-Back,,,Fri Apr 11 2025 13:23:20 GMT-0500 (Central Daylight Time),435569.8000000715,011_m_f_n_a.png,O,space,9080,1,1,1900.8000000715256,433669.0,7120,VNB,B,0
0,prac,1,0.0,2-Back,,,Fri Apr 11 2025 13:23:20 GMT-0500 (Central Daylight Time),435569.8000000715,005_o_f_h_a.png,O,space,9080,2,1,1900.8000000715256,433669.0,7120,VNB,B,0
0,prac,1,0.0,2-Back,0,m,Fri Apr 11 2025 13:23:20 GMT-0500 (Central Daylight Time),556330.6000000238,004_o_m_d_a.png,O,z,1714,3,1,2626.399999976158,553704.2000000477,7120,VNB,B,1
0,prac,1,1.0,2-Back,0,z,Fri Apr 11 2025 13:23:20 GMT-0500 (Central Daylight Time),559312.7000000477,007_m_m_h_a.png,O,None,2010,4,1,2942.100000023842,556370.6000000238,7120,VNB,B,2
0,prac,1,0.0,2-Back,0,m,Fri Apr 11 2025 13:23:20 GMT-0500 (Central Daylight Time),561811.8000000715,020_y_f_n_a.png,O,z,1563,5,1,2463.600000023842,559348.2000000477,7120,VNB,B,3
1,prac,1,1.0,2-Back,1,z,Fri Apr 11 2025 13:23:20 GMT-0500 (Central Daylight Time),564394.6000000238,004_o_m_h_a.png,O,z,1634,6,1,2540.600000023842,561854.0,7120,VNB,B,4
1,prac,1,1.0,2-Back,0,z,Fri Apr 11 2025 13:23:20 GMT-0500 (Central Daylight Time),566393.7000000477,016_y_m_n_a.png,O,m,1006,7,1,1961.7000000476837,564432.0,7120,VNB,B,5
1,prac,1,0.0,2-Back,0,m,Fri Apr 11 2025 13:23:20 GMT-0500 (Central Daylight Time),569359.3000000715,011_m_f_d_a.png,O,None,2004,8,1,2932.9000000953674,566426.3999999762,7120,VNB,B,6
1,prac,1,0.0,2-Back,0,m,Fri Apr 11 2025 13:23:20 GMT-0500 (Central Daylight Time),571641.2000000477,005_o_f_d_a.png,O,z,1317,9,1,2248.100000023842,569393.1000000238,7120,VNB,B,7
1,prac,1,0.0,2-Back,0,m,Fri Apr 11 2025 13:23:20 GMT-0500 (Central Daylight Time),574257.5,007_m_m_h_a.png,O,z,1680,10,1,2608.100000023842,571649.3999999762,7120,VNB,B,8
2,prac,1,1.0,2-Back,1,z,Fri Apr 11 2025 13:23:20 GMT-0500 (Central Daylight Time),576690.5,020_y_f_d_a.png,O,z,1480,11,1,2401.6999999284744,574288.8000000715,7120,VNB,B,9
2,prac,1,0.0,2-Back,0,m,Fri Apr 11 2025 13:23:20 GMT-0500 (Central Daylight Time),579622.6000000238,004_o_m_n_a.png,O,None,2008,12,1,2905.0,576717.6000000238,7120,VNB,B,10
0,prac,2,0.0,2-Back,,,Fri Apr 11 2025 13:23:20 GMT-0500 (Central Daylight Time),579622.6000000238,011_m_f_n_a.png,O,a,4957,1,1,2905.0,576717.6000000238,7120,VNB,B,0
0,prac,2,0.0,2-Back,,,Fri Apr 11 2025 13:23:20 GMT-0500 (Central Daylight Time),579622.6000000238,005_o_f_h_a.png,O,a,4957,2,1,2905.0,576717.6000000238,7120,VNB,B,0
1,prac,2,0.0,2-Back,1,m,Fri Apr 11 2025 13:23:20 GMT-0500 (Central Daylight Time),592235.5,004_o_m_d_a.png,O,m,1357,3,1,2250.6999999284744,589984.8000000715,7120,VNB,B,1
2,prac,2,1.0,2-Back,1,z,Fri Apr 11 2025 13:23:20 GMT-0500 (Central Daylight Time),594916.8999999762,007_m_m_h_a.png,O,z,1716,4,1,2640.1999999284744,592276.7000000477,7120,VNB,B,2
2,prac,2,0.0,2-Back,0,m,Fri Apr 11 2025 13:23:20 GMT-0500 (Central Daylight Time),597566.7000000477,020_y_f_n_a.png,O,z,1707,5,1,2613.3000000715256,594953.3999999762,7120,VNB,B,3
2,prac,2,1.0,2-Back,0,z,Fri Apr 11 2025 13:23:20 GMT-0500 (Central Daylight Time),600499.2000000477,004_o_m_h_a.png,O,None,2014,6,1,2900.8000000715256,597598.3999999762,7120,VNB,B,4
3,prac,2,1.0,2-Back,1,z,Fri Apr 11 2025 13:23:20 GMT-0500 (Central Daylight Time),602748.6000000238,016_y_m_n_a.png,O,z,1293,7,1,2216.600000023842,600532.0,7120,VNB,B,5
3,prac,2,0.0,2-Back,0,m,Fri Apr 11 2025 13:23:20 GMT-0500 (Central Daylight Time),605247.8000000715,011_m_f_d_a.png,O,z,1546,8,1,2463.5,602784.3000000715,7120,VNB,B,6
3,prac,2,0.0,2-Back,0,m,Fri Apr 11 2025 13:23:20 GMT-0500 (Central Daylight Time),608213.2000000477,005_o_f_d_a.png,O,None,2017,9,1,2926.899999976158,605286.3000000715,7120,VNB,B,7
4,prac,2,0.0,2-Back,1,m,Fri Apr 11 2025 13:23:20 GMT-0500 (Central Daylight Time),611029.1000000238,007_m_m_h_a.png,O,m,1859,10,1,2781.7999999523163,608247.3000000715,7120,VNB,B,8
5,prac,2,1.0,2-Back,1,z,Fri Apr 11 2025 13:23:20 GMT-0500 (Central Daylight Time),613511.6000000238,020_y_f_d_a.png,O,z,1531,11,1,2446.5,611065.1000000238,7120,VNB,B,9
6,prac,2,0.0,2-Back,1,m,Fri Apr 11 2025 13:23:20 GMT-0500 (Central Daylight Time),615860.7000000477,004_o_m_n_a.png,O,m,1419,12,1,2309.3000000715256,613551.3999999762,7120,VNB,B,10
0,test,1,0.0,2-Back,,,Fri Apr 11 2025 13:23:20 GMT-0500 (Central Daylight Time),615860.7000000477,016_y_m_h_a.png,O,space,10501,1,1,2309.3000000715256,613551.3999999762,7120,VNB,B,0
0,test,1,0.0,2-Back,,,Fri Apr 11 2025 13:23:20 GMT-0500 (Central Daylight Time),615860.7000000477,005_o_f_n_a.png,O,space,10501,2,1,2309.3000000715256,613551.3999999762,7120,VNB,B,0
1,test,1,0.0,2-Back,1,z,Fri Apr 11 2025 13:23:20 GMT-0500 (Central Daylight Time),642467.8999999762,004_o_m_h_a.png,O,z,1204,3,1,2229.7999999523163,640238.1000000238,7120,VNB,B,1
1,test,1,0.0,2-Back,0,m,Fri Apr 11 2025 13:23:20 GMT-0500 (Central Daylight Time),644768.0,011_m_f_d_a.png,O,z,1266,4,1,2292.5,642475.5,7120,VNB,B,2
2,test,1,1.0,2-Back,1,m,Fri Apr 11 2025 13:23:20 GMT-0500 (Central Daylight Time),647083.7000000477,016_y_m_n_a.png,O,m,1257,5,1,2286.100000023842,644797.6000000238,7120,VNB,B,3
2,test,1,0.0,2-Back,0,z,Fri Apr 11 2025 13:23:20 GMT-0500 (Central Daylight Time),650049.5,020_y_f_d_a.png,O,m,1918,6,1,2948.899999976158,647100.6000000238,7120,VNB,B,4
2,test,1,0.0,2-Back,0,m,Fri Apr 11 2025 13:23:20 GMT-0500 (Central Daylight Time),652332.0,007_m_m_h_a.png,O,z,1223,7,1,2245.899999976158,650086.1000000238,7120,VNB,B,5
2,test,1,1.0,2-Back,0,m,Fri Apr 11 2025 13:23:20 GMT-0500 (Central Daylight Time),655047.8000000715,020_y_f_n_a.png,O,z,1677,8,1,2686.3000000715256,652361.5,7120,VNB,B,6
2,test,1,0.0,2-Back,0,z,Fri Apr 11 2025 13:23:20 GMT-0500 (Central Daylight Time),656830.3999999762,005_o_f_h_a.png,O,m,745,9,1,1756.7999999523163,655073.6000000238,7120,VNB,B,7
2,test,1,0.0,2-Back,0,m,Fri Apr 11 2025 13:23:20 GMT-0500 (Central Daylight Time),659296.5,004_o_m_d_a.png,O,z,1427,10,1,2447.600000023842,656848.8999999762,7120,VNB,B,8
3,test,1,1.0,2-Back,1,m,Fri Apr 11 2025 13:23:20 GMT-0500 (Central Daylight Time),661995.6000000238,007_m_m_d_a.png,O,m,1640,11,1,2668.0,659327.6000000238,7120,VNB,B,9
3,test,1,0.0,2-Back,0,m,Fri Apr 11 2025 13:23:20 GMT-0500 (Central Daylight Time),664977.8000000715,011_m_f_n_a.png,O,z,1925,12,1,2948.7000000476837,662029.1000000238,7120,VNB,B,10
3,test,1,0.0,2-Back,0,m,Fri Apr 11 2025 13:23:20 GMT-0500 (Central Daylight Time),668027.5,020_y_f_h_a.png,O,None,2015,13,1,3024.2999999523163,665003.2000000477,7120,VNB,B,11
3,test,1,0.0,2-Back,0,z,Fri Apr 11 2025 13:23:20 GMT-0500 (Central Daylight Time),671059.3000000715,007_m_m_n_a.png,O,None,2014,14,1,3017.7000000476837,668041.6000000238,7120,VNB,B,12
3,test,1,0.0,2-Back,0,m,Fri Apr 11 2025 13:23:20 GMT-0500 (Central Daylight Time),673925.1000000238,016_y_m_d_a.png,O,z,1824,15,1,2839.2999999523163,671085.8000000715,7120,VNB,B,13
4,test,1,1.0,2-Back,1,m,Fri Apr 11 2025 13:23:20 GMT-0500 (Central Daylight Time),676907.3000000715,011_m_f_h_a.png,O,m,1916,16,1,2948.3000000715256,673959.0,7120,VNB,B,14
4,test,1,0.0,2-Back,0,z,Fri Apr 11 2025 13:23:20 GMT-0500 (Central Daylight Time),679956.6000000238,005_o_f_d_a.png,O,None,2014,17,1,3019.7999999523163,676936.8000000715,7120,VNB,B,15
5,test,1,0.0,2-Back,1,m,Fri Apr 11 2025 13:23:20 GMT-0500 (Central Daylight Time),682988.6000000238,004_o_m_n_a.png,O,m,1981,18,1,3002.5,679986.1000000238,7120,VNB,B,16
0,test,2,0.0,2-Back,,,Fri Apr 11 2025 13:23:20 GMT-0500 (Central Daylight Time),682988.6000000238,007_m_m_h_a.png,O,space,3420,1,1,3002.5,679986.1000000238,7120,VNB,B,0
0,test,2,0.0,2-Back,,,Fri Apr 11 2025 13:23:20 GMT-0500 (Central Daylight Time),682988.6000000238,020_y_f_n_a.png,O,space,3420,2,1,3002.5,679986.1000000238,7120,VNB,B,0
1,test,2,1.0,2-Back,1,z,Fri Apr 11 2025 13:23:20 GMT-0500 (Central Daylight Time),694351.7000000477,005_o_f_h_a.png,O,z,1503,3,1,2534.0,691817.7000000477,7120,VNB,B,1
1,test,2,0.0,2-Back,0,m,Fri Apr 11 2025 13:23:20 GMT-0500 (Central Daylight Time),696584.2000000477,004_o_m_d_a.png,O,z,1186,4,1,2206.399999976158,694377.8000000715,7120,VNB,B,2
1,test,2,0.0,2-Back,0,m,Fri Apr 11 2025 13:23:20 GMT-0500 (Central Daylight Time),699650.1000000238,011_m_f_d_a.png,O,None,2015,5,1,3038.5,696611.6000000238,7120,VNB,B,3
2,test,2,0.0,2-Back,1,m,Fri Apr 11 2025 13:23:20 GMT-0500 (Central Daylight Time),702415.8999999762,016_y_m_h_a.png,O,m,1716,6,1,2734.5999999046326,699681.3000000715,7120,VNB,B,4
2,test,2,0.0,2-Back,0,m,Fri Apr 11 2025 13:23:20 GMT-0500 (Central Daylight Time),705197.8999999762,005_o_f_n_a.png,O,z,1738,7,1,2752.5,702445.3999999762,7120,VNB,B,5
2,test,2,1.0,2-Back,0,z,Fri Apr 11 2025 13:23:20 GMT-0500 (Central Daylight Time),707047.7000000477,004_o_m_h_a.png,O,m,811,8,1,1820.2000000476837,705227.5,7120,VNB,B,6
2,test,2,0.0,2-Back,0,m,Fri Apr 11 2025 13:23:20 GMT-0500 (Central Daylight Time),709896.6000000238,020_y_f_d_a.png,O,z,1810,9,1,2825.0,707071.6000000238,7120,VNB,B,7
3,test,2,0.0,2-Back,1,m,Fri Apr 11 2025 13:23:20 GMT-0500 (Central Daylight Time),712445.7000000477,016_y_m_d_a.png,O,m,1488,10,1,2517.899999976158,709927.8000000715,7120,VNB,B,8
3,test,2,0.0,2-Back,0,m,Fri Apr 11 2025 13:23:20 GMT-0500 (Central Daylight Time),714978.1000000238,007_m_m_n_a.png,O,z,1475,11,1,2497.0,712481.1000000238,7120,VNB,B,9
4,test,2,0.0,2-Back,1,m,Fri Apr 11 2025 13:23:20 GMT-0500 (Central Daylight Time),717927.2000000477,011_m_f_h_a.png,O,m,1904,12,1,2925.899999976158,715001.3000000715,7120,VNB,B,10
4,test,2,1.0,2-Back,0,z,Fri Apr 11 2025 13:23:20 GMT-0500 (Central Daylight Time),720976.5,004_o_m_n_a.png,O,None,2015,13,1,3023.600000023842,717952.8999999762,7120,VNB,B,11
5,test,2,0.0,2-Back,1,m,Fri Apr 11 2025 13:23:20 GMT-0500 (Central Daylight Time),723608.6000000238,005_o_f_d_a.png,O,m,1577,14,1,2600.7999999523163,721007.8000000715,7120,VNB,B,12
6,test,2,0.0,2-Back,1,m,Fri Apr 11 2025 13:23:20 GMT-0500 (Central Daylight Time),726074.5,020_y_f_h_a.png,O,m,1400,15,1,2427.6999999284744,723646.8000000715,7120,VNB,B,13
7,test,2,0.0,2-Back,1,z,Fri Apr 11 2025 13:23:20 GMT-0500 (Central Daylight Time),728173.0,007_m_m_d_a.png,O,z,1038,16,1,2067.7999999523163,726105.2000000477,7120,VNB,B,14
7,test,2,0.0,2-Back,0,m,Fri Apr 11 2025 13:23:20 GMT-0500 (Central Daylight Time),730872.8000000715,016_y_m_n_a.png,O,z,1676,17,1,2691.7000000476837,728181.1000000238,7120,VNB,B,15
8,test,2,1.0,2-Back,1,m,Fri Apr 11 2025 13:23:20 GMT-0500 (Central Daylight Time),733438.8000000715,011_m_f_n_a.png,O,m,1528,18,1,2535.7000000476837,730903.1000000238,7120,VNB,B,16
0,test,3,1.0,2-Back,,,Fri Apr 11 2025 13:23:20 GMT-0500 (Central Daylight Time),733438.8000000715,004_o_m_n_a.png,O,space,2899,1,1,2535.7000000476837,730903.1000000238,7120,VNB,B,0
0,test,3,1.0,2-Back,,,Fri Apr 11 2025 13:23:20 GMT-0500 (Central Daylight Time),733438.8000000715,005_o_f_d_a.png,O,space,2899,2,1,2535.7000000476837,730903.1000000238,7120,VNB,B,0
1,test,3,0.0,2-Back,1,m,Fri Apr 11 2025 13:23:20 GMT-0500 (Central Daylight Time),743951.1000000238,020_y_f_h_a.png,O,m,1193,3,1,2211.5,741739.6000000238,7120,VNB,B,1
1,test,3,0.0,2-Back,0,z,Fri Apr 11 2025 13:23:20 GMT-0500 (Central Daylight Time),746985.0,011_m_f_d_a.png,O,None,2014,4,1,3027.399999976158,743957.6000000238,7120,VNB,B,2
2,test,3,1.0,2-Back,1,m,Fri Apr 11 2025 13:23:20 GMT-0500 (Central Daylight Time),749666.2000000477,016_y_m_n_a.png,O,m,1617,5,1,2648.2000000476837,747018.0,7120,VNB,B,3
2,test,3,0.0,2-Back,0,m,Fri Apr 11 2025 13:23:20 GMT-0500 (Central Daylight Time),752699.3000000715,004_o_m_h_a.png,O,None,2015,6,1,3021.3000000715256,749678.0,7120,VNB,B,4
2,test,3,0.0,2-Back,0,z,Fri Apr 11 2025 13:23:20 GMT-0500 (Central Daylight Time),754065.0,020_y_f_n_a.png,O,m,326,7,1,1340.6999999284744,752724.3000000715,7120,VNB,B,5
2,test,3,1.0,2-Back,0,m,Fri Apr 11 2025 13:23:20 GMT-0500 (Central Daylight Time),756697.7000000477,007_m_m_d_a.png,O,z,1584,8,1,2602.7000000476837,754095.0,7120,VNB,B,6
2,test,3,0.0,2-Back,0,m,Fri Apr 11 2025 13:23:20 GMT-0500 (Central Daylight Time),758913.6000000238,016_y_m_d_a.png,O,z,1176,9,1,2196.2000000476837,756717.3999999762,7120,VNB,B,7
3,test,3,0.0,2-Back,1,m,Fri Apr 11 2025 13:23:20 GMT-0500 (Central Daylight Time),761328.8000000715,005_o_f_h_a.png,O,m,1367,10,1,2383.4000000953674,758945.3999999762,7120,VNB,B,8
3,test,3,1.0,2-Back,0,m,Fri Apr 11 2025 13:23:20 GMT-0500 (Central Daylight Time),764278.5,011_m_f_n_a.png,O,z,1929,11,1,2945.0,761333.5,7120,VNB,B,9
4,test,3,1.0,2-Back,1,z,Fri Apr 11 2025 13:23:20 GMT-0500 (Central Daylight Time),767011.1000000238,007_m_m_h_a.png,O,z,1691,12,1,2709.0,764302.1000000238,7120,VNB,B,10
5,test,3,0.0,2-Back,1,m,Fri Apr 11 2025 13:23:20 GMT-0500 (Central Daylight Time),769359.7000000477,020_y_f_d_a.png,O,m,1309,13,1,2324.3000000715256,767035.3999999762,7120,VNB,B,11
5,test,3,0.0,2-Back,0,m,Fri Apr 11 2025 13:23:20 GMT-0500 (Central Daylight Time),771742.8999999762,005_o_f_n_a.png,O,z,1362,14,1,2378.6999999284744,769364.2000000477,7120,VNB,B,12
5,test,3,0.0,2-Back,0,z,Fri Apr 11 2025 13:23:20 GMT-0500 (Central Daylight Time),774408.7000000477,004_o_m_d_a.png,O,m,1627,15,1,2637.2000000476837,771771.5,7120,VNB,B,13
6,test,3,1.0,2-Back,1,m,Fri Apr 11 2025 13:23:20 GMT-0500 (Central Daylight Time),777124.5,011_m_f_h_a.png,O,m,1665,16,1,2686.7999999523163,774437.7000000477,7120,VNB,B,14
6,test,3,0.0,2-Back,0,m,Fri Apr 11 2025 13:23:20 GMT-0500 (Central Daylight Time),779423.5,007_m_m_n_a.png,O,z,1244,17,1,2263.899999976158,777159.6000000238,7120,VNB,B,15
7,test,3,0.0,2-Back,1,z,Fri Apr 11 2025 13:23:20 GMT-0500 (Central Daylight Time),781622.3000000715,016_y_m_h_a.png,O,z,1163,18,1,2169.7000000476837,779452.6000000238,7120,VNB,B,16
0,test,4,0.0,2-Back,,,Fri Apr 11 2025 13:23:20 GMT-0500 (Central Daylight Time),781622.3000000715,011_m_f_n_a.png,O,space,2356,1,1,2169.7000000476837,779452.6000000238,7120,VNB,B,0
0,test,4,0.0,2-Back,,,Fri Apr 11 2025 13:23:20 GMT-0500 (Central Daylight Time),781622.3000000715,004_o_m_n_a.png,O,space,2356,2,1,2169.7000000476837,779452.6000000238,7120,VNB,B,0
1,test,4,1.0,2-Back,1,m,Fri Apr 11 2025 13:23:20 GMT-0500 (Central Daylight Time),790902.6000000238,016_y_m_h_a.png,O,m,588,3,1,1609.7999999523163,789292.8000000715,7120,VNB,B,1
1,test,4,1.0,2-Back,0,m,Fri Apr 11 2025 13:23:20 GMT-0500 (Central Daylight Time),792851.8000000715,005_o_f_d_a.png,O,z,932,4,1,1944.7000000476837,790907.1000000238,7120,VNB,B,2
1,test,4,0.0,2-Back,0,z,Fri Apr 11 2025 13:23:20 GMT-0500 (Central Daylight Time),795886.2000000477,004_o_m_h_a.png,O,None,2016,5,1,3024.600000023842,792861.6000000238,7120,VNB,B,3
2,test,4,0.0,2-Back,1,m,Fri Apr 11 2025 13:23:20 GMT-0500 (Central Daylight Time),798067.2000000477,007_m_m_n_a.png,O,m,1123,6,1,2141.399999976158,795925.8000000715,7120,VNB,B,4
2,test,4,0.0,2-Back,0,m,Fri Apr 11 2025 13:23:20 GMT-0500 (Central Daylight Time),800649.5,011_m_f_d_a.png,O,z,1533,7,1,2557.7999999523163,798091.7000000477,7120,VNB,B,5
3,test,4,0.0,2-Back,1,z,Fri Apr 11 2025 13:23:20 GMT-0500 (Central Daylight Time),802965.6000000238,020_y_f_n_a.png,O,z,1288,8,1,2308.2000000476837,800657.3999999762,7120,VNB,B,6
4,test,4,1.0,2-Back,1,m,Fri Apr 11 2025 13:23:20 GMT-0500 (Central Daylight Time),805048.7000000477,005_o_f_h_a.png,O,m,1035,9,1,2053.100000023842,802995.6000000238,7120,VNB,B,7
5,test,4,0.0,2-Back,1,m,Fri Apr 11 2025 13:23:20 GMT-0500 (Central Daylight Time),807497.8999999762,007_m_m_h_a.png,O,m,1401,10,1,2422.7999999523163,805075.1000000238,7120,VNB,B,8
6,test,4,0.0,2-Back,1,m,Fri Apr 11 2025 13:23:20 GMT-0500 (Central Daylight Time),809863.6000000238,020_y_f_d_a.png,O,m,1319,11,1,2334.600000023842,807529.0,7120,VNB,B,9
6,test,4,0.0,2-Back,0,m,Fri Apr 11 2025 13:23:20 GMT-0500 (Central Daylight Time),812079.6000000238,016_y_m_n_a.png,O,z,1151,12,1,2179.0,809900.6000000238,7120,VNB,B,10
7,test,4,0.0,2-Back,1,z,Fri Apr 11 2025 13:23:20 GMT-0500 (Central Daylight Time),814445.8000000715,004_o_m_d_a.png,O,z,1322,13,1,2344.7000000476837,812101.1000000238,7120,VNB,B,11
8,test,4,1.0,2-Back,1,m,Fri Apr 11 2025 13:23:20 GMT-0500 (Central Daylight Time),816728.0,011_m_f_h_a.png,O,m,1244,14,1,2252.100000023842,814475.8999999762,7120,VNB,B,12
8,test,4,1.0,2-Back,0,m,Fri Apr 11 2025 13:23:20 GMT-0500 (Central Daylight Time),818944.0,020_y_f_h_a.png,O,z,1161,15,1,2180.5,816763.5,7120,VNB,B,13
9,test,4,0.0,2-Back,1,m,Fri Apr 11 2025 13:23:20 GMT-0500 (Central Daylight Time),821559.8999999762,005_o_f_n_a.png,O,m,1577,16,1,2586.7999999523163,818973.1000000238,7120,VNB,B,14
9,test,4,0.0,2-Back,0,m,Fri Apr 11 2025 13:23:20 GMT-0500 (Central Daylight Time),824209.0,016_y_m_d_a.png,O,z,1585,17,1,2614.100000023842,821594.8999999762,7120,VNB,B,15
9,test,4,1.0,2-Back,0,m,Fri Apr 11 2025 13:23:20 GMT-0500 (Central Daylight Time),826691.5,007_m_m_d_a.png,O,z,1432,18,1,2452.1999999284744,824239.3000000715,7120,VNB,B,16
0,test,5,1.0,2-Back,,,Fri Apr 11 2025 13:23:20 GMT-0500 (Central Daylight Time),826691.5,020_y_f_d_a.png,O,space,2290,1,1,2452.1999999284744,824239.3000000715,7120,VNB,B,0
0,test,5,1.0,2-Back,,,Fri Apr 11 2025 13:23:20 GMT-0500 (Central Daylight Time),826691.5,005_o_f_h_a.png,O,space,2290,2,1,2452.1999999284744,824239.3000000715,7120,VNB,B,0
1,test,5,1.0,2-Back,1,z,Fri Apr 11 2025 13:23:20 GMT-0500 (Central Daylight Time),836504.8999999762,004_o_m_d_a.png,O,z,1110,3,1,2125.0,834379.8999999762,7120,VNB,B,1
2,test,5,1.0,2-Back,1,m,Fri Apr 11 2025 13:23:20 GMT-0500 (Central Daylight Time),839453.3000000715,011_m_f_n_a.png,O,m,1887,4,1,2916.3000000715256,836537.0,7120,VNB,B,2
3,test,5,0.0,2-Back,1,m,Fri Apr 11 2025 13:23:20 GMT-0500 (Central Daylight Time),842153.0,007_m_m_h_a.png,O,m,1676,5,1,2685.5,839467.5,7120,VNB,B,3
4,test,5,0.0,2-Back,1,z,Fri Apr 11 2025 13:23:20 GMT-0500 (Central Daylight Time),844285.8000000715,020_y_f_n_a.png,O,z,1079,6,1,2096.2000000476837,842189.6000000238,7120,VNB,B,4
4,test,5,0.0,2-Back,0,m,Fri Apr 11 2025 13:23:20 GMT-0500 (Central Daylight Time),847100.8999999762,005_o_f_d_a.png,O,z,1772,7,1,2787.399999976158,844313.5,7120,VNB,B,5
4,test,5,0.0,2-Back,0,m,Fri Apr 11 2025 13:23:20 GMT-0500 (Central Daylight Time),850134.1000000238,004_o_m_h_a.png,O,None,2016,8,1,3023.600000023842,847110.5,7120,VNB,B,6
5,test,5,1.0,2-Back,1,z,Fri Apr 11 2025 13:23:20 GMT-0500 (Central Daylight Time),852715.8000000715,011_m_f_d_a.png,O,z,1548,9,1,2555.4000000953674,850160.3999999762,7120,VNB,B,7
5,test,5,0.0,2-Back,0,m,Fri Apr 11 2025 13:23:20 GMT-0500 (Central Daylight Time),855098.5,016_y_m_n_a.png,O,z,1340,10,1,2358.7999999523163,852739.7000000477,7120,VNB,B,8
5,test,5,0.0,2-Back,0,m,Fri Apr 11 2025 13:23:20 GMT-0500 (Central Daylight Time),858147.5,007_m_m_n_a.png,O,None,2014,11,1,3030.6999999284744,855116.8000000715,7120,VNB,B,9
6,test,5,0.0,2-Back,1,m,Fri Apr 11 2025 13:23:20 GMT-0500 (Central Daylight Time),860147.2000000477,020_y_f_h_a.png,O,m,951,12,1,1983.3000000715256,858163.8999999762,7120,VNB,B,10
6,test,5,0.0,2-Back,0,m,Fri Apr 11 2025 13:23:20 GMT-0500 (Central Daylight Time),863196.3999999762,016_y_m_d_a.png,O,None,2011,13,1,3020.0,860176.3999999762,7120,VNB,B,11
7,test,5,1.0,2-Back,1,z,Fri Apr 11 2025 13:23:20 GMT-0500 (Central Daylight Time),864995.6000000238,011_m_f_h_a.png,O,z,749,14,1,1769.6000000238419,863226.0,7120,VNB,B,12
8,test,5,0.0,2-Back,1,m,Fri Apr 11 2025 13:23:20 GMT-0500 (Central Daylight Time),867845.3000000715,004_o_m_n_a.png,O,m,1798,15,1,2817.9000000953674,865027.3999999762,7120,VNB,B,13
9,test,5,0.0,2-Back,1,m,Fri Apr 11 2025 13:23:20 GMT-0500 (Central Daylight Time),870661.1000000238,007_m_m_d_a.png,O,m,1765,16,1,2781.600000023842,867879.5,7120,VNB,B,14
10,test,5,0.0,2-Back,1,z,Fri Apr 11 2025 13:23:20 GMT-0500 (Central Daylight Time),872743.1000000238,005_o_f_n_a.png,O,z,1037,17,1,2059.0,870684.1000000238,7120,VNB,B,15
11,test,5,1.0,2-Back,1,m,Fri Apr 11 2025 13:23:20 GMT-0500 (Central Daylight Time),875175.6000000238,016_y_m_h_a.png,O,m,1370,18,1,2397.600000023842,872778.0,7120,VNB,B,16
