acc_sum,block_c,block_dur,condition,correct,correct_response,countdown,datetime,endtime,project,response,response_time,response_time_test1_response,response_time_test2_response,row_sel,same,session_number,start_end,starttime,stim1,stim2,subject_id,task,task_vers,time_test1,time_test2,trial
1,1,0.0,prac,1,m,30000.0,Thu Apr 03 2025 19:53:50 GMT-0500 (Central Daylight Time),31962.59999999404,I,m,1168,,,1,no,1,2690.7999999970198,29271.79999999702,RNV,FNV,8037,LC,B,,,1
2,1,0.0,prac,1,m,30000.0,Thu Apr 03 2025 19:53:50 GMT-0500 (Central Daylight Time),35132.70000000298,I,m,1642,,,3,no,1,3165.2000000029802,31967.5,QHZXPC,QHZWPC,8037,LC,B,,,2
3,1,0.0,prac,1,z,30000.0,Thu Apr 03 2025 19:53:50 GMT-0500 (Central Daylight Time),38648.29999999702,I,z,1991,,,6,yes,1,3511.3999999910593,35136.90000000596,CSDBFPHXZ,CSDBFPHXZ,8037,LC,B,,,3
4,1,0.0,prac,1,m,30000.0,Thu Apr 03 2025 19:53:50 GMT-0500 (Central Daylight Time),41464.09999999404,I,m,1290,,,5,no,1,2810.0,38654.09999999404,LNDPRSKQB,LNDPRSJQB,8037,LC,B,,,4
5,1,0.0,prac,1,z,30000.0,Thu Apr 03 2025 19:53:50 GMT-0500 (Central Daylight Time),43930.09999999404,I,z,932,,,4,yes,1,2462.0,41468.09999999404,RSM,RSM,8037,LC,B,,,5
6,1,0.0,prac,1,z,30000.0,Thu Apr 03 2025 19:53:50 GMT-0500 (Central Daylight Time),46962.40000000596,I,z,1507,,,2,yes,1,3028.0,43934.40000000596,NBGFSM,NBGFSM,8037,LC,B,,,6
1,1,1.1990001201629639,test,1,m,28800.999879837036,Thu Apr 03 2025 19:53:50 GMT-0500 (Central Daylight Time),56509.40000000596,I,m,1192,1192,,1,no,1,1197.0,55312.40000000596,HCF,RCF,8037,LC,B,52910,,1
1,1,3.131999969482422,test,0,m,26868.000030517578,Thu Apr 03 2025 19:53:50 GMT-0500 (Central Daylight Time),58442.20000000298,I,z,1927,1927,,2,no,1,1929.2999999970198,56512.90000000596,QTPRJX,QTPNJX,8037,LC,B,54111,,2
1,1,5.148000001907349,test,0,m,24851.99999809265,Thu Apr 03 2025 19:53:50 GMT-0500 (Central Daylight Time),60458.29999999702,I,z,1996,1996,,3,no,1,2013.0,58445.29999999702,MZDYGVGKQ,MZDYGLBKQ,8037,LC,B,56043,,3
1,1,6.648000001907349,test,0,m,23351.99999809265,Thu Apr 03 2025 19:53:50 GMT-0500 (Central Daylight Time),61957.59999999404,I,z,1491,1491,,4,no,1,1496.0,60461.59999999404,FQTNMK,JQTNMK,8037,LC,B,58060,,4
2,1,7.614000082015991,test,1,z,22385.99991798401,Thu Apr 03 2025 19:53:50 GMT-0500 (Central Daylight Time),62923.90000000596,I,z,953,953,,5,yes,1,962.9000000059605,61961.0,CLJ,CLJ,8037,LC,B,59558,,5
2,1,9.698000192642212,test,0,m,20301.999807357788,Thu Apr 03 2025 19:53:50 GMT-0500 (Central Daylight Time),65007.90000000596,I,z,2066,2066,,6,no,1,2080.9000000059605,62927.0,JGDMNSVPW,JGZMNSVPW,8037,LC,B,60525,,6
3,1,11.279000043869019,test,1,z,18720.99995613098,Thu Apr 03 2025 19:53:50 GMT-0500 (Central Daylight Time),66589.59999999404,I,z,1566,1566,,7,yes,1,1578.199999988079,65011.40000000596,FPTVHKCBJ,FPTVHKCBJ,8037,LC,B,62609,,7
4,1,12.396000146865845,test,1,m,17603.999853134155,Thu Apr 03 2025 19:53:50 GMT-0500 (Central Daylight Time),67706.09999999404,I,m,1112,1112,,8,no,1,1113.2999999970198,66592.79999999702,XRPZBS,ZRPBDH,8037,LC,B,64191,,8
5,1,13.412000179290771,test,1,m,16587.99982070923,Thu Apr 03 2025 19:53:50 GMT-0500 (Central Daylight Time),68722.09999999404,I,m,1013,1013,,9,no,1,1013.0999999940395,67709.0,ZSQ,ZSP,8037,LC,B,65306,,9
6,1,14.978000164031982,test,1,z,15021.999835968018,Thu Apr 03 2025 19:53:50 GMT-0500 (Central Daylight Time),70288.40000000596,I,z,1556,1556,,10,yes,1,1562.800000011921,68725.59999999404,MPZRXL,MPZRXL,8037,LC,B,66323,,10
7,1,15.995000123977661,test,1,m,14004.999876022339,Thu Apr 03 2025 19:53:50 GMT-0500 (Central Daylight Time),71304.79999999702,I,m,1006,1006,,11,no,1,1013.0,70291.79999999702,KJH,KRH,8037,LC,B,67889,,11
8,1,17.89400005340576,test,1,z,12105.999946594238,Thu Apr 03 2025 19:53:50 GMT-0500 (Central Daylight Time),73204.20000000298,I,z,1894,1894,,12,yes,1,1896.4000000059605,71307.79999999702,SMNHVTFCB,SMNHVTFCB,8037,LC,B,68905,,12
9,1,19.39400005340576,test,1,z,10605.999946594238,Thu Apr 03 2025 19:53:50 GMT-0500 (Central Daylight Time),74703.79999999702,I,z,1490,1490,,13,yes,1,1496.5999999940395,73207.20000000298,KJWTQF,KJWTQF,8037,LC,B,70805,,13
10,1,21.22699999809265,test,1,z,8773.000001907349,Thu Apr 03 2025 19:53:50 GMT-0500 (Central Daylight Time),76537.5,I,z,1814,1814,,14,yes,1,1830.7999999970198,74706.70000000298,CHDKQGLMB,CHDKQGLMB,8037,LC,B,72304,,14
11,1,22.193000078201294,test,1,z,7806.999921798706,Thu Apr 03 2025 19:53:50 GMT-0500 (Central Daylight Time),77502.59999999404,I,z,956,956,,15,yes,1,961.6999999880791,76540.90000000596,GHQ,GHQ,8037,LC,B,74138,,15
12,1,23.37600016593933,test,1,z,6623.999834060669,Thu Apr 03 2025 19:53:50 GMT-0500 (Central Daylight Time),78685.90000000596,I,z,1167,1167,,16,yes,1,1180.1000000089407,77505.79999999702,GFVMRH,GFVMRH,8037,LC,B,75103,,16
13,1,24.225000143051147,test,1,z,5774.9998569488525,Thu Apr 03 2025 19:53:50 GMT-0500 (Central Daylight Time),79535.29999999702,I,z,832,832,,17,yes,1,845.8999999910593,78689.40000000596,RSM,RSM,8037,LC,B,76287,,17
13,1,26.407999992370605,test,0,m,3592.0000076293945,Thu Apr 03 2025 19:53:50 GMT-0500 (Central Daylight Time),81718.20000000298,I,z,2174,2174,,18,no,1,2179.2000000029802,79539.0,BSRJTRMLG,BSFJTRMLG,8037,LC,B,77137,,18
14,1,28.641000032424927,test,1,z,1358.9999675750732,Thu Apr 03 2025 19:53:50 GMT-0500 (Central Daylight Time),83950.70000000298,I,z,2224,2224,,19,yes,1,2229.2999999970198,81721.40000000596,NBGFSM,NBGFSM,8037,LC,B,79319,,19
14,1,30.006999969482422,test,0,z,-6.999969482421875,Thu Apr 03 2025 19:53:50 GMT-0500 (Central Daylight Time),85316.90000000596,I,None,1363,1363,,20,yes,1,1363.1000000089407,83953.79999999702,JQKBPLXGY,JQKBPLXGY,8037,LC,B,81551,,20
1,2,1.4160001277923584,test,1,z,28583.99987220764,Thu Apr 03 2025 19:53:50 GMT-0500 (Central Daylight Time),90765.29999999702,I,z,1401,,1401.0,1,yes,1,6811.5,83953.79999999702,PRDBZTYFN,PRDBZTYFN,8037,LC,B,,86949.0,1
1,2,2.565999984741211,test,0,m,27434.00001525879,Thu Apr 03 2025 19:53:50 GMT-0500 (Central Daylight Time),91914.70000000298,I,z,1145,,1145.0,2,no,1,7960.9000000059605,83953.79999999702,NCWJDZ,NCMJDZ,8037,LC,B,,88366.0,2
2,2,3.3989999294281006,test,1,m,26601.0000705719,Thu Apr 03 2025 19:53:50 GMT-0500 (Central Daylight Time),92747.90000000596,I,m,827,,827.0,3,no,1,8794.10000000894,83953.79999999702,KHW,KBW,8037,LC,B,,89515.0,3
3,2,4.648000001907349,test,1,m,25351.99999809265,Thu Apr 03 2025 19:53:50 GMT-0500 (Central Daylight Time),93997.70000000298,I,m,1241,,1241.0,4,no,1,10043.90000000596,83953.79999999702,ZRBGMF,ZRBCMF,8037,LC,B,,90349.0,4
4,2,5.8480000495910645,test,1,m,24151.999950408936,Thu Apr 03 2025 19:53:50 GMT-0500 (Central Daylight Time),95197.20000000298,I,m,1185,,1185.0,5,no,1,11243.40000000596,83953.79999999702,BTH,BYH,8037,LC,B,,91598.0,5
5,2,7.365000009536743,test,1,z,22634.999990463257,Thu Apr 03 2025 19:53:50 GMT-0500 (Central Daylight Time),96713.59999999404,I,z,1496,,1496.0,6,yes,1,12759.79999999702,83953.79999999702,XWKQRYCNZ,XWKQRYCNZ,8037,LC,B,,92798.0,6
6,2,8.44700002670288,test,1,z,21552.99997329712,Thu Apr 03 2025 19:53:50 GMT-0500 (Central Daylight Time),97796.40000000596,I,z,1069,,1069.0,7,yes,1,13842.60000000894,83953.79999999702,HNPDLK,HNPDLK,8037,LC,B,,94314.0,7
6,2,9.77999997138977,test,0,m,20220.00002861023,Thu Apr 03 2025 19:53:50 GMT-0500 (Central Daylight Time),99129.5,I,z,1313,,1313.0,8,no,1,15175.70000000298,83953.79999999702,WMQTRSGLZ,WMQTRZGLZ,8037,LC,B,,95397.0,8
6,2,11.147000074386597,test,0,z,18852.999925613403,Thu Apr 03 2025 19:53:50 GMT-0500 (Central Daylight Time),100495.70000000298,I,m,1356,,1356.0,9,yes,1,16541.90000000596,83953.79999999702,JPN,JPN,8037,LC,B,,96730.0,9
7,2,12.513000011444092,test,1,m,17486.99998855591,Thu Apr 03 2025 19:53:50 GMT-0500 (Central Daylight Time),101861.79999999702,I,m,1351,,1351.0,10,no,1,17908.0,83953.79999999702,QLXSVT,QLNSVT,8037,LC,B,,98096.0,10
8,2,14.045000076293945,test,1,z,15954.999923706055,Thu Apr 03 2025 19:53:50 GMT-0500 (Central Daylight Time),103394.5,I,z,1520,,1520.0,11,yes,1,19440.70000000298,83953.79999999702,YXHKZVFPB,YXHKZVFPD,8037,LC,B,,99462.0,11
9,2,15.01200008392334,test,1,z,14987.99991607666,Thu Apr 03 2025 19:53:50 GMT-0500 (Central Daylight Time),104360.90000000596,I,z,947,,947.0,12,yes,1,20407.10000000894,83953.79999999702,RJZ,RJZ,8037,LC,B,,100995.0,12
10,2,15.944999933242798,test,1,z,14055.000066757202,Thu Apr 03 2025 19:53:50 GMT-0500 (Central Daylight Time),105294.09999999404,I,z,925,,925.0,13,yes,1,21340.29999999702,83953.79999999702,CLNPZD,CLNPZD,8037,LC,B,,101962.0,13
11,2,17.011000156402588,test,1,m,12988.999843597412,Thu Apr 03 2025 19:53:50 GMT-0500 (Central Daylight Time),106360.40000000596,I,m,1056,,1056.0,14,no,1,22406.60000000894,83953.79999999702,DCBPFHXYJ,DCBPFHLYJ,8037,LC,B,,102895.0,14
11,2,18.011000156402588,test,0,m,11988.999843597412,Thu Apr 03 2025 19:53:50 GMT-0500 (Central Daylight Time),107359.79999999702,I,z,989,,989.0,15,no,1,23406.0,83953.79999999702,MWR,ZWR,8037,LC,B,,103961.0,15
12,2,19.927000045776367,test,1,z,10072.999954223633,Thu Apr 03 2025 19:53:50 GMT-0500 (Central Daylight Time),109276.09999999404,I,z,1910,,1910.0,16,yes,1,25322.29999999702,83953.79999999702,LPKXZW,LPKXZW,8037,LC,B,,104960.0,16
13,2,20.960000038146973,test,1,m,9039.999961853027,Thu Apr 03 2025 19:53:50 GMT-0500 (Central Daylight Time),110308.79999999702,I,m,1026,,1026.0,17,no,1,26355.0,83953.79999999702,TZL,TZQ,8037,LC,B,,106876.0,17
14,2,22.575999975204468,test,1,z,7424.000024795532,Thu Apr 03 2025 19:53:50 GMT-0500 (Central Daylight Time),111925.40000000596,I,z,1602,,1602.0,18,yes,1,27971.60000000894,83953.79999999702,CSDBFPHXZ,CSDBFPHXZ,8037,LC,B,,107909.0,18
15,2,24.108999967575073,test,1,m,5891.000032424927,Thu Apr 03 2025 19:53:50 GMT-0500 (Central Daylight Time),113458.09999999404,I,m,1513,,1513.0,19,no,1,29504.29999999702,83953.79999999702,QHZXPC,QHZWPC,8037,LC,B,,109526.0,19
16,2,25.375,test,1,z,4625.0,Thu Apr 03 2025 19:53:50 GMT-0500 (Central Daylight Time),114724.40000000596,I,z,1261,,1261.0,20,yes,1,30770.60000000894,83953.79999999702,GZN,GZN,8037,LC,B,,111058.0,20
17,2,26.924999952316284,test,1,m,3075.000047683716,Thu Apr 03 2025 19:53:50 GMT-0500 (Central Daylight Time),116274.09999999404,I,m,1530,,1530.0,21,no,1,32320.29999999702,83953.79999999702,JNWXHPFBD,JNWXHPFMD,8037,LC,B,,112325.0,21
