acc_sum,block,block_c,change,condition,correct,correct_response,datetime,endtime,face,project,response,response_time,row_sel,session_number,start_end,starttime,subject_id,task,task_vers,trial
0,prac,1,,1-Back,,,Fri Sep 20 2024 14:22:37 GMT-0500 (Central Daylight Time),,124_o_f_d_a.png,I,space,16544,1,1,,,8001,VNB,A,0
1,prac,1,0.0,1-Back,1,m,Fri Sep 20 2024 14:22:37 GMT-0500 (Central Daylight Time),150657.89999997616,071_y_f_n_a.png,I,m,780,2,1,1573.699999988079,149084.19999998808,8001,VNB,A,1
2,prac,1,0.0,1-Back,1,m,Fri Sep 20 2024 14:22:37 GMT-0500 (Central Daylight Time),153158.19999998808,165_m_m_h_a.png,I,m,1686,3,1,2492.0999999940395,150666.09999999404,8001,VNB,A,2
3,prac,1,0.0,1-Back,1,m,Fri Sep 20 2024 14:22:37 GMT-0500 (Central Daylight Time),155039.79999998212,109_y_m_d_a.png,I,m,1070,4,1,1873.699999988079,153166.09999999404,8001,VNB,A,3
4,prac,1,0.0,1-Back,1,m,Fri Sep 20 2024 14:22:37 GMT-0500 (Central Daylight Time),156855.89999997616,124_o_f_n_a.png,I,m,971,5,1,1808.2999999821186,155047.59999999404,8001,VNB,A,4
5,prac,1,1.0,1-Back,1,z,Fri Sep 20 2024 14:22:37 GMT-0500 (Central Daylight Time),158572.0,109_y_m_n_a.png,I,z,898,6,1,1708.1000000238419,156863.89999997616,8001,VNB,A,5
6,prac,1,0.0,1-Back,1,m,Fri Sep 20 2024 14:22:37 GMT-0500 (Central Daylight Time),160321.59999999404,039_o_m_h_a.png,I,m,935,7,1,1742.0,158579.59999999404,8001,VNB,A,6
7,prac,1,0.0,1-Back,1,m,Fri Sep 20 2024 14:22:37 GMT-0500 (Central Daylight Time),162054.19999998808,139_m_f_d_a.png,I,m,918,8,1,1724.0999999940395,160330.09999999404,8001,VNB,A,7
8,prac,1,1.0,1-Back,1,z,Fri Sep 20 2024 14:22:37 GMT-0500 (Central Daylight Time),163770.5,071_y_f_d_a.png,I,z,908,9,1,1708.300000011921,162062.19999998808,8001,VNB,A,8
9,prac,1,0.0,1-Back,1,m,Fri Sep 20 2024 14:22:37 GMT-0500 (Central Daylight Time),165569.59999999404,165_m_m_n_a.png,I,m,991,10,1,1791.800000011921,163777.79999998212,8001,VNB,A,9
10,prac,1,0.0,1-Back,1,m,Fri Sep 20 2024 14:22:37 GMT-0500 (Central Daylight Time),167419.29999998212,124_o_f_h_a.png,I,m,1032,11,1,1842.4000000059605,165576.89999997616,8001,VNB,A,10
11,prac,1,0.0,1-Back,1,m,Fri Sep 20 2024 14:22:37 GMT-0500 (Central Daylight Time),169101.89999997616,109_y_m_d_a.png,I,m,895,12,1,1675.0,167426.89999997616,8001,VNB,A,11
0,test,1,0.0,1-Back,,,Fri Sep 20 2024 14:22:37 GMT-0500 (Central Daylight Time),169101.89999997616,071_y_f_d_a.png,I,space,8818,1,1,1675.0,167426.89999997616,8001,VNB,A,0
1,test,1,0.0,1-Back,1,m,Fri Sep 20 2024 14:22:37 GMT-0500 (Central Daylight Time),187996.09999999404,139_m_f_n_a.png,I,m,1297,2,1,2307.9000000059605,185688.19999998808,8001,VNB,A,1
2,test,1,0.0,1-Back,1,m,Fri Sep 20 2024 14:22:37 GMT-0500 (Central Daylight Time),189978.79999998212,039_o_m_h_a.png,I,m,958,3,1,1975.5999999940395,188003.19999998808,8001,VNB,A,2
3,test,1,1.0,1-Back,1,z,Fri Sep 20 2024 14:22:37 GMT-0500 (Central Daylight Time),191861.5,165_m_m_h_a.png,I,z,864,4,1,1876.1000000238419,189985.39999997616,8001,VNB,A,3
4,test,1,0.0,1-Back,1,m,Fri Sep 20 2024 14:22:37 GMT-0500 (Central Daylight Time),193744.29999998212,124_o_f_n_a.png,I,m,856,5,1,1875.5999999940395,191868.69999998808,8001,VNB,A,4
5,test,1,0.0,1-Back,1,m,Fri Sep 20 2024 14:22:37 GMT-0500 (Central Daylight Time),195776.89999997616,109_y_m_d_a.png,I,m,1002,6,1,2026.0999999940395,193750.79999998212,8001,VNB,A,5
6,test,1,1.0,1-Back,1,z,Fri Sep 20 2024 14:22:37 GMT-0500 (Central Daylight Time),197693.0,139_m_f_d_a.png,I,z,896,7,1,1909.4000000059605,195783.59999999404,8001,VNB,A,6
7,test,1,0.0,1-Back,1,m,Fri Sep 20 2024 14:22:37 GMT-0500 (Central Daylight Time),199675.59999999404,071_y_f_h_a.png,I,m,964,8,1,1976.0,197699.59999999404,8001,VNB,A,7
8,test,1,0.0,1-Back,1,m,Fri Sep 20 2024 14:22:37 GMT-0500 (Central Daylight Time),201608.5,039_o_m_n_a.png,I,m,902,9,1,1925.800000011921,199682.69999998808,8001,VNB,A,8
9,test,1,0.0,1-Back,1,m,Fri Sep 20 2024 14:22:37 GMT-0500 (Central Daylight Time),203524.5,109_y_m_h_a.png,I,m,890,10,1,1909.5,201615.0,8001,VNB,A,9
10,test,1,0.0,1-Back,1,m,Fri Sep 20 2024 14:22:37 GMT-0500 (Central Daylight Time),205523.69999998808,039_o_m_d_a.png,I,m,982,11,1,1992.0,203531.69999998808,8001,VNB,A,10
11,test,1,1.0,1-Back,1,z,Fri Sep 20 2024 14:22:37 GMT-0500 (Central Daylight Time),207306.69999998808,124_o_f_d_a.png,I,z,758,12,1,1775.9000000059605,205530.79999998212,8001,VNB,A,11
12,test,1,0.0,1-Back,1,m,Fri Sep 20 2024 14:22:37 GMT-0500 (Central Daylight Time),209256.0,165_m_m_n_a.png,I,m,928,13,1,1942.7000000178814,207313.29999998212,8001,VNB,A,12
13,test,1,1.0,1-Back,1,z,Fri Sep 20 2024 14:22:37 GMT-0500 (Central Daylight Time),211405.59999999404,071_y_f_n_a.png,I,z,1129,14,1,2143.2000000178814,209262.39999997616,8001,VNB,A,13
14,test,1,0.0,1-Back,1,m,Fri Sep 20 2024 14:22:37 GMT-0500 (Central Daylight Time),213171.59999999404,139_m_f_h_a.png,I,m,741,15,1,1759.4000000059605,211412.19999998808,8001,VNB,A,14
15,test,1,0.0,1-Back,1,m,Fri Sep 20 2024 14:22:37 GMT-0500 (Central Daylight Time),215054.19999998808,165_m_m_d_a.png,I,m,862,16,1,1875.800000011921,213178.39999997616,8001,VNB,A,15
16,test,1,0.0,1-Back,1,m,Fri Sep 20 2024 14:22:37 GMT-0500 (Central Daylight Time),217186.89999997616,109_y_m_n_a.png,I,m,1099,17,1,2126.2999999821186,215060.59999999404,8001,VNB,A,16
17,test,1,0.0,1-Back,1,m,Fri Sep 20 2024 14:22:37 GMT-0500 (Central Daylight Time),219169.5,124_o_f_h_a.png,I,m,950,18,1,1975.4000000059605,217194.09999999404,8001,VNB,A,17
0,test,2,0.0,1-Back,,,Fri Sep 20 2024 14:22:37 GMT-0500 (Central Daylight Time),219169.5,109_y_m_n_a.png,I,space,1377,1,1,1975.4000000059605,217194.09999999404,8001,VNB,A,0
1,test,2,0.0,1-Back,1,m,Fri Sep 20 2024 14:22:37 GMT-0500 (Central Daylight Time),224401.29999998212,071_y_f_h_a.png,I,m,809,2,1,1825.699999988079,222575.59999999404,8001,VNB,A,1
2,test,2,1.0,1-Back,1,m,Fri Sep 20 2024 14:22:37 GMT-0500 (Central Daylight Time),226367.39999997616,039_o_m_n_a.png,I,m,945,3,1,1959.3999999761581,224408.0,8001,VNB,A,2
3,test,2,0.0,1-Back,1,m,Fri Sep 20 2024 14:22:37 GMT-0500 (Central Daylight Time),228399.89999997616,139_m_f_d_a.png,I,m,1003,4,1,2024.699999988079,226375.19999998808,8001,VNB,A,3
4,test,2,0.0,1-Back,1,z,Fri Sep 20 2024 14:22:37 GMT-0500 (Central Daylight Time),231082.39999997616,165_m_m_d_a.png,I,z,1665,5,1,2675.399999976158,228407.0,8001,VNB,A,4
5,test,2,0.0,1-Back,1,m,Fri Sep 20 2024 14:22:37 GMT-0500 (Central Daylight Time),232948.59999999404,109_y_m_h_a.png,I,m,839,6,1,1859.7000000178814,231088.89999997616,8001,VNB,A,5
5,test,2,1.0,1-Back,0,z,Fri Sep 20 2024 14:22:37 GMT-0500 (Central Daylight Time),235981.19999998808,124_o_f_h_a.png,I,None,2016,7,1,3026.0999999940395,232955.09999999404,8001,VNB,A,6
6,test,2,0.0,1-Back,1,m,Fri Sep 20 2024 14:22:37 GMT-0500 (Central Daylight Time),237997.09999999404,139_m_f_n_a.png,I,m,988,8,1,2009.0999999940395,235988.0,8001,VNB,A,7
7,test,2,0.0,1-Back,1,m,Fri Sep 20 2024 14:22:37 GMT-0500 (Central Daylight Time),239729.79999998212,071_y_f_d_a.png,I,m,700,9,1,1726.0,238003.79999998212,8001,VNB,A,8
7,test,2,0.0,1-Back,0,m,Fri Sep 20 2024 14:22:37 GMT-0500 (Central Daylight Time),242079.0,165_m_m_n_a.png,I,z,1319,10,1,2341.800000011921,239737.19999998808,8001,VNB,A,9
8,test,2,1.0,1-Back,1,m,Fri Sep 20 2024 14:22:37 GMT-0500 (Central Daylight Time),244594.89999997616,139_m_f_h_a.png,I,m,1490,11,1,2508.699999988079,242086.19999998808,8001,VNB,A,10
9,test,2,0.0,1-Back,1,z,Fri Sep 20 2024 14:22:37 GMT-0500 (Central Daylight Time),246511.0,039_o_m_h_a.png,I,z,886,12,1,1909.5,244601.5,8001,VNB,A,11
10,test,2,0.0,1-Back,1,m,Fri Sep 20 2024 14:22:37 GMT-0500 (Central Daylight Time),248360.59999999404,109_y_m_d_a.png,I,m,818,13,1,1843.300000011921,246517.29999998212,8001,VNB,A,12
11,test,2,0.0,1-Back,1,m,Fri Sep 20 2024 14:22:37 GMT-0500 (Central Daylight Time),250359.69999998808,124_o_f_n_a.png,I,m,977,14,1,1992.4000000059605,248367.29999998212,8001,VNB,A,13
12,test,2,0.0,1-Back,1,z,Fri Sep 20 2024 14:22:37 GMT-0500 (Central Daylight Time),252192.69999998808,071_y_f_n_a.png,I,z,802,15,1,1826.0,250366.69999998808,8001,VNB,A,14
13,test,2,1.0,1-Back,1,m,Fri Sep 20 2024 14:22:37 GMT-0500 (Central Daylight Time),254058.89999997616,165_m_m_h_a.png,I,m,834,16,1,1859.0,252199.89999997616,8001,VNB,A,15
14,test,2,0.0,1-Back,1,m,Fri Sep 20 2024 14:22:37 GMT-0500 (Central Daylight Time),255991.5,124_o_f_d_a.png,I,m,911,17,1,1926.2000000178814,254065.29999998212,8001,VNB,A,16
15,test,2,1.0,1-Back,1,z,Fri Sep 20 2024 14:22:37 GMT-0500 (Central Daylight Time),258624.09999999404,039_o_m_d_a.png,I,z,1602,18,1,2625.5999999940395,255998.5,8001,VNB,A,17
0,test,3,1.0,1-Back,,,Fri Sep 20 2024 14:22:37 GMT-0500 (Central Daylight Time),258624.09999999404,124_o_f_h_a.png,I,space,2786,1,1,2625.5999999940395,255998.5,8001,VNB,A,0
1,test,3,0.0,1-Back,1,m,Fri Sep 20 2024 14:22:37 GMT-0500 (Central Daylight Time),265288.59999999404,139_m_f_d_a.png,I,m,776,2,1,1797.2000000178814,263491.39999997616,8001,VNB,A,1
2,test,3,1.0,1-Back,1,m,Fri Sep 20 2024 14:22:37 GMT-0500 (Central Daylight Time),267487.7999999821,165_m_m_n_a.png,I,m,1170,3,1,2192.0,265295.7999999821,8001,VNB,A,2
3,test,3,0.0,1-Back,1,z,Fri Sep 20 2024 14:22:37 GMT-0500 (Central Daylight Time),269637.1999999881,124_o_f_n_a.png,I,z,1121,4,1,2142.699999988079,267494.5,8001,VNB,A,3
4,test,3,1.0,1-Back,1,m,Fri Sep 20 2024 14:22:37 GMT-0500 (Central Daylight Time),271469.7999999821,039_o_m_d_a.png,I,m,804,5,1,1826.0,269643.7999999821,8001,VNB,A,4
5,test,3,0.0,1-Back,1,m,Fri Sep 20 2024 14:22:37 GMT-0500 (Central Daylight Time),273402.59999999404,071_y_f_h_a.png,I,m,900,6,1,1926.2000000178814,271476.39999997616,8001,VNB,A,5
6,test,3,0.0,1-Back,1,z,Fri Sep 20 2024 14:22:37 GMT-0500 (Central Daylight Time),275301.89999997616,109_y_m_h_a.png,I,z,871,7,1,1892.699999988079,273409.1999999881,8001,VNB,A,6
7,test,3,0.0,1-Back,1,m,Fri Sep 20 2024 14:22:37 GMT-0500 (Central Daylight Time),277101.59999999404,139_m_f_n_a.png,I,m,771,8,1,1792.5,275309.09999999404,8001,VNB,A,7
8,test,3,0.0,1-Back,1,m,Fri Sep 20 2024 14:22:37 GMT-0500 (Central Daylight Time),279117.5,071_y_f_d_a.png,I,m,988,9,1,2009.300000011921,277108.1999999881,8001,VNB,A,8
9,test,3,1.0,1-Back,1,m,Fri Sep 20 2024 14:22:37 GMT-0500 (Central Daylight Time),281350.2999999821,039_o_m_n_a.png,I,m,1204,10,1,2226.0999999940395,279124.1999999881,8001,VNB,A,9
10,test,3,0.0,1-Back,1,m,Fri Sep 20 2024 14:22:37 GMT-0500 (Central Daylight Time),283449.5,165_m_m_h_a.png,I,m,1068,11,1,2091.7000000178814,281357.7999999821,8001,VNB,A,10
10,test,3,0.0,1-Back,0,z,Fri Sep 20 2024 14:22:37 GMT-0500 (Central Daylight Time),285582.1999999881,139_m_f_h_a.png,I,m,1112,12,1,2125.9000000059605,283456.2999999821,8001,VNB,A,11
11,test,3,1.0,1-Back,1,m,Fri Sep 20 2024 14:22:37 GMT-0500 (Central Daylight Time),287314.6999999881,124_o_f_d_a.png,I,m,707,13,1,1726.199999988079,285588.5,8001,VNB,A,12
11,test,3,0.0,1-Back,0,z,Fri Sep 20 2024 14:22:37 GMT-0500 (Central Daylight Time),289447.5,165_m_m_d_a.png,I,m,1102,14,1,2126.600000023842,287320.89999997616,8001,VNB,A,13
12,test,3,0.0,1-Back,1,m,Fri Sep 20 2024 14:22:37 GMT-0500 (Central Daylight Time),291497.0,109_y_m_n_a.png,I,m,1018,15,1,2043.1000000238419,289453.89999997616,8001,VNB,A,14
13,test,3,1.0,1-Back,1,m,Fri Sep 20 2024 14:22:37 GMT-0500 (Central Daylight Time),293363.0,039_o_m_h_a.png,I,m,849,16,1,1859.4000000059605,291503.59999999404,8001,VNB,A,15
14,test,3,0.0,1-Back,1,m,Fri Sep 20 2024 14:22:37 GMT-0500 (Central Daylight Time),295129.09999999404,109_y_m_d_a.png,I,m,735,17,1,1758.5999999940395,293370.5,8001,VNB,A,16
15,test,3,1.0,1-Back,1,m,Fri Sep 20 2024 14:22:37 GMT-0500 (Central Daylight Time),297178.59999999404,071_y_f_n_a.png,I,m,1016,18,1,2043.0,295135.59999999404,8001,VNB,A,17
0,test,4,1.0,1-Back,,,Fri Sep 20 2024 14:22:37 GMT-0500 (Central Daylight Time),297178.59999999404,165_m_m_d_a.png,I,space,1440,1,1,2043.0,295135.59999999404,8001,VNB,A,0
1,test,4,0.0,1-Back,1,z,Fri Sep 20 2024 14:22:37 GMT-0500 (Central Daylight Time),302976.5,039_o_m_d_a.png,I,z,1293,2,1,2309.0,300667.5,8001,VNB,A,1
2,test,4,0.0,1-Back,1,m,Fri Sep 20 2024 14:22:37 GMT-0500 (Central Daylight Time),304875.6999999881,109_y_m_h_a.png,I,m,873,3,1,1890.699999988079,302985.0,8001,VNB,A,2
3,test,4,0.0,1-Back,1,m,Fri Sep 20 2024 14:22:37 GMT-0500 (Central Daylight Time),306875.39999997616,139_m_f_n_a.png,I,m,974,4,1,1991.8999999761581,304883.5,8001,VNB,A,3
4,test,4,1.0,1-Back,1,m,Fri Sep 20 2024 14:22:37 GMT-0500 (Central Daylight Time),308708.2999999821,124_o_f_h_a.png,I,m,815,5,1,1825.7999999821186,306882.5,8001,VNB,A,4
5,test,4,0.0,1-Back,1,m,Fri Sep 20 2024 14:22:37 GMT-0500 (Central Daylight Time),310744.0,165_m_m_n_a.png,I,m,1019,6,1,2028.800000011921,308715.1999999881,8001,VNB,A,5
6,test,4,0.0,1-Back,1,m,Fri Sep 20 2024 14:22:37 GMT-0500 (Central Daylight Time),313106.6999999881,109_y_m_d_a.png,I,m,1341,7,1,2352.699999988079,310754.0,8001,VNB,A,6
7,test,4,1.0,1-Back,1,z,Fri Sep 20 2024 14:22:37 GMT-0500 (Central Daylight Time),315472.59999999404,071_y_f_d_a.png,I,z,1334,8,1,2359.0999999940395,313113.5,8001,VNB,A,7
8,test,4,0.0,1-Back,1,m,Fri Sep 20 2024 14:22:37 GMT-0500 (Central Daylight Time),317588.6999999881,139_m_f_h_a.png,I,m,1095,9,1,2109.5,315479.1999999881,8001,VNB,A,8
8,test,4,0.0,1-Back,0,z,Fri Sep 20 2024 14:22:37 GMT-0500 (Central Daylight Time),319538.39999997616,039_o_m_h_a.png,I,m,917,10,1,1942.2999999821186,317596.09999999404,8001,VNB,A,9
9,test,4,1.0,1-Back,1,m,Fri Sep 20 2024 14:22:37 GMT-0500 (Central Daylight Time),321404.09999999404,124_o_f_n_a.png,I,m,848,11,1,1858.0,319546.09999999404,8001,VNB,A,10
10,test,4,0.0,1-Back,1,m,Fri Sep 20 2024 14:22:37 GMT-0500 (Central Daylight Time),323486.89999997616,139_m_f_d_a.png,I,m,1061,12,1,2076.0,321410.89999997616,8001,VNB,A,11
11,test,4,0.0,1-Back,1,m,Fri Sep 20 2024 14:22:37 GMT-0500 (Central Daylight Time),325802.6999999881,071_y_f_n_a.png,I,m,1291,13,1,2309.199999988079,323493.5,8001,VNB,A,12
12,test,4,0.0,1-Back,1,m,Fri Sep 20 2024 14:22:37 GMT-0500 (Central Daylight Time),327618.6999999881,124_o_f_d_a.png,I,m,783,14,1,1808.4000000059605,325810.2999999821,8001,VNB,A,13
13,test,4,0.0,1-Back,1,m,Fri Sep 20 2024 14:22:37 GMT-0500 (Central Daylight Time),329468.39999997616,071_y_f_h_a.png,I,m,822,15,1,1842.3999999761581,327626.0,8001,VNB,A,14
14,test,4,1.0,1-Back,1,z,Fri Sep 20 2024 14:22:37 GMT-0500 (Central Daylight Time),331351.09999999404,165_m_m_h_a.png,I,z,854,16,1,1875.7000000178814,329475.39999997616,8001,VNB,A,15
15,test,4,0.0,1-Back,1,m,Fri Sep 20 2024 14:22:37 GMT-0500 (Central Daylight Time),333017.39999997616,039_o_m_n_a.png,I,m,643,17,1,1659.0,331358.39999997616,8001,VNB,A,16
16,test,4,1.0,1-Back,1,z,Fri Sep 20 2024 14:22:37 GMT-0500 (Central Daylight Time),335649.7999999821,109_y_m_n_a.png,I,z,1486,18,1,2625.699999988079,333024.09999999404,8001,VNB,A,17
0,test,5,1.0,1-Back,,,Fri Sep 20 2024 14:22:37 GMT-0500 (Central Daylight Time),335649.7999999821,039_o_m_n_a.png,I,space,3505,1,1,2625.699999988079,333024.09999999404,8001,VNB,A,0
1,test,5,1.0,1-Back,1,m,Fri Sep 20 2024 14:22:37 GMT-0500 (Central Daylight Time),342980.6999999881,124_o_f_h_a.png,I,m,773,2,1,1791.699999988079,341189.0,8001,VNB,A,1
2,test,5,0.0,1-Back,1,m,Fri Sep 20 2024 14:22:37 GMT-0500 (Central Daylight Time),344781.2999999821,109_y_m_d_a.png,I,m,782,3,1,1793.7999999821186,342987.5,8001,VNB,A,2
3,test,5,0.0,1-Back,1,z,Fri Sep 20 2024 14:22:37 GMT-0500 (Central Daylight Time),346779.6999999881,039_o_m_d_a.png,I,z,973,4,1,1991.5999999940395,344788.09999999404,8001,VNB,A,3
4,test,5,0.0,1-Back,1,m,Fri Sep 20 2024 14:22:37 GMT-0500 (Central Daylight Time),348512.39999997616,139_m_f_h_a.png,I,m,711,5,1,1725.3999999761581,346787.0,8001,VNB,A,4
5,test,5,0.0,1-Back,1,m,Fri Sep 20 2024 14:22:37 GMT-0500 (Central Daylight Time),350328.59999999404,071_y_f_n_a.png,I,m,786,6,1,1809.5,348519.09999999404,8001,VNB,A,5
6,test,5,1.0,1-Back,1,z,Fri Sep 20 2024 14:22:37 GMT-0500 (Central Daylight Time),352227.7999999821,124_o_f_n_a.png,I,z,882,7,1,1892.199999988079,350335.59999999404,8001,VNB,A,6
7,test,5,0.0,1-Back,1,m,Fri Sep 20 2024 14:22:37 GMT-0500 (Central Daylight Time),353994.09999999404,139_m_f_d_a.png,I,m,742,8,1,1759.9000000059605,352234.1999999881,8001,VNB,A,7
8,test,5,0.0,1-Back,1,m,Fri Sep 20 2024 14:22:37 GMT-0500 (Central Daylight Time),355926.6999999881,109_y_m_h_a.png,I,m,912,9,1,1925.5,354001.1999999881,8001,VNB,A,8
9,test,5,0.0,1-Back,1,m,Fri Sep 20 2024 14:22:37 GMT-0500 (Central Daylight Time),358043.09999999404,071_y_f_d_a.png,I,m,1099,10,1,2109.4000000059605,355933.6999999881,8001,VNB,A,9
10,test,5,0.0,1-Back,1,m,Fri Sep 20 2024 14:22:37 GMT-0500 (Central Daylight Time),359908.7999999821,165_m_m_n_a.png,I,m,848,11,1,1858.9000000059605,358049.89999997616,8001,VNB,A,10
11,test,5,1.0,1-Back,1,z,Fri Sep 20 2024 14:22:37 GMT-0500 (Central Daylight Time),361841.5,139_m_f_n_a.png,I,z,909,12,1,1925.7000000178814,359915.7999999821,8001,VNB,A,11
12,test,5,0.0,1-Back,1,m,Fri Sep 20 2024 14:22:37 GMT-0500 (Central Daylight Time),363574.59999999404,039_o_m_h_a.png,I,m,712,13,1,1725.7000000178814,361848.89999997616,8001,VNB,A,12
13,test,5,0.0,1-Back,1,z,Fri Sep 20 2024 14:22:37 GMT-0500 (Central Daylight Time),365740.39999997616,165_m_m_h_a.png,I,z,1147,14,1,2159.199999988079,363581.1999999881,8001,VNB,A,13
14,test,5,1.0,1-Back,1,m,Fri Sep 20 2024 14:22:37 GMT-0500 (Central Daylight Time),367373.2999999821,124_o_f_d_a.png,I,m,605,15,1,1626.0,365747.2999999821,8001,VNB,A,14
15,test,5,0.0,1-Back,1,m,Fri Sep 20 2024 14:22:37 GMT-0500 (Central Daylight Time),369555.59999999404,109_y_m_n_a.png,I,m,1157,16,1,2175.5999999940395,367380.0,8001,VNB,A,15
16,test,5,0.0,1-Back,1,m,Fri Sep 20 2024 14:22:37 GMT-0500 (Central Daylight Time),371538.59999999404,071_y_f_h_a.png,I,m,959,17,1,1976.0,369562.59999999404,8001,VNB,A,16
17,test,5,0.0,1-Back,1,m,Fri Sep 20 2024 14:22:37 GMT-0500 (Central Daylight Time),373671.09999999404,165_m_m_d_a.png,I,m,1111,18,1,2126.0,371545.09999999404,8001,VNB,A,17
0,prac,1,0.0,2-Back,,,Fri Sep 20 2024 14:22:37 GMT-0500 (Central Daylight Time),373671.09999999404,139_m_f_n_a.png,I,space,11953,1,1,2126.0,371545.09999999404,8001,VNB,A,0
0,prac,1,0.0,2-Back,,,Fri Sep 20 2024 14:22:37 GMT-0500 (Central Daylight Time),373671.09999999404,124_o_f_h_a.png,I,space,11953,2,1,2126.0,371545.09999999404,8001,VNB,A,0
0,prac,1,0.0,2-Back,0,m,Fri Sep 20 2024 14:22:37 GMT-0500 (Central Daylight Time),551582.1999999881,039_o_m_d_a.png,I,z,1755,3,1,2558.699999988079,549023.5,8001,VNB,A,1
0,prac,1,1.0,2-Back,0,z,Fri Sep 20 2024 14:22:37 GMT-0500 (Central Daylight Time),554264.6999999881,165_m_m_h_a.png,I,m,1866,4,1,2674.5999999940395,551590.099999994,8001,VNB,A,2
0,prac,1,0.0,2-Back,0,m,Fri Sep 20 2024 14:22:37 GMT-0500 (Central Daylight Time),557080.5,071_y_f_n_a.png,I,None,2015,5,1,2808.100000023842,554272.3999999762,8001,VNB,A,3
0,prac,1,1.0,2-Back,0,z,Fri Sep 20 2024 14:22:37 GMT-0500 (Central Daylight Time),559213.1999999881,039_o_m_h_a.png,I,m,1329,6,1,2123.800000011921,557089.3999999762,8001,VNB,A,4
0,prac,1,1.0,2-Back,0,z,Fri Sep 20 2024 14:22:37 GMT-0500 (Central Daylight Time),562028.7999999821,109_y_m_n_a.png,I,None,2010,7,1,2808.0999999940395,559220.6999999881,8001,VNB,A,5
0,prac,1,0.0,2-Back,0,m,Fri Sep 20 2024 14:22:37 GMT-0500 (Central Daylight Time),564844.599999994,139_m_f_d_a.png,I,None,2015,8,1,2808.0,562036.599999994,8001,VNB,A,6
0,prac,1,0.0,2-Back,0,m,Fri Sep 20 2024 14:22:37 GMT-0500 (Central Daylight Time),567677.0,124_o_f_d_a.png,I,None,2002,9,1,2824.4000000059605,564852.599999994,8001,VNB,A,7
1,prac,1,0.0,2-Back,1,m,Fri Sep 20 2024 14:22:37 GMT-0500 (Central Daylight Time),569636.2999999821,165_m_m_h_a.png,I,m,1125,10,1,1951.0,567685.2999999821,8001,VNB,A,8
1,prac,1,1.0,2-Back,0,z,Fri Sep 20 2024 14:22:37 GMT-0500 (Central Daylight Time),572458.8999999762,071_y_f_d_a.png,I,None,2012,11,1,2811.899999976158,569647.0,8001,VNB,A,9
2,prac,1,0.0,2-Back,1,m,Fri Sep 20 2024 14:22:37 GMT-0500 (Central Daylight Time),575174.7999999821,039_o_m_n_a.png,I,m,1904,12,1,2707.2999999821186,572467.5,8001,VNB,A,10
0,prac,2,0.0,2-Back,,,Fri Sep 20 2024 14:22:37 GMT-0500 (Central Daylight Time),575174.7999999821,139_m_f_n_a.png,I,a,3369,1,1,2707.2999999821186,572467.5,8001,VNB,A,0
0,prac,2,0.0,2-Back,,,Fri Sep 20 2024 14:22:37 GMT-0500 (Central Daylight Time),575174.7999999821,124_o_f_h_a.png,I,a,3369,2,1,2707.2999999821186,572467.5,8001,VNB,A,0
0,prac,2,0.0,2-Back,0,m,Fri Sep 20 2024 14:22:37 GMT-0500 (Central Daylight Time),585754.7999999821,039_o_m_d_a.png,I,z,1291,3,1,2091.2999999821186,583663.5,8001,VNB,A,1
0,prac,2,1.0,2-Back,0,z,Fri Sep 20 2024 14:22:37 GMT-0500 (Central Daylight Time),588204.1999999881,165_m_m_h_a.png,I,m,1672,4,1,2441.5,585762.6999999881,8001,VNB,A,2
0,prac,2,0.0,2-Back,0,m,Fri Sep 20 2024 14:22:37 GMT-0500 (Central Daylight Time),591019.7999999821,071_y_f_n_a.png,I,None,2016,5,1,2808.699999988079,588211.099999994,8001,VNB,A,3
0,prac,2,1.0,2-Back,0,z,Fri Sep 20 2024 14:22:37 GMT-0500 (Central Daylight Time),593935.599999994,039_o_m_h_a.png,I,None,2126,6,1,2908.5999999940395,591027.0,8001,VNB,A,4
0,prac,2,1.0,2-Back,0,z,Fri Sep 20 2024 14:22:37 GMT-0500 (Central Daylight Time),596751.1999999881,109_y_m_n_a.png,I,None,2010,7,1,2807.5999999940395,593943.599999994,8001,VNB,A,5
0,prac,2,0.0,2-Back,0,m,Fri Sep 20 2024 14:22:37 GMT-0500 (Central Daylight Time),599551.599999994,139_m_f_d_a.png,I,None,2017,8,1,2792.800000011921,596758.7999999821,8001,VNB,A,6
0,prac,2,0.0,2-Back,0,m,Fri Sep 20 2024 14:22:37 GMT-0500 (Central Daylight Time),602382.8999999762,124_o_f_d_a.png,I,None,2002,9,1,2823.5,599559.3999999762,8001,VNB,A,7
0,prac,2,0.0,2-Back,0,m,Fri Sep 20 2024 14:22:37 GMT-0500 (Central Daylight Time),605149.6999999881,165_m_m_h_a.png,I,None,2009,10,1,2759.5,602390.1999999881,8001,VNB,A,8
0,prac,2,1.0,2-Back,0,z,Fri Sep 20 2024 14:22:37 GMT-0500 (Central Daylight Time),607964.599999994,071_y_f_d_a.png,I,None,2015,11,1,2806.5,605158.099999994,8001,VNB,A,9
0,prac,2,0.0,2-Back,0,m,Fri Sep 20 2024 14:22:37 GMT-0500 (Central Daylight Time),610780.099999994,039_o_m_n_a.png,I,None,2009,12,1,2808.0,607972.099999994,8001,VNB,A,10
0,test,1,0.0,2-Back,,,Fri Sep 20 2024 14:22:37 GMT-0500 (Central Daylight Time),610780.099999994,109_y_m_h_a.png,I,space,13055,1,1,2808.0,607972.099999994,8001,VNB,A,0
0,test,1,0.0,2-Back,,,Fri Sep 20 2024 14:22:37 GMT-0500 (Central Daylight Time),610780.099999994,124_o_f_n_a.png,I,space,13055,2,1,2808.0,607972.099999994,8001,VNB,A,0
1,test,1,0.0,2-Back,1,z,Fri Sep 20 2024 14:22:37 GMT-0500 (Central Daylight Time),639437.7999999821,039_o_m_h_a.png,I,z,772,3,1,1793.0,637644.7999999821,8001,VNB,A,1
2,test,1,0.0,2-Back,1,m,Fri Sep 20 2024 14:22:37 GMT-0500 (Central Daylight Time),641670.599999994,139_m_f_d_a.png,I,m,1205,4,1,2226.300000011921,639444.2999999821,8001,VNB,A,2
3,test,1,1.0,2-Back,1,m,Fri Sep 20 2024 14:22:37 GMT-0500 (Central Daylight Time),643803.2999999821,109_y_m_n_a.png,I,m,1108,5,1,2125.4000000059605,641677.8999999762,8001,VNB,A,3
3,test,1,0.0,2-Back,0,z,Fri Sep 20 2024 14:22:37 GMT-0500 (Central Daylight Time),646735.7999999821,071_y_f_d_a.png,I,m,1911,6,1,2925.5,643810.2999999821,8001,VNB,A,4
3,test,1,0.0,2-Back,0,m,Fri Sep 20 2024 14:22:37 GMT-0500 (Central Daylight Time),648968.1999999881,165_m_m_h_a.png,I,z,1211,7,1,2224.9000000059605,646743.2999999821,8001,VNB,A,5
4,test,1,1.0,2-Back,1,m,Fri Sep 20 2024 14:22:37 GMT-0500 (Central Daylight Time),651267.5,071_y_f_n_a.png,I,m,1274,8,1,2292.4000000059605,648975.099999994,8001,VNB,A,6
5,test,1,0.0,2-Back,1,z,Fri Sep 20 2024 14:22:37 GMT-0500 (Central Daylight Time),653883.599999994,124_o_f_h_a.png,I,z,1583,9,1,2608.7000000178814,651274.8999999762,8001,VNB,A,7
5,test,1,0.0,2-Back,0,m,Fri Sep 20 2024 14:22:37 GMT-0500 (Central Daylight Time),656915.8999999762,039_o_m_d_a.png,I,None,2016,10,1,3025.399999976158,653890.5,8001,VNB,A,8
6,test,1,1.0,2-Back,1,m,Fri Sep 20 2024 14:22:37 GMT-0500 (Central Daylight Time),659747.8999999762,165_m_m_d_a.png,I,m,1807,11,1,2823.7999999821186,656924.099999994,8001,VNB,A,9
7,test,1,0.0,2-Back,1,m,Fri Sep 20 2024 14:22:37 GMT-0500 (Central Daylight Time),662730.5,139_m_f_n_a.png,I,m,1958,12,1,2973.9000000059605,659756.599999994,8001,VNB,A,10
8,test,1,0.0,2-Back,1,m,Fri Sep 20 2024 14:22:37 GMT-0500 (Central Daylight Time),665646.1999999881,071_y_f_h_a.png,I,m,1867,13,1,2909.300000011921,662736.8999999762,8001,VNB,A,11
8,test,1,0.0,2-Back,0,z,Fri Sep 20 2024 14:22:37 GMT-0500 (Central Daylight Time),667728.7999999821,165_m_m_n_a.png,I,m,1060,14,1,2075.7999999821186,665653.0,8001,VNB,A,12
9,test,1,0.0,2-Back,1,m,Fri Sep 20 2024 14:22:37 GMT-0500 (Central Daylight Time),669795.0,109_y_m_d_a.png,I,m,1033,15,1,2059.2000000178814,667735.7999999821,8001,VNB,A,13
9,test,1,1.0,2-Back,0,m,Fri Sep 20 2024 14:22:37 GMT-0500 (Central Daylight Time),672660.599999994,139_m_f_h_a.png,I,z,1847,16,1,2858.7000000178814,669801.8999999762,8001,VNB,A,14
9,test,1,0.0,2-Back,0,z,Fri Sep 20 2024 14:22:37 GMT-0500 (Central Daylight Time),675243.1999999881,124_o_f_d_a.png,I,m,1565,17,1,2575.800000011921,672667.3999999762,8001,VNB,A,15
9,test,1,0.0,2-Back,0,m,Fri Sep 20 2024 14:22:37 GMT-0500 (Central Daylight Time),678009.0,039_o_m_n_a.png,I,z,1735,18,1,2759.0,675250.0,8001,VNB,A,16
0,test,2,0.0,2-Back,,,Fri Sep 20 2024 14:22:37 GMT-0500 (Central Daylight Time),678009.0,165_m_m_h_a.png,I,space,8113,1,1,2759.0,675250.0,8001,VNB,A,0
0,test,2,0.0,2-Back,,,Fri Sep 20 2024 14:22:37 GMT-0500 (Central Daylight Time),678009.0,071_y_f_n_a.png,I,space,8113,2,1,2759.0,675250.0,8001,VNB,A,0
1,test,2,1.0,2-Back,1,z,Fri Sep 20 2024 14:22:37 GMT-0500 (Central Daylight Time),693504.3999999762,124_o_f_h_a.png,I,z,1269,3,1,2291.5999999940395,691212.7999999821,8001,VNB,A,1
1,test,2,0.0,2-Back,0,m,Fri Sep 20 2024 14:22:37 GMT-0500 (Central Daylight Time),695853.3999999762,039_o_m_d_a.png,I,z,1330,4,1,2341.5999999940395,693511.7999999821,8001,VNB,A,2
2,test,2,0.0,2-Back,1,m,Fri Sep 20 2024 14:22:37 GMT-0500 (Central Daylight Time),698336.0,139_m_f_d_a.png,I,m,1453,5,1,2475.300000011921,695860.6999999881,8001,VNB,A,3
3,test,2,0.0,2-Back,1,m,Fri Sep 20 2024 14:22:37 GMT-0500 (Central Daylight Time),701051.599999994,109_y_m_h_a.png,I,m,1698,6,1,2708.9000000059605,698342.6999999881,8001,VNB,A,4
3,test,2,0.0,2-Back,0,m,Fri Sep 20 2024 14:22:37 GMT-0500 (Central Daylight Time),703484.5,124_o_f_n_a.png,I,z,1414,7,1,2426.2000000178814,701058.2999999821,8001,VNB,A,5
4,test,2,1.0,2-Back,1,z,Fri Sep 20 2024 14:22:37 GMT-0500 (Central Daylight Time),706150.1999999881,039_o_m_h_a.png,I,z,1645,8,1,2659.0999999940395,703491.099999994,8001,VNB,A,6
5,test,2,0.0,2-Back,1,m,Fri Sep 20 2024 14:22:37 GMT-0500 (Central Daylight Time),708616.1999999881,071_y_f_d_a.png,I,m,1436,9,1,2459.0,706157.1999999881,8001,VNB,A,7
5,test,2,0.0,2-Back,0,m,Fri Sep 20 2024 14:22:37 GMT-0500 (Central Daylight Time),711648.6999999881,109_y_m_d_a.png,I,None,2016,10,1,3026.0999999940395,708622.599999994,8001,VNB,A,8
6,test,2,0.0,2-Back,1,m,Fri Sep 20 2024 14:22:37 GMT-0500 (Central Daylight Time),714181.1999999881,165_m_m_n_a.png,I,m,1506,11,1,2525.5999999940395,711655.599999994,8001,VNB,A,9
7,test,2,0.0,2-Back,1,m,Fri Sep 20 2024 14:22:37 GMT-0500 (Central Daylight Time),716580.2999999821,139_m_f_h_a.png,I,m,1381,12,1,2392.0,714188.2999999821,8001,VNB,A,10
7,test,2,1.0,2-Back,0,z,Fri Sep 20 2024 14:22:37 GMT-0500 (Central Daylight Time),719112.7999999821,039_o_m_n_a.png,I,m,1502,13,1,2525.0999999940395,716587.6999999881,8001,VNB,A,11
8,test,2,0.0,2-Back,1,m,Fri Sep 20 2024 14:22:37 GMT-0500 (Central Daylight Time),721095.6999999881,124_o_f_d_a.png,I,m,962,14,1,1976.300000011921,719119.3999999762,8001,VNB,A,12
9,test,2,0.0,2-Back,1,m,Fri Sep 20 2024 14:22:37 GMT-0500 (Central Daylight Time),723611.5,071_y_f_h_a.png,I,m,1483,15,1,2509.300000011921,721102.1999999881,8001,VNB,A,13
9,test,2,0.0,2-Back,0,z,Fri Sep 20 2024 14:22:37 GMT-0500 (Central Daylight Time),726460.599999994,165_m_m_d_a.png,I,m,1831,16,1,2842.2000000178814,723618.3999999762,8001,VNB,A,14
10,test,2,0.0,2-Back,1,m,Fri Sep 20 2024 14:22:37 GMT-0500 (Central Daylight Time),728776.5,109_y_m_n_a.png,I,m,1294,17,1,2308.7000000178814,726467.7999999821,8001,VNB,A,15
11,test,2,1.0,2-Back,1,m,Fri Sep 20 2024 14:22:37 GMT-0500 (Central Daylight Time),731525.6999999881,139_m_f_n_a.png,I,m,1730,18,1,2742.199999988079,728783.5,8001,VNB,A,16
0,test,3,1.0,2-Back,,,Fri Sep 20 2024 14:22:37 GMT-0500 (Central Daylight Time),731525.6999999881,039_o_m_n_a.png,I,space,1789,1,1,2742.199999988079,728783.5,8001,VNB,A,0
0,test,3,1.0,2-Back,,,Fri Sep 20 2024 14:22:37 GMT-0500 (Central Daylight Time),731525.6999999881,124_o_f_d_a.png,I,space,1789,2,1,2742.199999988079,728783.5,8001,VNB,A,0
1,test,3,0.0,2-Back,1,m,Fri Sep 20 2024 14:22:37 GMT-0500 (Central Daylight Time),740539.5,071_y_f_h_a.png,I,m,1057,3,1,2076.2000000178814,738463.2999999821,8001,VNB,A,1
2,test,3,0.0,2-Back,1,z,Fri Sep 20 2024 14:22:37 GMT-0500 (Central Daylight Time),742921.7999999821,139_m_f_d_a.png,I,z,1359,4,1,2375.2999999821186,740546.5,8001,VNB,A,2
3,test,3,1.0,2-Back,1,m,Fri Sep 20 2024 14:22:37 GMT-0500 (Central Daylight Time),745571.099999994,109_y_m_n_a.png,I,m,1632,5,1,2642.800000011921,742928.2999999821,8001,VNB,A,3
4,test,3,0.0,2-Back,1,m,Fri Sep 20 2024 14:22:37 GMT-0500 (Central Daylight Time),748070.5,039_o_m_h_a.png,I,m,1479,6,1,2493.2000000178814,745577.2999999821,8001,VNB,A,4
5,test,3,0.0,2-Back,1,z,Fri Sep 20 2024 14:22:37 GMT-0500 (Central Daylight Time),750519.7999999821,071_y_f_n_a.png,I,z,1428,7,1,2442.0,748077.7999999821,8001,VNB,A,5
6,test,3,1.0,2-Back,1,m,Fri Sep 20 2024 14:22:37 GMT-0500 (Central Daylight Time),752785.7999999821,165_m_m_d_a.png,I,m,1243,8,1,2258.9000000059605,750526.8999999762,8001,VNB,A,6
7,test,3,0.0,2-Back,1,m,Fri Sep 20 2024 14:22:37 GMT-0500 (Central Daylight Time),755501.3999999762,109_y_m_d_a.png,I,m,1689,9,1,2708.899999976158,752792.5,8001,VNB,A,7
8,test,3,0.0,2-Back,1,m,Fri Sep 20 2024 14:22:37 GMT-0500 (Central Daylight Time),758433.8999999762,124_o_f_h_a.png,I,m,1909,10,1,2925.699999988079,755508.1999999881,8001,VNB,A,8
9,test,3,1.0,2-Back,1,m,Fri Sep 20 2024 14:22:37 GMT-0500 (Central Daylight Time),761282.8999999762,139_m_f_n_a.png,I,m,1824,11,1,2841.899999976158,758441.0,8001,VNB,A,9
10,test,3,1.0,2-Back,1,z,Fri Sep 20 2024 14:22:37 GMT-0500 (Central Daylight Time),763732.099999994,165_m_m_h_a.png,I,z,1431,12,1,2442.4000000059605,761289.6999999881,8001,VNB,A,10
11,test,3,0.0,2-Back,1,m,Fri Sep 20 2024 14:22:37 GMT-0500 (Central Daylight Time),766464.7999999821,071_y_f_d_a.png,I,m,1702,13,1,2726.0999999940395,763738.6999999881,8001,VNB,A,11
12,test,3,0.0,2-Back,1,m,Fri Sep 20 2024 14:22:37 GMT-0500 (Central Daylight Time),769165.0,124_o_f_n_a.png,I,m,1674,14,1,2693.4000000059605,766471.599999994,8001,VNB,A,12
12,test,3,0.0,2-Back,0,z,Fri Sep 20 2024 14:22:37 GMT-0500 (Central Daylight Time),771363.2999999821,039_o_m_d_a.png,I,m,1166,15,1,2191.2999999821186,769172.0,8001,VNB,A,13
12,test,3,1.0,2-Back,0,m,Fri Sep 20 2024 14:22:37 GMT-0500 (Central Daylight Time),774395.599999994,139_m_f_h_a.png,I,None,2015,16,1,3024.5,771371.099999994,8001,VNB,A,14
13,test,3,0.0,2-Back,1,m,Fri Sep 20 2024 14:22:37 GMT-0500 (Central Daylight Time),777061.2999999821,165_m_m_n_a.png,I,m,1647,17,1,2659.7999999821186,774401.5,8001,VNB,A,15
13,test,3,0.0,2-Back,0,z,Fri Sep 20 2024 14:22:37 GMT-0500 (Central Daylight Time),780093.5,109_y_m_h_a.png,I,None,2016,18,1,3024.600000023842,777068.8999999762,8001,VNB,A,16
0,test,4,0.0,2-Back,,,Fri Sep 20 2024 14:22:37 GMT-0500 (Central Daylight Time),780093.5,139_m_f_n_a.png,I,space,1406,1,1,3024.600000023842,777068.8999999762,8001,VNB,A,0
0,test,4,0.0,2-Back,,,Fri Sep 20 2024 14:22:37 GMT-0500 (Central Daylight Time),780093.5,039_o_m_n_a.png,I,space,1406,2,1,3024.600000023842,777068.8999999762,8001,VNB,A,0
1,test,4,1.0,2-Back,1,m,Fri Sep 20 2024 14:22:37 GMT-0500 (Central Daylight Time),788824.2999999821,109_y_m_h_a.png,I,m,1219,3,1,2242.2999999821186,786582.0,8001,VNB,A,1
2,test,4,1.0,2-Back,1,m,Fri Sep 20 2024 14:22:37 GMT-0500 (Central Daylight Time),791173.599999994,124_o_f_d_a.png,I,m,1330,4,1,2342.5999999940395,788831.0,8001,VNB,A,2
2,test,4,0.0,2-Back,0,z,Fri Sep 20 2024 14:22:37 GMT-0500 (Central Daylight Time),794206.1999999881,039_o_m_h_a.png,I,None,2016,5,1,3025.699999988079,791180.5,8001,VNB,A,3
2,test,4,0.0,2-Back,0,m,Fri Sep 20 2024 14:22:37 GMT-0500 (Central Daylight Time),797221.5,165_m_m_n_a.png,I,z,1988,6,1,3008.5,794213.0,8001,VNB,A,4
3,test,4,0.0,2-Back,1,m,Fri Sep 20 2024 14:22:37 GMT-0500 (Central Daylight Time),799637.6999999881,139_m_f_d_a.png,I,m,1397,7,1,2409.199999988079,797228.5,8001,VNB,A,5
3,test,4,0.0,2-Back,0,z,Fri Sep 20 2024 14:22:37 GMT-0500 (Central Daylight Time),802419.7999999821,071_y_f_n_a.png,I,m,1765,8,1,2775.2999999821186,799644.5,8001,VNB,A,6
3,test,4,1.0,2-Back,0,m,Fri Sep 20 2024 14:22:37 GMT-0500 (Central Daylight Time),805452.3999999762,124_o_f_h_a.png,I,None,2015,9,1,3025.7999999821186,802426.599999994,8001,VNB,A,7
3,test,4,0.0,2-Back,0,m,Fri Sep 20 2024 14:22:37 GMT-0500 (Central Daylight Time),808486.0,165_m_m_h_a.png,I,None,2017,10,1,3027.100000023842,805458.8999999762,8001,VNB,A,8
4,test,4,0.0,2-Back,1,m,Fri Sep 20 2024 14:22:37 GMT-0500 (Central Daylight Time),810384.2999999821,071_y_f_d_a.png,I,m,869,11,1,1891.2999999821186,808493.0,8001,VNB,A,9
5,test,4,0.0,2-Back,1,m,Fri Sep 20 2024 14:22:37 GMT-0500 (Central Daylight Time),812216.8999999762,109_y_m_n_a.png,I,m,810,12,1,1825.7999999821186,810391.099999994,8001,VNB,A,10
5,test,4,0.0,2-Back,0,z,Fri Sep 20 2024 14:22:37 GMT-0500 (Central Daylight Time),814799.599999994,039_o_m_d_a.png,I,m,1561,13,1,2575.300000011921,812224.2999999821,8001,VNB,A,11
6,test,4,1.0,2-Back,1,m,Fri Sep 20 2024 14:22:37 GMT-0500 (Central Daylight Time),817398.8999999762,139_m_f_h_a.png,I,m,1571,14,1,2591.399999976158,814807.5,8001,VNB,A,12
6,test,4,1.0,2-Back,0,m,Fri Sep 20 2024 14:22:37 GMT-0500 (Central Daylight Time),819881.3999999762,071_y_f_h_a.png,I,z,1452,15,1,2475.699999988079,817405.6999999881,8001,VNB,A,13
6,test,4,0.0,2-Back,0,m,Fri Sep 20 2024 14:22:37 GMT-0500 (Central Daylight Time),822913.7999999821,124_o_f_n_a.png,I,None,2016,16,1,3025.7999999821186,819888.0,8001,VNB,A,14
7,test,4,0.0,2-Back,1,m,Fri Sep 20 2024 14:22:37 GMT-0500 (Central Daylight Time),825246.2999999821,109_y_m_d_a.png,I,m,1305,17,1,2326.0999999940395,822920.1999999881,8001,VNB,A,15
7,test,4,1.0,2-Back,0,m,Fri Sep 20 2024 14:22:37 GMT-0500 (Central Daylight Time),828390.5,165_m_m_d_a.png,I,None,2127,18,1,3137.2000000178814,825253.2999999821,8001,VNB,A,16
0,test,5,1.0,2-Back,,,Fri Sep 20 2024 14:22:37 GMT-0500 (Central Daylight Time),828390.5,071_y_f_d_a.png,I,space,2276,1,1,3137.2000000178814,825253.2999999821,8001,VNB,A,0
0,test,5,1.0,2-Back,,,Fri Sep 20 2024 14:22:37 GMT-0500 (Central Daylight Time),828390.5,124_o_f_h_a.png,I,space,2276,2,1,3137.2000000178814,825253.2999999821,8001,VNB,A,0
1,test,5,1.0,2-Back,1,z,Fri Sep 20 2024 14:22:37 GMT-0500 (Central Daylight Time),838342.2999999821,039_o_m_d_a.png,I,z,1546,3,1,2558.2999999821186,835784.0,8001,VNB,A,1
2,test,5,1.0,2-Back,1,m,Fri Sep 20 2024 14:22:37 GMT-0500 (Central Daylight Time),840824.7999999821,139_m_f_n_a.png,I,m,1460,4,1,2475.199999988079,838349.599999994,8001,VNB,A,2
3,test,5,0.0,2-Back,1,m,Fri Sep 20 2024 14:22:37 GMT-0500 (Central Daylight Time),843524.0,165_m_m_h_a.png,I,m,1674,5,1,2692.2000000178814,840831.7999999821,8001,VNB,A,3
3,test,5,0.0,2-Back,0,z,Fri Sep 20 2024 14:22:37 GMT-0500 (Central Daylight Time),846189.599999994,071_y_f_n_a.png,I,m,1638,6,1,2659.0,843530.599999994,8001,VNB,A,4
4,test,5,0.0,2-Back,1,m,Fri Sep 20 2024 14:22:37 GMT-0500 (Central Daylight Time),848805.6999999881,124_o_f_d_a.png,I,m,1597,7,1,2609.300000011921,846196.3999999762,8001,VNB,A,5
5,test,5,0.0,2-Back,1,m,Fri Sep 20 2024 14:22:37 GMT-0500 (Central Daylight Time),851271.2999999821,039_o_m_h_a.png,I,m,1437,8,1,2459.0,848812.2999999821,8001,VNB,A,6
6,test,5,1.0,2-Back,1,z,Fri Sep 20 2024 14:22:37 GMT-0500 (Central Daylight Time),853204.2999999821,139_m_f_d_a.png,I,z,907,9,1,1926.0999999940395,851278.1999999881,8001,VNB,A,7
7,test,5,0.0,2-Back,1,m,Fri Sep 20 2024 14:22:37 GMT-0500 (Central Daylight Time),855320.0,109_y_m_n_a.png,I,m,1094,10,1,2108.5,853211.5,8001,VNB,A,8
7,test,5,0.0,2-Back,0,m,Fri Sep 20 2024 14:22:37 GMT-0500 (Central Daylight Time),858352.7999999821,165_m_m_n_a.png,I,None,2016,11,1,3026.0,855326.7999999821,8001,VNB,A,9
7,test,5,0.0,2-Back,0,m,Fri Sep 20 2024 14:22:37 GMT-0500 (Central Daylight Time),861385.0,071_y_f_h_a.png,I,None,2016,12,1,3025.600000023842,858359.3999999762,8001,VNB,A,10
8,test,5,0.0,2-Back,1,m,Fri Sep 20 2024 14:22:37 GMT-0500 (Central Daylight Time),864067.2999999821,109_y_m_d_a.png,I,m,1649,13,1,2675.5,861391.7999999821,8001,VNB,A,11
8,test,5,1.0,2-Back,0,z,Fri Sep 20 2024 14:22:37 GMT-0500 (Central Daylight Time),866983.1999999881,139_m_f_h_a.png,I,m,1895,14,1,2909.0999999940395,864074.099999994,8001,VNB,A,12
9,test,5,0.0,2-Back,1,m,Fri Sep 20 2024 14:22:37 GMT-0500 (Central Daylight Time),869066.099999994,039_o_m_n_a.png,I,m,1059,15,1,2076.2000000178814,866989.8999999762,8001,VNB,A,13
9,test,5,0.0,2-Back,0,m,Fri Sep 20 2024 14:22:37 GMT-0500 (Central Daylight Time),872098.2999999821,165_m_m_d_a.png,I,None,2015,16,1,3025.2999999821186,869073.0,8001,VNB,A,14
9,test,5,0.0,2-Back,0,z,Fri Sep 20 2024 14:22:37 GMT-0500 (Central Daylight Time),874214.1999999881,124_o_f_n_a.png,I,m,1088,17,1,2108.9000000059605,872105.2999999821,8001,VNB,A,15
10,test,5,1.0,2-Back,1,m,Fri Sep 20 2024 14:22:37 GMT-0500 (Central Daylight Time),876346.8999999762,109_y_m_h_a.png,I,m,1108,18,1,2125.5999999940395,874221.2999999821,8001,VNB,A,16
